onset	duration	response_time_ms	trial_type	learning_stage	stimulus	response_port
0.0	0.95	950.0	incongruent	Block1	incongruent/STIM_000.jpg	100
3.572	1.078	1077.7	incongruent	Block1	incongruent/STIM_000.jpg	100
6.774	1.053	1052.7	incongruent	Block1	incongruent/STIM_000.jpg	100
11.753	0.778	777.8	incongruent	Block1	incongruent/STIM_000.jpg	100
14.968	1.084	1083.8	incongruent	Block1	incongruent/STIM_000.jpg	100
18.102	0.744	743.8	incongruent	Block1	incongruent/STIM_001.jpg	100
21.883	1.143	1143.0	incongruent	Block1	incongruent/STIM_001.jpg	99
26.969	0.991	990.9	incongruent	Block1	incongruent/STIM_001.jpg	99
30.694	0.578	578.4	incongruent	Block1	incongruent/STIM_001.jpg	100
33.881	0.525	524.7	incongruent	Block1	incongruent/STIM_001.jpg	100
37.575	0.724	723.6	incongruent	Block1	incongruent/STIM_002.jpg	100
42.124	0.666	665.9	incongruent	Block1	incongruent/STIM_002.jpg	99
46.148	1.048	1048.1	incongruent	Block1	incongruent/STIM_002.jpg	99
51.183	0.889	889.3	incongruent	Block1	incongruent/STIM_002.jpg	99
54.241	0.904	903.8	incongruent	Block1	incongruent/STIM_002.jpg	100
57.17	1.175	1175.4	incongruent	Block1	incongruent/STIM_003.jpg	100
60.674	1.226	1225.8	incongruent	Block1	incongruent/STIM_003.jpg	99
65.411	1.109	1109.3	incongruent	Block1	incongruent/STIM_003.jpg	100
69.135	0.686	685.8	incongruent	Block1	incongruent/STIM_003.jpg	100
71.959	0.559	559.2	incongruent	Block1	incongruent/STIM_003.jpg	99
75.053	0.655	654.8	incongruent	Block1	incongruent/STIM_004.jpg	100
79.259	0.978	977.8	incongruent	Block1	incongruent/STIM_004.jpg	100
84.119	1.046	1045.5	incongruent	Block1	incongruent/STIM_004.jpg	99
87.448	1.084	1084.3	incongruent	Block1	incongruent/STIM_004.jpg	100
90.987	1.105	1105.1	incongruent	Block1	incongruent/STIM_004.jpg	99
95.738	1.092	1092.3	incongruent	Block1	incongruent/STIM_005.jpg	99
100.495	1.259	1259.4	incongruent	Block1	incongruent/STIM_005.jpg	99
104.627	0.733	732.6	incongruent	Block1	incongruent/STIM_005.jpg	99
109.236	0.789	788.9	incongruent	Block1	incongruent/STIM_005.jpg	99
112.895	0.716	716.3	incongruent	Block1	incongruent/STIM_005.jpg	99
117.535	1.111	1110.8	incongruent	Block1	incongruent/STIM_006.jpg	100
122.48	0.724	723.9	incongruent	Block1	incongruent/STIM_006.jpg	99
125.646	0.657	656.7	incongruent	Block1	incongruent/STIM_006.jpg	99
129.621	0.899	898.9	incongruent	Block1	incongruent/STIM_006.jpg	100
132.68	0.741	740.9	incongruent	Block1	incongruent/STIM_006.jpg	100
136.993	0.923	923.3	incongruent	Block1	incongruent/STIM_007.jpg	100
141.689	0.914	914.0	incongruent	Block1	incongruent/STIM_007.jpg	99
145.021	1.032	1032.2	incongruent	Block1	incongruent/STIM_007.jpg	99
149.967	0.673	673.4	incongruent	Block1	incongruent/STIM_007.jpg	99
154.046	0.767	767.1	incongruent	Block1	incongruent/STIM_007.jpg	99
158.161	1.062	1061.9	incongruent	Block1	incongruent/STIM_008.jpg	100
161.441	1.063	1063.4	incongruent	Block1	incongruent/STIM_008.jpg	99
164.881	1.1	1099.9	incongruent	Block1	incongruent/STIM_008.jpg	100
168.124	0.96	959.7	incongruent	Block1	incongruent/STIM_008.jpg	100
172.594	0.64	639.9	incongruent	Block1	incongruent/STIM_008.jpg	100
175.935	1.314	1313.6	incongruent	Block1	incongruent/STIM_009.jpg	100
180.426	0.959	959.2	incongruent	Block1	incongruent/STIM_009.jpg	100
184.274	0.932	932.0	incongruent	Block1	incongruent/STIM_009.jpg	100
187.301	1.095	1094.8	incongruent	Block1	incongruent/STIM_009.jpg	99
191.027	1.002	1001.6	incongruent	Block1	incongruent/STIM_009.jpg	100
196.006	1.262	1261.5	incongruent	Block1	incongruent/STIM_010.jpg	99
200.969	0.826	826.4	incongruent	Block1	incongruent/STIM_010.jpg	99
204.491	0.972	972.5	incongruent	Block1	incongruent/STIM_010.jpg	100
208.144	0.668	667.7	incongruent	Block1	incongruent/STIM_010.jpg	99
212.359	0.959	958.8	incongruent	Block1	incongruent/STIM_010.jpg	99
216.252	1.139	1139.4	incongruent	Block1	incongruent/STIM_011.jpg	100
220.228	1.079	1078.8	incongruent	Block1	incongruent/STIM_011.jpg	99
223.411	0.641	641.1	incongruent	Block1	incongruent/STIM_011.jpg	99
227.8	1.127	1126.8	incongruent	Block1	incongruent/STIM_011.jpg	99
231.467	1.07	1069.9	incongruent	Block1	incongruent/STIM_011.jpg	100
236.221	1.01	1009.7	incongruent	Block1	incongruent/STIM_012.jpg	100
239.602	0.687	687.1	incongruent	Block1	incongruent/STIM_012.jpg	99
243.063	0.937	936.8	incongruent	Block1	incongruent/STIM_012.jpg	99
247.255	1.072	1071.9	incongruent	Block1	incongruent/STIM_012.jpg	99
251.144	0.634	633.7	incongruent	Block1	incongruent/STIM_012.jpg	100
254.495	0.702	701.7	incongruent	Block1	incongruent/STIM_013.jpg	100
257.508	0.845	845.4	incongruent	Block1	incongruent/STIM_013.jpg	100
260.49	1.213	1213.4	incongruent	Block1	incongruent/STIM_013.jpg	100
265.503	1.158	1157.6	incongruent	Block1	incongruent/STIM_013.jpg	100
270.068	0.548	548.2	incongruent	Block1	incongruent/STIM_013.jpg	100
273.723	0.71	710.2	incongruent	Block1	incongruent/STIM_014.jpg	100
277.137	0.771	770.9	incongruent	Block1	incongruent/STIM_014.jpg	100
280.805	1.144	1143.7	incongruent	Block1	incongruent/STIM_014.jpg	99
285.782	0.756	755.9	incongruent	Block1	incongruent/STIM_014.jpg	100
288.744	0.871	871.4	incongruent	Block1	incongruent/STIM_014.jpg	100
292.736	0.81	809.7	incongruent	Block1	incongruent/STIM_015.jpg	99
297.331	0.925	924.6	incongruent	Block1	incongruent/STIM_015.jpg	99
300.307	0.891	890.7	incongruent	Block1	incongruent/STIM_015.jpg	100
303.429	0.859	858.9	incongruent	Block1	incongruent/STIM_015.jpg	99
306.903	0.942	941.8	incongruent	Block1	incongruent/STIM_015.jpg	99
310.687	1.286	1285.6	incongruent	Block1	incongruent/STIM_016.jpg	99
315.718	1.2	1199.8	incongruent	Block1	incongruent/STIM_016.jpg	99
320.9	1.234	1234.0	incongruent	Block1	incongruent/STIM_016.jpg	99
324.828	0.915	914.7	incongruent	Block1	incongruent/STIM_016.jpg	99
329.54	0.569	569.4	incongruent	Block1	incongruent/STIM_016.jpg	99
334.07	1.244	1243.9	incongruent	Block1	incongruent/STIM_017.jpg	99
338.992	1.008	1008.1	incongruent	Block1	incongruent/STIM_017.jpg	99
342.659	0.892	891.6	incongruent	Block1	incongruent/STIM_017.jpg	99
345.587	0.762	761.9	incongruent	Block1	incongruent/STIM_017.jpg	99
349.092	0.987	987.4	incongruent	Block1	incongruent/STIM_017.jpg	100
352.652	0.695	695.3	incongruent	Block1	incongruent/STIM_018.jpg	99
356.796	0.87	869.7	incongruent	Block1	incongruent/STIM_018.jpg	100
360.597	0.805	804.9	incongruent	Block1	incongruent/STIM_018.jpg	100
363.97	0.877	877.4	incongruent	Block1	incongruent/STIM_018.jpg	99
368.415	0.577	576.6	incongruent	Block1	incongruent/STIM_018.jpg	99
372.429	1.344	1344.1	incongruent	Block1	incongruent/STIM_019.jpg	99
376.904	0.962	961.9	incongruent	Block1	incongruent/STIM_019.jpg	99
380.19	1.072	1071.6	incongruent	Block1	incongruent/STIM_019.jpg	100
383.556	0.716	715.8	incongruent	Block1	incongruent/STIM_019.jpg	100
387.754	0.523	523.1	incongruent	Block1	incongruent/STIM_019.jpg	100
390.613	1.278	1278.0	incongruent	Block1	incongruent/STIM_020.jpg	100
395.196	1.285	1284.9	incongruent	Block1	incongruent/STIM_020.jpg	99
399.441	1.089	1088.7	incongruent	Block1	incongruent/STIM_020.jpg	100
404.046	0.954	954.2	incongruent	Block1	incongruent/STIM_020.jpg	99
408.87	0.959	958.9	incongruent	Block1	incongruent/STIM_020.jpg	100
411.914	1.245	1244.9	incongruent	Block1	incongruent/STIM_021.jpg	99
416.602	0.676	675.8	incongruent	Block1	incongruent/STIM_021.jpg	100
419.467	0.851	851.0	incongruent	Block1	incongruent/STIM_021.jpg	100
424.026	0.648	647.8	incongruent	Block1	incongruent/STIM_021.jpg	99
427.329	0.624	623.6	incongruent	Block1	incongruent/STIM_021.jpg	99
430.87	0.855	855.0	incongruent	Block1	incongruent/STIM_022.jpg	100
434.355	0.717	717.2	incongruent	Block1	incongruent/STIM_022.jpg	99
437.322	1.134	1134.3	incongruent	Block1	incongruent/STIM_022.jpg	99
442.285	0.791	791.4	incongruent	Block1	incongruent/STIM_022.jpg	99
445.609	0.566	565.7	incongruent	Block1	incongruent/STIM_022.jpg	100
448.642	0.892	892.3	incongruent	Block1	incongruent/STIM_023.jpg	100
452.327	0.868	868.2	incongruent	Block1	incongruent/STIM_023.jpg	100
456.031	0.98	979.5	incongruent	Block1	incongruent/STIM_023.jpg	100
460.543	0.846	845.9	incongruent	Block1	incongruent/STIM_023.jpg	99
464.998	0.861	860.6	incongruent	Block1	incongruent/STIM_023.jpg	100
469.528	0.922	921.9	incongruent	Block1	incongruent/STIM_024.jpg	100
473.404	0.794	793.5	incongruent	Block1	incongruent/STIM_024.jpg	100
478.015	0.915	915.1	incongruent	Block1	incongruent/STIM_024.jpg	100
481.059	0.716	716.2	incongruent	Block1	incongruent/STIM_024.jpg	100
484.422	0.843	843.2	incongruent	Block1	incongruent/STIM_024.jpg	100
488.337	0.736	735.9	incongruent	Block1	incongruent/STIM_025.jpg	100
491.875	1.041	1040.9	incongruent	Block1	incongruent/STIM_025.jpg	99
495.057	0.643	643.2	incongruent	Block1	incongruent/STIM_025.jpg	99
498.677	0.859	859.3	incongruent	Block1	incongruent/STIM_025.jpg	99
502.379	0.98	979.9	incongruent	Block1	incongruent/STIM_025.jpg	100
506.089	0.924	923.9	incongruent	Block1	incongruent/STIM_026.jpg	100
509.706	1.3	1300.0	incongruent	Block1	incongruent/STIM_026.jpg	99
514.341	0.781	781.4	incongruent	Block1	incongruent/STIM_026.jpg	99
518.959	0.851	851.2	incongruent	Block1	incongruent/STIM_026.jpg	100
522.948	0.812	811.7	incongruent	Block1	incongruent/STIM_026.jpg	99
527.398	0.792	792.1	incongruent	Block1	incongruent/STIM_027.jpg	99
530.489	1.191	1190.8	incongruent	Block1	incongruent/STIM_027.jpg	99
533.772	1.176	1175.7	incongruent	Block1	incongruent/STIM_027.jpg	100
538.774	1.1	1099.7	incongruent	Block1	incongruent/STIM_027.jpg	100
543.023	0.936	936.1	incongruent	Block1	incongruent/STIM_027.jpg	99
547.744	0.908	907.8	incongruent	Block1	incongruent/STIM_028.jpg	100
551.823	1.214	1214.0	incongruent	Block1	incongruent/STIM_028.jpg	100
556.609	0.769	769.1	incongruent	Block1	incongruent/STIM_028.jpg	100
561.114	0.622	622.2	incongruent	Block1	incongruent/STIM_028.jpg	100
565.297	1.04	1039.9	incongruent	Block1	incongruent/STIM_028.jpg	99
568.471	0.993	993.4	incongruent	Block1	incongruent/STIM_029.jpg	99
573.105	1.129	1129.4	incongruent	Block1	incongruent/STIM_029.jpg	99
578.079	0.929	929.0	incongruent	Block1	incongruent/STIM_029.jpg	99
581.497	0.978	978.3	incongruent	Block1	incongruent/STIM_029.jpg	100
585.485	0.582	582.5	incongruent	Block1	incongruent/STIM_029.jpg	99
588.979	0.588	587.6	congruent	Block1	congruent/STIM_000.jpg	99
592.408	0.684	684.2	congruent	Block1	congruent/STIM_000.jpg	100
595.813	0.81	809.5	congruent	Block1	congruent/STIM_000.jpg	100
600.083	0.643	643.0	congruent	Block1	congruent/STIM_000.jpg	100
603.89	0.73	730.3	congruent	Block1	congruent/STIM_000.jpg	100
608.189	0.673	673.2	congruent	Block1	congruent/STIM_001.jpg	99
611.331	0.664	664.5	congruent	Block1	congruent/STIM_001.jpg	100
615.428	0.571	571.3	congruent	Block1	congruent/STIM_001.jpg	99
619.694	0.803	803.4	congruent	Block1	congruent/STIM_001.jpg	100
622.589	0.645	645.2	congruent	Block1	congruent/STIM_001.jpg	99
626.544	0.811	811.4	congruent	Block1	congruent/STIM_002.jpg	100
629.793	0.806	806.3	congruent	Block1	congruent/STIM_002.jpg	100
633.864	0.607	607.0	congruent	Block1	congruent/STIM_002.jpg	100
636.948	0.775	774.7	congruent	Block1	congruent/STIM_002.jpg	99
641.218	0.763	762.6	congruent	Block1	congruent/STIM_002.jpg	99
644.39	0.74	739.5	congruent	Block1	congruent/STIM_003.jpg	99
648.216	0.673	672.7	congruent	Block1	congruent/STIM_003.jpg	100
652.27	0.666	665.5	congruent	Block1	congruent/STIM_003.jpg	100
654.938	0.806	805.6	congruent	Block1	congruent/STIM_003.jpg	100
658.291	0.579	579.3	congruent	Block1	congruent/STIM_003.jpg	99
661.004	0.667	667.4	congruent	Block1	congruent/STIM_004.jpg	99
665.117	0.548	547.8	congruent	Block1	congruent/STIM_004.jpg	100
668.205	0.524	523.8	congruent	Block1	congruent/STIM_004.jpg	99
672.183	0.706	705.8	congruent	Block1	congruent/STIM_004.jpg	99
675.687	0.742	742.3	congruent	Block1	congruent/STIM_004.jpg	100
680.26	0.546	545.6	congruent	Block1	congruent/STIM_005.jpg	99
683.59	0.802	802.0	congruent	Block1	congruent/STIM_005.jpg	99
687.702	0.7	700.4	congruent	Block1	congruent/STIM_005.jpg	100
692.184	0.656	656.5	congruent	Block1	congruent/STIM_005.jpg	99
695.559	0.533	533.4	congruent	Block1	congruent/STIM_005.jpg	100
698.705	0.81	810.1	congruent	Block1	congruent/STIM_006.jpg	99
702.424	0.796	795.6	congruent	Block1	congruent/STIM_006.jpg	99
706.818	0.833	833.4	congruent	Block1	congruent/STIM_006.jpg	100
709.776	0.78	779.5	congruent	Block1	congruent/STIM_006.jpg	100
714.188	0.711	710.7	congruent	Block1	congruent/STIM_006.jpg	100
718.632	0.485	485.1	congruent	Block1	congruent/STIM_007.jpg	99
722.032	0.728	727.6	congruent	Block1	congruent/STIM_007.jpg	100
725.74	0.61	609.5	congruent	Block1	congruent/STIM_007.jpg	100
729.76	0.682	682.3	congruent	Block1	congruent/STIM_007.jpg	99
732.975	0.549	548.8	congruent	Block1	congruent/STIM_007.jpg	100
737.341	0.694	693.8	congruent	Block1	congruent/STIM_008.jpg	100
741.099	0.748	748.4	congruent	Block1	congruent/STIM_008.jpg	99
744.551	0.511	511.0	congruent	Block1	congruent/STIM_008.jpg	100
747.686	0.798	797.8	congruent	Block1	congruent/STIM_008.jpg	99
751.069	0.643	643.3	congruent	Block1	congruent/STIM_008.jpg	100
754.554	0.79	789.8	congruent	Block1	congruent/STIM_009.jpg	100
758.155	0.585	585.0	congruent	Block1	congruent/STIM_009.jpg	99
762.383	0.467	466.7	congruent	Block1	congruent/STIM_009.jpg	99
765.319	0.683	683.1	congruent	Block1	congruent/STIM_009.jpg	99
768.098	0.628	627.7	congruent	Block1	congruent/STIM_009.jpg	99
771.576	0.734	733.5	congruent	Block1	congruent/STIM_010.jpg	99
774.552	0.798	798.5	congruent	Block1	congruent/STIM_010.jpg	100
777.49	0.597	597.3	congruent	Block1	congruent/STIM_010.jpg	100
780.2	0.492	491.6	congruent	Block1	congruent/STIM_010.jpg	99
784.522	0.59	590.2	congruent	Block1	congruent/STIM_010.jpg	100
788.257	0.684	684.5	congruent	Block1	congruent/STIM_011.jpg	99
791.164	0.655	655.1	congruent	Block1	congruent/STIM_011.jpg	99
795.777	0.549	548.8	congruent	Block1	congruent/STIM_011.jpg	100
800.143	0.677	676.7	congruent	Block1	congruent/STIM_011.jpg	100
804.333	0.796	796.3	congruent	Block1	congruent/STIM_011.jpg	99
808.983	0.825	825.1	congruent	Block1	congruent/STIM_012.jpg	100
812.599	0.598	597.9	congruent	Block1	congruent/STIM_012.jpg	99
816.312	0.574	574.4	congruent	Block1	congruent/STIM_012.jpg	100
819.622	0.56	560.3	congruent	Block1	congruent/STIM_012.jpg	100
823.054	0.552	551.7	congruent	Block1	congruent/STIM_012.jpg	99
826.471	0.539	539.3	congruent	Block1	congruent/STIM_013.jpg	100
830.192	0.472	471.8	congruent	Block1	congruent/STIM_013.jpg	100
833.638	0.594	594.5	congruent	Block1	congruent/STIM_013.jpg	100
838.159	0.661	660.8	congruent	Block1	congruent/STIM_013.jpg	99
842.371	0.636	636.0	congruent	Block1	congruent/STIM_013.jpg	99
846.119	0.566	565.8	congruent	Block1	congruent/STIM_014.jpg	100
850.503	0.799	798.9	congruent	Block1	congruent/STIM_014.jpg	99
854.763	0.819	818.9	congruent	Block1	congruent/STIM_014.jpg	100
858.251	0.49	489.9	congruent	Block1	congruent/STIM_014.jpg	99
861.475	0.752	752.3	congruent	Block1	congruent/STIM_014.jpg	99
865.879	0.488	487.9	congruent	Block1	congruent/STIM_015.jpg	99
868.544	0.466	466.3	congruent	Block1	congruent/STIM_015.jpg	100
872.902	0.478	478.5	congruent	Block1	congruent/STIM_015.jpg	100
876.434	0.794	794.1	congruent	Block1	congruent/STIM_015.jpg	100
880.36	0.656	656.1	congruent	Block1	congruent/STIM_015.jpg	100
884.574	0.752	751.8	congruent	Block1	congruent/STIM_016.jpg	100
888.31	0.55	549.6	congruent	Block1	congruent/STIM_016.jpg	100
892.387	0.575	574.9	congruent	Block1	congruent/STIM_016.jpg	99
895.374	0.58	579.9	congruent	Block1	congruent/STIM_016.jpg	99
898.545	0.742	742.2	congruent	Block1	congruent/STIM_016.jpg	100
901.33	0.742	742.5	congruent	Block1	congruent/STIM_017.jpg	99
905.072	0.787	787.1	congruent	Block1	congruent/STIM_017.jpg	100
908.997	0.743	742.8	congruent	Block1	congruent/STIM_017.jpg	100
913.706	0.624	624.4	congruent	Block1	congruent/STIM_017.jpg	100
916.486	0.617	616.9	congruent	Block1	congruent/STIM_017.jpg	99
919.87	0.508	507.7	congruent	Block1	congruent/STIM_018.jpg	100
923.993	0.673	673.0	congruent	Block1	congruent/STIM_018.jpg	99
927.806	0.641	640.8	congruent	Block1	congruent/STIM_018.jpg	100
931.019	0.476	475.7	congruent	Block1	congruent/STIM_018.jpg	100
935.045	0.528	528.4	congruent	Block1	congruent/STIM_018.jpg	99
938.855	0.794	793.9	congruent	Block1	congruent/STIM_019.jpg	99
942.176	0.572	572.4	congruent	Block1	congruent/STIM_019.jpg	99
945.845	0.677	676.7	congruent	Block1	congruent/STIM_019.jpg	99
949.93	0.733	733.0	congruent	Block1	congruent/STIM_019.jpg	100
953.112	0.709	709.3	congruent	Block1	congruent/STIM_019.jpg	99
955.985	0.526	525.8	congruent	Block1	congruent/STIM_020.jpg	100
958.584	0.772	772.4	congruent	Block1	congruent/STIM_020.jpg	99
962.559	0.564	563.8	congruent	Block1	congruent/STIM_020.jpg	99
965.385	0.816	816.0	congruent	Block1	congruent/STIM_020.jpg	99
968.48	0.583	583.1	congruent	Block1	congruent/STIM_020.jpg	99
972.35	0.683	683.4	congruent	Block1	congruent/STIM_021.jpg	100
976.612	0.513	513.0	congruent	Block1	congruent/STIM_021.jpg	99
979.188	0.581	581.3	congruent	Block1	congruent/STIM_021.jpg	99
983.659	0.679	679.2	congruent	Block1	congruent/STIM_021.jpg	99
986.711	0.63	630.1	congruent	Block1	congruent/STIM_021.jpg	99
989.611	0.522	521.6	congruent	Block1	congruent/STIM_022.jpg	99
992.887	0.471	471.4	congruent	Block1	congruent/STIM_022.jpg	100
996.717	0.493	492.6	congruent	Block1	congruent/STIM_022.jpg	100
999.269	0.501	500.8	congruent	Block1	congruent/STIM_022.jpg	100
1001.804	0.744	743.5	congruent	Block1	congruent/STIM_022.jpg	100
1005.002	0.604	604.2	congruent	Block1	congruent/STIM_023.jpg	100
1007.907	0.8	800.3	congruent	Block1	congruent/STIM_023.jpg	99
1011.532	0.703	702.6	congruent	Block1	congruent/STIM_023.jpg	99
1016.039	0.507	507.0	congruent	Block1	congruent/STIM_023.jpg	99
1018.586	0.572	572.5	congruent	Block1	congruent/STIM_023.jpg	99
1022.37	0.608	608.2	congruent	Block1	congruent/STIM_024.jpg	100
1025.661	0.689	688.7	congruent	Block1	congruent/STIM_024.jpg	99
1029.189	0.808	807.6	congruent	Block1	congruent/STIM_024.jpg	100
1033.114	0.596	596.5	congruent	Block1	congruent/STIM_024.jpg	99
1035.991	0.59	589.6	congruent	Block1	congruent/STIM_024.jpg	99
1040.182	0.654	654.5	congruent	Block1	congruent/STIM_025.jpg	99
1043.889	0.516	516.2	congruent	Block1	congruent/STIM_025.jpg	99
1046.947	0.565	565.0	congruent	Block1	congruent/STIM_025.jpg	100
1051.173	0.65	650.1	congruent	Block1	congruent/STIM_025.jpg	100
1055.455	0.716	715.6	congruent	Block1	congruent/STIM_025.jpg	100
1058.362	0.529	528.6	congruent	Block1	congruent/STIM_026.jpg	100
1061.011	0.807	806.9	congruent	Block1	congruent/STIM_026.jpg	100
1065.242	0.564	563.8	congruent	Block1	congruent/STIM_026.jpg	100
1067.975	0.792	791.6	congruent	Block1	congruent/STIM_026.jpg	99
1072.417	0.737	737.0	congruent	Block1	congruent/STIM_026.jpg	99
1076.353	0.707	706.7	congruent	Block1	congruent/STIM_027.jpg	99
1080.373	0.58	579.6	congruent	Block1	congruent/STIM_027.jpg	99
1083.782	0.57	570.4	congruent	Block1	congruent/STIM_027.jpg	100
1087.086	0.672	672.0	congruent	Block1	congruent/STIM_027.jpg	100
1091.728	0.678	678.4	congruent	Block1	congruent/STIM_027.jpg	99
1096.027	0.519	518.7	congruent	Block1	congruent/STIM_028.jpg	100
1098.619	0.687	687.2	congruent	Block1	congruent/STIM_028.jpg	100
1102.654	0.526	525.8	congruent	Block1	congruent/STIM_028.jpg	100
1106.22	0.817	817.3	congruent	Block1	congruent/STIM_028.jpg	100
1110.008	0.468	468.0	congruent	Block1	congruent/STIM_028.jpg	99
1112.589	0.465	465.0	congruent	Block1	congruent/STIM_029.jpg	100
1116.741	0.592	592.3	congruent	Block1	congruent/STIM_029.jpg	100
1121.236	0.636	636.2	congruent	Block1	congruent/STIM_029.jpg	100
1123.879	0.821	821.0	congruent	Block1	congruent/STIM_029.jpg	99
1127.484	0.737	737.3	congruent	Block1	congruent/STIM_029.jpg	100
1131.777	1.013	1012.7	incongruent	Block2	incongruent/STIM_000.jpg	99
1136.234	0.598	598.3	incongruent	Block2	incongruent/STIM_000.jpg	99
1140.066	0.562	561.7	incongruent	Block2	incongruent/STIM_000.jpg	100
1142.669	0.559	558.7	incongruent	Block2	incongruent/STIM_000.jpg	99
1146.103	0.628	628.3	incongruent	Block2	incongruent/STIM_000.jpg	99
1150.043	0.623	623.1	incongruent	Block2	incongruent/STIM_001.jpg	100
1153.573	0.73	730.0	incongruent	Block2	incongruent/STIM_001.jpg	100
1157.654	0.586	586.1	incongruent	Block2	incongruent/STIM_001.jpg	99
1160.258	0.69	690.5	incongruent	Block2	incongruent/STIM_001.jpg	100
1163.664	0.697	696.9	incongruent	Block2	incongruent/STIM_001.jpg	99
1166.478	0.574	573.6	incongruent	Block2	incongruent/STIM_002.jpg	100
1170.202	0.604	604.2	incongruent	Block2	incongruent/STIM_002.jpg	99
1173.23	0.933	933.4	incongruent	Block2	incongruent/STIM_002.jpg	99
1176.877	0.909	908.7	incongruent	Block2	incongruent/STIM_002.jpg	100
1181.481	0.956	955.8	incongruent	Block2	incongruent/STIM_002.jpg	99
1186.106	0.592	592.5	incongruent	Block2	incongruent/STIM_003.jpg	99
1188.884	1.11	1110.4	incongruent	Block2	incongruent/STIM_003.jpg	100
1192.893	0.813	813.0	incongruent	Block2	incongruent/STIM_003.jpg	100
1195.852	0.93	929.9	incongruent	Block2	incongruent/STIM_003.jpg	99
1198.809	0.535	535.0	incongruent	Block2	incongruent/STIM_003.jpg	99
1201.851	0.811	810.6	incongruent	Block2	incongruent/STIM_004.jpg	100
1204.769	0.863	863.3	incongruent	Block2	incongruent/STIM_004.jpg	100
1209.259	0.626	625.8	incongruent	Block2	incongruent/STIM_004.jpg	99
1212.387	0.458	458.5	incongruent	Block2	incongruent/STIM_004.jpg	100
1215.91	0.725	725.4	incongruent	Block2	incongruent/STIM_004.jpg	100
1219.262	0.85	849.5	incongruent	Block2	incongruent/STIM_005.jpg	99
1222.893	0.777	776.6	incongruent	Block2	incongruent/STIM_005.jpg	99
1227.344	0.958	957.7	incongruent	Block2	incongruent/STIM_005.jpg	100
1231.245	0.764	763.5	incongruent	Block2	incongruent/STIM_005.jpg	100
1234.752	0.56	559.8	incongruent	Block2	incongruent/STIM_005.jpg	99
1237.91	1.032	1031.6	incongruent	Block2	incongruent/STIM_006.jpg	99
1242.824	0.808	807.9	incongruent	Block2	incongruent/STIM_006.jpg	100
1245.687	0.953	953.3	incongruent	Block2	incongruent/STIM_006.jpg	100
1249.584	0.616	616.1	incongruent	Block2	incongruent/STIM_006.jpg	99
1253.501	0.573	572.8	incongruent	Block2	incongruent/STIM_006.jpg	99
1257.156	1.131	1131.4	incongruent	Block2	incongruent/STIM_007.jpg	100
1261.069	0.616	615.6	incongruent	Block2	incongruent/STIM_007.jpg	100
1265.496	0.59	590.5	incongruent	Block2	incongruent/STIM_007.jpg	99
1268.649	0.965	965.0	incongruent	Block2	incongruent/STIM_007.jpg	99
1271.803	0.69	690.2	incongruent	Block2	incongruent/STIM_007.jpg	100
1274.744	0.956	956.5	incongruent	Block2	incongruent/STIM_008.jpg	99
1278.839	0.576	576.4	incongruent	Block2	incongruent/STIM_008.jpg	99
1282.032	0.856	855.6	incongruent	Block2	incongruent/STIM_008.jpg	100
1286.346	0.641	641.2	incongruent	Block2	incongruent/STIM_008.jpg	99
1290.734	0.502	502.0	incongruent	Block2	incongruent/STIM_008.jpg	99
1294.291	0.975	975.3	incongruent	Block2	incongruent/STIM_009.jpg	99
1298.531	0.76	760.0	incongruent	Block2	incongruent/STIM_009.jpg	99
1301.526	0.502	502.0	incongruent	Block2	incongruent/STIM_009.jpg	100
1305.309	0.919	919.3	incongruent	Block2	incongruent/STIM_009.jpg	99
1308.961	0.583	583.4	incongruent	Block2	incongruent/STIM_009.jpg	99
1312.585	0.75	749.8	incongruent	Block2	incongruent/STIM_010.jpg	99
1316.734	0.929	928.8	incongruent	Block2	incongruent/STIM_010.jpg	99
1321.474	0.775	774.6	incongruent	Block2	incongruent/STIM_010.jpg	99
1326.248	0.561	561.1	incongruent	Block2	incongruent/STIM_010.jpg	99
1329.561	0.607	607.0	incongruent	Block2	incongruent/STIM_010.jpg	99
1332.546	1.092	1092.2	incongruent	Block2	incongruent/STIM_011.jpg	99
1336.099	0.67	670.2	incongruent	Block2	incongruent/STIM_011.jpg	99
1339.148	0.57	569.8	incongruent	Block2	incongruent/STIM_011.jpg	100
1342.968	0.794	794.1	incongruent	Block2	incongruent/STIM_011.jpg	100
1346.657	0.845	845.4	incongruent	Block2	incongruent/STIM_011.jpg	99
1350.628	1.054	1054.3	incongruent	Block2	incongruent/STIM_012.jpg	100
1355.001	0.648	647.7	incongruent	Block2	incongruent/STIM_012.jpg	99
1358.882	1.022	1021.9	incongruent	Block2	incongruent/STIM_012.jpg	100
1362.625	0.52	520.3	incongruent	Block2	incongruent/STIM_012.jpg	100
1366.857	0.647	647.1	incongruent	Block2	incongruent/STIM_012.jpg	99
1371.232	1.077	1076.8	incongruent	Block2	incongruent/STIM_013.jpg	99
1375.853	0.551	550.7	incongruent	Block2	incongruent/STIM_013.jpg	99
1378.49	0.815	814.8	incongruent	Block2	incongruent/STIM_013.jpg	99
1382.066	0.487	486.7	incongruent	Block2	incongruent/STIM_013.jpg	100
1386.25	0.506	506.3	incongruent	Block2	incongruent/STIM_013.jpg	100
1390.408	0.987	987.2	incongruent	Block2	incongruent/STIM_014.jpg	100
1393.713	0.737	736.7	incongruent	Block2	incongruent/STIM_014.jpg	99
1397.375	0.498	497.8	incongruent	Block2	incongruent/STIM_014.jpg	99
1401.634	0.969	968.8	incongruent	Block2	incongruent/STIM_014.jpg	100
1406.022	0.752	752.0	incongruent	Block2	incongruent/STIM_014.jpg	99
1409.934	1.01	1009.7	incongruent	Block2	incongruent/STIM_015.jpg	99
1414.218	0.772	772.2	incongruent	Block2	incongruent/STIM_015.jpg	100
1417.681	0.668	667.7	incongruent	Block2	incongruent/STIM_015.jpg	100
1420.867	0.552	551.7	incongruent	Block2	incongruent/STIM_015.jpg	100
1423.992	0.624	623.6	incongruent	Block2	incongruent/STIM_015.jpg	99
1428.579	0.872	871.8	incongruent	Block2	incongruent/STIM_016.jpg	100
1432.708	0.687	686.8	incongruent	Block2	incongruent/STIM_016.jpg	100
1437.296	0.896	896.2	incongruent	Block2	incongruent/STIM_016.jpg	99
1440.3	0.726	725.6	incongruent	Block2	incongruent/STIM_016.jpg	99
1444.193	0.835	835.1	incongruent	Block2	incongruent/STIM_016.jpg	99
1448.391	1.168	1167.7	incongruent	Block2	incongruent/STIM_017.jpg	100
1452.082	1.019	1018.6	incongruent	Block2	incongruent/STIM_017.jpg	100
1456.432	0.59	590.5	incongruent	Block2	incongruent/STIM_017.jpg	99
1460.914	0.831	831.4	incongruent	Block2	incongruent/STIM_017.jpg	100
1464.329	0.935	934.7	incongruent	Block2	incongruent/STIM_017.jpg	100
1468.877	1.166	1166.5	incongruent	Block2	incongruent/STIM_018.jpg	99
1472.768	1.103	1102.8	incongruent	Block2	incongruent/STIM_018.jpg	99
1475.946	0.587	586.7	incongruent	Block2	incongruent/STIM_018.jpg	100
1478.701	0.761	761.1	incongruent	Block2	incongruent/STIM_018.jpg	99
1482.929	0.501	501.1	incongruent	Block2	incongruent/STIM_018.jpg	99
1485.77	0.686	686.2	incongruent	Block2	incongruent/STIM_019.jpg	100
1488.748	0.94	940.0	incongruent	Block2	incongruent/STIM_019.jpg	99
1492.19	0.864	863.5	incongruent	Block2	incongruent/STIM_019.jpg	99
1495.563	0.652	651.8	incongruent	Block2	incongruent/STIM_019.jpg	99
1499.864	0.972	972.5	incongruent	Block2	incongruent/STIM_019.jpg	100
1504.768	1.168	1167.8	incongruent	Block2	incongruent/STIM_020.jpg	99
1509.564	1.104	1104.3	incongruent	Block2	incongruent/STIM_020.jpg	99
1513.393	0.972	972.5	incongruent	Block2	incongruent/STIM_020.jpg	99
1517.205	0.67	670.3	incongruent	Block2	incongruent/STIM_020.jpg	99
1520.566	0.537	537.1	incongruent	Block2	incongruent/STIM_020.jpg	99
1523.935	0.693	693.2	incongruent	Block2	incongruent/STIM_021.jpg	99
1527.142	0.815	815.3	incongruent	Block2	incongruent/STIM_021.jpg	100
1530.429	0.547	547.3	incongruent	Block2	incongruent/STIM_021.jpg	100
1533.668	0.86	859.5	incongruent	Block2	incongruent/STIM_021.jpg	100
1536.679	0.625	625.2	incongruent	Block2	incongruent/STIM_021.jpg	100
1540.292	0.642	641.7	incongruent	Block2	incongruent/STIM_022.jpg	100
1543.229	0.735	734.7	incongruent	Block2	incongruent/STIM_022.jpg	100
1547.818	0.718	717.7	incongruent	Block2	incongruent/STIM_022.jpg	100
1552.224	0.637	637.4	incongruent	Block2	incongruent/STIM_022.jpg	100
1555.807	0.82	819.7	incongruent	Block2	incongruent/STIM_022.jpg	100
1559.922	1.043	1042.9	incongruent	Block2	incongruent/STIM_023.jpg	99
1563.143	0.69	690.3	incongruent	Block2	incongruent/STIM_023.jpg	99
1567.503	0.727	726.8	incongruent	Block2	incongruent/STIM_023.jpg	99
1572.202	0.619	619.2	incongruent	Block2	incongruent/STIM_023.jpg	99
1575.79	0.957	956.6	incongruent	Block2	incongruent/STIM_023.jpg	100
1580.326	1.001	1000.7	incongruent	Block2	incongruent/STIM_024.jpg	100
1584.546	0.73	729.6	incongruent	Block2	incongruent/STIM_024.jpg	99
1587.779	0.517	516.9	incongruent	Block2	incongruent/STIM_024.jpg	100
1590.707	0.601	601.1	incongruent	Block2	incongruent/STIM_024.jpg	99
1593.577	0.464	464.2	incongruent	Block2	incongruent/STIM_024.jpg	99
1596.238	0.62	619.8	incongruent	Block2	incongruent/STIM_025.jpg	100
1600.671	0.832	832.1	incongruent	Block2	incongruent/STIM_025.jpg	99
1605.199	0.554	554.5	incongruent	Block2	incongruent/STIM_025.jpg	100
1608.982	0.752	752.5	incongruent	Block2	incongruent/STIM_025.jpg	99
1611.846	0.784	783.6	incongruent	Block2	incongruent/STIM_025.jpg	100
1616.103	1.053	1053.3	incongruent	Block2	incongruent/STIM_026.jpg	100
1619.957	0.591	591.3	incongruent	Block2	incongruent/STIM_026.jpg	100
1624.538	0.502	502.1	incongruent	Block2	incongruent/STIM_026.jpg	100
1629.031	0.825	825.1	incongruent	Block2	incongruent/STIM_026.jpg	99
1633.721	0.598	597.7	incongruent	Block2	incongruent/STIM_026.jpg	99
1637.808	1.003	1003.0	incongruent	Block2	incongruent/STIM_027.jpg	99
1641.219	0.892	892.4	incongruent	Block2	incongruent/STIM_027.jpg	100
1644.771	0.721	720.8	incongruent	Block2	incongruent/STIM_027.jpg	100
1648.666	0.968	968.0	incongruent	Block2	incongruent/STIM_027.jpg	100
1651.772	0.901	900.8	incongruent	Block2	incongruent/STIM_027.jpg	99
1654.72	0.964	964.3	incongruent	Block2	incongruent/STIM_028.jpg	100
1658.749	0.576	575.8	incongruent	Block2	incongruent/STIM_028.jpg	99
1663.251	0.734	734.3	incongruent	Block2	incongruent/STIM_028.jpg	99
1667.139	0.6	600.3	incongruent	Block2	incongruent/STIM_028.jpg	100
1671.462	0.486	486.0	incongruent	Block2	incongruent/STIM_028.jpg	99
1674.965	0.561	561.1	incongruent	Block2	incongruent/STIM_029.jpg	100
1678.363	0.596	596.0	incongruent	Block2	incongruent/STIM_029.jpg	100
1681.358	0.967	967.2	incongruent	Block2	incongruent/STIM_029.jpg	99
1685.574	0.546	546.3	incongruent	Block2	incongruent/STIM_029.jpg	99
1688.174	0.876	875.9	incongruent	Block2	incongruent/STIM_029.jpg	99
1691.862	0.786	786.0	congruent	Block2	congruent/STIM_000.jpg	99
1694.836	0.717	716.6	congruent	Block2	congruent/STIM_000.jpg	99
1699.383	0.745	744.8	congruent	Block2	congruent/STIM_000.jpg	100
1703.21	0.766	766.0	congruent	Block2	congruent/STIM_000.jpg	100
1707.973	0.664	663.7	congruent	Block2	congruent/STIM_000.jpg	99
1711.422	0.647	646.6	congruent	Block2	congruent/STIM_001.jpg	99
1715.888	0.768	767.6	congruent	Block2	congruent/STIM_001.jpg	100
1719.705	0.514	514.4	congruent	Block2	congruent/STIM_001.jpg	100
1722.235	0.6	599.7	congruent	Block2	congruent/STIM_001.jpg	99
1724.874	0.704	703.9	congruent	Block2	congruent/STIM_001.jpg	99
1729.25	0.63	630.0	congruent	Block2	congruent/STIM_002.jpg	99
1733.052	0.708	707.7	congruent	Block2	congruent/STIM_002.jpg	100
1736.156	0.693	692.6	congruent	Block2	congruent/STIM_002.jpg	99
1739.582	0.645	644.6	congruent	Block2	congruent/STIM_002.jpg	100
1743.847	0.535	535.3	congruent	Block2	congruent/STIM_002.jpg	99
1747.143	0.542	542.5	congruent	Block2	congruent/STIM_003.jpg	100
1750.152	0.553	553.2	congruent	Block2	congruent/STIM_003.jpg	100
1753.289	0.641	641.1	congruent	Block2	congruent/STIM_003.jpg	99
1756.738	0.496	496.3	congruent	Block2	congruent/STIM_003.jpg	100
1760.815	0.621	621.0	congruent	Block2	congruent/STIM_003.jpg	100
1764.524	0.55	549.9	congruent	Block2	congruent/STIM_004.jpg	99
1767.607	0.505	505.3	congruent	Block2	congruent/STIM_004.jpg	99
1771.181	0.715	715.3	congruent	Block2	congruent/STIM_004.jpg	99
1774.701	0.565	565.2	congruent	Block2	congruent/STIM_004.jpg	100
1778.965	0.586	586.3	congruent	Block2	congruent/STIM_004.jpg	99
1782.152	0.553	553.2	congruent	Block2	congruent/STIM_005.jpg	99
1786.163	0.832	832.2	congruent	Block2	congruent/STIM_005.jpg	100
1789.549	0.758	757.7	congruent	Block2	congruent/STIM_005.jpg	100
1792.54	0.749	749.3	congruent	Block2	congruent/STIM_005.jpg	100
1796.608	0.568	567.9	congruent	Block2	congruent/STIM_005.jpg	100
1799.632	0.601	601.3	congruent	Block2	congruent/STIM_006.jpg	99
1803.011	0.747	747.2	congruent	Block2	congruent/STIM_006.jpg	100
1807.507	0.777	776.6	congruent	Block2	congruent/STIM_006.jpg	100
1812.241	0.489	489.1	congruent	Block2	congruent/STIM_006.jpg	99
1815.682	0.728	727.8	congruent	Block2	congruent/STIM_006.jpg	99
1819.105	0.679	679.1	congruent	Block2	congruent/STIM_007.jpg	100
1822.859	0.776	776.3	congruent	Block2	congruent/STIM_007.jpg	100
1826.581	0.588	587.9	congruent	Block2	congruent/STIM_007.jpg	99
1829.693	0.706	706.2	congruent	Block2	congruent/STIM_007.jpg	99
1832.734	0.687	687.1	congruent	Block2	congruent/STIM_007.jpg	100
1836.563	0.79	789.9	congruent	Block2	congruent/STIM_008.jpg	100
1840.0	0.554	554.0	congruent	Block2	congruent/STIM_008.jpg	100
1843.016	0.707	706.8	congruent	Block2	congruent/STIM_008.jpg	99
1846.42	0.58	579.6	congruent	Block2	congruent/STIM_008.jpg	100
1850.916	0.758	757.6	congruent	Block2	congruent/STIM_008.jpg	99
1853.995	0.524	523.6	congruent	Block2	congruent/STIM_009.jpg	99
1857.29	0.555	555.3	congruent	Block2	congruent/STIM_009.jpg	100
1860.977	0.531	531.4	congruent	Block2	congruent/STIM_009.jpg	99
1865.03	0.647	646.9	congruent	Block2	congruent/STIM_009.jpg	100
1868.019	0.646	645.7	congruent	Block2	congruent/STIM_009.jpg	99
1872.138	0.561	561.4	congruent	Block2	congruent/STIM_010.jpg	100
1875.643	0.767	767.1	congruent	Block2	congruent/STIM_010.jpg	100
1879.4	0.569	568.6	congruent	Block2	congruent/STIM_010.jpg	99
1883.4	0.812	811.5	congruent	Block2	congruent/STIM_010.jpg	99
1887.753	0.765	764.9	congruent	Block2	congruent/STIM_010.jpg	100
1892.082	0.77	770.5	congruent	Block2	congruent/STIM_011.jpg	99
1896.285	0.512	512.4	congruent	Block2	congruent/STIM_011.jpg	99
1899.077	0.762	761.8	congruent	Block2	congruent/STIM_011.jpg	100
1902.677	0.784	784.3	congruent	Block2	congruent/STIM_011.jpg	100
1905.837	0.604	603.9	congruent	Block2	congruent/STIM_011.jpg	100
1908.462	0.82	819.9	congruent	Block2	congruent/STIM_012.jpg	100
1912.198	0.694	694.3	congruent	Block2	congruent/STIM_012.jpg	100
1916.206	0.823	823.0	congruent	Block2	congruent/STIM_012.jpg	99
1919.612	0.661	661.0	congruent	Block2	congruent/STIM_012.jpg	99
1922.609	0.666	666.2	congruent	Block2	congruent/STIM_012.jpg	100
1927.261	0.594	593.6	congruent	Block2	congruent/STIM_013.jpg	99
1931.235	0.727	727.3	congruent	Block2	congruent/STIM_013.jpg	99
1934.965	0.812	811.7	congruent	Block2	congruent/STIM_013.jpg	99
1938.359	0.792	792.4	congruent	Block2	congruent/STIM_013.jpg	100
1941.234	0.762	762.5	congruent	Block2	congruent/STIM_013.jpg	99
1944.061	0.591	590.6	congruent	Block2	congruent/STIM_014.jpg	100
1948.097	0.547	546.8	congruent	Block2	congruent/STIM_014.jpg	100
1952.143	0.494	494.3	congruent	Block2	congruent/STIM_014.jpg	99
1955.413	0.718	717.9	congruent	Block2	congruent/STIM_014.jpg	99
1959.045	0.809	809.0	congruent	Block2	congruent/STIM_014.jpg	99
1962.796	0.503	502.8	congruent	Block2	congruent/STIM_015.jpg	99
1966.996	0.806	805.9	congruent	Block2	congruent/STIM_015.jpg	99
1971.308	0.562	562.3	congruent	Block2	congruent/STIM_015.jpg	100
1974.137	0.54	540.3	congruent	Block2	congruent/STIM_015.jpg	100
1976.978	0.604	604.5	congruent	Block2	congruent/STIM_015.jpg	100
1981.496	0.526	526.4	congruent	Block2	congruent/STIM_016.jpg	100
1984.695	0.786	785.5	congruent	Block2	congruent/STIM_016.jpg	99
1988.512	0.789	789.2	congruent	Block2	congruent/STIM_016.jpg	100
1992.896	0.585	584.7	congruent	Block2	congruent/STIM_016.jpg	100
1997.043	0.499	499.1	congruent	Block2	congruent/STIM_016.jpg	100
2001.517	0.685	685.4	congruent	Block2	congruent/STIM_017.jpg	100
2005.93	0.665	665.3	congruent	Block2	congruent/STIM_017.jpg	99
2009.378	0.733	733.0	congruent	Block2	congruent/STIM_017.jpg	100
2012.466	0.66	660.0	congruent	Block2	congruent/STIM_017.jpg	100
2015.752	0.566	565.6	congruent	Block2	congruent/STIM_017.jpg	100
2019.744	0.711	711.4	congruent	Block2	congruent/STIM_018.jpg	100
2023.199	0.633	633.1	congruent	Block2	congruent/STIM_018.jpg	99
2026.476	0.582	581.7	congruent	Block2	congruent/STIM_018.jpg	100
2030.95	0.615	614.9	congruent	Block2	congruent/STIM_018.jpg	100
2035.285	0.795	795.3	congruent	Block2	congruent/STIM_018.jpg	99
2038.854	0.802	801.7	congruent	Block2	congruent/STIM_019.jpg	99
2041.78	0.512	512.3	congruent	Block2	congruent/STIM_019.jpg	99
2045.372	0.549	549.4	congruent	Block2	congruent/STIM_019.jpg	100
2049.67	0.698	698.3	congruent	Block2	congruent/STIM_019.jpg	99
2053.346	0.631	630.8	congruent	Block2	congruent/STIM_019.jpg	99
2056.975	0.672	671.5	congruent	Block2	congruent/STIM_020.jpg	100
2060.052	0.637	636.6	congruent	Block2	congruent/STIM_020.jpg	99
2063.211	0.832	832.5	congruent	Block2	congruent/STIM_020.jpg	100
2067.101	0.748	748.1	congruent	Block2	congruent/STIM_020.jpg	99
2070.646	0.575	574.7	congruent	Block2	congruent/STIM_020.jpg	99
2075.017	0.503	502.6	congruent	Block2	congruent/STIM_021.jpg	100
2079.24	0.681	681.0	congruent	Block2	congruent/STIM_021.jpg	100
2082.632	0.797	797.3	congruent	Block2	congruent/STIM_021.jpg	100
2086.393	0.531	531.1	congruent	Block2	congruent/STIM_021.jpg	99
2090.135	0.702	701.9	congruent	Block2	congruent/STIM_021.jpg	99
2093.046	0.516	516.2	congruent	Block2	congruent/STIM_022.jpg	100
2097.395	0.707	707.0	congruent	Block2	congruent/STIM_022.jpg	100
2100.424	0.692	691.7	congruent	Block2	congruent/STIM_022.jpg	100
2103.846	0.53	529.6	congruent	Block2	congruent/STIM_022.jpg	99
2106.858	0.581	580.9	congruent	Block2	congruent/STIM_022.jpg	99
2111.25	0.624	623.5	congruent	Block2	congruent/STIM_023.jpg	100
2114.098	0.756	755.8	congruent	Block2	congruent/STIM_023.jpg	99
2117.556	0.696	696.5	congruent	Block2	congruent/STIM_023.jpg	99
2120.688	0.752	752.0	congruent	Block2	congruent/STIM_023.jpg	99
2124.102	0.576	575.7	congruent	Block2	congruent/STIM_023.jpg	99
2127.213	0.798	797.7	congruent	Block2	congruent/STIM_024.jpg	99
2130.816	0.813	813.0	congruent	Block2	congruent/STIM_024.jpg	100
2135.318	0.561	561.1	congruent	Block2	congruent/STIM_024.jpg	99
2138.569	0.604	604.3	congruent	Block2	congruent/STIM_024.jpg	100
2142.2	0.766	765.7	congruent	Block2	congruent/STIM_024.jpg	100
2146.216	0.496	495.9	congruent	Block2	congruent/STIM_025.jpg	100
2149.507	0.743	742.8	congruent	Block2	congruent/STIM_025.jpg	100
2153.42	0.578	577.5	congruent	Block2	congruent/STIM_025.jpg	100
2156.431	0.688	688.3	congruent	Block2	congruent/STIM_025.jpg	100
2161.076	0.506	506.5	congruent	Block2	congruent/STIM_025.jpg	99
2165.221	0.829	828.6	congruent	Block2	congruent/STIM_026.jpg	100
2168.282	0.686	686.4	congruent	Block2	congruent/STIM_026.jpg	100
2172.638	0.594	593.7	congruent	Block2	congruent/STIM_026.jpg	100
2176.683	0.531	531.3	congruent	Block2	congruent/STIM_026.jpg	100
2181.203	0.513	512.9	congruent	Block2	congruent/STIM_026.jpg	100
2185.245	0.512	511.8	congruent	Block2	congruent/STIM_027.jpg	99
2189.411	0.678	678.4	congruent	Block2	congruent/STIM_027.jpg	100
2193.544	0.672	671.8	congruent	Block2	congruent/STIM_027.jpg	100
2197.495	0.469	468.7	congruent	Block2	congruent/STIM_027.jpg	99
2201.904	0.624	624.4	congruent	Block2	congruent/STIM_027.jpg	99
2204.891	0.517	517.2	congruent	Block2	congruent/STIM_028.jpg	100
2208.568	0.711	711.0	congruent	Block2	congruent/STIM_028.jpg	99
2212.104	0.509	509.4	congruent	Block2	congruent/STIM_028.jpg	100
2214.845	0.829	828.9	congruent	Block2	congruent/STIM_028.jpg	100
2218.241	0.483	483.1	congruent	Block2	congruent/STIM_028.jpg	99
2221.421	0.771	770.9	congruent	Block2	congruent/STIM_029.jpg	100
2224.731	0.486	485.8	congruent	Block2	congruent/STIM_029.jpg	99
2229.074	0.564	563.9	congruent	Block2	congruent/STIM_029.jpg	100
2232.884	0.802	802.2	congruent	Block2	congruent/STIM_029.jpg	99
2237.193	0.735	735.3	congruent	Block2	congruent/STIM_029.jpg	99
2241.547	0.853	852.7	incongruent	Block3	incongruent/STIM_000.jpg	100
2244.973	0.576	576.2	incongruent	Block3	incongruent/STIM_000.jpg	99
2248.247	0.8	799.6	incongruent	Block3	incongruent/STIM_000.jpg	100
2252.404	0.463	463.0	incongruent	Block3	incongruent/STIM_000.jpg	100
2256.245	0.889	889.1	incongruent	Block3	incongruent/STIM_000.jpg	100
2261.066	0.634	633.7	incongruent	Block3	incongruent/STIM_001.jpg	100
2264.613	0.843	842.6	incongruent	Block3	incongruent/STIM_001.jpg	99
2267.992	0.634	633.9	incongruent	Block3	incongruent/STIM_001.jpg	100
2272.238	0.87	869.5	incongruent	Block3	incongruent/STIM_001.jpg	100
2276.607	0.953	953.3	incongruent	Block3	incongruent/STIM_001.jpg	99
2280.503	0.904	903.6	incongruent	Block3	incongruent/STIM_002.jpg	100
2284.634	0.838	837.5	incongruent	Block3	incongruent/STIM_002.jpg	99
2288.695	0.738	738.3	incongruent	Block3	incongruent/STIM_002.jpg	99
2291.617	0.952	952.2	incongruent	Block3	incongruent/STIM_002.jpg	99
2296.276	0.848	848.3	incongruent	Block3	incongruent/STIM_002.jpg	99
2299.335	0.954	954.1	incongruent	Block3	incongruent/STIM_003.jpg	100
2304.229	0.556	556.3	incongruent	Block3	incongruent/STIM_003.jpg	99
2307.497	0.918	918.3	incongruent	Block3	incongruent/STIM_003.jpg	99
2312.009	0.596	596.1	incongruent	Block3	incongruent/STIM_003.jpg	100
2315.775	0.948	948.5	incongruent	Block3	incongruent/STIM_003.jpg	99
2318.755	0.856	856.2	incongruent	Block3	incongruent/STIM_004.jpg	100
2322.866	0.49	490.2	incongruent	Block3	incongruent/STIM_004.jpg	99
2326.799	0.9	899.7	incongruent	Block3	incongruent/STIM_004.jpg	99
2331.419	0.946	946.2	incongruent	Block3	incongruent/STIM_004.jpg	99
2335.586	0.959	959.1	incongruent	Block3	incongruent/STIM_004.jpg	100
2340.502	0.595	595.3	incongruent	Block3	incongruent/STIM_005.jpg	100
2343.26	0.639	639.3	incongruent	Block3	incongruent/STIM_005.jpg	99
2346.549	0.788	787.9	incongruent	Block3	incongruent/STIM_005.jpg	99
2351.136	0.466	466.1	incongruent	Block3	incongruent/STIM_005.jpg	99
2355.2	0.906	905.9	incongruent	Block3	incongruent/STIM_005.jpg	100
2359.204	0.847	847.2	incongruent	Block3	incongruent/STIM_006.jpg	99
2362.586	0.819	818.8	incongruent	Block3	incongruent/STIM_006.jpg	100
2366.521	0.791	791.3	incongruent	Block3	incongruent/STIM_006.jpg	100
2369.978	0.959	959.0	incongruent	Block3	incongruent/STIM_006.jpg	100
2374.008	0.786	786.5	incongruent	Block3	incongruent/STIM_006.jpg	99
2377.113	0.934	933.6	incongruent	Block3	incongruent/STIM_007.jpg	100
2380.106	0.769	769.0	incongruent	Block3	incongruent/STIM_007.jpg	100
2384.433	0.747	747.4	incongruent	Block3	incongruent/STIM_007.jpg	100
2388.044	0.685	684.9	incongruent	Block3	incongruent/STIM_007.jpg	99
2392.612	0.902	901.5	incongruent	Block3	incongruent/STIM_007.jpg	99
2397.216	0.569	568.6	incongruent	Block3	incongruent/STIM_008.jpg	100
2400.856	0.494	493.7	incongruent	Block3	incongruent/STIM_008.jpg	99
2405.071	0.966	966.1	incongruent	Block3	incongruent/STIM_008.jpg	100
2409.339	0.636	636.0	incongruent	Block3	incongruent/STIM_008.jpg	99
2412.202	0.511	510.9	incongruent	Block3	incongruent/STIM_008.jpg	100
2416.22	0.912	911.9	incongruent	Block3	incongruent/STIM_009.jpg	99
2419.812	0.805	805.2	incongruent	Block3	incongruent/STIM_009.jpg	99
2422.902	0.482	482.1	incongruent	Block3	incongruent/STIM_009.jpg	100
2425.995	0.604	604.3	incongruent	Block3	incongruent/STIM_009.jpg	100
2430.053	0.558	558.2	incongruent	Block3	incongruent/STIM_009.jpg	99
2433.696	0.898	898.1	incongruent	Block3	incongruent/STIM_010.jpg	99
2437.005	0.617	616.8	incongruent	Block3	incongruent/STIM_010.jpg	99
2439.627	0.538	537.7	incongruent	Block3	incongruent/STIM_010.jpg	99
2442.531	0.949	949.2	incongruent	Block3	incongruent/STIM_010.jpg	99
2446.355	0.479	479.3	incongruent	Block3	incongruent/STIM_010.jpg	100
2449.085	0.716	716.2	incongruent	Block3	incongruent/STIM_011.jpg	100
2453.077	0.682	682.5	incongruent	Block3	incongruent/STIM_011.jpg	100
2456.14	0.898	897.7	incongruent	Block3	incongruent/STIM_011.jpg	100
2459.149	0.828	827.7	incongruent	Block3	incongruent/STIM_011.jpg	99
2462.547	0.507	507.0	incongruent	Block3	incongruent/STIM_011.jpg	99
2466.477	0.576	576.5	incongruent	Block3	incongruent/STIM_012.jpg	99
2469.989	0.97	970.1	incongruent	Block3	incongruent/STIM_012.jpg	99
2474.795	0.767	767.3	incongruent	Block3	incongruent/STIM_012.jpg	100
2477.669	0.48	480.5	incongruent	Block3	incongruent/STIM_012.jpg	99
2481.434	0.695	695.0	incongruent	Block3	incongruent/STIM_012.jpg	100
2484.375	0.945	944.6	incongruent	Block3	incongruent/STIM_013.jpg	99
2488.249	0.665	665.3	incongruent	Block3	incongruent/STIM_013.jpg	100
2492.634	0.52	519.6	incongruent	Block3	incongruent/STIM_013.jpg	99
2496.601	0.608	608.3	incongruent	Block3	incongruent/STIM_013.jpg	100
2500.951	0.459	459.1	incongruent	Block3	incongruent/STIM_013.jpg	100
2503.555	0.727	727.2	incongruent	Block3	incongruent/STIM_014.jpg	99
2508.231	0.718	718.5	incongruent	Block3	incongruent/STIM_014.jpg	99
2511.603	0.624	623.8	incongruent	Block3	incongruent/STIM_014.jpg	100
2516.025	0.712	711.6	incongruent	Block3	incongruent/STIM_014.jpg	100
2520.502	0.479	479.2	incongruent	Block3	incongruent/STIM_014.jpg	99
2524.2	0.625	625.4	incongruent	Block3	incongruent/STIM_015.jpg	100
2527.323	0.935	934.8	incongruent	Block3	incongruent/STIM_015.jpg	99
2531.221	0.709	708.9	incongruent	Block3	incongruent/STIM_015.jpg	100
2535.406	0.628	627.8	incongruent	Block3	incongruent/STIM_015.jpg	100
2538.538	0.867	866.6	incongruent	Block3	incongruent/STIM_015.jpg	99
2541.437	0.576	576.4	incongruent	Block3	incongruent/STIM_016.jpg	100
2544.429	0.473	473.4	incongruent	Block3	incongruent/STIM_016.jpg	100
2548.781	0.895	894.9	incongruent	Block3	incongruent/STIM_016.jpg	100
2553.41	0.489	488.7	incongruent	Block3	incongruent/STIM_016.jpg	100
2556.222	0.554	553.7	incongruent	Block3	incongruent/STIM_016.jpg	100
2559.372	0.839	838.8	incongruent	Block3	incongruent/STIM_017.jpg	99
2562.848	0.79	790.5	incongruent	Block3	incongruent/STIM_017.jpg	100
2566.879	0.754	754.1	incongruent	Block3	incongruent/STIM_017.jpg	100
2571.569	0.928	927.7	incongruent	Block3	incongruent/STIM_017.jpg	100
2575.513	0.812	812.1	incongruent	Block3	incongruent/STIM_017.jpg	100
2579.181	0.65	650.4	incongruent	Block3	incongruent/STIM_018.jpg	100
2582.078	0.483	483.0	incongruent	Block3	incongruent/STIM_018.jpg	100
2584.645	0.741	740.9	incongruent	Block3	incongruent/STIM_018.jpg	99
2588.931	0.795	795.4	incongruent	Block3	incongruent/STIM_018.jpg	100
2591.746	0.614	613.8	incongruent	Block3	incongruent/STIM_018.jpg	99
2595.803	0.501	500.6	incongruent	Block3	incongruent/STIM_019.jpg	99
2599.686	0.823	823.2	incongruent	Block3	incongruent/STIM_019.jpg	99
2602.593	0.902	901.6	incongruent	Block3	incongruent/STIM_019.jpg	99
2606.682	0.619	618.9	incongruent	Block3	incongruent/STIM_019.jpg	100
2610.804	0.769	768.7	incongruent	Block3	incongruent/STIM_019.jpg	100
2613.614	0.526	525.8	incongruent	Block3	incongruent/STIM_020.jpg	100
2617.444	0.923	922.8	incongruent	Block3	incongruent/STIM_020.jpg	99
2622.073	0.687	687.0	incongruent	Block3	incongruent/STIM_020.jpg	99
2625.797	0.467	467.4	incongruent	Block3	incongruent/STIM_020.jpg	99
2629.706	0.499	498.8	incongruent	Block3	incongruent/STIM_020.jpg	100
2634.128	0.68	679.5	incongruent	Block3	incongruent/STIM_021.jpg	100
2637.621	0.645	644.6	incongruent	Block3	incongruent/STIM_021.jpg	100
2641.926	0.806	806.1	incongruent	Block3	incongruent/STIM_021.jpg	100
2645.033	0.852	852.5	incongruent	Block3	incongruent/STIM_021.jpg	100
2649.553	0.876	875.9	incongruent	Block3	incongruent/STIM_021.jpg	99
2654.071	0.742	742.0	incongruent	Block3	incongruent/STIM_022.jpg	100
2656.948	0.913	913.3	incongruent	Block3	incongruent/STIM_022.jpg	100
2660.197	0.933	932.7	incongruent	Block3	incongruent/STIM_022.jpg	99
2664.571	0.712	711.5	incongruent	Block3	incongruent/STIM_022.jpg	100
2668.218	0.489	489.3	incongruent	Block3	incongruent/STIM_022.jpg	100
2670.909	0.76	759.6	incongruent	Block3	incongruent/STIM_023.jpg	100
2674.828	0.814	813.7	incongruent	Block3	incongruent/STIM_023.jpg	100
2677.661	0.937	936.9	incongruent	Block3	incongruent/STIM_023.jpg	99
2682.276	0.926	926.1	incongruent	Block3	incongruent/STIM_023.jpg	99
2686.292	0.847	847.3	incongruent	Block3	incongruent/STIM_023.jpg	99
2690.838	0.935	935.3	incongruent	Block3	incongruent/STIM_024.jpg	99
2694.232	0.815	814.6	incongruent	Block3	incongruent/STIM_024.jpg	99
2698.041	0.594	594.4	incongruent	Block3	incongruent/STIM_024.jpg	100
2701.256	0.974	974.3	incongruent	Block3	incongruent/STIM_024.jpg	99
2704.519	0.75	749.8	incongruent	Block3	incongruent/STIM_024.jpg	100
2708.24	0.535	534.9	incongruent	Block3	incongruent/STIM_025.jpg	100
2711.793	0.734	734.3	incongruent	Block3	incongruent/STIM_025.jpg	100
2716.029	0.704	704.0	incongruent	Block3	incongruent/STIM_025.jpg	99
2719.524	0.561	561.1	incongruent	Block3	incongruent/STIM_025.jpg	99
2722.415	0.649	648.9	incongruent	Block3	incongruent/STIM_025.jpg	100
2725.86	0.759	759.2	incongruent	Block3	incongruent/STIM_026.jpg	99
2729.035	0.889	889.1	incongruent	Block3	incongruent/STIM_026.jpg	100
2732.696	0.886	886.3	incongruent	Block3	incongruent/STIM_026.jpg	99
2736.595	0.856	856.0	incongruent	Block3	incongruent/STIM_026.jpg	100
2740.758	0.96	960.1	incongruent	Block3	incongruent/STIM_026.jpg	99
2744.498	0.871	870.8	incongruent	Block3	incongruent/STIM_027.jpg	100
2747.43	0.669	668.7	incongruent	Block3	incongruent/STIM_027.jpg	99
2750.782	0.718	718.4	incongruent	Block3	incongruent/STIM_027.jpg	100
2754.121	0.955	955.1	incongruent	Block3	incongruent/STIM_027.jpg	99
2758.676	0.584	584.5	incongruent	Block3	incongruent/STIM_027.jpg	100
2762.694	0.861	861.2	incongruent	Block3	incongruent/STIM_028.jpg	99
2767.36	0.94	939.8	incongruent	Block3	incongruent/STIM_028.jpg	100
2772.002	0.832	831.7	incongruent	Block3	incongruent/STIM_028.jpg	99
2776.203	0.571	571.1	incongruent	Block3	incongruent/STIM_028.jpg	100
2778.961	0.684	683.7	incongruent	Block3	incongruent/STIM_028.jpg	99
2782.995	0.852	852.0	incongruent	Block3	incongruent/STIM_029.jpg	99
2787.423	0.707	706.8	incongruent	Block3	incongruent/STIM_029.jpg	99
2791.052	0.574	574.3	incongruent	Block3	incongruent/STIM_029.jpg	99
2795.575	0.906	906.5	incongruent	Block3	incongruent/STIM_029.jpg	100
2798.882	0.743	743.2	incongruent	Block3	incongruent/STIM_029.jpg	100
2802.63	0.594	593.7	congruent	Block3	congruent/STIM_000.jpg	100
2805.272	0.598	597.8	congruent	Block3	congruent/STIM_000.jpg	99
2808.585	0.688	688.3	congruent	Block3	congruent/STIM_000.jpg	100
2812.012	0.54	540.2	congruent	Block3	congruent/STIM_000.jpg	100
2815.773	0.813	813.2	congruent	Block3	congruent/STIM_000.jpg	100
2819.704	0.532	532.3	congruent	Block3	congruent/STIM_001.jpg	99
2822.641	0.498	498.3	congruent	Block3	congruent/STIM_001.jpg	100
2826.51	0.716	715.8	congruent	Block3	congruent/STIM_001.jpg	99
2829.859	0.526	525.6	congruent	Block3	congruent/STIM_001.jpg	100
2833.375	0.64	640.3	congruent	Block3	congruent/STIM_001.jpg	99
2836.694	0.555	555.1	congruent	Block3	congruent/STIM_002.jpg	100
2839.822	0.53	530.2	congruent	Block3	congruent/STIM_002.jpg	99
2842.52	0.485	485.4	congruent	Block3	congruent/STIM_002.jpg	100
2846.876	0.465	465.2	congruent	Block3	congruent/STIM_002.jpg	100
2849.89	0.796	796.3	congruent	Block3	congruent/STIM_002.jpg	99
2854.379	0.561	561.2	congruent	Block3	congruent/STIM_003.jpg	100
2858.241	0.598	597.6	congruent	Block3	congruent/STIM_003.jpg	100
2861.95	0.488	488.2	congruent	Block3	congruent/STIM_003.jpg	99
2865.18	0.792	791.6	congruent	Block3	congruent/STIM_003.jpg	100
2868.289	0.716	715.5	congruent	Block3	congruent/STIM_003.jpg	100
2872.936	0.638	637.9	congruent	Block3	congruent/STIM_004.jpg	99
2877.242	0.481	481.2	congruent	Block3	congruent/STIM_004.jpg	100
2881.417	0.83	830.1	congruent	Block3	congruent/STIM_004.jpg	100
2886.098	0.64	639.7	congruent	Block3	congruent/STIM_004.jpg	100
2888.74	0.776	776.3	congruent	Block3	congruent/STIM_004.jpg	100
2891.817	0.638	638.2	congruent	Block3	congruent/STIM_005.jpg	100
2894.928	0.466	465.6	congruent	Block3	congruent/STIM_005.jpg	100
2897.844	0.782	781.9	congruent	Block3	congruent/STIM_005.jpg	100
2900.811	0.711	711.1	congruent	Block3	congruent/STIM_005.jpg	99
2904.472	0.696	695.8	congruent	Block3	congruent/STIM_005.jpg	100
2907.696	0.743	743.0	congruent	Block3	congruent/STIM_006.jpg	99
2911.812	0.661	660.7	congruent	Block3	congruent/STIM_006.jpg	100
2915.202	0.605	604.6	congruent	Block3	congruent/STIM_006.jpg	99
2918.297	0.664	664.4	congruent	Block3	congruent/STIM_006.jpg	100
2922.472	0.669	668.9	congruent	Block3	congruent/STIM_006.jpg	100
2926.743	0.709	709.1	congruent	Block3	congruent/STIM_007.jpg	100
2930.698	0.766	766.0	congruent	Block3	congruent/STIM_007.jpg	99
2934.079	0.783	782.6	congruent	Block3	congruent/STIM_007.jpg	99
2937.766	0.624	624.1	congruent	Block3	congruent/STIM_007.jpg	100
2942.27	0.664	663.5	congruent	Block3	congruent/STIM_007.jpg	100
2946.653	0.704	704.1	congruent	Block3	congruent/STIM_008.jpg	100
2950.342	0.626	626.4	congruent	Block3	congruent/STIM_008.jpg	99
2953.97	0.505	504.9	congruent	Block3	congruent/STIM_008.jpg	99
2956.561	0.507	506.8	congruent	Block3	congruent/STIM_008.jpg	100
2960.329	0.541	541.0	congruent	Block3	congruent/STIM_008.jpg	99
2963.805	0.783	783.1	congruent	Block3	congruent/STIM_009.jpg	100
2967.573	0.729	729.2	congruent	Block3	congruent/STIM_009.jpg	99
2971.309	0.796	795.9	congruent	Block3	congruent/STIM_009.jpg	100
2976.03	0.716	715.6	congruent	Block3	congruent/STIM_009.jpg	99
2979.969	0.714	713.8	congruent	Block3	congruent/STIM_009.jpg	100
2984.242	0.747	746.7	congruent	Block3	congruent/STIM_010.jpg	99
2987.419	0.702	702.3	congruent	Block3	congruent/STIM_010.jpg	100
2990.353	0.533	532.6	congruent	Block3	congruent/STIM_010.jpg	100
2994.651	0.535	534.6	congruent	Block3	congruent/STIM_010.jpg	99
2999.111	0.806	805.9	congruent	Block3	congruent/STIM_010.jpg	99
3002.004	0.58	580.3	congruent	Block3	congruent/STIM_011.jpg	99
3006.23	0.796	796.3	congruent	Block3	congruent/STIM_011.jpg	99
3009.162	0.645	644.6	congruent	Block3	congruent/STIM_011.jpg	100
3013.173	0.592	592.0	congruent	Block3	congruent/STIM_011.jpg	100
3016.334	0.831	831.0	congruent	Block3	congruent/STIM_011.jpg	100
3020.694	0.649	648.8	congruent	Block3	congruent/STIM_012.jpg	99
3024.465	0.527	527.3	congruent	Block3	congruent/STIM_012.jpg	100
3027.694	0.582	582.2	congruent	Block3	congruent/STIM_012.jpg	99
3030.746	0.493	493.2	congruent	Block3	congruent/STIM_012.jpg	99
3033.917	0.8	800.3	congruent	Block3	congruent/STIM_012.jpg	100
3038.649	0.645	645.3	congruent	Block3	congruent/STIM_013.jpg	99
3041.467	0.535	535.4	congruent	Block3	congruent/STIM_013.jpg	100
3044.568	0.609	609.1	congruent	Block3	congruent/STIM_013.jpg	100
3048.778	0.52	519.8	congruent	Block3	congruent/STIM_013.jpg	99
3051.852	0.816	815.7	congruent	Block3	congruent/STIM_013.jpg	99
3054.747	0.529	528.9	congruent	Block3	congruent/STIM_014.jpg	100
3057.578	0.688	688.1	congruent	Block3	congruent/STIM_014.jpg	100
3060.797	0.527	527.4	congruent	Block3	congruent/STIM_014.jpg	100
3063.535	0.559	559.0	congruent	Block3	congruent/STIM_014.jpg	100
3067.731	0.661	661.0	congruent	Block3	congruent/STIM_014.jpg	100
3072.074	0.761	760.6	congruent	Block3	congruent/STIM_015.jpg	100
3075.648	0.641	641.4	congruent	Block3	congruent/STIM_015.jpg	100
3079.356	0.753	752.7	congruent	Block3	congruent/STIM_015.jpg	100
3083.145	0.48	480.2	congruent	Block3	congruent/STIM_015.jpg	99
3087.061	0.632	632.5	congruent	Block3	congruent/STIM_015.jpg	100
3090.121	0.538	537.5	congruent	Block3	congruent/STIM_016.jpg	100
3092.935	0.583	583.4	congruent	Block3	congruent/STIM_016.jpg	99
3095.949	0.617	617.2	congruent	Block3	congruent/STIM_016.jpg	99
3100.247	0.656	655.7	congruent	Block3	congruent/STIM_016.jpg	100
3103.839	0.686	686.5	congruent	Block3	congruent/STIM_016.jpg	100
3106.908	0.558	558.1	congruent	Block3	congruent/STIM_017.jpg	99
3110.009	0.505	505.4	congruent	Block3	congruent/STIM_017.jpg	99
3112.976	0.498	497.7	congruent	Block3	congruent/STIM_017.jpg	99
3116.202	0.812	811.5	congruent	Block3	congruent/STIM_017.jpg	99
3120.361	0.805	805.0	congruent	Block3	congruent/STIM_017.jpg	99
3124.016	0.826	826.1	congruent	Block3	congruent/STIM_018.jpg	100
3128.162	0.688	688.3	congruent	Block3	congruent/STIM_018.jpg	100
3131.761	0.826	826.5	congruent	Block3	congruent/STIM_018.jpg	99
3136.415	0.679	679.4	congruent	Block3	congruent/STIM_018.jpg	100
3139.672	0.579	579.1	congruent	Block3	congruent/STIM_018.jpg	99
3143.953	0.472	472.0	congruent	Block3	congruent/STIM_019.jpg	100
3146.745	0.661	660.6	congruent	Block3	congruent/STIM_019.jpg	99
3151.293	0.675	674.8	congruent	Block3	congruent/STIM_019.jpg	99
3155.678	0.71	710.5	congruent	Block3	congruent/STIM_019.jpg	100
3159.299	0.738	737.8	congruent	Block3	congruent/STIM_019.jpg	100
3163.585	0.674	674.5	congruent	Block3	congruent/STIM_020.jpg	100
3167.105	0.741	740.6	congruent	Block3	congruent/STIM_020.jpg	99
3171.241	0.65	649.5	congruent	Block3	congruent/STIM_020.jpg	100
3175.582	0.744	743.5	congruent	Block3	congruent/STIM_020.jpg	100
3178.352	0.787	786.7	congruent	Block3	congruent/STIM_020.jpg	99
3182.47	0.734	733.6	congruent	Block3	congruent/STIM_021.jpg	100
3186.734	0.62	619.8	congruent	Block3	congruent/STIM_021.jpg	99
3190.423	0.824	824.1	congruent	Block3	congruent/STIM_021.jpg	100
3194.199	0.692	691.8	congruent	Block3	congruent/STIM_021.jpg	99
3198.724	0.512	512.0	congruent	Block3	congruent/STIM_021.jpg	99
3201.587	0.564	564.0	congruent	Block3	congruent/STIM_022.jpg	100
3205.876	0.806	806.3	congruent	Block3	congruent/STIM_022.jpg	99
3209.95	0.517	516.8	congruent	Block3	congruent/STIM_022.jpg	99
3212.599	0.601	600.9	congruent	Block3	congruent/STIM_022.jpg	100
3217.157	0.772	771.9	congruent	Block3	congruent/STIM_022.jpg	99
3220.192	0.587	586.8	congruent	Block3	congruent/STIM_023.jpg	100
3222.88	0.543	543.2	congruent	Block3	congruent/STIM_023.jpg	100
3226.921	0.51	509.9	congruent	Block3	congruent/STIM_023.jpg	100
3230.087	0.626	625.8	congruent	Block3	congruent/STIM_023.jpg	99
3232.941	0.568	568.5	congruent	Block3	congruent/STIM_023.jpg	100
3236.488	0.686	686.0	congruent	Block3	congruent/STIM_024.jpg	100
3239.234	0.599	598.7	congruent	Block3	congruent/STIM_024.jpg	100
3243.372	0.646	646.4	congruent	Block3	congruent/STIM_024.jpg	100
3247.112	0.634	633.8	congruent	Block3	congruent/STIM_024.jpg	99
3251.424	0.67	670.0	congruent	Block3	congruent/STIM_024.jpg	100
3254.707	0.79	789.7	congruent	Block3	congruent/STIM_025.jpg	99
3257.737	0.748	748.3	congruent	Block3	congruent/STIM_025.jpg	99
3261.944	0.595	595.3	congruent	Block3	congruent/STIM_025.jpg	100
3266.043	0.682	681.7	congruent	Block3	congruent/STIM_025.jpg	100
3269.391	0.681	680.8	congruent	Block3	congruent/STIM_025.jpg	99
3273.966	0.507	506.6	congruent	Block3	congruent/STIM_026.jpg	100
3276.527	0.612	612.3	congruent	Block3	congruent/STIM_026.jpg	100
3279.722	0.829	828.6	congruent	Block3	congruent/STIM_026.jpg	99
3282.602	0.824	823.9	congruent	Block3	congruent/STIM_026.jpg	99
3287.317	0.743	743.2	congruent	Block3	congruent/STIM_026.jpg	100
3290.33	0.684	683.5	congruent	Block3	congruent/STIM_027.jpg	100
3294.682	0.694	694.4	congruent	Block3	congruent/STIM_027.jpg	100
3299.215	0.824	823.5	congruent	Block3	congruent/STIM_027.jpg	100
3303.043	0.699	699.0	congruent	Block3	congruent/STIM_027.jpg	100
3306.233	0.779	779.0	congruent	Block3	congruent/STIM_027.jpg	99
3309.428	0.596	596.5	congruent	Block3	congruent/STIM_028.jpg	100
3312.16	0.737	736.8	congruent	Block3	congruent/STIM_028.jpg	99
3316.502	0.742	742.4	congruent	Block3	congruent/STIM_028.jpg	99
3321.138	0.473	472.6	congruent	Block3	congruent/STIM_028.jpg	99
3324.662	0.696	696.0	congruent	Block3	congruent/STIM_028.jpg	100
3327.874	0.673	673.1	congruent	Block3	congruent/STIM_029.jpg	100
3330.924	0.677	677.3	congruent	Block3	congruent/STIM_029.jpg	100
3334.131	0.821	821.3	congruent	Block3	congruent/STIM_029.jpg	99
3336.969	0.504	504.3	congruent	Block3	congruent/STIM_029.jpg	100
3340.063	0.723	723.0	congruent	Block3	congruent/STIM_029.jpg	100
