onset	duration	accuracy_binary	trial_type	learning_stage	stimulus
0.0	1.5	1	incongruent	Block1	incongruent/STIM_000.jpg
4.394	0.832	1	incongruent	Block1	incongruent/STIM_000.jpg
8.465	1.257	1	incongruent	Block1	incongruent/STIM_000.jpg
13.43	1.183	1	incongruent	Block1	incongruent/STIM_000.jpg
17.613	0.722	1	incongruent	Block1	incongruent/STIM_000.jpg
21.206	1.047	1	incongruent	Block1	incongruent/STIM_001.jpg
24.281	0.975	1	incongruent	Block1	incongruent/STIM_001.jpg
27.77	0.697	0	incongruent	Block1	incongruent/STIM_001.jpg
31.308	0.722	1	incongruent	Block1	incongruent/STIM_001.jpg
35.892	1.121	1	incongruent	Block1	incongruent/STIM_001.jpg
40.597	1.248	1	incongruent	Block1	incongruent/STIM_002.jpg
45.44	0.997	1	incongruent	Block1	incongruent/STIM_002.jpg
49.148	1.071	1	incongruent	Block1	incongruent/STIM_002.jpg
53.163	0.637	1	incongruent	Block1	incongruent/STIM_002.jpg
56.696	1.218	0	incongruent	Block1	incongruent/STIM_002.jpg
60.537	0.857	0	incongruent	Block1	incongruent/STIM_003.jpg
63.73	1.028	1	incongruent	Block1	incongruent/STIM_003.jpg
67.467	1.218	1	incongruent	Block1	incongruent/STIM_003.jpg
71.331	0.883	1	incongruent	Block1	incongruent/STIM_003.jpg
75.998	0.891	1	incongruent	Block1	incongruent/STIM_003.jpg
80.12	1.193	0	incongruent	Block1	incongruent/STIM_004.jpg
84.953	1.099	1	incongruent	Block1	incongruent/STIM_004.jpg
88.216	1.294	1	incongruent	Block1	incongruent/STIM_004.jpg
92.019	1.039	1	incongruent	Block1	incongruent/STIM_004.jpg
96.589	0.473	1	incongruent	Block1	incongruent/STIM_004.jpg
100.447	0.808	1	incongruent	Block1	incongruent/STIM_005.jpg
104.095	1.178	1	incongruent	Block1	incongruent/STIM_005.jpg
108.446	1.212	1	incongruent	Block1	incongruent/STIM_005.jpg
112.531	1.094	1	incongruent	Block1	incongruent/STIM_005.jpg
116.022	0.726	1	incongruent	Block1	incongruent/STIM_005.jpg
118.9	0.853	1	incongruent	Block1	incongruent/STIM_006.jpg
122.871	1.44	1	incongruent	Block1	incongruent/STIM_006.jpg
127.144	0.988	1	incongruent	Block1	incongruent/STIM_006.jpg
130.093	0.882	1	incongruent	Block1	incongruent/STIM_006.jpg
133.816	0.742	1	incongruent	Block1	incongruent/STIM_006.jpg
136.728	1.466	1	incongruent	Block1	incongruent/STIM_007.jpg
141.784	0.86	1	incongruent	Block1	incongruent/STIM_007.jpg
145.109	1.28	0	incongruent	Block1	incongruent/STIM_007.jpg
148.745	0.701	0	incongruent	Block1	incongruent/STIM_007.jpg
152.446	0.662	1	incongruent	Block1	incongruent/STIM_007.jpg
155.149	1.473	0	incongruent	Block1	incongruent/STIM_008.jpg
158.699	0.978	1	incongruent	Block1	incongruent/STIM_008.jpg
162.604	0.76	1	incongruent	Block1	incongruent/STIM_008.jpg
167.301	1.146	1	incongruent	Block1	incongruent/STIM_008.jpg
171.525	1.148	1	incongruent	Block1	incongruent/STIM_008.jpg
176.439	1.1	1	incongruent	Block1	incongruent/STIM_009.jpg
180.377	0.93	1	incongruent	Block1	incongruent/STIM_009.jpg
184.486	1.208	1	incongruent	Block1	incongruent/STIM_009.jpg
187.99	0.899	1	incongruent	Block1	incongruent/STIM_009.jpg
192.249	1.248	1	incongruent	Block1	incongruent/STIM_009.jpg
195.628	0.985	1	incongruent	Block1	incongruent/STIM_010.jpg
199.732	0.929	1	incongruent	Block1	incongruent/STIM_010.jpg
203.434	0.732	1	incongruent	Block1	incongruent/STIM_010.jpg
208.06	1.144	1	incongruent	Block1	incongruent/STIM_010.jpg
211.636	0.706	1	incongruent	Block1	incongruent/STIM_010.jpg
214.816	0.968	1	incongruent	Block1	incongruent/STIM_011.jpg
218.157	1.455	1	incongruent	Block1	incongruent/STIM_011.jpg
223.374	1.002	1	incongruent	Block1	incongruent/STIM_011.jpg
228.004	1.096	1	incongruent	Block1	incongruent/STIM_011.jpg
232.091	0.605	1	incongruent	Block1	incongruent/STIM_011.jpg
236.066	1.053	1	incongruent	Block1	incongruent/STIM_012.jpg
240.99	1.152	0	incongruent	Block1	incongruent/STIM_012.jpg
245.446	0.688	1	incongruent	Block1	incongruent/STIM_012.jpg
248.865	1.326	1	incongruent	Block1	incongruent/STIM_012.jpg
252.422	1.24	1	incongruent	Block1	incongruent/STIM_012.jpg
257.576	0.782	1	incongruent	Block1	incongruent/STIM_013.jpg
260.446	1.098	1	incongruent	Block1	incongruent/STIM_013.jpg
263.762	0.755	1	incongruent	Block1	incongruent/STIM_013.jpg
266.911	1.1	0	incongruent	Block1	incongruent/STIM_013.jpg
270.17	0.579	1	incongruent	Block1	incongruent/STIM_013.jpg
274.686	1.488	1	incongruent	Block1	incongruent/STIM_014.jpg
278.9	1.38	1	incongruent	Block1	incongruent/STIM_014.jpg
284.261	0.999	1	incongruent	Block1	incongruent/STIM_014.jpg
288.954	1.121	1	incongruent	Block1	incongruent/STIM_014.jpg
293.389	1.025	1	incongruent	Block1	incongruent/STIM_014.jpg
296.646	1.243	1	incongruent	Block1	incongruent/STIM_015.jpg
301.439	1.014	1	incongruent	Block1	incongruent/STIM_015.jpg
304.754	0.577	1	incongruent	Block1	incongruent/STIM_015.jpg
308.472	0.972	0	incongruent	Block1	incongruent/STIM_015.jpg
313.356	0.891	1	incongruent	Block1	incongruent/STIM_015.jpg
317.996	0.867	1	incongruent	Block1	incongruent/STIM_016.jpg
321.622	0.804	1	incongruent	Block1	incongruent/STIM_016.jpg
325.38	0.776	0	incongruent	Block1	incongruent/STIM_016.jpg
329.739	0.84	0	incongruent	Block1	incongruent/STIM_016.jpg
334.33	1.145	1	incongruent	Block1	incongruent/STIM_016.jpg
337.515	0.797	1	incongruent	Block1	incongruent/STIM_017.jpg
340.359	0.797	1	incongruent	Block1	incongruent/STIM_017.jpg
343.882	1.314	1	incongruent	Block1	incongruent/STIM_017.jpg
348.7	1.239	1	incongruent	Block1	incongruent/STIM_017.jpg
353.852	0.7	1	incongruent	Block1	incongruent/STIM_017.jpg
357.09	1.422	0	incongruent	Block1	incongruent/STIM_018.jpg
361.88	0.695	0	incongruent	Block1	incongruent/STIM_018.jpg
366.136	0.914	0	incongruent	Block1	incongruent/STIM_018.jpg
369.974	1.074	1	incongruent	Block1	incongruent/STIM_018.jpg
374.203	0.637	1	incongruent	Block1	incongruent/STIM_018.jpg
377.73	1.296	1	incongruent	Block1	incongruent/STIM_019.jpg
381.657	1.163	1	incongruent	Block1	incongruent/STIM_019.jpg
384.942	1.247	1	incongruent	Block1	incongruent/STIM_019.jpg
389.407	0.966	1	incongruent	Block1	incongruent/STIM_019.jpg
393.812	0.714	1	incongruent	Block1	incongruent/STIM_019.jpg
398.098	0.955	1	incongruent	Block1	incongruent/STIM_020.jpg
401.491	0.977	1	incongruent	Block1	incongruent/STIM_020.jpg
406.342	0.857	1	incongruent	Block1	incongruent/STIM_020.jpg
410.254	0.965	1	incongruent	Block1	incongruent/STIM_020.jpg
413.873	0.56	1	incongruent	Block1	incongruent/STIM_020.jpg
417.644	1.399	1	incongruent	Block1	incongruent/STIM_021.jpg
421.957	0.725	1	incongruent	Block1	incongruent/STIM_021.jpg
425.098	0.958	1	incongruent	Block1	incongruent/STIM_021.jpg
429.207	0.709	1	incongruent	Block1	incongruent/STIM_021.jpg
432.803	0.814	1	incongruent	Block1	incongruent/STIM_021.jpg
436.405	1.452	1	incongruent	Block1	incongruent/STIM_022.jpg
440.113	1.04	1	incongruent	Block1	incongruent/STIM_022.jpg
443.543	0.745	1	incongruent	Block1	incongruent/STIM_022.jpg
447.526	0.686	1	incongruent	Block1	incongruent/STIM_022.jpg
450.896	1.095	1	incongruent	Block1	incongruent/STIM_022.jpg
454.175	1.101	1	incongruent	Block1	incongruent/STIM_023.jpg
457.989	1.2	1	incongruent	Block1	incongruent/STIM_023.jpg
461.316	0.761	1	incongruent	Block1	incongruent/STIM_023.jpg
464.728	0.926	1	incongruent	Block1	incongruent/STIM_023.jpg
468.521	0.69	1	incongruent	Block1	incongruent/STIM_023.jpg
472.954	1.528	1	incongruent	Block1	incongruent/STIM_024.jpg
477.946	1.074	1	incongruent	Block1	incongruent/STIM_024.jpg
482.7	0.965	1	incongruent	Block1	incongruent/STIM_024.jpg
486.532	1.157	1	incongruent	Block1	incongruent/STIM_024.jpg
490.678	0.606	1	incongruent	Block1	incongruent/STIM_024.jpg
494.857	0.971	1	incongruent	Block1	incongruent/STIM_025.jpg
499.125	0.899	1	incongruent	Block1	incongruent/STIM_025.jpg
503.288	1.35	1	incongruent	Block1	incongruent/STIM_025.jpg
508.006	0.77	1	incongruent	Block1	incongruent/STIM_025.jpg
511.3	0.722	1	incongruent	Block1	incongruent/STIM_025.jpg
514.754	1.033	0	incongruent	Block1	incongruent/STIM_026.jpg
517.991	1.133	1	incongruent	Block1	incongruent/STIM_026.jpg
522.253	1.077	1	incongruent	Block1	incongruent/STIM_026.jpg
525.671	1.234	1	incongruent	Block1	incongruent/STIM_026.jpg
528.89	0.662	1	incongruent	Block1	incongruent/STIM_026.jpg
531.875	1.143	0	incongruent	Block1	incongruent/STIM_027.jpg
535.501	1.146	1	incongruent	Block1	incongruent/STIM_027.jpg
539.217	1.289	1	incongruent	Block1	incongruent/STIM_027.jpg
543.964	0.853	1	incongruent	Block1	incongruent/STIM_027.jpg
547.219	0.985	1	incongruent	Block1	incongruent/STIM_027.jpg
551.92	1.39	1	incongruent	Block1	incongruent/STIM_028.jpg
556.562	0.83	1	incongruent	Block1	incongruent/STIM_028.jpg
560.827	0.741	1	incongruent	Block1	incongruent/STIM_028.jpg
565.411	1.122	0	incongruent	Block1	incongruent/STIM_028.jpg
570.094	0.961	1	incongruent	Block1	incongruent/STIM_028.jpg
573.473	1.383	1	incongruent	Block1	incongruent/STIM_029.jpg
578.79	0.615	1	incongruent	Block1	incongruent/STIM_029.jpg
581.88	0.779	1	incongruent	Block1	incongruent/STIM_029.jpg
585.063	0.735	1	incongruent	Block1	incongruent/STIM_029.jpg
589.142	0.958	1	incongruent	Block1	incongruent/STIM_029.jpg
593.293	0.544	0	congruent	Block1	congruent/STIM_000.jpg
596.401	0.62	1	congruent	Block1	congruent/STIM_000.jpg
600.766	0.407	1	congruent	Block1	congruent/STIM_000.jpg
604.08	0.895	1	congruent	Block1	congruent/STIM_000.jpg
608.596	0.545	1	congruent	Block1	congruent/STIM_000.jpg
611.951	0.7	1	congruent	Block1	congruent/STIM_001.jpg
614.885	0.931	1	congruent	Block1	congruent/STIM_001.jpg
619.72	0.929	1	congruent	Block1	congruent/STIM_001.jpg
624.314	0.801	1	congruent	Block1	congruent/STIM_001.jpg
628.842	0.571	1	congruent	Block1	congruent/STIM_001.jpg
631.896	0.775	1	congruent	Block1	congruent/STIM_002.jpg
636.069	0.813	1	congruent	Block1	congruent/STIM_002.jpg
640.892	0.844	1	congruent	Block1	congruent/STIM_002.jpg
645.569	0.51	1	congruent	Block1	congruent/STIM_002.jpg
649.123	0.666	1	congruent	Block1	congruent/STIM_002.jpg
652.839	0.84	1	congruent	Block1	congruent/STIM_003.jpg
656.204	0.916	1	congruent	Block1	congruent/STIM_003.jpg
661.073	0.716	1	congruent	Block1	congruent/STIM_003.jpg
665.786	0.613	1	congruent	Block1	congruent/STIM_003.jpg
670.524	0.822	1	congruent	Block1	congruent/STIM_003.jpg
673.476	0.834	1	congruent	Block1	congruent/STIM_004.jpg
677.85	0.582	1	congruent	Block1	congruent/STIM_004.jpg
682.383	0.788	1	congruent	Block1	congruent/STIM_004.jpg
685.22	0.696	1	congruent	Block1	congruent/STIM_004.jpg
687.902	0.801	1	congruent	Block1	congruent/STIM_004.jpg
691.175	0.53	1	congruent	Block1	congruent/STIM_005.jpg
694.105	0.86	1	congruent	Block1	congruent/STIM_005.jpg
697.037	0.526	1	congruent	Block1	congruent/STIM_005.jpg
700.775	0.442	1	congruent	Block1	congruent/STIM_005.jpg
703.509	0.698	0	congruent	Block1	congruent/STIM_005.jpg
707.292	0.653	1	congruent	Block1	congruent/STIM_006.jpg
710.882	0.6	1	congruent	Block1	congruent/STIM_006.jpg
714.371	0.784	1	congruent	Block1	congruent/STIM_006.jpg
718.159	0.721	1	congruent	Block1	congruent/STIM_006.jpg
722.597	0.687	1	congruent	Block1	congruent/STIM_006.jpg
725.633	0.593	1	congruent	Block1	congruent/STIM_007.jpg
728.577	0.851	1	congruent	Block1	congruent/STIM_007.jpg
733.399	0.874	1	congruent	Block1	congruent/STIM_007.jpg
736.605	0.866	1	congruent	Block1	congruent/STIM_007.jpg
740.497	0.649	1	congruent	Block1	congruent/STIM_007.jpg
744.326	0.582	1	congruent	Block1	congruent/STIM_008.jpg
748.223	0.671	1	congruent	Block1	congruent/STIM_008.jpg
752.553	0.674	1	congruent	Block1	congruent/STIM_008.jpg
755.622	0.835	1	congruent	Block1	congruent/STIM_008.jpg
759.634	0.603	1	congruent	Block1	congruent/STIM_008.jpg
764.186	0.978	1	congruent	Block1	congruent/STIM_009.jpg
768.833	0.903	1	congruent	Block1	congruent/STIM_009.jpg
771.98	0.874	1	congruent	Block1	congruent/STIM_009.jpg
775.73	0.731	1	congruent	Block1	congruent/STIM_009.jpg
779.284	0.733	0	congruent	Block1	congruent/STIM_009.jpg
782.54	0.496	1	congruent	Block1	congruent/STIM_010.jpg
785.128	0.53	1	congruent	Block1	congruent/STIM_010.jpg
789.469	0.695	1	congruent	Block1	congruent/STIM_010.jpg
792.34	0.752	1	congruent	Block1	congruent/STIM_010.jpg
795.71	0.625	1	congruent	Block1	congruent/STIM_010.jpg
799.424	0.562	1	congruent	Block1	congruent/STIM_011.jpg
802.968	0.782	1	congruent	Block1	congruent/STIM_011.jpg
807.442	0.639	1	congruent	Block1	congruent/STIM_011.jpg
811.778	0.893	1	congruent	Block1	congruent/STIM_011.jpg
815.539	0.706	1	congruent	Block1	congruent/STIM_011.jpg
819.552	0.515	1	congruent	Block1	congruent/STIM_012.jpg
822.18	0.747	1	congruent	Block1	congruent/STIM_012.jpg
825.261	0.949	1	congruent	Block1	congruent/STIM_012.jpg
829.781	0.802	1	congruent	Block1	congruent/STIM_012.jpg
834.454	0.922	1	congruent	Block1	congruent/STIM_012.jpg
837.955	0.78	1	congruent	Block1	congruent/STIM_013.jpg
841.264	0.669	0	congruent	Block1	congruent/STIM_013.jpg
843.896	0.827	1	congruent	Block1	congruent/STIM_013.jpg
847.907	0.752	1	congruent	Block1	congruent/STIM_013.jpg
852.139	0.717	1	congruent	Block1	congruent/STIM_013.jpg
855.322	0.89	1	congruent	Block1	congruent/STIM_014.jpg
860.01	0.643	1	congruent	Block1	congruent/STIM_014.jpg
862.822	0.579	1	congruent	Block1	congruent/STIM_014.jpg
866.468	0.49	1	congruent	Block1	congruent/STIM_014.jpg
869.812	0.866	1	congruent	Block1	congruent/STIM_014.jpg
873.987	0.823	0	congruent	Block1	congruent/STIM_015.jpg
878.335	0.59	1	congruent	Block1	congruent/STIM_015.jpg
882.425	0.56	1	congruent	Block1	congruent/STIM_015.jpg
885.298	0.815	1	congruent	Block1	congruent/STIM_015.jpg
888.966	0.574	1	congruent	Block1	congruent/STIM_015.jpg
893.087	0.8	1	congruent	Block1	congruent/STIM_016.jpg
896.64	0.74	1	congruent	Block1	congruent/STIM_016.jpg
900.562	0.665	1	congruent	Block1	congruent/STIM_016.jpg
904.157	0.897	0	congruent	Block1	congruent/STIM_016.jpg
907.595	0.562	0	congruent	Block1	congruent/STIM_016.jpg
910.506	0.808	1	congruent	Block1	congruent/STIM_017.jpg
913.609	0.823	1	congruent	Block1	congruent/STIM_017.jpg
916.818	0.894	1	congruent	Block1	congruent/STIM_017.jpg
921.11	0.883	1	congruent	Block1	congruent/STIM_017.jpg
924.214	0.542	1	congruent	Block1	congruent/STIM_017.jpg
926.821	0.779	1	congruent	Block1	congruent/STIM_018.jpg
930.789	0.845	1	congruent	Block1	congruent/STIM_018.jpg
934.347	0.478	1	congruent	Block1	congruent/STIM_018.jpg
936.944	0.896	1	congruent	Block1	congruent/STIM_018.jpg
941.056	0.579	1	congruent	Block1	congruent/STIM_018.jpg
945.103	0.492	1	congruent	Block1	congruent/STIM_019.jpg
949.151	0.884	1	congruent	Block1	congruent/STIM_019.jpg
952.016	0.555	1	congruent	Block1	congruent/STIM_019.jpg
956.508	0.934	1	congruent	Block1	congruent/STIM_019.jpg
960.23	0.73	1	congruent	Block1	congruent/STIM_019.jpg
963.155	0.477	1	congruent	Block1	congruent/STIM_020.jpg
967.347	0.618	1	congruent	Block1	congruent/STIM_020.jpg
970.973	0.66	1	congruent	Block1	congruent/STIM_020.jpg
974.673	0.842	1	congruent	Block1	congruent/STIM_020.jpg
977.781	0.777	0	congruent	Block1	congruent/STIM_020.jpg
981.303	0.762	1	congruent	Block1	congruent/STIM_021.jpg
984.594	0.846	1	congruent	Block1	congruent/STIM_021.jpg
987.46	0.753	1	congruent	Block1	congruent/STIM_021.jpg
992.064	0.685	1	congruent	Block1	congruent/STIM_021.jpg
995.594	0.533	0	congruent	Block1	congruent/STIM_021.jpg
998.805	1.0	1	congruent	Block1	congruent/STIM_022.jpg
1002.887	0.872	1	congruent	Block1	congruent/STIM_022.jpg
1005.891	0.566	1	congruent	Block1	congruent/STIM_022.jpg
1008.997	0.594	1	congruent	Block1	congruent/STIM_022.jpg
1012.008	0.67	1	congruent	Block1	congruent/STIM_022.jpg
1016.577	0.557	1	congruent	Block1	congruent/STIM_023.jpg
1019.118	0.907	1	congruent	Block1	congruent/STIM_023.jpg
1022.595	0.746	1	congruent	Block1	congruent/STIM_023.jpg
1027.068	0.482	1	congruent	Block1	congruent/STIM_023.jpg
1029.769	0.831	1	congruent	Block1	congruent/STIM_023.jpg
1032.669	0.842	1	congruent	Block1	congruent/STIM_024.jpg
1036.758	0.819	1	congruent	Block1	congruent/STIM_024.jpg
1041.037	0.621	1	congruent	Block1	congruent/STIM_024.jpg
1044.217	0.896	1	congruent	Block1	congruent/STIM_024.jpg
1047.541	0.576	1	congruent	Block1	congruent/STIM_024.jpg
1051.376	0.885	1	congruent	Block1	congruent/STIM_025.jpg
1055.167	0.479	1	congruent	Block1	congruent/STIM_025.jpg
1058.191	0.95	1	congruent	Block1	congruent/STIM_025.jpg
1062.683	0.893	1	congruent	Block1	congruent/STIM_025.jpg
1066.913	0.773	1	congruent	Block1	congruent/STIM_025.jpg
1070.344	0.513	1	congruent	Block1	congruent/STIM_026.jpg
1073.077	0.672	1	congruent	Block1	congruent/STIM_026.jpg
1076.838	0.854	1	congruent	Block1	congruent/STIM_026.jpg
1081.326	0.525	0	congruent	Block1	congruent/STIM_026.jpg
1084.71	0.911	1	congruent	Block1	congruent/STIM_026.jpg
1087.878	0.567	0	congruent	Block1	congruent/STIM_027.jpg
1091.361	0.571	1	congruent	Block1	congruent/STIM_027.jpg
1094.318	0.509	1	congruent	Block1	congruent/STIM_027.jpg
1096.998	0.814	1	congruent	Block1	congruent/STIM_027.jpg
1100.789	0.701	1	congruent	Block1	congruent/STIM_027.jpg
1103.553	0.708	1	congruent	Block1	congruent/STIM_028.jpg
1106.412	0.838	1	congruent	Block1	congruent/STIM_028.jpg
1109.472	0.717	1	congruent	Block1	congruent/STIM_028.jpg
1113.965	0.808	1	congruent	Block1	congruent/STIM_028.jpg
1118.568	0.874	1	congruent	Block1	congruent/STIM_028.jpg
1121.953	0.658	1	congruent	Block1	congruent/STIM_029.jpg
1125.286	0.554	1	congruent	Block1	congruent/STIM_029.jpg
1129.441	0.603	1	congruent	Block1	congruent/STIM_029.jpg
1132.418	0.686	1	congruent	Block1	congruent/STIM_029.jpg
1136.362	0.505	1	congruent	Block1	congruent/STIM_029.jpg
1140.327	1.199	1	incongruent	Block2	incongruent/STIM_000.jpg
1144.453	1.189	1	incongruent	Block2	incongruent/STIM_000.jpg
1148.966	0.719	1	incongruent	Block2	incongruent/STIM_000.jpg
1152.879	1.06	1	incongruent	Block2	incongruent/STIM_000.jpg
1157.035	0.744	1	incongruent	Block2	incongruent/STIM_000.jpg
1161.75	0.881	1	incongruent	Block2	incongruent/STIM_001.jpg
1165.405	0.848	1	incongruent	Block2	incongruent/STIM_001.jpg
1169.002	0.759	1	incongruent	Block2	incongruent/STIM_001.jpg
1172.646	0.56	1	incongruent	Block2	incongruent/STIM_001.jpg
1175.44	0.542	1	incongruent	Block2	incongruent/STIM_001.jpg
1178.053	0.747	1	incongruent	Block2	incongruent/STIM_002.jpg
1182.563	0.963	1	incongruent	Block2	incongruent/STIM_002.jpg
1187.514	0.768	1	incongruent	Block2	incongruent/STIM_002.jpg
1191.757	0.732	1	incongruent	Block2	incongruent/STIM_002.jpg
1195.388	0.51	1	incongruent	Block2	incongruent/STIM_002.jpg
1198.404	1.183	1	incongruent	Block2	incongruent/STIM_003.jpg
1202.383	0.782	1	incongruent	Block2	incongruent/STIM_003.jpg
1205.523	0.788	1	incongruent	Block2	incongruent/STIM_003.jpg
1210.038	0.606	0	incongruent	Block2	incongruent/STIM_003.jpg
1213.959	0.629	1	incongruent	Block2	incongruent/STIM_003.jpg
1216.651	0.998	1	incongruent	Block2	incongruent/STIM_004.jpg
1219.656	0.93	1	incongruent	Block2	incongruent/STIM_004.jpg
1223.991	1.128	1	incongruent	Block2	incongruent/STIM_004.jpg
1229.079	1.088	1	incongruent	Block2	incongruent/STIM_004.jpg
1232.951	0.768	1	incongruent	Block2	incongruent/STIM_004.jpg
1236.508	0.559	1	incongruent	Block2	incongruent/STIM_005.jpg
1239.825	0.65	1	incongruent	Block2	incongruent/STIM_005.jpg
1243.157	1.116	1	incongruent	Block2	incongruent/STIM_005.jpg
1246.907	0.83	1	incongruent	Block2	incongruent/STIM_005.jpg
1251.488	1.009	1	incongruent	Block2	incongruent/STIM_005.jpg
1256.442	1.102	1	incongruent	Block2	incongruent/STIM_006.jpg
1261.37	0.843	1	incongruent	Block2	incongruent/STIM_006.jpg
1264.532	0.614	1	incongruent	Block2	incongruent/STIM_006.jpg
1267.548	0.515	1	incongruent	Block2	incongruent/STIM_006.jpg
1270.825	0.929	1	incongruent	Block2	incongruent/STIM_006.jpg
1274.12	0.778	1	incongruent	Block2	incongruent/STIM_007.jpg
1278.847	1.061	1	incongruent	Block2	incongruent/STIM_007.jpg
1283.593	0.849	1	incongruent	Block2	incongruent/STIM_007.jpg
1286.582	0.919	1	incongruent	Block2	incongruent/STIM_007.jpg
1291.429	0.645	1	incongruent	Block2	incongruent/STIM_007.jpg
1294.077	0.798	1	incongruent	Block2	incongruent/STIM_008.jpg
1297.873	1.167	1	incongruent	Block2	incongruent/STIM_008.jpg
1302.398	0.898	1	incongruent	Block2	incongruent/STIM_008.jpg
1306.478	0.99	1	incongruent	Block2	incongruent/STIM_008.jpg
1311.163	0.752	1	incongruent	Block2	incongruent/STIM_008.jpg
1314.376	0.747	1	incongruent	Block2	incongruent/STIM_009.jpg
1317.983	0.892	1	incongruent	Block2	incongruent/STIM_009.jpg
1320.95	0.72	1	incongruent	Block2	incongruent/STIM_009.jpg
1325.115	0.679	1	incongruent	Block2	incongruent/STIM_009.jpg
1328.248	1.054	1	incongruent	Block2	incongruent/STIM_009.jpg
1331.857	0.651	1	incongruent	Block2	incongruent/STIM_010.jpg
1335.807	1.055	1	incongruent	Block2	incongruent/STIM_010.jpg
1338.783	0.676	1	incongruent	Block2	incongruent/STIM_010.jpg
1342.56	0.614	1	incongruent	Block2	incongruent/STIM_010.jpg
1345.252	0.598	1	incongruent	Block2	incongruent/STIM_010.jpg
1349.532	0.825	1	incongruent	Block2	incongruent/STIM_011.jpg
1353.023	0.741	1	incongruent	Block2	incongruent/STIM_011.jpg
1357.237	0.843	1	incongruent	Block2	incongruent/STIM_011.jpg
1361.249	0.657	1	incongruent	Block2	incongruent/STIM_011.jpg
1364.461	0.849	1	incongruent	Block2	incongruent/STIM_011.jpg
1367.4	1.196	1	incongruent	Block2	incongruent/STIM_012.jpg
1370.721	1.222	1	incongruent	Block2	incongruent/STIM_012.jpg
1374.573	0.843	1	incongruent	Block2	incongruent/STIM_012.jpg
1378.857	0.578	1	incongruent	Block2	incongruent/STIM_012.jpg
1382.133	0.57	1	incongruent	Block2	incongruent/STIM_012.jpg
1386.529	1.208	1	incongruent	Block2	incongruent/STIM_013.jpg
1390.766	0.993	1	incongruent	Block2	incongruent/STIM_013.jpg
1394.044	0.71	0	incongruent	Block2	incongruent/STIM_013.jpg
1397.307	0.741	1	incongruent	Block2	incongruent/STIM_013.jpg
1402.001	0.762	1	incongruent	Block2	incongruent/STIM_013.jpg
1406.12	1.28	1	incongruent	Block2	incongruent/STIM_014.jpg
1409.937	0.785	1	incongruent	Block2	incongruent/STIM_014.jpg
1413.751	0.927	1	incongruent	Block2	incongruent/STIM_014.jpg
1417.39	0.707	1	incongruent	Block2	incongruent/STIM_014.jpg
1420.674	1.054	1	incongruent	Block2	incongruent/STIM_014.jpg
1423.998	0.592	1	incongruent	Block2	incongruent/STIM_015.jpg
1426.947	0.912	1	incongruent	Block2	incongruent/STIM_015.jpg
1431.519	1.128	1	incongruent	Block2	incongruent/STIM_015.jpg
1435.149	0.835	1	incongruent	Block2	incongruent/STIM_015.jpg
1439.029	0.695	1	incongruent	Block2	incongruent/STIM_015.jpg
1442.032	0.83	0	incongruent	Block2	incongruent/STIM_016.jpg
1445.524	1.197	1	incongruent	Block2	incongruent/STIM_016.jpg
1448.795	1.174	1	incongruent	Block2	incongruent/STIM_016.jpg
1451.913	1.005	1	incongruent	Block2	incongruent/STIM_016.jpg
1455.929	0.863	1	incongruent	Block2	incongruent/STIM_016.jpg
1460.286	0.844	1	incongruent	Block2	incongruent/STIM_017.jpg
1464.455	0.733	1	incongruent	Block2	incongruent/STIM_017.jpg
1468.196	0.794	1	incongruent	Block2	incongruent/STIM_017.jpg
1471.713	1.01	1	incongruent	Block2	incongruent/STIM_017.jpg
1476.254	0.812	1	incongruent	Block2	incongruent/STIM_017.jpg
1480.008	1.056	1	incongruent	Block2	incongruent/STIM_018.jpg
1483.906	1.042	1	incongruent	Block2	incongruent/STIM_018.jpg
1488.337	0.802	1	incongruent	Block2	incongruent/STIM_018.jpg
1492.838	0.884	1	incongruent	Block2	incongruent/STIM_018.jpg
1496.816	0.955	1	incongruent	Block2	incongruent/STIM_018.jpg
1500.888	1.172	1	incongruent	Block2	incongruent/STIM_019.jpg
1504.717	1.135	1	incongruent	Block2	incongruent/STIM_019.jpg
1508.587	0.638	1	incongruent	Block2	incongruent/STIM_019.jpg
1511.419	0.526	1	incongruent	Block2	incongruent/STIM_019.jpg
1515.807	0.923	1	incongruent	Block2	incongruent/STIM_019.jpg
1520.395	1.271	1	incongruent	Block2	incongruent/STIM_020.jpg
1523.855	1.128	1	incongruent	Block2	incongruent/STIM_020.jpg
1528.415	0.819	1	incongruent	Block2	incongruent/STIM_020.jpg
1532.872	0.725	1	incongruent	Block2	incongruent/STIM_020.jpg
1536.854	0.935	1	incongruent	Block2	incongruent/STIM_020.jpg
1539.951	0.907	0	incongruent	Block2	incongruent/STIM_021.jpg
1543.035	1.063	1	incongruent	Block2	incongruent/STIM_021.jpg
1547.37	0.709	1	incongruent	Block2	incongruent/STIM_021.jpg
1552.106	1.012	1	incongruent	Block2	incongruent/STIM_021.jpg
1557.056	0.674	1	incongruent	Block2	incongruent/STIM_021.jpg
1560.692	1.391	1	incongruent	Block2	incongruent/STIM_022.jpg
1565.153	0.698	1	incongruent	Block2	incongruent/STIM_022.jpg
1567.976	0.876	0	incongruent	Block2	incongruent/STIM_022.jpg
1571.295	1.0	1	incongruent	Block2	incongruent/STIM_022.jpg
1575.24	0.751	1	incongruent	Block2	incongruent/STIM_022.jpg
1578.693	1.298	1	incongruent	Block2	incongruent/STIM_023.jpg
1582.052	1.146	1	incongruent	Block2	incongruent/STIM_023.jpg
1585.67	0.651	1	incongruent	Block2	incongruent/STIM_023.jpg
1589.917	0.857	1	incongruent	Block2	incongruent/STIM_023.jpg
1593.736	0.887	1	incongruent	Block2	incongruent/STIM_023.jpg
1596.728	1.201	0	incongruent	Block2	incongruent/STIM_024.jpg
1601.087	1.064	0	incongruent	Block2	incongruent/STIM_024.jpg
1605.358	0.663	0	incongruent	Block2	incongruent/STIM_024.jpg
1608.532	0.429	0	incongruent	Block2	incongruent/STIM_024.jpg
1612.545	0.878	1	incongruent	Block2	incongruent/STIM_024.jpg
1616.682	0.921	1	incongruent	Block2	incongruent/STIM_025.jpg
1619.754	0.649	1	incongruent	Block2	incongruent/STIM_025.jpg
1622.925	0.84	1	incongruent	Block2	incongruent/STIM_025.jpg
1626.941	0.679	1	incongruent	Block2	incongruent/STIM_025.jpg
1629.83	0.706	1	incongruent	Block2	incongruent/STIM_025.jpg
1634.539	0.759	1	incongruent	Block2	incongruent/STIM_026.jpg
1637.641	0.709	0	incongruent	Block2	incongruent/STIM_026.jpg
1641.541	0.924	1	incongruent	Block2	incongruent/STIM_026.jpg
1646.277	0.734	1	incongruent	Block2	incongruent/STIM_026.jpg
1649.628	0.569	1	incongruent	Block2	incongruent/STIM_026.jpg
1652.498	0.709	1	incongruent	Block2	incongruent/STIM_027.jpg
1656.929	0.718	1	incongruent	Block2	incongruent/STIM_027.jpg
1660.078	0.942	1	incongruent	Block2	incongruent/STIM_027.jpg
1663.064	0.896	1	incongruent	Block2	incongruent/STIM_027.jpg
1667.586	0.587	1	incongruent	Block2	incongruent/STIM_027.jpg
1670.94	1.197	1	incongruent	Block2	incongruent/STIM_028.jpg
1675.017	0.884	1	incongruent	Block2	incongruent/STIM_028.jpg
1679.29	0.732	1	incongruent	Block2	incongruent/STIM_028.jpg
1683.367	0.89	1	incongruent	Block2	incongruent/STIM_028.jpg
1686.761	0.965	1	incongruent	Block2	incongruent/STIM_028.jpg
1690.487	0.669	0	incongruent	Block2	incongruent/STIM_029.jpg
1693.454	1.0	1	incongruent	Block2	incongruent/STIM_029.jpg
1698.172	0.657	1	incongruent	Block2	incongruent/STIM_029.jpg
1702.728	0.991	1	incongruent	Block2	incongruent/STIM_029.jpg
1705.92	0.548	1	incongruent	Block2	incongruent/STIM_029.jpg
1710.204	0.579	1	congruent	Block2	congruent/STIM_000.jpg
1714.274	0.912	1	congruent	Block2	congruent/STIM_000.jpg
1717.951	0.608	1	congruent	Block2	congruent/STIM_000.jpg
1721.347	0.54	1	congruent	Block2	congruent/STIM_000.jpg
1724.226	0.594	1	congruent	Block2	congruent/STIM_000.jpg
1728.836	0.853	1	congruent	Block2	congruent/STIM_001.jpg
1732.482	0.715	1	congruent	Block2	congruent/STIM_001.jpg
1735.428	0.862	1	congruent	Block2	congruent/STIM_001.jpg
1738.404	0.588	1	congruent	Block2	congruent/STIM_001.jpg
1741.806	0.689	0	congruent	Block2	congruent/STIM_001.jpg
1744.953	0.716	1	congruent	Block2	congruent/STIM_002.jpg
1749.026	0.603	1	congruent	Block2	congruent/STIM_002.jpg
1753.543	0.897	1	congruent	Block2	congruent/STIM_002.jpg
1757.45	0.571	1	congruent	Block2	congruent/STIM_002.jpg
1760.408	0.535	1	congruent	Block2	congruent/STIM_002.jpg
1763.941	0.757	1	congruent	Block2	congruent/STIM_003.jpg
1768.005	0.903	1	congruent	Block2	congruent/STIM_003.jpg
1771.571	0.626	1	congruent	Block2	congruent/STIM_003.jpg
1775.253	0.602	1	congruent	Block2	congruent/STIM_003.jpg
1778.04	0.52	1	congruent	Block2	congruent/STIM_003.jpg
1782.527	0.588	1	congruent	Block2	congruent/STIM_004.jpg
1786.179	0.863	1	congruent	Block2	congruent/STIM_004.jpg
1789.388	0.689	1	congruent	Block2	congruent/STIM_004.jpg
1793.071	0.814	1	congruent	Block2	congruent/STIM_004.jpg
1797.342	0.909	1	congruent	Block2	congruent/STIM_004.jpg
1800.434	0.837	1	congruent	Block2	congruent/STIM_005.jpg
1805.123	0.769	1	congruent	Block2	congruent/STIM_005.jpg
1808.747	0.784	1	congruent	Block2	congruent/STIM_005.jpg
1812.44	0.81	1	congruent	Block2	congruent/STIM_005.jpg
1817.205	0.815	1	congruent	Block2	congruent/STIM_005.jpg
1821.359	0.74	1	congruent	Block2	congruent/STIM_006.jpg
1826.044	0.715	1	congruent	Block2	congruent/STIM_006.jpg
1829.684	0.785	1	congruent	Block2	congruent/STIM_006.jpg
1833.924	0.696	1	congruent	Block2	congruent/STIM_006.jpg
1837.417	0.879	1	congruent	Block2	congruent/STIM_006.jpg
1841.788	0.781	1	congruent	Block2	congruent/STIM_007.jpg
1845.222	0.783	1	congruent	Block2	congruent/STIM_007.jpg
1848.736	0.779	1	congruent	Block2	congruent/STIM_007.jpg
1853.118	0.72	1	congruent	Block2	congruent/STIM_007.jpg
1857.763	0.848	0	congruent	Block2	congruent/STIM_007.jpg
1862.557	0.576	1	congruent	Block2	congruent/STIM_008.jpg
1866.788	0.609	1	congruent	Block2	congruent/STIM_008.jpg
1869.97	0.811	1	congruent	Block2	congruent/STIM_008.jpg
1873.043	0.628	0	congruent	Block2	congruent/STIM_008.jpg
1876.32	0.716	1	congruent	Block2	congruent/STIM_008.jpg
1879.039	0.879	1	congruent	Block2	congruent/STIM_009.jpg
1882.411	0.575	1	congruent	Block2	congruent/STIM_009.jpg
1885.182	0.943	1	congruent	Block2	congruent/STIM_009.jpg
1889.526	0.634	1	congruent	Block2	congruent/STIM_009.jpg
1892.346	0.763	1	congruent	Block2	congruent/STIM_009.jpg
1896.122	0.852	1	congruent	Block2	congruent/STIM_010.jpg
1900.133	0.718	1	congruent	Block2	congruent/STIM_010.jpg
1903.557	0.589	1	congruent	Block2	congruent/STIM_010.jpg
1906.702	0.811	1	congruent	Block2	congruent/STIM_010.jpg
1910.158	0.51	1	congruent	Block2	congruent/STIM_010.jpg
1912.843	0.836	1	congruent	Block2	congruent/STIM_011.jpg
1916.307	0.844	1	congruent	Block2	congruent/STIM_011.jpg
1919.468	0.834	1	congruent	Block2	congruent/STIM_011.jpg
1922.479	0.682	1	congruent	Block2	congruent/STIM_011.jpg
1926.179	0.763	1	congruent	Block2	congruent/STIM_011.jpg
1929.624	0.869	1	congruent	Block2	congruent/STIM_012.jpg
1932.65	0.648	1	congruent	Block2	congruent/STIM_012.jpg
1936.36	0.762	0	congruent	Block2	congruent/STIM_012.jpg
1940.166	0.922	1	congruent	Block2	congruent/STIM_012.jpg
1944.182	0.624	1	congruent	Block2	congruent/STIM_012.jpg
1946.955	0.803	1	congruent	Block2	congruent/STIM_013.jpg
1951.158	0.58	1	congruent	Block2	congruent/STIM_013.jpg
1954.9	0.538	1	congruent	Block2	congruent/STIM_013.jpg
1958.615	0.476	1	congruent	Block2	congruent/STIM_013.jpg
1961.823	0.892	1	congruent	Block2	congruent/STIM_013.jpg
1966.369	0.603	1	congruent	Block2	congruent/STIM_014.jpg
1969.624	0.778	1	congruent	Block2	congruent/STIM_014.jpg
1973.88	0.675	1	congruent	Block2	congruent/STIM_014.jpg
1976.693	0.711	1	congruent	Block2	congruent/STIM_014.jpg
1980.899	0.51	1	congruent	Block2	congruent/STIM_014.jpg
1984.527	0.718	1	congruent	Block2	congruent/STIM_015.jpg
1988.284	0.736	0	congruent	Block2	congruent/STIM_015.jpg
1991.752	0.597	1	congruent	Block2	congruent/STIM_015.jpg
1995.976	0.718	0	congruent	Block2	congruent/STIM_015.jpg
2000.093	0.715	1	congruent	Block2	congruent/STIM_015.jpg
2004.79	0.591	1	congruent	Block2	congruent/STIM_016.jpg
2009.259	0.605	1	congruent	Block2	congruent/STIM_016.jpg
2013.103	0.646	1	congruent	Block2	congruent/STIM_016.jpg
2017.142	0.59	1	congruent	Block2	congruent/STIM_016.jpg
2021.3	0.882	1	congruent	Block2	congruent/STIM_016.jpg
2024.685	0.661	1	congruent	Block2	congruent/STIM_017.jpg
2029.204	0.698	1	congruent	Block2	congruent/STIM_017.jpg
2033.664	0.803	0	congruent	Block2	congruent/STIM_017.jpg
2036.664	0.45	1	congruent	Block2	congruent/STIM_017.jpg
2040.295	0.915	1	congruent	Block2	congruent/STIM_017.jpg
2044.962	0.622	1	congruent	Block2	congruent/STIM_018.jpg
2048.553	0.827	1	congruent	Block2	congruent/STIM_018.jpg
2052.204	0.487	1	congruent	Block2	congruent/STIM_018.jpg
2056.244	0.804	1	congruent	Block2	congruent/STIM_018.jpg
2059.496	0.784	1	congruent	Block2	congruent/STIM_018.jpg
2062.291	0.579	1	congruent	Block2	congruent/STIM_019.jpg
2065.773	0.885	1	congruent	Block2	congruent/STIM_019.jpg
2069.906	0.879	1	congruent	Block2	congruent/STIM_019.jpg
2073.642	0.699	1	congruent	Block2	congruent/STIM_019.jpg
2077.841	0.852	1	congruent	Block2	congruent/STIM_019.jpg
2081.994	0.67	1	congruent	Block2	congruent/STIM_020.jpg
2086.365	0.622	1	congruent	Block2	congruent/STIM_020.jpg
2090.79	0.878	1	congruent	Block2	congruent/STIM_020.jpg
2094.722	0.816	1	congruent	Block2	congruent/STIM_020.jpg
2098.497	0.692	1	congruent	Block2	congruent/STIM_020.jpg
2102.555	0.747	1	congruent	Block2	congruent/STIM_021.jpg
2106.587	0.891	1	congruent	Block2	congruent/STIM_021.jpg
2111.321	0.52	1	congruent	Block2	congruent/STIM_021.jpg
2115.428	0.673	1	congruent	Block2	congruent/STIM_021.jpg
2118.858	0.579	0	congruent	Block2	congruent/STIM_021.jpg
2123.241	0.724	1	congruent	Block2	congruent/STIM_022.jpg
2126.904	0.747	1	congruent	Block2	congruent/STIM_022.jpg
2131.505	0.674	1	congruent	Block2	congruent/STIM_022.jpg
2134.695	0.558	1	congruent	Block2	congruent/STIM_022.jpg
2139.165	0.807	1	congruent	Block2	congruent/STIM_022.jpg
2143.806	0.825	1	congruent	Block2	congruent/STIM_023.jpg
2148.495	0.686	1	congruent	Block2	congruent/STIM_023.jpg
2151.767	0.798	1	congruent	Block2	congruent/STIM_023.jpg
2155.327	0.634	1	congruent	Block2	congruent/STIM_023.jpg
2158.785	0.747	1	congruent	Block2	congruent/STIM_023.jpg
2163.11	0.569	1	congruent	Block2	congruent/STIM_024.jpg
2165.857	0.933	1	congruent	Block2	congruent/STIM_024.jpg
2169.685	0.689	1	congruent	Block2	congruent/STIM_024.jpg
2173.11	0.504	1	congruent	Block2	congruent/STIM_024.jpg
2177.321	0.865	1	congruent	Block2	congruent/STIM_024.jpg
2181.758	0.748	1	congruent	Block2	congruent/STIM_025.jpg
2185.394	0.834	1	congruent	Block2	congruent/STIM_025.jpg
2188.879	0.766	1	congruent	Block2	congruent/STIM_025.jpg
2191.928	0.834	1	congruent	Block2	congruent/STIM_025.jpg
2195.047	0.476	1	congruent	Block2	congruent/STIM_025.jpg
2198.918	0.574	1	congruent	Block2	congruent/STIM_026.jpg
2202.532	0.7	1	congruent	Block2	congruent/STIM_026.jpg
2205.851	0.638	1	congruent	Block2	congruent/STIM_026.jpg
2208.786	0.842	1	congruent	Block2	congruent/STIM_026.jpg
2212.853	0.522	1	congruent	Block2	congruent/STIM_026.jpg
2216.459	0.866	1	congruent	Block2	congruent/STIM_027.jpg
2220.061	0.672	1	congruent	Block2	congruent/STIM_027.jpg
2223.762	0.612	1	congruent	Block2	congruent/STIM_027.jpg
2227.394	0.881	1	congruent	Block2	congruent/STIM_027.jpg
2231.174	0.637	1	congruent	Block2	congruent/STIM_027.jpg
2235.099	0.802	1	congruent	Block2	congruent/STIM_028.jpg
2238.83	0.712	1	congruent	Block2	congruent/STIM_028.jpg
2242.026	0.808	1	congruent	Block2	congruent/STIM_028.jpg
2246.111	0.868	1	congruent	Block2	congruent/STIM_028.jpg
2249.01	0.99	1	congruent	Block2	congruent/STIM_028.jpg
2252.949	0.777	1	congruent	Block2	congruent/STIM_029.jpg
2256.604	0.56	1	congruent	Block2	congruent/STIM_029.jpg
2259.929	0.978	1	congruent	Block2	congruent/STIM_029.jpg
2263.31	0.71	1	congruent	Block2	congruent/STIM_029.jpg
2267.014	0.948	1	congruent	Block2	congruent/STIM_029.jpg
2270.865	0.562	1	incongruent	Block3	incongruent/STIM_000.jpg
2274.754	0.588	1	incongruent	Block3	incongruent/STIM_000.jpg
2278.01	0.685	1	incongruent	Block3	incongruent/STIM_000.jpg
2281.951	0.727	1	incongruent	Block3	incongruent/STIM_000.jpg
2284.952	0.73	1	incongruent	Block3	incongruent/STIM_000.jpg
2288.101	0.959	1	incongruent	Block3	incongruent/STIM_001.jpg
2293.054	0.799	1	incongruent	Block3	incongruent/STIM_001.jpg
2297.026	0.664	1	incongruent	Block3	incongruent/STIM_001.jpg
2300.067	0.516	1	incongruent	Block3	incongruent/STIM_001.jpg
2303.11	0.49	1	incongruent	Block3	incongruent/STIM_001.jpg
2306.054	0.634	1	incongruent	Block3	incongruent/STIM_002.jpg
2309.795	0.711	1	incongruent	Block3	incongruent/STIM_002.jpg
2313.543	0.779	1	incongruent	Block3	incongruent/STIM_002.jpg
2317.23	1.089	1	incongruent	Block3	incongruent/STIM_002.jpg
2321.054	0.826	1	incongruent	Block3	incongruent/STIM_002.jpg
2325.802	0.53	1	incongruent	Block3	incongruent/STIM_003.jpg
2328.727	0.973	1	incongruent	Block3	incongruent/STIM_003.jpg
2333.656	0.618	1	incongruent	Block3	incongruent/STIM_003.jpg
2337.349	0.77	1	incongruent	Block3	incongruent/STIM_003.jpg
2340.261	0.847	1	incongruent	Block3	incongruent/STIM_003.jpg
2344.982	0.676	1	incongruent	Block3	incongruent/STIM_004.jpg
2349.197	0.574	1	incongruent	Block3	incongruent/STIM_004.jpg
2352.705	0.646	1	incongruent	Block3	incongruent/STIM_004.jpg
2356.761	0.542	1	incongruent	Block3	incongruent/STIM_004.jpg
2360.734	1.001	1	incongruent	Block3	incongruent/STIM_004.jpg
2364.049	0.849	1	incongruent	Block3	incongruent/STIM_005.jpg
2367.957	0.676	1	incongruent	Block3	incongruent/STIM_005.jpg
2371.61	0.664	1	incongruent	Block3	incongruent/STIM_005.jpg
2375.783	1.003	1	incongruent	Block3	incongruent/STIM_005.jpg
2380.594	0.663	0	incongruent	Block3	incongruent/STIM_005.jpg
2384.927	0.763	1	incongruent	Block3	incongruent/STIM_006.jpg
2389.551	0.814	1	incongruent	Block3	incongruent/STIM_006.jpg
2392.708	0.896	1	incongruent	Block3	incongruent/STIM_006.jpg
2397.353	0.888	1	incongruent	Block3	incongruent/STIM_006.jpg
2401.044	0.853	1	incongruent	Block3	incongruent/STIM_006.jpg
2405.134	0.719	1	incongruent	Block3	incongruent/STIM_007.jpg
2408.169	0.739	1	incongruent	Block3	incongruent/STIM_007.jpg
2411.552	0.709	1	incongruent	Block3	incongruent/STIM_007.jpg
2415.799	0.7	1	incongruent	Block3	incongruent/STIM_007.jpg
2420.009	0.594	1	incongruent	Block3	incongruent/STIM_007.jpg
2423.633	0.909	1	incongruent	Block3	incongruent/STIM_008.jpg
2427.457	1.023	1	incongruent	Block3	incongruent/STIM_008.jpg
2430.588	0.604	1	incongruent	Block3	incongruent/STIM_008.jpg
2433.211	0.809	1	incongruent	Block3	incongruent/STIM_008.jpg
2437.698	0.489	1	incongruent	Block3	incongruent/STIM_008.jpg
2440.897	0.813	1	incongruent	Block3	incongruent/STIM_009.jpg
2445.563	0.976	1	incongruent	Block3	incongruent/STIM_009.jpg
2450.05	0.64	1	incongruent	Block3	incongruent/STIM_009.jpg
2453.767	0.524	1	incongruent	Block3	incongruent/STIM_009.jpg
2456.295	0.696	1	incongruent	Block3	incongruent/STIM_009.jpg
2459.983	0.831	1	incongruent	Block3	incongruent/STIM_010.jpg
2463.515	0.857	1	incongruent	Block3	incongruent/STIM_010.jpg
2467.072	0.529	1	incongruent	Block3	incongruent/STIM_010.jpg
2470.888	0.831	1	incongruent	Block3	incongruent/STIM_010.jpg
2474.082	0.845	1	incongruent	Block3	incongruent/STIM_010.jpg
2477.656	0.706	1	incongruent	Block3	incongruent/STIM_011.jpg
2481.766	0.688	1	incongruent	Block3	incongruent/STIM_011.jpg
2484.995	0.628	1	incongruent	Block3	incongruent/STIM_011.jpg
2488.794	0.585	1	incongruent	Block3	incongruent/STIM_011.jpg
2491.649	0.697	1	incongruent	Block3	incongruent/STIM_011.jpg
2494.567	0.825	1	incongruent	Block3	incongruent/STIM_012.jpg
2497.534	0.628	1	incongruent	Block3	incongruent/STIM_012.jpg
2501.564	0.552	1	incongruent	Block3	incongruent/STIM_012.jpg
2505.858	0.643	1	incongruent	Block3	incongruent/STIM_012.jpg
2509.985	0.668	1	incongruent	Block3	incongruent/STIM_012.jpg
2514.157	0.53	1	incongruent	Block3	incongruent/STIM_013.jpg
2516.84	0.71	1	incongruent	Block3	incongruent/STIM_013.jpg
2519.934	0.858	1	incongruent	Block3	incongruent/STIM_013.jpg
2523.265	0.505	1	incongruent	Block3	incongruent/STIM_013.jpg
2527.242	0.601	1	incongruent	Block3	incongruent/STIM_013.jpg
2530.453	0.693	1	incongruent	Block3	incongruent/STIM_014.jpg
2534.238	0.475	1	incongruent	Block3	incongruent/STIM_014.jpg
2538.451	0.939	1	incongruent	Block3	incongruent/STIM_014.jpg
2542.659	0.737	1	incongruent	Block3	incongruent/STIM_014.jpg
2547.278	0.834	1	incongruent	Block3	incongruent/STIM_014.jpg
2551.913	0.961	1	incongruent	Block3	incongruent/STIM_015.jpg
2555.32	0.466	1	incongruent	Block3	incongruent/STIM_015.jpg
2558.093	0.744	1	incongruent	Block3	incongruent/STIM_015.jpg
2561.135	0.928	1	incongruent	Block3	incongruent/STIM_015.jpg
2565.323	0.464	1	incongruent	Block3	incongruent/STIM_015.jpg
2568.066	1.03	1	incongruent	Block3	incongruent/STIM_016.jpg
2573.043	0.798	1	incongruent	Block3	incongruent/STIM_016.jpg
2577.224	0.978	1	incongruent	Block3	incongruent/STIM_016.jpg
2580.713	0.547	1	incongruent	Block3	incongruent/STIM_016.jpg
2585.06	0.638	1	incongruent	Block3	incongruent/STIM_016.jpg
2588.367	0.73	1	incongruent	Block3	incongruent/STIM_017.jpg
2592.785	0.679	1	incongruent	Block3	incongruent/STIM_017.jpg
2596.182	0.822	1	incongruent	Block3	incongruent/STIM_017.jpg
2599.469	0.63	1	incongruent	Block3	incongruent/STIM_017.jpg
2602.987	0.999	1	incongruent	Block3	incongruent/STIM_017.jpg
2607.76	0.713	1	incongruent	Block3	incongruent/STIM_018.jpg
2610.693	0.666	1	incongruent	Block3	incongruent/STIM_018.jpg
2613.724	0.649	1	incongruent	Block3	incongruent/STIM_018.jpg
2616.699	0.706	1	incongruent	Block3	incongruent/STIM_018.jpg
2620.751	0.675	1	incongruent	Block3	incongruent/STIM_018.jpg
2624.521	0.603	1	incongruent	Block3	incongruent/STIM_019.jpg
2627.31	0.743	1	incongruent	Block3	incongruent/STIM_019.jpg
2631.818	0.874	1	incongruent	Block3	incongruent/STIM_019.jpg
2634.816	0.861	1	incongruent	Block3	incongruent/STIM_019.jpg
2637.697	0.968	1	incongruent	Block3	incongruent/STIM_019.jpg
2641.693	0.624	1	incongruent	Block3	incongruent/STIM_020.jpg
2645.383	0.908	1	incongruent	Block3	incongruent/STIM_020.jpg
2650.167	0.528	1	incongruent	Block3	incongruent/STIM_020.jpg
2653.666	0.867	1	incongruent	Block3	incongruent/STIM_020.jpg
2657.263	0.801	1	incongruent	Block3	incongruent/STIM_020.jpg
2660.743	0.698	1	incongruent	Block3	incongruent/STIM_021.jpg
2664.077	0.778	1	incongruent	Block3	incongruent/STIM_021.jpg
2668.539	1.122	1	incongruent	Block3	incongruent/STIM_021.jpg
2672.487	0.864	1	incongruent	Block3	incongruent/STIM_021.jpg
2675.37	0.628	1	incongruent	Block3	incongruent/STIM_021.jpg
2678.814	0.64	1	incongruent	Block3	incongruent/STIM_022.jpg
2682.363	0.52	1	incongruent	Block3	incongruent/STIM_022.jpg
2686.245	0.949	1	incongruent	Block3	incongruent/STIM_022.jpg
2689.483	0.448	1	incongruent	Block3	incongruent/STIM_022.jpg
2693.175	0.748	1	incongruent	Block3	incongruent/STIM_022.jpg
2697.833	0.836	1	incongruent	Block3	incongruent/STIM_023.jpg
2702.618	0.811	1	incongruent	Block3	incongruent/STIM_023.jpg
2707.072	0.826	1	incongruent	Block3	incongruent/STIM_023.jpg
2710.623	0.743	1	incongruent	Block3	incongruent/STIM_023.jpg
2715.077	0.614	1	incongruent	Block3	incongruent/STIM_023.jpg
2718.788	0.92	1	incongruent	Block3	incongruent/STIM_024.jpg
2721.793	0.952	1	incongruent	Block3	incongruent/STIM_024.jpg
2725.722	0.595	1	incongruent	Block3	incongruent/STIM_024.jpg
2728.632	1.095	1	incongruent	Block3	incongruent/STIM_024.jpg
2732.868	0.645	1	incongruent	Block3	incongruent/STIM_024.jpg
2737.316	0.72	1	incongruent	Block3	incongruent/STIM_025.jpg
2741.545	0.753	1	incongruent	Block3	incongruent/STIM_025.jpg
2745.385	0.533	1	incongruent	Block3	incongruent/STIM_025.jpg
2748.696	0.708	1	incongruent	Block3	incongruent/STIM_025.jpg
2752.035	0.493	1	incongruent	Block3	incongruent/STIM_025.jpg
2756.354	0.857	1	incongruent	Block3	incongruent/STIM_026.jpg
2759.554	0.907	1	incongruent	Block3	incongruent/STIM_026.jpg
2764.371	0.689	1	incongruent	Block3	incongruent/STIM_026.jpg
2767.171	0.488	1	incongruent	Block3	incongruent/STIM_026.jpg
2770.6	0.992	1	incongruent	Block3	incongruent/STIM_026.jpg
2774.301	0.753	1	incongruent	Block3	incongruent/STIM_027.jpg
2777.065	0.887	1	incongruent	Block3	incongruent/STIM_027.jpg
2781.371	0.911	1	incongruent	Block3	incongruent/STIM_027.jpg
2785.841	0.94	1	incongruent	Block3	incongruent/STIM_027.jpg
2789.787	0.642	1	incongruent	Block3	incongruent/STIM_027.jpg
2793.254	0.944	1	incongruent	Block3	incongruent/STIM_028.jpg
2796.933	0.852	1	incongruent	Block3	incongruent/STIM_028.jpg
2801.337	1.127	1	incongruent	Block3	incongruent/STIM_028.jpg
2805.936	0.408	1	incongruent	Block3	incongruent/STIM_028.jpg
2810.344	0.67	1	incongruent	Block3	incongruent/STIM_028.jpg
2814.01	0.478	1	incongruent	Block3	incongruent/STIM_029.jpg
2817.435	0.823	1	incongruent	Block3	incongruent/STIM_029.jpg
2821.643	0.928	1	incongruent	Block3	incongruent/STIM_029.jpg
2825.379	0.715	1	incongruent	Block3	incongruent/STIM_029.jpg
2829.489	0.817	1	incongruent	Block3	incongruent/STIM_029.jpg
2832.407	0.692	1	congruent	Block3	congruent/STIM_000.jpg
2836.276	0.63	1	congruent	Block3	congruent/STIM_000.jpg
2840.841	0.744	1	congruent	Block3	congruent/STIM_000.jpg
2844.896	0.539	1	congruent	Block3	congruent/STIM_000.jpg
2848.152	0.787	0	congruent	Block3	congruent/STIM_000.jpg
2851.081	0.748	1	congruent	Block3	congruent/STIM_001.jpg
2854.658	0.694	1	congruent	Block3	congruent/STIM_001.jpg
2858.871	0.542	1	congruent	Block3	congruent/STIM_001.jpg
2862.969	0.781	1	congruent	Block3	congruent/STIM_001.jpg
2866.775	0.836	1	congruent	Block3	congruent/STIM_001.jpg
2870.502	0.856	1	congruent	Block3	congruent/STIM_002.jpg
2874.786	0.725	1	congruent	Block3	congruent/STIM_002.jpg
2879.437	0.768	1	congruent	Block3	congruent/STIM_002.jpg
2883.659	0.541	1	congruent	Block3	congruent/STIM_002.jpg
2886.242	0.527	1	congruent	Block3	congruent/STIM_002.jpg
2890.371	0.85	1	congruent	Block3	congruent/STIM_003.jpg
2894.531	0.488	1	congruent	Block3	congruent/STIM_003.jpg
2897.209	0.51	1	congruent	Block3	congruent/STIM_003.jpg
2900.088	0.653	1	congruent	Block3	congruent/STIM_003.jpg
2903.646	0.762	1	congruent	Block3	congruent/STIM_003.jpg
2908.11	0.607	1	congruent	Block3	congruent/STIM_004.jpg
2912.491	0.644	1	congruent	Block3	congruent/STIM_004.jpg
2915.923	0.629	1	congruent	Block3	congruent/STIM_004.jpg
2918.52	0.579	1	congruent	Block3	congruent/STIM_004.jpg
2922.491	0.854	1	congruent	Block3	congruent/STIM_004.jpg
2926.904	0.805	1	congruent	Block3	congruent/STIM_005.jpg
2931.089	0.718	1	congruent	Block3	congruent/STIM_005.jpg
2933.992	0.544	1	congruent	Block3	congruent/STIM_005.jpg
2937.133	0.576	1	congruent	Block3	congruent/STIM_005.jpg
2941.582	0.588	1	congruent	Block3	congruent/STIM_005.jpg
2944.751	0.82	1	congruent	Block3	congruent/STIM_006.jpg
2948.037	0.569	1	congruent	Block3	congruent/STIM_006.jpg
2950.857	0.722	1	congruent	Block3	congruent/STIM_006.jpg
2954.104	0.799	1	congruent	Block3	congruent/STIM_006.jpg
2957.824	0.726	1	congruent	Block3	congruent/STIM_006.jpg
2960.783	0.604	1	congruent	Block3	congruent/STIM_007.jpg
2963.911	0.977	1	congruent	Block3	congruent/STIM_007.jpg
2967.638	0.882	1	congruent	Block3	congruent/STIM_007.jpg
2971.691	0.766	1	congruent	Block3	congruent/STIM_007.jpg
2976.107	0.595	1	congruent	Block3	congruent/STIM_007.jpg
2979.758	0.602	1	congruent	Block3	congruent/STIM_008.jpg
2984.015	0.635	1	congruent	Block3	congruent/STIM_008.jpg
2986.933	0.766	1	congruent	Block3	congruent/STIM_008.jpg
2991.026	0.51	1	congruent	Block3	congruent/STIM_008.jpg
2993.572	0.686	1	congruent	Block3	congruent/STIM_008.jpg
2996.888	0.452	1	congruent	Block3	congruent/STIM_009.jpg
3000.24	0.697	1	congruent	Block3	congruent/STIM_009.jpg
3003.004	0.781	1	congruent	Block3	congruent/STIM_009.jpg
3006.575	0.599	1	congruent	Block3	congruent/STIM_009.jpg
3010.478	0.521	1	congruent	Block3	congruent/STIM_009.jpg
3013.214	0.651	1	congruent	Block3	congruent/STIM_010.jpg
3016.95	0.709	1	congruent	Block3	congruent/STIM_010.jpg
3019.786	0.798	0	congruent	Block3	congruent/STIM_010.jpg
3022.935	0.546	1	congruent	Block3	congruent/STIM_010.jpg
3025.809	0.714	1	congruent	Block3	congruent/STIM_010.jpg
3028.546	0.752	1	congruent	Block3	congruent/STIM_011.jpg
3032.559	0.81	1	congruent	Block3	congruent/STIM_011.jpg
3037.027	0.564	1	congruent	Block3	congruent/STIM_011.jpg
3041.496	0.63	1	congruent	Block3	congruent/STIM_011.jpg
3045.781	0.754	1	congruent	Block3	congruent/STIM_011.jpg
3048.899	0.739	1	congruent	Block3	congruent/STIM_012.jpg
3053.427	0.847	1	congruent	Block3	congruent/STIM_012.jpg
3056.806	0.864	1	congruent	Block3	congruent/STIM_012.jpg
3060.022	0.807	1	congruent	Block3	congruent/STIM_012.jpg
3062.976	0.839	1	congruent	Block3	congruent/STIM_012.jpg
3066.49	0.852	0	congruent	Block3	congruent/STIM_013.jpg
3069.503	0.564	1	congruent	Block3	congruent/STIM_013.jpg
3073.916	0.701	1	congruent	Block3	congruent/STIM_013.jpg
3077.138	0.848	1	congruent	Block3	congruent/STIM_013.jpg
3080.078	0.804	1	congruent	Block3	congruent/STIM_013.jpg
3082.876	0.699	1	congruent	Block3	congruent/STIM_014.jpg
3086.875	1.004	1	congruent	Block3	congruent/STIM_014.jpg
3091.759	0.584	1	congruent	Block3	congruent/STIM_014.jpg
3096.032	0.878	1	congruent	Block3	congruent/STIM_014.jpg
3100.058	0.637	1	congruent	Block3	congruent/STIM_014.jpg
3103.195	0.896	1	congruent	Block3	congruent/STIM_015.jpg
3106.982	0.748	1	congruent	Block3	congruent/STIM_015.jpg
3110.92	0.656	1	congruent	Block3	congruent/STIM_015.jpg
3113.568	0.703	1	congruent	Block3	congruent/STIM_015.jpg
3117.236	0.805	1	congruent	Block3	congruent/STIM_015.jpg
3121.586	0.542	1	congruent	Block3	congruent/STIM_016.jpg
3125.489	0.554	1	congruent	Block3	congruent/STIM_016.jpg
3128.866	0.63	1	congruent	Block3	congruent/STIM_016.jpg
3132.67	0.861	1	congruent	Block3	congruent/STIM_016.jpg
3135.542	0.686	1	congruent	Block3	congruent/STIM_016.jpg
3139.257	0.583	1	congruent	Block3	congruent/STIM_017.jpg
3142.739	0.854	1	congruent	Block3	congruent/STIM_017.jpg
3146.006	0.547	1	congruent	Block3	congruent/STIM_017.jpg
3148.83	0.706	1	congruent	Block3	congruent/STIM_017.jpg
3152.85	0.778	1	congruent	Block3	congruent/STIM_017.jpg
3157.528	0.685	1	congruent	Block3	congruent/STIM_018.jpg
3162.253	0.69	1	congruent	Block3	congruent/STIM_018.jpg
3166.398	0.77	1	congruent	Block3	congruent/STIM_018.jpg
3170.392	0.723	1	congruent	Block3	congruent/STIM_018.jpg
3173.689	0.75	1	congruent	Block3	congruent/STIM_018.jpg
3177.274	0.747	1	congruent	Block3	congruent/STIM_019.jpg
3180.624	0.661	1	congruent	Block3	congruent/STIM_019.jpg
3184.433	0.606	0	congruent	Block3	congruent/STIM_019.jpg
3188.736	0.796	1	congruent	Block3	congruent/STIM_019.jpg
3193.107	0.67	1	congruent	Block3	congruent/STIM_019.jpg
3197.291	0.795	1	congruent	Block3	congruent/STIM_020.jpg
3201.796	0.764	1	congruent	Block3	congruent/STIM_020.jpg
3206.324	0.626	1	congruent	Block3	congruent/STIM_020.jpg
3209.786	0.404	1	congruent	Block3	congruent/STIM_020.jpg
3213.492	0.533	1	congruent	Block3	congruent/STIM_020.jpg
3216.306	0.667	1	congruent	Block3	congruent/STIM_021.jpg
3219.808	0.998	1	congruent	Block3	congruent/STIM_021.jpg
3223.391	0.721	1	congruent	Block3	congruent/STIM_021.jpg
3226.32	0.704	1	congruent	Block3	congruent/STIM_021.jpg
3229.09	0.501	1	congruent	Block3	congruent/STIM_021.jpg
3232.023	0.546	1	congruent	Block3	congruent/STIM_022.jpg
3235.963	0.694	1	congruent	Block3	congruent/STIM_022.jpg
3240.281	0.711	1	congruent	Block3	congruent/STIM_022.jpg
3244.636	0.611	1	congruent	Block3	congruent/STIM_022.jpg
3248.751	0.559	1	congruent	Block3	congruent/STIM_022.jpg
3251.405	0.778	0	congruent	Block3	congruent/STIM_023.jpg
3256.049	0.744	0	congruent	Block3	congruent/STIM_023.jpg
3259.847	0.723	1	congruent	Block3	congruent/STIM_023.jpg
3264.619	0.8	1	congruent	Block3	congruent/STIM_023.jpg
3269.23	0.715	1	congruent	Block3	congruent/STIM_023.jpg
3272.883	0.728	1	congruent	Block3	congruent/STIM_024.jpg
3277.455	0.832	1	congruent	Block3	congruent/STIM_024.jpg
3281.465	0.753	1	congruent	Block3	congruent/STIM_024.jpg
3285.883	0.848	0	congruent	Block3	congruent/STIM_024.jpg
3290.128	0.631	1	congruent	Block3	congruent/STIM_024.jpg
3293.036	0.725	1	congruent	Block3	congruent/STIM_025.jpg
3295.893	0.839	1	congruent	Block3	congruent/STIM_025.jpg
3300.28	0.609	1	congruent	Block3	congruent/STIM_025.jpg
3303.675	0.654	1	congruent	Block3	congruent/STIM_025.jpg
3307.516	0.683	1	congruent	Block3	congruent/STIM_025.jpg
3311.406	0.756	1	congruent	Block3	congruent/STIM_026.jpg
3314.794	0.77	0	congruent	Block3	congruent/STIM_026.jpg
3319.009	0.729	1	congruent	Block3	congruent/STIM_026.jpg
3321.938	0.561	1	congruent	Block3	congruent/STIM_026.jpg
3324.726	0.921	1	congruent	Block3	congruent/STIM_026.jpg
3328.155	0.609	1	congruent	Block3	congruent/STIM_027.jpg
3331.023	0.516	1	congruent	Block3	congruent/STIM_027.jpg
3333.989	0.554	1	congruent	Block3	congruent/STIM_027.jpg
3337.728	0.846	1	congruent	Block3	congruent/STIM_027.jpg
3341.738	0.832	1	congruent	Block3	congruent/STIM_027.jpg
3346.305	0.646	1	congruent	Block3	congruent/STIM_028.jpg
3349.563	0.597	1	congruent	Block3	congruent/STIM_028.jpg
3354.148	0.614	1	congruent	Block3	congruent/STIM_028.jpg
3358.38	0.72	1	congruent	Block3	congruent/STIM_028.jpg
3361.419	0.542	1	congruent	Block3	congruent/STIM_028.jpg
3364.309	0.787	1	congruent	Block3	congruent/STIM_029.jpg
3368.667	0.708	1	congruent	Block3	congruent/STIM_029.jpg
3371.988	0.801	1	congruent	Block3	congruent/STIM_029.jpg
3375.213	0.802	1	congruent	Block3	congruent/STIM_029.jpg
3378.521	0.891	1	congruent	Block3	congruent/STIM_029.jpg
