onset	duration	response_time_ms	trial_type	learning_stage	stimulus	response_port
0.0	0.936	936.3	2back	Block1	2back/STIM_000.jpg	100
4.623	0.96	960.2	2back	Block1	2back/STIM_000.jpg	99
8.2	0.826	825.8	2back	Block1	2back/STIM_000.jpg	100
12.878	0.755	755.1	2back	Block1	2back/STIM_001.jpg	99
15.686	0.462	461.9	2back	Block1	2back/STIM_001.jpg	99
20.044	0.701	700.6	2back	Block1	2back/STIM_001.jpg	99
23.036	0.478	477.6	2back	Block1	2back/STIM_002.jpg	99
26.016	0.451	450.6	2back	Block1	2back/STIM_002.jpg	99
30.291	0.928	927.5	2back	Block1	2back/STIM_002.jpg	99
35.175	0.572	572.2	2back	Block1	2back/STIM_003.jpg	100
38.925	0.868	867.8	2back	Block1	2back/STIM_003.jpg	100
43.078	0.829	828.6	2back	Block1	2back/STIM_003.jpg	99
46.001	0.94	939.5	2back	Block1	2back/STIM_004.jpg	100
49.591	0.802	802.2	2back	Block1	2back/STIM_004.jpg	99
53.018	0.965	965.0	2back	Block1	2back/STIM_004.jpg	99
57.709	0.596	596.5	2back	Block1	2back/STIM_005.jpg	99
60.862	0.863	863.1	2back	Block1	2back/STIM_005.jpg	100
63.867	0.542	541.9	2back	Block1	2back/STIM_005.jpg	100
67.126	1.049	1048.8	2back	Block1	2back/STIM_006.jpg	99
70.653	1.016	1015.7	2back	Block1	2back/STIM_006.jpg	100
75.645	0.515	515.2	2back	Block1	2back/STIM_006.jpg	99
79.335	0.74	740.3	2back	Block1	2back/STIM_007.jpg	100
83.249	0.955	954.7	2back	Block1	2back/STIM_007.jpg	100
88.024	0.579	578.8	2back	Block1	2back/STIM_007.jpg	100
91.695	1.028	1028.1	2back	Block1	2back/STIM_008.jpg	100
94.929	1.0	999.7	2back	Block1	2back/STIM_008.jpg	100
98.061	0.474	473.7	2back	Block1	2back/STIM_008.jpg	100
101.995	0.962	961.7	2back	Block1	2back/STIM_009.jpg	100
105.401	0.684	683.5	2back	Block1	2back/STIM_009.jpg	99
108.454	0.603	603.0	2back	Block1	2back/STIM_009.jpg	100
112.517	1.046	1046.4	2back	Block1	2back/STIM_010.jpg	100
115.816	0.757	756.9	2back	Block1	2back/STIM_010.jpg	100
119.985	0.796	795.6	2back	Block1	2back/STIM_010.jpg	100
123.079	0.535	534.9	2back	Block1	2back/STIM_011.jpg	99
127.438	0.86	859.7	2back	Block1	2back/STIM_011.jpg	99
131.075	0.86	859.8	2back	Block1	2back/STIM_011.jpg	100
134.157	0.902	901.8	2back	Block1	2back/STIM_012.jpg	99
137.638	0.45	449.5	2back	Block1	2back/STIM_012.jpg	99
140.581	0.967	966.7	2back	Block1	2back/STIM_012.jpg	99
143.679	0.78	780.0	2back	Block1	2back/STIM_013.jpg	100
146.746	1.006	1006.4	2back	Block1	2back/STIM_013.jpg	100
151.106	0.484	483.6	2back	Block1	2back/STIM_013.jpg	100
155.399	0.83	830.0	2back	Block1	2back/STIM_014.jpg	100
159.469	0.787	786.7	2back	Block1	2back/STIM_014.jpg	100
162.296	0.759	759.4	2back	Block1	2back/STIM_014.jpg	99
165.078	0.68	679.9	2back	Block1	2back/STIM_015.jpg	100
167.926	0.9	899.6	2back	Block1	2back/STIM_015.jpg	99
171.399	0.524	523.9	2back	Block1	2back/STIM_015.jpg	100
175.88	1.085	1085.0	2back	Block1	2back/STIM_016.jpg	99
180.882	0.534	534.5	2back	Block1	2back/STIM_016.jpg	99
184.384	0.49	490.0	2back	Block1	2back/STIM_016.jpg	99
188.772	0.882	881.7	2back	Block1	2back/STIM_017.jpg	99
191.972	0.955	955.1	2back	Block1	2back/STIM_017.jpg	99
196.116	0.538	537.6	2back	Block1	2back/STIM_017.jpg	100
200.619	0.549	548.8	2back	Block1	2back/STIM_018.jpg	100
204.938	0.513	513.3	2back	Block1	2back/STIM_018.jpg	99
208.097	0.675	675.4	2back	Block1	2back/STIM_018.jpg	99
212.296	0.706	706.5	2back	Block1	2back/STIM_019.jpg	99
215.203	0.722	721.7	2back	Block1	2back/STIM_019.jpg	100
219.568	0.777	777.2	2back	Block1	2back/STIM_019.jpg	100
223.014	0.668	668.3	2back	Block1	2back/STIM_020.jpg	100
226.332	0.826	826.5	2back	Block1	2back/STIM_020.jpg	100
230.873	0.868	867.8	2back	Block1	2back/STIM_020.jpg	99
235.236	0.634	634.2	2back	Block1	2back/STIM_021.jpg	100
237.991	0.536	535.8	2back	Block1	2back/STIM_021.jpg	100
241.579	0.595	594.6	2back	Block1	2back/STIM_021.jpg	100
245.472	0.911	911.3	2back	Block1	2back/STIM_022.jpg	99
249.35	0.834	833.8	2back	Block1	2back/STIM_022.jpg	99
252.823	0.524	524.4	2back	Block1	2back/STIM_022.jpg	100
256.708	0.796	795.6	2back	Block1	2back/STIM_023.jpg	100
260.124	0.552	552.5	2back	Block1	2back/STIM_023.jpg	99
264.365	0.615	614.8	2back	Block1	2back/STIM_023.jpg	99
268.882	0.564	563.7	2back	Block1	2back/STIM_024.jpg	99
272.926	0.483	482.9	2back	Block1	2back/STIM_024.jpg	99
275.709	0.698	698.2	2back	Block1	2back/STIM_024.jpg	100
280.165	0.627	627.4	2back	Block1	2back/STIM_025.jpg	100
284.425	0.734	733.8	2back	Block1	2back/STIM_025.jpg	100
288.161	0.575	575.4	2back	Block1	2back/STIM_025.jpg	100
290.829	1.03	1029.9	2back	Block1	2back/STIM_026.jpg	100
294.757	0.88	880.2	2back	Block1	2back/STIM_026.jpg	100
298.963	0.875	875.1	2back	Block1	2back/STIM_026.jpg	99
302.658	0.967	967.1	2back	Block1	2back/STIM_027.jpg	100
306.174	0.844	844.3	2back	Block1	2back/STIM_027.jpg	100
310.042	0.609	609.0	2back	Block1	2back/STIM_027.jpg	99
313.455	0.897	896.7	2back	Block1	2back/STIM_028.jpg	99
317.526	0.919	919.1	2back	Block1	2back/STIM_028.jpg	99
321.33	0.566	566.1	2back	Block1	2back/STIM_028.jpg	100
325.005	0.516	516.4	2back	Block1	2back/STIM_029.jpg	99
329.097	0.478	478.4	2back	Block1	2back/STIM_029.jpg	99
332.288	0.545	544.7	2back	Block1	2back/STIM_029.jpg	99
335.426	0.702	701.6	2back	Block1	2back/STIM_030.jpg	100
339.254	0.998	998.1	2back	Block1	2back/STIM_030.jpg	100
342.857	0.647	647.1	2back	Block1	2back/STIM_030.jpg	99
347.376	1.087	1086.8	2back	Block1	2back/STIM_031.jpg	100
351.89	0.648	648.0	2back	Block1	2back/STIM_031.jpg	100
354.625	0.644	644.3	2back	Block1	2back/STIM_031.jpg	99
357.276	0.996	995.7	2back	Block1	2back/STIM_032.jpg	99
361.78	0.556	555.8	2back	Block1	2back/STIM_032.jpg	100
366.198	0.434	433.7	2back	Block1	2back/STIM_032.jpg	99
369.372	1.054	1053.9	2back	Block1	2back/STIM_033.jpg	99
372.748	0.488	488.5	2back	Block1	2back/STIM_033.jpg	99
376.523	0.644	643.5	2back	Block1	2back/STIM_033.jpg	99
380.08	0.737	736.8	2back	Block1	2back/STIM_034.jpg	100
384.409	0.482	481.7	2back	Block1	2back/STIM_034.jpg	100
388.306	0.742	742.2	2back	Block1	2back/STIM_034.jpg	100
391.448	0.85	850.5	2back	Block1	2back/STIM_035.jpg	99
395.345	0.496	496.0	2back	Block1	2back/STIM_035.jpg	100
399.724	0.549	549.3	2back	Block1	2back/STIM_035.jpg	99
403.011	1.068	1068.2	2back	Block1	2back/STIM_036.jpg	100
407.437	0.648	648.1	2back	Block1	2back/STIM_036.jpg	100
410.392	0.548	548.1	2back	Block1	2back/STIM_036.jpg	100
412.983	0.807	807.2	2back	Block1	2back/STIM_037.jpg	100
417.371	0.585	585.4	2back	Block1	2back/STIM_037.jpg	99
420.358	0.907	907.1	2back	Block1	2back/STIM_037.jpg	99
423.291	0.872	872.1	2back	Block1	2back/STIM_038.jpg	100
426.305	0.992	991.6	2back	Block1	2back/STIM_038.jpg	100
430.83	0.893	893.3	2back	Block1	2back/STIM_038.jpg	99
434.872	0.561	560.7	2back	Block1	2back/STIM_039.jpg	100
437.674	0.599	598.9	2back	Block1	2back/STIM_039.jpg	99
441.672	0.597	596.7	2back	Block1	2back/STIM_039.jpg	100
444.921	0.494	494.3	0back	Block1	0back/STIM_000.jpg	100
447.777	0.467	466.7	0back	Block1	0back/STIM_000.jpg	100
451.476	0.513	512.9	0back	Block1	0back/STIM_000.jpg	100
455.431	0.518	518.1	0back	Block1	0back/STIM_001.jpg	99
459.164	0.383	382.7	0back	Block1	0back/STIM_001.jpg	100
462.485	0.352	351.6	0back	Block1	0back/STIM_001.jpg	100
466.043	0.559	559.4	0back	Block1	0back/STIM_002.jpg	99
470.166	0.327	327.1	0back	Block1	0back/STIM_002.jpg	100
473.566	0.426	426.2	0back	Block1	0back/STIM_002.jpg	99
476.896	0.519	519.0	0back	Block1	0back/STIM_003.jpg	100
479.932	0.553	553.1	0back	Block1	0back/STIM_003.jpg	99
483.132	0.401	400.7	0back	Block1	0back/STIM_003.jpg	99
487.246	0.575	574.8	0back	Block1	0back/STIM_004.jpg	99
490.264	0.567	567.0	0back	Block1	0back/STIM_004.jpg	100
493.927	0.526	525.6	0back	Block1	0back/STIM_004.jpg	99
497.609	0.487	487.1	0back	Block1	0back/STIM_005.jpg	99
501.103	0.408	408.4	0back	Block1	0back/STIM_005.jpg	100
505.237	0.594	594.5	0back	Block1	0back/STIM_005.jpg	99
509.435	0.522	522.0	0back	Block1	0back/STIM_006.jpg	100
513.571	0.361	360.7	0back	Block1	0back/STIM_006.jpg	100
517.425	0.552	551.5	0back	Block1	0back/STIM_006.jpg	99
521.315	0.619	618.7	0back	Block1	0back/STIM_007.jpg	100
523.953	0.443	442.9	0back	Block1	0back/STIM_007.jpg	99
527.589	0.536	536.2	0back	Block1	0back/STIM_007.jpg	100
531.717	0.32	319.8	0back	Block1	0back/STIM_008.jpg	100
534.928	0.434	434.4	0back	Block1	0back/STIM_008.jpg	99
537.776	0.468	467.6	0back	Block1	0back/STIM_008.jpg	99
540.734	0.324	324.1	0back	Block1	0back/STIM_009.jpg	100
543.88	0.504	504.5	0back	Block1	0back/STIM_009.jpg	100
547.295	0.51	509.9	0back	Block1	0back/STIM_009.jpg	99
550.39	0.536	536.5	0back	Block1	0back/STIM_010.jpg	100
554.054	0.567	567.3	0back	Block1	0back/STIM_010.jpg	99
557.202	0.422	421.6	0back	Block1	0back/STIM_010.jpg	100
559.833	0.528	528.4	0back	Block1	0back/STIM_011.jpg	100
562.929	0.42	420.2	0back	Block1	0back/STIM_011.jpg	99
565.51	0.619	618.9	0back	Block1	0back/STIM_011.jpg	100
569.956	0.442	442.4	0back	Block1	0back/STIM_012.jpg	100
573.065	0.612	612.1	0back	Block1	0back/STIM_012.jpg	100
577.53	0.626	625.8	0back	Block1	0back/STIM_012.jpg	100
581.404	0.502	501.7	0back	Block1	0back/STIM_013.jpg	100
585.127	0.571	571.4	0back	Block1	0back/STIM_013.jpg	100
588.982	0.576	575.7	0back	Block1	0back/STIM_013.jpg	100
593.064	0.512	512.3	0back	Block1	0back/STIM_014.jpg	99
596.06	0.448	448.5	0back	Block1	0back/STIM_014.jpg	99
600.026	0.448	447.6	0back	Block1	0back/STIM_014.jpg	99
603.292	0.61	610.5	0back	Block1	0back/STIM_015.jpg	99
607.075	0.484	483.8	0back	Block1	0back/STIM_015.jpg	100
610.732	0.404	403.9	0back	Block1	0back/STIM_015.jpg	100
614.808	0.407	407.2	0back	Block1	0back/STIM_016.jpg	99
618.808	0.621	620.9	0back	Block1	0back/STIM_016.jpg	100
622.035	0.43	430.5	0back	Block1	0back/STIM_016.jpg	99
626.007	0.377	376.9	0back	Block1	0back/STIM_017.jpg	100
629.981	0.354	354.1	0back	Block1	0back/STIM_017.jpg	100
632.861	0.454	454.5	0back	Block1	0back/STIM_017.jpg	99
636.165	0.487	487.2	0back	Block1	0back/STIM_018.jpg	100
639.393	0.465	465.4	0back	Block1	0back/STIM_018.jpg	100
643.565	0.545	544.8	0back	Block1	0back/STIM_018.jpg	99
646.121	0.416	416.1	0back	Block1	0back/STIM_019.jpg	100
649.433	0.602	602.5	0back	Block1	0back/STIM_019.jpg	99
653.234	0.541	540.6	0back	Block1	0back/STIM_019.jpg	100
657.277	0.694	694.4	2back	Block2	2back/STIM_000.jpg	100
660.25	0.489	488.7	2back	Block2	2back/STIM_000.jpg	99
663.968	0.483	482.7	2back	Block2	2back/STIM_000.jpg	100
667.413	0.45	450.0	2back	Block2	2back/STIM_001.jpg	99
670.758	0.524	523.9	2back	Block2	2back/STIM_001.jpg	99
674.602	0.762	762.0	2back	Block2	2back/STIM_001.jpg	99
677.642	0.86	860.1	2back	Block2	2back/STIM_002.jpg	100
681.779	0.541	541.4	2back	Block2	2back/STIM_002.jpg	100
685.872	0.414	413.5	2back	Block2	2back/STIM_002.jpg	99
689.742	0.54	540.0	2back	Block2	2back/STIM_003.jpg	99
693.937	0.557	557.0	2back	Block2	2back/STIM_003.jpg	99
697.612	0.718	717.8	2back	Block2	2back/STIM_003.jpg	99
702.081	0.441	440.8	2back	Block2	2back/STIM_004.jpg	100
705.027	0.552	551.7	2back	Block2	2back/STIM_004.jpg	99
707.585	0.804	804.1	2back	Block2	2back/STIM_004.jpg	99
710.739	0.928	928.3	2back	Block2	2back/STIM_005.jpg	99
715.379	0.448	447.5	2back	Block2	2back/STIM_005.jpg	99
718.567	0.372	372.1	2back	Block2	2back/STIM_005.jpg	99
722.193	0.489	489.3	2back	Block2	2back/STIM_006.jpg	100
726.489	0.79	790.1	2back	Block2	2back/STIM_006.jpg	100
729.28	0.809	809.1	2back	Block2	2back/STIM_006.jpg	99
734.067	0.664	664.0	2back	Block2	2back/STIM_007.jpg	99
738.03	0.416	416.0	2back	Block2	2back/STIM_007.jpg	100
740.591	0.466	466.5	2back	Block2	2back/STIM_007.jpg	100
744.939	0.499	498.7	2back	Block2	2back/STIM_008.jpg	100
747.774	0.84	839.9	2back	Block2	2back/STIM_008.jpg	100
751.101	0.822	822.5	2back	Block2	2back/STIM_008.jpg	100
755.738	0.613	612.6	2back	Block2	2back/STIM_009.jpg	100
759.753	0.75	750.0	2back	Block2	2back/STIM_009.jpg	100
764.304	0.55	550.4	2back	Block2	2back/STIM_009.jpg	99
766.864	0.684	683.5	2back	Block2	2back/STIM_010.jpg	100
769.668	0.513	513.3	2back	Block2	2back/STIM_010.jpg	99
772.963	0.674	674.0	2back	Block2	2back/STIM_010.jpg	99
776.201	0.532	532.4	2back	Block2	2back/STIM_011.jpg	100
779.548	0.757	756.9	2back	Block2	2back/STIM_011.jpg	100
783.134	0.774	773.6	2back	Block2	2back/STIM_011.jpg	99
786.183	0.693	693.1	2back	Block2	2back/STIM_012.jpg	99
789.31	0.785	784.7	2back	Block2	2back/STIM_012.jpg	100
792.106	0.644	643.5	2back	Block2	2back/STIM_012.jpg	100
795.263	0.907	906.6	2back	Block2	2back/STIM_013.jpg	100
800.006	0.87	870.1	2back	Block2	2back/STIM_013.jpg	100
802.931	0.593	592.7	2back	Block2	2back/STIM_013.jpg	100
807.142	0.781	780.9	2back	Block2	2back/STIM_014.jpg	100
810.512	0.391	391.2	2back	Block2	2back/STIM_014.jpg	100
813.77	0.565	565.3	2back	Block2	2back/STIM_014.jpg	99
817.029	0.432	431.9	2back	Block2	2back/STIM_015.jpg	100
819.911	0.45	450.2	2back	Block2	2back/STIM_015.jpg	100
823.451	0.562	562.5	2back	Block2	2back/STIM_015.jpg	99
827.142	0.534	533.8	2back	Block2	2back/STIM_016.jpg	100
831.262	0.865	865.0	2back	Block2	2back/STIM_016.jpg	100
835.437	0.638	637.8	2back	Block2	2back/STIM_016.jpg	99
838.373	0.573	573.2	2back	Block2	2back/STIM_017.jpg	99
841.04	0.691	691.3	2back	Block2	2back/STIM_017.jpg	100
844.626	0.66	660.0	2back	Block2	2back/STIM_017.jpg	100
848.835	0.553	553.1	2back	Block2	2back/STIM_018.jpg	100
851.392	0.84	839.7	2back	Block2	2back/STIM_018.jpg	100
854.948	0.354	353.7	2back	Block2	2back/STIM_018.jpg	100
857.655	0.894	894.5	2back	Block2	2back/STIM_019.jpg	100
861.953	0.583	583.3	2back	Block2	2back/STIM_019.jpg	99
865.96	0.662	662.3	2back	Block2	2back/STIM_019.jpg	99
870.256	0.484	484.2	2back	Block2	2back/STIM_020.jpg	100
873.178	0.424	423.9	2back	Block2	2back/STIM_020.jpg	100
875.736	0.556	556.0	2back	Block2	2back/STIM_020.jpg	100
879.946	0.877	876.8	2back	Block2	2back/STIM_021.jpg	100
884.6	0.481	480.8	2back	Block2	2back/STIM_021.jpg	99
887.678	0.718	718.3	2back	Block2	2back/STIM_021.jpg	99
890.643	0.903	902.9	2back	Block2	2back/STIM_022.jpg	100
894.704	0.433	433.4	2back	Block2	2back/STIM_022.jpg	99
898.402	0.514	513.7	2back	Block2	2back/STIM_022.jpg	99
901.187	0.532	532.4	2back	Block2	2back/STIM_023.jpg	99
905.608	0.525	525.3	2back	Block2	2back/STIM_023.jpg	100
908.353	0.474	474.2	2back	Block2	2back/STIM_023.jpg	99
911.252	0.463	463.2	2back	Block2	2back/STIM_024.jpg	99
914.411	0.693	693.0	2back	Block2	2back/STIM_024.jpg	99
918.424	0.377	376.6	2back	Block2	2back/STIM_024.jpg	100
921.916	0.666	665.8	2back	Block2	2back/STIM_025.jpg	100
925.687	0.686	686.2	2back	Block2	2back/STIM_025.jpg	99
930.227	0.586	585.9	2back	Block2	2back/STIM_025.jpg	99
933.057	0.775	774.9	2back	Block2	2back/STIM_026.jpg	100
936.688	0.524	524.0	2back	Block2	2back/STIM_026.jpg	100
940.851	0.585	584.7	2back	Block2	2back/STIM_026.jpg	100
945.099	0.678	677.9	2back	Block2	2back/STIM_027.jpg	100
948.053	0.618	618.2	2back	Block2	2back/STIM_027.jpg	99
951.623	0.521	520.8	2back	Block2	2back/STIM_027.jpg	99
955.516	0.543	542.6	2back	Block2	2back/STIM_028.jpg	99
959.548	0.865	864.8	2back	Block2	2back/STIM_028.jpg	99
964.068	0.746	746.5	2back	Block2	2back/STIM_028.jpg	100
968.105	0.895	895.0	2back	Block2	2back/STIM_029.jpg	100
971.365	0.839	839.1	2back	Block2	2back/STIM_029.jpg	100
976.086	0.568	568.5	2back	Block2	2back/STIM_029.jpg	100
980.038	0.499	499.1	2back	Block2	2back/STIM_030.jpg	100
983.829	0.542	541.9	2back	Block2	2back/STIM_030.jpg	100
987.018	0.802	802.0	2back	Block2	2back/STIM_030.jpg	99
989.927	0.902	901.6	2back	Block2	2back/STIM_031.jpg	100
993.453	0.478	478.2	2back	Block2	2back/STIM_031.jpg	99
996.45	0.655	654.8	2back	Block2	2back/STIM_031.jpg	99
999.384	0.785	785.0	2back	Block2	2back/STIM_032.jpg	100
1002.4	0.431	430.8	2back	Block2	2back/STIM_032.jpg	100
1006.709	0.72	720.4	2back	Block2	2back/STIM_032.jpg	99
1011.077	0.52	519.6	2back	Block2	2back/STIM_033.jpg	99
1014.676	0.69	690.1	2back	Block2	2back/STIM_033.jpg	100
1017.41	0.479	478.6	2back	Block2	2back/STIM_033.jpg	100
1020.707	0.761	761.1	2back	Block2	2back/STIM_034.jpg	99
1023.544	0.71	709.6	2back	Block2	2back/STIM_034.jpg	99
1027.817	0.522	521.9	2back	Block2	2back/STIM_034.jpg	99
1032.034	0.817	817.1	2back	Block2	2back/STIM_035.jpg	99
1035.089	0.677	676.8	2back	Block2	2back/STIM_035.jpg	99
1038.876	0.491	490.9	2back	Block2	2back/STIM_035.jpg	100
1042.957	0.797	796.8	2back	Block2	2back/STIM_036.jpg	100
1045.907	0.849	848.8	2back	Block2	2back/STIM_036.jpg	99
1049.936	0.49	490.1	2back	Block2	2back/STIM_036.jpg	100
1052.865	0.495	495.1	2back	Block2	2back/STIM_037.jpg	99
1056.468	0.797	796.7	2back	Block2	2back/STIM_037.jpg	100
1060.725	0.749	749.2	2back	Block2	2back/STIM_037.jpg	99
1064.776	0.798	798.3	2back	Block2	2back/STIM_038.jpg	99
1068.931	0.865	865.4	2back	Block2	2back/STIM_038.jpg	99
1072.963	0.584	584.5	2back	Block2	2back/STIM_038.jpg	99
1076.627	0.741	740.6	2back	Block2	2back/STIM_039.jpg	100
1080.963	0.864	863.9	2back	Block2	2back/STIM_039.jpg	100
1084.279	0.43	429.5	2back	Block2	2back/STIM_039.jpg	99
1086.795	0.443	442.7	0back	Block2	0back/STIM_000.jpg	100
1090.563	0.545	544.9	0back	Block2	0back/STIM_000.jpg	100
1095.105	0.505	505.0	0back	Block2	0back/STIM_000.jpg	100
1099.168	0.504	504.5	0back	Block2	0back/STIM_001.jpg	100
1102.487	0.552	551.6	0back	Block2	0back/STIM_001.jpg	99
1106.193	0.384	384.3	0back	Block2	0back/STIM_001.jpg	100
1108.939	0.606	606.2	0back	Block2	0back/STIM_002.jpg	100
1112.333	0.616	615.6	0back	Block2	0back/STIM_002.jpg	100
1115.579	0.366	365.7	0back	Block2	0back/STIM_002.jpg	100
1119.706	0.497	497.0	0back	Block2	0back/STIM_003.jpg	100
1123.174	0.496	496.4	0back	Block2	0back/STIM_003.jpg	100
1126.507	0.62	619.5	0back	Block2	0back/STIM_003.jpg	99
1130.1	0.532	531.7	0back	Block2	0back/STIM_004.jpg	99
1133.198	0.496	495.6	0back	Block2	0back/STIM_004.jpg	99
1137.547	0.454	453.5	0back	Block2	0back/STIM_004.jpg	99
1140.138	0.481	480.6	0back	Block2	0back/STIM_005.jpg	99
1143.612	0.436	436.0	0back	Block2	0back/STIM_005.jpg	99
1146.131	0.578	578.1	0back	Block2	0back/STIM_005.jpg	99
1148.74	0.431	431.3	0back	Block2	0back/STIM_006.jpg	99
1153.102	0.562	561.9	0back	Block2	0back/STIM_006.jpg	100
1156.187	0.399	399.2	0back	Block2	0back/STIM_006.jpg	99
1159.063	0.593	592.9	0back	Block2	0back/STIM_007.jpg	99
1162.865	0.534	533.6	0back	Block2	0back/STIM_007.jpg	99
1165.9	0.509	509.2	0back	Block2	0back/STIM_007.jpg	99
1170.011	0.56	560.3	0back	Block2	0back/STIM_008.jpg	100
1174.22	0.397	397.1	0back	Block2	0back/STIM_008.jpg	99
1178.276	0.472	471.9	0back	Block2	0back/STIM_008.jpg	100
1181.976	0.493	493.3	0back	Block2	0back/STIM_009.jpg	99
1185.483	0.349	348.9	0back	Block2	0back/STIM_009.jpg	100
1188.666	0.417	417.1	0back	Block2	0back/STIM_009.jpg	100
1191.805	0.432	432.2	0back	Block2	0back/STIM_010.jpg	99
1196.055	0.587	587.0	0back	Block2	0back/STIM_010.jpg	99
1198.975	0.436	436.1	0back	Block2	0back/STIM_010.jpg	99
1202.161	0.321	321.1	0back	Block2	0back/STIM_011.jpg	99
1206.265	0.592	591.6	0back	Block2	0back/STIM_011.jpg	99
1210.272	0.47	469.5	0back	Block2	0back/STIM_011.jpg	99
1212.744	0.625	625.2	0back	Block2	0back/STIM_012.jpg	99
1216.283	0.358	357.5	0back	Block2	0back/STIM_012.jpg	100
1220.276	0.397	397.3	0back	Block2	0back/STIM_012.jpg	99
1223.847	0.365	365.4	0back	Block2	0back/STIM_013.jpg	100
1226.369	0.517	517.0	0back	Block2	0back/STIM_013.jpg	99
1229.926	0.353	352.7	0back	Block2	0back/STIM_013.jpg	100
1233.864	0.471	470.7	0back	Block2	0back/STIM_014.jpg	99
1237.899	0.53	529.6	0back	Block2	0back/STIM_014.jpg	100
1241.59	0.478	477.6	0back	Block2	0back/STIM_014.jpg	100
1244.47	0.352	352.1	0back	Block2	0back/STIM_015.jpg	100
1248.539	0.496	495.9	0back	Block2	0back/STIM_015.jpg	100
1251.202	0.485	485.2	0back	Block2	0back/STIM_015.jpg	99
1255.571	0.573	572.7	0back	Block2	0back/STIM_016.jpg	100
1258.579	0.579	579.3	0back	Block2	0back/STIM_016.jpg	100
1262.703	0.493	492.8	0back	Block2	0back/STIM_016.jpg	99
1266.477	0.526	525.7	0back	Block2	0back/STIM_017.jpg	99
1270.461	0.415	415.3	0back	Block2	0back/STIM_017.jpg	99
1274.632	0.525	525.4	0back	Block2	0back/STIM_017.jpg	99
1278.242	0.44	440.2	0back	Block2	0back/STIM_018.jpg	99
1281.434	0.624	624.5	0back	Block2	0back/STIM_018.jpg	100
1284.584	0.435	435.1	0back	Block2	0back/STIM_018.jpg	99
1287.728	0.422	421.5	0back	Block2	0back/STIM_019.jpg	100
1290.817	0.497	497.1	0back	Block2	0back/STIM_019.jpg	99
1293.699	0.367	366.7	0back	Block2	0back/STIM_019.jpg	100
1297.31	0.525	525.1	2back	Block3	2back/STIM_000.jpg	99
1300.196	0.538	537.8	2back	Block3	2back/STIM_000.jpg	99
1302.852	0.691	690.6	2back	Block3	2back/STIM_000.jpg	100
1306.81	0.732	732.4	2back	Block3	2back/STIM_001.jpg	100
1311.323	0.678	678.2	2back	Block3	2back/STIM_001.jpg	99
1314.744	0.71	709.7	2back	Block3	2back/STIM_001.jpg	99
1317.992	0.721	720.7	2back	Block3	2back/STIM_002.jpg	100
1321.746	0.336	336.5	2back	Block3	2back/STIM_002.jpg	100
1325.863	0.571	570.6	2back	Block3	2back/STIM_002.jpg	99
1329.818	0.582	582.0	2back	Block3	2back/STIM_003.jpg	100
1333.78	0.646	645.8	2back	Block3	2back/STIM_003.jpg	100
1338.172	0.614	614.5	2back	Block3	2back/STIM_003.jpg	100
1342.465	0.747	747.0	2back	Block3	2back/STIM_004.jpg	99
1345.992	0.691	690.8	2back	Block3	2back/STIM_004.jpg	99
1349.123	0.331	330.7	2back	Block3	2back/STIM_004.jpg	100
1351.676	0.578	577.5	2back	Block3	2back/STIM_005.jpg	100
1355.978	0.441	441.4	2back	Block3	2back/STIM_005.jpg	99
1359.386	0.426	425.8	2back	Block3	2back/STIM_005.jpg	99
1361.897	0.759	758.8	2back	Block3	2back/STIM_006.jpg	99
1364.945	0.744	743.5	2back	Block3	2back/STIM_006.jpg	100
1369.106	0.552	551.7	2back	Block3	2back/STIM_006.jpg	100
1371.969	0.414	413.5	2back	Block3	2back/STIM_007.jpg	99
1375.187	0.632	632.5	2back	Block3	2back/STIM_007.jpg	99
1378.169	0.366	366.0	2back	Block3	2back/STIM_007.jpg	100
1381.062	0.468	467.8	2back	Block3	2back/STIM_008.jpg	99
1384.311	0.763	763.3	2back	Block3	2back/STIM_008.jpg	100
1388.794	0.383	383.1	2back	Block3	2back/STIM_008.jpg	99
1392.323	0.62	620.0	2back	Block3	2back/STIM_009.jpg	99
1396.912	0.446	445.9	2back	Block3	2back/STIM_009.jpg	99
1400.598	0.364	363.5	2back	Block3	2back/STIM_009.jpg	99
1403.174	0.401	400.7	2back	Block3	2back/STIM_010.jpg	99
1406.455	0.446	445.7	2back	Block3	2back/STIM_010.jpg	99
1409.926	0.582	581.7	2back	Block3	2back/STIM_010.jpg	100
1413.919	0.548	548.3	2back	Block3	2back/STIM_011.jpg	99
1417.033	0.369	368.9	2back	Block3	2back/STIM_011.jpg	99
1419.616	0.44	440.5	2back	Block3	2back/STIM_011.jpg	99
1424.05	0.761	760.8	2back	Block3	2back/STIM_012.jpg	100
1427.557	0.586	585.8	2back	Block3	2back/STIM_012.jpg	99
1430.936	0.436	435.9	2back	Block3	2back/STIM_012.jpg	100
1434.691	0.738	738.2	2back	Block3	2back/STIM_013.jpg	100
1438.007	0.642	641.6	2back	Block3	2back/STIM_013.jpg	100
1441.979	0.573	573.0	2back	Block3	2back/STIM_013.jpg	99
1445.283	0.591	590.6	2back	Block3	2back/STIM_014.jpg	99
1448.78	0.417	416.8	2back	Block3	2back/STIM_014.jpg	100
1452.331	0.733	732.7	2back	Block3	2back/STIM_014.jpg	100
1455.537	0.657	657.4	2back	Block3	2back/STIM_015.jpg	100
1458.822	0.76	760.0	2back	Block3	2back/STIM_015.jpg	99
1461.942	0.5	500.4	2back	Block3	2back/STIM_015.jpg	100
1464.63	0.625	624.6	2back	Block3	2back/STIM_016.jpg	100
1467.428	0.389	388.9	2back	Block3	2back/STIM_016.jpg	99
1471.398	0.377	377.3	2back	Block3	2back/STIM_016.jpg	99
1475.104	0.743	743.3	2back	Block3	2back/STIM_017.jpg	100
1478.821	0.41	410.2	2back	Block3	2back/STIM_017.jpg	100
1482.582	0.569	569.4	2back	Block3	2back/STIM_017.jpg	99
1485.206	0.568	567.7	2back	Block3	2back/STIM_018.jpg	100
1489.49	0.427	427.4	2back	Block3	2back/STIM_018.jpg	100
1493.871	0.731	731.4	2back	Block3	2back/STIM_018.jpg	100
1498.546	0.37	370.1	2back	Block3	2back/STIM_019.jpg	100
1501.44	0.675	675.0	2back	Block3	2back/STIM_019.jpg	100
1505.81	0.42	420.5	2back	Block3	2back/STIM_019.jpg	99
1509.771	0.764	763.7	2back	Block3	2back/STIM_020.jpg	100
1512.836	0.732	732.1	2back	Block3	2back/STIM_020.jpg	99
1515.58	0.437	437.0	2back	Block3	2back/STIM_020.jpg	100
1518.851	0.395	394.8	2back	Block3	2back/STIM_021.jpg	99
1522.867	0.414	413.9	2back	Block3	2back/STIM_021.jpg	99
1526.27	0.545	545.3	2back	Block3	2back/STIM_021.jpg	99
1530.707	0.334	334.3	2back	Block3	2back/STIM_022.jpg	99
1533.573	0.405	405.1	2back	Block3	2back/STIM_022.jpg	99
1537.541	0.425	424.7	2back	Block3	2back/STIM_022.jpg	100
1540.289	0.612	612.1	2back	Block3	2back/STIM_023.jpg	99
1544.168	0.674	674.0	2back	Block3	2back/STIM_023.jpg	99
1548.118	0.693	693.4	2back	Block3	2back/STIM_023.jpg	100
1552.37	0.673	673.0	2back	Block3	2back/STIM_024.jpg	100
1556.602	0.651	650.6	2back	Block3	2back/STIM_024.jpg	99
1561.074	0.479	478.7	2back	Block3	2back/STIM_024.jpg	100
1564.503	0.455	455.4	2back	Block3	2back/STIM_025.jpg	99
1568.927	0.432	431.9	2back	Block3	2back/STIM_025.jpg	99
1572.17	0.573	572.9	2back	Block3	2back/STIM_025.jpg	100
1575.044	0.742	742.1	2back	Block3	2back/STIM_026.jpg	99
1578.704	0.702	701.5	2back	Block3	2back/STIM_026.jpg	100
1583.24	0.454	454.3	2back	Block3	2back/STIM_026.jpg	99
1586.503	0.553	552.7	2back	Block3	2back/STIM_027.jpg	100
1590.075	0.546	545.6	2back	Block3	2back/STIM_027.jpg	100
1592.943	0.446	445.5	2back	Block3	2back/STIM_027.jpg	100
1595.826	0.41	410.4	2back	Block3	2back/STIM_028.jpg	99
1598.518	0.553	552.6	2back	Block3	2back/STIM_028.jpg	100
1602.282	0.686	686.1	2back	Block3	2back/STIM_028.jpg	99
1606.449	0.695	694.9	2back	Block3	2back/STIM_029.jpg	100
1609.992	0.424	423.5	2back	Block3	2back/STIM_029.jpg	100
1614.398	0.615	614.9	2back	Block3	2back/STIM_029.jpg	99
1617.495	0.602	601.5	2back	Block3	2back/STIM_030.jpg	99
1620.266	0.744	744.5	2back	Block3	2back/STIM_030.jpg	99
1624.923	0.567	567.4	2back	Block3	2back/STIM_030.jpg	99
1628.505	0.743	742.7	2back	Block3	2back/STIM_031.jpg	100
1632.676	0.359	358.8	2back	Block3	2back/STIM_031.jpg	100
1635.351	0.424	423.8	2back	Block3	2back/STIM_031.jpg	100
1639.64	0.418	417.6	2back	Block3	2back/STIM_032.jpg	100
1643.91	0.561	561.2	2back	Block3	2back/STIM_032.jpg	100
1647.401	0.594	594.2	2back	Block3	2back/STIM_032.jpg	100
1650.722	0.643	643.2	2back	Block3	2back/STIM_033.jpg	99
1653.455	0.466	465.8	2back	Block3	2back/STIM_033.jpg	100
1657.776	0.466	466.0	2back	Block3	2back/STIM_033.jpg	99
1660.267	0.493	493.3	2back	Block3	2back/STIM_034.jpg	99
1664.414	0.692	691.6	2back	Block3	2back/STIM_034.jpg	99
1668.903	0.662	662.4	2back	Block3	2back/STIM_034.jpg	99
1672.199	0.517	517.0	2back	Block3	2back/STIM_035.jpg	99
1674.906	0.723	723.2	2back	Block3	2back/STIM_035.jpg	99
1678.842	0.717	716.7	2back	Block3	2back/STIM_035.jpg	99
1682.269	0.591	591.0	2back	Block3	2back/STIM_036.jpg	100
1685.004	0.634	633.7	2back	Block3	2back/STIM_036.jpg	99
1688.798	0.762	762.5	2back	Block3	2back/STIM_036.jpg	100
1693.522	0.438	437.7	2back	Block3	2back/STIM_037.jpg	99
1697.809	0.448	448.2	2back	Block3	2back/STIM_037.jpg	100
1700.449	0.549	548.8	2back	Block3	2back/STIM_037.jpg	100
1704.161	0.481	481.4	2back	Block3	2back/STIM_038.jpg	99
1707.795	0.611	611.1	2back	Block3	2back/STIM_038.jpg	99
1711.198	0.476	475.5	2back	Block3	2back/STIM_038.jpg	99
1715.06	0.386	386.3	2back	Block3	2back/STIM_039.jpg	100
1719.372	0.701	701.0	2back	Block3	2back/STIM_039.jpg	100
1723.467	0.697	696.8	2back	Block3	2back/STIM_039.jpg	99
1726.96	0.498	497.8	0back	Block3	0back/STIM_000.jpg	100
1729.6	0.623	622.6	0back	Block3	0back/STIM_000.jpg	100
1734.195	0.622	622.3	0back	Block3	0back/STIM_000.jpg	99
1738.615	0.454	454.4	0back	Block3	0back/STIM_001.jpg	99
1741.463	0.449	449.1	0back	Block3	0back/STIM_001.jpg	100
1744.755	0.419	418.8	0back	Block3	0back/STIM_001.jpg	99
1747.956	0.622	622.4	0back	Block3	0back/STIM_002.jpg	100
1750.784	0.571	571.4	0back	Block3	0back/STIM_002.jpg	100
1753.732	0.399	399.4	0back	Block3	0back/STIM_002.jpg	99
1756.213	0.504	503.8	0back	Block3	0back/STIM_003.jpg	99
1758.846	0.438	437.6	0back	Block3	0back/STIM_003.jpg	99
1761.885	0.354	354.5	0back	Block3	0back/STIM_003.jpg	99
1764.255	0.419	419.3	0back	Block3	0back/STIM_004.jpg	99
1767.723	0.533	533.1	0back	Block3	0back/STIM_004.jpg	99
1772.182	0.57	570.5	0back	Block3	0back/STIM_004.jpg	100
1774.914	0.44	440.0	0back	Block3	0back/STIM_005.jpg	100
1778.812	0.337	336.6	0back	Block3	0back/STIM_005.jpg	99
1782.196	0.619	619.0	0back	Block3	0back/STIM_005.jpg	100
1786.56	0.459	458.8	0back	Block3	0back/STIM_006.jpg	100
1789.5	0.609	609.2	0back	Block3	0back/STIM_006.jpg	99
1792.686	0.595	595.0	0back	Block3	0back/STIM_006.jpg	100
1796.569	0.497	496.9	0back	Block3	0back/STIM_007.jpg	99
1800.678	0.456	456.2	0back	Block3	0back/STIM_007.jpg	100
1803.154	0.534	533.7	0back	Block3	0back/STIM_007.jpg	100
1807.652	0.415	414.9	0back	Block3	0back/STIM_008.jpg	100
1810.405	0.392	392.0	0back	Block3	0back/STIM_008.jpg	100
1813.157	0.39	390.0	0back	Block3	0back/STIM_008.jpg	100
1816.304	0.62	620.3	0back	Block3	0back/STIM_009.jpg	100
1820.53	0.579	578.9	0back	Block3	0back/STIM_009.jpg	100
1824.248	0.487	486.9	0back	Block3	0back/STIM_009.jpg	99
1827.12	0.606	606.4	0back	Block3	0back/STIM_010.jpg	99
1829.971	0.6	599.6	0back	Block3	0back/STIM_010.jpg	100
1833.727	0.542	542.1	0back	Block3	0back/STIM_010.jpg	99
1837.018	0.394	394.5	0back	Block3	0back/STIM_011.jpg	100
1839.899	0.592	592.3	0back	Block3	0back/STIM_011.jpg	100
1842.885	0.416	416.5	0back	Block3	0back/STIM_011.jpg	99
1846.79	0.366	366.1	0back	Block3	0back/STIM_012.jpg	100
1850.425	0.618	618.5	0back	Block3	0back/STIM_012.jpg	100
1854.588	0.55	550.1	0back	Block3	0back/STIM_012.jpg	99
1858.799	0.55	549.7	0back	Block3	0back/STIM_013.jpg	100
1862.106	0.373	373.4	0back	Block3	0back/STIM_013.jpg	100
1865.335	0.447	446.8	0back	Block3	0back/STIM_013.jpg	99
1868.255	0.354	353.9	0back	Block3	0back/STIM_014.jpg	100
1871.28	0.618	617.8	0back	Block3	0back/STIM_014.jpg	100
1873.942	0.559	558.7	0back	Block3	0back/STIM_014.jpg	99
1877.993	0.584	583.7	0back	Block3	0back/STIM_015.jpg	99
1881.8	0.513	513.0	0back	Block3	0back/STIM_015.jpg	99
1886.225	0.553	553.0	0back	Block3	0back/STIM_015.jpg	99
1890.559	0.364	364.2	0back	Block3	0back/STIM_016.jpg	99
1893.035	0.338	337.9	0back	Block3	0back/STIM_016.jpg	100
1896.608	0.522	521.6	0back	Block3	0back/STIM_016.jpg	99
1900.998	0.341	341.4	0back	Block3	0back/STIM_017.jpg	99
1903.734	0.399	398.9	0back	Block3	0back/STIM_017.jpg	100
1907.917	0.459	459.3	0back	Block3	0back/STIM_017.jpg	100
1911.947	0.339	339.2	0back	Block3	0back/STIM_018.jpg	100
1914.632	0.596	595.9	0back	Block3	0back/STIM_018.jpg	99
1917.801	0.407	407.1	0back	Block3	0back/STIM_018.jpg	100
1921.59	0.423	422.7	0back	Block3	0back/STIM_019.jpg	100
1925.061	0.431	430.7	0back	Block3	0back/STIM_019.jpg	99
1927.963	0.425	424.8	0back	Block3	0back/STIM_019.jpg	99
1931.915	0.507	506.9	2back	Block4	2back/STIM_000.jpg	99
1935.276	0.47	469.8	2back	Block4	2back/STIM_000.jpg	99
1937.806	0.732	731.9	2back	Block4	2back/STIM_000.jpg	99
1940.57	0.7	699.5	2back	Block4	2back/STIM_001.jpg	100
1943.336	0.399	399.3	2back	Block4	2back/STIM_001.jpg	99
1947.546	0.397	396.6	2back	Block4	2back/STIM_001.jpg	99
1951.826	0.669	669.0	2back	Block4	2back/STIM_002.jpg	99
1956.228	0.604	604.5	2back	Block4	2back/STIM_002.jpg	100
1958.987	0.385	385.1	2back	Block4	2back/STIM_002.jpg	100
1961.948	0.549	549.1	2back	Block4	2back/STIM_003.jpg	99
1965.575	0.533	532.7	2back	Block4	2back/STIM_003.jpg	99
1969.131	0.526	525.7	2back	Block4	2back/STIM_003.jpg	99
1972.526	0.387	386.7	2back	Block4	2back/STIM_004.jpg	99
1975.573	0.46	459.7	2back	Block4	2back/STIM_004.jpg	100
1979.192	0.476	476.1	2back	Block4	2back/STIM_004.jpg	100
1982.902	0.412	412.2	2back	Block4	2back/STIM_005.jpg	100
1985.494	0.355	355.2	2back	Block4	2back/STIM_005.jpg	100
1989.067	0.75	749.9	2back	Block4	2back/STIM_005.jpg	99
1993.075	0.679	678.8	2back	Block4	2back/STIM_006.jpg	100
1996.556	0.409	409.3	2back	Block4	2back/STIM_006.jpg	100
1999.403	0.507	506.9	2back	Block4	2back/STIM_006.jpg	99
2002.884	0.373	373.0	2back	Block4	2back/STIM_007.jpg	99
2006.058	0.412	412.0	2back	Block4	2back/STIM_007.jpg	100
2009.944	0.761	760.6	2back	Block4	2back/STIM_007.jpg	99
2014.384	0.491	491.3	2back	Block4	2back/STIM_008.jpg	100
2018.72	0.556	556.1	2back	Block4	2back/STIM_008.jpg	99
2022.656	0.414	414.4	2back	Block4	2back/STIM_008.jpg	99
2026.35	0.543	543.0	2back	Block4	2back/STIM_009.jpg	99
2029.859	0.572	572.1	2back	Block4	2back/STIM_009.jpg	99
2033.207	0.477	476.7	2back	Block4	2back/STIM_009.jpg	99
2037.567	0.752	751.7	2back	Block4	2back/STIM_010.jpg	99
2041.122	0.745	745.0	2back	Block4	2back/STIM_010.jpg	100
2044.114	0.696	696.4	2back	Block4	2back/STIM_010.jpg	99
2047.7	0.588	588.1	2back	Block4	2back/STIM_011.jpg	100
2050.844	0.675	674.6	2back	Block4	2back/STIM_011.jpg	100
2053.802	0.401	401.3	2back	Block4	2back/STIM_011.jpg	99
2057.594	0.67	669.7	2back	Block4	2back/STIM_012.jpg	100
2061.143	0.342	341.6	2back	Block4	2back/STIM_012.jpg	100
2064.307	0.488	487.5	2back	Block4	2back/STIM_012.jpg	99
2067.676	0.608	608.1	2back	Block4	2back/STIM_013.jpg	100
2070.392	0.68	679.5	2back	Block4	2back/STIM_013.jpg	100
2073.74	0.716	715.6	2back	Block4	2back/STIM_013.jpg	99
2077.352	0.38	380.1	2back	Block4	2back/STIM_014.jpg	99
2081.723	0.692	691.6	2back	Block4	2back/STIM_014.jpg	100
2085.869	0.608	607.5	2back	Block4	2back/STIM_014.jpg	99
2089.432	0.644	644.5	2back	Block4	2back/STIM_015.jpg	100
2093.016	0.738	738.4	2back	Block4	2back/STIM_015.jpg	100
2097.237	0.502	502.0	2back	Block4	2back/STIM_015.jpg	100
2101.498	0.744	743.9	2back	Block4	2back/STIM_016.jpg	100
2104.383	0.501	501.4	2back	Block4	2back/STIM_016.jpg	99
2108.474	0.502	501.8	2back	Block4	2back/STIM_016.jpg	100
2112.736	0.59	589.5	2back	Block4	2back/STIM_017.jpg	100
2116.031	0.417	416.9	2back	Block4	2back/STIM_017.jpg	100
2119.297	0.518	518.0	2back	Block4	2back/STIM_017.jpg	100
2122.107	0.616	616.5	2back	Block4	2back/STIM_018.jpg	100
2124.768	0.43	429.9	2back	Block4	2back/STIM_018.jpg	100
2128.073	0.508	507.8	2back	Block4	2back/STIM_018.jpg	100
2132.067	0.692	692.4	2back	Block4	2back/STIM_019.jpg	99
2135.375	0.582	582.5	2back	Block4	2back/STIM_019.jpg	99
2138.823	0.723	723.3	2back	Block4	2back/STIM_019.jpg	100
2142.328	0.602	601.9	2back	Block4	2back/STIM_020.jpg	100
2145.112	0.556	556.5	2back	Block4	2back/STIM_020.jpg	99
2148.312	0.551	551.0	2back	Block4	2back/STIM_020.jpg	99
2151.119	0.412	411.5	2back	Block4	2back/STIM_021.jpg	99
2154.269	0.742	741.9	2back	Block4	2back/STIM_021.jpg	100
2158.939	0.75	749.8	2back	Block4	2back/STIM_021.jpg	99
2163.157	0.576	575.7	2back	Block4	2back/STIM_022.jpg	100
2167.643	0.368	367.5	2back	Block4	2back/STIM_022.jpg	100
2170.261	0.482	482.5	2back	Block4	2back/STIM_022.jpg	100
2174.189	0.729	729.2	2back	Block4	2back/STIM_023.jpg	100
2177.419	0.453	452.7	2back	Block4	2back/STIM_023.jpg	99
2180.537	0.561	561.3	2back	Block4	2back/STIM_023.jpg	99
2183.216	0.625	625.1	2back	Block4	2back/STIM_024.jpg	100
2187.171	0.753	752.6	2back	Block4	2back/STIM_024.jpg	100
2191.781	0.504	503.7	2back	Block4	2back/STIM_024.jpg	100
2195.994	0.386	385.7	2back	Block4	2back/STIM_025.jpg	99
2199.232	0.759	759.0	2back	Block4	2back/STIM_025.jpg	100
2202.898	0.412	412.2	2back	Block4	2back/STIM_025.jpg	99
2205.947	0.609	608.7	2back	Block4	2back/STIM_026.jpg	99
2209.515	0.473	472.9	2back	Block4	2back/STIM_026.jpg	99
2213.35	0.512	512.4	2back	Block4	2back/STIM_026.jpg	99
2215.938	0.462	462.0	2back	Block4	2back/STIM_027.jpg	100
2218.779	0.579	578.9	2back	Block4	2back/STIM_027.jpg	100
2222.299	0.48	479.5	2back	Block4	2back/STIM_027.jpg	100
2226.509	0.603	603.0	2back	Block4	2back/STIM_028.jpg	100
2229.789	0.483	483.2	2back	Block4	2back/STIM_028.jpg	99
2232.548	0.579	579.0	2back	Block4	2back/STIM_028.jpg	100
2236.706	0.454	453.9	2back	Block4	2back/STIM_029.jpg	99
2240.647	0.768	767.6	2back	Block4	2back/STIM_029.jpg	100
2244.65	0.761	760.7	2back	Block4	2back/STIM_029.jpg	99
2248.038	0.665	664.8	2back	Block4	2back/STIM_030.jpg	100
2251.489	0.582	581.9	2back	Block4	2back/STIM_030.jpg	99
2256.026	0.379	378.7	2back	Block4	2back/STIM_030.jpg	100
2258.863	0.349	348.6	2back	Block4	2back/STIM_031.jpg	99
2262.198	0.332	331.8	2back	Block4	2back/STIM_031.jpg	100
2266.205	0.393	393.0	2back	Block4	2back/STIM_031.jpg	99
2269.805	0.571	570.9	2back	Block4	2back/STIM_032.jpg	99
2274.091	0.369	369.3	2back	Block4	2back/STIM_032.jpg	100
2277.643	0.4	400.4	2back	Block4	2back/STIM_032.jpg	100
2281.554	0.377	376.6	2back	Block4	2back/STIM_033.jpg	100
2285.53	0.612	611.6	2back	Block4	2back/STIM_033.jpg	100
2289.311	0.474	473.6	2back	Block4	2back/STIM_033.jpg	99
2292.872	0.465	465.1	2back	Block4	2back/STIM_034.jpg	100
2295.467	0.35	349.6	2back	Block4	2back/STIM_034.jpg	99
2298.842	0.486	485.7	2back	Block4	2back/STIM_034.jpg	100
2302.385	0.528	528.4	2back	Block4	2back/STIM_035.jpg	100
2306.83	0.42	419.5	2back	Block4	2back/STIM_035.jpg	99
2310.129	0.536	536.4	2back	Block4	2back/STIM_035.jpg	99
2313.162	0.397	396.6	2back	Block4	2back/STIM_036.jpg	100
2316.285	0.56	559.9	2back	Block4	2back/STIM_036.jpg	100
2319.297	0.734	733.6	2back	Block4	2back/STIM_036.jpg	99
2322.795	0.369	368.8	2back	Block4	2back/STIM_037.jpg	100
2325.405	0.602	602.2	2back	Block4	2back/STIM_037.jpg	99
2328.517	0.46	459.7	2back	Block4	2back/STIM_037.jpg	99
2332.719	0.398	398.5	2back	Block4	2back/STIM_038.jpg	100
2335.66	0.641	641.3	2back	Block4	2back/STIM_038.jpg	99
2339.059	0.717	717.1	2back	Block4	2back/STIM_038.jpg	99
2343.589	0.648	647.8	2back	Block4	2back/STIM_039.jpg	99
2347.341	0.608	608.0	2back	Block4	2back/STIM_039.jpg	99
2350.374	0.47	469.9	2back	Block4	2back/STIM_039.jpg	99
2354.755	0.43	429.8	0back	Block4	0back/STIM_000.jpg	99
2359.007	0.597	597.4	0back	Block4	0back/STIM_000.jpg	100
2362.535	0.383	383.4	0back	Block4	0back/STIM_000.jpg	99
2366.832	0.503	503.0	0back	Block4	0back/STIM_001.jpg	100
2370.993	0.58	579.8	0back	Block4	0back/STIM_001.jpg	100
2375.218	0.405	404.7	0back	Block4	0back/STIM_001.jpg	100
2378.553	0.562	562.0	0back	Block4	0back/STIM_002.jpg	100
2381.178	0.57	570.2	0back	Block4	0back/STIM_002.jpg	100
2384.722	0.593	593.3	0back	Block4	0back/STIM_002.jpg	100
2387.97	0.464	463.5	0back	Block4	0back/STIM_003.jpg	100
2391.198	0.54	539.8	0back	Block4	0back/STIM_003.jpg	99
2394.881	0.39	389.8	0back	Block4	0back/STIM_003.jpg	100
2398.543	0.449	448.7	0back	Block4	0back/STIM_004.jpg	100
2401.106	0.401	401.2	0back	Block4	0back/STIM_004.jpg	100
2405.028	0.614	614.1	0back	Block4	0back/STIM_004.jpg	100
2408.204	0.61	609.5	0back	Block4	0back/STIM_005.jpg	100
2411.238	0.623	622.8	0back	Block4	0back/STIM_005.jpg	99
2414.262	0.472	471.9	0back	Block4	0back/STIM_005.jpg	100
2418.49	0.49	490.2	0back	Block4	0back/STIM_006.jpg	99
2422.218	0.5	499.5	0back	Block4	0back/STIM_006.jpg	99
2426.112	0.361	361.2	0back	Block4	0back/STIM_006.jpg	100
2430.433	0.373	373.0	0back	Block4	0back/STIM_007.jpg	100
2433.58	0.415	415.0	0back	Block4	0back/STIM_007.jpg	100
2437.524	0.529	529.0	0back	Block4	0back/STIM_007.jpg	100
2441.414	0.506	506.0	0back	Block4	0back/STIM_008.jpg	100
2444.339	0.571	571.1	0back	Block4	0back/STIM_008.jpg	100
2447.505	0.604	604.3	0back	Block4	0back/STIM_008.jpg	99
2451.696	0.498	498.3	0back	Block4	0back/STIM_009.jpg	100
2454.921	0.343	342.9	0back	Block4	0back/STIM_009.jpg	99
2458.732	0.573	573.4	0back	Block4	0back/STIM_009.jpg	99
2462.418	0.509	509.1	0back	Block4	0back/STIM_010.jpg	99
2466.641	0.34	340.3	0back	Block4	0back/STIM_010.jpg	99
2469.407	0.56	559.8	0back	Block4	0back/STIM_010.jpg	99
2473.658	0.5	499.9	0back	Block4	0back/STIM_011.jpg	99
2476.598	0.389	388.7	0back	Block4	0back/STIM_011.jpg	100
2479.782	0.619	619.1	0back	Block4	0back/STIM_011.jpg	99
2483.122	0.439	438.7	0back	Block4	0back/STIM_012.jpg	99
2486.952	0.515	515.2	0back	Block4	0back/STIM_012.jpg	100
2491.462	0.32	320.3	0back	Block4	0back/STIM_012.jpg	99
2494.731	0.374	374.3	0back	Block4	0back/STIM_013.jpg	100
2497.785	0.602	601.6	0back	Block4	0back/STIM_013.jpg	100
2501.907	0.334	334.5	0back	Block4	0back/STIM_013.jpg	100
2504.922	0.461	461.2	0back	Block4	0back/STIM_014.jpg	99
2508.63	0.318	317.8	0back	Block4	0back/STIM_014.jpg	99
2512.627	0.348	347.7	0back	Block4	0back/STIM_014.jpg	100
2515.564	0.512	512.4	0back	Block4	0back/STIM_015.jpg	99
2518.228	0.608	608.3	0back	Block4	0back/STIM_015.jpg	99
2521.197	0.506	505.8	0back	Block4	0back/STIM_015.jpg	99
2523.985	0.498	498.4	0back	Block4	0back/STIM_016.jpg	99
2527.259	0.423	422.9	0back	Block4	0back/STIM_016.jpg	100
2529.841	0.35	350.1	0back	Block4	0back/STIM_016.jpg	99
2533.58	0.36	360.3	0back	Block4	0back/STIM_017.jpg	99
2536.614	0.61	610.2	0back	Block4	0back/STIM_017.jpg	99
2539.982	0.427	427.0	0back	Block4	0back/STIM_017.jpg	99
2542.635	0.547	547.1	0back	Block4	0back/STIM_018.jpg	100
2546.744	0.375	374.7	0back	Block4	0back/STIM_018.jpg	99
2550.703	0.509	508.9	0back	Block4	0back/STIM_018.jpg	100
2555.148	0.436	436.2	0back	Block4	0back/STIM_019.jpg	100
2557.979	0.56	560.3	0back	Block4	0back/STIM_019.jpg	99
2562.425	0.422	421.7	0back	Block4	0back/STIM_019.jpg	100
