onset	duration	accuracy_binary	trial_type	learning_stage	stimulus
0.0	0.936	1	2back	Block1	2back/STIM_000.jpg
4.623	0.96	1	2back	Block1	2back/STIM_000.jpg
8.2	0.826	1	2back	Block1	2back/STIM_000.jpg
12.878	0.755	1	2back	Block1	2back/STIM_001.jpg
15.686	0.462	1	2back	Block1	2back/STIM_001.jpg
20.044	0.701	0	2back	Block1	2back/STIM_001.jpg
23.036	0.478	0	2back	Block1	2back/STIM_002.jpg
26.016	0.451	0	2back	Block1	2back/STIM_002.jpg
30.291	0.928	1	2back	Block1	2back/STIM_002.jpg
35.175	0.572	1	2back	Block1	2back/STIM_003.jpg
38.925	0.868	1	2back	Block1	2back/STIM_003.jpg
43.078	0.829	1	2back	Block1	2back/STIM_003.jpg
46.001	0.94	0	2back	Block1	2back/STIM_004.jpg
49.591	0.802	1	2back	Block1	2back/STIM_004.jpg
53.018	0.965	1	2back	Block1	2back/STIM_004.jpg
57.709	0.596	1	2back	Block1	2back/STIM_005.jpg
60.862	0.863	1	2back	Block1	2back/STIM_005.jpg
63.867	0.542	1	2back	Block1	2back/STIM_005.jpg
67.126	1.049	0	2back	Block1	2back/STIM_006.jpg
70.653	1.016	0	2back	Block1	2back/STIM_006.jpg
75.645	0.515	1	2back	Block1	2back/STIM_006.jpg
79.335	0.74	0	2back	Block1	2back/STIM_007.jpg
83.249	0.955	1	2back	Block1	2back/STIM_007.jpg
88.024	0.579	1	2back	Block1	2back/STIM_007.jpg
91.695	1.028	0	2back	Block1	2back/STIM_008.jpg
94.929	1.0	1	2back	Block1	2back/STIM_008.jpg
98.061	0.474	1	2back	Block1	2back/STIM_008.jpg
101.995	0.962	1	2back	Block1	2back/STIM_009.jpg
105.401	0.684	1	2back	Block1	2back/STIM_009.jpg
108.454	0.603	1	2back	Block1	2back/STIM_009.jpg
112.517	1.046	1	2back	Block1	2back/STIM_010.jpg
115.816	0.757	1	2back	Block1	2back/STIM_010.jpg
119.985	0.796	1	2back	Block1	2back/STIM_010.jpg
123.079	0.535	1	2back	Block1	2back/STIM_011.jpg
127.438	0.86	1	2back	Block1	2back/STIM_011.jpg
131.075	0.86	1	2back	Block1	2back/STIM_011.jpg
134.157	0.902	1	2back	Block1	2back/STIM_012.jpg
137.638	0.45	0	2back	Block1	2back/STIM_012.jpg
140.581	0.967	1	2back	Block1	2back/STIM_012.jpg
143.679	0.78	1	2back	Block1	2back/STIM_013.jpg
146.746	1.006	1	2back	Block1	2back/STIM_013.jpg
151.106	0.484	0	2back	Block1	2back/STIM_013.jpg
155.399	0.83	1	2back	Block1	2back/STIM_014.jpg
159.469	0.787	1	2back	Block1	2back/STIM_014.jpg
162.296	0.759	0	2back	Block1	2back/STIM_014.jpg
165.078	0.68	1	2back	Block1	2back/STIM_015.jpg
167.926	0.9	0	2back	Block1	2back/STIM_015.jpg
171.399	0.524	0	2back	Block1	2back/STIM_015.jpg
175.88	1.085	1	2back	Block1	2back/STIM_016.jpg
180.882	0.534	1	2back	Block1	2back/STIM_016.jpg
184.384	0.49	1	2back	Block1	2back/STIM_016.jpg
188.772	0.882	1	2back	Block1	2back/STIM_017.jpg
191.972	0.955	1	2back	Block1	2back/STIM_017.jpg
196.116	0.538	1	2back	Block1	2back/STIM_017.jpg
200.619	0.549	1	2back	Block1	2back/STIM_018.jpg
204.938	0.513	0	2back	Block1	2back/STIM_018.jpg
208.097	0.675	1	2back	Block1	2back/STIM_018.jpg
212.296	0.706	1	2back	Block1	2back/STIM_019.jpg
215.203	0.722	1	2back	Block1	2back/STIM_019.jpg
219.568	0.777	1	2back	Block1	2back/STIM_019.jpg
223.014	0.668	1	2back	Block1	2back/STIM_020.jpg
226.332	0.826	1	2back	Block1	2back/STIM_020.jpg
230.873	0.868	1	2back	Block1	2back/STIM_020.jpg
235.236	0.634	0	2back	Block1	2back/STIM_021.jpg
237.991	0.536	1	2back	Block1	2back/STIM_021.jpg
241.579	0.595	1	2back	Block1	2back/STIM_021.jpg
245.472	0.911	1	2back	Block1	2back/STIM_022.jpg
249.35	0.834	1	2back	Block1	2back/STIM_022.jpg
252.823	0.524	1	2back	Block1	2back/STIM_022.jpg
256.708	0.796	1	2back	Block1	2back/STIM_023.jpg
260.124	0.552	1	2back	Block1	2back/STIM_023.jpg
264.365	0.615	1	2back	Block1	2back/STIM_023.jpg
268.882	0.564	0	2back	Block1	2back/STIM_024.jpg
272.926	0.483	0	2back	Block1	2back/STIM_024.jpg
275.709	0.698	0	2back	Block1	2back/STIM_024.jpg
280.165	0.627	1	2back	Block1	2back/STIM_025.jpg
284.425	0.734	0	2back	Block1	2back/STIM_025.jpg
288.161	0.575	1	2back	Block1	2back/STIM_025.jpg
290.829	1.03	1	2back	Block1	2back/STIM_026.jpg
294.757	0.88	1	2back	Block1	2back/STIM_026.jpg
298.963	0.875	1	2back	Block1	2back/STIM_026.jpg
302.658	0.967	1	2back	Block1	2back/STIM_027.jpg
306.174	0.844	1	2back	Block1	2back/STIM_027.jpg
310.042	0.609	1	2back	Block1	2back/STIM_027.jpg
313.455	0.897	1	2back	Block1	2back/STIM_028.jpg
317.526	0.919	0	2back	Block1	2back/STIM_028.jpg
321.33	0.566	1	2back	Block1	2back/STIM_028.jpg
325.005	0.516	1	2back	Block1	2back/STIM_029.jpg
329.097	0.478	0	2back	Block1	2back/STIM_029.jpg
332.288	0.545	1	2back	Block1	2back/STIM_029.jpg
335.426	0.702	1	2back	Block1	2back/STIM_030.jpg
339.254	0.998	1	2back	Block1	2back/STIM_030.jpg
342.857	0.647	0	2back	Block1	2back/STIM_030.jpg
347.376	1.087	0	2back	Block1	2back/STIM_031.jpg
351.89	0.648	1	2back	Block1	2back/STIM_031.jpg
354.625	0.644	1	2back	Block1	2back/STIM_031.jpg
357.276	0.996	1	2back	Block1	2back/STIM_032.jpg
361.78	0.556	1	2back	Block1	2back/STIM_032.jpg
366.198	0.434	0	2back	Block1	2back/STIM_032.jpg
369.372	1.054	1	2back	Block1	2back/STIM_033.jpg
372.748	0.488	1	2back	Block1	2back/STIM_033.jpg
376.523	0.644	0	2back	Block1	2back/STIM_033.jpg
380.08	0.737	0	2back	Block1	2back/STIM_034.jpg
384.409	0.482	1	2back	Block1	2back/STIM_034.jpg
388.306	0.742	0	2back	Block1	2back/STIM_034.jpg
391.448	0.85	0	2back	Block1	2back/STIM_035.jpg
395.345	0.496	1	2back	Block1	2back/STIM_035.jpg
399.724	0.549	1	2back	Block1	2back/STIM_035.jpg
403.011	1.068	0	2back	Block1	2back/STIM_036.jpg
407.437	0.648	1	2back	Block1	2back/STIM_036.jpg
410.392	0.548	1	2back	Block1	2back/STIM_036.jpg
412.983	0.807	1	2back	Block1	2back/STIM_037.jpg
417.371	0.585	1	2back	Block1	2back/STIM_037.jpg
420.358	0.907	0	2back	Block1	2back/STIM_037.jpg
423.291	0.872	1	2back	Block1	2back/STIM_038.jpg
426.305	0.992	1	2back	Block1	2back/STIM_038.jpg
430.83	0.893	0	2back	Block1	2back/STIM_038.jpg
434.872	0.561	0	2back	Block1	2back/STIM_039.jpg
437.674	0.599	1	2back	Block1	2back/STIM_039.jpg
441.672	0.597	1	2back	Block1	2back/STIM_039.jpg
444.921	0.494	1	0back	Block1	0back/STIM_000.jpg
447.777	0.467	1	0back	Block1	0back/STIM_000.jpg
451.476	0.513	1	0back	Block1	0back/STIM_000.jpg
455.431	0.518	1	0back	Block1	0back/STIM_001.jpg
459.164	0.383	1	0back	Block1	0back/STIM_001.jpg
462.485	0.352	0	0back	Block1	0back/STIM_001.jpg
466.043	0.559	1	0back	Block1	0back/STIM_002.jpg
470.166	0.327	1	0back	Block1	0back/STIM_002.jpg
473.566	0.426	1	0back	Block1	0back/STIM_002.jpg
476.896	0.519	1	0back	Block1	0back/STIM_003.jpg
479.932	0.553	1	0back	Block1	0back/STIM_003.jpg
483.132	0.401	1	0back	Block1	0back/STIM_003.jpg
487.246	0.575	1	0back	Block1	0back/STIM_004.jpg
490.264	0.567	1	0back	Block1	0back/STIM_004.jpg
493.927	0.526	1	0back	Block1	0back/STIM_004.jpg
497.609	0.487	1	0back	Block1	0back/STIM_005.jpg
501.103	0.408	1	0back	Block1	0back/STIM_005.jpg
505.237	0.594	0	0back	Block1	0back/STIM_005.jpg
509.435	0.522	1	0back	Block1	0back/STIM_006.jpg
513.571	0.361	1	0back	Block1	0back/STIM_006.jpg
517.425	0.552	1	0back	Block1	0back/STIM_006.jpg
521.315	0.619	1	0back	Block1	0back/STIM_007.jpg
523.953	0.443	1	0back	Block1	0back/STIM_007.jpg
527.589	0.536	1	0back	Block1	0back/STIM_007.jpg
531.717	0.32	0	0back	Block1	0back/STIM_008.jpg
534.928	0.434	1	0back	Block1	0back/STIM_008.jpg
537.776	0.468	1	0back	Block1	0back/STIM_008.jpg
540.734	0.324	1	0back	Block1	0back/STIM_009.jpg
543.88	0.504	1	0back	Block1	0back/STIM_009.jpg
547.295	0.51	1	0back	Block1	0back/STIM_009.jpg
550.39	0.536	1	0back	Block1	0back/STIM_010.jpg
554.054	0.567	0	0back	Block1	0back/STIM_010.jpg
557.202	0.422	0	0back	Block1	0back/STIM_010.jpg
559.833	0.528	1	0back	Block1	0back/STIM_011.jpg
562.929	0.42	0	0back	Block1	0back/STIM_011.jpg
565.51	0.619	1	0back	Block1	0back/STIM_011.jpg
569.956	0.442	1	0back	Block1	0back/STIM_012.jpg
573.065	0.612	1	0back	Block1	0back/STIM_012.jpg
577.53	0.626	0	0back	Block1	0back/STIM_012.jpg
581.404	0.502	1	0back	Block1	0back/STIM_013.jpg
585.127	0.571	1	0back	Block1	0back/STIM_013.jpg
588.982	0.576	0	0back	Block1	0back/STIM_013.jpg
593.064	0.512	1	0back	Block1	0back/STIM_014.jpg
596.06	0.448	1	0back	Block1	0back/STIM_014.jpg
600.026	0.448	1	0back	Block1	0back/STIM_014.jpg
603.292	0.61	1	0back	Block1	0back/STIM_015.jpg
607.075	0.484	1	0back	Block1	0back/STIM_015.jpg
610.732	0.404	1	0back	Block1	0back/STIM_015.jpg
614.808	0.407	1	0back	Block1	0back/STIM_016.jpg
618.808	0.621	1	0back	Block1	0back/STIM_016.jpg
622.035	0.43	0	0back	Block1	0back/STIM_016.jpg
626.007	0.377	1	0back	Block1	0back/STIM_017.jpg
629.981	0.354	1	0back	Block1	0back/STIM_017.jpg
632.861	0.454	0	0back	Block1	0back/STIM_017.jpg
636.165	0.487	1	0back	Block1	0back/STIM_018.jpg
639.393	0.465	1	0back	Block1	0back/STIM_018.jpg
643.565	0.545	0	0back	Block1	0back/STIM_018.jpg
646.121	0.416	1	0back	Block1	0back/STIM_019.jpg
649.433	0.602	1	0back	Block1	0back/STIM_019.jpg
653.234	0.541	0	0back	Block1	0back/STIM_019.jpg
657.277	0.694	1	2back	Block2	2back/STIM_000.jpg
660.25	0.489	1	2back	Block2	2back/STIM_000.jpg
663.968	0.483	1	2back	Block2	2back/STIM_000.jpg
667.413	0.45	0	2back	Block2	2back/STIM_001.jpg
670.758	0.524	1	2back	Block2	2back/STIM_001.jpg
674.602	0.762	1	2back	Block2	2back/STIM_001.jpg
677.642	0.86	0	2back	Block2	2back/STIM_002.jpg
681.779	0.541	0	2back	Block2	2back/STIM_002.jpg
685.872	0.414	1	2back	Block2	2back/STIM_002.jpg
689.742	0.54	1	2back	Block2	2back/STIM_003.jpg
693.937	0.557	0	2back	Block2	2back/STIM_003.jpg
697.612	0.718	1	2back	Block2	2back/STIM_003.jpg
702.081	0.441	1	2back	Block2	2back/STIM_004.jpg
705.027	0.552	1	2back	Block2	2back/STIM_004.jpg
707.585	0.804	1	2back	Block2	2back/STIM_004.jpg
710.739	0.928	1	2back	Block2	2back/STIM_005.jpg
715.379	0.448	0	2back	Block2	2back/STIM_005.jpg
718.567	0.372	1	2back	Block2	2back/STIM_005.jpg
722.193	0.489	1	2back	Block2	2back/STIM_006.jpg
726.489	0.79	1	2back	Block2	2back/STIM_006.jpg
729.28	0.809	1	2back	Block2	2back/STIM_006.jpg
734.067	0.664	0	2back	Block2	2back/STIM_007.jpg
738.03	0.416	1	2back	Block2	2back/STIM_007.jpg
740.591	0.466	1	2back	Block2	2back/STIM_007.jpg
744.939	0.499	1	2back	Block2	2back/STIM_008.jpg
747.774	0.84	1	2back	Block2	2back/STIM_008.jpg
751.101	0.822	0	2back	Block2	2back/STIM_008.jpg
755.738	0.613	1	2back	Block2	2back/STIM_009.jpg
759.753	0.75	0	2back	Block2	2back/STIM_009.jpg
764.304	0.55	0	2back	Block2	2back/STIM_009.jpg
766.864	0.684	1	2back	Block2	2back/STIM_010.jpg
769.668	0.513	0	2back	Block2	2back/STIM_010.jpg
772.963	0.674	0	2back	Block2	2back/STIM_010.jpg
776.201	0.532	1	2back	Block2	2back/STIM_011.jpg
779.548	0.757	0	2back	Block2	2back/STIM_011.jpg
783.134	0.774	1	2back	Block2	2back/STIM_011.jpg
786.183	0.693	0	2back	Block2	2back/STIM_012.jpg
789.31	0.785	0	2back	Block2	2back/STIM_012.jpg
792.106	0.644	1	2back	Block2	2back/STIM_012.jpg
795.263	0.907	1	2back	Block2	2back/STIM_013.jpg
800.006	0.87	0	2back	Block2	2back/STIM_013.jpg
802.931	0.593	1	2back	Block2	2back/STIM_013.jpg
807.142	0.781	1	2back	Block2	2back/STIM_014.jpg
810.512	0.391	0	2back	Block2	2back/STIM_014.jpg
813.77	0.565	1	2back	Block2	2back/STIM_014.jpg
817.029	0.432	1	2back	Block2	2back/STIM_015.jpg
819.911	0.45	0	2back	Block2	2back/STIM_015.jpg
823.451	0.562	1	2back	Block2	2back/STIM_015.jpg
827.142	0.534	0	2back	Block2	2back/STIM_016.jpg
831.262	0.865	1	2back	Block2	2back/STIM_016.jpg
835.437	0.638	1	2back	Block2	2back/STIM_016.jpg
838.373	0.573	1	2back	Block2	2back/STIM_017.jpg
841.04	0.691	1	2back	Block2	2back/STIM_017.jpg
844.626	0.66	0	2back	Block2	2back/STIM_017.jpg
848.835	0.553	1	2back	Block2	2back/STIM_018.jpg
851.392	0.84	0	2back	Block2	2back/STIM_018.jpg
854.948	0.354	1	2back	Block2	2back/STIM_018.jpg
857.655	0.894	1	2back	Block2	2back/STIM_019.jpg
861.953	0.583	0	2back	Block2	2back/STIM_019.jpg
865.96	0.662	1	2back	Block2	2back/STIM_019.jpg
870.256	0.484	1	2back	Block2	2back/STIM_020.jpg
873.178	0.424	1	2back	Block2	2back/STIM_020.jpg
875.736	0.556	0	2back	Block2	2back/STIM_020.jpg
879.946	0.877	1	2back	Block2	2back/STIM_021.jpg
884.6	0.481	1	2back	Block2	2back/STIM_021.jpg
887.678	0.718	1	2back	Block2	2back/STIM_021.jpg
890.643	0.903	1	2back	Block2	2back/STIM_022.jpg
894.704	0.433	1	2back	Block2	2back/STIM_022.jpg
898.402	0.514	1	2back	Block2	2back/STIM_022.jpg
901.187	0.532	1	2back	Block2	2back/STIM_023.jpg
905.608	0.525	1	2back	Block2	2back/STIM_023.jpg
908.353	0.474	1	2back	Block2	2back/STIM_023.jpg
911.252	0.463	0	2back	Block2	2back/STIM_024.jpg
914.411	0.693	0	2back	Block2	2back/STIM_024.jpg
918.424	0.377	1	2back	Block2	2back/STIM_024.jpg
921.916	0.666	1	2back	Block2	2back/STIM_025.jpg
925.687	0.686	0	2back	Block2	2back/STIM_025.jpg
930.227	0.586	0	2back	Block2	2back/STIM_025.jpg
933.057	0.775	1	2back	Block2	2back/STIM_026.jpg
936.688	0.524	1	2back	Block2	2back/STIM_026.jpg
940.851	0.585	1	2back	Block2	2back/STIM_026.jpg
945.099	0.678	0	2back	Block2	2back/STIM_027.jpg
948.053	0.618	1	2back	Block2	2back/STIM_027.jpg
951.623	0.521	1	2back	Block2	2back/STIM_027.jpg
955.516	0.543	1	2back	Block2	2back/STIM_028.jpg
959.548	0.865	0	2back	Block2	2back/STIM_028.jpg
964.068	0.746	1	2back	Block2	2back/STIM_028.jpg
968.105	0.895	0	2back	Block2	2back/STIM_029.jpg
971.365	0.839	1	2back	Block2	2back/STIM_029.jpg
976.086	0.568	0	2back	Block2	2back/STIM_029.jpg
980.038	0.499	1	2back	Block2	2back/STIM_030.jpg
983.829	0.542	1	2back	Block2	2back/STIM_030.jpg
987.018	0.802	1	2back	Block2	2back/STIM_030.jpg
989.927	0.902	1	2back	Block2	2back/STIM_031.jpg
993.453	0.478	1	2back	Block2	2back/STIM_031.jpg
996.45	0.655	1	2back	Block2	2back/STIM_031.jpg
999.384	0.785	1	2back	Block2	2back/STIM_032.jpg
1002.4	0.431	1	2back	Block2	2back/STIM_032.jpg
1006.709	0.72	0	2back	Block2	2back/STIM_032.jpg
1011.077	0.52	1	2back	Block2	2back/STIM_033.jpg
1014.676	0.69	1	2back	Block2	2back/STIM_033.jpg
1017.41	0.479	1	2back	Block2	2back/STIM_033.jpg
1020.707	0.761	1	2back	Block2	2back/STIM_034.jpg
1023.544	0.71	1	2back	Block2	2back/STIM_034.jpg
1027.817	0.522	1	2back	Block2	2back/STIM_034.jpg
1032.034	0.817	1	2back	Block2	2back/STIM_035.jpg
1035.089	0.677	1	2back	Block2	2back/STIM_035.jpg
1038.876	0.491	1	2back	Block2	2back/STIM_035.jpg
1042.957	0.797	0	2back	Block2	2back/STIM_036.jpg
1045.907	0.849	0	2back	Block2	2back/STIM_036.jpg
1049.936	0.49	1	2back	Block2	2back/STIM_036.jpg
1052.865	0.495	1	2back	Block2	2back/STIM_037.jpg
1056.468	0.797	1	2back	Block2	2back/STIM_037.jpg
1060.725	0.749	1	2back	Block2	2back/STIM_037.jpg
1064.776	0.798	0	2back	Block2	2back/STIM_038.jpg
1068.931	0.865	1	2back	Block2	2back/STIM_038.jpg
1072.963	0.584	1	2back	Block2	2back/STIM_038.jpg
1076.627	0.741	1	2back	Block2	2back/STIM_039.jpg
1080.963	0.864	1	2back	Block2	2back/STIM_039.jpg
1084.279	0.43	1	2back	Block2	2back/STIM_039.jpg
1086.795	0.443	1	0back	Block2	0back/STIM_000.jpg
1090.563	0.545	1	0back	Block2	0back/STIM_000.jpg
1095.105	0.505	1	0back	Block2	0back/STIM_000.jpg
1099.168	0.504	1	0back	Block2	0back/STIM_001.jpg
1102.487	0.552	0	0back	Block2	0back/STIM_001.jpg
1106.193	0.384	0	0back	Block2	0back/STIM_001.jpg
1108.939	0.606	1	0back	Block2	0back/STIM_002.jpg
1112.333	0.616	1	0back	Block2	0back/STIM_002.jpg
1115.579	0.366	1	0back	Block2	0back/STIM_002.jpg
1119.706	0.497	0	0back	Block2	0back/STIM_003.jpg
1123.174	0.496	0	0back	Block2	0back/STIM_003.jpg
1126.507	0.62	1	0back	Block2	0back/STIM_003.jpg
1130.1	0.532	1	0back	Block2	0back/STIM_004.jpg
1133.198	0.496	1	0back	Block2	0back/STIM_004.jpg
1137.547	0.454	1	0back	Block2	0back/STIM_004.jpg
1140.138	0.481	1	0back	Block2	0back/STIM_005.jpg
1143.612	0.436	1	0back	Block2	0back/STIM_005.jpg
1146.131	0.578	1	0back	Block2	0back/STIM_005.jpg
1148.74	0.431	0	0back	Block2	0back/STIM_006.jpg
1153.102	0.562	1	0back	Block2	0back/STIM_006.jpg
1156.187	0.399	1	0back	Block2	0back/STIM_006.jpg
1159.063	0.593	1	0back	Block2	0back/STIM_007.jpg
1162.865	0.534	1	0back	Block2	0back/STIM_007.jpg
1165.9	0.509	1	0back	Block2	0back/STIM_007.jpg
1170.011	0.56	1	0back	Block2	0back/STIM_008.jpg
1174.22	0.397	1	0back	Block2	0back/STIM_008.jpg
1178.276	0.472	1	0back	Block2	0back/STIM_008.jpg
1181.976	0.493	1	0back	Block2	0back/STIM_009.jpg
1185.483	0.349	1	0back	Block2	0back/STIM_009.jpg
1188.666	0.417	0	0back	Block2	0back/STIM_009.jpg
1191.805	0.432	1	0back	Block2	0back/STIM_010.jpg
1196.055	0.587	1	0back	Block2	0back/STIM_010.jpg
1198.975	0.436	1	0back	Block2	0back/STIM_010.jpg
1202.161	0.321	1	0back	Block2	0back/STIM_011.jpg
1206.265	0.592	1	0back	Block2	0back/STIM_011.jpg
1210.272	0.47	1	0back	Block2	0back/STIM_011.jpg
1212.744	0.625	1	0back	Block2	0back/STIM_012.jpg
1216.283	0.358	1	0back	Block2	0back/STIM_012.jpg
1220.276	0.397	1	0back	Block2	0back/STIM_012.jpg
1223.847	0.365	1	0back	Block2	0back/STIM_013.jpg
1226.369	0.517	0	0back	Block2	0back/STIM_013.jpg
1229.926	0.353	1	0back	Block2	0back/STIM_013.jpg
1233.864	0.471	1	0back	Block2	0back/STIM_014.jpg
1237.899	0.53	0	0back	Block2	0back/STIM_014.jpg
1241.59	0.478	1	0back	Block2	0back/STIM_014.jpg
1244.47	0.352	1	0back	Block2	0back/STIM_015.jpg
1248.539	0.496	1	0back	Block2	0back/STIM_015.jpg
1251.202	0.485	1	0back	Block2	0back/STIM_015.jpg
1255.571	0.573	1	0back	Block2	0back/STIM_016.jpg
1258.579	0.579	1	0back	Block2	0back/STIM_016.jpg
1262.703	0.493	0	0back	Block2	0back/STIM_016.jpg
1266.477	0.526	0	0back	Block2	0back/STIM_017.jpg
1270.461	0.415	1	0back	Block2	0back/STIM_017.jpg
1274.632	0.525	1	0back	Block2	0back/STIM_017.jpg
1278.242	0.44	1	0back	Block2	0back/STIM_018.jpg
1281.434	0.624	1	0back	Block2	0back/STIM_018.jpg
1284.584	0.435	1	0back	Block2	0back/STIM_018.jpg
1287.728	0.422	1	0back	Block2	0back/STIM_019.jpg
1290.817	0.497	0	0back	Block2	0back/STIM_019.jpg
1293.699	0.367	1	0back	Block2	0back/STIM_019.jpg
1297.31	0.525	1	2back	Block3	2back/STIM_000.jpg
1300.196	0.538	0	2back	Block3	2back/STIM_000.jpg
1302.852	0.691	1	2back	Block3	2back/STIM_000.jpg
1306.81	0.732	1	2back	Block3	2back/STIM_001.jpg
1311.323	0.678	1	2back	Block3	2back/STIM_001.jpg
1314.744	0.71	1	2back	Block3	2back/STIM_001.jpg
1317.992	0.721	0	2back	Block3	2back/STIM_002.jpg
1321.746	0.336	1	2back	Block3	2back/STIM_002.jpg
1325.863	0.571	1	2back	Block3	2back/STIM_002.jpg
1329.818	0.582	1	2back	Block3	2back/STIM_003.jpg
1333.78	0.646	1	2back	Block3	2back/STIM_003.jpg
1338.172	0.614	1	2back	Block3	2back/STIM_003.jpg
1342.465	0.747	1	2back	Block3	2back/STIM_004.jpg
1345.992	0.691	1	2back	Block3	2back/STIM_004.jpg
1349.123	0.331	0	2back	Block3	2back/STIM_004.jpg
1351.676	0.578	0	2back	Block3	2back/STIM_005.jpg
1355.978	0.441	1	2back	Block3	2back/STIM_005.jpg
1359.386	0.426	0	2back	Block3	2back/STIM_005.jpg
1361.897	0.759	1	2back	Block3	2back/STIM_006.jpg
1364.945	0.744	1	2back	Block3	2back/STIM_006.jpg
1369.106	0.552	1	2back	Block3	2back/STIM_006.jpg
1371.969	0.414	1	2back	Block3	2back/STIM_007.jpg
1375.187	0.632	1	2back	Block3	2back/STIM_007.jpg
1378.169	0.366	1	2back	Block3	2back/STIM_007.jpg
1381.062	0.468	1	2back	Block3	2back/STIM_008.jpg
1384.311	0.763	1	2back	Block3	2back/STIM_008.jpg
1388.794	0.383	1	2back	Block3	2back/STIM_008.jpg
1392.323	0.62	1	2back	Block3	2back/STIM_009.jpg
1396.912	0.446	0	2back	Block3	2back/STIM_009.jpg
1400.598	0.364	1	2back	Block3	2back/STIM_009.jpg
1403.174	0.401	1	2back	Block3	2back/STIM_010.jpg
1406.455	0.446	1	2back	Block3	2back/STIM_010.jpg
1409.926	0.582	1	2back	Block3	2back/STIM_010.jpg
1413.919	0.548	1	2back	Block3	2back/STIM_011.jpg
1417.033	0.369	1	2back	Block3	2back/STIM_011.jpg
1419.616	0.44	1	2back	Block3	2back/STIM_011.jpg
1424.05	0.761	1	2back	Block3	2back/STIM_012.jpg
1427.557	0.586	1	2back	Block3	2back/STIM_012.jpg
1430.936	0.436	1	2back	Block3	2back/STIM_012.jpg
1434.691	0.738	1	2back	Block3	2back/STIM_013.jpg
1438.007	0.642	0	2back	Block3	2back/STIM_013.jpg
1441.979	0.573	0	2back	Block3	2back/STIM_013.jpg
1445.283	0.591	1	2back	Block3	2back/STIM_014.jpg
1448.78	0.417	1	2back	Block3	2back/STIM_014.jpg
1452.331	0.733	1	2back	Block3	2back/STIM_014.jpg
1455.537	0.657	1	2back	Block3	2back/STIM_015.jpg
1458.822	0.76	1	2back	Block3	2back/STIM_015.jpg
1461.942	0.5	1	2back	Block3	2back/STIM_015.jpg
1464.63	0.625	1	2back	Block3	2back/STIM_016.jpg
1467.428	0.389	1	2back	Block3	2back/STIM_016.jpg
1471.398	0.377	1	2back	Block3	2back/STIM_016.jpg
1475.104	0.743	0	2back	Block3	2back/STIM_017.jpg
1478.821	0.41	1	2back	Block3	2back/STIM_017.jpg
1482.582	0.569	1	2back	Block3	2back/STIM_017.jpg
1485.206	0.568	1	2back	Block3	2back/STIM_018.jpg
1489.49	0.427	0	2back	Block3	2back/STIM_018.jpg
1493.871	0.731	1	2back	Block3	2back/STIM_018.jpg
1498.546	0.37	1	2back	Block3	2back/STIM_019.jpg
1501.44	0.675	0	2back	Block3	2back/STIM_019.jpg
1505.81	0.42	1	2back	Block3	2back/STIM_019.jpg
1509.771	0.764	1	2back	Block3	2back/STIM_020.jpg
1512.836	0.732	1	2back	Block3	2back/STIM_020.jpg
1515.58	0.437	1	2back	Block3	2back/STIM_020.jpg
1518.851	0.395	1	2back	Block3	2back/STIM_021.jpg
1522.867	0.414	1	2back	Block3	2back/STIM_021.jpg
1526.27	0.545	1	2back	Block3	2back/STIM_021.jpg
1530.707	0.334	0	2back	Block3	2back/STIM_022.jpg
1533.573	0.405	1	2back	Block3	2back/STIM_022.jpg
1537.541	0.425	1	2back	Block3	2back/STIM_022.jpg
1540.289	0.612	1	2back	Block3	2back/STIM_023.jpg
1544.168	0.674	0	2back	Block3	2back/STIM_023.jpg
1548.118	0.693	1	2back	Block3	2back/STIM_023.jpg
1552.37	0.673	1	2back	Block3	2back/STIM_024.jpg
1556.602	0.651	1	2back	Block3	2back/STIM_024.jpg
1561.074	0.479	1	2back	Block3	2back/STIM_024.jpg
1564.503	0.455	1	2back	Block3	2back/STIM_025.jpg
1568.927	0.432	1	2back	Block3	2back/STIM_025.jpg
1572.17	0.573	1	2back	Block3	2back/STIM_025.jpg
1575.044	0.742	1	2back	Block3	2back/STIM_026.jpg
1578.704	0.702	1	2back	Block3	2back/STIM_026.jpg
1583.24	0.454	1	2back	Block3	2back/STIM_026.jpg
1586.503	0.553	1	2back	Block3	2back/STIM_027.jpg
1590.075	0.546	1	2back	Block3	2back/STIM_027.jpg
1592.943	0.446	1	2back	Block3	2back/STIM_027.jpg
1595.826	0.41	1	2back	Block3	2back/STIM_028.jpg
1598.518	0.553	1	2back	Block3	2back/STIM_028.jpg
1602.282	0.686	1	2back	Block3	2back/STIM_028.jpg
1606.449	0.695	1	2back	Block3	2back/STIM_029.jpg
1609.992	0.424	0	2back	Block3	2back/STIM_029.jpg
1614.398	0.615	1	2back	Block3	2back/STIM_029.jpg
1617.495	0.602	1	2back	Block3	2back/STIM_030.jpg
1620.266	0.744	0	2back	Block3	2back/STIM_030.jpg
1624.923	0.567	1	2back	Block3	2back/STIM_030.jpg
1628.505	0.743	0	2back	Block3	2back/STIM_031.jpg
1632.676	0.359	0	2back	Block3	2back/STIM_031.jpg
1635.351	0.424	1	2back	Block3	2back/STIM_031.jpg
1639.64	0.418	1	2back	Block3	2back/STIM_032.jpg
1643.91	0.561	0	2back	Block3	2back/STIM_032.jpg
1647.401	0.594	1	2back	Block3	2back/STIM_032.jpg
1650.722	0.643	1	2back	Block3	2back/STIM_033.jpg
1653.455	0.466	1	2back	Block3	2back/STIM_033.jpg
1657.776	0.466	1	2back	Block3	2back/STIM_033.jpg
1660.267	0.493	0	2back	Block3	2back/STIM_034.jpg
1664.414	0.692	1	2back	Block3	2back/STIM_034.jpg
1668.903	0.662	1	2back	Block3	2back/STIM_034.jpg
1672.199	0.517	1	2back	Block3	2back/STIM_035.jpg
1674.906	0.723	1	2back	Block3	2back/STIM_035.jpg
1678.842	0.717	1	2back	Block3	2back/STIM_035.jpg
1682.269	0.591	1	2back	Block3	2back/STIM_036.jpg
1685.004	0.634	1	2back	Block3	2back/STIM_036.jpg
1688.798	0.762	1	2back	Block3	2back/STIM_036.jpg
1693.522	0.438	1	2back	Block3	2back/STIM_037.jpg
1697.809	0.448	0	2back	Block3	2back/STIM_037.jpg
1700.449	0.549	1	2back	Block3	2back/STIM_037.jpg
1704.161	0.481	1	2back	Block3	2back/STIM_038.jpg
1707.795	0.611	1	2back	Block3	2back/STIM_038.jpg
1711.198	0.476	0	2back	Block3	2back/STIM_038.jpg
1715.06	0.386	1	2back	Block3	2back/STIM_039.jpg
1719.372	0.701	1	2back	Block3	2back/STIM_039.jpg
1723.467	0.697	1	2back	Block3	2back/STIM_039.jpg
1726.96	0.498	1	0back	Block3	0back/STIM_000.jpg
1729.6	0.623	0	0back	Block3	0back/STIM_000.jpg
1734.195	0.622	0	0back	Block3	0back/STIM_000.jpg
1738.615	0.454	0	0back	Block3	0back/STIM_001.jpg
1741.463	0.449	1	0back	Block3	0back/STIM_001.jpg
1744.755	0.419	0	0back	Block3	0back/STIM_001.jpg
1747.956	0.622	0	0back	Block3	0back/STIM_002.jpg
1750.784	0.571	1	0back	Block3	0back/STIM_002.jpg
1753.732	0.399	1	0back	Block3	0back/STIM_002.jpg
1756.213	0.504	1	0back	Block3	0back/STIM_003.jpg
1758.846	0.438	1	0back	Block3	0back/STIM_003.jpg
1761.885	0.354	1	0back	Block3	0back/STIM_003.jpg
1764.255	0.419	1	0back	Block3	0back/STIM_004.jpg
1767.723	0.533	1	0back	Block3	0back/STIM_004.jpg
1772.182	0.57	1	0back	Block3	0back/STIM_004.jpg
1774.914	0.44	0	0back	Block3	0back/STIM_005.jpg
1778.812	0.337	1	0back	Block3	0back/STIM_005.jpg
1782.196	0.619	0	0back	Block3	0back/STIM_005.jpg
1786.56	0.459	1	0back	Block3	0back/STIM_006.jpg
1789.5	0.609	1	0back	Block3	0back/STIM_006.jpg
1792.686	0.595	1	0back	Block3	0back/STIM_006.jpg
1796.569	0.497	1	0back	Block3	0back/STIM_007.jpg
1800.678	0.456	1	0back	Block3	0back/STIM_007.jpg
1803.154	0.534	1	0back	Block3	0back/STIM_007.jpg
1807.652	0.415	1	0back	Block3	0back/STIM_008.jpg
1810.405	0.392	1	0back	Block3	0back/STIM_008.jpg
1813.157	0.39	1	0back	Block3	0back/STIM_008.jpg
1816.304	0.62	0	0back	Block3	0back/STIM_009.jpg
1820.53	0.579	1	0back	Block3	0back/STIM_009.jpg
1824.248	0.487	0	0back	Block3	0back/STIM_009.jpg
1827.12	0.606	1	0back	Block3	0back/STIM_010.jpg
1829.971	0.6	1	0back	Block3	0back/STIM_010.jpg
1833.727	0.542	1	0back	Block3	0back/STIM_010.jpg
1837.018	0.394	0	0back	Block3	0back/STIM_011.jpg
1839.899	0.592	1	0back	Block3	0back/STIM_011.jpg
1842.885	0.416	1	0back	Block3	0back/STIM_011.jpg
1846.79	0.366	1	0back	Block3	0back/STIM_012.jpg
1850.425	0.618	1	0back	Block3	0back/STIM_012.jpg
1854.588	0.55	1	0back	Block3	0back/STIM_012.jpg
1858.799	0.55	1	0back	Block3	0back/STIM_013.jpg
1862.106	0.373	1	0back	Block3	0back/STIM_013.jpg
1865.335	0.447	1	0back	Block3	0back/STIM_013.jpg
1868.255	0.354	1	0back	Block3	0back/STIM_014.jpg
1871.28	0.618	1	0back	Block3	0back/STIM_014.jpg
1873.942	0.559	1	0back	Block3	0back/STIM_014.jpg
1877.993	0.584	1	0back	Block3	0back/STIM_015.jpg
1881.8	0.513	1	0back	Block3	0back/STIM_015.jpg
1886.225	0.553	1	0back	Block3	0back/STIM_015.jpg
1890.559	0.364	1	0back	Block3	0back/STIM_016.jpg
1893.035	0.338	1	0back	Block3	0back/STIM_016.jpg
1896.608	0.522	0	0back	Block3	0back/STIM_016.jpg
1900.998	0.341	1	0back	Block3	0back/STIM_017.jpg
1903.734	0.399	1	0back	Block3	0back/STIM_017.jpg
1907.917	0.459	1	0back	Block3	0back/STIM_017.jpg
1911.947	0.339	0	0back	Block3	0back/STIM_018.jpg
1914.632	0.596	1	0back	Block3	0back/STIM_018.jpg
1917.801	0.407	1	0back	Block3	0back/STIM_018.jpg
1921.59	0.423	0	0back	Block3	0back/STIM_019.jpg
1925.061	0.431	1	0back	Block3	0back/STIM_019.jpg
1927.963	0.425	1	0back	Block3	0back/STIM_019.jpg
1931.915	0.507	1	2back	Block4	2back/STIM_000.jpg
1935.276	0.47	1	2back	Block4	2back/STIM_000.jpg
1937.806	0.732	1	2back	Block4	2back/STIM_000.jpg
1940.57	0.7	1	2back	Block4	2back/STIM_001.jpg
1943.336	0.399	0	2back	Block4	2back/STIM_001.jpg
1947.546	0.397	1	2back	Block4	2back/STIM_001.jpg
1951.826	0.669	1	2back	Block4	2back/STIM_002.jpg
1956.228	0.604	1	2back	Block4	2back/STIM_002.jpg
1958.987	0.385	1	2back	Block4	2back/STIM_002.jpg
1961.948	0.549	1	2back	Block4	2back/STIM_003.jpg
1965.575	0.533	1	2back	Block4	2back/STIM_003.jpg
1969.131	0.526	1	2back	Block4	2back/STIM_003.jpg
1972.526	0.387	1	2back	Block4	2back/STIM_004.jpg
1975.573	0.46	1	2back	Block4	2back/STIM_004.jpg
1979.192	0.476	1	2back	Block4	2back/STIM_004.jpg
1982.902	0.412	1	2back	Block4	2back/STIM_005.jpg
1985.494	0.355	1	2back	Block4	2back/STIM_005.jpg
1989.067	0.75	1	2back	Block4	2back/STIM_005.jpg
1993.075	0.679	1	2back	Block4	2back/STIM_006.jpg
1996.556	0.409	1	2back	Block4	2back/STIM_006.jpg
1999.403	0.507	1	2back	Block4	2back/STIM_006.jpg
2002.884	0.373	1	2back	Block4	2back/STIM_007.jpg
2006.058	0.412	1	2back	Block4	2back/STIM_007.jpg
2009.944	0.761	0	2back	Block4	2back/STIM_007.jpg
2014.384	0.491	1	2back	Block4	2back/STIM_008.jpg
2018.72	0.556	1	2back	Block4	2back/STIM_008.jpg
2022.656	0.414	1	2back	Block4	2back/STIM_008.jpg
2026.35	0.543	1	2back	Block4	2back/STIM_009.jpg
2029.859	0.572	1	2back	Block4	2back/STIM_009.jpg
2033.207	0.477	1	2back	Block4	2back/STIM_009.jpg
2037.567	0.752	1	2back	Block4	2back/STIM_010.jpg
2041.122	0.745	1	2back	Block4	2back/STIM_010.jpg
2044.114	0.696	1	2back	Block4	2back/STIM_010.jpg
2047.7	0.588	1	2back	Block4	2back/STIM_011.jpg
2050.844	0.675	1	2back	Block4	2back/STIM_011.jpg
2053.802	0.401	1	2back	Block4	2back/STIM_011.jpg
2057.594	0.67	1	2back	Block4	2back/STIM_012.jpg
2061.143	0.342	1	2back	Block4	2back/STIM_012.jpg
2064.307	0.488	1	2back	Block4	2back/STIM_012.jpg
2067.676	0.608	1	2back	Block4	2back/STIM_013.jpg
2070.392	0.68	1	2back	Block4	2back/STIM_013.jpg
2073.74	0.716	1	2back	Block4	2back/STIM_013.jpg
2077.352	0.38	1	2back	Block4	2back/STIM_014.jpg
2081.723	0.692	0	2back	Block4	2back/STIM_014.jpg
2085.869	0.608	1	2back	Block4	2back/STIM_014.jpg
2089.432	0.644	1	2back	Block4	2back/STIM_015.jpg
2093.016	0.738	1	2back	Block4	2back/STIM_015.jpg
2097.237	0.502	1	2back	Block4	2back/STIM_015.jpg
2101.498	0.744	1	2back	Block4	2back/STIM_016.jpg
2104.383	0.501	1	2back	Block4	2back/STIM_016.jpg
2108.474	0.502	1	2back	Block4	2back/STIM_016.jpg
2112.736	0.59	1	2back	Block4	2back/STIM_017.jpg
2116.031	0.417	1	2back	Block4	2back/STIM_017.jpg
2119.297	0.518	0	2back	Block4	2back/STIM_017.jpg
2122.107	0.616	1	2back	Block4	2back/STIM_018.jpg
2124.768	0.43	1	2back	Block4	2back/STIM_018.jpg
2128.073	0.508	1	2back	Block4	2back/STIM_018.jpg
2132.067	0.692	1	2back	Block4	2back/STIM_019.jpg
2135.375	0.582	1	2back	Block4	2back/STIM_019.jpg
2138.823	0.723	1	2back	Block4	2back/STIM_019.jpg
2142.328	0.602	1	2back	Block4	2back/STIM_020.jpg
2145.112	0.556	1	2back	Block4	2back/STIM_020.jpg
2148.312	0.551	1	2back	Block4	2back/STIM_020.jpg
2151.119	0.412	1	2back	Block4	2back/STIM_021.jpg
2154.269	0.742	1	2back	Block4	2back/STIM_021.jpg
2158.939	0.75	1	2back	Block4	2back/STIM_021.jpg
2163.157	0.576	1	2back	Block4	2back/STIM_022.jpg
2167.643	0.368	1	2back	Block4	2back/STIM_022.jpg
2170.261	0.482	1	2back	Block4	2back/STIM_022.jpg
2174.189	0.729	1	2back	Block4	2back/STIM_023.jpg
2177.419	0.453	1	2back	Block4	2back/STIM_023.jpg
2180.537	0.561	1	2back	Block4	2back/STIM_023.jpg
2183.216	0.625	1	2back	Block4	2back/STIM_024.jpg
2187.171	0.753	1	2back	Block4	2back/STIM_024.jpg
2191.781	0.504	1	2back	Block4	2back/STIM_024.jpg
2195.994	0.386	1	2back	Block4	2back/STIM_025.jpg
2199.232	0.759	1	2back	Block4	2back/STIM_025.jpg
2202.898	0.412	1	2back	Block4	2back/STIM_025.jpg
2205.947	0.609	1	2back	Block4	2back/STIM_026.jpg
2209.515	0.473	1	2back	Block4	2back/STIM_026.jpg
2213.35	0.512	1	2back	Block4	2back/STIM_026.jpg
2215.938	0.462	1	2back	Block4	2back/STIM_027.jpg
2218.779	0.579	1	2back	Block4	2back/STIM_027.jpg
2222.299	0.48	1	2back	Block4	2back/STIM_027.jpg
2226.509	0.603	1	2back	Block4	2back/STIM_028.jpg
2229.789	0.483	1	2back	Block4	2back/STIM_028.jpg
2232.548	0.579	1	2back	Block4	2back/STIM_028.jpg
2236.706	0.454	1	2back	Block4	2back/STIM_029.jpg
2240.647	0.768	1	2back	Block4	2back/STIM_029.jpg
2244.65	0.761	1	2back	Block4	2back/STIM_029.jpg
2248.038	0.665	1	2back	Block4	2back/STIM_030.jpg
2251.489	0.582	1	2back	Block4	2back/STIM_030.jpg
2256.026	0.379	1	2back	Block4	2back/STIM_030.jpg
2258.863	0.349	1	2back	Block4	2back/STIM_031.jpg
2262.198	0.332	1	2back	Block4	2back/STIM_031.jpg
2266.205	0.393	1	2back	Block4	2back/STIM_031.jpg
2269.805	0.571	1	2back	Block4	2back/STIM_032.jpg
2274.091	0.369	1	2back	Block4	2back/STIM_032.jpg
2277.643	0.4	1	2back	Block4	2back/STIM_032.jpg
2281.554	0.377	1	2back	Block4	2back/STIM_033.jpg
2285.53	0.612	1	2back	Block4	2back/STIM_033.jpg
2289.311	0.474	1	2back	Block4	2back/STIM_033.jpg
2292.872	0.465	1	2back	Block4	2back/STIM_034.jpg
2295.467	0.35	1	2back	Block4	2back/STIM_034.jpg
2298.842	0.486	1	2back	Block4	2back/STIM_034.jpg
2302.385	0.528	1	2back	Block4	2back/STIM_035.jpg
2306.83	0.42	1	2back	Block4	2back/STIM_035.jpg
2310.129	0.536	1	2back	Block4	2back/STIM_035.jpg
2313.162	0.397	1	2back	Block4	2back/STIM_036.jpg
2316.285	0.56	1	2back	Block4	2back/STIM_036.jpg
2319.297	0.734	1	2back	Block4	2back/STIM_036.jpg
2322.795	0.369	1	2back	Block4	2back/STIM_037.jpg
2325.405	0.602	1	2back	Block4	2back/STIM_037.jpg
2328.517	0.46	1	2back	Block4	2back/STIM_037.jpg
2332.719	0.398	1	2back	Block4	2back/STIM_038.jpg
2335.66	0.641	1	2back	Block4	2back/STIM_038.jpg
2339.059	0.717	1	2back	Block4	2back/STIM_038.jpg
2343.589	0.648	1	2back	Block4	2back/STIM_039.jpg
2347.341	0.608	0	2back	Block4	2back/STIM_039.jpg
2350.374	0.47	1	2back	Block4	2back/STIM_039.jpg
2354.755	0.43	1	0back	Block4	0back/STIM_000.jpg
2359.007	0.597	1	0back	Block4	0back/STIM_000.jpg
2362.535	0.383	1	0back	Block4	0back/STIM_000.jpg
2366.832	0.503	0	0back	Block4	0back/STIM_001.jpg
2370.993	0.58	1	0back	Block4	0back/STIM_001.jpg
2375.218	0.405	1	0back	Block4	0back/STIM_001.jpg
2378.553	0.562	0	0back	Block4	0back/STIM_002.jpg
2381.178	0.57	1	0back	Block4	0back/STIM_002.jpg
2384.722	0.593	0	0back	Block4	0back/STIM_002.jpg
2387.97	0.464	1	0back	Block4	0back/STIM_003.jpg
2391.198	0.54	1	0back	Block4	0back/STIM_003.jpg
2394.881	0.39	1	0back	Block4	0back/STIM_003.jpg
2398.543	0.449	1	0back	Block4	0back/STIM_004.jpg
2401.106	0.401	0	0back	Block4	0back/STIM_004.jpg
2405.028	0.614	1	0back	Block4	0back/STIM_004.jpg
2408.204	0.61	1	0back	Block4	0back/STIM_005.jpg
2411.238	0.623	0	0back	Block4	0back/STIM_005.jpg
2414.262	0.472	1	0back	Block4	0back/STIM_005.jpg
2418.49	0.49	1	0back	Block4	0back/STIM_006.jpg
2422.218	0.5	0	0back	Block4	0back/STIM_006.jpg
2426.112	0.361	1	0back	Block4	0back/STIM_006.jpg
2430.433	0.373	1	0back	Block4	0back/STIM_007.jpg
2433.58	0.415	1	0back	Block4	0back/STIM_007.jpg
2437.524	0.529	1	0back	Block4	0back/STIM_007.jpg
2441.414	0.506	1	0back	Block4	0back/STIM_008.jpg
2444.339	0.571	1	0back	Block4	0back/STIM_008.jpg
2447.505	0.604	1	0back	Block4	0back/STIM_008.jpg
2451.696	0.498	0	0back	Block4	0back/STIM_009.jpg
2454.921	0.343	1	0back	Block4	0back/STIM_009.jpg
2458.732	0.573	1	0back	Block4	0back/STIM_009.jpg
2462.418	0.509	1	0back	Block4	0back/STIM_010.jpg
2466.641	0.34	1	0back	Block4	0back/STIM_010.jpg
2469.407	0.56	1	0back	Block4	0back/STIM_010.jpg
2473.658	0.5	0	0back	Block4	0back/STIM_011.jpg
2476.598	0.389	1	0back	Block4	0back/STIM_011.jpg
2479.782	0.619	1	0back	Block4	0back/STIM_011.jpg
2483.122	0.439	1	0back	Block4	0back/STIM_012.jpg
2486.952	0.515	1	0back	Block4	0back/STIM_012.jpg
2491.462	0.32	0	0back	Block4	0back/STIM_012.jpg
2494.731	0.374	1	0back	Block4	0back/STIM_013.jpg
2497.785	0.602	1	0back	Block4	0back/STIM_013.jpg
2501.907	0.334	0	0back	Block4	0back/STIM_013.jpg
2504.922	0.461	1	0back	Block4	0back/STIM_014.jpg
2508.63	0.318	1	0back	Block4	0back/STIM_014.jpg
2512.627	0.348	1	0back	Block4	0back/STIM_014.jpg
2515.564	0.512	1	0back	Block4	0back/STIM_015.jpg
2518.228	0.608	1	0back	Block4	0back/STIM_015.jpg
2521.197	0.506	1	0back	Block4	0back/STIM_015.jpg
2523.985	0.498	1	0back	Block4	0back/STIM_016.jpg
2527.259	0.423	1	0back	Block4	0back/STIM_016.jpg
2529.841	0.35	1	0back	Block4	0back/STIM_016.jpg
2533.58	0.36	1	0back	Block4	0back/STIM_017.jpg
2536.614	0.61	1	0back	Block4	0back/STIM_017.jpg
2539.982	0.427	1	0back	Block4	0back/STIM_017.jpg
2542.635	0.547	0	0back	Block4	0back/STIM_018.jpg
2546.744	0.375	1	0back	Block4	0back/STIM_018.jpg
2550.703	0.509	1	0back	Block4	0back/STIM_018.jpg
2555.148	0.436	1	0back	Block4	0back/STIM_019.jpg
2557.979	0.56	0	0back	Block4	0back/STIM_019.jpg
2562.425	0.422	1	0back	Block4	0back/STIM_019.jpg
