onset	duration	accuracy_binary	trial_type	learning_stage	stimulus
0.0	0.684	1	2back	Block1	2back/STIM_000.jpg
2.766	0.671	1	2back	Block1	2back/STIM_000.jpg
6.265	1.254	1	2back	Block1	2back/STIM_000.jpg
11.179	0.693	1	2back	Block1	2back/STIM_001.jpg
14.504	1.477	1	2back	Block1	2back/STIM_001.jpg
17.99	0.768	1	2back	Block1	2back/STIM_001.jpg
22.243	1.406	0	2back	Block1	2back/STIM_002.jpg
26.178	0.79	1	2back	Block1	2back/STIM_002.jpg
29.114	0.872	1	2back	Block1	2back/STIM_002.jpg
32.202	0.841	1	2back	Block1	2back/STIM_003.jpg
35.346	1.309	1	2back	Block1	2back/STIM_003.jpg
39.334	0.941	1	2back	Block1	2back/STIM_003.jpg
42.969	1.357	1	2back	Block1	2back/STIM_004.jpg
47.055	0.856	1	2back	Block1	2back/STIM_004.jpg
50.487	1.009	1	2back	Block1	2back/STIM_004.jpg
54.811	1.408	1	2back	Block1	2back/STIM_005.jpg
58.559	0.902	1	2back	Block1	2back/STIM_005.jpg
62.758	0.82	1	2back	Block1	2back/STIM_005.jpg
65.751	0.777	0	2back	Block1	2back/STIM_006.jpg
68.949	1.173	1	2back	Block1	2back/STIM_006.jpg
72.115	1.375	1	2back	Block1	2back/STIM_006.jpg
76.714	1.222	1	2back	Block1	2back/STIM_007.jpg
80.046	0.948	1	2back	Block1	2back/STIM_007.jpg
83.875	0.674	1	2back	Block1	2back/STIM_007.jpg
87.988	0.78	1	2back	Block1	2back/STIM_008.jpg
91.888	1.178	1	2back	Block1	2back/STIM_008.jpg
96.781	1.349	1	2back	Block1	2back/STIM_008.jpg
101.869	0.702	1	2back	Block1	2back/STIM_009.jpg
106.027	1.028	1	2back	Block1	2back/STIM_009.jpg
109.09	0.753	1	2back	Block1	2back/STIM_009.jpg
113.753	0.65	1	2back	Block1	2back/STIM_010.jpg
117.439	1.103	1	2back	Block1	2back/STIM_010.jpg
122.07	1.398	1	2back	Block1	2back/STIM_010.jpg
126.034	1.098	1	2back	Block1	2back/STIM_011.jpg
130.026	1.355	1	2back	Block1	2back/STIM_011.jpg
134.272	1.062	1	2back	Block1	2back/STIM_011.jpg
139.075	0.972	1	2back	Block1	2back/STIM_012.jpg
143.588	1.117	0	2back	Block1	2back/STIM_012.jpg
147.201	0.877	1	2back	Block1	2back/STIM_012.jpg
150.107	1.056	1	2back	Block1	2back/STIM_013.jpg
154.281	0.799	1	2back	Block1	2back/STIM_013.jpg
157.976	1.223	0	2back	Block1	2back/STIM_013.jpg
161.854	0.787	1	2back	Block1	2back/STIM_014.jpg
166.046	0.8	1	2back	Block1	2back/STIM_014.jpg
170.367	0.892	0	2back	Block1	2back/STIM_014.jpg
174.651	0.912	1	2back	Block1	2back/STIM_015.jpg
178.138	0.946	0	2back	Block1	2back/STIM_015.jpg
181.598	1.207	1	2back	Block1	2back/STIM_015.jpg
186.281	1.173	1	2back	Block1	2back/STIM_016.jpg
190.073	0.912	1	2back	Block1	2back/STIM_016.jpg
193.547	0.728	1	2back	Block1	2back/STIM_016.jpg
198.22	0.684	1	2back	Block1	2back/STIM_017.jpg
202.136	1.174	1	2back	Block1	2back/STIM_017.jpg
205.193	1.314	1	2back	Block1	2back/STIM_017.jpg
208.677	0.989	1	2back	Block1	2back/STIM_018.jpg
213.522	0.901	1	2back	Block1	2back/STIM_018.jpg
217.113	0.795	1	2back	Block1	2back/STIM_018.jpg
219.855	0.81	1	2back	Block1	2back/STIM_019.jpg
223.824	0.638	1	2back	Block1	2back/STIM_019.jpg
226.465	0.906	1	2back	Block1	2back/STIM_019.jpg
230.979	1.362	1	2back	Block1	2back/STIM_020.jpg
234.659	1.075	1	2back	Block1	2back/STIM_020.jpg
238.144	1.138	1	2back	Block1	2back/STIM_020.jpg
241.978	1.431	0	2back	Block1	2back/STIM_021.jpg
246.715	1.305	1	2back	Block1	2back/STIM_021.jpg
250.228	0.699	1	2back	Block1	2back/STIM_021.jpg
253.337	1.41	1	2back	Block1	2back/STIM_022.jpg
257.101	1.295	1	2back	Block1	2back/STIM_022.jpg
260.843	1.27	1	2back	Block1	2back/STIM_022.jpg
265.507	0.748	1	2back	Block1	2back/STIM_023.jpg
268.568	1.397	1	2back	Block1	2back/STIM_023.jpg
272.353	0.92	1	2back	Block1	2back/STIM_023.jpg
275.327	0.973	0	2back	Block1	2back/STIM_024.jpg
279.267	0.722	1	2back	Block1	2back/STIM_024.jpg
281.986	1.164	1	2back	Block1	2back/STIM_024.jpg
286.124	1.405	1	2back	Block1	2back/STIM_025.jpg
289.501	0.756	1	2back	Block1	2back/STIM_025.jpg
292.832	1.025	1	2back	Block1	2back/STIM_025.jpg
297.428	0.801	1	2back	Block1	2back/STIM_026.jpg
300.803	0.688	1	2back	Block1	2back/STIM_026.jpg
304.597	0.924	1	2back	Block1	2back/STIM_026.jpg
308.755	1.311	1	2back	Block1	2back/STIM_027.jpg
313.187	1.09	1	2back	Block1	2back/STIM_027.jpg
316.296	1.188	1	2back	Block1	2back/STIM_027.jpg
320.981	0.923	1	2back	Block1	2back/STIM_028.jpg
325.731	0.824	1	2back	Block1	2back/STIM_028.jpg
328.816	1.151	1	2back	Block1	2back/STIM_028.jpg
332.79	0.901	1	2back	Block1	2back/STIM_029.jpg
336.453	1.274	1	2back	Block1	2back/STIM_029.jpg
340.992	1.374	1	2back	Block1	2back/STIM_029.jpg
345.699	0.817	1	2back	Block1	2back/STIM_030.jpg
349.831	0.758	1	2back	Block1	2back/STIM_030.jpg
353.427	0.628	1	2back	Block1	2back/STIM_030.jpg
357.741	1.331	0	2back	Block1	2back/STIM_031.jpg
362.792	1.099	1	2back	Block1	2back/STIM_031.jpg
366.176	1.34	1	2back	Block1	2back/STIM_031.jpg
369.941	0.584	1	2back	Block1	2back/STIM_032.jpg
373.393	1.456	1	2back	Block1	2back/STIM_032.jpg
378.59	1.302	0	2back	Block1	2back/STIM_032.jpg
383.302	0.854	1	2back	Block1	2back/STIM_033.jpg
387.704	1.456	1	2back	Block1	2back/STIM_033.jpg
391.121	0.967	1	2back	Block1	2back/STIM_033.jpg
395.038	1.477	1	2back	Block1	2back/STIM_034.jpg
400.291	0.934	1	2back	Block1	2back/STIM_034.jpg
403.642	0.985	1	2back	Block1	2back/STIM_034.jpg
407.568	0.779	0	2back	Block1	2back/STIM_035.jpg
411.818	0.989	1	2back	Block1	2back/STIM_035.jpg
415.209	0.752	1	2back	Block1	2back/STIM_035.jpg
418.358	1.33	0	2back	Block1	2back/STIM_036.jpg
423.511	0.972	1	2back	Block1	2back/STIM_036.jpg
427.487	0.732	1	2back	Block1	2back/STIM_036.jpg
431.622	1.213	1	2back	Block1	2back/STIM_037.jpg
436.495	1.272	1	2back	Block1	2back/STIM_037.jpg
440.34	0.753	1	2back	Block1	2back/STIM_037.jpg
444.553	1.142	1	2back	Block1	2back/STIM_038.jpg
448.658	0.876	1	2back	Block1	2back/STIM_038.jpg
452.956	1.258	1	2back	Block1	2back/STIM_038.jpg
457.088	1.11	1	2back	Block1	2back/STIM_039.jpg
461.09	1.467	1	2back	Block1	2back/STIM_039.jpg
465.346	0.765	1	2back	Block1	2back/STIM_039.jpg
468.867	0.721	1	0back	Block1	0back/STIM_000.jpg
471.785	0.459	1	0back	Block1	0back/STIM_000.jpg
475.377	0.628	1	0back	Block1	0back/STIM_000.jpg
479.838	0.775	1	0back	Block1	0back/STIM_001.jpg
482.569	0.511	1	0back	Block1	0back/STIM_001.jpg
486.542	0.734	0	0back	Block1	0back/STIM_001.jpg
490.949	0.722	1	0back	Block1	0back/STIM_002.jpg
495.225	0.697	1	0back	Block1	0back/STIM_002.jpg
498.279	0.798	1	0back	Block1	0back/STIM_002.jpg
502.122	0.943	1	0back	Block1	0back/STIM_003.jpg
505.044	0.853	1	0back	Block1	0back/STIM_003.jpg
508.12	0.765	1	0back	Block1	0back/STIM_003.jpg
512.543	0.789	1	0back	Block1	0back/STIM_004.jpg
517.238	0.821	1	0back	Block1	0back/STIM_004.jpg
520.092	0.775	1	0back	Block1	0back/STIM_004.jpg
524.187	0.672	1	0back	Block1	0back/STIM_005.jpg
527.09	0.79	1	0back	Block1	0back/STIM_005.jpg
529.838	0.772	1	0back	Block1	0back/STIM_005.jpg
533.103	0.69	1	0back	Block1	0back/STIM_006.jpg
536.195	0.692	1	0back	Block1	0back/STIM_006.jpg
539.481	0.539	1	0back	Block1	0back/STIM_006.jpg
542.911	0.75	1	0back	Block1	0back/STIM_007.jpg
546.655	0.71	1	0back	Block1	0back/STIM_007.jpg
550.548	0.565	1	0back	Block1	0back/STIM_007.jpg
554.739	0.43	1	0back	Block1	0back/STIM_008.jpg
558.199	0.644	1	0back	Block1	0back/STIM_008.jpg
562.241	0.397	1	0back	Block1	0back/STIM_008.jpg
565.609	0.531	1	0back	Block1	0back/STIM_009.jpg
568.74	0.577	1	0back	Block1	0back/STIM_009.jpg
571.966	0.696	1	0back	Block1	0back/STIM_009.jpg
574.613	0.64	1	0back	Block1	0back/STIM_010.jpg
578.317	0.878	1	0back	Block1	0back/STIM_010.jpg
582.777	0.657	1	0back	Block1	0back/STIM_010.jpg
586.199	0.484	1	0back	Block1	0back/STIM_011.jpg
590.147	0.711	1	0back	Block1	0back/STIM_011.jpg
594.71	0.797	1	0back	Block1	0back/STIM_011.jpg
599.18	0.698	1	0back	Block1	0back/STIM_012.jpg
602.311	0.658	1	0back	Block1	0back/STIM_012.jpg
606.703	0.609	0	0back	Block1	0back/STIM_012.jpg
610.387	0.613	1	0back	Block1	0back/STIM_013.jpg
613.414	0.488	1	0back	Block1	0back/STIM_013.jpg
616.822	0.726	1	0back	Block1	0back/STIM_013.jpg
620.452	0.702	1	0back	Block1	0back/STIM_014.jpg
623.908	0.806	1	0back	Block1	0back/STIM_014.jpg
627.788	0.67	1	0back	Block1	0back/STIM_014.jpg
631.398	0.435	1	0back	Block1	0back/STIM_015.jpg
635.428	0.847	1	0back	Block1	0back/STIM_015.jpg
639.465	0.463	1	0back	Block1	0back/STIM_015.jpg
642.007	0.688	1	0back	Block1	0back/STIM_016.jpg
646.368	0.524	1	0back	Block1	0back/STIM_016.jpg
650.493	0.633	1	0back	Block1	0back/STIM_016.jpg
654.301	0.823	1	0back	Block1	0back/STIM_017.jpg
658.746	0.554	1	0back	Block1	0back/STIM_017.jpg
662.061	0.489	1	0back	Block1	0back/STIM_017.jpg
666.432	0.728	1	0back	Block1	0back/STIM_018.jpg
670.414	0.804	1	0back	Block1	0back/STIM_018.jpg
673.695	0.463	1	0back	Block1	0back/STIM_018.jpg
677.984	0.768	1	0back	Block1	0back/STIM_019.jpg
681.763	0.588	1	0back	Block1	0back/STIM_019.jpg
684.788	0.526	1	0back	Block1	0back/STIM_019.jpg
688.247	0.692	1	2back	Block2	2back/STIM_000.jpg
692.123	0.669	1	2back	Block2	2back/STIM_000.jpg
695.278	1.016	1	2back	Block2	2back/STIM_000.jpg
698.956	1.191	1	2back	Block2	2back/STIM_001.jpg
704.046	1.087	1	2back	Block2	2back/STIM_001.jpg
707.051	0.78	1	2back	Block2	2back/STIM_001.jpg
710.873	0.966	1	2back	Block2	2back/STIM_002.jpg
715.449	0.95	0	2back	Block2	2back/STIM_002.jpg
719.473	0.61	1	2back	Block2	2back/STIM_002.jpg
723.836	0.782	1	2back	Block2	2back/STIM_003.jpg
726.578	0.945	0	2back	Block2	2back/STIM_003.jpg
731.209	1.074	1	2back	Block2	2back/STIM_003.jpg
734.784	0.878	1	2back	Block2	2back/STIM_004.jpg
737.987	1.03	1	2back	Block2	2back/STIM_004.jpg
742.867	1.002	1	2back	Block2	2back/STIM_004.jpg
745.93	0.672	1	2back	Block2	2back/STIM_005.jpg
750.36	1.105	0	2back	Block2	2back/STIM_005.jpg
755.027	0.679	1	2back	Block2	2back/STIM_005.jpg
759.61	1.187	1	2back	Block2	2back/STIM_006.jpg
764.274	0.916	1	2back	Block2	2back/STIM_006.jpg
767.572	0.99	1	2back	Block2	2back/STIM_006.jpg
770.765	0.567	0	2back	Block2	2back/STIM_007.jpg
773.75	0.522	1	2back	Block2	2back/STIM_007.jpg
776.912	1.105	1	2back	Block2	2back/STIM_007.jpg
781.021	0.571	1	2back	Block2	2back/STIM_008.jpg
784.694	0.646	1	2back	Block2	2back/STIM_008.jpg
789.143	0.768	1	2back	Block2	2back/STIM_008.jpg
793.602	0.829	1	2back	Block2	2back/STIM_009.jpg
797.346	0.832	1	2back	Block2	2back/STIM_009.jpg
800.368	0.868	0	2back	Block2	2back/STIM_009.jpg
803.491	1.303	1	2back	Block2	2back/STIM_010.jpg
807.802	1.072	1	2back	Block2	2back/STIM_010.jpg
811.547	1.032	1	2back	Block2	2back/STIM_010.jpg
816.302	0.941	1	2back	Block2	2back/STIM_011.jpg
819.418	0.6	1	2back	Block2	2back/STIM_011.jpg
823.151	1.096	1	2back	Block2	2back/STIM_011.jpg
826.263	0.635	1	2back	Block2	2back/STIM_012.jpg
829.051	0.787	0	2back	Block2	2back/STIM_012.jpg
832.267	0.814	1	2back	Block2	2back/STIM_012.jpg
835.29	1.086	1	2back	Block2	2back/STIM_013.jpg
840.189	0.784	1	2back	Block2	2back/STIM_013.jpg
844.239	0.875	1	2back	Block2	2back/STIM_013.jpg
847.207	0.59	1	2back	Block2	2back/STIM_014.jpg
850.338	0.593	1	2back	Block2	2back/STIM_014.jpg
853.225	0.772	1	2back	Block2	2back/STIM_014.jpg
857.236	0.807	1	2back	Block2	2back/STIM_015.jpg
861.969	0.551	0	2back	Block2	2back/STIM_015.jpg
865.705	0.729	1	2back	Block2	2back/STIM_015.jpg
868.783	1.264	1	2back	Block2	2back/STIM_016.jpg
872.785	1.222	1	2back	Block2	2back/STIM_016.jpg
877.556	1.036	1	2back	Block2	2back/STIM_016.jpg
880.935	0.878	1	2back	Block2	2back/STIM_017.jpg
884.115	1.116	1	2back	Block2	2back/STIM_017.jpg
888.07	0.499	1	2back	Block2	2back/STIM_017.jpg
891.846	0.779	1	2back	Block2	2back/STIM_018.jpg
894.984	0.872	0	2back	Block2	2back/STIM_018.jpg
898.586	0.519	1	2back	Block2	2back/STIM_018.jpg
902.095	0.768	1	2back	Block2	2back/STIM_019.jpg
906.035	1.119	0	2back	Block2	2back/STIM_019.jpg
910.4	0.969	1	2back	Block2	2back/STIM_019.jpg
915.078	1.204	1	2back	Block2	2back/STIM_020.jpg
918.947	0.725	1	2back	Block2	2back/STIM_020.jpg
923.351	0.738	1	2back	Block2	2back/STIM_020.jpg
927.525	1.257	1	2back	Block2	2back/STIM_021.jpg
930.928	0.662	1	2back	Block2	2back/STIM_021.jpg
934.55	0.808	1	2back	Block2	2back/STIM_021.jpg
937.541	1.018	1	2back	Block2	2back/STIM_022.jpg
942.085	0.745	1	2back	Block2	2back/STIM_022.jpg
945.063	1.02	1	2back	Block2	2back/STIM_022.jpg
949.757	0.994	1	2back	Block2	2back/STIM_023.jpg
953.496	1.01	1	2back	Block2	2back/STIM_023.jpg
958.365	0.668	1	2back	Block2	2back/STIM_023.jpg
961.15	0.862	0	2back	Block2	2back/STIM_024.jpg
965.257	0.665	0	2back	Block2	2back/STIM_024.jpg
968.238	1.032	1	2back	Block2	2back/STIM_024.jpg
971.501	1.04	1	2back	Block2	2back/STIM_025.jpg
975.426	1.018	1	2back	Block2	2back/STIM_025.jpg
978.49	0.951	1	2back	Block2	2back/STIM_025.jpg
982.074	0.794	1	2back	Block2	2back/STIM_026.jpg
986.48	0.516	1	2back	Block2	2back/STIM_026.jpg
990.727	0.816	1	2back	Block2	2back/STIM_026.jpg
994.509	0.966	1	2back	Block2	2back/STIM_027.jpg
997.854	1.063	1	2back	Block2	2back/STIM_027.jpg
1000.982	1.174	1	2back	Block2	2back/STIM_027.jpg
1004.019	1.013	1	2back	Block2	2back/STIM_028.jpg
1007.339	0.624	1	2back	Block2	2back/STIM_028.jpg
1009.98	0.88	1	2back	Block2	2back/STIM_028.jpg
1013.65	1.24	0	2back	Block2	2back/STIM_029.jpg
1018.394	0.989	1	2back	Block2	2back/STIM_029.jpg
1021.265	0.589	0	2back	Block2	2back/STIM_029.jpg
1025.337	0.904	1	2back	Block2	2back/STIM_030.jpg
1028.784	0.828	1	2back	Block2	2back/STIM_030.jpg
1033.332	0.956	1	2back	Block2	2back/STIM_030.jpg
1036.451	0.748	1	2back	Block2	2back/STIM_031.jpg
1040.85	0.866	1	2back	Block2	2back/STIM_031.jpg
1045.41	0.69	1	2back	Block2	2back/STIM_031.jpg
1048.856	0.596	1	2back	Block2	2back/STIM_032.jpg
1052.398	0.762	1	2back	Block2	2back/STIM_032.jpg
1056.579	0.493	1	2back	Block2	2back/STIM_032.jpg
1059.779	1.199	1	2back	Block2	2back/STIM_033.jpg
1064.27	1.046	1	2back	Block2	2back/STIM_033.jpg
1067.269	0.899	1	2back	Block2	2back/STIM_033.jpg
1070.683	0.918	1	2back	Block2	2back/STIM_034.jpg
1074.711	0.802	1	2back	Block2	2back/STIM_034.jpg
1079.324	0.754	1	2back	Block2	2back/STIM_034.jpg
1082.899	0.85	1	2back	Block2	2back/STIM_035.jpg
1085.675	1.014	1	2back	Block2	2back/STIM_035.jpg
1088.672	0.867	1	2back	Block2	2back/STIM_035.jpg
1092.281	1.04	1	2back	Block2	2back/STIM_036.jpg
1097.008	0.629	1	2back	Block2	2back/STIM_036.jpg
1099.66	0.599	1	2back	Block2	2back/STIM_036.jpg
1102.829	0.901	1	2back	Block2	2back/STIM_037.jpg
1106.384	0.712	1	2back	Block2	2back/STIM_037.jpg
1110.19	0.664	1	2back	Block2	2back/STIM_037.jpg
1114.765	0.795	0	2back	Block2	2back/STIM_038.jpg
1119.245	0.847	1	2back	Block2	2back/STIM_038.jpg
1123.817	0.666	1	2back	Block2	2back/STIM_038.jpg
1128.392	0.89	1	2back	Block2	2back/STIM_039.jpg
1131.202	1.251	1	2back	Block2	2back/STIM_039.jpg
1135.189	0.793	1	2back	Block2	2back/STIM_039.jpg
1138.017	0.446	1	0back	Block2	0back/STIM_000.jpg
1141.122	0.352	1	0back	Block2	0back/STIM_000.jpg
1145.244	0.74	1	0back	Block2	0back/STIM_000.jpg
1149.64	0.766	1	0back	Block2	0back/STIM_001.jpg
1153.775	0.591	1	0back	Block2	0back/STIM_001.jpg
1156.574	0.506	1	0back	Block2	0back/STIM_001.jpg
1159.112	0.522	1	0back	Block2	0back/STIM_002.jpg
1163.332	0.716	1	0back	Block2	0back/STIM_002.jpg
1167.339	0.944	1	0back	Block2	0back/STIM_002.jpg
1171.072	0.81	1	0back	Block2	0back/STIM_003.jpg
1173.922	0.612	1	0back	Block2	0back/STIM_003.jpg
1176.837	0.7	1	0back	Block2	0back/STIM_003.jpg
1180.854	0.625	1	0back	Block2	0back/STIM_004.jpg
1184.009	0.75	1	0back	Block2	0back/STIM_004.jpg
1188.008	0.712	1	0back	Block2	0back/STIM_004.jpg
1192.458	0.459	1	0back	Block2	0back/STIM_005.jpg
1194.879	0.679	1	0back	Block2	0back/STIM_005.jpg
1198.847	0.919	1	0back	Block2	0back/STIM_005.jpg
1203.092	0.488	0	0back	Block2	0back/STIM_006.jpg
1207.1	0.795	1	0back	Block2	0back/STIM_006.jpg
1211.182	0.858	1	0back	Block2	0back/STIM_006.jpg
1215.901	0.575	1	0back	Block2	0back/STIM_007.jpg
1218.783	0.433	1	0back	Block2	0back/STIM_007.jpg
1223.197	0.702	1	0back	Block2	0back/STIM_007.jpg
1226.531	0.748	1	0back	Block2	0back/STIM_008.jpg
1229.492	0.6	1	0back	Block2	0back/STIM_008.jpg
1233.61	0.764	1	0back	Block2	0back/STIM_008.jpg
1237.724	0.628	1	0back	Block2	0back/STIM_009.jpg
1241.285	0.597	1	0back	Block2	0back/STIM_009.jpg
1245.756	0.768	0	0back	Block2	0back/STIM_009.jpg
1250.039	0.488	1	0back	Block2	0back/STIM_010.jpg
1253.802	0.762	1	0back	Block2	0back/STIM_010.jpg
1257.73	0.632	1	0back	Block2	0back/STIM_010.jpg
1261.198	0.451	1	0back	Block2	0back/STIM_011.jpg
1265.088	0.624	1	0back	Block2	0back/STIM_011.jpg
1268.08	0.563	1	0back	Block2	0back/STIM_011.jpg
1270.603	0.631	1	0back	Block2	0back/STIM_012.jpg
1273.799	0.444	1	0back	Block2	0back/STIM_012.jpg
1277.894	0.7	1	0back	Block2	0back/STIM_012.jpg
1281.095	0.839	1	0back	Block2	0back/STIM_013.jpg
1284.606	0.638	0	0back	Block2	0back/STIM_013.jpg
1288.88	0.792	1	0back	Block2	0back/STIM_013.jpg
1292.234	0.831	1	0back	Block2	0back/STIM_014.jpg
1295.616	0.638	1	0back	Block2	0back/STIM_014.jpg
1299.764	0.62	1	0back	Block2	0back/STIM_014.jpg
1302.634	0.553	1	0back	Block2	0back/STIM_015.jpg
1305.332	0.643	1	0back	Block2	0back/STIM_015.jpg
1308.891	0.847	1	0back	Block2	0back/STIM_015.jpg
1312.255	0.738	1	0back	Block2	0back/STIM_016.jpg
1316.518	0.441	1	0back	Block2	0back/STIM_016.jpg
1320.454	0.435	1	0back	Block2	0back/STIM_016.jpg
1324.736	0.522	1	0back	Block2	0back/STIM_017.jpg
1329.179	0.707	1	0back	Block2	0back/STIM_017.jpg
1333.372	0.832	1	0back	Block2	0back/STIM_017.jpg
1336.614	0.749	1	0back	Block2	0back/STIM_018.jpg
1339.605	0.626	1	0back	Block2	0back/STIM_018.jpg
1342.711	0.462	1	0back	Block2	0back/STIM_018.jpg
1346.207	0.607	1	0back	Block2	0back/STIM_019.jpg
1348.789	0.513	1	0back	Block2	0back/STIM_019.jpg
1352.266	0.506	1	0back	Block2	0back/STIM_019.jpg
1355.212	0.848	1	2back	Block3	2back/STIM_000.jpg
1358.564	0.815	1	2back	Block3	2back/STIM_000.jpg
1362.919	1.007	1	2back	Block3	2back/STIM_000.jpg
1366.957	0.845	1	2back	Block3	2back/STIM_001.jpg
1371.265	0.605	1	2back	Block3	2back/STIM_001.jpg
1375.17	0.533	1	2back	Block3	2back/STIM_001.jpg
1377.814	0.673	0	2back	Block3	2back/STIM_002.jpg
1382.267	1.041	1	2back	Block3	2back/STIM_002.jpg
1386.225	0.711	1	2back	Block3	2back/STIM_002.jpg
1389.929	0.776	1	2back	Block3	2back/STIM_003.jpg
1393.512	0.941	1	2back	Block3	2back/STIM_003.jpg
1397.909	1.038	1	2back	Block3	2back/STIM_003.jpg
1402.161	0.65	1	2back	Block3	2back/STIM_004.jpg
1406.198	0.804	1	2back	Block3	2back/STIM_004.jpg
1410.359	0.448	1	2back	Block3	2back/STIM_004.jpg
1414.435	0.736	1	2back	Block3	2back/STIM_005.jpg
1417.647	0.785	1	2back	Block3	2back/STIM_005.jpg
1420.48	0.756	1	2back	Block3	2back/STIM_005.jpg
1424.582	1.072	1	2back	Block3	2back/STIM_006.jpg
1428.201	0.689	1	2back	Block3	2back/STIM_006.jpg
1432.038	0.647	1	2back	Block3	2back/STIM_006.jpg
1435.386	0.859	1	2back	Block3	2back/STIM_007.jpg
1438.958	0.738	1	2back	Block3	2back/STIM_007.jpg
1442.732	0.707	1	2back	Block3	2back/STIM_007.jpg
1446.14	0.902	1	2back	Block3	2back/STIM_008.jpg
1450.379	0.726	1	2back	Block3	2back/STIM_008.jpg
1453.83	1.041	1	2back	Block3	2back/STIM_008.jpg
1458.371	0.533	1	2back	Block3	2back/STIM_009.jpg
1461.255	1.026	1	2back	Block3	2back/STIM_009.jpg
1465.365	0.605	1	2back	Block3	2back/STIM_009.jpg
1468.637	0.757	1	2back	Block3	2back/STIM_010.jpg
1472.247	0.777	1	2back	Block3	2back/STIM_010.jpg
1476.764	0.762	1	2back	Block3	2back/STIM_010.jpg
1481.212	0.794	1	2back	Block3	2back/STIM_011.jpg
1484.497	0.619	1	2back	Block3	2back/STIM_011.jpg
1489.012	0.975	1	2back	Block3	2back/STIM_011.jpg
1493.322	0.998	1	2back	Block3	2back/STIM_012.jpg
1496.685	0.964	1	2back	Block3	2back/STIM_012.jpg
1499.904	1.05	1	2back	Block3	2back/STIM_012.jpg
1504.483	1.036	1	2back	Block3	2back/STIM_013.jpg
1508.642	0.604	0	2back	Block3	2back/STIM_013.jpg
1511.713	0.805	1	2back	Block3	2back/STIM_013.jpg
1515.583	0.649	1	2back	Block3	2back/STIM_014.jpg
1519.079	0.698	1	2back	Block3	2back/STIM_014.jpg
1523.013	0.889	1	2back	Block3	2back/STIM_014.jpg
1526.203	1.085	1	2back	Block3	2back/STIM_015.jpg
1529.668	0.674	1	2back	Block3	2back/STIM_015.jpg
1533.929	0.574	1	2back	Block3	2back/STIM_015.jpg
1536.499	0.746	1	2back	Block3	2back/STIM_016.jpg
1541.141	0.777	1	2back	Block3	2back/STIM_016.jpg
1545.239	0.924	1	2back	Block3	2back/STIM_016.jpg
1548.511	0.813	0	2back	Block3	2back/STIM_017.jpg
1552.998	0.519	1	2back	Block3	2back/STIM_017.jpg
1556.241	1.072	1	2back	Block3	2back/STIM_017.jpg
1559.667	0.799	1	2back	Block3	2back/STIM_018.jpg
1562.879	0.769	1	2back	Block3	2back/STIM_018.jpg
1567.525	0.854	1	2back	Block3	2back/STIM_018.jpg
1570.369	0.597	1	2back	Block3	2back/STIM_019.jpg
1573.847	0.88	1	2back	Block3	2back/STIM_019.jpg
1578.094	1.013	1	2back	Block3	2back/STIM_019.jpg
1581.736	0.848	1	2back	Block3	2back/STIM_020.jpg
1585.478	0.782	1	2back	Block3	2back/STIM_020.jpg
1588.769	0.687	1	2back	Block3	2back/STIM_020.jpg
1592.843	0.465	1	2back	Block3	2back/STIM_021.jpg
1597.207	0.443	1	2back	Block3	2back/STIM_021.jpg
1599.995	0.683	1	2back	Block3	2back/STIM_021.jpg
1603.967	0.887	1	2back	Block3	2back/STIM_022.jpg
1608.388	0.886	1	2back	Block3	2back/STIM_022.jpg
1611.404	0.696	1	2back	Block3	2back/STIM_022.jpg
1615.513	0.715	1	2back	Block3	2back/STIM_023.jpg
1618.646	0.445	1	2back	Block3	2back/STIM_023.jpg
1622.553	0.495	1	2back	Block3	2back/STIM_023.jpg
1626.347	0.81	1	2back	Block3	2back/STIM_024.jpg
1630.701	1.042	1	2back	Block3	2back/STIM_024.jpg
1635.334	0.89	1	2back	Block3	2back/STIM_024.jpg
1639.977	0.608	1	2back	Block3	2back/STIM_025.jpg
1643.065	0.818	1	2back	Block3	2back/STIM_025.jpg
1646.066	0.733	1	2back	Block3	2back/STIM_025.jpg
1649.624	0.954	1	2back	Block3	2back/STIM_026.jpg
1653.989	1.005	1	2back	Block3	2back/STIM_026.jpg
1658.23	0.669	1	2back	Block3	2back/STIM_026.jpg
1661.635	0.658	1	2back	Block3	2back/STIM_027.jpg
1664.962	0.689	1	2back	Block3	2back/STIM_027.jpg
1668.155	0.492	1	2back	Block3	2back/STIM_027.jpg
1671.99	0.746	1	2back	Block3	2back/STIM_028.jpg
1675.271	0.693	1	2back	Block3	2back/STIM_028.jpg
1678.795	0.548	1	2back	Block3	2back/STIM_028.jpg
1681.282	0.453	1	2back	Block3	2back/STIM_029.jpg
1684.7	0.931	1	2back	Block3	2back/STIM_029.jpg
1689.365	0.579	1	2back	Block3	2back/STIM_029.jpg
1693.534	0.493	1	2back	Block3	2back/STIM_030.jpg
1697.484	0.538	1	2back	Block3	2back/STIM_030.jpg
1701.913	1.025	1	2back	Block3	2back/STIM_030.jpg
1705.695	0.939	1	2back	Block3	2back/STIM_031.jpg
1709.248	1.011	0	2back	Block3	2back/STIM_031.jpg
1712.444	0.85	1	2back	Block3	2back/STIM_031.jpg
1716.56	1.052	1	2back	Block3	2back/STIM_032.jpg
1720.473	0.97	1	2back	Block3	2back/STIM_032.jpg
1724.58	0.928	1	2back	Block3	2back/STIM_032.jpg
1728.367	0.968	1	2back	Block3	2back/STIM_033.jpg
1731.425	1.01	1	2back	Block3	2back/STIM_033.jpg
1735.529	0.61	1	2back	Block3	2back/STIM_033.jpg
1738.969	0.456	1	2back	Block3	2back/STIM_034.jpg
1741.738	0.695	1	2back	Block3	2back/STIM_034.jpg
1744.684	0.865	1	2back	Block3	2back/STIM_034.jpg
1747.486	0.488	1	2back	Block3	2back/STIM_035.jpg
1750.892	0.661	1	2back	Block3	2back/STIM_035.jpg
1755.38	0.75	1	2back	Block3	2back/STIM_035.jpg
1760.055	0.425	1	2back	Block3	2back/STIM_036.jpg
1764.433	0.871	1	2back	Block3	2back/STIM_036.jpg
1769.057	0.882	1	2back	Block3	2back/STIM_036.jpg
1773.279	0.771	1	2back	Block3	2back/STIM_037.jpg
1776.312	0.555	1	2back	Block3	2back/STIM_037.jpg
1779.952	0.751	1	2back	Block3	2back/STIM_037.jpg
1783.068	0.605	1	2back	Block3	2back/STIM_038.jpg
1786.992	0.484	1	2back	Block3	2back/STIM_038.jpg
1790.192	0.902	1	2back	Block3	2back/STIM_038.jpg
1795.006	0.978	1	2back	Block3	2back/STIM_039.jpg
1798.363	0.523	1	2back	Block3	2back/STIM_039.jpg
1800.989	0.592	1	2back	Block3	2back/STIM_039.jpg
1804.175	0.615	1	0back	Block3	0back/STIM_000.jpg
1808.171	0.572	1	0back	Block3	0back/STIM_000.jpg
1810.954	0.62	0	0back	Block3	0back/STIM_000.jpg
1815.217	0.514	1	0back	Block3	0back/STIM_001.jpg
1819.47	0.428	1	0back	Block3	0back/STIM_001.jpg
1822.844	0.844	1	0back	Block3	0back/STIM_001.jpg
1825.75	0.752	1	0back	Block3	0back/STIM_002.jpg
1829.963	0.503	1	0back	Block3	0back/STIM_002.jpg
1834.405	0.821	1	0back	Block3	0back/STIM_002.jpg
1838.122	0.606	1	0back	Block3	0back/STIM_003.jpg
1841.817	0.623	1	0back	Block3	0back/STIM_003.jpg
1845.168	0.492	1	0back	Block3	0back/STIM_003.jpg
1848.125	0.428	1	0back	Block3	0back/STIM_004.jpg
1851.696	0.588	1	0back	Block3	0back/STIM_004.jpg
1855.987	0.397	1	0back	Block3	0back/STIM_004.jpg
1858.815	0.578	1	0back	Block3	0back/STIM_005.jpg
1862.848	0.818	1	0back	Block3	0back/STIM_005.jpg
1866.34	0.609	1	0back	Block3	0back/STIM_005.jpg
1869.775	0.499	1	0back	Block3	0back/STIM_006.jpg
1873.05	0.466	1	0back	Block3	0back/STIM_006.jpg
1876.112	0.85	1	0back	Block3	0back/STIM_006.jpg
1880.674	0.634	1	0back	Block3	0back/STIM_007.jpg
1883.329	0.74	1	0back	Block3	0back/STIM_007.jpg
1887.042	0.449	1	0back	Block3	0back/STIM_007.jpg
1890.118	0.344	1	0back	Block3	0back/STIM_008.jpg
1894.069	0.717	1	0back	Block3	0back/STIM_008.jpg
1898.555	0.661	1	0back	Block3	0back/STIM_008.jpg
1902.325	0.8	1	0back	Block3	0back/STIM_009.jpg
1905.333	0.815	1	0back	Block3	0back/STIM_009.jpg
1908.289	0.598	1	0back	Block3	0back/STIM_009.jpg
1911.045	0.671	1	0back	Block3	0back/STIM_010.jpg
1915.358	0.735	1	0back	Block3	0back/STIM_010.jpg
1918.913	0.808	1	0back	Block3	0back/STIM_010.jpg
1922.398	0.547	1	0back	Block3	0back/STIM_011.jpg
1925.812	0.73	1	0back	Block3	0back/STIM_011.jpg
1930.489	0.634	1	0back	Block3	0back/STIM_011.jpg
1933.33	0.516	1	0back	Block3	0back/STIM_012.jpg
1936.977	0.783	1	0back	Block3	0back/STIM_012.jpg
1940.569	0.497	1	0back	Block3	0back/STIM_012.jpg
1944.141	0.494	1	0back	Block3	0back/STIM_013.jpg
1948.318	0.69	1	0back	Block3	0back/STIM_013.jpg
1952.865	0.592	1	0back	Block3	0back/STIM_013.jpg
1956.547	0.52	1	0back	Block3	0back/STIM_014.jpg
1959.486	0.781	1	0back	Block3	0back/STIM_014.jpg
1962.995	0.861	1	0back	Block3	0back/STIM_014.jpg
1966.815	0.517	1	0back	Block3	0back/STIM_015.jpg
1969.937	0.824	1	0back	Block3	0back/STIM_015.jpg
1972.678	0.699	1	0back	Block3	0back/STIM_015.jpg
1976.907	0.557	1	0back	Block3	0back/STIM_016.jpg
1980.199	0.692	1	0back	Block3	0back/STIM_016.jpg
1983.946	0.512	1	0back	Block3	0back/STIM_016.jpg
1986.933	0.489	1	0back	Block3	0back/STIM_017.jpg
1991.302	0.798	1	0back	Block3	0back/STIM_017.jpg
1994.187	0.732	1	0back	Block3	0back/STIM_017.jpg
1998.322	0.659	1	0back	Block3	0back/STIM_018.jpg
2001.915	0.719	1	0back	Block3	0back/STIM_018.jpg
2004.928	0.873	1	0back	Block3	0back/STIM_018.jpg
2008.517	0.462	1	0back	Block3	0back/STIM_019.jpg
2012.725	0.901	1	0back	Block3	0back/STIM_019.jpg
2017.03	0.544	1	0back	Block3	0back/STIM_019.jpg
2019.774	0.532	1	2back	Block4	2back/STIM_000.jpg
2022.945	0.983	1	2back	Block4	2back/STIM_000.jpg
2027.31	0.675	1	2back	Block4	2back/STIM_000.jpg
2030.871	0.547	1	2back	Block4	2back/STIM_001.jpg
2034.768	0.938	1	2back	Block4	2back/STIM_001.jpg
2039.361	0.728	1	2back	Block4	2back/STIM_001.jpg
2042.484	0.635	1	2back	Block4	2back/STIM_002.jpg
2045.626	0.948	1	2back	Block4	2back/STIM_002.jpg
2050.154	0.516	1	2back	Block4	2back/STIM_002.jpg
2054.585	0.563	1	2back	Block4	2back/STIM_003.jpg
2057.196	0.799	1	2back	Block4	2back/STIM_003.jpg
2060.322	0.466	1	2back	Block4	2back/STIM_003.jpg
2063.313	1.1	1	2back	Block4	2back/STIM_004.jpg
2067.45	0.502	1	2back	Block4	2back/STIM_004.jpg
2070.527	0.872	1	2back	Block4	2back/STIM_004.jpg
2074.283	0.674	1	2back	Block4	2back/STIM_005.jpg
2076.973	0.532	1	2back	Block4	2back/STIM_005.jpg
2079.537	0.912	1	2back	Block4	2back/STIM_005.jpg
2083.867	1.059	1	2back	Block4	2back/STIM_006.jpg
2088.046	1.067	1	2back	Block4	2back/STIM_006.jpg
2091.649	0.89	1	2back	Block4	2back/STIM_006.jpg
2095.348	0.597	1	2back	Block4	2back/STIM_007.jpg
2098.461	0.902	1	2back	Block4	2back/STIM_007.jpg
2102.187	0.917	0	2back	Block4	2back/STIM_007.jpg
2106.583	0.634	1	2back	Block4	2back/STIM_008.jpg
2110.566	0.601	1	2back	Block4	2back/STIM_008.jpg
2114.592	0.994	1	2back	Block4	2back/STIM_008.jpg
2117.695	0.818	1	2back	Block4	2back/STIM_009.jpg
2121.936	0.497	1	2back	Block4	2back/STIM_009.jpg
2124.943	0.628	1	2back	Block4	2back/STIM_009.jpg
2127.64	0.934	1	2back	Block4	2back/STIM_010.jpg
2130.946	0.832	1	2back	Block4	2back/STIM_010.jpg
2133.888	0.712	1	2back	Block4	2back/STIM_010.jpg
2137.573	0.622	1	2back	Block4	2back/STIM_011.jpg
2140.752	1.169	1	2back	Block4	2back/STIM_011.jpg
2144.839	0.697	1	2back	Block4	2back/STIM_011.jpg
2148.969	0.995	1	2back	Block4	2back/STIM_012.jpg
2153.402	0.992	1	2back	Block4	2back/STIM_012.jpg
2157.926	0.876	1	2back	Block4	2back/STIM_012.jpg
2161.497	0.428	1	2back	Block4	2back/STIM_013.jpg
2165.518	0.753	1	2back	Block4	2back/STIM_013.jpg
2169.708	1.056	1	2back	Block4	2back/STIM_013.jpg
2173.977	0.598	1	2back	Block4	2back/STIM_014.jpg
2177.835	0.794	1	2back	Block4	2back/STIM_014.jpg
2181.107	0.907	1	2back	Block4	2back/STIM_014.jpg
2185.14	0.547	1	2back	Block4	2back/STIM_015.jpg
2189.229	1.001	1	2back	Block4	2back/STIM_015.jpg
2193.027	0.956	1	2back	Block4	2back/STIM_015.jpg
2197.412	0.837	1	2back	Block4	2back/STIM_016.jpg
2201.051	0.924	1	2back	Block4	2back/STIM_016.jpg
2205.559	0.911	1	2back	Block4	2back/STIM_016.jpg
2208.687	0.684	1	2back	Block4	2back/STIM_017.jpg
2211.937	0.801	1	2back	Block4	2back/STIM_017.jpg
2215.25	0.533	1	2back	Block4	2back/STIM_017.jpg
2218.04	0.822	1	2back	Block4	2back/STIM_018.jpg
2221.463	1.023	1	2back	Block4	2back/STIM_018.jpg
2224.497	0.86	1	2back	Block4	2back/STIM_018.jpg
2228.372	0.604	1	2back	Block4	2back/STIM_019.jpg
2231.11	0.955	1	2back	Block4	2back/STIM_019.jpg
2235.381	0.679	1	2back	Block4	2back/STIM_019.jpg
2238.225	0.461	1	2back	Block4	2back/STIM_020.jpg
2241.745	0.924	1	2back	Block4	2back/STIM_020.jpg
2245.02	1.041	1	2back	Block4	2back/STIM_020.jpg
2249.806	0.691	1	2back	Block4	2back/STIM_021.jpg
2253.996	0.899	1	2back	Block4	2back/STIM_021.jpg
2256.912	0.916	1	2back	Block4	2back/STIM_021.jpg
2261.445	1.035	1	2back	Block4	2back/STIM_022.jpg
2265.963	0.793	1	2back	Block4	2back/STIM_022.jpg
2269.622	0.976	1	2back	Block4	2back/STIM_022.jpg
2274.335	0.835	1	2back	Block4	2back/STIM_023.jpg
2278.223	0.531	1	2back	Block4	2back/STIM_023.jpg
2281.14	0.936	1	2back	Block4	2back/STIM_023.jpg
2285.26	1.059	1	2back	Block4	2back/STIM_024.jpg
2288.98	0.662	1	2back	Block4	2back/STIM_024.jpg
2292.344	0.844	1	2back	Block4	2back/STIM_024.jpg
2295.455	0.657	1	2back	Block4	2back/STIM_025.jpg
2299.387	0.701	1	2back	Block4	2back/STIM_025.jpg
2303.767	0.836	1	2back	Block4	2back/STIM_025.jpg
2308.42	0.475	1	2back	Block4	2back/STIM_026.jpg
2311.292	0.668	1	2back	Block4	2back/STIM_026.jpg
2314.169	0.636	1	2back	Block4	2back/STIM_026.jpg
2318.218	0.9	1	2back	Block4	2back/STIM_027.jpg
2321.479	0.936	1	2back	Block4	2back/STIM_027.jpg
2324.693	0.55	1	2back	Block4	2back/STIM_027.jpg
2328.408	0.577	1	2back	Block4	2back/STIM_028.jpg
2331.117	0.891	1	2back	Block4	2back/STIM_028.jpg
2334.424	0.95	1	2back	Block4	2back/STIM_028.jpg
2338.269	1.042	1	2back	Block4	2back/STIM_029.jpg
2342.892	0.652	1	2back	Block4	2back/STIM_029.jpg
2345.611	0.786	1	2back	Block4	2back/STIM_029.jpg
2348.53	0.846	1	2back	Block4	2back/STIM_030.jpg
2351.693	0.824	1	2back	Block4	2back/STIM_030.jpg
2355.965	0.829	1	2back	Block4	2back/STIM_030.jpg
2359.423	0.732	1	2back	Block4	2back/STIM_031.jpg
2362.435	0.456	1	2back	Block4	2back/STIM_031.jpg
2366.316	1.105	1	2back	Block4	2back/STIM_031.jpg
2369.457	0.99	1	2back	Block4	2back/STIM_032.jpg
2372.701	1.087	1	2back	Block4	2back/STIM_032.jpg
2376.456	0.495	1	2back	Block4	2back/STIM_032.jpg
2379.123	0.477	1	2back	Block4	2back/STIM_033.jpg
2383.462	0.676	1	2back	Block4	2back/STIM_033.jpg
2386.256	0.689	1	2back	Block4	2back/STIM_033.jpg
2390.073	1.007	1	2back	Block4	2back/STIM_034.jpg
2393.298	0.919	1	2back	Block4	2back/STIM_034.jpg
2396.487	0.652	1	2back	Block4	2back/STIM_034.jpg
2400.583	0.971	1	2back	Block4	2back/STIM_035.jpg
2405.283	0.539	1	2back	Block4	2back/STIM_035.jpg
2409.115	0.707	1	2back	Block4	2back/STIM_035.jpg
2412.04	0.926	1	2back	Block4	2back/STIM_036.jpg
2415.748	0.561	1	2back	Block4	2back/STIM_036.jpg
2418.717	0.731	1	2back	Block4	2back/STIM_036.jpg
2421.713	0.494	1	2back	Block4	2back/STIM_037.jpg
2424.361	0.556	1	2back	Block4	2back/STIM_037.jpg
2427.086	0.95	1	2back	Block4	2back/STIM_037.jpg
2430.436	0.69	1	2back	Block4	2back/STIM_038.jpg
2434.585	0.703	1	2back	Block4	2back/STIM_038.jpg
2439.025	0.594	1	2back	Block4	2back/STIM_038.jpg
2443.494	0.368	1	2back	Block4	2back/STIM_039.jpg
2447.962	0.831	1	2back	Block4	2back/STIM_039.jpg
2451.962	0.641	1	2back	Block4	2back/STIM_039.jpg
2455.375	0.969	1	0back	Block4	0back/STIM_000.jpg
2458.984	0.895	1	0back	Block4	0back/STIM_000.jpg
2461.804	0.692	1	0back	Block4	0back/STIM_000.jpg
2465.285	0.787	1	0back	Block4	0back/STIM_001.jpg
2469.422	0.838	1	0back	Block4	0back/STIM_001.jpg
2473.403	0.697	1	0back	Block4	0back/STIM_001.jpg
2478.013	0.655	1	0back	Block4	0back/STIM_002.jpg
2481.35	0.696	1	0back	Block4	0back/STIM_002.jpg
2485.357	0.835	1	0back	Block4	0back/STIM_002.jpg
2489.011	0.698	1	0back	Block4	0back/STIM_003.jpg
2492.138	0.795	1	0back	Block4	0back/STIM_003.jpg
2495.465	0.649	1	0back	Block4	0back/STIM_003.jpg
2498.495	0.528	1	0back	Block4	0back/STIM_004.jpg
2502.24	0.755	1	0back	Block4	0back/STIM_004.jpg
2505.63	0.879	1	0back	Block4	0back/STIM_004.jpg
2508.486	0.464	1	0back	Block4	0back/STIM_005.jpg
2512.472	0.779	1	0back	Block4	0back/STIM_005.jpg
2516.764	0.648	1	0back	Block4	0back/STIM_005.jpg
2520.583	0.863	1	0back	Block4	0back/STIM_006.jpg
2523.916	0.67	0	0back	Block4	0back/STIM_006.jpg
2527.489	0.75	1	0back	Block4	0back/STIM_006.jpg
2532.056	0.639	1	0back	Block4	0back/STIM_007.jpg
2535.926	0.628	1	0back	Block4	0back/STIM_007.jpg
2538.534	0.636	1	0back	Block4	0back/STIM_007.jpg
2542.467	0.746	1	0back	Block4	0back/STIM_008.jpg
2545.498	0.578	1	0back	Block4	0back/STIM_008.jpg
2549.336	0.746	1	0back	Block4	0back/STIM_008.jpg
2553.152	0.868	1	0back	Block4	0back/STIM_009.jpg
2557.284	0.542	1	0back	Block4	0back/STIM_009.jpg
2561.133	0.909	1	0back	Block4	0back/STIM_009.jpg
2564.26	0.933	1	0back	Block4	0back/STIM_010.jpg
2568.562	0.492	1	0back	Block4	0back/STIM_010.jpg
2572.045	0.758	1	0back	Block4	0back/STIM_010.jpg
2576.22	0.851	1	0back	Block4	0back/STIM_011.jpg
2579.228	0.591	1	0back	Block4	0back/STIM_011.jpg
2582.851	0.811	1	0back	Block4	0back/STIM_011.jpg
2587.219	0.593	1	0back	Block4	0back/STIM_012.jpg
2591.509	0.82	1	0back	Block4	0back/STIM_012.jpg
2595.425	0.663	1	0back	Block4	0back/STIM_012.jpg
2598.799	0.623	1	0back	Block4	0back/STIM_013.jpg
2603.143	0.783	1	0back	Block4	0back/STIM_013.jpg
2607.084	0.831	0	0back	Block4	0back/STIM_013.jpg
2610.206	0.548	1	0back	Block4	0back/STIM_014.jpg
2613.745	0.86	1	0back	Block4	0back/STIM_014.jpg
2617.26	0.473	1	0back	Block4	0back/STIM_014.jpg
2621.508	0.768	1	0back	Block4	0back/STIM_015.jpg
2624.899	0.801	1	0back	Block4	0back/STIM_015.jpg
2628.337	0.781	1	0back	Block4	0back/STIM_015.jpg
2632.405	0.436	1	0back	Block4	0back/STIM_016.jpg
2635.552	0.702	1	0back	Block4	0back/STIM_016.jpg
2639.051	0.432	1	0back	Block4	0back/STIM_016.jpg
2642.362	0.854	1	0back	Block4	0back/STIM_017.jpg
2645.43	0.851	1	0back	Block4	0back/STIM_017.jpg
2649.623	0.678	1	0back	Block4	0back/STIM_017.jpg
2652.995	0.642	0	0back	Block4	0back/STIM_018.jpg
2657.288	0.926	1	0back	Block4	0back/STIM_018.jpg
2660.282	0.594	1	0back	Block4	0back/STIM_018.jpg
2662.833	0.6	1	0back	Block4	0back/STIM_019.jpg
2667.027	0.806	1	0back	Block4	0back/STIM_019.jpg
2670.254	0.804	1	0back	Block4	0back/STIM_019.jpg
