onset	duration	response_time_ms	trial_type	learning_stage	stimulus	response_port
0.0	0.684	684.3	2back	Block1	2back/STIM_000.jpg	100
2.766	0.671	670.9	2back	Block1	2back/STIM_000.jpg	99
6.265	1.254	1254.3	2back	Block1	2back/STIM_000.jpg	100
11.179	0.693	693.1	2back	Block1	2back/STIM_001.jpg	99
14.504	1.477	1476.6	2back	Block1	2back/STIM_001.jpg	99
17.99	0.768	768.3	2back	Block1	2back/STIM_001.jpg	99
22.243	1.406	1406.4	2back	Block1	2back/STIM_002.jpg	99
26.178	0.79	789.9	2back	Block1	2back/STIM_002.jpg	99
29.114	0.872	872.3	2back	Block1	2back/STIM_002.jpg	99
32.202	0.841	840.7	2back	Block1	2back/STIM_003.jpg	100
35.346	1.309	1308.9	2back	Block1	2back/STIM_003.jpg	100
39.334	0.941	940.7	2back	Block1	2back/STIM_003.jpg	99
42.969	1.357	1357.4	2back	Block1	2back/STIM_004.jpg	100
47.055	0.856	855.8	2back	Block1	2back/STIM_004.jpg	99
50.487	1.009	1008.9	2back	Block1	2back/STIM_004.jpg	99
54.811	1.408	1408.2	2back	Block1	2back/STIM_005.jpg	99
58.559	0.902	901.7	2back	Block1	2back/STIM_005.jpg	100
62.758	0.82	820.1	2back	Block1	2back/STIM_005.jpg	100
65.751	0.777	777.3	2back	Block1	2back/STIM_006.jpg	99
68.949	1.173	1172.8	2back	Block1	2back/STIM_006.jpg	100
72.115	1.375	1374.7	2back	Block1	2back/STIM_006.jpg	99
76.714	1.222	1221.6	2back	Block1	2back/STIM_007.jpg	100
80.046	0.948	948.5	2back	Block1	2back/STIM_007.jpg	100
83.875	0.674	673.9	2back	Block1	2back/STIM_007.jpg	100
87.988	0.78	780.4	2back	Block1	2back/STIM_008.jpg	100
91.888	1.178	1178.3	2back	Block1	2back/STIM_008.jpg	100
96.781	1.349	1348.7	2back	Block1	2back/STIM_008.jpg	100
101.869	0.702	701.9	2back	Block1	2back/STIM_009.jpg	100
106.027	1.028	1028.2	2back	Block1	2back/STIM_009.jpg	99
109.09	0.753	753.2	2back	Block1	2back/STIM_009.jpg	100
113.753	0.65	650.5	2back	Block1	2back/STIM_010.jpg	100
117.439	1.103	1102.7	2back	Block1	2back/STIM_010.jpg	100
122.07	1.398	1397.8	2back	Block1	2back/STIM_010.jpg	100
126.034	1.098	1097.9	2back	Block1	2back/STIM_011.jpg	99
130.026	1.355	1355.0	2back	Block1	2back/STIM_011.jpg	99
134.272	1.062	1062.3	2back	Block1	2back/STIM_011.jpg	100
139.075	0.972	972.4	2back	Block1	2back/STIM_012.jpg	99
143.588	1.117	1117.3	2back	Block1	2back/STIM_012.jpg	99
147.201	0.877	876.6	2back	Block1	2back/STIM_012.jpg	99
150.107	1.056	1055.7	2back	Block1	2back/STIM_013.jpg	100
154.281	0.799	799.3	2back	Block1	2back/STIM_013.jpg	100
157.976	1.223	1223.1	2back	Block1	2back/STIM_013.jpg	100
161.854	0.787	787.2	2back	Block1	2back/STIM_014.jpg	100
166.046	0.8	800.0	2back	Block1	2back/STIM_014.jpg	100
170.367	0.892	891.5	2back	Block1	2back/STIM_014.jpg	99
174.651	0.912	911.5	2back	Block1	2back/STIM_015.jpg	100
178.138	0.946	945.5	2back	Block1	2back/STIM_015.jpg	99
181.598	1.207	1206.8	2back	Block1	2back/STIM_015.jpg	100
186.281	1.173	1173.4	2back	Block1	2back/STIM_016.jpg	99
190.073	0.912	911.8	2back	Block1	2back/STIM_016.jpg	99
193.547	0.728	728.3	2back	Block1	2back/STIM_016.jpg	99
198.22	0.684	684.0	2back	Block1	2back/STIM_017.jpg	99
202.136	1.174	1174.3	2back	Block1	2back/STIM_017.jpg	99
205.193	1.314	1314.4	2back	Block1	2back/STIM_017.jpg	100
208.677	0.989	989.1	2back	Block1	2back/STIM_018.jpg	100
213.522	0.901	900.8	2back	Block1	2back/STIM_018.jpg	99
217.113	0.795	795.4	2back	Block1	2back/STIM_018.jpg	99
219.855	0.81	810.2	2back	Block1	2back/STIM_019.jpg	99
223.824	0.638	638.5	2back	Block1	2back/STIM_019.jpg	100
226.465	0.906	906.3	2back	Block1	2back/STIM_019.jpg	100
230.979	1.362	1362.2	2back	Block1	2back/STIM_020.jpg	100
234.659	1.075	1075.1	2back	Block1	2back/STIM_020.jpg	100
238.144	1.138	1138.3	2back	Block1	2back/STIM_020.jpg	99
241.978	1.431	1431.1	2back	Block1	2back/STIM_021.jpg	100
246.715	1.305	1304.8	2back	Block1	2back/STIM_021.jpg	100
250.228	0.699	699.1	2back	Block1	2back/STIM_021.jpg	100
253.337	1.41	1410.0	2back	Block1	2back/STIM_022.jpg	99
257.101	1.295	1295.4	2back	Block1	2back/STIM_022.jpg	99
260.843	1.27	1270.2	2back	Block1	2back/STIM_022.jpg	100
265.507	0.748	748.2	2back	Block1	2back/STIM_023.jpg	100
268.568	1.397	1396.8	2back	Block1	2back/STIM_023.jpg	99
272.353	0.92	920.1	2back	Block1	2back/STIM_023.jpg	99
275.327	0.973	973.2	2back	Block1	2back/STIM_024.jpg	99
279.267	0.722	722.1	2back	Block1	2back/STIM_024.jpg	99
281.986	1.164	1163.8	2back	Block1	2back/STIM_024.jpg	100
286.124	1.405	1405.1	2back	Block1	2back/STIM_025.jpg	100
289.501	0.756	755.5	2back	Block1	2back/STIM_025.jpg	100
292.832	1.025	1024.8	2back	Block1	2back/STIM_025.jpg	100
297.428	0.801	800.6	2back	Block1	2back/STIM_026.jpg	100
300.803	0.688	687.7	2back	Block1	2back/STIM_026.jpg	100
304.597	0.924	924.3	2back	Block1	2back/STIM_026.jpg	99
308.755	1.311	1310.8	2back	Block1	2back/STIM_027.jpg	100
313.187	1.09	1089.7	2back	Block1	2back/STIM_027.jpg	100
316.296	1.188	1187.5	2back	Block1	2back/STIM_027.jpg	99
320.981	0.923	923.4	2back	Block1	2back/STIM_028.jpg	99
325.731	0.824	823.9	2back	Block1	2back/STIM_028.jpg	99
328.816	1.151	1151.4	2back	Block1	2back/STIM_028.jpg	100
332.79	0.901	901.1	2back	Block1	2back/STIM_029.jpg	99
336.453	1.274	1273.8	2back	Block1	2back/STIM_029.jpg	99
340.992	1.374	1373.7	2back	Block1	2back/STIM_029.jpg	99
345.699	0.817	817.2	2back	Block1	2back/STIM_030.jpg	100
349.831	0.758	757.5	2back	Block1	2back/STIM_030.jpg	100
353.427	0.628	628.4	2back	Block1	2back/STIM_030.jpg	99
357.741	1.331	1330.9	2back	Block1	2back/STIM_031.jpg	100
362.792	1.099	1098.8	2back	Block1	2back/STIM_031.jpg	100
366.176	1.34	1339.5	2back	Block1	2back/STIM_031.jpg	99
369.941	0.584	584.5	2back	Block1	2back/STIM_032.jpg	99
373.393	1.456	1456.3	2back	Block1	2back/STIM_032.jpg	100
378.59	1.302	1301.6	2back	Block1	2back/STIM_032.jpg	99
383.302	0.854	853.9	2back	Block1	2back/STIM_033.jpg	99
387.704	1.456	1456.2	2back	Block1	2back/STIM_033.jpg	99
391.121	0.967	967.0	2back	Block1	2back/STIM_033.jpg	99
395.038	1.477	1476.7	2back	Block1	2back/STIM_034.jpg	100
400.291	0.934	934.5	2back	Block1	2back/STIM_034.jpg	100
403.642	0.985	984.9	2back	Block1	2back/STIM_034.jpg	100
407.568	0.779	779.2	2back	Block1	2back/STIM_035.jpg	99
411.818	0.989	989.3	2back	Block1	2back/STIM_035.jpg	100
415.209	0.752	752.5	2back	Block1	2back/STIM_035.jpg	99
418.358	1.33	1329.6	2back	Block1	2back/STIM_036.jpg	100
423.511	0.972	972.3	2back	Block1	2back/STIM_036.jpg	100
427.487	0.732	732.4	2back	Block1	2back/STIM_036.jpg	100
431.622	1.213	1212.9	2back	Block1	2back/STIM_037.jpg	100
436.495	1.272	1272.5	2back	Block1	2back/STIM_037.jpg	99
440.34	0.753	752.6	2back	Block1	2back/STIM_037.jpg	99
444.553	1.142	1142.1	2back	Block1	2back/STIM_038.jpg	100
448.658	0.876	875.7	2back	Block1	2back/STIM_038.jpg	100
452.956	1.258	1258.4	2back	Block1	2back/STIM_038.jpg	99
457.088	1.11	1109.9	2back	Block1	2back/STIM_039.jpg	100
461.09	1.467	1466.9	2back	Block1	2back/STIM_039.jpg	99
465.346	0.765	765.3	2back	Block1	2back/STIM_039.jpg	100
468.867	0.721	720.9	0back	Block1	0back/STIM_000.jpg	100
471.785	0.459	459.1	0back	Block1	0back/STIM_000.jpg	100
475.377	0.628	627.9	0back	Block1	0back/STIM_000.jpg	100
479.838	0.775	775.1	0back	Block1	0back/STIM_001.jpg	99
482.569	0.511	510.9	0back	Block1	0back/STIM_001.jpg	100
486.542	0.734	733.6	0back	Block1	0back/STIM_001.jpg	100
490.949	0.722	722.1	0back	Block1	0back/STIM_002.jpg	99
495.225	0.697	696.6	0back	Block1	0back/STIM_002.jpg	100
498.279	0.798	798.3	0back	Block1	0back/STIM_002.jpg	99
502.122	0.943	942.6	0back	Block1	0back/STIM_003.jpg	100
505.044	0.853	852.9	0back	Block1	0back/STIM_003.jpg	99
508.12	0.765	765.1	0back	Block1	0back/STIM_003.jpg	99
512.543	0.789	788.7	0back	Block1	0back/STIM_004.jpg	99
517.238	0.821	821.4	0back	Block1	0back/STIM_004.jpg	100
520.092	0.775	774.6	0back	Block1	0back/STIM_004.jpg	99
524.187	0.672	671.6	0back	Block1	0back/STIM_005.jpg	99
527.09	0.79	790.0	0back	Block1	0back/STIM_005.jpg	100
529.838	0.772	772.4	0back	Block1	0back/STIM_005.jpg	99
533.103	0.69	690.5	0back	Block1	0back/STIM_006.jpg	100
536.195	0.692	692.4	0back	Block1	0back/STIM_006.jpg	100
539.481	0.539	539.2	0back	Block1	0back/STIM_006.jpg	99
542.911	0.75	750.1	0back	Block1	0back/STIM_007.jpg	100
546.655	0.71	710.0	0back	Block1	0back/STIM_007.jpg	99
550.548	0.565	564.7	0back	Block1	0back/STIM_007.jpg	100
554.739	0.43	429.5	0back	Block1	0back/STIM_008.jpg	100
558.199	0.644	643.6	0back	Block1	0back/STIM_008.jpg	99
562.241	0.397	396.9	0back	Block1	0back/STIM_008.jpg	99
565.609	0.531	531.0	0back	Block1	0back/STIM_009.jpg	100
568.74	0.577	577.0	0back	Block1	0back/STIM_009.jpg	100
571.966	0.696	695.5	0back	Block1	0back/STIM_009.jpg	99
574.613	0.64	640.2	0back	Block1	0back/STIM_010.jpg	100
578.317	0.878	878.4	0back	Block1	0back/STIM_010.jpg	99
582.777	0.657	657.4	0back	Block1	0back/STIM_010.jpg	100
586.199	0.484	483.8	0back	Block1	0back/STIM_011.jpg	100
590.147	0.711	710.7	0back	Block1	0back/STIM_011.jpg	99
594.71	0.797	797.2	0back	Block1	0back/STIM_011.jpg	100
599.18	0.698	697.9	0back	Block1	0back/STIM_012.jpg	100
602.311	0.658	658.1	0back	Block1	0back/STIM_012.jpg	100
606.703	0.609	609.1	0back	Block1	0back/STIM_012.jpg	100
610.387	0.613	612.9	0back	Block1	0back/STIM_013.jpg	100
613.414	0.488	487.7	0back	Block1	0back/STIM_013.jpg	100
616.822	0.726	726.0	0back	Block1	0back/STIM_013.jpg	100
620.452	0.702	701.7	0back	Block1	0back/STIM_014.jpg	99
623.908	0.806	805.8	0back	Block1	0back/STIM_014.jpg	99
627.788	0.67	670.1	0back	Block1	0back/STIM_014.jpg	99
631.398	0.435	435.4	0back	Block1	0back/STIM_015.jpg	99
635.428	0.847	847.0	0back	Block1	0back/STIM_015.jpg	100
639.465	0.463	462.7	0back	Block1	0back/STIM_015.jpg	100
642.007	0.688	688.1	0back	Block1	0back/STIM_016.jpg	99
646.368	0.524	523.6	0back	Block1	0back/STIM_016.jpg	100
650.493	0.633	632.9	0back	Block1	0back/STIM_016.jpg	99
654.301	0.823	823.2	0back	Block1	0back/STIM_017.jpg	100
658.746	0.554	554.1	0back	Block1	0back/STIM_017.jpg	100
662.061	0.489	488.9	0back	Block1	0back/STIM_017.jpg	99
666.432	0.728	728.0	0back	Block1	0back/STIM_018.jpg	100
670.414	0.804	804.3	0back	Block1	0back/STIM_018.jpg	100
673.695	0.463	462.9	0back	Block1	0back/STIM_018.jpg	99
677.984	0.768	767.5	0back	Block1	0back/STIM_019.jpg	100
681.763	0.588	587.5	0back	Block1	0back/STIM_019.jpg	99
684.788	0.526	526.3	0back	Block1	0back/STIM_019.jpg	100
688.247	0.692	692.5	2back	Block2	2back/STIM_000.jpg	100
692.123	0.669	668.9	2back	Block2	2back/STIM_000.jpg	99
695.278	1.016	1016.2	2back	Block2	2back/STIM_000.jpg	100
698.956	1.191	1191.0	2back	Block2	2back/STIM_001.jpg	99
704.046	1.087	1086.6	2back	Block2	2back/STIM_001.jpg	99
707.051	0.78	780.0	2back	Block2	2back/STIM_001.jpg	99
710.873	0.966	966.0	2back	Block2	2back/STIM_002.jpg	100
715.449	0.95	950.0	2back	Block2	2back/STIM_002.jpg	100
719.473	0.61	610.2	2back	Block2	2back/STIM_002.jpg	99
723.836	0.782	782.1	2back	Block2	2back/STIM_003.jpg	99
726.578	0.945	945.2	2back	Block2	2back/STIM_003.jpg	99
731.209	1.074	1074.5	2back	Block2	2back/STIM_003.jpg	99
734.784	0.878	877.5	2back	Block2	2back/STIM_004.jpg	100
737.987	1.03	1030.3	2back	Block2	2back/STIM_004.jpg	99
742.867	1.002	1002.4	2back	Block2	2back/STIM_004.jpg	99
745.93	0.672	672.1	2back	Block2	2back/STIM_005.jpg	99
750.36	1.105	1104.9	2back	Block2	2back/STIM_005.jpg	99
755.027	0.679	678.8	2back	Block2	2back/STIM_005.jpg	99
759.61	1.187	1187.2	2back	Block2	2back/STIM_006.jpg	100
764.274	0.916	916.2	2back	Block2	2back/STIM_006.jpg	100
767.572	0.99	990.0	2back	Block2	2back/STIM_006.jpg	99
770.765	0.567	567.1	2back	Block2	2back/STIM_007.jpg	99
773.75	0.522	521.6	2back	Block2	2back/STIM_007.jpg	100
776.912	1.105	1105.2	2back	Block2	2back/STIM_007.jpg	100
781.021	0.571	570.8	2back	Block2	2back/STIM_008.jpg	100
784.694	0.646	646.1	2back	Block2	2back/STIM_008.jpg	100
789.143	0.768	768.1	2back	Block2	2back/STIM_008.jpg	100
793.602	0.829	829.3	2back	Block2	2back/STIM_009.jpg	100
797.346	0.832	832.2	2back	Block2	2back/STIM_009.jpg	100
800.368	0.868	867.5	2back	Block2	2back/STIM_009.jpg	99
803.491	1.303	1302.6	2back	Block2	2back/STIM_010.jpg	100
807.802	1.072	1072.3	2back	Block2	2back/STIM_010.jpg	99
811.547	1.032	1032.4	2back	Block2	2back/STIM_010.jpg	99
816.302	0.941	941.2	2back	Block2	2back/STIM_011.jpg	100
819.418	0.6	600.2	2back	Block2	2back/STIM_011.jpg	100
823.151	1.096	1095.9	2back	Block2	2back/STIM_011.jpg	99
826.263	0.635	635.3	2back	Block2	2back/STIM_012.jpg	99
829.051	0.787	787.2	2back	Block2	2back/STIM_012.jpg	100
832.267	0.814	814.5	2back	Block2	2back/STIM_012.jpg	100
835.29	1.086	1086.1	2back	Block2	2back/STIM_013.jpg	100
840.189	0.784	783.6	2back	Block2	2back/STIM_013.jpg	100
844.239	0.875	874.9	2back	Block2	2back/STIM_013.jpg	100
847.207	0.59	589.6	2back	Block2	2back/STIM_014.jpg	100
850.338	0.593	593.0	2back	Block2	2back/STIM_014.jpg	100
853.225	0.772	771.6	2back	Block2	2back/STIM_014.jpg	99
857.236	0.807	807.4	2back	Block2	2back/STIM_015.jpg	100
861.969	0.551	550.6	2back	Block2	2back/STIM_015.jpg	100
865.705	0.729	728.8	2back	Block2	2back/STIM_015.jpg	99
868.783	1.264	1263.5	2back	Block2	2back/STIM_016.jpg	100
872.785	1.222	1222.1	2back	Block2	2back/STIM_016.jpg	100
877.556	1.036	1036.2	2back	Block2	2back/STIM_016.jpg	99
880.935	0.878	878.0	2back	Block2	2back/STIM_017.jpg	99
884.115	1.116	1116.2	2back	Block2	2back/STIM_017.jpg	100
888.07	0.499	498.6	2back	Block2	2back/STIM_017.jpg	100
891.846	0.779	779.2	2back	Block2	2back/STIM_018.jpg	100
894.984	0.872	871.5	2back	Block2	2back/STIM_018.jpg	100
898.586	0.519	518.6	2back	Block2	2back/STIM_018.jpg	100
902.095	0.768	768.3	2back	Block2	2back/STIM_019.jpg	100
906.035	1.119	1119.2	2back	Block2	2back/STIM_019.jpg	99
910.4	0.969	969.3	2back	Block2	2back/STIM_019.jpg	99
915.078	1.204	1203.9	2back	Block2	2back/STIM_020.jpg	100
918.947	0.725	725.0	2back	Block2	2back/STIM_020.jpg	100
923.351	0.738	738.1	2back	Block2	2back/STIM_020.jpg	100
927.525	1.257	1257.1	2back	Block2	2back/STIM_021.jpg	100
930.928	0.662	662.1	2back	Block2	2back/STIM_021.jpg	99
934.55	0.808	808.3	2back	Block2	2back/STIM_021.jpg	99
937.541	1.018	1018.3	2back	Block2	2back/STIM_022.jpg	100
942.085	0.745	745.4	2back	Block2	2back/STIM_022.jpg	99
945.063	1.02	1020.1	2back	Block2	2back/STIM_022.jpg	99
949.757	0.994	994.0	2back	Block2	2back/STIM_023.jpg	99
953.496	1.01	1010.3	2back	Block2	2back/STIM_023.jpg	100
958.365	0.668	668.0	2back	Block2	2back/STIM_023.jpg	99
961.15	0.862	861.5	2back	Block2	2back/STIM_024.jpg	99
965.257	0.665	665.4	2back	Block2	2back/STIM_024.jpg	99
968.238	1.032	1032.3	2back	Block2	2back/STIM_024.jpg	100
971.501	1.04	1040.5	2back	Block2	2back/STIM_025.jpg	100
975.426	1.018	1017.9	2back	Block2	2back/STIM_025.jpg	99
978.49	0.951	950.6	2back	Block2	2back/STIM_025.jpg	99
982.074	0.794	794.3	2back	Block2	2back/STIM_026.jpg	100
986.48	0.516	515.6	2back	Block2	2back/STIM_026.jpg	100
990.727	0.816	815.7	2back	Block2	2back/STIM_026.jpg	100
994.509	0.966	966.0	2back	Block2	2back/STIM_027.jpg	100
997.854	1.063	1062.8	2back	Block2	2back/STIM_027.jpg	99
1000.982	1.174	1174.2	2back	Block2	2back/STIM_027.jpg	99
1004.019	1.013	1012.6	2back	Block2	2back/STIM_028.jpg	99
1007.339	0.624	624.5	2back	Block2	2back/STIM_028.jpg	99
1009.98	0.88	880.2	2back	Block2	2back/STIM_028.jpg	100
1013.65	1.24	1239.5	2back	Block2	2back/STIM_029.jpg	100
1018.394	0.989	989.2	2back	Block2	2back/STIM_029.jpg	100
1021.265	0.589	589.1	2back	Block2	2back/STIM_029.jpg	100
1025.337	0.904	904.4	2back	Block2	2back/STIM_030.jpg	100
1028.784	0.828	827.6	2back	Block2	2back/STIM_030.jpg	100
1033.332	0.956	956.1	2back	Block2	2back/STIM_030.jpg	99
1036.451	0.748	748.4	2back	Block2	2back/STIM_031.jpg	100
1040.85	0.866	866.5	2back	Block2	2back/STIM_031.jpg	99
1045.41	0.69	689.8	2back	Block2	2back/STIM_031.jpg	99
1048.856	0.596	595.7	2back	Block2	2back/STIM_032.jpg	100
1052.398	0.762	762.0	2back	Block2	2back/STIM_032.jpg	100
1056.579	0.493	492.9	2back	Block2	2back/STIM_032.jpg	99
1059.779	1.199	1199.2	2back	Block2	2back/STIM_033.jpg	99
1064.27	1.046	1045.6	2back	Block2	2back/STIM_033.jpg	100
1067.269	0.899	899.2	2back	Block2	2back/STIM_033.jpg	100
1070.683	0.918	918.1	2back	Block2	2back/STIM_034.jpg	99
1074.711	0.802	802.5	2back	Block2	2back/STIM_034.jpg	99
1079.324	0.754	754.0	2back	Block2	2back/STIM_034.jpg	99
1082.899	0.85	850.4	2back	Block2	2back/STIM_035.jpg	99
1085.675	1.014	1014.0	2back	Block2	2back/STIM_035.jpg	99
1088.672	0.867	866.8	2back	Block2	2back/STIM_035.jpg	100
1092.281	1.04	1039.9	2back	Block2	2back/STIM_036.jpg	100
1097.008	0.629	629.0	2back	Block2	2back/STIM_036.jpg	99
1099.66	0.599	598.7	2back	Block2	2back/STIM_036.jpg	100
1102.829	0.901	900.6	2back	Block2	2back/STIM_037.jpg	99
1106.384	0.712	712.0	2back	Block2	2back/STIM_037.jpg	100
1110.19	0.664	663.6	2back	Block2	2back/STIM_037.jpg	99
1114.765	0.795	795.2	2back	Block2	2back/STIM_038.jpg	99
1119.245	0.847	847.2	2back	Block2	2back/STIM_038.jpg	99
1123.817	0.666	665.6	2back	Block2	2back/STIM_038.jpg	99
1128.392	0.89	890.4	2back	Block2	2back/STIM_039.jpg	100
1131.202	1.251	1251.3	2back	Block2	2back/STIM_039.jpg	100
1135.189	0.793	793.2	2back	Block2	2back/STIM_039.jpg	99
1138.017	0.446	446.2	0back	Block2	0back/STIM_000.jpg	100
1141.122	0.352	351.6	0back	Block2	0back/STIM_000.jpg	100
1145.244	0.74	740.5	0back	Block2	0back/STIM_000.jpg	100
1149.64	0.766	765.9	0back	Block2	0back/STIM_001.jpg	100
1153.775	0.591	591.3	0back	Block2	0back/STIM_001.jpg	99
1156.574	0.506	506.3	0back	Block2	0back/STIM_001.jpg	100
1159.112	0.522	522.1	0back	Block2	0back/STIM_002.jpg	100
1163.332	0.716	716.0	0back	Block2	0back/STIM_002.jpg	100
1167.339	0.944	944.3	0back	Block2	0back/STIM_002.jpg	100
1171.072	0.81	810.3	0back	Block2	0back/STIM_003.jpg	100
1173.922	0.612	611.6	0back	Block2	0back/STIM_003.jpg	100
1176.837	0.7	700.5	0back	Block2	0back/STIM_003.jpg	99
1180.854	0.625	625.4	0back	Block2	0back/STIM_004.jpg	99
1184.009	0.75	749.9	0back	Block2	0back/STIM_004.jpg	99
1188.008	0.712	712.1	0back	Block2	0back/STIM_004.jpg	99
1192.458	0.459	459.3	0back	Block2	0back/STIM_005.jpg	99
1194.879	0.679	679.3	0back	Block2	0back/STIM_005.jpg	99
1198.847	0.919	919.2	0back	Block2	0back/STIM_005.jpg	99
1203.092	0.488	487.5	0back	Block2	0back/STIM_006.jpg	99
1207.1	0.795	795.3	0back	Block2	0back/STIM_006.jpg	100
1211.182	0.858	858.4	0back	Block2	0back/STIM_006.jpg	99
1215.901	0.575	575.4	0back	Block2	0back/STIM_007.jpg	99
1218.783	0.433	433.3	0back	Block2	0back/STIM_007.jpg	99
1223.197	0.702	702.4	0back	Block2	0back/STIM_007.jpg	99
1226.531	0.748	747.7	0back	Block2	0back/STIM_008.jpg	100
1229.492	0.6	600.5	0back	Block2	0back/STIM_008.jpg	99
1233.61	0.764	763.9	0back	Block2	0back/STIM_008.jpg	100
1237.724	0.628	627.8	0back	Block2	0back/STIM_009.jpg	99
1241.285	0.597	597.0	0back	Block2	0back/STIM_009.jpg	100
1245.756	0.768	767.8	0back	Block2	0back/STIM_009.jpg	100
1250.039	0.488	488.4	0back	Block2	0back/STIM_010.jpg	99
1253.802	0.762	762.0	0back	Block2	0back/STIM_010.jpg	99
1257.73	0.632	632.5	0back	Block2	0back/STIM_010.jpg	99
1261.198	0.451	451.1	0back	Block2	0back/STIM_011.jpg	99
1265.088	0.624	623.6	0back	Block2	0back/STIM_011.jpg	99
1268.08	0.563	563.3	0back	Block2	0back/STIM_011.jpg	99
1270.603	0.631	630.6	0back	Block2	0back/STIM_012.jpg	99
1273.799	0.444	444.4	0back	Block2	0back/STIM_012.jpg	100
1277.894	0.7	699.5	0back	Block2	0back/STIM_012.jpg	99
1281.095	0.839	839.1	0back	Block2	0back/STIM_013.jpg	100
1284.606	0.638	637.9	0back	Block2	0back/STIM_013.jpg	99
1288.88	0.792	792.3	0back	Block2	0back/STIM_013.jpg	100
1292.234	0.831	831.0	0back	Block2	0back/STIM_014.jpg	99
1295.616	0.638	638.5	0back	Block2	0back/STIM_014.jpg	100
1299.764	0.62	620.0	0back	Block2	0back/STIM_014.jpg	100
1302.634	0.553	553.1	0back	Block2	0back/STIM_015.jpg	100
1305.332	0.643	642.6	0back	Block2	0back/STIM_015.jpg	100
1308.891	0.847	847.1	0back	Block2	0back/STIM_015.jpg	99
1312.255	0.738	737.7	0back	Block2	0back/STIM_016.jpg	100
1316.518	0.441	440.6	0back	Block2	0back/STIM_016.jpg	100
1320.454	0.435	435.4	0back	Block2	0back/STIM_016.jpg	99
1324.736	0.522	522.1	0back	Block2	0back/STIM_017.jpg	99
1329.179	0.707	707.2	0back	Block2	0back/STIM_017.jpg	99
1333.372	0.832	832.1	0back	Block2	0back/STIM_017.jpg	99
1336.614	0.749	748.7	0back	Block2	0back/STIM_018.jpg	99
1339.605	0.626	625.9	0back	Block2	0back/STIM_018.jpg	100
1342.711	0.462	461.6	0back	Block2	0back/STIM_018.jpg	99
1346.207	0.607	607.0	0back	Block2	0back/STIM_019.jpg	100
1348.789	0.513	512.9	0back	Block2	0back/STIM_019.jpg	99
1352.266	0.506	506.2	0back	Block2	0back/STIM_019.jpg	100
1355.212	0.848	847.8	2back	Block3	2back/STIM_000.jpg	99
1358.564	0.815	814.8	2back	Block3	2back/STIM_000.jpg	99
1362.919	1.007	1007.0	2back	Block3	2back/STIM_000.jpg	100
1366.957	0.845	844.7	2back	Block3	2back/STIM_001.jpg	100
1371.265	0.605	605.1	2back	Block3	2back/STIM_001.jpg	99
1375.17	0.533	533.3	2back	Block3	2back/STIM_001.jpg	99
1377.814	0.673	672.7	2back	Block3	2back/STIM_002.jpg	100
1382.267	1.041	1040.6	2back	Block3	2back/STIM_002.jpg	100
1386.225	0.711	711.4	2back	Block3	2back/STIM_002.jpg	99
1389.929	0.776	776.1	2back	Block3	2back/STIM_003.jpg	100
1393.512	0.941	941.0	2back	Block3	2back/STIM_003.jpg	100
1397.909	1.038	1037.8	2back	Block3	2back/STIM_003.jpg	100
1402.161	0.65	650.1	2back	Block3	2back/STIM_004.jpg	99
1406.198	0.804	804.1	2back	Block3	2back/STIM_004.jpg	99
1410.359	0.448	448.1	2back	Block3	2back/STIM_004.jpg	100
1414.435	0.736	736.2	2back	Block3	2back/STIM_005.jpg	100
1417.647	0.785	784.8	2back	Block3	2back/STIM_005.jpg	99
1420.48	0.756	756.1	2back	Block3	2back/STIM_005.jpg	99
1424.582	1.072	1072.0	2back	Block3	2back/STIM_006.jpg	99
1428.201	0.689	689.3	2back	Block3	2back/STIM_006.jpg	100
1432.038	0.647	647.2	2back	Block3	2back/STIM_006.jpg	100
1435.386	0.859	859.1	2back	Block3	2back/STIM_007.jpg	99
1438.958	0.738	737.8	2back	Block3	2back/STIM_007.jpg	99
1442.732	0.707	706.9	2back	Block3	2back/STIM_007.jpg	100
1446.14	0.902	902.2	2back	Block3	2back/STIM_008.jpg	99
1450.379	0.726	726.2	2back	Block3	2back/STIM_008.jpg	100
1453.83	1.041	1041.2	2back	Block3	2back/STIM_008.jpg	99
1458.371	0.533	532.8	2back	Block3	2back/STIM_009.jpg	99
1461.255	1.026	1025.7	2back	Block3	2back/STIM_009.jpg	99
1465.365	0.605	604.7	2back	Block3	2back/STIM_009.jpg	99
1468.637	0.757	757.1	2back	Block3	2back/STIM_010.jpg	99
1472.247	0.777	776.6	2back	Block3	2back/STIM_010.jpg	99
1476.764	0.762	762.4	2back	Block3	2back/STIM_010.jpg	100
1481.212	0.794	794.1	2back	Block3	2back/STIM_011.jpg	99
1484.497	0.619	619.1	2back	Block3	2back/STIM_011.jpg	99
1489.012	0.975	975.4	2back	Block3	2back/STIM_011.jpg	99
1493.322	0.998	997.7	2back	Block3	2back/STIM_012.jpg	100
1496.685	0.964	964.2	2back	Block3	2back/STIM_012.jpg	99
1499.904	1.05	1049.6	2back	Block3	2back/STIM_012.jpg	100
1504.483	1.036	1035.7	2back	Block3	2back/STIM_013.jpg	100
1508.642	0.604	603.6	2back	Block3	2back/STIM_013.jpg	100
1511.713	0.805	805.2	2back	Block3	2back/STIM_013.jpg	99
1515.583	0.649	649.3	2back	Block3	2back/STIM_014.jpg	99
1519.079	0.698	697.7	2back	Block3	2back/STIM_014.jpg	100
1523.013	0.889	889.2	2back	Block3	2back/STIM_014.jpg	100
1526.203	1.085	1085.2	2back	Block3	2back/STIM_015.jpg	100
1529.668	0.674	674.5	2back	Block3	2back/STIM_015.jpg	99
1533.929	0.574	573.7	2back	Block3	2back/STIM_015.jpg	100
1536.499	0.746	746.5	2back	Block3	2back/STIM_016.jpg	100
1541.141	0.777	777.3	2back	Block3	2back/STIM_016.jpg	99
1545.239	0.924	924.0	2back	Block3	2back/STIM_016.jpg	99
1548.511	0.813	813.1	2back	Block3	2back/STIM_017.jpg	100
1552.998	0.519	518.8	2back	Block3	2back/STIM_017.jpg	100
1556.241	1.072	1071.7	2back	Block3	2back/STIM_017.jpg	99
1559.667	0.799	798.7	2back	Block3	2back/STIM_018.jpg	100
1562.879	0.769	768.8	2back	Block3	2back/STIM_018.jpg	100
1567.525	0.854	853.8	2back	Block3	2back/STIM_018.jpg	100
1570.369	0.597	597.3	2back	Block3	2back/STIM_019.jpg	100
1573.847	0.88	880.3	2back	Block3	2back/STIM_019.jpg	100
1578.094	1.013	1012.7	2back	Block3	2back/STIM_019.jpg	99
1581.736	0.848	848.1	2back	Block3	2back/STIM_020.jpg	100
1585.478	0.782	782.3	2back	Block3	2back/STIM_020.jpg	99
1588.769	0.687	686.8	2back	Block3	2back/STIM_020.jpg	100
1592.843	0.465	465.3	2back	Block3	2back/STIM_021.jpg	99
1597.207	0.443	442.9	2back	Block3	2back/STIM_021.jpg	99
1599.995	0.683	683.2	2back	Block3	2back/STIM_021.jpg	99
1603.967	0.887	886.6	2back	Block3	2back/STIM_022.jpg	99
1608.388	0.886	885.9	2back	Block3	2back/STIM_022.jpg	99
1611.404	0.696	695.9	2back	Block3	2back/STIM_022.jpg	100
1615.513	0.715	715.1	2back	Block3	2back/STIM_023.jpg	99
1618.646	0.445	444.7	2back	Block3	2back/STIM_023.jpg	99
1622.553	0.495	495.2	2back	Block3	2back/STIM_023.jpg	100
1626.347	0.81	810.1	2back	Block3	2back/STIM_024.jpg	100
1630.701	1.042	1042.3	2back	Block3	2back/STIM_024.jpg	99
1635.334	0.89	890.0	2back	Block3	2back/STIM_024.jpg	100
1639.977	0.608	608.1	2back	Block3	2back/STIM_025.jpg	99
1643.065	0.818	817.8	2back	Block3	2back/STIM_025.jpg	99
1646.066	0.733	733.4	2back	Block3	2back/STIM_025.jpg	100
1649.624	0.954	954.3	2back	Block3	2back/STIM_026.jpg	99
1653.989	1.005	1004.8	2back	Block3	2back/STIM_026.jpg	100
1658.23	0.669	668.9	2back	Block3	2back/STIM_026.jpg	99
1661.635	0.658	657.8	2back	Block3	2back/STIM_027.jpg	100
1664.962	0.689	689.1	2back	Block3	2back/STIM_027.jpg	100
1668.155	0.492	491.7	2back	Block3	2back/STIM_027.jpg	100
1671.99	0.746	746.0	2back	Block3	2back/STIM_028.jpg	99
1675.271	0.693	692.8	2back	Block3	2back/STIM_028.jpg	100
1678.795	0.548	547.9	2back	Block3	2back/STIM_028.jpg	99
1681.282	0.453	453.3	2back	Block3	2back/STIM_029.jpg	100
1684.7	0.931	930.8	2back	Block3	2back/STIM_029.jpg	100
1689.365	0.579	579.2	2back	Block3	2back/STIM_029.jpg	99
1693.534	0.493	493.1	2back	Block3	2back/STIM_030.jpg	99
1697.484	0.538	538.4	2back	Block3	2back/STIM_030.jpg	99
1701.913	1.025	1024.8	2back	Block3	2back/STIM_030.jpg	99
1705.695	0.939	939.3	2back	Block3	2back/STIM_031.jpg	100
1709.248	1.011	1010.6	2back	Block3	2back/STIM_031.jpg	100
1712.444	0.85	849.7	2back	Block3	2back/STIM_031.jpg	100
1716.56	1.052	1052.4	2back	Block3	2back/STIM_032.jpg	100
1720.473	0.97	969.8	2back	Block3	2back/STIM_032.jpg	100
1724.58	0.928	927.8	2back	Block3	2back/STIM_032.jpg	100
1728.367	0.968	967.5	2back	Block3	2back/STIM_033.jpg	99
1731.425	1.01	1009.6	2back	Block3	2back/STIM_033.jpg	100
1735.529	0.61	610.1	2back	Block3	2back/STIM_033.jpg	99
1738.969	0.456	456.3	2back	Block3	2back/STIM_034.jpg	99
1741.738	0.695	694.9	2back	Block3	2back/STIM_034.jpg	99
1744.684	0.865	864.6	2back	Block3	2back/STIM_034.jpg	99
1747.486	0.488	488.5	2back	Block3	2back/STIM_035.jpg	99
1750.892	0.661	660.6	2back	Block3	2back/STIM_035.jpg	99
1755.38	0.75	750.4	2back	Block3	2back/STIM_035.jpg	99
1760.055	0.425	425.4	2back	Block3	2back/STIM_036.jpg	100
1764.433	0.871	871.4	2back	Block3	2back/STIM_036.jpg	99
1769.057	0.882	881.8	2back	Block3	2back/STIM_036.jpg	100
1773.279	0.771	770.6	2back	Block3	2back/STIM_037.jpg	99
1776.312	0.555	554.8	2back	Block3	2back/STIM_037.jpg	100
1779.952	0.751	750.7	2back	Block3	2back/STIM_037.jpg	100
1783.068	0.605	605.0	2back	Block3	2back/STIM_038.jpg	99
1786.992	0.484	484.4	2back	Block3	2back/STIM_038.jpg	99
1790.192	0.902	901.7	2back	Block3	2back/STIM_038.jpg	99
1795.006	0.978	977.5	2back	Block3	2back/STIM_039.jpg	100
1798.363	0.523	522.9	2back	Block3	2back/STIM_039.jpg	100
1800.989	0.592	591.5	2back	Block3	2back/STIM_039.jpg	99
1804.175	0.615	615.1	0back	Block3	0back/STIM_000.jpg	100
1808.171	0.572	572.0	0back	Block3	0back/STIM_000.jpg	100
1810.954	0.62	620.5	0back	Block3	0back/STIM_000.jpg	99
1815.217	0.514	513.8	0back	Block3	0back/STIM_001.jpg	99
1819.47	0.428	427.6	0back	Block3	0back/STIM_001.jpg	100
1822.844	0.844	844.3	0back	Block3	0back/STIM_001.jpg	99
1825.75	0.752	751.6	0back	Block3	0back/STIM_002.jpg	100
1829.963	0.503	503.3	0back	Block3	0back/STIM_002.jpg	100
1834.405	0.821	820.7	0back	Block3	0back/STIM_002.jpg	99
1838.122	0.606	606.1	0back	Block3	0back/STIM_003.jpg	99
1841.817	0.623	622.7	0back	Block3	0back/STIM_003.jpg	99
1845.168	0.492	492.2	0back	Block3	0back/STIM_003.jpg	99
1848.125	0.428	428.2	0back	Block3	0back/STIM_004.jpg	99
1851.696	0.588	587.6	0back	Block3	0back/STIM_004.jpg	99
1855.987	0.397	397.3	0back	Block3	0back/STIM_004.jpg	100
1858.815	0.578	577.5	0back	Block3	0back/STIM_005.jpg	100
1862.848	0.818	818.1	0back	Block3	0back/STIM_005.jpg	99
1866.34	0.609	608.6	0back	Block3	0back/STIM_005.jpg	100
1869.775	0.499	499.4	0back	Block3	0back/STIM_006.jpg	100
1873.05	0.466	466.2	0back	Block3	0back/STIM_006.jpg	99
1876.112	0.85	850.0	0back	Block3	0back/STIM_006.jpg	100
1880.674	0.634	634.1	0back	Block3	0back/STIM_007.jpg	99
1883.329	0.74	740.2	0back	Block3	0back/STIM_007.jpg	100
1887.042	0.449	448.7	0back	Block3	0back/STIM_007.jpg	100
1890.118	0.344	344.3	0back	Block3	0back/STIM_008.jpg	100
1894.069	0.717	716.8	0back	Block3	0back/STIM_008.jpg	100
1898.555	0.661	661.2	0back	Block3	0back/STIM_008.jpg	100
1902.325	0.8	800.2	0back	Block3	0back/STIM_009.jpg	100
1905.333	0.815	815.2	0back	Block3	0back/STIM_009.jpg	100
1908.289	0.598	597.5	0back	Block3	0back/STIM_009.jpg	99
1911.045	0.671	670.8	0back	Block3	0back/STIM_010.jpg	99
1915.358	0.735	734.7	0back	Block3	0back/STIM_010.jpg	100
1918.913	0.808	807.9	0back	Block3	0back/STIM_010.jpg	99
1922.398	0.547	547.4	0back	Block3	0back/STIM_011.jpg	100
1925.812	0.73	729.5	0back	Block3	0back/STIM_011.jpg	100
1930.489	0.634	634.4	0back	Block3	0back/STIM_011.jpg	99
1933.33	0.516	515.6	0back	Block3	0back/STIM_012.jpg	100
1936.977	0.783	782.6	0back	Block3	0back/STIM_012.jpg	100
1940.569	0.497	496.8	0back	Block3	0back/STIM_012.jpg	99
1944.141	0.494	494.1	0back	Block3	0back/STIM_013.jpg	100
1948.318	0.69	690.0	0back	Block3	0back/STIM_013.jpg	100
1952.865	0.592	592.0	0back	Block3	0back/STIM_013.jpg	99
1956.547	0.52	519.8	0back	Block3	0back/STIM_014.jpg	100
1959.486	0.781	780.6	0back	Block3	0back/STIM_014.jpg	100
1962.995	0.861	861.1	0back	Block3	0back/STIM_014.jpg	99
1966.815	0.517	516.8	0back	Block3	0back/STIM_015.jpg	99
1969.937	0.824	824.2	0back	Block3	0back/STIM_015.jpg	99
1972.678	0.699	699.0	0back	Block3	0back/STIM_015.jpg	99
1976.907	0.557	556.6	0back	Block3	0back/STIM_016.jpg	99
1980.199	0.692	692.1	0back	Block3	0back/STIM_016.jpg	100
1983.946	0.512	512.5	0back	Block3	0back/STIM_016.jpg	99
1986.933	0.489	488.6	0back	Block3	0back/STIM_017.jpg	99
1991.302	0.798	798.0	0back	Block3	0back/STIM_017.jpg	100
1994.187	0.732	732.1	0back	Block3	0back/STIM_017.jpg	100
1998.322	0.659	658.7	0back	Block3	0back/STIM_018.jpg	100
2001.915	0.719	719.0	0back	Block3	0back/STIM_018.jpg	99
2004.928	0.873	872.7	0back	Block3	0back/STIM_018.jpg	100
2008.517	0.462	461.9	0back	Block3	0back/STIM_019.jpg	100
2012.725	0.901	900.7	0back	Block3	0back/STIM_019.jpg	99
2017.03	0.544	544.0	0back	Block3	0back/STIM_019.jpg	99
2019.774	0.532	531.9	2back	Block4	2back/STIM_000.jpg	99
2022.945	0.983	982.8	2back	Block4	2back/STIM_000.jpg	99
2027.31	0.675	674.9	2back	Block4	2back/STIM_000.jpg	99
2030.871	0.547	546.6	2back	Block4	2back/STIM_001.jpg	100
2034.768	0.938	938.4	2back	Block4	2back/STIM_001.jpg	99
2039.361	0.728	727.7	2back	Block4	2back/STIM_001.jpg	99
2042.484	0.635	634.7	2back	Block4	2back/STIM_002.jpg	99
2045.626	0.948	947.5	2back	Block4	2back/STIM_002.jpg	100
2050.154	0.516	515.8	2back	Block4	2back/STIM_002.jpg	100
2054.585	0.563	563.1	2back	Block4	2back/STIM_003.jpg	99
2057.196	0.799	799.1	2back	Block4	2back/STIM_003.jpg	99
2060.322	0.466	465.5	2back	Block4	2back/STIM_003.jpg	99
2063.313	1.1	1100.5	2back	Block4	2back/STIM_004.jpg	99
2067.45	0.502	501.9	2back	Block4	2back/STIM_004.jpg	100
2070.527	0.872	872.0	2back	Block4	2back/STIM_004.jpg	100
2074.283	0.674	673.6	2back	Block4	2back/STIM_005.jpg	100
2076.973	0.532	532.4	2back	Block4	2back/STIM_005.jpg	100
2079.537	0.912	911.8	2back	Block4	2back/STIM_005.jpg	99
2083.867	1.059	1059.4	2back	Block4	2back/STIM_006.jpg	100
2088.046	1.067	1067.0	2back	Block4	2back/STIM_006.jpg	100
2091.649	0.89	890.1	2back	Block4	2back/STIM_006.jpg	99
2095.348	0.597	596.6	2back	Block4	2back/STIM_007.jpg	99
2098.461	0.902	901.5	2back	Block4	2back/STIM_007.jpg	100
2102.187	0.917	917.0	2back	Block4	2back/STIM_007.jpg	99
2106.583	0.634	634.3	2back	Block4	2back/STIM_008.jpg	100
2110.566	0.601	601.0	2back	Block4	2back/STIM_008.jpg	99
2114.592	0.994	993.8	2back	Block4	2back/STIM_008.jpg	99
2117.695	0.818	818.5	2back	Block4	2back/STIM_009.jpg	99
2121.936	0.497	496.7	2back	Block4	2back/STIM_009.jpg	99
2124.943	0.628	627.6	2back	Block4	2back/STIM_009.jpg	99
2127.64	0.934	934.4	2back	Block4	2back/STIM_010.jpg	99
2130.946	0.832	832.0	2back	Block4	2back/STIM_010.jpg	100
2133.888	0.712	711.6	2back	Block4	2back/STIM_010.jpg	99
2137.573	0.622	622.3	2back	Block4	2back/STIM_011.jpg	100
2140.752	1.169	1169.4	2back	Block4	2back/STIM_011.jpg	100
2144.839	0.697	696.8	2back	Block4	2back/STIM_011.jpg	99
2148.969	0.995	995.4	2back	Block4	2back/STIM_012.jpg	100
2153.402	0.992	992.0	2back	Block4	2back/STIM_012.jpg	100
2157.926	0.876	875.7	2back	Block4	2back/STIM_012.jpg	99
2161.497	0.428	427.7	2back	Block4	2back/STIM_013.jpg	100
2165.518	0.753	752.7	2back	Block4	2back/STIM_013.jpg	100
2169.708	1.056	1055.8	2back	Block4	2back/STIM_013.jpg	99
2173.977	0.598	597.5	2back	Block4	2back/STIM_014.jpg	99
2177.835	0.794	794.2	2back	Block4	2back/STIM_014.jpg	100
2181.107	0.907	906.6	2back	Block4	2back/STIM_014.jpg	99
2185.14	0.547	547.2	2back	Block4	2back/STIM_015.jpg	100
2189.229	1.001	1000.9	2back	Block4	2back/STIM_015.jpg	100
2193.027	0.956	955.7	2back	Block4	2back/STIM_015.jpg	100
2197.412	0.837	837.2	2back	Block4	2back/STIM_016.jpg	100
2201.051	0.924	923.9	2back	Block4	2back/STIM_016.jpg	99
2205.559	0.911	911.4	2back	Block4	2back/STIM_016.jpg	100
2208.687	0.684	683.6	2back	Block4	2back/STIM_017.jpg	100
2211.937	0.801	800.9	2back	Block4	2back/STIM_017.jpg	100
2215.25	0.533	533.4	2back	Block4	2back/STIM_017.jpg	100
2218.04	0.822	822.3	2back	Block4	2back/STIM_018.jpg	100
2221.463	1.023	1022.7	2back	Block4	2back/STIM_018.jpg	100
2224.497	0.86	859.7	2back	Block4	2back/STIM_018.jpg	100
2228.372	0.604	604.0	2back	Block4	2back/STIM_019.jpg	99
2231.11	0.955	955.4	2back	Block4	2back/STIM_019.jpg	99
2235.381	0.679	679.2	2back	Block4	2back/STIM_019.jpg	100
2238.225	0.461	460.6	2back	Block4	2back/STIM_020.jpg	100
2241.745	0.924	924.4	2back	Block4	2back/STIM_020.jpg	99
2245.02	1.041	1040.9	2back	Block4	2back/STIM_020.jpg	99
2249.806	0.691	691.1	2back	Block4	2back/STIM_021.jpg	99
2253.996	0.899	898.6	2back	Block4	2back/STIM_021.jpg	100
2256.912	0.916	916.4	2back	Block4	2back/STIM_021.jpg	99
2261.445	1.035	1034.8	2back	Block4	2back/STIM_022.jpg	100
2265.963	0.793	793.4	2back	Block4	2back/STIM_022.jpg	100
2269.622	0.976	975.8	2back	Block4	2back/STIM_022.jpg	100
2274.335	0.835	835.1	2back	Block4	2back/STIM_023.jpg	100
2278.223	0.531	530.6	2back	Block4	2back/STIM_023.jpg	99
2281.14	0.936	936.1	2back	Block4	2back/STIM_023.jpg	99
2285.26	1.059	1059.3	2back	Block4	2back/STIM_024.jpg	100
2288.98	0.662	662.3	2back	Block4	2back/STIM_024.jpg	100
2292.344	0.844	843.6	2back	Block4	2back/STIM_024.jpg	100
2295.455	0.657	657.1	2back	Block4	2back/STIM_025.jpg	99
2299.387	0.701	700.7	2back	Block4	2back/STIM_025.jpg	100
2303.767	0.836	835.6	2back	Block4	2back/STIM_025.jpg	99
2308.42	0.475	475.0	2back	Block4	2back/STIM_026.jpg	99
2311.292	0.668	668.1	2back	Block4	2back/STIM_026.jpg	99
2314.169	0.636	635.5	2back	Block4	2back/STIM_026.jpg	99
2318.218	0.9	900.0	2back	Block4	2back/STIM_027.jpg	100
2321.479	0.936	936.5	2back	Block4	2back/STIM_027.jpg	100
2324.693	0.55	550.1	2back	Block4	2back/STIM_027.jpg	100
2328.408	0.577	577.1	2back	Block4	2back/STIM_028.jpg	100
2331.117	0.891	891.2	2back	Block4	2back/STIM_028.jpg	99
2334.424	0.95	950.1	2back	Block4	2back/STIM_028.jpg	100
2338.269	1.042	1042.4	2back	Block4	2back/STIM_029.jpg	99
2342.892	0.652	652.0	2back	Block4	2back/STIM_029.jpg	100
2345.611	0.786	786.2	2back	Block4	2back/STIM_029.jpg	99
2348.53	0.846	846.0	2back	Block4	2back/STIM_030.jpg	100
2351.693	0.824	824.4	2back	Block4	2back/STIM_030.jpg	99
2355.965	0.829	828.9	2back	Block4	2back/STIM_030.jpg	100
2359.423	0.732	732.3	2back	Block4	2back/STIM_031.jpg	99
2362.435	0.456	455.6	2back	Block4	2back/STIM_031.jpg	100
2366.316	1.105	1105.4	2back	Block4	2back/STIM_031.jpg	99
2369.457	0.99	989.9	2back	Block4	2back/STIM_032.jpg	99
2372.701	1.087	1086.8	2back	Block4	2back/STIM_032.jpg	100
2376.456	0.495	494.8	2back	Block4	2back/STIM_032.jpg	100
2379.123	0.477	477.2	2back	Block4	2back/STIM_033.jpg	100
2383.462	0.676	676.5	2back	Block4	2back/STIM_033.jpg	100
2386.256	0.689	688.9	2back	Block4	2back/STIM_033.jpg	99
2390.073	1.007	1007.2	2back	Block4	2back/STIM_034.jpg	100
2393.298	0.919	919.1	2back	Block4	2back/STIM_034.jpg	99
2396.487	0.652	652.5	2back	Block4	2back/STIM_034.jpg	100
2400.583	0.971	970.7	2back	Block4	2back/STIM_035.jpg	100
2405.283	0.539	538.9	2back	Block4	2back/STIM_035.jpg	99
2409.115	0.707	707.2	2back	Block4	2back/STIM_035.jpg	99
2412.04	0.926	925.9	2back	Block4	2back/STIM_036.jpg	100
2415.748	0.561	561.3	2back	Block4	2back/STIM_036.jpg	100
2418.717	0.731	730.7	2back	Block4	2back/STIM_036.jpg	99
2421.713	0.494	494.1	2back	Block4	2back/STIM_037.jpg	100
2424.361	0.556	555.8	2back	Block4	2back/STIM_037.jpg	99
2427.086	0.95	950.3	2back	Block4	2back/STIM_037.jpg	99
2430.436	0.69	690.4	2back	Block4	2back/STIM_038.jpg	100
2434.585	0.703	703.3	2back	Block4	2back/STIM_038.jpg	99
2439.025	0.594	593.5	2back	Block4	2back/STIM_038.jpg	99
2443.494	0.368	368.3	2back	Block4	2back/STIM_039.jpg	99
2447.962	0.831	830.8	2back	Block4	2back/STIM_039.jpg	99
2451.962	0.641	640.8	2back	Block4	2back/STIM_039.jpg	99
2455.375	0.969	968.8	0back	Block4	0back/STIM_000.jpg	99
2458.984	0.895	894.8	0back	Block4	0back/STIM_000.jpg	100
2461.804	0.692	692.0	0back	Block4	0back/STIM_000.jpg	99
2465.285	0.787	786.7	0back	Block4	0back/STIM_001.jpg	100
2469.422	0.838	838.0	0back	Block4	0back/STIM_001.jpg	100
2473.403	0.697	697.4	0back	Block4	0back/STIM_001.jpg	100
2478.013	0.655	655.3	0back	Block4	0back/STIM_002.jpg	100
2481.35	0.696	695.6	0back	Block4	0back/STIM_002.jpg	100
2485.357	0.835	835.4	0back	Block4	0back/STIM_002.jpg	100
2489.011	0.698	697.6	0back	Block4	0back/STIM_003.jpg	100
2492.138	0.795	795.1	0back	Block4	0back/STIM_003.jpg	99
2495.465	0.649	649.2	0back	Block4	0back/STIM_003.jpg	100
2498.495	0.528	528.2	0back	Block4	0back/STIM_004.jpg	100
2502.24	0.755	755.1	0back	Block4	0back/STIM_004.jpg	100
2505.63	0.879	879.2	0back	Block4	0back/STIM_004.jpg	100
2508.486	0.464	464.1	0back	Block4	0back/STIM_005.jpg	100
2512.472	0.779	779.2	0back	Block4	0back/STIM_005.jpg	99
2516.764	0.648	647.5	0back	Block4	0back/STIM_005.jpg	100
2520.583	0.863	863.3	0back	Block4	0back/STIM_006.jpg	99
2523.916	0.67	669.9	0back	Block4	0back/STIM_006.jpg	99
2527.489	0.75	750.4	0back	Block4	0back/STIM_006.jpg	100
2532.056	0.639	638.9	0back	Block4	0back/STIM_007.jpg	100
2535.926	0.628	627.5	0back	Block4	0back/STIM_007.jpg	100
2538.534	0.636	635.8	0back	Block4	0back/STIM_007.jpg	100
2542.467	0.746	746.5	0back	Block4	0back/STIM_008.jpg	100
2545.498	0.578	578.2	0back	Block4	0back/STIM_008.jpg	100
2549.336	0.746	746.1	0back	Block4	0back/STIM_008.jpg	99
2553.152	0.868	868.2	0back	Block4	0back/STIM_009.jpg	100
2557.284	0.542	542.0	0back	Block4	0back/STIM_009.jpg	99
2561.133	0.909	908.6	0back	Block4	0back/STIM_009.jpg	99
2564.26	0.933	932.6	0back	Block4	0back/STIM_010.jpg	99
2568.562	0.492	492.5	0back	Block4	0back/STIM_010.jpg	99
2572.045	0.758	757.5	0back	Block4	0back/STIM_010.jpg	99
2576.22	0.851	851.2	0back	Block4	0back/STIM_011.jpg	99
2579.228	0.591	591.4	0back	Block4	0back/STIM_011.jpg	100
2582.851	0.811	811.2	0back	Block4	0back/STIM_011.jpg	99
2587.219	0.593	593.1	0back	Block4	0back/STIM_012.jpg	99
2591.509	0.82	819.7	0back	Block4	0back/STIM_012.jpg	100
2595.425	0.663	663.1	0back	Block4	0back/STIM_012.jpg	99
2598.799	0.623	623.2	0back	Block4	0back/STIM_013.jpg	100
2603.143	0.783	783.2	0back	Block4	0back/STIM_013.jpg	100
2607.084	0.831	831.3	0back	Block4	0back/STIM_013.jpg	100
2610.206	0.548	548.3	0back	Block4	0back/STIM_014.jpg	99
2613.745	0.86	860.1	0back	Block4	0back/STIM_014.jpg	99
2617.26	0.473	473.0	0back	Block4	0back/STIM_014.jpg	100
2621.508	0.768	767.8	0back	Block4	0back/STIM_015.jpg	99
2624.899	0.801	801.2	0back	Block4	0back/STIM_015.jpg	99
2628.337	0.781	780.6	0back	Block4	0back/STIM_015.jpg	99
2632.405	0.436	436.0	0back	Block4	0back/STIM_016.jpg	99
2635.552	0.702	701.7	0back	Block4	0back/STIM_016.jpg	100
2639.051	0.432	432.4	0back	Block4	0back/STIM_016.jpg	99
2642.362	0.854	854.4	0back	Block4	0back/STIM_017.jpg	99
2645.43	0.851	850.7	0back	Block4	0back/STIM_017.jpg	99
2649.623	0.678	678.0	0back	Block4	0back/STIM_017.jpg	99
2652.995	0.642	642.0	0back	Block4	0back/STIM_018.jpg	100
2657.288	0.926	925.6	0back	Block4	0back/STIM_018.jpg	99
2660.282	0.594	593.8	0back	Block4	0back/STIM_018.jpg	100
2662.833	0.6	600.5	0back	Block4	0back/STIM_019.jpg	100
2667.027	0.806	805.9	0back	Block4	0back/STIM_019.jpg	99
2670.254	0.804	804.5	0back	Block4	0back/STIM_019.jpg	100
