onset	duration	response_time_ms	trial_type	learning_stage	stimulus	response_port
0.0	2.114	2113.9	navigation	Trial1	navigation/STIM_000.jpg	100
4.698	3.194	3193.9	navigation	Trial1	navigation/STIM_000.jpg	99
11.063	3.314	3314.5	navigation	Trial1	navigation/STIM_000.jpg	99
18.255	2.896	2895.6	navigation	Trial1	navigation/STIM_000.jpg	99
23.8	3.668	3667.5	navigation	Trial1	navigation/STIM_000.jpg	100
30.894	1.862	1862.3	navigation	Trial1	navigation/STIM_000.jpg	100
35.667	3.44	3440.0	navigation	Trial1	navigation/STIM_001.jpg	99
42.301	4.025	4025.4	navigation	Trial1	navigation/STIM_001.jpg	99
48.88	2.472	2472.4	navigation	Trial1	navigation/STIM_001.jpg	99
53.514	2.996	2996.1	navigation	Trial1	navigation/STIM_001.jpg	100
59.262	3.151	3150.9	navigation	Trial1	navigation/STIM_001.jpg	100
65.616	2.531	2530.7	navigation	Trial1	navigation/STIM_001.jpg	100
70.927	2.83	2829.6	navigation	Trial1	navigation/STIM_002.jpg	99
77.562	1.966	1965.9	navigation	Trial1	navigation/STIM_002.jpg	99
82.923	2.646	2646.2	navigation	Trial1	navigation/STIM_002.jpg	99
88.966	1.632	1632.1	navigation	Trial1	navigation/STIM_002.jpg	100
93.266	2.217	2217.2	navigation	Trial1	navigation/STIM_002.jpg	100
99.376	1.676	1676.0	navigation	Trial1	navigation/STIM_002.jpg	100
103.332	3.003	3003.3	navigation	Trial1	navigation/STIM_003.jpg	99
108.597	3.213	3213.0	navigation	Trial1	navigation/STIM_003.jpg	100
113.956	2.45	2449.9	navigation	Trial1	navigation/STIM_003.jpg	100
119.705	1.846	1845.7	navigation	Trial1	navigation/STIM_003.jpg	99
123.92	3.817	3816.9	navigation	Trial1	navigation/STIM_003.jpg	100
131.345	3.1	3100.4	navigation	Trial1	navigation/STIM_003.jpg	100
137.667	2.792	2792.2	navigation	Trial1	navigation/STIM_004.jpg	99
144.326	3.619	3619.2	navigation	Trial1	navigation/STIM_004.jpg	99
151.01	1.917	1917.1	navigation	Trial1	navigation/STIM_004.jpg	99
155.357	3.224	3223.8	navigation	Trial1	navigation/STIM_004.jpg	99
161.189	1.784	1784.4	navigation	Trial1	navigation/STIM_004.jpg	99
166.69	3.092	3092.4	navigation	Trial1	navigation/STIM_004.jpg	100
173.739	4.047	4046.7	navigation	Trial1	navigation/STIM_005.jpg	100
181.711	4.474	4473.5	navigation	Trial1	navigation/STIM_005.jpg	99
189.475	3.945	3945.3	navigation	Trial1	navigation/STIM_005.jpg	100
196.728	2.007	2006.7	navigation	Trial1	navigation/STIM_005.jpg	99
201.71	2.952	2952.2	navigation	Trial1	navigation/STIM_005.jpg	100
208.46	2.963	2962.8	navigation	Trial1	navigation/STIM_005.jpg	99
215.107	3.363	3362.9	navigation	Trial1	navigation/STIM_006.jpg	99
221.374	3.152	3151.6	navigation	Trial1	navigation/STIM_006.jpg	100
228.475	3.382	3382.3	navigation	Trial1	navigation/STIM_006.jpg	100
234.682	2.534	2533.9	navigation	Trial1	navigation/STIM_006.jpg	99
240.459	1.806	1805.5	navigation	Trial1	navigation/STIM_006.jpg	99
245.271	1.616	1615.8	navigation	Trial1	navigation/STIM_006.jpg	99
249.991	2.872	2872.3	navigation	Trial1	navigation/STIM_007.jpg	100
255.418	2.809	2808.7	navigation	Trial1	navigation/STIM_007.jpg	99
261.098	2.361	2361.1	navigation	Trial1	navigation/STIM_007.jpg	99
265.724	3.07	3070.0	navigation	Trial1	navigation/STIM_007.jpg	99
271.266	2.326	2326.4	navigation	Trial1	navigation/STIM_007.jpg	100
276.065	2.3	2300.4	navigation	Trial1	navigation/STIM_007.jpg	99
281.889	3.536	3535.5	navigation	Trial1	navigation/STIM_008.jpg	100
289.288	3.297	3297.2	navigation	Trial1	navigation/STIM_008.jpg	99
295.195	3.053	3052.9	navigation	Trial1	navigation/STIM_008.jpg	99
300.845	3.403	3403.2	navigation	Trial1	navigation/STIM_008.jpg	100
306.314	2.66	2659.8	navigation	Trial1	navigation/STIM_008.jpg	100
311.814	1.744	1743.7	navigation	Trial1	navigation/STIM_008.jpg	100
315.67	4.523	4522.7	navigation	Trial1	navigation/STIM_009.jpg	99
322.62	3.25	3249.6	navigation	Trial1	navigation/STIM_009.jpg	100
329.576	2.15	2149.9	navigation	Trial1	navigation/STIM_009.jpg	100
334.363	3.873	3872.8	navigation	Trial1	navigation/STIM_009.jpg	100
340.809	3.671	3670.9	navigation	Trial1	navigation/STIM_009.jpg	99
347.101	2.289	2289.1	navigation	Trial1	navigation/STIM_009.jpg	99
351.817	3.84	3840.5	navigation	Trial1	navigation/STIM_010.jpg	99
359.439	2.641	2640.7	navigation	Trial1	navigation/STIM_010.jpg	100
365.358	2.288	2288.1	navigation	Trial1	navigation/STIM_010.jpg	99
370.549	3.808	3807.5	navigation	Trial1	navigation/STIM_010.jpg	99
377.415	2.809	2809.0	navigation	Trial1	navigation/STIM_010.jpg	100
383.36	3.22	3219.5	navigation	Trial1	navigation/STIM_010.jpg	99
390.408	4.696	4696.2	navigation	Trial1	navigation/STIM_011.jpg	99
397.71	3.678	3678.2	navigation	Trial1	navigation/STIM_011.jpg	100
404.764	2.858	2858.2	navigation	Trial1	navigation/STIM_011.jpg	100
410.037	2.137	2137.2	navigation	Trial1	navigation/STIM_011.jpg	100
415.923	2.995	2994.8	navigation	Trial1	navigation/STIM_011.jpg	100
422.033	3.302	3302.2	navigation	Trial1	navigation/STIM_011.jpg	100
427.932	1.113	1112.9	pointing	Trial1	pointing/STIM_000.jpg	100
432.704	1.347	1346.8	pointing	Trial1	pointing/STIM_000.jpg	99
436.824	1.321	1320.7	pointing	Trial1	pointing/STIM_000.jpg	100
440.431	0.89	889.6	pointing	Trial1	pointing/STIM_000.jpg	100
444.218	1.321	1320.9	pointing	Trial1	pointing/STIM_000.jpg	100
449.079	0.977	977.3	pointing	Trial1	pointing/STIM_000.jpg	100
452.584	1.296	1296.5	pointing	Trial1	pointing/STIM_001.jpg	99
457.16	1.062	1061.5	pointing	Trial1	pointing/STIM_001.jpg	100
460.624	1.181	1181.0	pointing	Trial1	pointing/STIM_001.jpg	100
464.643	0.944	944.3	pointing	Trial1	pointing/STIM_001.jpg	100
468.632	1.223	1222.7	pointing	Trial1	pointing/STIM_001.jpg	99
472.406	1.436	1435.6	pointing	Trial1	pointing/STIM_001.jpg	99
476.267	1.083	1082.8	pointing	Trial1	pointing/STIM_002.jpg	100
479.824	1.359	1358.9	pointing	Trial1	pointing/STIM_002.jpg	100
483.532	1.356	1355.5	pointing	Trial1	pointing/STIM_002.jpg	100
488.16	1.215	1214.8	pointing	Trial1	pointing/STIM_002.jpg	100
492.778	1.398	1397.8	pointing	Trial1	pointing/STIM_002.jpg	99
497.947	0.921	921.2	pointing	Trial1	pointing/STIM_002.jpg	99
502.29	1.364	1364.1	pointing	Trial1	pointing/STIM_003.jpg	100
506.295	1.013	1013.4	pointing	Trial1	pointing/STIM_003.jpg	100
509.342	1.41	1409.7	pointing	Trial1	pointing/STIM_003.jpg	99
514.509	1.138	1137.8	pointing	Trial1	pointing/STIM_003.jpg	99
518.461	1.014	1014.1	pointing	Trial1	pointing/STIM_003.jpg	100
521.863	1.112	1112.2	pointing	Trial1	pointing/STIM_003.jpg	100
526.034	1.177	1177.0	pointing	Trial1	pointing/STIM_004.jpg	99
530.718	0.885	885.2	pointing	Trial1	pointing/STIM_004.jpg	99
534.763	1.209	1208.8	pointing	Trial1	pointing/STIM_004.jpg	100
538.017	1.268	1267.8	pointing	Trial1	pointing/STIM_004.jpg	100
541.771	1.109	1108.7	pointing	Trial1	pointing/STIM_004.jpg	100
545.838	0.873	872.8	pointing	Trial1	pointing/STIM_004.jpg	99
550.556	0.849	849.2	pointing	Trial1	pointing/STIM_005.jpg	100
555.179	1.3	1299.7	pointing	Trial1	pointing/STIM_005.jpg	99
558.644	1.425	1424.7	pointing	Trial1	pointing/STIM_005.jpg	100
562.772	1.4	1400.4	pointing	Trial1	pointing/STIM_005.jpg	99
567.474	1.0	1000.2	pointing	Trial1	pointing/STIM_005.jpg	99
570.95	1.291	1291.1	pointing	Trial1	pointing/STIM_005.jpg	100
574.654	1.406	1405.7	pointing	Trial1	pointing/STIM_006.jpg	99
579.681	1.434	1433.9	pointing	Trial1	pointing/STIM_006.jpg	100
584.911	0.96	959.7	pointing	Trial1	pointing/STIM_006.jpg	99
588.87	1.09	1090.5	pointing	Trial1	pointing/STIM_006.jpg	100
592.18	1.094	1093.9	pointing	Trial1	pointing/STIM_006.jpg	99
597.233	1.207	1206.8	pointing	Trial1	pointing/STIM_006.jpg	99
602.238	0.812	812.2	pointing	Trial1	pointing/STIM_007.jpg	100
606.328	1.175	1175.4	pointing	Trial1	pointing/STIM_007.jpg	99
610.78	0.784	784.2	pointing	Trial1	pointing/STIM_007.jpg	100
614.915	1.194	1194.3	pointing	Trial1	pointing/STIM_007.jpg	100
618.23	1.101	1101.0	pointing	Trial1	pointing/STIM_007.jpg	99
621.714	1.042	1041.6	pointing	Trial1	pointing/STIM_007.jpg	100
625.093	1.366	1365.5	pointing	Trial1	pointing/STIM_008.jpg	99
628.638	0.989	988.6	pointing	Trial1	pointing/STIM_008.jpg	99
632.652	1.099	1098.8	pointing	Trial1	pointing/STIM_008.jpg	100
637.15	1.324	1323.5	pointing	Trial1	pointing/STIM_008.jpg	99
641.555	1.209	1209.1	pointing	Trial1	pointing/STIM_008.jpg	99
645.966	1.322	1321.6	pointing	Trial1	pointing/STIM_008.jpg	100
649.506	1.076	1075.9	pointing	Trial1	pointing/STIM_009.jpg	99
654.229	1.285	1284.9	pointing	Trial1	pointing/STIM_009.jpg	99
658.19	1.098	1098.1	pointing	Trial1	pointing/STIM_009.jpg	99
663.211	0.767	767.0	pointing	Trial1	pointing/STIM_009.jpg	99
666.459	0.89	889.9	pointing	Trial1	pointing/STIM_009.jpg	99
671.109	1.078	1078.0	pointing	Trial1	pointing/STIM_009.jpg	100
674.429	1.186	1185.9	pointing	Trial1	pointing/STIM_010.jpg	100
679.233	0.989	988.7	pointing	Trial1	pointing/STIM_010.jpg	99
683.449	1.134	1134.4	pointing	Trial1	pointing/STIM_010.jpg	99
688.012	0.824	824.4	pointing	Trial1	pointing/STIM_010.jpg	99
692.63	1.304	1303.8	pointing	Trial1	pointing/STIM_010.jpg	99
697.733	0.873	872.9	pointing	Trial1	pointing/STIM_010.jpg	99
701.768	1.014	1014.4	pointing	Trial1	pointing/STIM_011.jpg	99
705.36	1.216	1216.4	pointing	Trial1	pointing/STIM_011.jpg	100
709.285	0.847	846.8	pointing	Trial1	pointing/STIM_011.jpg	99
712.611	0.965	965.2	pointing	Trial1	pointing/STIM_011.jpg	100
716.953	0.796	796.5	pointing	Trial1	pointing/STIM_011.jpg	100
721.738	0.971	971.2	pointing	Trial1	pointing/STIM_011.jpg	99
725.957	1.773	1773.0	navigation	Trial2	navigation/STIM_000.jpg	99
731.202	2.676	2675.8	navigation	Trial2	navigation/STIM_000.jpg	100
736.339	2.593	2593.0	navigation	Trial2	navigation/STIM_000.jpg	100
742.153	2.984	2984.1	navigation	Trial2	navigation/STIM_000.jpg	99
748.807	2.021	2020.5	navigation	Trial2	navigation/STIM_000.jpg	99
753.893	2.25	2249.9	navigation	Trial2	navigation/STIM_000.jpg	100
758.907	3.753	3753.2	navigation	Trial2	navigation/STIM_001.jpg	99
765.287	3.074	3074.5	navigation	Trial2	navigation/STIM_001.jpg	100
771.117	1.865	1865.0	navigation	Trial2	navigation/STIM_001.jpg	100
776.419	1.708	1708.3	navigation	Trial2	navigation/STIM_001.jpg	99
780.687	1.583	1582.8	navigation	Trial2	navigation/STIM_001.jpg	100
785.546	1.526	1526.2	navigation	Trial2	navigation/STIM_001.jpg	99
790.357	2.243	2242.7	navigation	Trial2	navigation/STIM_002.jpg	100
794.872	2.404	2403.9	navigation	Trial2	navigation/STIM_002.jpg	99
799.598	2.042	2042.0	navigation	Trial2	navigation/STIM_002.jpg	100
804.242	1.612	1611.6	navigation	Trial2	navigation/STIM_002.jpg	100
809.437	2.4	2399.5	navigation	Trial2	navigation/STIM_002.jpg	99
815.159	2.668	2668.1	navigation	Trial2	navigation/STIM_002.jpg	100
821.556	2.971	2971.0	navigation	Trial2	navigation/STIM_003.jpg	99
827.76	3.371	3370.8	navigation	Trial2	navigation/STIM_003.jpg	100
834.247	2.283	2282.7	navigation	Trial2	navigation/STIM_003.jpg	99
840.265	3.141	3140.6	navigation	Trial2	navigation/STIM_003.jpg	99
847.388	2.706	2705.7	navigation	Trial2	navigation/STIM_003.jpg	100
853.784	2.111	2111.4	navigation	Trial2	navigation/STIM_003.jpg	100
858.692	2.528	2527.5	navigation	Trial2	navigation/STIM_004.jpg	100
865.197	1.808	1807.9	navigation	Trial2	navigation/STIM_004.jpg	99
870.436	2.217	2216.8	navigation	Trial2	navigation/STIM_004.jpg	100
875.921	2.518	2518.1	navigation	Trial2	navigation/STIM_004.jpg	99
880.634	3.251	3250.8	navigation	Trial2	navigation/STIM_004.jpg	99
886.082	1.837	1836.6	navigation	Trial2	navigation/STIM_004.jpg	99
891.749	3.924	3923.5	navigation	Trial2	navigation/STIM_005.jpg	99
897.926	2.965	2965.0	navigation	Trial2	navigation/STIM_005.jpg	99
903.527	1.581	1580.8	navigation	Trial2	navigation/STIM_005.jpg	99
907.855	1.392	1391.6	navigation	Trial2	navigation/STIM_005.jpg	100
912.375	2.764	2764.1	navigation	Trial2	navigation/STIM_005.jpg	100
918.919	2.925	2925.3	navigation	Trial2	navigation/STIM_005.jpg	100
924.015	1.71	1709.9	navigation	Trial2	navigation/STIM_006.jpg	99
929.424	3.21	3209.9	navigation	Trial2	navigation/STIM_006.jpg	99
936.239	2.996	2995.7	navigation	Trial2	navigation/STIM_006.jpg	100
943.1	1.886	1885.6	navigation	Trial2	navigation/STIM_006.jpg	100
948.304	2.615	2614.6	navigation	Trial2	navigation/STIM_006.jpg	100
954.648	2.405	2404.7	navigation	Trial2	navigation/STIM_006.jpg	100
960.827	2.634	2634.5	navigation	Trial2	navigation/STIM_007.jpg	100
965.632	3.482	3482.0	navigation	Trial2	navigation/STIM_007.jpg	99
972.141	2.084	2084.4	navigation	Trial2	navigation/STIM_007.jpg	100
977.21	3.33	3329.7	navigation	Trial2	navigation/STIM_007.jpg	100
983.782	1.774	1773.9	navigation	Trial2	navigation/STIM_007.jpg	99
987.794	1.992	1992.0	navigation	Trial2	navigation/STIM_007.jpg	99
992.2	3.346	3346.5	navigation	Trial2	navigation/STIM_008.jpg	100
997.913	2.611	2610.8	navigation	Trial2	navigation/STIM_008.jpg	99
1002.601	2.098	2097.8	navigation	Trial2	navigation/STIM_008.jpg	100
1008.417	3.284	3284.4	navigation	Trial2	navigation/STIM_008.jpg	100
1014.801	2.303	2303.2	navigation	Trial2	navigation/STIM_008.jpg	100
1020.324	2.88	2879.8	navigation	Trial2	navigation/STIM_008.jpg	100
1025.855	2.555	2555.1	navigation	Trial2	navigation/STIM_009.jpg	99
1030.784	2.102	2102.4	navigation	Trial2	navigation/STIM_009.jpg	100
1035.895	3.244	3244.3	navigation	Trial2	navigation/STIM_009.jpg	100
1041.876	2.487	2487.3	navigation	Trial2	navigation/STIM_009.jpg	100
1046.93	2.128	2127.9	navigation	Trial2	navigation/STIM_009.jpg	99
1052.107	1.566	1566.4	navigation	Trial2	navigation/STIM_009.jpg	99
1056.906	2.432	2432.2	navigation	Trial2	navigation/STIM_010.jpg	99
1063.073	3.638	3638.5	navigation	Trial2	navigation/STIM_010.jpg	99
1070.09	2.802	2802.1	navigation	Trial2	navigation/STIM_010.jpg	100
1075.105	1.673	1672.7	navigation	Trial2	navigation/STIM_010.jpg	99
1079.119	2.934	2934.0	navigation	Trial2	navigation/STIM_010.jpg	99
1085.862	3.267	3266.7	navigation	Trial2	navigation/STIM_010.jpg	100
1091.788	3.592	3592.2	navigation	Trial2	navigation/STIM_011.jpg	100
1097.622	3.744	3743.5	navigation	Trial2	navigation/STIM_011.jpg	99
1104.721	3.003	3002.9	navigation	Trial2	navigation/STIM_011.jpg	99
1110.997	2.395	2395.0	navigation	Trial2	navigation/STIM_011.jpg	100
1115.527	2.695	2695.2	navigation	Trial2	navigation/STIM_011.jpg	100
1120.752	3.197	3197.0	navigation	Trial2	navigation/STIM_011.jpg	100
1126.251	1.005	1005.0	pointing	Trial2	pointing/STIM_000.jpg	100
1129.744	0.833	833.2	pointing	Trial2	pointing/STIM_000.jpg	99
1132.957	0.912	911.5	pointing	Trial2	pointing/STIM_000.jpg	100
1136.733	1.354	1354.5	pointing	Trial2	pointing/STIM_000.jpg	99
1141.039	1.221	1220.8	pointing	Trial2	pointing/STIM_000.jpg	99
1144.312	1.31	1310.3	pointing	Trial2	pointing/STIM_000.jpg	100
1148.402	1.361	1360.9	pointing	Trial2	pointing/STIM_001.jpg	100
1152.163	0.878	878.5	pointing	Trial2	pointing/STIM_001.jpg	100
1155.975	0.992	992.3	pointing	Trial2	pointing/STIM_001.jpg	100
1160.542	1.3	1299.5	pointing	Trial2	pointing/STIM_001.jpg	99
1164.557	1.279	1279.3	pointing	Trial2	pointing/STIM_001.jpg	99
1168.655	0.915	914.6	pointing	Trial2	pointing/STIM_001.jpg	100
1171.804	1.395	1394.6	pointing	Trial2	pointing/STIM_002.jpg	100
1175.761	0.965	965.0	pointing	Trial2	pointing/STIM_002.jpg	99
1179.455	0.83	830.3	pointing	Trial2	pointing/STIM_002.jpg	99
1183.381	1.083	1083.1	pointing	Trial2	pointing/STIM_002.jpg	99
1188.222	1.269	1269.3	pointing	Trial2	pointing/STIM_002.jpg	100
1193.389	1.144	1143.9	pointing	Trial2	pointing/STIM_002.jpg	100
1196.989	1.266	1266.4	pointing	Trial2	pointing/STIM_003.jpg	99
1202.052	1.375	1374.9	pointing	Trial2	pointing/STIM_003.jpg	99
1205.89	1.417	1417.3	pointing	Trial2	pointing/STIM_003.jpg	99
1210.516	1.152	1152.4	pointing	Trial2	pointing/STIM_003.jpg	100
1213.961	0.843	843.4	pointing	Trial2	pointing/STIM_003.jpg	99
1217.854	1.26	1259.8	pointing	Trial2	pointing/STIM_003.jpg	100
1221.935	0.949	949.0	pointing	Trial2	pointing/STIM_004.jpg	100
1226.136	1.104	1103.9	pointing	Trial2	pointing/STIM_004.jpg	100
1229.574	1.352	1352.2	pointing	Trial2	pointing/STIM_004.jpg	100
1234.169	1.118	1117.6	pointing	Trial2	pointing/STIM_004.jpg	99
1238.877	1.027	1026.6	pointing	Trial2	pointing/STIM_004.jpg	100
1243.716	0.882	882.0	pointing	Trial2	pointing/STIM_004.jpg	99
1246.763	0.846	846.5	pointing	Trial2	pointing/STIM_005.jpg	100
1250.39	1.074	1074.1	pointing	Trial2	pointing/STIM_005.jpg	100
1255.06	1.251	1251.1	pointing	Trial2	pointing/STIM_005.jpg	100
1259.852	1.23	1230.4	pointing	Trial2	pointing/STIM_005.jpg	99
1264.941	1.344	1343.8	pointing	Trial2	pointing/STIM_005.jpg	100
1269.328	0.958	957.6	pointing	Trial2	pointing/STIM_005.jpg	99
1272.755	1.296	1295.9	pointing	Trial2	pointing/STIM_006.jpg	99
1277.432	1.223	1222.9	pointing	Trial2	pointing/STIM_006.jpg	100
1282.127	1.331	1331.3	pointing	Trial2	pointing/STIM_006.jpg	100
1285.732	1.251	1251.0	pointing	Trial2	pointing/STIM_006.jpg	99
1290.754	0.903	902.8	pointing	Trial2	pointing/STIM_006.jpg	99
1293.722	1.216	1215.8	pointing	Trial2	pointing/STIM_006.jpg	99
1297.147	0.894	893.6	pointing	Trial2	pointing/STIM_007.jpg	100
1301.197	1.155	1155.2	pointing	Trial2	pointing/STIM_007.jpg	100
1304.923	1.298	1297.7	pointing	Trial2	pointing/STIM_007.jpg	100
1308.984	0.969	969.4	pointing	Trial2	pointing/STIM_007.jpg	99
1312.975	0.963	963.4	pointing	Trial2	pointing/STIM_007.jpg	100
1316.355	1.427	1426.9	pointing	Trial2	pointing/STIM_007.jpg	100
1320.715	1.321	1321.2	pointing	Trial2	pointing/STIM_008.jpg	100
1325.004	1.432	1431.5	pointing	Trial2	pointing/STIM_008.jpg	99
1328.673	1.262	1262.3	pointing	Trial2	pointing/STIM_008.jpg	99
1332.95	1.314	1314.2	pointing	Trial2	pointing/STIM_008.jpg	99
1337.44	1.245	1245.1	pointing	Trial2	pointing/STIM_008.jpg	99
1340.745	0.827	826.6	pointing	Trial2	pointing/STIM_008.jpg	99
1344.258	1.33	1330.0	pointing	Trial2	pointing/STIM_009.jpg	99
1348.179	1.311	1310.6	pointing	Trial2	pointing/STIM_009.jpg	99
1353.369	1.307	1307.3	pointing	Trial2	pointing/STIM_009.jpg	99
1357.544	1.058	1058.2	pointing	Trial2	pointing/STIM_009.jpg	99
1362.29	1.204	1204.2	pointing	Trial2	pointing/STIM_009.jpg	100
1367.028	1.291	1290.6	pointing	Trial2	pointing/STIM_009.jpg	100
1370.4	1.028	1028.1	pointing	Trial2	pointing/STIM_010.jpg	99
1374.388	0.967	967.4	pointing	Trial2	pointing/STIM_010.jpg	99
1378.298	0.994	993.5	pointing	Trial2	pointing/STIM_010.jpg	100
1381.64	1.383	1383.1	pointing	Trial2	pointing/STIM_010.jpg	100
1385.266	0.885	885.0	pointing	Trial2	pointing/STIM_010.jpg	99
1388.892	1.37	1369.5	pointing	Trial2	pointing/STIM_010.jpg	99
1392.947	1.31	1309.5	pointing	Trial2	pointing/STIM_011.jpg	100
1398.094	0.962	961.6	pointing	Trial2	pointing/STIM_011.jpg	100
1401.606	1.362	1361.9	pointing	Trial2	pointing/STIM_011.jpg	100
1405.036	1.428	1428.2	pointing	Trial2	pointing/STIM_011.jpg	100
1410.145	1.431	1431.3	pointing	Trial2	pointing/STIM_011.jpg	100
1414.156	1.027	1027.1	pointing	Trial2	pointing/STIM_011.jpg	100
1417.733	2.724	2724.3	navigation	Trial3	navigation/STIM_000.jpg	100
1423.183	3.339	3338.6	navigation	Trial3	navigation/STIM_000.jpg	99
1430.007	2.864	2864.3	navigation	Trial3	navigation/STIM_000.jpg	99
1435.783	3.06	3059.9	navigation	Trial3	navigation/STIM_000.jpg	99
1440.898	2.111	2110.7	navigation	Trial3	navigation/STIM_000.jpg	99
1446.102	1.366	1366.3	navigation	Trial3	navigation/STIM_000.jpg	100
1450.619	3.238	3237.9	navigation	Trial3	navigation/STIM_001.jpg	99
1456.408	3.024	3024.5	navigation	Trial3	navigation/STIM_001.jpg	99
1462.961	2.603	2603.2	navigation	Trial3	navigation/STIM_001.jpg	99
1468.746	2.365	2364.7	navigation	Trial3	navigation/STIM_001.jpg	100
1474.977	3.145	3144.8	navigation	Trial3	navigation/STIM_001.jpg	99
1480.612	1.914	1914.2	navigation	Trial3	navigation/STIM_001.jpg	100
1485.953	1.887	1887.3	navigation	Trial3	navigation/STIM_002.jpg	99
1490.698	2.004	2004.2	navigation	Trial3	navigation/STIM_002.jpg	100
1494.83	1.983	1983.2	navigation	Trial3	navigation/STIM_002.jpg	100
1499.943	1.506	1506.3	navigation	Trial3	navigation/STIM_002.jpg	100
1503.892	3.274	3274.0	navigation	Trial3	navigation/STIM_002.jpg	100
1509.421	2.901	2900.8	navigation	Trial3	navigation/STIM_002.jpg	99
1516.23	1.709	1708.6	navigation	Trial3	navigation/STIM_003.jpg	100
1520.092	2.865	2865.2	navigation	Trial3	navigation/STIM_003.jpg	100
1526.926	2.002	2002.3	navigation	Trial3	navigation/STIM_003.jpg	100
1532.078	2.835	2834.7	navigation	Trial3	navigation/STIM_003.jpg	99
1537.983	1.369	1369.1	navigation	Trial3	navigation/STIM_003.jpg	99
1543.213	2.66	2660.2	navigation	Trial3	navigation/STIM_003.jpg	100
1549.679	1.963	1963.3	navigation	Trial3	navigation/STIM_004.jpg	100
1555.123	2.213	2212.8	navigation	Trial3	navigation/STIM_004.jpg	100
1559.46	2.065	2065.4	navigation	Trial3	navigation/STIM_004.jpg	99
1564.269	1.902	1901.9	navigation	Trial3	navigation/STIM_004.jpg	99
1569.629	3.026	3026.1	navigation	Trial3	navigation/STIM_004.jpg	99
1575.25	3.02	3020.5	navigation	Trial3	navigation/STIM_004.jpg	100
1581.905	3.192	3192.4	navigation	Trial3	navigation/STIM_005.jpg	99
1588.303	2.976	2975.6	navigation	Trial3	navigation/STIM_005.jpg	100
1594.345	1.857	1857.3	navigation	Trial3	navigation/STIM_005.jpg	99
1599.638	2.281	2281.0	navigation	Trial3	navigation/STIM_005.jpg	100
1605.636	3.101	3101.2	navigation	Trial3	navigation/STIM_005.jpg	100
1611.672	2.914	2913.6	navigation	Trial3	navigation/STIM_005.jpg	100
1616.686	1.59	1589.5	navigation	Trial3	navigation/STIM_006.jpg	99
1621.811	2.653	2653.1	navigation	Trial3	navigation/STIM_006.jpg	100
1627.826	3.151	3151.1	navigation	Trial3	navigation/STIM_006.jpg	99
1634.442	1.886	1886.3	navigation	Trial3	navigation/STIM_006.jpg	100
1638.331	2.0	1999.7	navigation	Trial3	navigation/STIM_006.jpg	99
1643.879	2.177	2177.1	navigation	Trial3	navigation/STIM_006.jpg	100
1649.858	1.452	1451.8	navigation	Trial3	navigation/STIM_007.jpg	100
1653.481	3.145	3144.7	navigation	Trial3	navigation/STIM_007.jpg	99
1658.782	2.766	2766.4	navigation	Trial3	navigation/STIM_007.jpg	99
1664.651	1.914	1913.5	navigation	Trial3	navigation/STIM_007.jpg	100
1670.512	1.426	1425.8	navigation	Trial3	navigation/STIM_007.jpg	100
1675.51	1.556	1556.0	navigation	Trial3	navigation/STIM_007.jpg	100
1680.328	1.49	1490.2	navigation	Trial3	navigation/STIM_008.jpg	100
1684.146	1.414	1414.4	navigation	Trial3	navigation/STIM_008.jpg	99
1687.96	2.161	2160.6	navigation	Trial3	navigation/STIM_008.jpg	100
1692.436	2.23	2230.3	navigation	Trial3	navigation/STIM_008.jpg	100
1697.342	2.031	2030.7	navigation	Trial3	navigation/STIM_008.jpg	100
1701.702	2.225	2225.4	navigation	Trial3	navigation/STIM_008.jpg	100
1706.616	2.039	2038.9	navigation	Trial3	navigation/STIM_009.jpg	99
1711.037	2.484	2483.7	navigation	Trial3	navigation/STIM_009.jpg	100
1716.46	3.077	3077.2	navigation	Trial3	navigation/STIM_009.jpg	99
1723.11	2.953	2952.8	navigation	Trial3	navigation/STIM_009.jpg	99
1729.188	2.146	2145.8	navigation	Trial3	navigation/STIM_009.jpg	100
1734.361	2.786	2786.4	navigation	Trial3	navigation/STIM_009.jpg	100
1740.154	2.989	2988.6	navigation	Trial3	navigation/STIM_010.jpg	100
1746.325	2.367	2367.1	navigation	Trial3	navigation/STIM_010.jpg	99
1751.421	1.966	1965.9	navigation	Trial3	navigation/STIM_010.jpg	100
1756.66	3.18	3179.6	navigation	Trial3	navigation/STIM_010.jpg	100
1762.433	2.46	2459.8	navigation	Trial3	navigation/STIM_010.jpg	100
1767.753	1.868	1867.5	navigation	Trial3	navigation/STIM_010.jpg	99
1773.325	1.808	1808.1	navigation	Trial3	navigation/STIM_011.jpg	99
1778.612	1.409	1409.4	navigation	Trial3	navigation/STIM_011.jpg	99
1783.912	2.637	2636.9	navigation	Trial3	navigation/STIM_011.jpg	99
1789.91	3.008	3008.1	navigation	Trial3	navigation/STIM_011.jpg	99
1795.278	3.191	3191.2	navigation	Trial3	navigation/STIM_011.jpg	99
1802.307	1.634	1633.6	navigation	Trial3	navigation/STIM_011.jpg	100
1806.48	1.427	1426.9	pointing	Trial3	pointing/STIM_000.jpg	100
1811.442	1.345	1345.2	pointing	Trial3	pointing/STIM_000.jpg	100
1816.76	0.81	809.6	pointing	Trial3	pointing/STIM_000.jpg	99
1820.788	1.413	1412.8	pointing	Trial3	pointing/STIM_000.jpg	100
1824.516	1.404	1404.2	pointing	Trial3	pointing/STIM_000.jpg	100
1829.249	1.432	1431.6	pointing	Trial3	pointing/STIM_000.jpg	100
1833.934	1.335	1334.7	pointing	Trial3	pointing/STIM_001.jpg	99
1838.435	0.921	921.2	pointing	Trial3	pointing/STIM_001.jpg	99
1841.685	1.062	1061.8	pointing	Trial3	pointing/STIM_001.jpg	100
1846.037	0.876	876.3	pointing	Trial3	pointing/STIM_001.jpg	99
1849.238	1.336	1335.9	pointing	Trial3	pointing/STIM_001.jpg	100
1852.653	0.996	995.9	pointing	Trial3	pointing/STIM_001.jpg	99
1856.693	1.206	1205.7	pointing	Trial3	pointing/STIM_002.jpg	100
1861.106	0.873	872.6	pointing	Trial3	pointing/STIM_002.jpg	99
1865.176	1.138	1137.8	pointing	Trial3	pointing/STIM_002.jpg	99
1869.335	1.09	1089.9	pointing	Trial3	pointing/STIM_002.jpg	100
1872.629	1.187	1187.1	pointing	Trial3	pointing/STIM_002.jpg	99
1875.921	1.419	1419.3	pointing	Trial3	pointing/STIM_002.jpg	100
1880.374	0.854	853.8	pointing	Trial3	pointing/STIM_003.jpg	100
1883.822	0.962	962.5	pointing	Trial3	pointing/STIM_003.jpg	100
1888.398	0.853	853.1	pointing	Trial3	pointing/STIM_003.jpg	100
1892.066	1.144	1144.1	pointing	Trial3	pointing/STIM_003.jpg	100
1895.769	1.432	1431.6	pointing	Trial3	pointing/STIM_003.jpg	100
1900.895	0.841	841.1	pointing	Trial3	pointing/STIM_003.jpg	100
1904.903	1.083	1083.1	pointing	Trial3	pointing/STIM_004.jpg	100
1909.036	0.797	796.7	pointing	Trial3	pointing/STIM_004.jpg	100
1913.653	1.287	1286.6	pointing	Trial3	pointing/STIM_004.jpg	100
1917.101	1.191	1190.9	pointing	Trial3	pointing/STIM_004.jpg	100
1920.538	1.299	1298.8	pointing	Trial3	pointing/STIM_004.jpg	100
1925.118	0.93	930.3	pointing	Trial3	pointing/STIM_004.jpg	99
1928.909	1.342	1341.5	pointing	Trial3	pointing/STIM_005.jpg	100
1933.709	0.896	895.5	pointing	Trial3	pointing/STIM_005.jpg	99
1936.872	1.068	1067.5	pointing	Trial3	pointing/STIM_005.jpg	100
1941.347	1.414	1413.8	pointing	Trial3	pointing/STIM_005.jpg	100
1945.682	0.814	814.2	pointing	Trial3	pointing/STIM_005.jpg	99
1950.167	1.088	1088.2	pointing	Trial3	pointing/STIM_005.jpg	100
1954.867	1.197	1196.7	pointing	Trial3	pointing/STIM_006.jpg	99
1960.056	1.119	1118.9	pointing	Trial3	pointing/STIM_006.jpg	100
1963.798	1.242	1242.2	pointing	Trial3	pointing/STIM_006.jpg	99
1967.44	1.379	1378.8	pointing	Trial3	pointing/STIM_006.jpg	99
1972.261	1.413	1413.0	pointing	Trial3	pointing/STIM_006.jpg	100
1976.033	1.426	1425.6	pointing	Trial3	pointing/STIM_006.jpg	100
1981.25	0.946	946.1	pointing	Trial3	pointing/STIM_007.jpg	99
1984.74	1.265	1265.1	pointing	Trial3	pointing/STIM_007.jpg	100
1988.103	1.294	1293.7	pointing	Trial3	pointing/STIM_007.jpg	100
1992.763	1.052	1052.3	pointing	Trial3	pointing/STIM_007.jpg	100
1996.782	0.888	888.3	pointing	Trial3	pointing/STIM_007.jpg	100
2000.837	0.796	796.0	pointing	Trial3	pointing/STIM_007.jpg	99
2004.078	0.849	848.7	pointing	Trial3	pointing/STIM_008.jpg	99
2008.224	1.052	1051.6	pointing	Trial3	pointing/STIM_008.jpg	100
2012.83	1.2	1199.9	pointing	Trial3	pointing/STIM_008.jpg	99
2017.607	1.116	1116.0	pointing	Trial3	pointing/STIM_008.jpg	100
2021.716	1.333	1332.9	pointing	Trial3	pointing/STIM_008.jpg	100
2026.963	1.284	1284.3	pointing	Trial3	pointing/STIM_008.jpg	100
2031.76	0.894	893.8	pointing	Trial3	pointing/STIM_009.jpg	100
2034.688	0.829	829.4	pointing	Trial3	pointing/STIM_009.jpg	100
2039.235	1.126	1126.2	pointing	Trial3	pointing/STIM_009.jpg	99
2043.014	1.155	1155.0	pointing	Trial3	pointing/STIM_009.jpg	99
2047.532	0.777	776.6	pointing	Trial3	pointing/STIM_009.jpg	100
2051.524	0.981	980.7	pointing	Trial3	pointing/STIM_009.jpg	99
2056.249	1.224	1223.5	pointing	Trial3	pointing/STIM_010.jpg	100
2059.618	1.063	1063.0	pointing	Trial3	pointing/STIM_010.jpg	100
2063.39	1.24	1240.3	pointing	Trial3	pointing/STIM_010.jpg	99
2068.141	0.982	982.2	pointing	Trial3	pointing/STIM_010.jpg	100
2072.465	1.394	1394.3	pointing	Trial3	pointing/STIM_010.jpg	99
2077.218	0.817	816.7	pointing	Trial3	pointing/STIM_010.jpg	100
2081.935	1.274	1273.8	pointing	Trial3	pointing/STIM_011.jpg	100
2085.786	1.304	1304.2	pointing	Trial3	pointing/STIM_011.jpg	100
2089.746	1.434	1434.4	pointing	Trial3	pointing/STIM_011.jpg	99
2094.223	0.986	986.3	pointing	Trial3	pointing/STIM_011.jpg	99
2098.902	1.12	1120.0	pointing	Trial3	pointing/STIM_011.jpg	99
2103.32	0.888	887.9	pointing	Trial3	pointing/STIM_011.jpg	100
