onset	duration	accuracy	trial_type	learning_stage	stimulus
0.0	0.866	correct	incongruent	Block1	incongruent/STIM_000.jpg
4.618	1.224	correct	incongruent	Block1	incongruent/STIM_000.jpg
9.047	1.239	correct	incongruent	Block1	incongruent/STIM_000.jpg
13.314	1.199	correct	incongruent	Block1	incongruent/STIM_000.jpg
17.792	0.844	correct	incongruent	Block1	incongruent/STIM_000.jpg
21.828	0.905	correct	incongruent	Block1	incongruent/STIM_001.jpg
25.618	0.905	correct	incongruent	Block1	incongruent/STIM_001.jpg
29.531	1.147	correct	incongruent	Block1	incongruent/STIM_001.jpg
34.785	0.597	correct	incongruent	Block1	incongruent/STIM_001.jpg
38.071	0.565	correct	incongruent	Block1	incongruent/STIM_001.jpg
40.786	1.205	correct	incongruent	Block1	incongruent/STIM_002.jpg
45.109	0.996	correct	incongruent	Block1	incongruent/STIM_002.jpg
50.031	0.968	correct	incongruent	Block1	incongruent/STIM_002.jpg
53.868	1.027	correct	incongruent	Block1	incongruent/STIM_002.jpg
57.392	1.144	correct	incongruent	Block1	incongruent/STIM_002.jpg
60.737	1.022	correct	incongruent	Block1	incongruent/STIM_003.jpg
65.018	0.894	correct	incongruent	Block1	incongruent/STIM_003.jpg
69.046	0.663	correct	incongruent	Block1	incongruent/STIM_003.jpg
73.221	0.805	correct	incongruent	Block1	incongruent/STIM_003.jpg
78.04	0.959	correct	incongruent	Block1	incongruent/STIM_003.jpg
82.681	1.287	correct	incongruent	Block1	incongruent/STIM_004.jpg
86.946	1.239	correct	incongruent	Block1	incongruent/STIM_004.jpg
91.955	1.027	correct	incongruent	Block1	incongruent/STIM_004.jpg
96.666	0.666	correct	incongruent	Block1	incongruent/STIM_004.jpg
101.188	0.946	correct	incongruent	Block1	incongruent/STIM_004.jpg
104.61	1.191	correct	incongruent	Block1	incongruent/STIM_005.jpg
109.156	0.876	correct	incongruent	Block1	incongruent/STIM_005.jpg
113.238	0.895	correct	incongruent	Block1	incongruent/STIM_005.jpg
118.179	0.933	correct	incongruent	Block1	incongruent/STIM_005.jpg
121.923	0.711	correct	incongruent	Block1	incongruent/STIM_005.jpg
124.696	1.35	correct	incongruent	Block1	incongruent/STIM_006.jpg
129.432	0.926	correct	incongruent	Block1	incongruent/STIM_006.jpg
133.411	0.971	correct	incongruent	Block1	incongruent/STIM_006.jpg
138.353	0.701	correct	incongruent	Block1	incongruent/STIM_006.jpg
142.908	0.903	correct	incongruent	Block1	incongruent/STIM_006.jpg
146.48	1.306	correct	incongruent	Block1	incongruent/STIM_007.jpg
151.671	1.076	correct	incongruent	Block1	incongruent/STIM_007.jpg
156.054	0.983	incorrect	incongruent	Block1	incongruent/STIM_007.jpg
159.963	0.664	correct	incongruent	Block1	incongruent/STIM_007.jpg
162.979	0.541	correct	incongruent	Block1	incongruent/STIM_007.jpg
166.788	0.847	correct	incongruent	Block1	incongruent/STIM_008.jpg
170.968	0.986	correct	incongruent	Block1	incongruent/STIM_008.jpg
175.531	1.096	correct	incongruent	Block1	incongruent/STIM_008.jpg
179.473	0.984	correct	incongruent	Block1	incongruent/STIM_008.jpg
183.814	0.938	correct	incongruent	Block1	incongruent/STIM_008.jpg
188.686	0.709	correct	incongruent	Block1	incongruent/STIM_009.jpg
192.361	0.759	correct	incongruent	Block1	incongruent/STIM_009.jpg
195.411	1.264	correct	incongruent	Block1	incongruent/STIM_009.jpg
200.543	0.576	correct	incongruent	Block1	incongruent/STIM_009.jpg
203.353	0.924	correct	incongruent	Block1	incongruent/STIM_009.jpg
208.382	1.246	correct	incongruent	Block1	incongruent/STIM_010.jpg
212.722	1.015	correct	incongruent	Block1	incongruent/STIM_010.jpg
215.819	0.751	correct	incongruent	Block1	incongruent/STIM_010.jpg
220.271	0.816	correct	incongruent	Block1	incongruent/STIM_010.jpg
224.903	1.08	correct	incongruent	Block1	incongruent/STIM_010.jpg
229.739	1.244	correct	incongruent	Block1	incongruent/STIM_011.jpg
234.857	1.366	correct	incongruent	Block1	incongruent/STIM_011.jpg
238.243	0.802	incorrect	incongruent	Block1	incongruent/STIM_011.jpg
242.21	0.887	incorrect	incongruent	Block1	incongruent/STIM_011.jpg
246.962	1.069	correct	incongruent	Block1	incongruent/STIM_011.jpg
250.163	0.923	incorrect	incongruent	Block1	incongruent/STIM_012.jpg
254.129	0.796	correct	incongruent	Block1	incongruent/STIM_012.jpg
258.498	1.174	correct	incongruent	Block1	incongruent/STIM_012.jpg
262.054	1.016	correct	incongruent	Block1	incongruent/STIM_012.jpg
266.964	0.468	correct	incongruent	Block1	incongruent/STIM_012.jpg
270.001	1.293	correct	incongruent	Block1	incongruent/STIM_013.jpg
273.906	0.977	incorrect	incongruent	Block1	incongruent/STIM_013.jpg
277.162	0.571	correct	incongruent	Block1	incongruent/STIM_013.jpg
280.043	0.588	correct	incongruent	Block1	incongruent/STIM_013.jpg
283.562	0.843	correct	incongruent	Block1	incongruent/STIM_013.jpg
287.105	0.686	correct	incongruent	Block1	incongruent/STIM_014.jpg
290.184	0.874	correct	incongruent	Block1	incongruent/STIM_014.jpg
293.861	0.916	correct	incongruent	Block1	incongruent/STIM_014.jpg
297.037	0.736	correct	incongruent	Block1	incongruent/STIM_014.jpg
300.751	0.746	correct	incongruent	Block1	incongruent/STIM_014.jpg
305.075	1.157	incorrect	incongruent	Block1	incongruent/STIM_015.jpg
310.131	1.285	correct	incongruent	Block1	incongruent/STIM_015.jpg
314.321	0.923	correct	incongruent	Block1	incongruent/STIM_015.jpg
319.162	0.705	correct	incongruent	Block1	incongruent/STIM_015.jpg
322.513	1.105	correct	incongruent	Block1	incongruent/STIM_015.jpg
326.59	1.089	correct	incongruent	Block1	incongruent/STIM_016.jpg
331.294	0.814	correct	incongruent	Block1	incongruent/STIM_016.jpg
336.08	1.013	correct	incongruent	Block1	incongruent/STIM_016.jpg
339.332	0.694	correct	incongruent	Block1	incongruent/STIM_016.jpg
343.716	0.967	correct	incongruent	Block1	incongruent/STIM_016.jpg
347.045	1.392	correct	incongruent	Block1	incongruent/STIM_017.jpg
351.037	1.095	correct	incongruent	Block1	incongruent/STIM_017.jpg
356.053	0.797	correct	incongruent	Block1	incongruent/STIM_017.jpg
359.428	0.755	correct	incongruent	Block1	incongruent/STIM_017.jpg
363.975	0.649	correct	incongruent	Block1	incongruent/STIM_017.jpg
367.313	0.73	incorrect	incongruent	Block1	incongruent/STIM_018.jpg
371.965	1.05	correct	incongruent	Block1	incongruent/STIM_018.jpg
376.086	0.823	correct	incongruent	Block1	incongruent/STIM_018.jpg
380.796	0.942	correct	incongruent	Block1	incongruent/STIM_018.jpg
385.717	0.841	correct	incongruent	Block1	incongruent/STIM_018.jpg
390.422	1.156	incorrect	incongruent	Block1	incongruent/STIM_019.jpg
394.169	0.859	correct	incongruent	Block1	incongruent/STIM_019.jpg
397.345	0.737	incorrect	incongruent	Block1	incongruent/STIM_019.jpg
400.414	0.834	correct	incongruent	Block1	incongruent/STIM_019.jpg
404.551	0.985	correct	incongruent	Block1	incongruent/STIM_019.jpg
408.566	1.271	correct	incongruent	Block1	incongruent/STIM_020.jpg
412.772	0.764	correct	incongruent	Block1	incongruent/STIM_020.jpg
416.957	0.764	correct	incongruent	Block1	incongruent/STIM_020.jpg
420.528	1.13	correct	incongruent	Block1	incongruent/STIM_020.jpg
425.685	0.896	correct	incongruent	Block1	incongruent/STIM_020.jpg
430.334	1.058	correct	incongruent	Block1	incongruent/STIM_021.jpg
434.686	0.63	incorrect	incongruent	Block1	incongruent/STIM_021.jpg
438.323	1.001	correct	incongruent	Block1	incongruent/STIM_021.jpg
441.548	0.862	correct	incongruent	Block1	incongruent/STIM_021.jpg
445.974	0.58	correct	incongruent	Block1	incongruent/STIM_021.jpg
450.294	0.615	correct	incongruent	Block1	incongruent/STIM_022.jpg
454.912	0.979	correct	incongruent	Block1	incongruent/STIM_022.jpg
459.546	0.635	correct	incongruent	Block1	incongruent/STIM_022.jpg
464.126	1.032	correct	incongruent	Block1	incongruent/STIM_022.jpg
467.662	0.793	correct	incongruent	Block1	incongruent/STIM_022.jpg
470.892	0.691	incorrect	incongruent	Block1	incongruent/STIM_023.jpg
473.995	1.12	correct	incongruent	Block1	incongruent/STIM_023.jpg
479.134	1.129	correct	incongruent	Block1	incongruent/STIM_023.jpg
484.245	0.857	correct	incongruent	Block1	incongruent/STIM_023.jpg
488.877	0.613	correct	incongruent	Block1	incongruent/STIM_023.jpg
492.347	1.121	correct	incongruent	Block1	incongruent/STIM_024.jpg
495.578	0.799	correct	incongruent	Block1	incongruent/STIM_024.jpg
499.671	1.324	correct	incongruent	Block1	incongruent/STIM_024.jpg
503.834	0.815	correct	incongruent	Block1	incongruent/STIM_024.jpg
507.76	0.75	correct	incongruent	Block1	incongruent/STIM_024.jpg
511.416	1.336	correct	incongruent	Block1	incongruent/STIM_025.jpg
516.283	1.178	correct	incongruent	Block1	incongruent/STIM_025.jpg
521.124	0.874	correct	incongruent	Block1	incongruent/STIM_025.jpg
524.534	0.614	correct	incongruent	Block1	incongruent/STIM_025.jpg
528.917	0.928	correct	incongruent	Block1	incongruent/STIM_025.jpg
532.335	1.1	correct	incongruent	Block1	incongruent/STIM_026.jpg
535.952	1.032	correct	incongruent	Block1	incongruent/STIM_026.jpg
540.514	0.899	correct	incongruent	Block1	incongruent/STIM_026.jpg
544.066	0.735	correct	incongruent	Block1	incongruent/STIM_026.jpg
547.175	0.838	correct	incongruent	Block1	incongruent/STIM_026.jpg
551.877	0.879	correct	incongruent	Block1	incongruent/STIM_027.jpg
556.714	1.045	correct	incongruent	Block1	incongruent/STIM_027.jpg
561.717	0.878	incorrect	incongruent	Block1	incongruent/STIM_027.jpg
565.725	0.963	correct	incongruent	Block1	incongruent/STIM_027.jpg
569.077	0.813	correct	incongruent	Block1	incongruent/STIM_027.jpg
573.462	1.022	correct	incongruent	Block1	incongruent/STIM_028.jpg
578.283	0.793	correct	incongruent	Block1	incongruent/STIM_028.jpg
581.288	0.638	correct	incongruent	Block1	incongruent/STIM_028.jpg
584.708	1.072	correct	incongruent	Block1	incongruent/STIM_028.jpg
589.383	0.722	correct	incongruent	Block1	incongruent/STIM_028.jpg
592.439	1.343	correct	incongruent	Block1	incongruent/STIM_029.jpg
595.922	1.212	correct	incongruent	Block1	incongruent/STIM_029.jpg
601.07	1.246	correct	incongruent	Block1	incongruent/STIM_029.jpg
605.742	1.04	correct	incongruent	Block1	incongruent/STIM_029.jpg
610.689	0.635	correct	incongruent	Block1	incongruent/STIM_029.jpg
615.165	0.448	correct	congruent	Block1	congruent/STIM_000.jpg
618.132	0.887	correct	congruent	Block1	congruent/STIM_000.jpg
621.566	0.792	correct	congruent	Block1	congruent/STIM_000.jpg
624.678	0.549	correct	congruent	Block1	congruent/STIM_000.jpg
627.523	0.588	correct	congruent	Block1	congruent/STIM_000.jpg
631.673	0.686	correct	congruent	Block1	congruent/STIM_001.jpg
635.721	0.676	correct	congruent	Block1	congruent/STIM_001.jpg
640.127	0.543	correct	congruent	Block1	congruent/STIM_001.jpg
643.982	0.541	correct	congruent	Block1	congruent/STIM_001.jpg
647.709	0.712	correct	congruent	Block1	congruent/STIM_001.jpg
651.619	0.533	correct	congruent	Block1	congruent/STIM_002.jpg
655.799	0.683	correct	congruent	Block1	congruent/STIM_002.jpg
659.738	0.648	correct	congruent	Block1	congruent/STIM_002.jpg
664.026	0.718	correct	congruent	Block1	congruent/STIM_002.jpg
666.88	0.814	correct	congruent	Block1	congruent/STIM_002.jpg
671.293	0.706	correct	congruent	Block1	congruent/STIM_003.jpg
675.483	0.421	correct	congruent	Block1	congruent/STIM_003.jpg
678.636	0.567	correct	congruent	Block1	congruent/STIM_003.jpg
681.759	0.709	correct	congruent	Block1	congruent/STIM_003.jpg
685.503	0.578	correct	congruent	Block1	congruent/STIM_003.jpg
688.952	0.746	correct	congruent	Block1	congruent/STIM_004.jpg
692.304	0.543	correct	congruent	Block1	congruent/STIM_004.jpg
696.764	0.859	correct	congruent	Block1	congruent/STIM_004.jpg
699.783	0.753	correct	congruent	Block1	congruent/STIM_004.jpg
704.37	0.696	correct	congruent	Block1	congruent/STIM_004.jpg
708.369	0.619	correct	congruent	Block1	congruent/STIM_005.jpg
711.645	0.519	incorrect	congruent	Block1	congruent/STIM_005.jpg
714.753	0.638	correct	congruent	Block1	congruent/STIM_005.jpg
719.132	0.793	correct	congruent	Block1	congruent/STIM_005.jpg
722.595	0.634	correct	congruent	Block1	congruent/STIM_005.jpg
727.105	0.591	correct	congruent	Block1	congruent/STIM_006.jpg
730.962	0.633	correct	congruent	Block1	congruent/STIM_006.jpg
735.414	0.687	correct	congruent	Block1	congruent/STIM_006.jpg
739.311	0.484	correct	congruent	Block1	congruent/STIM_006.jpg
743.348	0.753	correct	congruent	Block1	congruent/STIM_006.jpg
746.527	0.728	correct	congruent	Block1	congruent/STIM_007.jpg
750.369	0.818	correct	congruent	Block1	congruent/STIM_007.jpg
754.792	0.641	correct	congruent	Block1	congruent/STIM_007.jpg
759.079	0.579	correct	congruent	Block1	congruent/STIM_007.jpg
762.614	0.489	correct	congruent	Block1	congruent/STIM_007.jpg
765.729	0.621	correct	congruent	Block1	congruent/STIM_008.jpg
769.6	0.515	correct	congruent	Block1	congruent/STIM_008.jpg
773.401	0.623	correct	congruent	Block1	congruent/STIM_008.jpg
776.221	0.76	correct	congruent	Block1	congruent/STIM_008.jpg
779.248	0.72	correct	congruent	Block1	congruent/STIM_008.jpg
783.593	0.506	correct	congruent	Block1	congruent/STIM_009.jpg
786.295	0.737	correct	congruent	Block1	congruent/STIM_009.jpg
789.87	0.596	correct	congruent	Block1	congruent/STIM_009.jpg
792.592	0.777	correct	congruent	Block1	congruent/STIM_009.jpg
796.228	0.569	correct	congruent	Block1	congruent/STIM_009.jpg
800.348	0.662	correct	congruent	Block1	congruent/STIM_010.jpg
804.233	0.564	correct	congruent	Block1	congruent/STIM_010.jpg
807.097	0.55	incorrect	congruent	Block1	congruent/STIM_010.jpg
811.506	0.681	correct	congruent	Block1	congruent/STIM_010.jpg
814.751	0.784	correct	congruent	Block1	congruent/STIM_010.jpg
817.879	0.706	incorrect	congruent	Block1	congruent/STIM_011.jpg
822.34	0.585	correct	congruent	Block1	congruent/STIM_011.jpg
826.185	0.556	correct	congruent	Block1	congruent/STIM_011.jpg
829.454	0.601	correct	congruent	Block1	congruent/STIM_011.jpg
832.727	0.823	correct	congruent	Block1	congruent/STIM_011.jpg
836.902	0.522	correct	congruent	Block1	congruent/STIM_012.jpg
839.933	0.543	incorrect	congruent	Block1	congruent/STIM_012.jpg
844.379	0.462	incorrect	congruent	Block1	congruent/STIM_012.jpg
847.701	0.678	correct	congruent	Block1	congruent/STIM_012.jpg
851.044	0.571	correct	congruent	Block1	congruent/STIM_012.jpg
855.013	0.468	correct	congruent	Block1	congruent/STIM_013.jpg
857.974	0.774	incorrect	congruent	Block1	congruent/STIM_013.jpg
861.076	0.489	correct	congruent	Block1	congruent/STIM_013.jpg
863.816	0.524	correct	congruent	Block1	congruent/STIM_013.jpg
867.496	0.775	correct	congruent	Block1	congruent/STIM_013.jpg
870.577	0.484	correct	congruent	Block1	congruent/STIM_014.jpg
873.888	0.694	correct	congruent	Block1	congruent/STIM_014.jpg
878.015	0.781	correct	congruent	Block1	congruent/STIM_014.jpg
880.939	0.853	correct	congruent	Block1	congruent/STIM_014.jpg
884.426	0.76	correct	congruent	Block1	congruent/STIM_014.jpg
888.7	0.833	correct	congruent	Block1	congruent/STIM_015.jpg
892.413	0.68	correct	congruent	Block1	congruent/STIM_015.jpg
896.327	0.719	correct	congruent	Block1	congruent/STIM_015.jpg
899.278	0.781	correct	congruent	Block1	congruent/STIM_015.jpg
903.741	0.595	correct	congruent	Block1	congruent/STIM_015.jpg
906.773	0.594	incorrect	congruent	Block1	congruent/STIM_016.jpg
909.648	0.582	correct	congruent	Block1	congruent/STIM_016.jpg
912.864	0.567	correct	congruent	Block1	congruent/STIM_016.jpg
916.01	0.45	correct	congruent	Block1	congruent/STIM_016.jpg
919.829	0.779	correct	congruent	Block1	congruent/STIM_016.jpg
924.025	0.52	correct	congruent	Block1	congruent/STIM_017.jpg
926.86	0.862	correct	congruent	Block1	congruent/STIM_017.jpg
931.732	0.636	correct	congruent	Block1	congruent/STIM_017.jpg
935.409	0.644	correct	congruent	Block1	congruent/STIM_017.jpg
938.357	0.731	correct	congruent	Block1	congruent/STIM_017.jpg
942.427	0.657	correct	congruent	Block1	congruent/STIM_018.jpg
946.897	0.579	correct	congruent	Block1	congruent/STIM_018.jpg
950.966	0.825	correct	congruent	Block1	congruent/STIM_018.jpg
955.106	0.571	correct	congruent	Block1	congruent/STIM_018.jpg
958.805	0.84	correct	congruent	Block1	congruent/STIM_018.jpg
963.576	0.798	correct	congruent	Block1	congruent/STIM_019.jpg
967.067	0.453	correct	congruent	Block1	congruent/STIM_019.jpg
971.118	0.506	correct	congruent	Block1	congruent/STIM_019.jpg
975.075	0.534	correct	congruent	Block1	congruent/STIM_019.jpg
979.197	0.798	correct	congruent	Block1	congruent/STIM_019.jpg
982.853	0.746	correct	congruent	Block1	congruent/STIM_020.jpg
987.081	0.507	correct	congruent	Block1	congruent/STIM_020.jpg
990.751	0.546	correct	congruent	Block1	congruent/STIM_020.jpg
993.651	0.735	correct	congruent	Block1	congruent/STIM_020.jpg
997.469	0.68	correct	congruent	Block1	congruent/STIM_020.jpg
1000.283	0.752	correct	congruent	Block1	congruent/STIM_021.jpg
1003.646	0.569	correct	congruent	Block1	congruent/STIM_021.jpg
1008.095	0.491	correct	congruent	Block1	congruent/STIM_021.jpg
1011.124	0.698	correct	congruent	Block1	congruent/STIM_021.jpg
1015.567	0.744	correct	congruent	Block1	congruent/STIM_021.jpg
1018.72	0.694	correct	congruent	Block1	congruent/STIM_022.jpg
1023.407	0.709	correct	congruent	Block1	congruent/STIM_022.jpg
1026.448	0.705	correct	congruent	Block1	congruent/STIM_022.jpg
1029.942	0.535	correct	congruent	Block1	congruent/STIM_022.jpg
1032.817	0.413	correct	congruent	Block1	congruent/STIM_022.jpg
1035.633	0.494	correct	congruent	Block1	congruent/STIM_023.jpg
1040.116	0.506	correct	congruent	Block1	congruent/STIM_023.jpg
1042.999	0.723	correct	congruent	Block1	congruent/STIM_023.jpg
1046.977	0.673	correct	congruent	Block1	congruent/STIM_023.jpg
1051.379	0.787	correct	congruent	Block1	congruent/STIM_023.jpg
1054.839	0.559	correct	congruent	Block1	congruent/STIM_024.jpg
1057.932	0.757	correct	congruent	Block1	congruent/STIM_024.jpg
1061.284	0.511	correct	congruent	Block1	congruent/STIM_024.jpg
1063.935	0.468	correct	congruent	Block1	congruent/STIM_024.jpg
1066.515	0.554	correct	congruent	Block1	congruent/STIM_024.jpg
1069.754	0.642	correct	congruent	Block1	congruent/STIM_025.jpg
1072.965	0.477	correct	congruent	Block1	congruent/STIM_025.jpg
1076.993	0.685	correct	congruent	Block1	congruent/STIM_025.jpg
1081.64	0.493	correct	congruent	Block1	congruent/STIM_025.jpg
1085.683	0.779	incorrect	congruent	Block1	congruent/STIM_025.jpg
1089.412	0.666	correct	congruent	Block1	congruent/STIM_026.jpg
1093.245	0.575	correct	congruent	Block1	congruent/STIM_026.jpg
1096.381	0.538	correct	congruent	Block1	congruent/STIM_026.jpg
1100.185	0.574	correct	congruent	Block1	congruent/STIM_026.jpg
1103.562	0.772	correct	congruent	Block1	congruent/STIM_026.jpg
1108.232	0.506	correct	congruent	Block1	congruent/STIM_027.jpg
1112.686	0.37	correct	congruent	Block1	congruent/STIM_027.jpg
1117.161	0.58	correct	congruent	Block1	congruent/STIM_027.jpg
1120.037	0.531	correct	congruent	Block1	congruent/STIM_027.jpg
1123.743	0.805	correct	congruent	Block1	congruent/STIM_027.jpg
1127.061	0.506	correct	congruent	Block1	congruent/STIM_028.jpg
1131.623	0.594	correct	congruent	Block1	congruent/STIM_028.jpg
1135.033	0.816	correct	congruent	Block1	congruent/STIM_028.jpg
1139.033	0.78	correct	congruent	Block1	congruent/STIM_028.jpg
1142.238	0.695	correct	congruent	Block1	congruent/STIM_028.jpg
1145.699	0.618	correct	congruent	Block1	congruent/STIM_029.jpg
1150.15	0.598	correct	congruent	Block1	congruent/STIM_029.jpg
1153.475	0.783	correct	congruent	Block1	congruent/STIM_029.jpg
1157.677	0.739	incorrect	congruent	Block1	congruent/STIM_029.jpg
1161.067	0.744	correct	congruent	Block1	congruent/STIM_029.jpg
1165.839	0.618	correct	incongruent	Block2	incongruent/STIM_000.jpg
1170.533	0.571	correct	incongruent	Block2	incongruent/STIM_000.jpg
1174.226	0.779	correct	incongruent	Block2	incongruent/STIM_000.jpg
1178.747	0.609	correct	incongruent	Block2	incongruent/STIM_000.jpg
1183.265	0.471	correct	incongruent	Block2	incongruent/STIM_000.jpg
1186.373	0.566	correct	incongruent	Block2	incongruent/STIM_001.jpg
1190.55	0.884	correct	incongruent	Block2	incongruent/STIM_001.jpg
1194.45	0.87	correct	incongruent	Block2	incongruent/STIM_001.jpg
1199.26	0.49	correct	incongruent	Block2	incongruent/STIM_001.jpg
1202.37	0.872	correct	incongruent	Block2	incongruent/STIM_001.jpg
1206.542	0.938	correct	incongruent	Block2	incongruent/STIM_002.jpg
1211.188	0.848	correct	incongruent	Block2	incongruent/STIM_002.jpg
1214.896	0.757	correct	incongruent	Block2	incongruent/STIM_002.jpg
1219.357	0.737	correct	incongruent	Block2	incongruent/STIM_002.jpg
1223.192	0.698	correct	incongruent	Block2	incongruent/STIM_002.jpg
1227.411	0.961	correct	incongruent	Block2	incongruent/STIM_003.jpg
1231.5	0.974	correct	incongruent	Block2	incongruent/STIM_003.jpg
1236.418	0.704	correct	incongruent	Block2	incongruent/STIM_003.jpg
1239.617	0.566	correct	incongruent	Block2	incongruent/STIM_003.jpg
1243.157	0.832	correct	incongruent	Block2	incongruent/STIM_003.jpg
1246.425	0.739	correct	incongruent	Block2	incongruent/STIM_004.jpg
1249.877	0.955	correct	incongruent	Block2	incongruent/STIM_004.jpg
1253.316	0.958	correct	incongruent	Block2	incongruent/STIM_004.jpg
1257.303	0.496	correct	incongruent	Block2	incongruent/STIM_004.jpg
1261.016	0.611	correct	incongruent	Block2	incongruent/STIM_004.jpg
1264.647	0.607	correct	incongruent	Block2	incongruent/STIM_005.jpg
1269.102	0.582	correct	incongruent	Block2	incongruent/STIM_005.jpg
1271.811	0.716	correct	incongruent	Block2	incongruent/STIM_005.jpg
1275.603	0.776	correct	incongruent	Block2	incongruent/STIM_005.jpg
1278.845	0.565	correct	incongruent	Block2	incongruent/STIM_005.jpg
1281.882	0.956	correct	incongruent	Block2	incongruent/STIM_006.jpg
1285.847	0.894	correct	incongruent	Block2	incongruent/STIM_006.jpg
1288.874	0.683	correct	incongruent	Block2	incongruent/STIM_006.jpg
1293.147	0.726	correct	incongruent	Block2	incongruent/STIM_006.jpg
1297.429	0.584	correct	incongruent	Block2	incongruent/STIM_006.jpg
1301.272	1.229	correct	incongruent	Block2	incongruent/STIM_007.jpg
1306.495	0.779	correct	incongruent	Block2	incongruent/STIM_007.jpg
1311.34	0.845	correct	incongruent	Block2	incongruent/STIM_007.jpg
1315.892	0.456	correct	incongruent	Block2	incongruent/STIM_007.jpg
1318.63	0.609	correct	incongruent	Block2	incongruent/STIM_007.jpg
1321.755	0.946	correct	incongruent	Block2	incongruent/STIM_008.jpg
1326.572	0.928	correct	incongruent	Block2	incongruent/STIM_008.jpg
1330.48	0.662	correct	incongruent	Block2	incongruent/STIM_008.jpg
1333.245	0.665	correct	incongruent	Block2	incongruent/STIM_008.jpg
1337.431	0.602	correct	incongruent	Block2	incongruent/STIM_008.jpg
1341.291	0.939	correct	incongruent	Block2	incongruent/STIM_009.jpg
1346.043	0.474	correct	incongruent	Block2	incongruent/STIM_009.jpg
1349.304	0.85	correct	incongruent	Block2	incongruent/STIM_009.jpg
1353.753	0.812	incorrect	incongruent	Block2	incongruent/STIM_009.jpg
1357.254	0.819	correct	incongruent	Block2	incongruent/STIM_009.jpg
1360.536	0.669	correct	incongruent	Block2	incongruent/STIM_010.jpg
1364.64	1.008	incorrect	incongruent	Block2	incongruent/STIM_010.jpg
1369.477	0.855	correct	incongruent	Block2	incongruent/STIM_010.jpg
1373.176	0.684	correct	incongruent	Block2	incongruent/STIM_010.jpg
1376.249	0.449	correct	incongruent	Block2	incongruent/STIM_010.jpg
1380.286	0.546	correct	incongruent	Block2	incongruent/STIM_011.jpg
1384.572	0.873	correct	incongruent	Block2	incongruent/STIM_011.jpg
1388.527	1.009	correct	incongruent	Block2	incongruent/STIM_011.jpg
1391.833	0.697	correct	incongruent	Block2	incongruent/STIM_011.jpg
1394.841	0.824	correct	incongruent	Block2	incongruent/STIM_011.jpg
1399.107	0.466	correct	incongruent	Block2	incongruent/STIM_012.jpg
1403.132	0.546	correct	incongruent	Block2	incongruent/STIM_012.jpg
1407.039	0.847	correct	incongruent	Block2	incongruent/STIM_012.jpg
1411.162	0.618	correct	incongruent	Block2	incongruent/STIM_012.jpg
1414.226	0.867	correct	incongruent	Block2	incongruent/STIM_012.jpg
1417.295	0.618	correct	incongruent	Block2	incongruent/STIM_013.jpg
1420.533	0.819	correct	incongruent	Block2	incongruent/STIM_013.jpg
1423.732	0.921	correct	incongruent	Block2	incongruent/STIM_013.jpg
1428.332	0.906	correct	incongruent	Block2	incongruent/STIM_013.jpg
1433.081	0.53	correct	incongruent	Block2	incongruent/STIM_013.jpg
1437.214	0.992	correct	incongruent	Block2	incongruent/STIM_014.jpg
1441.385	0.778	correct	incongruent	Block2	incongruent/STIM_014.jpg
1445.275	0.831	correct	incongruent	Block2	incongruent/STIM_014.jpg
1448.687	0.833	correct	incongruent	Block2	incongruent/STIM_014.jpg
1452.515	0.641	correct	incongruent	Block2	incongruent/STIM_014.jpg
1456.52	0.755	correct	incongruent	Block2	incongruent/STIM_015.jpg
1460.64	0.804	correct	incongruent	Block2	incongruent/STIM_015.jpg
1463.608	0.692	correct	incongruent	Block2	incongruent/STIM_015.jpg
1466.633	0.749	correct	incongruent	Block2	incongruent/STIM_015.jpg
1470.33	0.565	correct	incongruent	Block2	incongruent/STIM_015.jpg
1473.644	0.846	correct	incongruent	Block2	incongruent/STIM_016.jpg
1477.427	0.601	correct	incongruent	Block2	incongruent/STIM_016.jpg
1481.304	0.852	correct	incongruent	Block2	incongruent/STIM_016.jpg
1484.409	0.766	incorrect	incongruent	Block2	incongruent/STIM_016.jpg
1488.228	0.75	correct	incongruent	Block2	incongruent/STIM_016.jpg
1491.494	0.868	correct	incongruent	Block2	incongruent/STIM_017.jpg
1496.182	0.606	correct	incongruent	Block2	incongruent/STIM_017.jpg
1500.294	0.571	correct	incongruent	Block2	incongruent/STIM_017.jpg
1503.503	0.578	correct	incongruent	Block2	incongruent/STIM_017.jpg
1508.053	0.97	correct	incongruent	Block2	incongruent/STIM_017.jpg
1512.0	1.163	correct	incongruent	Block2	incongruent/STIM_018.jpg
1516.647	0.561	incorrect	incongruent	Block2	incongruent/STIM_018.jpg
1519.949	0.754	correct	incongruent	Block2	incongruent/STIM_018.jpg
1524.373	0.649	correct	incongruent	Block2	incongruent/STIM_018.jpg
1527.918	0.892	correct	incongruent	Block2	incongruent/STIM_018.jpg
1532.667	0.775	correct	incongruent	Block2	incongruent/STIM_019.jpg
1537.116	0.479	correct	incongruent	Block2	incongruent/STIM_019.jpg
1541.006	0.954	correct	incongruent	Block2	incongruent/STIM_019.jpg
1544.907	0.618	correct	incongruent	Block2	incongruent/STIM_019.jpg
1549.526	0.581	correct	incongruent	Block2	incongruent/STIM_019.jpg
1553.52	1.246	correct	incongruent	Block2	incongruent/STIM_020.jpg
1557.935	1.062	correct	incongruent	Block2	incongruent/STIM_020.jpg
1562.682	0.635	correct	incongruent	Block2	incongruent/STIM_020.jpg
1565.51	0.852	correct	incongruent	Block2	incongruent/STIM_020.jpg
1569.612	0.447	correct	incongruent	Block2	incongruent/STIM_020.jpg
1573.539	0.848	correct	incongruent	Block2	incongruent/STIM_021.jpg
1577.774	0.556	correct	incongruent	Block2	incongruent/STIM_021.jpg
1582.242	0.762	correct	incongruent	Block2	incongruent/STIM_021.jpg
1586.362	0.643	correct	incongruent	Block2	incongruent/STIM_021.jpg
1590.039	1.021	correct	incongruent	Block2	incongruent/STIM_021.jpg
1594.331	0.891	correct	incongruent	Block2	incongruent/STIM_022.jpg
1598.547	0.482	correct	incongruent	Block2	incongruent/STIM_022.jpg
1603.071	0.798	correct	incongruent	Block2	incongruent/STIM_022.jpg
1606.484	0.819	correct	incongruent	Block2	incongruent/STIM_022.jpg
1611.347	0.573	correct	incongruent	Block2	incongruent/STIM_022.jpg
1614.481	0.512	correct	incongruent	Block2	incongruent/STIM_023.jpg
1617.326	1.1	correct	incongruent	Block2	incongruent/STIM_023.jpg
1620.746	0.428	correct	incongruent	Block2	incongruent/STIM_023.jpg
1624.942	0.691	correct	incongruent	Block2	incongruent/STIM_023.jpg
1629.116	0.557	correct	incongruent	Block2	incongruent/STIM_023.jpg
1633.458	0.725	correct	incongruent	Block2	incongruent/STIM_024.jpg
1637.352	0.844	correct	incongruent	Block2	incongruent/STIM_024.jpg
1640.378	0.736	correct	incongruent	Block2	incongruent/STIM_024.jpg
1645.028	0.73	correct	incongruent	Block2	incongruent/STIM_024.jpg
1648.843	0.631	correct	incongruent	Block2	incongruent/STIM_024.jpg
1653.406	0.771	correct	incongruent	Block2	incongruent/STIM_025.jpg
1657.424	0.612	correct	incongruent	Block2	incongruent/STIM_025.jpg
1660.958	0.716	correct	incongruent	Block2	incongruent/STIM_025.jpg
1665.371	0.762	correct	incongruent	Block2	incongruent/STIM_025.jpg
1668.341	0.497	correct	incongruent	Block2	incongruent/STIM_025.jpg
1672.17	0.777	correct	incongruent	Block2	incongruent/STIM_026.jpg
1675.922	0.612	correct	incongruent	Block2	incongruent/STIM_026.jpg
1679.841	1.081	correct	incongruent	Block2	incongruent/STIM_026.jpg
1684.255	0.946	correct	incongruent	Block2	incongruent/STIM_026.jpg
1689.214	0.678	correct	incongruent	Block2	incongruent/STIM_026.jpg
1692.516	0.675	correct	incongruent	Block2	incongruent/STIM_027.jpg
1695.304	0.437	correct	incongruent	Block2	incongruent/STIM_027.jpg
1698.13	0.502	correct	incongruent	Block2	incongruent/STIM_027.jpg
1702.382	0.614	correct	incongruent	Block2	incongruent/STIM_027.jpg
1706.375	0.694	correct	incongruent	Block2	incongruent/STIM_027.jpg
1710.078	0.811	correct	incongruent	Block2	incongruent/STIM_028.jpg
1714.454	0.844	correct	incongruent	Block2	incongruent/STIM_028.jpg
1717.852	0.601	correct	incongruent	Block2	incongruent/STIM_028.jpg
1722.275	0.726	correct	incongruent	Block2	incongruent/STIM_028.jpg
1726.365	0.846	correct	incongruent	Block2	incongruent/STIM_028.jpg
1730.529	0.691	correct	incongruent	Block2	incongruent/STIM_029.jpg
1734.201	0.533	correct	incongruent	Block2	incongruent/STIM_029.jpg
1736.946	0.946	correct	incongruent	Block2	incongruent/STIM_029.jpg
1740.763	0.672	correct	incongruent	Block2	incongruent/STIM_029.jpg
1744.05	0.926	correct	incongruent	Block2	incongruent/STIM_029.jpg
1747.455	0.59	correct	congruent	Block2	congruent/STIM_000.jpg
1751.402	0.681	correct	congruent	Block2	congruent/STIM_000.jpg
1754.21	0.732	correct	congruent	Block2	congruent/STIM_000.jpg
1758.604	0.643	correct	congruent	Block2	congruent/STIM_000.jpg
1762.521	0.636	correct	congruent	Block2	congruent/STIM_000.jpg
1765.382	0.676	correct	congruent	Block2	congruent/STIM_001.jpg
1768.361	0.513	correct	congruent	Block2	congruent/STIM_001.jpg
1771.429	0.55	correct	congruent	Block2	congruent/STIM_001.jpg
1775.254	0.78	correct	congruent	Block2	congruent/STIM_001.jpg
1779.893	0.676	correct	congruent	Block2	congruent/STIM_001.jpg
1782.69	0.702	correct	congruent	Block2	congruent/STIM_002.jpg
1786.381	0.753	correct	congruent	Block2	congruent/STIM_002.jpg
1790.842	0.768	correct	congruent	Block2	congruent/STIM_002.jpg
1793.918	0.593	correct	congruent	Block2	congruent/STIM_002.jpg
1798.56	0.652	correct	congruent	Block2	congruent/STIM_002.jpg
1802.013	0.439	correct	congruent	Block2	congruent/STIM_003.jpg
1804.715	0.711	correct	congruent	Block2	congruent/STIM_003.jpg
1807.856	0.711	correct	congruent	Block2	congruent/STIM_003.jpg
1811.595	0.738	correct	congruent	Block2	congruent/STIM_003.jpg
1815.589	0.866	correct	congruent	Block2	congruent/STIM_003.jpg
1818.831	0.824	correct	congruent	Block2	congruent/STIM_004.jpg
1822.957	0.52	correct	congruent	Block2	congruent/STIM_004.jpg
1825.657	0.635	correct	congruent	Block2	congruent/STIM_004.jpg
1829.767	0.679	correct	congruent	Block2	congruent/STIM_004.jpg
1834.13	0.74	correct	congruent	Block2	congruent/STIM_004.jpg
1837.816	0.585	correct	congruent	Block2	congruent/STIM_005.jpg
1842.127	0.772	correct	congruent	Block2	congruent/STIM_005.jpg
1845.685	0.494	correct	congruent	Block2	congruent/STIM_005.jpg
1849.277	0.715	correct	congruent	Block2	congruent/STIM_005.jpg
1852.595	0.556	correct	congruent	Block2	congruent/STIM_005.jpg
1857.194	0.445	correct	congruent	Block2	congruent/STIM_006.jpg
1860.986	0.672	correct	congruent	Block2	congruent/STIM_006.jpg
1864.136	0.716	correct	congruent	Block2	congruent/STIM_006.jpg
1868.717	0.758	correct	congruent	Block2	congruent/STIM_006.jpg
1872.513	0.61	correct	congruent	Block2	congruent/STIM_006.jpg
1876.66	0.514	correct	congruent	Block2	congruent/STIM_007.jpg
1880.918	0.565	correct	congruent	Block2	congruent/STIM_007.jpg
1885.297	0.618	correct	congruent	Block2	congruent/STIM_007.jpg
1890.005	0.517	correct	congruent	Block2	congruent/STIM_007.jpg
1893.27	0.783	correct	congruent	Block2	congruent/STIM_007.jpg
1897.785	0.495	correct	congruent	Block2	congruent/STIM_008.jpg
1901.012	0.628	correct	congruent	Block2	congruent/STIM_008.jpg
1905.43	0.722	correct	congruent	Block2	congruent/STIM_008.jpg
1909.27	0.713	correct	congruent	Block2	congruent/STIM_008.jpg
1912.276	0.518	correct	congruent	Block2	congruent/STIM_008.jpg
1915.215	0.691	correct	congruent	Block2	congruent/STIM_009.jpg
1917.998	0.62	correct	congruent	Block2	congruent/STIM_009.jpg
1921.035	0.814	correct	congruent	Block2	congruent/STIM_009.jpg
1924.294	0.749	correct	congruent	Block2	congruent/STIM_009.jpg
1928.668	0.377	correct	congruent	Block2	congruent/STIM_009.jpg
1932.802	0.842	correct	congruent	Block2	congruent/STIM_010.jpg
1936.13	0.644	correct	congruent	Block2	congruent/STIM_010.jpg
1938.916	0.497	correct	congruent	Block2	congruent/STIM_010.jpg
1941.982	0.594	correct	congruent	Block2	congruent/STIM_010.jpg
1945.497	0.83	correct	congruent	Block2	congruent/STIM_010.jpg
1948.491	0.712	correct	congruent	Block2	congruent/STIM_011.jpg
1952.27	0.765	correct	congruent	Block2	congruent/STIM_011.jpg
1955.774	0.562	correct	congruent	Block2	congruent/STIM_011.jpg
1958.368	0.643	correct	congruent	Block2	congruent/STIM_011.jpg
1961.496	0.652	correct	congruent	Block2	congruent/STIM_011.jpg
1965.558	0.879	correct	congruent	Block2	congruent/STIM_012.jpg
1969.968	0.712	correct	congruent	Block2	congruent/STIM_012.jpg
1972.983	0.574	correct	congruent	Block2	congruent/STIM_012.jpg
1976.001	0.78	correct	congruent	Block2	congruent/STIM_012.jpg
1980.574	0.407	correct	congruent	Block2	congruent/STIM_012.jpg
1983.608	0.488	correct	congruent	Block2	congruent/STIM_013.jpg
1987.785	0.685	correct	congruent	Block2	congruent/STIM_013.jpg
1992.041	0.807	correct	congruent	Block2	congruent/STIM_013.jpg
1995.694	0.538	correct	congruent	Block2	congruent/STIM_013.jpg
1998.912	0.66	correct	congruent	Block2	congruent/STIM_013.jpg
2002.889	0.595	correct	congruent	Block2	congruent/STIM_014.jpg
2007.13	0.679	correct	congruent	Block2	congruent/STIM_014.jpg
2010.836	0.53	correct	congruent	Block2	congruent/STIM_014.jpg
2014.287	0.636	correct	congruent	Block2	congruent/STIM_014.jpg
2018.762	0.503	correct	congruent	Block2	congruent/STIM_014.jpg
2023.131	0.846	correct	congruent	Block2	congruent/STIM_015.jpg
2027.504	0.584	correct	congruent	Block2	congruent/STIM_015.jpg
2030.561	0.587	incorrect	congruent	Block2	congruent/STIM_015.jpg
2035.146	0.474	correct	congruent	Block2	congruent/STIM_015.jpg
2038.565	0.715	correct	congruent	Block2	congruent/STIM_015.jpg
2041.705	0.609	correct	congruent	Block2	congruent/STIM_016.jpg
2045.262	0.8	correct	congruent	Block2	congruent/STIM_016.jpg
2049.446	0.8	correct	congruent	Block2	congruent/STIM_016.jpg
2052.675	0.794	correct	congruent	Block2	congruent/STIM_016.jpg
2056.018	0.819	correct	congruent	Block2	congruent/STIM_016.jpg
2058.978	0.548	incorrect	congruent	Block2	congruent/STIM_017.jpg
2062.579	0.74	correct	congruent	Block2	congruent/STIM_017.jpg
2066.242	0.684	correct	congruent	Block2	congruent/STIM_017.jpg
2070.079	0.725	correct	congruent	Block2	congruent/STIM_017.jpg
2073.165	0.541	correct	congruent	Block2	congruent/STIM_017.jpg
2076.929	0.597	correct	congruent	Block2	congruent/STIM_018.jpg
2080.509	0.899	correct	congruent	Block2	congruent/STIM_018.jpg
2083.558	0.588	correct	congruent	Block2	congruent/STIM_018.jpg
2087.239	0.652	correct	congruent	Block2	congruent/STIM_018.jpg
2091.011	0.62	correct	congruent	Block2	congruent/STIM_018.jpg
2095.145	0.557	incorrect	congruent	Block2	congruent/STIM_019.jpg
2098.839	0.671	correct	congruent	Block2	congruent/STIM_019.jpg
2102.64	0.802	correct	congruent	Block2	congruent/STIM_019.jpg
2106.269	0.656	correct	congruent	Block2	congruent/STIM_019.jpg
2109.628	0.689	correct	congruent	Block2	congruent/STIM_019.jpg
2113.373	0.695	correct	congruent	Block2	congruent/STIM_020.jpg
2117.203	0.546	correct	congruent	Block2	congruent/STIM_020.jpg
2120.824	0.598	correct	congruent	Block2	congruent/STIM_020.jpg
2124.638	0.737	correct	congruent	Block2	congruent/STIM_020.jpg
2127.847	0.547	correct	congruent	Block2	congruent/STIM_020.jpg
2132.331	0.843	incorrect	congruent	Block2	congruent/STIM_021.jpg
2136.08	0.566	correct	congruent	Block2	congruent/STIM_021.jpg
2138.736	0.5	correct	congruent	Block2	congruent/STIM_021.jpg
2141.343	0.492	correct	congruent	Block2	congruent/STIM_021.jpg
2145.145	0.442	correct	congruent	Block2	congruent/STIM_021.jpg
2148.087	0.488	correct	congruent	Block2	congruent/STIM_022.jpg
2152.165	0.5	correct	congruent	Block2	congruent/STIM_022.jpg
2155.77	0.602	correct	congruent	Block2	congruent/STIM_022.jpg
2160.267	0.56	correct	congruent	Block2	congruent/STIM_022.jpg
2164.307	0.72	correct	congruent	Block2	congruent/STIM_022.jpg
2167.82	0.74	correct	congruent	Block2	congruent/STIM_023.jpg
2171.717	0.419	correct	congruent	Block2	congruent/STIM_023.jpg
2174.967	0.444	correct	congruent	Block2	congruent/STIM_023.jpg
2178.409	0.595	correct	congruent	Block2	congruent/STIM_023.jpg
2181.164	0.785	correct	congruent	Block2	congruent/STIM_023.jpg
2185.304	0.742	correct	congruent	Block2	congruent/STIM_024.jpg
2189.871	0.834	correct	congruent	Block2	congruent/STIM_024.jpg
2192.969	0.55	correct	congruent	Block2	congruent/STIM_024.jpg
2196.915	0.582	correct	congruent	Block2	congruent/STIM_024.jpg
2201.282	0.743	correct	congruent	Block2	congruent/STIM_024.jpg
2204.952	0.668	correct	congruent	Block2	congruent/STIM_025.jpg
2209.137	0.671	correct	congruent	Block2	congruent/STIM_025.jpg
2212.37	0.613	correct	congruent	Block2	congruent/STIM_025.jpg
2215.764	0.6	correct	congruent	Block2	congruent/STIM_025.jpg
2219.919	0.893	correct	congruent	Block2	congruent/STIM_025.jpg
2224.521	0.609	correct	congruent	Block2	congruent/STIM_026.jpg
2228.49	0.898	correct	congruent	Block2	congruent/STIM_026.jpg
2231.723	0.762	correct	congruent	Block2	congruent/STIM_026.jpg
2234.981	0.766	correct	congruent	Block2	congruent/STIM_026.jpg
2238.213	0.735	correct	congruent	Block2	congruent/STIM_026.jpg
2242.83	0.637	correct	congruent	Block2	congruent/STIM_027.jpg
2246.517	0.74	correct	congruent	Block2	congruent/STIM_027.jpg
2250.335	0.646	correct	congruent	Block2	congruent/STIM_027.jpg
2254.835	0.528	correct	congruent	Block2	congruent/STIM_027.jpg
2258.021	0.791	correct	congruent	Block2	congruent/STIM_027.jpg
2262.771	0.662	correct	congruent	Block2	congruent/STIM_028.jpg
2266.06	0.639	correct	congruent	Block2	congruent/STIM_028.jpg
2270.321	0.701	correct	congruent	Block2	congruent/STIM_028.jpg
2274.691	0.58	incorrect	congruent	Block2	congruent/STIM_028.jpg
2278.493	0.798	correct	congruent	Block2	congruent/STIM_028.jpg
2283.02	0.672	correct	congruent	Block2	congruent/STIM_029.jpg
2287.464	0.637	correct	congruent	Block2	congruent/STIM_029.jpg
2290.312	0.541	correct	congruent	Block2	congruent/STIM_029.jpg
2294.295	0.791	correct	congruent	Block2	congruent/STIM_029.jpg
2298.411	0.81	correct	congruent	Block2	congruent/STIM_029.jpg
2303.046	0.813	correct	incongruent	Block3	incongruent/STIM_000.jpg
2306.691	0.81	correct	incongruent	Block3	incongruent/STIM_000.jpg
2310.313	0.97	correct	incongruent	Block3	incongruent/STIM_000.jpg
2313.514	0.73	correct	incongruent	Block3	incongruent/STIM_000.jpg
2316.591	0.649	correct	incongruent	Block3	incongruent/STIM_000.jpg
2320.278	0.368	correct	incongruent	Block3	incongruent/STIM_001.jpg
2323.534	0.943	correct	incongruent	Block3	incongruent/STIM_001.jpg
2327.415	0.82	correct	incongruent	Block3	incongruent/STIM_001.jpg
2332.214	0.513	correct	incongruent	Block3	incongruent/STIM_001.jpg
2335.213	0.69	correct	incongruent	Block3	incongruent/STIM_001.jpg
2338.333	0.665	correct	incongruent	Block3	incongruent/STIM_002.jpg
2342.956	0.898	correct	incongruent	Block3	incongruent/STIM_002.jpg
2347.448	0.989	correct	incongruent	Block3	incongruent/STIM_002.jpg
2351.197	0.773	incorrect	incongruent	Block3	incongruent/STIM_002.jpg
2355.123	0.779	correct	incongruent	Block3	incongruent/STIM_002.jpg
2359.183	0.892	correct	incongruent	Block3	incongruent/STIM_003.jpg
2362.578	0.914	correct	incongruent	Block3	incongruent/STIM_003.jpg
2367.505	0.69	correct	incongruent	Block3	incongruent/STIM_003.jpg
2371.533	0.679	correct	incongruent	Block3	incongruent/STIM_003.jpg
2374.616	0.884	correct	incongruent	Block3	incongruent/STIM_003.jpg
2378.785	0.618	correct	incongruent	Block3	incongruent/STIM_004.jpg
2383.03	0.969	correct	incongruent	Block3	incongruent/STIM_004.jpg
2386.599	0.705	correct	incongruent	Block3	incongruent/STIM_004.jpg
2390.987	0.56	correct	incongruent	Block3	incongruent/STIM_004.jpg
2393.907	0.74	correct	incongruent	Block3	incongruent/STIM_004.jpg
2397.216	0.666	correct	incongruent	Block3	incongruent/STIM_005.jpg
2400.081	0.558	correct	incongruent	Block3	incongruent/STIM_005.jpg
2404.708	0.828	correct	incongruent	Block3	incongruent/STIM_005.jpg
2408.851	0.92	correct	incongruent	Block3	incongruent/STIM_005.jpg
2413.068	0.61	correct	incongruent	Block3	incongruent/STIM_005.jpg
2416.452	0.965	correct	incongruent	Block3	incongruent/STIM_006.jpg
2420.021	0.429	correct	incongruent	Block3	incongruent/STIM_006.jpg
2423.656	1.067	correct	incongruent	Block3	incongruent/STIM_006.jpg
2427.979	0.873	correct	incongruent	Block3	incongruent/STIM_006.jpg
2432.704	0.549	correct	incongruent	Block3	incongruent/STIM_006.jpg
2437.056	0.712	correct	incongruent	Block3	incongruent/STIM_007.jpg
2439.949	0.741	correct	incongruent	Block3	incongruent/STIM_007.jpg
2444.652	0.917	correct	incongruent	Block3	incongruent/STIM_007.jpg
2448.713	0.476	correct	incongruent	Block3	incongruent/STIM_007.jpg
2453.007	0.709	correct	incongruent	Block3	incongruent/STIM_007.jpg
2457.612	0.917	correct	incongruent	Block3	incongruent/STIM_008.jpg
2461.9	0.67	correct	incongruent	Block3	incongruent/STIM_008.jpg
2465.235	0.825	correct	incongruent	Block3	incongruent/STIM_008.jpg
2469.547	0.771	incorrect	incongruent	Block3	incongruent/STIM_008.jpg
2474.278	0.9	correct	incongruent	Block3	incongruent/STIM_008.jpg
2478.609	0.736	correct	incongruent	Block3	incongruent/STIM_009.jpg
2481.755	0.523	correct	incongruent	Block3	incongruent/STIM_009.jpg
2486.228	0.723	correct	incongruent	Block3	incongruent/STIM_009.jpg
2489.641	0.849	correct	incongruent	Block3	incongruent/STIM_009.jpg
2492.839	0.834	correct	incongruent	Block3	incongruent/STIM_009.jpg
2497.466	1.007	correct	incongruent	Block3	incongruent/STIM_010.jpg
2502.281	0.916	correct	incongruent	Block3	incongruent/STIM_010.jpg
2505.509	0.668	correct	incongruent	Block3	incongruent/STIM_010.jpg
2508.919	0.728	correct	incongruent	Block3	incongruent/STIM_010.jpg
2511.791	0.503	correct	incongruent	Block3	incongruent/STIM_010.jpg
2515.911	0.756	correct	incongruent	Block3	incongruent/STIM_011.jpg
2519.19	0.932	correct	incongruent	Block3	incongruent/STIM_011.jpg
2524.163	0.799	correct	incongruent	Block3	incongruent/STIM_011.jpg
2527.794	0.548	correct	incongruent	Block3	incongruent/STIM_011.jpg
2530.48	0.687	correct	incongruent	Block3	incongruent/STIM_011.jpg
2533.518	0.954	correct	incongruent	Block3	incongruent/STIM_012.jpg
2538.33	0.7	correct	incongruent	Block3	incongruent/STIM_012.jpg
2542.534	1.035	correct	incongruent	Block3	incongruent/STIM_012.jpg
2545.891	0.623	correct	incongruent	Block3	incongruent/STIM_012.jpg
2549.27	0.479	correct	incongruent	Block3	incongruent/STIM_012.jpg
2553.381	0.76	correct	incongruent	Block3	incongruent/STIM_013.jpg
2557.936	0.796	incorrect	incongruent	Block3	incongruent/STIM_013.jpg
2560.965	0.658	correct	incongruent	Block3	incongruent/STIM_013.jpg
2564.754	0.756	correct	incongruent	Block3	incongruent/STIM_013.jpg
2568.686	0.488	incorrect	incongruent	Block3	incongruent/STIM_013.jpg
2573.023	0.89	correct	incongruent	Block3	incongruent/STIM_014.jpg
2576.208	0.967	correct	incongruent	Block3	incongruent/STIM_014.jpg
2580.795	0.729	correct	incongruent	Block3	incongruent/STIM_014.jpg
2585.171	0.604	correct	incongruent	Block3	incongruent/STIM_014.jpg
2588.587	0.484	correct	incongruent	Block3	incongruent/STIM_014.jpg
2593.066	0.764	correct	incongruent	Block3	incongruent/STIM_015.jpg
2597.351	0.828	correct	incongruent	Block3	incongruent/STIM_015.jpg
2601.93	0.737	correct	incongruent	Block3	incongruent/STIM_015.jpg
2604.758	0.881	correct	incongruent	Block3	incongruent/STIM_015.jpg
2608.497	0.884	correct	incongruent	Block3	incongruent/STIM_015.jpg
2611.902	0.566	correct	incongruent	Block3	incongruent/STIM_016.jpg
2615.371	0.577	correct	incongruent	Block3	incongruent/STIM_016.jpg
2619.86	0.934	correct	incongruent	Block3	incongruent/STIM_016.jpg
2624.384	0.567	correct	incongruent	Block3	incongruent/STIM_016.jpg
2627.825	0.623	correct	incongruent	Block3	incongruent/STIM_016.jpg
2631.46	0.824	incorrect	incongruent	Block3	incongruent/STIM_017.jpg
2634.767	0.704	correct	incongruent	Block3	incongruent/STIM_017.jpg
2639.402	0.914	correct	incongruent	Block3	incongruent/STIM_017.jpg
2642.56	1.044	correct	incongruent	Block3	incongruent/STIM_017.jpg
2645.801	0.512	correct	incongruent	Block3	incongruent/STIM_017.jpg
2648.541	0.771	correct	incongruent	Block3	incongruent/STIM_018.jpg
2652.171	0.545	correct	incongruent	Block3	incongruent/STIM_018.jpg
2656.749	0.705	correct	incongruent	Block3	incongruent/STIM_018.jpg
2660.508	0.958	correct	incongruent	Block3	incongruent/STIM_018.jpg
2663.818	0.633	correct	incongruent	Block3	incongruent/STIM_018.jpg
2667.75	0.963	correct	incongruent	Block3	incongruent/STIM_019.jpg
2671.635	0.822	correct	incongruent	Block3	incongruent/STIM_019.jpg
2676.241	0.481	correct	incongruent	Block3	incongruent/STIM_019.jpg
2679.366	0.938	correct	incongruent	Block3	incongruent/STIM_019.jpg
2682.793	0.583	correct	incongruent	Block3	incongruent/STIM_019.jpg
2687.232	0.77	correct	incongruent	Block3	incongruent/STIM_020.jpg
2692.008	0.584	correct	incongruent	Block3	incongruent/STIM_020.jpg
2696.293	0.576	correct	incongruent	Block3	incongruent/STIM_020.jpg
2699.333	0.645	incorrect	incongruent	Block3	incongruent/STIM_020.jpg
2702.49	0.741	correct	incongruent	Block3	incongruent/STIM_020.jpg
2705.469	0.512	correct	incongruent	Block3	incongruent/STIM_021.jpg
2710.025	0.847	correct	incongruent	Block3	incongruent/STIM_021.jpg
2714.618	0.605	correct	incongruent	Block3	incongruent/STIM_021.jpg
2718.775	0.601	correct	incongruent	Block3	incongruent/STIM_021.jpg
2721.885	1.014	correct	incongruent	Block3	incongruent/STIM_021.jpg
2726.592	0.789	incorrect	incongruent	Block3	incongruent/STIM_022.jpg
2730.002	0.791	correct	incongruent	Block3	incongruent/STIM_022.jpg
2732.978	0.458	correct	incongruent	Block3	incongruent/STIM_022.jpg
2737.554	0.597	correct	incongruent	Block3	incongruent/STIM_022.jpg
2740.694	0.587	correct	incongruent	Block3	incongruent/STIM_022.jpg
2744.02	0.667	correct	incongruent	Block3	incongruent/STIM_023.jpg
2746.914	0.54	correct	incongruent	Block3	incongruent/STIM_023.jpg
2750.738	0.409	correct	incongruent	Block3	incongruent/STIM_023.jpg
2753.356	0.658	correct	incongruent	Block3	incongruent/STIM_023.jpg
2756.196	0.846	correct	incongruent	Block3	incongruent/STIM_023.jpg
2759.471	0.751	correct	incongruent	Block3	incongruent/STIM_024.jpg
2763.533	0.814	correct	incongruent	Block3	incongruent/STIM_024.jpg
2766.887	0.961	correct	incongruent	Block3	incongruent/STIM_024.jpg
2771.463	0.603	correct	incongruent	Block3	incongruent/STIM_024.jpg
2775.64	0.634	correct	incongruent	Block3	incongruent/STIM_024.jpg
2779.372	0.665	correct	incongruent	Block3	incongruent/STIM_025.jpg
2783.646	0.892	correct	incongruent	Block3	incongruent/STIM_025.jpg
2788.515	0.758	correct	incongruent	Block3	incongruent/STIM_025.jpg
2791.792	0.596	correct	incongruent	Block3	incongruent/STIM_025.jpg
2795.495	0.736	correct	incongruent	Block3	incongruent/STIM_025.jpg
2799.117	0.636	correct	incongruent	Block3	incongruent/STIM_026.jpg
2802.287	0.852	correct	incongruent	Block3	incongruent/STIM_026.jpg
2806.188	0.612	correct	incongruent	Block3	incongruent/STIM_026.jpg
2810.127	0.831	correct	incongruent	Block3	incongruent/STIM_026.jpg
2813.322	0.596	correct	incongruent	Block3	incongruent/STIM_026.jpg
2817.523	0.932	correct	incongruent	Block3	incongruent/STIM_027.jpg
2821.59	0.652	correct	incongruent	Block3	incongruent/STIM_027.jpg
2825.507	0.564	correct	incongruent	Block3	incongruent/STIM_027.jpg
2829.231	0.804	correct	incongruent	Block3	incongruent/STIM_027.jpg
2833.777	0.542	correct	incongruent	Block3	incongruent/STIM_027.jpg
2836.738	0.388	correct	incongruent	Block3	incongruent/STIM_028.jpg
2839.258	0.695	correct	incongruent	Block3	incongruent/STIM_028.jpg
2842.271	0.574	correct	incongruent	Block3	incongruent/STIM_028.jpg
2846.141	0.567	correct	incongruent	Block3	incongruent/STIM_028.jpg
2848.977	0.631	correct	incongruent	Block3	incongruent/STIM_028.jpg
2852.961	0.722	correct	incongruent	Block3	incongruent/STIM_029.jpg
2856.361	0.915	correct	incongruent	Block3	incongruent/STIM_029.jpg
2860.135	0.487	correct	incongruent	Block3	incongruent/STIM_029.jpg
2863.241	0.575	correct	incongruent	Block3	incongruent/STIM_029.jpg
2866.372	0.703	correct	incongruent	Block3	incongruent/STIM_029.jpg
2869.511	0.635	correct	congruent	Block3	congruent/STIM_000.jpg
2873.368	0.731	correct	congruent	Block3	congruent/STIM_000.jpg
2877.054	0.673	correct	congruent	Block3	congruent/STIM_000.jpg
2880.851	0.62	correct	congruent	Block3	congruent/STIM_000.jpg
2884.976	0.715	correct	congruent	Block3	congruent/STIM_000.jpg
2889.247	0.504	correct	congruent	Block3	congruent/STIM_001.jpg
2892.902	0.448	correct	congruent	Block3	congruent/STIM_001.jpg
2897.018	0.448	correct	congruent	Block3	congruent/STIM_001.jpg
2900.307	0.509	correct	congruent	Block3	congruent/STIM_001.jpg
2903.669	0.555	correct	congruent	Block3	congruent/STIM_001.jpg
2907.107	0.69	correct	congruent	Block3	congruent/STIM_002.jpg
2910.226	0.498	correct	congruent	Block3	congruent/STIM_002.jpg
2913.771	0.789	correct	congruent	Block3	congruent/STIM_002.jpg
2917.483	0.431	correct	congruent	Block3	congruent/STIM_002.jpg
2921.133	0.633	correct	congruent	Block3	congruent/STIM_002.jpg
2923.972	0.683	correct	congruent	Block3	congruent/STIM_003.jpg
2926.848	0.748	correct	congruent	Block3	congruent/STIM_003.jpg
2931.467	0.783	correct	congruent	Block3	congruent/STIM_003.jpg
2934.887	0.693	correct	congruent	Block3	congruent/STIM_003.jpg
2937.929	0.792	correct	congruent	Block3	congruent/STIM_003.jpg
2941.416	0.726	correct	congruent	Block3	congruent/STIM_004.jpg
2945.107	0.696	correct	congruent	Block3	congruent/STIM_004.jpg
2948.593	0.546	correct	congruent	Block3	congruent/STIM_004.jpg
2953.103	0.594	correct	congruent	Block3	congruent/STIM_004.jpg
2955.878	0.652	correct	congruent	Block3	congruent/STIM_004.jpg
2959.729	0.845	correct	congruent	Block3	congruent/STIM_005.jpg
2964.329	0.576	correct	congruent	Block3	congruent/STIM_005.jpg
2967.366	0.617	correct	congruent	Block3	congruent/STIM_005.jpg
2970.387	0.634	correct	congruent	Block3	congruent/STIM_005.jpg
2973.589	0.801	correct	congruent	Block3	congruent/STIM_005.jpg
2977.163	0.74	correct	congruent	Block3	congruent/STIM_006.jpg
2981.83	0.543	correct	congruent	Block3	congruent/STIM_006.jpg
2986.0	0.543	correct	congruent	Block3	congruent/STIM_006.jpg
2988.899	0.836	correct	congruent	Block3	congruent/STIM_006.jpg
2993.294	0.699	correct	congruent	Block3	congruent/STIM_006.jpg
2997.756	0.51	correct	congruent	Block3	congruent/STIM_007.jpg
3002.294	0.736	incorrect	congruent	Block3	congruent/STIM_007.jpg
3005.82	0.69	incorrect	congruent	Block3	congruent/STIM_007.jpg
3009.819	0.729	correct	congruent	Block3	congruent/STIM_007.jpg
3013.076	0.807	correct	congruent	Block3	congruent/STIM_007.jpg
3016.405	0.395	correct	congruent	Block3	congruent/STIM_008.jpg
3019.718	0.493	correct	congruent	Block3	congruent/STIM_008.jpg
3022.963	0.602	correct	congruent	Block3	congruent/STIM_008.jpg
3027.335	0.791	correct	congruent	Block3	congruent/STIM_008.jpg
3031.354	0.574	correct	congruent	Block3	congruent/STIM_008.jpg
3033.897	0.741	correct	congruent	Block3	congruent/STIM_009.jpg
3037.963	0.502	correct	congruent	Block3	congruent/STIM_009.jpg
3040.755	0.664	correct	congruent	Block3	congruent/STIM_009.jpg
3043.783	0.725	correct	congruent	Block3	congruent/STIM_009.jpg
3048.273	0.854	correct	congruent	Block3	congruent/STIM_009.jpg
3052.119	0.787	correct	congruent	Block3	congruent/STIM_010.jpg
3056.661	0.502	correct	congruent	Block3	congruent/STIM_010.jpg
3060.944	0.664	correct	congruent	Block3	congruent/STIM_010.jpg
3065.484	0.83	correct	congruent	Block3	congruent/STIM_010.jpg
3070.27	0.708	correct	congruent	Block3	congruent/STIM_010.jpg
3073.103	0.764	incorrect	congruent	Block3	congruent/STIM_011.jpg
3076.604	0.615	correct	congruent	Block3	congruent/STIM_011.jpg
3079.33	0.708	correct	congruent	Block3	congruent/STIM_011.jpg
3083.991	0.598	correct	congruent	Block3	congruent/STIM_011.jpg
3087.842	0.62	correct	congruent	Block3	congruent/STIM_011.jpg
3091.575	0.439	correct	congruent	Block3	congruent/STIM_012.jpg
3095.638	0.618	correct	congruent	Block3	congruent/STIM_012.jpg
3099.842	0.714	correct	congruent	Block3	congruent/STIM_012.jpg
3103.378	0.644	incorrect	congruent	Block3	congruent/STIM_012.jpg
3108.095	0.705	correct	congruent	Block3	congruent/STIM_012.jpg
3112.636	0.633	correct	congruent	Block3	congruent/STIM_013.jpg
3116.262	0.817	correct	congruent	Block3	congruent/STIM_013.jpg
3119.788	0.642	correct	congruent	Block3	congruent/STIM_013.jpg
3123.76	0.415	correct	congruent	Block3	congruent/STIM_013.jpg
3127.729	0.722	correct	congruent	Block3	congruent/STIM_013.jpg
3131.729	0.676	correct	congruent	Block3	congruent/STIM_014.jpg
3134.8	0.604	correct	congruent	Block3	congruent/STIM_014.jpg
3138.899	0.599	correct	congruent	Block3	congruent/STIM_014.jpg
3142.965	0.721	correct	congruent	Block3	congruent/STIM_014.jpg
3147.187	0.509	correct	congruent	Block3	congruent/STIM_014.jpg
3151.569	0.473	correct	congruent	Block3	congruent/STIM_015.jpg
3154.857	0.749	correct	congruent	Block3	congruent/STIM_015.jpg
3158.504	0.888	correct	congruent	Block3	congruent/STIM_015.jpg
3162.734	0.657	correct	congruent	Block3	congruent/STIM_015.jpg
3166.991	0.659	correct	congruent	Block3	congruent/STIM_015.jpg
3170.808	0.632	correct	congruent	Block3	congruent/STIM_016.jpg
3173.516	0.415	correct	congruent	Block3	congruent/STIM_016.jpg
3178.003	0.583	incorrect	congruent	Block3	congruent/STIM_016.jpg
3181.501	0.545	correct	congruent	Block3	congruent/STIM_016.jpg
3185.227	0.549	correct	congruent	Block3	congruent/STIM_016.jpg
3189.507	0.561	correct	congruent	Block3	congruent/STIM_017.jpg
3194.056	0.78	incorrect	congruent	Block3	congruent/STIM_017.jpg
3198.226	0.613	correct	congruent	Block3	congruent/STIM_017.jpg
3201.728	0.57	correct	congruent	Block3	congruent/STIM_017.jpg
3204.799	0.703	correct	congruent	Block3	congruent/STIM_017.jpg
3208.818	0.364	correct	congruent	Block3	congruent/STIM_018.jpg
3212.838	0.547	correct	congruent	Block3	congruent/STIM_018.jpg
3215.52	0.505	correct	congruent	Block3	congruent/STIM_018.jpg
3218.9	0.612	correct	congruent	Block3	congruent/STIM_018.jpg
3221.827	0.541	correct	congruent	Block3	congruent/STIM_018.jpg
3224.876	0.614	correct	congruent	Block3	congruent/STIM_019.jpg
3228.961	0.786	correct	congruent	Block3	congruent/STIM_019.jpg
3233.597	0.845	correct	congruent	Block3	congruent/STIM_019.jpg
3238.242	0.698	correct	congruent	Block3	congruent/STIM_019.jpg
3241.602	0.63	correct	congruent	Block3	congruent/STIM_019.jpg
3244.512	0.822	correct	congruent	Block3	congruent/STIM_020.jpg
3247.7	0.538	correct	congruent	Block3	congruent/STIM_020.jpg
3251.172	0.697	correct	congruent	Block3	congruent/STIM_020.jpg
3254.571	0.455	correct	congruent	Block3	congruent/STIM_020.jpg
3258.378	0.54	correct	congruent	Block3	congruent/STIM_020.jpg
3262.457	0.754	incorrect	congruent	Block3	congruent/STIM_021.jpg
3267.017	0.534	correct	congruent	Block3	congruent/STIM_021.jpg
3270.214	0.454	correct	congruent	Block3	congruent/STIM_021.jpg
3273.879	0.44	incorrect	congruent	Block3	congruent/STIM_021.jpg
3277.65	0.744	correct	congruent	Block3	congruent/STIM_021.jpg
3280.972	0.541	correct	congruent	Block3	congruent/STIM_022.jpg
3284.132	0.567	correct	congruent	Block3	congruent/STIM_022.jpg
3287.71	0.57	correct	congruent	Block3	congruent/STIM_022.jpg
3292.09	0.428	incorrect	congruent	Block3	congruent/STIM_022.jpg
3296.158	0.573	correct	congruent	Block3	congruent/STIM_022.jpg
3299.327	0.497	correct	congruent	Block3	congruent/STIM_023.jpg
3302.882	0.54	correct	congruent	Block3	congruent/STIM_023.jpg
3305.944	0.652	correct	congruent	Block3	congruent/STIM_023.jpg
3308.599	0.759	correct	congruent	Block3	congruent/STIM_023.jpg
3312.442	0.426	correct	congruent	Block3	congruent/STIM_023.jpg
3315.769	0.778	incorrect	congruent	Block3	congruent/STIM_024.jpg
3320.054	0.503	correct	congruent	Block3	congruent/STIM_024.jpg
3323.745	0.636	correct	congruent	Block3	congruent/STIM_024.jpg
3326.979	0.849	correct	congruent	Block3	congruent/STIM_024.jpg
3331.578	0.578	correct	congruent	Block3	congruent/STIM_024.jpg
3335.183	0.649	correct	congruent	Block3	congruent/STIM_025.jpg
3338.401	0.564	correct	congruent	Block3	congruent/STIM_025.jpg
3341.647	0.63	correct	congruent	Block3	congruent/STIM_025.jpg
3344.763	0.791	correct	congruent	Block3	congruent/STIM_025.jpg
3349.188	0.898	correct	congruent	Block3	congruent/STIM_025.jpg
3353.276	0.552	correct	congruent	Block3	congruent/STIM_026.jpg
3356.996	0.474	correct	congruent	Block3	congruent/STIM_026.jpg
3360.203	0.891	correct	congruent	Block3	congruent/STIM_026.jpg
3363.115	0.73	correct	congruent	Block3	congruent/STIM_026.jpg
3366.551	0.554	incorrect	congruent	Block3	congruent/STIM_026.jpg
3369.243	0.775	correct	congruent	Block3	congruent/STIM_027.jpg
3372.905	0.57	correct	congruent	Block3	congruent/STIM_027.jpg
3377.141	0.742	correct	congruent	Block3	congruent/STIM_027.jpg
3380.341	0.579	correct	congruent	Block3	congruent/STIM_027.jpg
3383.771	0.694	correct	congruent	Block3	congruent/STIM_027.jpg
3387.641	0.5	correct	congruent	Block3	congruent/STIM_028.jpg
3391.285	0.619	correct	congruent	Block3	congruent/STIM_028.jpg
3395.512	0.796	correct	congruent	Block3	congruent/STIM_028.jpg
3399.904	0.478	incorrect	congruent	Block3	congruent/STIM_028.jpg
3403.04	0.736	correct	congruent	Block3	congruent/STIM_028.jpg
3407.707	0.767	correct	congruent	Block3	congruent/STIM_029.jpg
3411.163	0.503	correct	congruent	Block3	congruent/STIM_029.jpg
3415.034	0.42	correct	congruent	Block3	congruent/STIM_029.jpg
3417.678	0.794	correct	congruent	Block3	congruent/STIM_029.jpg
3420.632	0.545	correct	congruent	Block3	congruent/STIM_029.jpg
