onset	duration	response_time_ms	trial_type	learning_stage	stimulus	response_port
0.0	0.866	865.9	incongruent	Block1	incongruent/STIM_000.jpg	100
4.618	1.224	1224.4	incongruent	Block1	incongruent/STIM_000.jpg	100
9.047	1.239	1238.6	incongruent	Block1	incongruent/STIM_000.jpg	100
13.314	1.199	1198.7	incongruent	Block1	incongruent/STIM_000.jpg	100
17.792	0.844	844.3	incongruent	Block1	incongruent/STIM_000.jpg	99
21.828	0.905	904.9	incongruent	Block1	incongruent/STIM_001.jpg	99
25.618	0.905	905.4	incongruent	Block1	incongruent/STIM_001.jpg	99
29.531	1.147	1146.8	incongruent	Block1	incongruent/STIM_001.jpg	100
34.785	0.597	596.9	incongruent	Block1	incongruent/STIM_001.jpg	99
38.071	0.565	565.1	incongruent	Block1	incongruent/STIM_001.jpg	99
40.786	1.205	1205.4	incongruent	Block1	incongruent/STIM_002.jpg	99
45.109	0.996	996.0	incongruent	Block1	incongruent/STIM_002.jpg	100
50.031	0.968	967.7	incongruent	Block1	incongruent/STIM_002.jpg	99
53.868	1.027	1027.0	incongruent	Block1	incongruent/STIM_002.jpg	100
57.392	1.144	1143.7	incongruent	Block1	incongruent/STIM_002.jpg	100
60.737	1.022	1021.8	incongruent	Block1	incongruent/STIM_003.jpg	100
65.018	0.894	894.1	incongruent	Block1	incongruent/STIM_003.jpg	100
69.046	0.663	662.6	incongruent	Block1	incongruent/STIM_003.jpg	100
73.221	0.805	804.6	incongruent	Block1	incongruent/STIM_003.jpg	99
78.04	0.959	958.6	incongruent	Block1	incongruent/STIM_003.jpg	100
82.681	1.287	1287.0	incongruent	Block1	incongruent/STIM_004.jpg	100
86.946	1.239	1238.8	incongruent	Block1	incongruent/STIM_004.jpg	99
91.955	1.027	1026.8	incongruent	Block1	incongruent/STIM_004.jpg	100
96.666	0.666	666.2	incongruent	Block1	incongruent/STIM_004.jpg	99
101.188	0.946	946.2	incongruent	Block1	incongruent/STIM_004.jpg	100
104.61	1.191	1190.7	incongruent	Block1	incongruent/STIM_005.jpg	99
109.156	0.876	875.6	incongruent	Block1	incongruent/STIM_005.jpg	100
113.238	0.895	895.0	incongruent	Block1	incongruent/STIM_005.jpg	99
118.179	0.933	933.3	incongruent	Block1	incongruent/STIM_005.jpg	100
121.923	0.711	710.8	incongruent	Block1	incongruent/STIM_005.jpg	99
124.696	1.35	1349.8	incongruent	Block1	incongruent/STIM_006.jpg	99
129.432	0.926	925.6	incongruent	Block1	incongruent/STIM_006.jpg	100
133.411	0.971	971.0	incongruent	Block1	incongruent/STIM_006.jpg	99
138.353	0.701	701.1	incongruent	Block1	incongruent/STIM_006.jpg	99
142.908	0.903	902.6	incongruent	Block1	incongruent/STIM_006.jpg	100
146.48	1.306	1306.0	incongruent	Block1	incongruent/STIM_007.jpg	99
151.671	1.076	1076.0	incongruent	Block1	incongruent/STIM_007.jpg	100
156.054	0.983	983.3	incongruent	Block1	incongruent/STIM_007.jpg	99
159.963	0.664	663.8	incongruent	Block1	incongruent/STIM_007.jpg	100
162.979	0.541	541.0	incongruent	Block1	incongruent/STIM_007.jpg	100
166.788	0.847	847.2	incongruent	Block1	incongruent/STIM_008.jpg	99
170.968	0.986	985.6	incongruent	Block1	incongruent/STIM_008.jpg	99
175.531	1.096	1096.2	incongruent	Block1	incongruent/STIM_008.jpg	100
179.473	0.984	983.9	incongruent	Block1	incongruent/STIM_008.jpg	100
183.814	0.938	938.0	incongruent	Block1	incongruent/STIM_008.jpg	99
188.686	0.709	709.0	incongruent	Block1	incongruent/STIM_009.jpg	99
192.361	0.759	759.3	incongruent	Block1	incongruent/STIM_009.jpg	100
195.411	1.264	1263.5	incongruent	Block1	incongruent/STIM_009.jpg	100
200.543	0.576	576.3	incongruent	Block1	incongruent/STIM_009.jpg	99
203.353	0.924	924.2	incongruent	Block1	incongruent/STIM_009.jpg	100
208.382	1.246	1245.6	incongruent	Block1	incongruent/STIM_010.jpg	100
212.722	1.015	1015.2	incongruent	Block1	incongruent/STIM_010.jpg	99
215.819	0.751	750.6	incongruent	Block1	incongruent/STIM_010.jpg	100
220.271	0.816	815.9	incongruent	Block1	incongruent/STIM_010.jpg	99
224.903	1.08	1080.3	incongruent	Block1	incongruent/STIM_010.jpg	99
229.739	1.244	1244.5	incongruent	Block1	incongruent/STIM_011.jpg	99
234.857	1.366	1366.1	incongruent	Block1	incongruent/STIM_011.jpg	100
238.243	0.802	802.0	incongruent	Block1	incongruent/STIM_011.jpg	99
242.21	0.887	887.4	incongruent	Block1	incongruent/STIM_011.jpg	100
246.962	1.069	1068.6	incongruent	Block1	incongruent/STIM_011.jpg	100
250.163	0.923	922.7	incongruent	Block1	incongruent/STIM_012.jpg	99
254.129	0.796	796.4	incongruent	Block1	incongruent/STIM_012.jpg	100
258.498	1.174	1173.6	incongruent	Block1	incongruent/STIM_012.jpg	100
262.054	1.016	1016.0	incongruent	Block1	incongruent/STIM_012.jpg	99
266.964	0.468	468.0	incongruent	Block1	incongruent/STIM_012.jpg	100
270.001	1.293	1292.8	incongruent	Block1	incongruent/STIM_013.jpg	100
273.906	0.977	977.3	incongruent	Block1	incongruent/STIM_013.jpg	99
277.162	0.571	570.7	incongruent	Block1	incongruent/STIM_013.jpg	100
280.043	0.588	588.1	incongruent	Block1	incongruent/STIM_013.jpg	99
283.562	0.843	843.3	incongruent	Block1	incongruent/STIM_013.jpg	100
287.105	0.686	685.8	incongruent	Block1	incongruent/STIM_014.jpg	99
290.184	0.874	874.1	incongruent	Block1	incongruent/STIM_014.jpg	100
293.861	0.916	915.6	incongruent	Block1	incongruent/STIM_014.jpg	99
297.037	0.736	736.1	incongruent	Block1	incongruent/STIM_014.jpg	99
300.751	0.746	746.1	incongruent	Block1	incongruent/STIM_014.jpg	99
305.075	1.157	1157.2	incongruent	Block1	incongruent/STIM_015.jpg	100
310.131	1.285	1285.0	incongruent	Block1	incongruent/STIM_015.jpg	99
314.321	0.923	923.1	incongruent	Block1	incongruent/STIM_015.jpg	100
319.162	0.705	704.8	incongruent	Block1	incongruent/STIM_015.jpg	100
322.513	1.105	1104.9	incongruent	Block1	incongruent/STIM_015.jpg	100
326.59	1.089	1089.3	incongruent	Block1	incongruent/STIM_016.jpg	99
331.294	0.814	813.7	incongruent	Block1	incongruent/STIM_016.jpg	99
336.08	1.013	1013.2	incongruent	Block1	incongruent/STIM_016.jpg	100
339.332	0.694	694.4	incongruent	Block1	incongruent/STIM_016.jpg	99
343.716	0.967	967.1	incongruent	Block1	incongruent/STIM_016.jpg	99
347.045	1.392	1391.5	incongruent	Block1	incongruent/STIM_017.jpg	99
351.037	1.095	1095.4	incongruent	Block1	incongruent/STIM_017.jpg	100
356.053	0.797	797.1	incongruent	Block1	incongruent/STIM_017.jpg	99
359.428	0.755	754.6	incongruent	Block1	incongruent/STIM_017.jpg	99
363.975	0.649	648.6	incongruent	Block1	incongruent/STIM_017.jpg	100
367.313	0.73	729.9	incongruent	Block1	incongruent/STIM_018.jpg	99
371.965	1.05	1050.5	incongruent	Block1	incongruent/STIM_018.jpg	100
376.086	0.823	822.7	incongruent	Block1	incongruent/STIM_018.jpg	99
380.796	0.942	942.2	incongruent	Block1	incongruent/STIM_018.jpg	99
385.717	0.841	841.4	incongruent	Block1	incongruent/STIM_018.jpg	99
390.422	1.156	1156.1	incongruent	Block1	incongruent/STIM_019.jpg	99
394.169	0.859	859.3	incongruent	Block1	incongruent/STIM_019.jpg	99
397.345	0.737	736.6	incongruent	Block1	incongruent/STIM_019.jpg	99
400.414	0.834	834.2	incongruent	Block1	incongruent/STIM_019.jpg	99
404.551	0.985	984.7	incongruent	Block1	incongruent/STIM_019.jpg	99
408.566	1.271	1271.1	incongruent	Block1	incongruent/STIM_020.jpg	100
412.772	0.764	764.5	incongruent	Block1	incongruent/STIM_020.jpg	99
416.957	0.764	763.5	incongruent	Block1	incongruent/STIM_020.jpg	99
420.528	1.13	1130.0	incongruent	Block1	incongruent/STIM_020.jpg	99
425.685	0.896	896.2	incongruent	Block1	incongruent/STIM_020.jpg	99
430.334	1.058	1057.5	incongruent	Block1	incongruent/STIM_021.jpg	100
434.686	0.63	629.6	incongruent	Block1	incongruent/STIM_021.jpg	100
438.323	1.001	1001.4	incongruent	Block1	incongruent/STIM_021.jpg	100
441.548	0.862	861.6	incongruent	Block1	incongruent/STIM_021.jpg	99
445.974	0.58	580.5	incongruent	Block1	incongruent/STIM_021.jpg	100
450.294	0.615	615.0	incongruent	Block1	incongruent/STIM_022.jpg	100
454.912	0.979	979.0	incongruent	Block1	incongruent/STIM_022.jpg	100
459.546	0.635	634.9	incongruent	Block1	incongruent/STIM_022.jpg	100
464.126	1.032	1031.6	incongruent	Block1	incongruent/STIM_022.jpg	100
467.662	0.793	792.9	incongruent	Block1	incongruent/STIM_022.jpg	99
470.892	0.691	691.4	incongruent	Block1	incongruent/STIM_023.jpg	99
473.995	1.12	1119.5	incongruent	Block1	incongruent/STIM_023.jpg	100
479.134	1.129	1129.3	incongruent	Block1	incongruent/STIM_023.jpg	99
484.245	0.857	856.6	incongruent	Block1	incongruent/STIM_023.jpg	100
488.877	0.613	613.4	incongruent	Block1	incongruent/STIM_023.jpg	100
492.347	1.121	1121.0	incongruent	Block1	incongruent/STIM_024.jpg	100
495.578	0.799	798.6	incongruent	Block1	incongruent/STIM_024.jpg	99
499.671	1.324	1324.0	incongruent	Block1	incongruent/STIM_024.jpg	100
503.834	0.815	814.7	incongruent	Block1	incongruent/STIM_024.jpg	100
507.76	0.75	749.5	incongruent	Block1	incongruent/STIM_024.jpg	99
511.416	1.336	1336.3	incongruent	Block1	incongruent/STIM_025.jpg	99
516.283	1.178	1178.0	incongruent	Block1	incongruent/STIM_025.jpg	99
521.124	0.874	874.1	incongruent	Block1	incongruent/STIM_025.jpg	100
524.534	0.614	614.2	incongruent	Block1	incongruent/STIM_025.jpg	99
528.917	0.928	928.4	incongruent	Block1	incongruent/STIM_025.jpg	100
532.335	1.1	1099.7	incongruent	Block1	incongruent/STIM_026.jpg	99
535.952	1.032	1031.8	incongruent	Block1	incongruent/STIM_026.jpg	100
540.514	0.899	898.7	incongruent	Block1	incongruent/STIM_026.jpg	100
544.066	0.735	734.8	incongruent	Block1	incongruent/STIM_026.jpg	99
547.175	0.838	838.3	incongruent	Block1	incongruent/STIM_026.jpg	100
551.877	0.879	878.8	incongruent	Block1	incongruent/STIM_027.jpg	100
556.714	1.045	1044.7	incongruent	Block1	incongruent/STIM_027.jpg	100
561.717	0.878	878.3	incongruent	Block1	incongruent/STIM_027.jpg	99
565.725	0.963	962.9	incongruent	Block1	incongruent/STIM_027.jpg	100
569.077	0.813	813.1	incongruent	Block1	incongruent/STIM_027.jpg	99
573.462	1.022	1021.6	incongruent	Block1	incongruent/STIM_028.jpg	100
578.283	0.793	793.1	incongruent	Block1	incongruent/STIM_028.jpg	100
581.288	0.638	638.0	incongruent	Block1	incongruent/STIM_028.jpg	100
584.708	1.072	1071.8	incongruent	Block1	incongruent/STIM_028.jpg	99
589.383	0.722	722.0	incongruent	Block1	incongruent/STIM_028.jpg	99
592.439	1.343	1342.6	incongruent	Block1	incongruent/STIM_029.jpg	100
595.922	1.212	1212.3	incongruent	Block1	incongruent/STIM_029.jpg	99
601.07	1.246	1245.7	incongruent	Block1	incongruent/STIM_029.jpg	100
605.742	1.04	1040.5	incongruent	Block1	incongruent/STIM_029.jpg	100
610.689	0.635	634.8	incongruent	Block1	incongruent/STIM_029.jpg	99
615.165	0.448	448.5	congruent	Block1	congruent/STIM_000.jpg	99
618.132	0.887	887.4	congruent	Block1	congruent/STIM_000.jpg	99
621.566	0.792	792.2	congruent	Block1	congruent/STIM_000.jpg	99
624.678	0.549	549.1	congruent	Block1	congruent/STIM_000.jpg	100
627.523	0.588	587.8	congruent	Block1	congruent/STIM_000.jpg	99
631.673	0.686	686.5	congruent	Block1	congruent/STIM_001.jpg	99
635.721	0.676	675.9	congruent	Block1	congruent/STIM_001.jpg	100
640.127	0.543	542.9	congruent	Block1	congruent/STIM_001.jpg	100
643.982	0.541	540.9	congruent	Block1	congruent/STIM_001.jpg	100
647.709	0.712	712.0	congruent	Block1	congruent/STIM_001.jpg	99
651.619	0.533	533.3	congruent	Block1	congruent/STIM_002.jpg	99
655.799	0.683	682.9	congruent	Block1	congruent/STIM_002.jpg	100
659.738	0.648	647.8	congruent	Block1	congruent/STIM_002.jpg	99
664.026	0.718	717.7	congruent	Block1	congruent/STIM_002.jpg	100
666.88	0.814	813.8	congruent	Block1	congruent/STIM_002.jpg	100
671.293	0.706	706.1	congruent	Block1	congruent/STIM_003.jpg	100
675.483	0.421	421.3	congruent	Block1	congruent/STIM_003.jpg	100
678.636	0.567	567.1	congruent	Block1	congruent/STIM_003.jpg	99
681.759	0.709	709.2	congruent	Block1	congruent/STIM_003.jpg	99
685.503	0.578	577.8	congruent	Block1	congruent/STIM_003.jpg	99
688.952	0.746	746.5	congruent	Block1	congruent/STIM_004.jpg	100
692.304	0.543	542.6	congruent	Block1	congruent/STIM_004.jpg	100
696.764	0.859	858.6	congruent	Block1	congruent/STIM_004.jpg	99
699.783	0.753	752.6	congruent	Block1	congruent/STIM_004.jpg	100
704.37	0.696	696.0	congruent	Block1	congruent/STIM_004.jpg	99
708.369	0.619	619.4	congruent	Block1	congruent/STIM_005.jpg	99
711.645	0.519	519.2	congruent	Block1	congruent/STIM_005.jpg	100
714.753	0.638	637.5	congruent	Block1	congruent/STIM_005.jpg	99
719.132	0.793	793.1	congruent	Block1	congruent/STIM_005.jpg	99
722.595	0.634	634.4	congruent	Block1	congruent/STIM_005.jpg	99
727.105	0.591	590.8	congruent	Block1	congruent/STIM_006.jpg	100
730.962	0.633	633.3	congruent	Block1	congruent/STIM_006.jpg	99
735.414	0.687	686.7	congruent	Block1	congruent/STIM_006.jpg	100
739.311	0.484	484.5	congruent	Block1	congruent/STIM_006.jpg	100
743.348	0.753	753.1	congruent	Block1	congruent/STIM_006.jpg	100
746.527	0.728	728.4	congruent	Block1	congruent/STIM_007.jpg	100
750.369	0.818	817.8	congruent	Block1	congruent/STIM_007.jpg	99
754.792	0.641	641.2	congruent	Block1	congruent/STIM_007.jpg	99
759.079	0.579	578.8	congruent	Block1	congruent/STIM_007.jpg	99
762.614	0.489	489.4	congruent	Block1	congruent/STIM_007.jpg	99
765.729	0.621	621.1	congruent	Block1	congruent/STIM_008.jpg	100
769.6	0.515	515.0	congruent	Block1	congruent/STIM_008.jpg	99
773.401	0.623	623.0	congruent	Block1	congruent/STIM_008.jpg	99
776.221	0.76	759.7	congruent	Block1	congruent/STIM_008.jpg	99
779.248	0.72	720.0	congruent	Block1	congruent/STIM_008.jpg	100
783.593	0.506	505.6	congruent	Block1	congruent/STIM_009.jpg	100
786.295	0.737	736.7	congruent	Block1	congruent/STIM_009.jpg	100
789.87	0.596	595.8	congruent	Block1	congruent/STIM_009.jpg	100
792.592	0.777	777.1	congruent	Block1	congruent/STIM_009.jpg	100
796.228	0.569	568.8	congruent	Block1	congruent/STIM_009.jpg	100
800.348	0.662	662.1	congruent	Block1	congruent/STIM_010.jpg	99
804.233	0.564	563.5	congruent	Block1	congruent/STIM_010.jpg	99
807.097	0.55	549.5	congruent	Block1	congruent/STIM_010.jpg	100
811.506	0.681	680.6	congruent	Block1	congruent/STIM_010.jpg	99
814.751	0.784	784.0	congruent	Block1	congruent/STIM_010.jpg	100
817.879	0.706	705.6	congruent	Block1	congruent/STIM_011.jpg	100
822.34	0.585	585.0	congruent	Block1	congruent/STIM_011.jpg	100
826.185	0.556	556.4	congruent	Block1	congruent/STIM_011.jpg	100
829.454	0.601	600.8	congruent	Block1	congruent/STIM_011.jpg	100
832.727	0.823	822.7	congruent	Block1	congruent/STIM_011.jpg	100
836.902	0.522	521.6	congruent	Block1	congruent/STIM_012.jpg	99
839.933	0.543	543.0	congruent	Block1	congruent/STIM_012.jpg	100
844.379	0.462	462.5	congruent	Block1	congruent/STIM_012.jpg	99
847.701	0.678	677.9	congruent	Block1	congruent/STIM_012.jpg	100
851.044	0.571	571.4	congruent	Block1	congruent/STIM_012.jpg	99
855.013	0.468	468.0	congruent	Block1	congruent/STIM_013.jpg	99
857.974	0.774	773.9	congruent	Block1	congruent/STIM_013.jpg	99
861.076	0.489	488.8	congruent	Block1	congruent/STIM_013.jpg	100
863.816	0.524	524.3	congruent	Block1	congruent/STIM_013.jpg	100
867.496	0.775	775.3	congruent	Block1	congruent/STIM_013.jpg	100
870.577	0.484	484.5	congruent	Block1	congruent/STIM_014.jpg	99
873.888	0.694	693.9	congruent	Block1	congruent/STIM_014.jpg	99
878.015	0.781	781.3	congruent	Block1	congruent/STIM_014.jpg	100
880.939	0.853	853.4	congruent	Block1	congruent/STIM_014.jpg	100
884.426	0.76	759.6	congruent	Block1	congruent/STIM_014.jpg	99
888.7	0.833	833.0	congruent	Block1	congruent/STIM_015.jpg	99
892.413	0.68	680.2	congruent	Block1	congruent/STIM_015.jpg	100
896.327	0.719	719.1	congruent	Block1	congruent/STIM_015.jpg	99
899.278	0.781	780.6	congruent	Block1	congruent/STIM_015.jpg	100
903.741	0.595	594.6	congruent	Block1	congruent/STIM_015.jpg	99
906.773	0.594	594.1	congruent	Block1	congruent/STIM_016.jpg	100
909.648	0.582	581.8	congruent	Block1	congruent/STIM_016.jpg	99
912.864	0.567	567.4	congruent	Block1	congruent/STIM_016.jpg	99
916.01	0.45	449.5	congruent	Block1	congruent/STIM_016.jpg	99
919.829	0.779	778.8	congruent	Block1	congruent/STIM_016.jpg	100
924.025	0.52	520.3	congruent	Block1	congruent/STIM_017.jpg	99
926.86	0.862	862.3	congruent	Block1	congruent/STIM_017.jpg	99
931.732	0.636	635.7	congruent	Block1	congruent/STIM_017.jpg	99
935.409	0.644	643.8	congruent	Block1	congruent/STIM_017.jpg	100
938.357	0.731	731.3	congruent	Block1	congruent/STIM_017.jpg	100
942.427	0.657	657.4	congruent	Block1	congruent/STIM_018.jpg	100
946.897	0.579	579.4	congruent	Block1	congruent/STIM_018.jpg	99
950.966	0.825	824.9	congruent	Block1	congruent/STIM_018.jpg	100
955.106	0.571	570.6	congruent	Block1	congruent/STIM_018.jpg	99
958.805	0.84	840.0	congruent	Block1	congruent/STIM_018.jpg	99
963.576	0.798	798.0	congruent	Block1	congruent/STIM_019.jpg	100
967.067	0.453	452.6	congruent	Block1	congruent/STIM_019.jpg	100
971.118	0.506	506.5	congruent	Block1	congruent/STIM_019.jpg	100
975.075	0.534	533.6	congruent	Block1	congruent/STIM_019.jpg	100
979.197	0.798	798.4	congruent	Block1	congruent/STIM_019.jpg	100
982.853	0.746	745.8	congruent	Block1	congruent/STIM_020.jpg	100
987.081	0.507	506.7	congruent	Block1	congruent/STIM_020.jpg	99
990.751	0.546	545.7	congruent	Block1	congruent/STIM_020.jpg	100
993.651	0.735	735.0	congruent	Block1	congruent/STIM_020.jpg	100
997.469	0.68	679.8	congruent	Block1	congruent/STIM_020.jpg	100
1000.283	0.752	751.6	congruent	Block1	congruent/STIM_021.jpg	100
1003.646	0.569	569.2	congruent	Block1	congruent/STIM_021.jpg	99
1008.095	0.491	490.9	congruent	Block1	congruent/STIM_021.jpg	99
1011.124	0.698	698.0	congruent	Block1	congruent/STIM_021.jpg	100
1015.567	0.744	743.9	congruent	Block1	congruent/STIM_021.jpg	100
1018.72	0.694	693.8	congruent	Block1	congruent/STIM_022.jpg	100
1023.407	0.709	709.3	congruent	Block1	congruent/STIM_022.jpg	100
1026.448	0.705	704.9	congruent	Block1	congruent/STIM_022.jpg	99
1029.942	0.535	535.0	congruent	Block1	congruent/STIM_022.jpg	99
1032.817	0.413	412.6	congruent	Block1	congruent/STIM_022.jpg	99
1035.633	0.494	494.2	congruent	Block1	congruent/STIM_023.jpg	100
1040.116	0.506	506.0	congruent	Block1	congruent/STIM_023.jpg	99
1042.999	0.723	723.2	congruent	Block1	congruent/STIM_023.jpg	99
1046.977	0.673	673.2	congruent	Block1	congruent/STIM_023.jpg	100
1051.379	0.787	787.0	congruent	Block1	congruent/STIM_023.jpg	100
1054.839	0.559	558.8	congruent	Block1	congruent/STIM_024.jpg	99
1057.932	0.757	756.8	congruent	Block1	congruent/STIM_024.jpg	100
1061.284	0.511	510.8	congruent	Block1	congruent/STIM_024.jpg	100
1063.935	0.468	467.6	congruent	Block1	congruent/STIM_024.jpg	99
1066.515	0.554	553.9	congruent	Block1	congruent/STIM_024.jpg	99
1069.754	0.642	641.7	congruent	Block1	congruent/STIM_025.jpg	100
1072.965	0.477	477.4	congruent	Block1	congruent/STIM_025.jpg	99
1076.993	0.685	685.0	congruent	Block1	congruent/STIM_025.jpg	100
1081.64	0.493	492.9	congruent	Block1	congruent/STIM_025.jpg	99
1085.683	0.779	779.4	congruent	Block1	congruent/STIM_025.jpg	99
1089.412	0.666	666.3	congruent	Block1	congruent/STIM_026.jpg	99
1093.245	0.575	574.8	congruent	Block1	congruent/STIM_026.jpg	99
1096.381	0.538	538.1	congruent	Block1	congruent/STIM_026.jpg	100
1100.185	0.574	574.5	congruent	Block1	congruent/STIM_026.jpg	100
1103.562	0.772	771.9	congruent	Block1	congruent/STIM_026.jpg	100
1108.232	0.506	505.6	congruent	Block1	congruent/STIM_027.jpg	100
1112.686	0.37	370.2	congruent	Block1	congruent/STIM_027.jpg	99
1117.161	0.58	580.2	congruent	Block1	congruent/STIM_027.jpg	100
1120.037	0.531	531.3	congruent	Block1	congruent/STIM_027.jpg	99
1123.743	0.805	805.4	congruent	Block1	congruent/STIM_027.jpg	99
1127.061	0.506	506.5	congruent	Block1	congruent/STIM_028.jpg	100
1131.623	0.594	594.3	congruent	Block1	congruent/STIM_028.jpg	100
1135.033	0.816	815.9	congruent	Block1	congruent/STIM_028.jpg	99
1139.033	0.78	780.5	congruent	Block1	congruent/STIM_028.jpg	100
1142.238	0.695	695.4	congruent	Block1	congruent/STIM_028.jpg	99
1145.699	0.618	618.0	congruent	Block1	congruent/STIM_029.jpg	99
1150.15	0.598	597.7	congruent	Block1	congruent/STIM_029.jpg	100
1153.475	0.783	782.8	congruent	Block1	congruent/STIM_029.jpg	99
1157.677	0.739	738.6	congruent	Block1	congruent/STIM_029.jpg	100
1161.067	0.744	744.2	congruent	Block1	congruent/STIM_029.jpg	99
1165.839	0.618	617.9	incongruent	Block2	incongruent/STIM_000.jpg	100
1170.533	0.571	570.9	incongruent	Block2	incongruent/STIM_000.jpg	99
1174.226	0.779	779.0	incongruent	Block2	incongruent/STIM_000.jpg	99
1178.747	0.609	608.9	incongruent	Block2	incongruent/STIM_000.jpg	100
1183.265	0.471	471.0	incongruent	Block2	incongruent/STIM_000.jpg	100
1186.373	0.566	566.1	incongruent	Block2	incongruent/STIM_001.jpg	100
1190.55	0.884	884.3	incongruent	Block2	incongruent/STIM_001.jpg	99
1194.45	0.87	869.6	incongruent	Block2	incongruent/STIM_001.jpg	99
1199.26	0.49	489.7	incongruent	Block2	incongruent/STIM_001.jpg	99
1202.37	0.872	872.3	incongruent	Block2	incongruent/STIM_001.jpg	100
1206.542	0.938	937.5	incongruent	Block2	incongruent/STIM_002.jpg	99
1211.188	0.848	848.1	incongruent	Block2	incongruent/STIM_002.jpg	100
1214.896	0.757	756.6	incongruent	Block2	incongruent/STIM_002.jpg	99
1219.357	0.737	736.7	incongruent	Block2	incongruent/STIM_002.jpg	99
1223.192	0.698	697.9	incongruent	Block2	incongruent/STIM_002.jpg	99
1227.411	0.961	961.1	incongruent	Block2	incongruent/STIM_003.jpg	100
1231.5	0.974	974.0	incongruent	Block2	incongruent/STIM_003.jpg	100
1236.418	0.704	704.3	incongruent	Block2	incongruent/STIM_003.jpg	99
1239.617	0.566	565.6	incongruent	Block2	incongruent/STIM_003.jpg	99
1243.157	0.832	832.3	incongruent	Block2	incongruent/STIM_003.jpg	99
1246.425	0.739	739.0	incongruent	Block2	incongruent/STIM_004.jpg	100
1249.877	0.955	954.6	incongruent	Block2	incongruent/STIM_004.jpg	99
1253.316	0.958	958.1	incongruent	Block2	incongruent/STIM_004.jpg	99
1257.303	0.496	496.1	incongruent	Block2	incongruent/STIM_004.jpg	100
1261.016	0.611	611.1	incongruent	Block2	incongruent/STIM_004.jpg	99
1264.647	0.607	606.8	incongruent	Block2	incongruent/STIM_005.jpg	100
1269.102	0.582	582.2	incongruent	Block2	incongruent/STIM_005.jpg	100
1271.811	0.716	715.5	incongruent	Block2	incongruent/STIM_005.jpg	99
1275.603	0.776	775.6	incongruent	Block2	incongruent/STIM_005.jpg	100
1278.845	0.565	564.6	incongruent	Block2	incongruent/STIM_005.jpg	100
1281.882	0.956	955.9	incongruent	Block2	incongruent/STIM_006.jpg	100
1285.847	0.894	894.5	incongruent	Block2	incongruent/STIM_006.jpg	99
1288.874	0.683	683.3	incongruent	Block2	incongruent/STIM_006.jpg	99
1293.147	0.726	725.8	incongruent	Block2	incongruent/STIM_006.jpg	99
1297.429	0.584	583.6	incongruent	Block2	incongruent/STIM_006.jpg	100
1301.272	1.229	1228.8	incongruent	Block2	incongruent/STIM_007.jpg	99
1306.495	0.779	778.9	incongruent	Block2	incongruent/STIM_007.jpg	99
1311.34	0.845	845.2	incongruent	Block2	incongruent/STIM_007.jpg	99
1315.892	0.456	456.1	incongruent	Block2	incongruent/STIM_007.jpg	99
1318.63	0.609	609.1	incongruent	Block2	incongruent/STIM_007.jpg	100
1321.755	0.946	945.9	incongruent	Block2	incongruent/STIM_008.jpg	100
1326.572	0.928	927.5	incongruent	Block2	incongruent/STIM_008.jpg	99
1330.48	0.662	662.5	incongruent	Block2	incongruent/STIM_008.jpg	99
1333.245	0.665	665.4	incongruent	Block2	incongruent/STIM_008.jpg	99
1337.431	0.602	601.6	incongruent	Block2	incongruent/STIM_008.jpg	99
1341.291	0.939	939.0	incongruent	Block2	incongruent/STIM_009.jpg	100
1346.043	0.474	474.4	incongruent	Block2	incongruent/STIM_009.jpg	99
1349.304	0.85	850.5	incongruent	Block2	incongruent/STIM_009.jpg	99
1353.753	0.812	812.3	incongruent	Block2	incongruent/STIM_009.jpg	99
1357.254	0.819	819.4	incongruent	Block2	incongruent/STIM_009.jpg	99
1360.536	0.669	669.4	incongruent	Block2	incongruent/STIM_010.jpg	100
1364.64	1.008	1007.6	incongruent	Block2	incongruent/STIM_010.jpg	99
1369.477	0.855	854.6	incongruent	Block2	incongruent/STIM_010.jpg	99
1373.176	0.684	683.6	incongruent	Block2	incongruent/STIM_010.jpg	100
1376.249	0.449	449.1	incongruent	Block2	incongruent/STIM_010.jpg	100
1380.286	0.546	545.7	incongruent	Block2	incongruent/STIM_011.jpg	99
1384.572	0.873	872.6	incongruent	Block2	incongruent/STIM_011.jpg	100
1388.527	1.009	1008.7	incongruent	Block2	incongruent/STIM_011.jpg	100
1391.833	0.697	697.4	incongruent	Block2	incongruent/STIM_011.jpg	100
1394.841	0.824	823.6	incongruent	Block2	incongruent/STIM_011.jpg	99
1399.107	0.466	465.9	incongruent	Block2	incongruent/STIM_012.jpg	99
1403.132	0.546	545.8	incongruent	Block2	incongruent/STIM_012.jpg	99
1407.039	0.847	847.4	incongruent	Block2	incongruent/STIM_012.jpg	100
1411.162	0.618	618.3	incongruent	Block2	incongruent/STIM_012.jpg	99
1414.226	0.867	866.8	incongruent	Block2	incongruent/STIM_012.jpg	100
1417.295	0.618	617.6	incongruent	Block2	incongruent/STIM_013.jpg	100
1420.533	0.819	819.1	incongruent	Block2	incongruent/STIM_013.jpg	100
1423.732	0.921	921.4	incongruent	Block2	incongruent/STIM_013.jpg	99
1428.332	0.906	906.1	incongruent	Block2	incongruent/STIM_013.jpg	100
1433.081	0.53	529.6	incongruent	Block2	incongruent/STIM_013.jpg	100
1437.214	0.992	991.7	incongruent	Block2	incongruent/STIM_014.jpg	99
1441.385	0.778	778.5	incongruent	Block2	incongruent/STIM_014.jpg	100
1445.275	0.831	830.9	incongruent	Block2	incongruent/STIM_014.jpg	99
1448.687	0.833	833.1	incongruent	Block2	incongruent/STIM_014.jpg	99
1452.515	0.641	641.0	incongruent	Block2	incongruent/STIM_014.jpg	99
1456.52	0.755	754.6	incongruent	Block2	incongruent/STIM_015.jpg	99
1460.64	0.804	803.9	incongruent	Block2	incongruent/STIM_015.jpg	100
1463.608	0.692	692.4	incongruent	Block2	incongruent/STIM_015.jpg	100
1466.633	0.749	749.4	incongruent	Block2	incongruent/STIM_015.jpg	100
1470.33	0.565	565.0	incongruent	Block2	incongruent/STIM_015.jpg	100
1473.644	0.846	845.8	incongruent	Block2	incongruent/STIM_016.jpg	100
1477.427	0.601	601.2	incongruent	Block2	incongruent/STIM_016.jpg	99
1481.304	0.852	852.0	incongruent	Block2	incongruent/STIM_016.jpg	100
1484.409	0.766	766.5	incongruent	Block2	incongruent/STIM_016.jpg	100
1488.228	0.75	749.7	incongruent	Block2	incongruent/STIM_016.jpg	99
1491.494	0.868	868.5	incongruent	Block2	incongruent/STIM_017.jpg	100
1496.182	0.606	605.7	incongruent	Block2	incongruent/STIM_017.jpg	100
1500.294	0.571	571.4	incongruent	Block2	incongruent/STIM_017.jpg	99
1503.503	0.578	578.5	incongruent	Block2	incongruent/STIM_017.jpg	99
1508.053	0.97	969.8	incongruent	Block2	incongruent/STIM_017.jpg	99
1512.0	1.163	1163.1	incongruent	Block2	incongruent/STIM_018.jpg	99
1516.647	0.561	560.8	incongruent	Block2	incongruent/STIM_018.jpg	99
1519.949	0.754	754.5	incongruent	Block2	incongruent/STIM_018.jpg	100
1524.373	0.649	649.3	incongruent	Block2	incongruent/STIM_018.jpg	99
1527.918	0.892	892.0	incongruent	Block2	incongruent/STIM_018.jpg	100
1532.667	0.775	775.2	incongruent	Block2	incongruent/STIM_019.jpg	99
1537.116	0.479	479.3	incongruent	Block2	incongruent/STIM_019.jpg	99
1541.006	0.954	954.1	incongruent	Block2	incongruent/STIM_019.jpg	99
1544.907	0.618	617.7	incongruent	Block2	incongruent/STIM_019.jpg	100
1549.526	0.581	581.2	incongruent	Block2	incongruent/STIM_019.jpg	99
1553.52	1.246	1246.1	incongruent	Block2	incongruent/STIM_020.jpg	99
1557.935	1.062	1062.1	incongruent	Block2	incongruent/STIM_020.jpg	99
1562.682	0.635	635.3	incongruent	Block2	incongruent/STIM_020.jpg	100
1565.51	0.852	851.8	incongruent	Block2	incongruent/STIM_020.jpg	99
1569.612	0.447	447.1	incongruent	Block2	incongruent/STIM_020.jpg	99
1573.539	0.848	848.4	incongruent	Block2	incongruent/STIM_021.jpg	100
1577.774	0.556	555.6	incongruent	Block2	incongruent/STIM_021.jpg	99
1582.242	0.762	761.6	incongruent	Block2	incongruent/STIM_021.jpg	100
1586.362	0.643	643.1	incongruent	Block2	incongruent/STIM_021.jpg	100
1590.039	1.021	1021.0	incongruent	Block2	incongruent/STIM_021.jpg	100
1594.331	0.891	890.9	incongruent	Block2	incongruent/STIM_022.jpg	99
1598.547	0.482	481.5	incongruent	Block2	incongruent/STIM_022.jpg	100
1603.071	0.798	798.5	incongruent	Block2	incongruent/STIM_022.jpg	100
1606.484	0.819	819.0	incongruent	Block2	incongruent/STIM_022.jpg	100
1611.347	0.573	573.3	incongruent	Block2	incongruent/STIM_022.jpg	99
1614.481	0.512	511.9	incongruent	Block2	incongruent/STIM_023.jpg	100
1617.326	1.1	1099.5	incongruent	Block2	incongruent/STIM_023.jpg	100
1620.746	0.428	427.8	incongruent	Block2	incongruent/STIM_023.jpg	99
1624.942	0.691	690.6	incongruent	Block2	incongruent/STIM_023.jpg	99
1629.116	0.557	557.0	incongruent	Block2	incongruent/STIM_023.jpg	100
1633.458	0.725	724.7	incongruent	Block2	incongruent/STIM_024.jpg	99
1637.352	0.844	843.6	incongruent	Block2	incongruent/STIM_024.jpg	100
1640.378	0.736	735.9	incongruent	Block2	incongruent/STIM_024.jpg	99
1645.028	0.73	729.7	incongruent	Block2	incongruent/STIM_024.jpg	99
1648.843	0.631	630.9	incongruent	Block2	incongruent/STIM_024.jpg	100
1653.406	0.771	770.8	incongruent	Block2	incongruent/STIM_025.jpg	100
1657.424	0.612	612.0	incongruent	Block2	incongruent/STIM_025.jpg	99
1660.958	0.716	715.5	incongruent	Block2	incongruent/STIM_025.jpg	100
1665.371	0.762	762.5	incongruent	Block2	incongruent/STIM_025.jpg	100
1668.341	0.497	496.6	incongruent	Block2	incongruent/STIM_025.jpg	100
1672.17	0.777	777.0	incongruent	Block2	incongruent/STIM_026.jpg	99
1675.922	0.612	612.2	incongruent	Block2	incongruent/STIM_026.jpg	99
1679.841	1.081	1080.9	incongruent	Block2	incongruent/STIM_026.jpg	100
1684.255	0.946	946.1	incongruent	Block2	incongruent/STIM_026.jpg	100
1689.214	0.678	677.5	incongruent	Block2	incongruent/STIM_026.jpg	99
1692.516	0.675	675.1	incongruent	Block2	incongruent/STIM_027.jpg	100
1695.304	0.437	437.0	incongruent	Block2	incongruent/STIM_027.jpg	100
1698.13	0.502	502.3	incongruent	Block2	incongruent/STIM_027.jpg	99
1702.382	0.614	614.2	incongruent	Block2	incongruent/STIM_027.jpg	99
1706.375	0.694	694.4	incongruent	Block2	incongruent/STIM_027.jpg	100
1710.078	0.811	810.6	incongruent	Block2	incongruent/STIM_028.jpg	99
1714.454	0.844	843.8	incongruent	Block2	incongruent/STIM_028.jpg	100
1717.852	0.601	600.8	incongruent	Block2	incongruent/STIM_028.jpg	99
1722.275	0.726	726.1	incongruent	Block2	incongruent/STIM_028.jpg	100
1726.365	0.846	845.8	incongruent	Block2	incongruent/STIM_028.jpg	99
1730.529	0.691	691.2	incongruent	Block2	incongruent/STIM_029.jpg	100
1734.201	0.533	532.6	incongruent	Block2	incongruent/STIM_029.jpg	99
1736.946	0.946	946.3	incongruent	Block2	incongruent/STIM_029.jpg	100
1740.763	0.672	671.9	incongruent	Block2	incongruent/STIM_029.jpg	99
1744.05	0.926	925.5	incongruent	Block2	incongruent/STIM_029.jpg	100
1747.455	0.59	589.7	congruent	Block2	congruent/STIM_000.jpg	100
1751.402	0.681	680.8	congruent	Block2	congruent/STIM_000.jpg	100
1754.21	0.732	731.7	congruent	Block2	congruent/STIM_000.jpg	99
1758.604	0.643	643.4	congruent	Block2	congruent/STIM_000.jpg	100
1762.521	0.636	636.2	congruent	Block2	congruent/STIM_000.jpg	100
1765.382	0.676	675.8	congruent	Block2	congruent/STIM_001.jpg	99
1768.361	0.513	512.7	congruent	Block2	congruent/STIM_001.jpg	100
1771.429	0.55	549.5	congruent	Block2	congruent/STIM_001.jpg	100
1775.254	0.78	779.7	congruent	Block2	congruent/STIM_001.jpg	100
1779.893	0.676	675.7	congruent	Block2	congruent/STIM_001.jpg	99
1782.69	0.702	701.7	congruent	Block2	congruent/STIM_002.jpg	100
1786.381	0.753	753.4	congruent	Block2	congruent/STIM_002.jpg	99
1790.842	0.768	767.8	congruent	Block2	congruent/STIM_002.jpg	100
1793.918	0.593	593.0	congruent	Block2	congruent/STIM_002.jpg	99
1798.56	0.652	652.5	congruent	Block2	congruent/STIM_002.jpg	100
1802.013	0.439	439.1	congruent	Block2	congruent/STIM_003.jpg	100
1804.715	0.711	711.1	congruent	Block2	congruent/STIM_003.jpg	100
1807.856	0.711	710.6	congruent	Block2	congruent/STIM_003.jpg	100
1811.595	0.738	738.5	congruent	Block2	congruent/STIM_003.jpg	100
1815.589	0.866	866.4	congruent	Block2	congruent/STIM_003.jpg	100
1818.831	0.824	823.9	congruent	Block2	congruent/STIM_004.jpg	99
1822.957	0.52	519.7	congruent	Block2	congruent/STIM_004.jpg	100
1825.657	0.635	634.9	congruent	Block2	congruent/STIM_004.jpg	99
1829.767	0.679	678.6	congruent	Block2	congruent/STIM_004.jpg	99
1834.13	0.74	739.9	congruent	Block2	congruent/STIM_004.jpg	100
1837.816	0.585	585.2	congruent	Block2	congruent/STIM_005.jpg	99
1842.127	0.772	771.5	congruent	Block2	congruent/STIM_005.jpg	100
1845.685	0.494	493.8	congruent	Block2	congruent/STIM_005.jpg	99
1849.277	0.715	715.1	congruent	Block2	congruent/STIM_005.jpg	99
1852.595	0.556	555.8	congruent	Block2	congruent/STIM_005.jpg	99
1857.194	0.445	444.7	congruent	Block2	congruent/STIM_006.jpg	99
1860.986	0.672	672.5	congruent	Block2	congruent/STIM_006.jpg	99
1864.136	0.716	715.5	congruent	Block2	congruent/STIM_006.jpg	100
1868.717	0.758	758.0	congruent	Block2	congruent/STIM_006.jpg	99
1872.513	0.61	609.5	congruent	Block2	congruent/STIM_006.jpg	100
1876.66	0.514	513.7	congruent	Block2	congruent/STIM_007.jpg	99
1880.918	0.565	564.8	congruent	Block2	congruent/STIM_007.jpg	100
1885.297	0.618	617.9	congruent	Block2	congruent/STIM_007.jpg	99
1890.005	0.517	517.1	congruent	Block2	congruent/STIM_007.jpg	100
1893.27	0.783	782.8	congruent	Block2	congruent/STIM_007.jpg	99
1897.785	0.495	494.8	congruent	Block2	congruent/STIM_008.jpg	99
1901.012	0.628	628.4	congruent	Block2	congruent/STIM_008.jpg	100
1905.43	0.722	722.5	congruent	Block2	congruent/STIM_008.jpg	99
1909.27	0.713	712.9	congruent	Block2	congruent/STIM_008.jpg	99
1912.276	0.518	517.9	congruent	Block2	congruent/STIM_008.jpg	99
1915.215	0.691	690.6	congruent	Block2	congruent/STIM_009.jpg	99
1917.998	0.62	620.4	congruent	Block2	congruent/STIM_009.jpg	99
1921.035	0.814	813.7	congruent	Block2	congruent/STIM_009.jpg	100
1924.294	0.749	748.7	congruent	Block2	congruent/STIM_009.jpg	99
1928.668	0.377	376.8	congruent	Block2	congruent/STIM_009.jpg	99
1932.802	0.842	842.1	congruent	Block2	congruent/STIM_010.jpg	99
1936.13	0.644	643.9	congruent	Block2	congruent/STIM_010.jpg	100
1938.916	0.497	496.9	congruent	Block2	congruent/STIM_010.jpg	99
1941.982	0.594	593.8	congruent	Block2	congruent/STIM_010.jpg	100
1945.497	0.83	830.1	congruent	Block2	congruent/STIM_010.jpg	99
1948.491	0.712	712.2	congruent	Block2	congruent/STIM_011.jpg	100
1952.27	0.765	765.2	congruent	Block2	congruent/STIM_011.jpg	99
1955.774	0.562	561.6	congruent	Block2	congruent/STIM_011.jpg	100
1958.368	0.643	642.9	congruent	Block2	congruent/STIM_011.jpg	100
1961.496	0.652	652.2	congruent	Block2	congruent/STIM_011.jpg	99
1965.558	0.879	878.9	congruent	Block2	congruent/STIM_012.jpg	99
1969.968	0.712	712.5	congruent	Block2	congruent/STIM_012.jpg	100
1972.983	0.574	573.7	congruent	Block2	congruent/STIM_012.jpg	100
1976.001	0.78	780.3	congruent	Block2	congruent/STIM_012.jpg	99
1980.574	0.407	407.1	congruent	Block2	congruent/STIM_012.jpg	100
1983.608	0.488	487.7	congruent	Block2	congruent/STIM_013.jpg	100
1987.785	0.685	685.1	congruent	Block2	congruent/STIM_013.jpg	100
1992.041	0.807	807.4	congruent	Block2	congruent/STIM_013.jpg	99
1995.694	0.538	538.0	congruent	Block2	congruent/STIM_013.jpg	100
1998.912	0.66	660.2	congruent	Block2	congruent/STIM_013.jpg	99
2002.889	0.595	595.3	congruent	Block2	congruent/STIM_014.jpg	99
2007.13	0.679	678.8	congruent	Block2	congruent/STIM_014.jpg	99
2010.836	0.53	530.4	congruent	Block2	congruent/STIM_014.jpg	100
2014.287	0.636	635.9	congruent	Block2	congruent/STIM_014.jpg	100
2018.762	0.503	503.4	congruent	Block2	congruent/STIM_014.jpg	100
2023.131	0.846	846.3	congruent	Block2	congruent/STIM_015.jpg	100
2027.504	0.584	584.3	congruent	Block2	congruent/STIM_015.jpg	100
2030.561	0.587	587.0	congruent	Block2	congruent/STIM_015.jpg	99
2035.146	0.474	474.5	congruent	Block2	congruent/STIM_015.jpg	99
2038.565	0.715	714.9	congruent	Block2	congruent/STIM_015.jpg	99
2041.705	0.609	608.7	congruent	Block2	congruent/STIM_016.jpg	100
2045.262	0.8	800.1	congruent	Block2	congruent/STIM_016.jpg	99
2049.446	0.8	800.5	congruent	Block2	congruent/STIM_016.jpg	100
2052.675	0.794	794.0	congruent	Block2	congruent/STIM_016.jpg	99
2056.018	0.819	818.9	congruent	Block2	congruent/STIM_016.jpg	99
2058.978	0.548	547.7	congruent	Block2	congruent/STIM_017.jpg	100
2062.579	0.74	740.5	congruent	Block2	congruent/STIM_017.jpg	100
2066.242	0.684	683.8	congruent	Block2	congruent/STIM_017.jpg	100
2070.079	0.725	725.3	congruent	Block2	congruent/STIM_017.jpg	99
2073.165	0.541	540.9	congruent	Block2	congruent/STIM_017.jpg	100
2076.929	0.597	597.0	congruent	Block2	congruent/STIM_018.jpg	100
2080.509	0.899	898.7	congruent	Block2	congruent/STIM_018.jpg	100
2083.558	0.588	587.8	congruent	Block2	congruent/STIM_018.jpg	100
2087.239	0.652	652.0	congruent	Block2	congruent/STIM_018.jpg	100
2091.011	0.62	620.5	congruent	Block2	congruent/STIM_018.jpg	100
2095.145	0.557	557.4	congruent	Block2	congruent/STIM_019.jpg	99
2098.839	0.671	670.6	congruent	Block2	congruent/STIM_019.jpg	99
2102.64	0.802	801.8	congruent	Block2	congruent/STIM_019.jpg	100
2106.269	0.656	656.3	congruent	Block2	congruent/STIM_019.jpg	100
2109.628	0.689	689.3	congruent	Block2	congruent/STIM_019.jpg	99
2113.373	0.695	694.7	congruent	Block2	congruent/STIM_020.jpg	99
2117.203	0.546	545.9	congruent	Block2	congruent/STIM_020.jpg	100
2120.824	0.598	598.2	congruent	Block2	congruent/STIM_020.jpg	99
2124.638	0.737	737.4	congruent	Block2	congruent/STIM_020.jpg	99
2127.847	0.547	546.8	congruent	Block2	congruent/STIM_020.jpg	99
2132.331	0.843	843.1	congruent	Block2	congruent/STIM_021.jpg	100
2136.08	0.566	566.4	congruent	Block2	congruent/STIM_021.jpg	100
2138.736	0.5	499.9	congruent	Block2	congruent/STIM_021.jpg	100
2141.343	0.492	492.5	congruent	Block2	congruent/STIM_021.jpg	100
2145.145	0.442	441.6	congruent	Block2	congruent/STIM_021.jpg	100
2148.087	0.488	488.5	congruent	Block2	congruent/STIM_022.jpg	100
2152.165	0.5	499.6	congruent	Block2	congruent/STIM_022.jpg	99
2155.77	0.602	602.4	congruent	Block2	congruent/STIM_022.jpg	99
2160.267	0.56	559.9	congruent	Block2	congruent/STIM_022.jpg	99
2164.307	0.72	720.5	congruent	Block2	congruent/STIM_022.jpg	99
2167.82	0.74	739.7	congruent	Block2	congruent/STIM_023.jpg	100
2171.717	0.419	418.9	congruent	Block2	congruent/STIM_023.jpg	99
2174.967	0.444	444.2	congruent	Block2	congruent/STIM_023.jpg	99
2178.409	0.595	595.1	congruent	Block2	congruent/STIM_023.jpg	99
2181.164	0.785	784.8	congruent	Block2	congruent/STIM_023.jpg	99
2185.304	0.742	741.7	congruent	Block2	congruent/STIM_024.jpg	100
2189.871	0.834	834.4	congruent	Block2	congruent/STIM_024.jpg	99
2192.969	0.55	550.3	congruent	Block2	congruent/STIM_024.jpg	100
2196.915	0.582	582.1	congruent	Block2	congruent/STIM_024.jpg	100
2201.282	0.743	742.7	congruent	Block2	congruent/STIM_024.jpg	99
2204.952	0.668	668.3	congruent	Block2	congruent/STIM_025.jpg	100
2209.137	0.671	671.4	congruent	Block2	congruent/STIM_025.jpg	99
2212.37	0.613	612.8	congruent	Block2	congruent/STIM_025.jpg	99
2215.764	0.6	600.5	congruent	Block2	congruent/STIM_025.jpg	99
2219.919	0.893	893.2	congruent	Block2	congruent/STIM_025.jpg	100
2224.521	0.609	609.2	congruent	Block2	congruent/STIM_026.jpg	100
2228.49	0.898	897.7	congruent	Block2	congruent/STIM_026.jpg	100
2231.723	0.762	761.6	congruent	Block2	congruent/STIM_026.jpg	99
2234.981	0.766	766.5	congruent	Block2	congruent/STIM_026.jpg	99
2238.213	0.735	735.2	congruent	Block2	congruent/STIM_026.jpg	99
2242.83	0.637	637.1	congruent	Block2	congruent/STIM_027.jpg	99
2246.517	0.74	739.6	congruent	Block2	congruent/STIM_027.jpg	99
2250.335	0.646	646.4	congruent	Block2	congruent/STIM_027.jpg	99
2254.835	0.528	527.5	congruent	Block2	congruent/STIM_027.jpg	99
2258.021	0.791	791.0	congruent	Block2	congruent/STIM_027.jpg	100
2262.771	0.662	662.4	congruent	Block2	congruent/STIM_028.jpg	100
2266.06	0.639	639.0	congruent	Block2	congruent/STIM_028.jpg	100
2270.321	0.701	700.9	congruent	Block2	congruent/STIM_028.jpg	100
2274.691	0.58	579.6	congruent	Block2	congruent/STIM_028.jpg	99
2278.493	0.798	797.8	congruent	Block2	congruent/STIM_028.jpg	100
2283.02	0.672	672.5	congruent	Block2	congruent/STIM_029.jpg	99
2287.464	0.637	636.9	congruent	Block2	congruent/STIM_029.jpg	99
2290.312	0.541	541.1	congruent	Block2	congruent/STIM_029.jpg	99
2294.295	0.791	790.6	congruent	Block2	congruent/STIM_029.jpg	99
2298.411	0.81	809.8	congruent	Block2	congruent/STIM_029.jpg	100
2303.046	0.813	813.0	incongruent	Block3	incongruent/STIM_000.jpg	99
2306.691	0.81	810.3	incongruent	Block3	incongruent/STIM_000.jpg	100
2310.313	0.97	969.5	incongruent	Block3	incongruent/STIM_000.jpg	100
2313.514	0.73	729.9	incongruent	Block3	incongruent/STIM_000.jpg	99
2316.591	0.649	648.6	incongruent	Block3	incongruent/STIM_000.jpg	99
2320.278	0.368	368.5	incongruent	Block3	incongruent/STIM_001.jpg	100
2323.534	0.943	942.9	incongruent	Block3	incongruent/STIM_001.jpg	99
2327.415	0.82	819.5	incongruent	Block3	incongruent/STIM_001.jpg	99
2332.214	0.513	512.6	incongruent	Block3	incongruent/STIM_001.jpg	99
2335.213	0.69	689.9	incongruent	Block3	incongruent/STIM_001.jpg	100
2338.333	0.665	665.4	incongruent	Block3	incongruent/STIM_002.jpg	100
2342.956	0.898	897.7	incongruent	Block3	incongruent/STIM_002.jpg	100
2347.448	0.989	989.2	incongruent	Block3	incongruent/STIM_002.jpg	100
2351.197	0.773	772.7	incongruent	Block3	incongruent/STIM_002.jpg	99
2355.123	0.779	779.1	incongruent	Block3	incongruent/STIM_002.jpg	100
2359.183	0.892	891.8	incongruent	Block3	incongruent/STIM_003.jpg	100
2362.578	0.914	913.9	incongruent	Block3	incongruent/STIM_003.jpg	99
2367.505	0.69	690.3	incongruent	Block3	incongruent/STIM_003.jpg	99
2371.533	0.679	678.7	incongruent	Block3	incongruent/STIM_003.jpg	100
2374.616	0.884	883.7	incongruent	Block3	incongruent/STIM_003.jpg	100
2378.785	0.618	618.1	incongruent	Block3	incongruent/STIM_004.jpg	100
2383.03	0.969	969.2	incongruent	Block3	incongruent/STIM_004.jpg	100
2386.599	0.705	705.2	incongruent	Block3	incongruent/STIM_004.jpg	99
2390.987	0.56	559.8	incongruent	Block3	incongruent/STIM_004.jpg	99
2393.907	0.74	739.8	incongruent	Block3	incongruent/STIM_004.jpg	99
2397.216	0.666	665.6	incongruent	Block3	incongruent/STIM_005.jpg	100
2400.081	0.558	558.3	incongruent	Block3	incongruent/STIM_005.jpg	100
2404.708	0.828	827.7	incongruent	Block3	incongruent/STIM_005.jpg	100
2408.851	0.92	920.2	incongruent	Block3	incongruent/STIM_005.jpg	100
2413.068	0.61	610.2	incongruent	Block3	incongruent/STIM_005.jpg	100
2416.452	0.965	964.8	incongruent	Block3	incongruent/STIM_006.jpg	100
2420.021	0.429	429.2	incongruent	Block3	incongruent/STIM_006.jpg	99
2423.656	1.067	1066.6	incongruent	Block3	incongruent/STIM_006.jpg	100
2427.979	0.873	873.4	incongruent	Block3	incongruent/STIM_006.jpg	100
2432.704	0.549	549.1	incongruent	Block3	incongruent/STIM_006.jpg	100
2437.056	0.712	711.7	incongruent	Block3	incongruent/STIM_007.jpg	99
2439.949	0.741	740.7	incongruent	Block3	incongruent/STIM_007.jpg	99
2444.652	0.917	917.1	incongruent	Block3	incongruent/STIM_007.jpg	99
2448.713	0.476	476.2	incongruent	Block3	incongruent/STIM_007.jpg	99
2453.007	0.709	708.8	incongruent	Block3	incongruent/STIM_007.jpg	100
2457.612	0.917	916.8	incongruent	Block3	incongruent/STIM_008.jpg	99
2461.9	0.67	670.4	incongruent	Block3	incongruent/STIM_008.jpg	99
2465.235	0.825	825.0	incongruent	Block3	incongruent/STIM_008.jpg	99
2469.547	0.771	771.0	incongruent	Block3	incongruent/STIM_008.jpg	100
2474.278	0.9	899.9	incongruent	Block3	incongruent/STIM_008.jpg	100
2478.609	0.736	735.5	incongruent	Block3	incongruent/STIM_009.jpg	100
2481.755	0.523	523.1	incongruent	Block3	incongruent/STIM_009.jpg	100
2486.228	0.723	723.4	incongruent	Block3	incongruent/STIM_009.jpg	99
2489.641	0.849	849.0	incongruent	Block3	incongruent/STIM_009.jpg	100
2492.839	0.834	833.5	incongruent	Block3	incongruent/STIM_009.jpg	99
2497.466	1.007	1007.4	incongruent	Block3	incongruent/STIM_010.jpg	99
2502.281	0.916	916.1	incongruent	Block3	incongruent/STIM_010.jpg	100
2505.509	0.668	668.2	incongruent	Block3	incongruent/STIM_010.jpg	99
2508.919	0.728	727.7	incongruent	Block3	incongruent/STIM_010.jpg	99
2511.791	0.503	503.4	incongruent	Block3	incongruent/STIM_010.jpg	100
2515.911	0.756	756.5	incongruent	Block3	incongruent/STIM_011.jpg	99
2519.19	0.932	932.5	incongruent	Block3	incongruent/STIM_011.jpg	100
2524.163	0.799	798.9	incongruent	Block3	incongruent/STIM_011.jpg	99
2527.794	0.548	547.9	incongruent	Block3	incongruent/STIM_011.jpg	99
2530.48	0.687	686.9	incongruent	Block3	incongruent/STIM_011.jpg	100
2533.518	0.954	954.1	incongruent	Block3	incongruent/STIM_012.jpg	99
2538.33	0.7	700.1	incongruent	Block3	incongruent/STIM_012.jpg	100
2542.534	1.035	1034.7	incongruent	Block3	incongruent/STIM_012.jpg	99
2545.891	0.623	623.0	incongruent	Block3	incongruent/STIM_012.jpg	99
2549.27	0.479	478.9	incongruent	Block3	incongruent/STIM_012.jpg	100
2553.381	0.76	759.9	incongruent	Block3	incongruent/STIM_013.jpg	99
2557.936	0.796	795.9	incongruent	Block3	incongruent/STIM_013.jpg	99
2560.965	0.658	657.9	incongruent	Block3	incongruent/STIM_013.jpg	99
2564.754	0.756	755.5	incongruent	Block3	incongruent/STIM_013.jpg	99
2568.686	0.488	487.6	incongruent	Block3	incongruent/STIM_013.jpg	99
2573.023	0.89	889.6	incongruent	Block3	incongruent/STIM_014.jpg	100
2576.208	0.967	967.4	incongruent	Block3	incongruent/STIM_014.jpg	99
2580.795	0.729	728.8	incongruent	Block3	incongruent/STIM_014.jpg	99
2585.171	0.604	603.9	incongruent	Block3	incongruent/STIM_014.jpg	99
2588.587	0.484	483.6	incongruent	Block3	incongruent/STIM_014.jpg	100
2593.066	0.764	763.8	incongruent	Block3	incongruent/STIM_015.jpg	100
2597.351	0.828	828.5	incongruent	Block3	incongruent/STIM_015.jpg	100
2601.93	0.737	736.9	incongruent	Block3	incongruent/STIM_015.jpg	100
2604.758	0.881	881.2	incongruent	Block3	incongruent/STIM_015.jpg	99
2608.497	0.884	884.5	incongruent	Block3	incongruent/STIM_015.jpg	100
2611.902	0.566	566.4	incongruent	Block3	incongruent/STIM_016.jpg	99
2615.371	0.577	577.3	incongruent	Block3	incongruent/STIM_016.jpg	100
2619.86	0.934	934.3	incongruent	Block3	incongruent/STIM_016.jpg	100
2624.384	0.567	567.0	incongruent	Block3	incongruent/STIM_016.jpg	100
2627.825	0.623	622.8	incongruent	Block3	incongruent/STIM_016.jpg	99
2631.46	0.824	823.8	incongruent	Block3	incongruent/STIM_017.jpg	100
2634.767	0.704	703.6	incongruent	Block3	incongruent/STIM_017.jpg	99
2639.402	0.914	914.3	incongruent	Block3	incongruent/STIM_017.jpg	100
2642.56	1.044	1043.7	incongruent	Block3	incongruent/STIM_017.jpg	100
2645.801	0.512	512.1	incongruent	Block3	incongruent/STIM_017.jpg	100
2648.541	0.771	770.6	incongruent	Block3	incongruent/STIM_018.jpg	99
2652.171	0.545	544.6	incongruent	Block3	incongruent/STIM_018.jpg	99
2656.749	0.705	704.9	incongruent	Block3	incongruent/STIM_018.jpg	99
2660.508	0.958	957.8	incongruent	Block3	incongruent/STIM_018.jpg	100
2663.818	0.633	633.2	incongruent	Block3	incongruent/STIM_018.jpg	99
2667.75	0.963	963.2	incongruent	Block3	incongruent/STIM_019.jpg	99
2671.635	0.822	822.1	incongruent	Block3	incongruent/STIM_019.jpg	100
2676.241	0.481	481.0	incongruent	Block3	incongruent/STIM_019.jpg	99
2679.366	0.938	937.5	incongruent	Block3	incongruent/STIM_019.jpg	99
2682.793	0.583	582.8	incongruent	Block3	incongruent/STIM_019.jpg	99
2687.232	0.77	769.9	incongruent	Block3	incongruent/STIM_020.jpg	99
2692.008	0.584	584.4	incongruent	Block3	incongruent/STIM_020.jpg	100
2696.293	0.576	575.8	incongruent	Block3	incongruent/STIM_020.jpg	100
2699.333	0.645	644.6	incongruent	Block3	incongruent/STIM_020.jpg	100
2702.49	0.741	741.4	incongruent	Block3	incongruent/STIM_020.jpg	100
2705.469	0.512	511.8	incongruent	Block3	incongruent/STIM_021.jpg	99
2710.025	0.847	847.2	incongruent	Block3	incongruent/STIM_021.jpg	100
2714.618	0.605	605.4	incongruent	Block3	incongruent/STIM_021.jpg	100
2718.775	0.601	601.2	incongruent	Block3	incongruent/STIM_021.jpg	99
2721.885	1.014	1014.5	incongruent	Block3	incongruent/STIM_021.jpg	100
2726.592	0.789	788.8	incongruent	Block3	incongruent/STIM_022.jpg	99
2730.002	0.791	790.8	incongruent	Block3	incongruent/STIM_022.jpg	100
2732.978	0.458	458.4	incongruent	Block3	incongruent/STIM_022.jpg	99
2737.554	0.597	597.2	incongruent	Block3	incongruent/STIM_022.jpg	99
2740.694	0.587	587.0	incongruent	Block3	incongruent/STIM_022.jpg	99
2744.02	0.667	667.0	incongruent	Block3	incongruent/STIM_023.jpg	99
2746.914	0.54	539.8	incongruent	Block3	incongruent/STIM_023.jpg	100
2750.738	0.409	408.8	incongruent	Block3	incongruent/STIM_023.jpg	100
2753.356	0.658	658.2	incongruent	Block3	incongruent/STIM_023.jpg	100
2756.196	0.846	845.9	incongruent	Block3	incongruent/STIM_023.jpg	99
2759.471	0.751	750.7	incongruent	Block3	incongruent/STIM_024.jpg	99
2763.533	0.814	813.9	incongruent	Block3	incongruent/STIM_024.jpg	100
2766.887	0.961	960.8	incongruent	Block3	incongruent/STIM_024.jpg	100
2771.463	0.603	603.0	incongruent	Block3	incongruent/STIM_024.jpg	99
2775.64	0.634	634.3	incongruent	Block3	incongruent/STIM_024.jpg	99
2779.372	0.665	665.4	incongruent	Block3	incongruent/STIM_025.jpg	100
2783.646	0.892	891.7	incongruent	Block3	incongruent/STIM_025.jpg	99
2788.515	0.758	758.0	incongruent	Block3	incongruent/STIM_025.jpg	100
2791.792	0.596	596.5	incongruent	Block3	incongruent/STIM_025.jpg	100
2795.495	0.736	735.5	incongruent	Block3	incongruent/STIM_025.jpg	99
2799.117	0.636	636.2	incongruent	Block3	incongruent/STIM_026.jpg	99
2802.287	0.852	852.5	incongruent	Block3	incongruent/STIM_026.jpg	100
2806.188	0.612	611.8	incongruent	Block3	incongruent/STIM_026.jpg	99
2810.127	0.831	830.8	incongruent	Block3	incongruent/STIM_026.jpg	99
2813.322	0.596	595.9	incongruent	Block3	incongruent/STIM_026.jpg	100
2817.523	0.932	932.5	incongruent	Block3	incongruent/STIM_027.jpg	100
2821.59	0.652	652.1	incongruent	Block3	incongruent/STIM_027.jpg	100
2825.507	0.564	564.3	incongruent	Block3	incongruent/STIM_027.jpg	99
2829.231	0.804	803.7	incongruent	Block3	incongruent/STIM_027.jpg	100
2833.777	0.542	541.9	incongruent	Block3	incongruent/STIM_027.jpg	99
2836.738	0.388	387.9	incongruent	Block3	incongruent/STIM_028.jpg	100
2839.258	0.695	695.3	incongruent	Block3	incongruent/STIM_028.jpg	99
2842.271	0.574	573.6	incongruent	Block3	incongruent/STIM_028.jpg	100
2846.141	0.567	566.9	incongruent	Block3	incongruent/STIM_028.jpg	99
2848.977	0.631	631.2	incongruent	Block3	incongruent/STIM_028.jpg	99
2852.961	0.722	722.0	incongruent	Block3	incongruent/STIM_029.jpg	99
2856.361	0.915	915.0	incongruent	Block3	incongruent/STIM_029.jpg	100
2860.135	0.487	486.7	incongruent	Block3	incongruent/STIM_029.jpg	99
2863.241	0.575	574.9	incongruent	Block3	incongruent/STIM_029.jpg	99
2866.372	0.703	702.8	incongruent	Block3	incongruent/STIM_029.jpg	100
2869.511	0.635	635.0	congruent	Block3	congruent/STIM_000.jpg	99
2873.368	0.731	730.7	congruent	Block3	congruent/STIM_000.jpg	99
2877.054	0.673	673.4	congruent	Block3	congruent/STIM_000.jpg	100
2880.851	0.62	620.5	congruent	Block3	congruent/STIM_000.jpg	100
2884.976	0.715	714.7	congruent	Block3	congruent/STIM_000.jpg	100
2889.247	0.504	504.1	congruent	Block3	congruent/STIM_001.jpg	100
2892.902	0.448	448.2	congruent	Block3	congruent/STIM_001.jpg	100
2897.018	0.448	447.8	congruent	Block3	congruent/STIM_001.jpg	100
2900.307	0.509	508.8	congruent	Block3	congruent/STIM_001.jpg	100
2903.669	0.555	555.3	congruent	Block3	congruent/STIM_001.jpg	100
2907.107	0.69	689.7	congruent	Block3	congruent/STIM_002.jpg	100
2910.226	0.498	497.7	congruent	Block3	congruent/STIM_002.jpg	99
2913.771	0.789	788.8	congruent	Block3	congruent/STIM_002.jpg	99
2917.483	0.431	431.1	congruent	Block3	congruent/STIM_002.jpg	99
2921.133	0.633	633.4	congruent	Block3	congruent/STIM_002.jpg	99
2923.972	0.683	683.0	congruent	Block3	congruent/STIM_003.jpg	99
2926.848	0.748	748.4	congruent	Block3	congruent/STIM_003.jpg	99
2931.467	0.783	782.9	congruent	Block3	congruent/STIM_003.jpg	99
2934.887	0.693	693.3	congruent	Block3	congruent/STIM_003.jpg	99
2937.929	0.792	791.9	congruent	Block3	congruent/STIM_003.jpg	99
2941.416	0.726	726.3	congruent	Block3	congruent/STIM_004.jpg	99
2945.107	0.696	696.3	congruent	Block3	congruent/STIM_004.jpg	99
2948.593	0.546	546.1	congruent	Block3	congruent/STIM_004.jpg	99
2953.103	0.594	594.2	congruent	Block3	congruent/STIM_004.jpg	100
2955.878	0.652	651.5	congruent	Block3	congruent/STIM_004.jpg	99
2959.729	0.845	845.1	congruent	Block3	congruent/STIM_005.jpg	100
2964.329	0.576	575.9	congruent	Block3	congruent/STIM_005.jpg	100
2967.366	0.617	617.1	congruent	Block3	congruent/STIM_005.jpg	99
2970.387	0.634	633.8	congruent	Block3	congruent/STIM_005.jpg	99
2973.589	0.801	800.8	congruent	Block3	congruent/STIM_005.jpg	99
2977.163	0.74	739.5	congruent	Block3	congruent/STIM_006.jpg	100
2981.83	0.543	543.2	congruent	Block3	congruent/STIM_006.jpg	100
2986.0	0.543	542.8	congruent	Block3	congruent/STIM_006.jpg	100
2988.899	0.836	836.4	congruent	Block3	congruent/STIM_006.jpg	99
2993.294	0.699	699.3	congruent	Block3	congruent/STIM_006.jpg	100
2997.756	0.51	510.4	congruent	Block3	congruent/STIM_007.jpg	99
3002.294	0.736	735.6	congruent	Block3	congruent/STIM_007.jpg	100
3005.82	0.69	690.3	congruent	Block3	congruent/STIM_007.jpg	100
3009.819	0.729	729.2	congruent	Block3	congruent/STIM_007.jpg	99
3013.076	0.807	807.0	congruent	Block3	congruent/STIM_007.jpg	99
3016.405	0.395	395.0	congruent	Block3	congruent/STIM_008.jpg	99
3019.718	0.493	492.6	congruent	Block3	congruent/STIM_008.jpg	99
3022.963	0.602	602.0	congruent	Block3	congruent/STIM_008.jpg	99
3027.335	0.791	791.3	congruent	Block3	congruent/STIM_008.jpg	100
3031.354	0.574	573.7	congruent	Block3	congruent/STIM_008.jpg	99
3033.897	0.741	741.0	congruent	Block3	congruent/STIM_009.jpg	100
3037.963	0.502	501.6	congruent	Block3	congruent/STIM_009.jpg	99
3040.755	0.664	664.1	congruent	Block3	congruent/STIM_009.jpg	99
3043.783	0.725	724.6	congruent	Block3	congruent/STIM_009.jpg	100
3048.273	0.854	854.4	congruent	Block3	congruent/STIM_009.jpg	100
3052.119	0.787	787.4	congruent	Block3	congruent/STIM_010.jpg	100
3056.661	0.502	502.5	congruent	Block3	congruent/STIM_010.jpg	100
3060.944	0.664	664.4	congruent	Block3	congruent/STIM_010.jpg	100
3065.484	0.83	830.2	congruent	Block3	congruent/STIM_010.jpg	99
3070.27	0.708	707.6	congruent	Block3	congruent/STIM_010.jpg	99
3073.103	0.764	763.5	congruent	Block3	congruent/STIM_011.jpg	100
3076.604	0.615	615.0	congruent	Block3	congruent/STIM_011.jpg	100
3079.33	0.708	707.7	congruent	Block3	congruent/STIM_011.jpg	100
3083.991	0.598	597.7	congruent	Block3	congruent/STIM_011.jpg	99
3087.842	0.62	620.0	congruent	Block3	congruent/STIM_011.jpg	100
3091.575	0.439	439.3	congruent	Block3	congruent/STIM_012.jpg	100
3095.638	0.618	618.3	congruent	Block3	congruent/STIM_012.jpg	99
3099.842	0.714	713.7	congruent	Block3	congruent/STIM_012.jpg	99
3103.378	0.644	644.5	congruent	Block3	congruent/STIM_012.jpg	99
3108.095	0.705	704.9	congruent	Block3	congruent/STIM_012.jpg	100
3112.636	0.633	632.8	congruent	Block3	congruent/STIM_013.jpg	100
3116.262	0.817	817.1	congruent	Block3	congruent/STIM_013.jpg	100
3119.788	0.642	641.9	congruent	Block3	congruent/STIM_013.jpg	100
3123.76	0.415	414.7	congruent	Block3	congruent/STIM_013.jpg	99
3127.729	0.722	722.4	congruent	Block3	congruent/STIM_013.jpg	100
3131.729	0.676	676.1	congruent	Block3	congruent/STIM_014.jpg	99
3134.8	0.604	604.2	congruent	Block3	congruent/STIM_014.jpg	100
3138.899	0.599	599.2	congruent	Block3	congruent/STIM_014.jpg	99
3142.965	0.721	720.7	congruent	Block3	congruent/STIM_014.jpg	100
3147.187	0.509	509.4	congruent	Block3	congruent/STIM_014.jpg	99
3151.569	0.473	473.1	congruent	Block3	congruent/STIM_015.jpg	100
3154.857	0.749	748.7	congruent	Block3	congruent/STIM_015.jpg	99
3158.504	0.888	887.5	congruent	Block3	congruent/STIM_015.jpg	100
3162.734	0.657	657.4	congruent	Block3	congruent/STIM_015.jpg	100
3166.991	0.659	659.4	congruent	Block3	congruent/STIM_015.jpg	99
3170.808	0.632	632.5	congruent	Block3	congruent/STIM_016.jpg	99
3173.516	0.415	415.4	congruent	Block3	congruent/STIM_016.jpg	100
3178.003	0.583	582.7	congruent	Block3	congruent/STIM_016.jpg	99
3181.501	0.545	544.7	congruent	Block3	congruent/STIM_016.jpg	99
3185.227	0.549	548.9	congruent	Block3	congruent/STIM_016.jpg	100
3189.507	0.561	561.0	congruent	Block3	congruent/STIM_017.jpg	99
3194.056	0.78	779.5	congruent	Block3	congruent/STIM_017.jpg	100
3198.226	0.613	613.2	congruent	Block3	congruent/STIM_017.jpg	99
3201.728	0.57	569.9	congruent	Block3	congruent/STIM_017.jpg	100
3204.799	0.703	703.0	congruent	Block3	congruent/STIM_017.jpg	99
3208.818	0.364	363.7	congruent	Block3	congruent/STIM_018.jpg	100
3212.838	0.547	546.8	congruent	Block3	congruent/STIM_018.jpg	100
3215.52	0.505	504.9	congruent	Block3	congruent/STIM_018.jpg	99
3218.9	0.612	611.5	congruent	Block3	congruent/STIM_018.jpg	100
3221.827	0.541	541.4	congruent	Block3	congruent/STIM_018.jpg	99
3224.876	0.614	614.3	congruent	Block3	congruent/STIM_019.jpg	100
3228.961	0.786	785.9	congruent	Block3	congruent/STIM_019.jpg	99
3233.597	0.845	845.4	congruent	Block3	congruent/STIM_019.jpg	100
3238.242	0.698	697.6	congruent	Block3	congruent/STIM_019.jpg	99
3241.602	0.63	630.0	congruent	Block3	congruent/STIM_019.jpg	99
3244.512	0.822	822.4	congruent	Block3	congruent/STIM_020.jpg	100
3247.7	0.538	538.2	congruent	Block3	congruent/STIM_020.jpg	100
3251.172	0.697	697.4	congruent	Block3	congruent/STIM_020.jpg	99
3254.571	0.455	454.8	congruent	Block3	congruent/STIM_020.jpg	100
3258.378	0.54	540.4	congruent	Block3	congruent/STIM_020.jpg	99
3262.457	0.754	753.9	congruent	Block3	congruent/STIM_021.jpg	100
3267.017	0.534	534.0	congruent	Block3	congruent/STIM_021.jpg	100
3270.214	0.454	454.0	congruent	Block3	congruent/STIM_021.jpg	100
3273.879	0.44	440.1	congruent	Block3	congruent/STIM_021.jpg	99
3277.65	0.744	744.2	congruent	Block3	congruent/STIM_021.jpg	99
3280.972	0.541	541.0	congruent	Block3	congruent/STIM_022.jpg	100
3284.132	0.567	567.3	congruent	Block3	congruent/STIM_022.jpg	100
3287.71	0.57	569.6	congruent	Block3	congruent/STIM_022.jpg	99
3292.09	0.428	427.6	congruent	Block3	congruent/STIM_022.jpg	99
3296.158	0.573	572.9	congruent	Block3	congruent/STIM_022.jpg	100
3299.327	0.497	497.3	congruent	Block3	congruent/STIM_023.jpg	99
3302.882	0.54	540.4	congruent	Block3	congruent/STIM_023.jpg	99
3305.944	0.652	652.4	congruent	Block3	congruent/STIM_023.jpg	100
3308.599	0.759	759.2	congruent	Block3	congruent/STIM_023.jpg	100
3312.442	0.426	426.2	congruent	Block3	congruent/STIM_023.jpg	100
3315.769	0.778	778.4	congruent	Block3	congruent/STIM_024.jpg	99
3320.054	0.503	502.6	congruent	Block3	congruent/STIM_024.jpg	99
3323.745	0.636	635.5	congruent	Block3	congruent/STIM_024.jpg	99
3326.979	0.849	849.3	congruent	Block3	congruent/STIM_024.jpg	100
3331.578	0.578	577.8	congruent	Block3	congruent/STIM_024.jpg	99
3335.183	0.649	648.7	congruent	Block3	congruent/STIM_025.jpg	100
3338.401	0.564	564.1	congruent	Block3	congruent/STIM_025.jpg	100
3341.647	0.63	629.7	congruent	Block3	congruent/STIM_025.jpg	99
3344.763	0.791	790.6	congruent	Block3	congruent/STIM_025.jpg	100
3349.188	0.898	897.5	congruent	Block3	congruent/STIM_025.jpg	100
3353.276	0.552	552.1	congruent	Block3	congruent/STIM_026.jpg	100
3356.996	0.474	474.0	congruent	Block3	congruent/STIM_026.jpg	100
3360.203	0.891	890.9	congruent	Block3	congruent/STIM_026.jpg	100
3363.115	0.73	729.6	congruent	Block3	congruent/STIM_026.jpg	100
3366.551	0.554	553.7	congruent	Block3	congruent/STIM_026.jpg	100
3369.243	0.775	774.6	congruent	Block3	congruent/STIM_027.jpg	100
3372.905	0.57	570.0	congruent	Block3	congruent/STIM_027.jpg	99
3377.141	0.742	741.6	congruent	Block3	congruent/STIM_027.jpg	100
3380.341	0.579	579.4	congruent	Block3	congruent/STIM_027.jpg	99
3383.771	0.694	694.5	congruent	Block3	congruent/STIM_027.jpg	99
3387.641	0.5	499.5	congruent	Block3	congruent/STIM_028.jpg	100
3391.285	0.619	619.0	congruent	Block3	congruent/STIM_028.jpg	100
3395.512	0.796	795.7	congruent	Block3	congruent/STIM_028.jpg	99
3399.904	0.478	478.5	congruent	Block3	congruent/STIM_028.jpg	100
3403.04	0.736	736.1	congruent	Block3	congruent/STIM_028.jpg	100
3407.707	0.767	767.1	congruent	Block3	congruent/STIM_029.jpg	100
3411.163	0.503	503.0	congruent	Block3	congruent/STIM_029.jpg	100
3415.034	0.42	419.7	congruent	Block3	congruent/STIM_029.jpg	99
3417.678	0.794	793.7	congruent	Block3	congruent/STIM_029.jpg	100
3420.632	0.545	544.6	congruent	Block3	congruent/STIM_029.jpg	100
