onset	duration	accuracy_binary	trial_type	learning_stage	stimulus
0.0	0.993	1	incongruent	Block1	incongruent/STIM_000.jpg
4.844	0.848	1	incongruent	Block1	incongruent/STIM_000.jpg
8.638	1.147	1	incongruent	Block1	incongruent/STIM_000.jpg
13.687	0.935	1	incongruent	Block1	incongruent/STIM_000.jpg
17.823	0.589	1	incongruent	Block1	incongruent/STIM_000.jpg
22.31	0.837	1	incongruent	Block1	incongruent/STIM_001.jpg
25.872	1.411	1	incongruent	Block1	incongruent/STIM_001.jpg
30.766	1.014	1	incongruent	Block1	incongruent/STIM_001.jpg
35.632	1.085	1	incongruent	Block1	incongruent/STIM_001.jpg
39.693	0.886	1	incongruent	Block1	incongruent/STIM_001.jpg
43.934	1.507	1	incongruent	Block1	incongruent/STIM_002.jpg
49.432	1.423	1	incongruent	Block1	incongruent/STIM_002.jpg
53.97	0.694	1	incongruent	Block1	incongruent/STIM_002.jpg
56.954	1.256	1	incongruent	Block1	incongruent/STIM_002.jpg
60.909	1.039	1	incongruent	Block1	incongruent/STIM_002.jpg
64.262	1.449	1	incongruent	Block1	incongruent/STIM_003.jpg
67.728	1.17	1	incongruent	Block1	incongruent/STIM_003.jpg
72.887	0.967	1	incongruent	Block1	incongruent/STIM_003.jpg
75.961	1.144	1	incongruent	Block1	incongruent/STIM_003.jpg
80.11	0.84	1	incongruent	Block1	incongruent/STIM_003.jpg
83.525	1.364	1	incongruent	Block1	incongruent/STIM_004.jpg
88.21	1.154	1	incongruent	Block1	incongruent/STIM_004.jpg
91.585	1.14	1	incongruent	Block1	incongruent/STIM_004.jpg
94.82	0.849	1	incongruent	Block1	incongruent/STIM_004.jpg
98.658	0.708	1	incongruent	Block1	incongruent/STIM_004.jpg
103.246	1.295	1	incongruent	Block1	incongruent/STIM_005.jpg
107.542	1.379	1	incongruent	Block1	incongruent/STIM_005.jpg
112.622	1.036	1	incongruent	Block1	incongruent/STIM_005.jpg
115.676	0.917	1	incongruent	Block1	incongruent/STIM_005.jpg
118.731	1.121	1	incongruent	Block1	incongruent/STIM_005.jpg
122.377	0.987	1	incongruent	Block1	incongruent/STIM_006.jpg
125.505	0.924	1	incongruent	Block1	incongruent/STIM_006.jpg
129.251	0.72	1	incongruent	Block1	incongruent/STIM_006.jpg
133.345	0.847	1	incongruent	Block1	incongruent/STIM_006.jpg
136.291	0.675	1	incongruent	Block1	incongruent/STIM_006.jpg
139.52	0.925	1	incongruent	Block1	incongruent/STIM_007.jpg
143.554	0.967	1	incongruent	Block1	incongruent/STIM_007.jpg
147.45	0.96	1	incongruent	Block1	incongruent/STIM_007.jpg
150.818	0.998	1	incongruent	Block1	incongruent/STIM_007.jpg
155.75	1.142	1	incongruent	Block1	incongruent/STIM_007.jpg
160.847	1.1	1	incongruent	Block1	incongruent/STIM_008.jpg
164.707	0.981	1	incongruent	Block1	incongruent/STIM_008.jpg
168.2	1.289	1	incongruent	Block1	incongruent/STIM_008.jpg
171.871	0.734	1	incongruent	Block1	incongruent/STIM_008.jpg
175.467	1.041	1	incongruent	Block1	incongruent/STIM_008.jpg
178.779	0.708	1	incongruent	Block1	incongruent/STIM_009.jpg
182.957	0.744	1	incongruent	Block1	incongruent/STIM_009.jpg
186.716	1.094	1	incongruent	Block1	incongruent/STIM_009.jpg
191.515	0.849	1	incongruent	Block1	incongruent/STIM_009.jpg
196.332	0.699	1	incongruent	Block1	incongruent/STIM_009.jpg
199.156	1.081	1	incongruent	Block1	incongruent/STIM_010.jpg
203.309	0.974	1	incongruent	Block1	incongruent/STIM_010.jpg
208.181	1.104	1	incongruent	Block1	incongruent/STIM_010.jpg
211.288	1.035	1	incongruent	Block1	incongruent/STIM_010.jpg
214.536	1.122	1	incongruent	Block1	incongruent/STIM_010.jpg
217.779	0.746	1	incongruent	Block1	incongruent/STIM_011.jpg
221.505	1.306	1	incongruent	Block1	incongruent/STIM_011.jpg
225.09	0.938	1	incongruent	Block1	incongruent/STIM_011.jpg
228.108	1.164	1	incongruent	Block1	incongruent/STIM_011.jpg
232.79	0.918	1	incongruent	Block1	incongruent/STIM_011.jpg
237.121	1.473	1	incongruent	Block1	incongruent/STIM_012.jpg
241.618	1.292	1	incongruent	Block1	incongruent/STIM_012.jpg
245.183	0.866	1	incongruent	Block1	incongruent/STIM_012.jpg
248.795	0.963	1	incongruent	Block1	incongruent/STIM_012.jpg
253.266	0.813	1	incongruent	Block1	incongruent/STIM_012.jpg
257.386	1.458	1	incongruent	Block1	incongruent/STIM_013.jpg
260.989	0.731	1	incongruent	Block1	incongruent/STIM_013.jpg
264.641	0.85	1	incongruent	Block1	incongruent/STIM_013.jpg
268.184	1.121	1	incongruent	Block1	incongruent/STIM_013.jpg
271.439	1.09	1	incongruent	Block1	incongruent/STIM_013.jpg
275.291	1.494	1	incongruent	Block1	incongruent/STIM_014.jpg
280.395	1.158	1	incongruent	Block1	incongruent/STIM_014.jpg
284.862	0.967	1	incongruent	Block1	incongruent/STIM_014.jpg
289.772	0.747	1	incongruent	Block1	incongruent/STIM_014.jpg
292.673	1.048	1	incongruent	Block1	incongruent/STIM_014.jpg
296.599	1.079	1	incongruent	Block1	incongruent/STIM_015.jpg
301.384	1.234	1	incongruent	Block1	incongruent/STIM_015.jpg
306.271	1.169	1	incongruent	Block1	incongruent/STIM_015.jpg
310.391	1.068	1	incongruent	Block1	incongruent/STIM_015.jpg
314.301	1.203	1	incongruent	Block1	incongruent/STIM_015.jpg
317.78	0.834	1	incongruent	Block1	incongruent/STIM_016.jpg
322.375	0.935	1	incongruent	Block1	incongruent/STIM_016.jpg
327.191	0.781	1	incongruent	Block1	incongruent/STIM_016.jpg
331.918	1.062	1	incongruent	Block1	incongruent/STIM_016.jpg
335.488	1.178	1	incongruent	Block1	incongruent/STIM_016.jpg
340.188	1.417	1	incongruent	Block1	incongruent/STIM_017.jpg
343.726	1.169	1	incongruent	Block1	incongruent/STIM_017.jpg
348.156	1.044	1	incongruent	Block1	incongruent/STIM_017.jpg
351.337	1.274	1	incongruent	Block1	incongruent/STIM_017.jpg
355.126	0.851	1	incongruent	Block1	incongruent/STIM_017.jpg
359.43	1.18	1	incongruent	Block1	incongruent/STIM_018.jpg
362.85	1.393	1	incongruent	Block1	incongruent/STIM_018.jpg
367.837	1.136	1	incongruent	Block1	incongruent/STIM_018.jpg
371.332	1.129	1	incongruent	Block1	incongruent/STIM_018.jpg
375.123	0.868	1	incongruent	Block1	incongruent/STIM_018.jpg
379.059	1.234	1	incongruent	Block1	incongruent/STIM_019.jpg
383.595	0.722	1	incongruent	Block1	incongruent/STIM_019.jpg
387.85	0.657	1	incongruent	Block1	incongruent/STIM_019.jpg
391.995	1.042	1	incongruent	Block1	incongruent/STIM_019.jpg
396.654	1.2	1	incongruent	Block1	incongruent/STIM_019.jpg
401.244	1.25	1	incongruent	Block1	incongruent/STIM_020.jpg
406.205	0.855	1	incongruent	Block1	incongruent/STIM_020.jpg
409.564	1.009	1	incongruent	Block1	incongruent/STIM_020.jpg
414.305	1.105	1	incongruent	Block1	incongruent/STIM_020.jpg
417.572	0.642	1	incongruent	Block1	incongruent/STIM_020.jpg
420.27	0.994	1	incongruent	Block1	incongruent/STIM_021.jpg
424.143	0.938	1	incongruent	Block1	incongruent/STIM_021.jpg
427.29	0.93	1	incongruent	Block1	incongruent/STIM_021.jpg
431.357	1.182	1	incongruent	Block1	incongruent/STIM_021.jpg
434.687	1.073	1	incongruent	Block1	incongruent/STIM_021.jpg
438.485	1.373	1	incongruent	Block1	incongruent/STIM_022.jpg
442.757	0.749	1	incongruent	Block1	incongruent/STIM_022.jpg
446.539	1.29	1	incongruent	Block1	incongruent/STIM_022.jpg
451.353	0.922	1	incongruent	Block1	incongruent/STIM_022.jpg
455.951	0.954	1	incongruent	Block1	incongruent/STIM_022.jpg
460.156	0.907	1	incongruent	Block1	incongruent/STIM_023.jpg
463.722	1.166	1	incongruent	Block1	incongruent/STIM_023.jpg
468.397	0.636	1	incongruent	Block1	incongruent/STIM_023.jpg
472.688	0.967	1	incongruent	Block1	incongruent/STIM_023.jpg
477.325	0.575	1	incongruent	Block1	incongruent/STIM_023.jpg
480.675	0.789	1	incongruent	Block1	incongruent/STIM_024.jpg
484.667	1.358	1	incongruent	Block1	incongruent/STIM_024.jpg
489.58	1.149	1	incongruent	Block1	incongruent/STIM_024.jpg
493.265	0.672	1	incongruent	Block1	incongruent/STIM_024.jpg
496.338	1.003	1	incongruent	Block1	incongruent/STIM_024.jpg
500.207	1.095	1	incongruent	Block1	incongruent/STIM_025.jpg
503.495	0.828	1	incongruent	Block1	incongruent/STIM_025.jpg
507.173	1.016	1	incongruent	Block1	incongruent/STIM_025.jpg
511.083	0.627	1	incongruent	Block1	incongruent/STIM_025.jpg
514.767	0.685	1	incongruent	Block1	incongruent/STIM_025.jpg
518.952	1.503	1	incongruent	Block1	incongruent/STIM_026.jpg
523.263	1.104	1	incongruent	Block1	incongruent/STIM_026.jpg
527.956	1.065	1	incongruent	Block1	incongruent/STIM_026.jpg
531.855	1.273	1	incongruent	Block1	incongruent/STIM_026.jpg
535.745	0.947	1	incongruent	Block1	incongruent/STIM_026.jpg
539.214	1.113	1	incongruent	Block1	incongruent/STIM_027.jpg
543.388	1.211	1	incongruent	Block1	incongruent/STIM_027.jpg
547.089	0.779	1	incongruent	Block1	incongruent/STIM_027.jpg
551.144	0.983	1	incongruent	Block1	incongruent/STIM_027.jpg
555.971	0.669	1	incongruent	Block1	incongruent/STIM_027.jpg
560.229	1.504	1	incongruent	Block1	incongruent/STIM_028.jpg
564.178	0.944	1	incongruent	Block1	incongruent/STIM_028.jpg
568.291	0.645	1	incongruent	Block1	incongruent/STIM_028.jpg
572.716	0.865	1	incongruent	Block1	incongruent/STIM_028.jpg
576.199	1.144	1	incongruent	Block1	incongruent/STIM_028.jpg
581.073	1.228	1	incongruent	Block1	incongruent/STIM_029.jpg
585.373	1.338	1	incongruent	Block1	incongruent/STIM_029.jpg
589.245	1.065	1	incongruent	Block1	incongruent/STIM_029.jpg
593.725	0.66	1	incongruent	Block1	incongruent/STIM_029.jpg
596.645	1.173	1	incongruent	Block1	incongruent/STIM_029.jpg
600.079	0.883	1	congruent	Block1	congruent/STIM_000.jpg
604.508	0.731	1	congruent	Block1	congruent/STIM_000.jpg
608.796	0.75	1	congruent	Block1	congruent/STIM_000.jpg
612.55	0.798	1	congruent	Block1	congruent/STIM_000.jpg
617.342	0.874	1	congruent	Block1	congruent/STIM_000.jpg
621.907	0.778	1	congruent	Block1	congruent/STIM_001.jpg
625.493	0.829	1	congruent	Block1	congruent/STIM_001.jpg
629.528	0.574	1	congruent	Block1	congruent/STIM_001.jpg
633.809	0.571	1	congruent	Block1	congruent/STIM_001.jpg
637.848	0.55	1	congruent	Block1	congruent/STIM_001.jpg
640.848	0.811	1	congruent	Block1	congruent/STIM_002.jpg
645.228	0.868	1	congruent	Block1	congruent/STIM_002.jpg
649.39	0.845	1	congruent	Block1	congruent/STIM_002.jpg
652.459	0.768	1	congruent	Block1	congruent/STIM_002.jpg
657.09	0.537	1	congruent	Block1	congruent/STIM_002.jpg
660.158	0.839	1	congruent	Block1	congruent/STIM_003.jpg
663.5	0.614	1	congruent	Block1	congruent/STIM_003.jpg
668.1	0.698	1	congruent	Block1	congruent/STIM_003.jpg
671.741	0.865	1	congruent	Block1	congruent/STIM_003.jpg
675.872	0.687	1	congruent	Block1	congruent/STIM_003.jpg
679.36	0.831	1	congruent	Block1	congruent/STIM_004.jpg
682.492	0.708	1	congruent	Block1	congruent/STIM_004.jpg
685.808	0.679	1	congruent	Block1	congruent/STIM_004.jpg
690.431	0.625	1	congruent	Block1	congruent/STIM_004.jpg
693.939	0.526	1	congruent	Block1	congruent/STIM_004.jpg
698.455	0.578	1	congruent	Block1	congruent/STIM_005.jpg
701.102	0.828	1	congruent	Block1	congruent/STIM_005.jpg
704.652	0.637	1	congruent	Block1	congruent/STIM_005.jpg
708.679	0.634	1	congruent	Block1	congruent/STIM_005.jpg
712.113	0.628	1	congruent	Block1	congruent/STIM_005.jpg
715.067	0.598	1	congruent	Block1	congruent/STIM_006.jpg
719.593	0.673	1	congruent	Block1	congruent/STIM_006.jpg
724.184	0.65	1	congruent	Block1	congruent/STIM_006.jpg
727.127	0.87	1	congruent	Block1	congruent/STIM_006.jpg
731.951	0.659	1	congruent	Block1	congruent/STIM_006.jpg
734.789	0.684	1	congruent	Block1	congruent/STIM_007.jpg
738.272	0.804	1	congruent	Block1	congruent/STIM_007.jpg
743.032	0.628	1	congruent	Block1	congruent/STIM_007.jpg
745.75	0.582	1	congruent	Block1	congruent/STIM_007.jpg
749.146	0.821	1	congruent	Block1	congruent/STIM_007.jpg
752.455	0.56	1	congruent	Block1	congruent/STIM_008.jpg
755.926	0.531	1	congruent	Block1	congruent/STIM_008.jpg
760.048	0.791	1	congruent	Block1	congruent/STIM_008.jpg
764.51	0.791	1	congruent	Block1	congruent/STIM_008.jpg
767.417	0.506	1	congruent	Block1	congruent/STIM_008.jpg
770.643	0.661	1	congruent	Block1	congruent/STIM_009.jpg
773.398	0.522	1	congruent	Block1	congruent/STIM_009.jpg
776.126	0.698	1	congruent	Block1	congruent/STIM_009.jpg
779.925	0.575	1	congruent	Block1	congruent/STIM_009.jpg
783.187	0.654	1	congruent	Block1	congruent/STIM_009.jpg
787.781	0.61	1	congruent	Block1	congruent/STIM_010.jpg
790.891	0.784	1	congruent	Block1	congruent/STIM_010.jpg
795.118	0.593	0	congruent	Block1	congruent/STIM_010.jpg
799.308	0.806	1	congruent	Block1	congruent/STIM_010.jpg
803.923	0.504	1	congruent	Block1	congruent/STIM_010.jpg
806.97	0.521	1	congruent	Block1	congruent/STIM_011.jpg
810.984	0.692	1	congruent	Block1	congruent/STIM_011.jpg
814.236	0.602	1	congruent	Block1	congruent/STIM_011.jpg
818.784	0.73	1	congruent	Block1	congruent/STIM_011.jpg
822.872	0.816	1	congruent	Block1	congruent/STIM_011.jpg
826.68	0.692	1	congruent	Block1	congruent/STIM_012.jpg
830.411	0.871	1	congruent	Block1	congruent/STIM_012.jpg
834.051	0.542	0	congruent	Block1	congruent/STIM_012.jpg
837.016	0.815	1	congruent	Block1	congruent/STIM_012.jpg
840.501	0.663	1	congruent	Block1	congruent/STIM_012.jpg
844.041	0.844	1	congruent	Block1	congruent/STIM_013.jpg
847.661	0.761	1	congruent	Block1	congruent/STIM_013.jpg
850.883	0.721	1	congruent	Block1	congruent/STIM_013.jpg
854.509	0.573	1	congruent	Block1	congruent/STIM_013.jpg
857.226	0.536	1	congruent	Block1	congruent/STIM_013.jpg
861.089	0.684	1	congruent	Block1	congruent/STIM_014.jpg
865.178	0.819	1	congruent	Block1	congruent/STIM_014.jpg
868.203	0.634	1	congruent	Block1	congruent/STIM_014.jpg
870.92	0.517	1	congruent	Block1	congruent/STIM_014.jpg
873.967	0.597	1	congruent	Block1	congruent/STIM_014.jpg
876.813	0.64	1	congruent	Block1	congruent/STIM_015.jpg
880.958	0.898	1	congruent	Block1	congruent/STIM_015.jpg
885.758	0.84	1	congruent	Block1	congruent/STIM_015.jpg
889.905	0.835	1	congruent	Block1	congruent/STIM_015.jpg
892.749	0.772	1	congruent	Block1	congruent/STIM_015.jpg
896.707	0.778	1	congruent	Block1	congruent/STIM_016.jpg
900.607	0.69	1	congruent	Block1	congruent/STIM_016.jpg
903.942	0.593	1	congruent	Block1	congruent/STIM_016.jpg
906.858	0.829	1	congruent	Block1	congruent/STIM_016.jpg
910.871	0.858	1	congruent	Block1	congruent/STIM_016.jpg
914.891	0.787	1	congruent	Block1	congruent/STIM_017.jpg
918.427	0.516	1	congruent	Block1	congruent/STIM_017.jpg
920.986	0.594	1	congruent	Block1	congruent/STIM_017.jpg
923.697	0.795	1	congruent	Block1	congruent/STIM_017.jpg
927.945	0.9	1	congruent	Block1	congruent/STIM_017.jpg
931.604	0.817	1	congruent	Block1	congruent/STIM_018.jpg
935.75	0.705	1	congruent	Block1	congruent/STIM_018.jpg
939.47	0.536	1	congruent	Block1	congruent/STIM_018.jpg
942.579	0.59	1	congruent	Block1	congruent/STIM_018.jpg
945.492	0.531	1	congruent	Block1	congruent/STIM_018.jpg
948.048	0.676	1	congruent	Block1	congruent/STIM_019.jpg
951.121	0.867	1	congruent	Block1	congruent/STIM_019.jpg
955.695	0.855	1	congruent	Block1	congruent/STIM_019.jpg
959.657	0.618	1	congruent	Block1	congruent/STIM_019.jpg
962.396	0.825	1	congruent	Block1	congruent/STIM_019.jpg
965.787	0.589	1	congruent	Block1	congruent/STIM_020.jpg
969.893	0.595	1	congruent	Block1	congruent/STIM_020.jpg
973.071	0.794	1	congruent	Block1	congruent/STIM_020.jpg
976.229	0.844	1	congruent	Block1	congruent/STIM_020.jpg
980.79	0.575	1	congruent	Block1	congruent/STIM_020.jpg
984.801	0.843	1	congruent	Block1	congruent/STIM_021.jpg
987.847	0.785	1	congruent	Block1	congruent/STIM_021.jpg
992.369	0.719	1	congruent	Block1	congruent/STIM_021.jpg
996.666	0.798	1	congruent	Block1	congruent/STIM_021.jpg
999.688	0.63	1	congruent	Block1	congruent/STIM_021.jpg
1002.357	0.869	1	congruent	Block1	congruent/STIM_022.jpg
1005.623	0.843	1	congruent	Block1	congruent/STIM_022.jpg
1008.812	0.635	1	congruent	Block1	congruent/STIM_022.jpg
1012.221	0.771	1	congruent	Block1	congruent/STIM_022.jpg
1015.378	0.844	1	congruent	Block1	congruent/STIM_022.jpg
1019.63	0.56	1	congruent	Block1	congruent/STIM_023.jpg
1022.411	0.713	1	congruent	Block1	congruent/STIM_023.jpg
1026.514	0.829	1	congruent	Block1	congruent/STIM_023.jpg
1031.258	0.696	1	congruent	Block1	congruent/STIM_023.jpg
1035.115	0.598	1	congruent	Block1	congruent/STIM_023.jpg
1039.521	0.664	1	congruent	Block1	congruent/STIM_024.jpg
1042.681	0.701	1	congruent	Block1	congruent/STIM_024.jpg
1045.572	0.81	1	congruent	Block1	congruent/STIM_024.jpg
1048.843	0.798	1	congruent	Block1	congruent/STIM_024.jpg
1053.218	0.882	1	congruent	Block1	congruent/STIM_024.jpg
1057.505	0.658	1	congruent	Block1	congruent/STIM_025.jpg
1060.392	0.804	1	congruent	Block1	congruent/STIM_025.jpg
1063.999	0.83	1	congruent	Block1	congruent/STIM_025.jpg
1067.05	0.728	1	congruent	Block1	congruent/STIM_025.jpg
1071.773	0.802	1	congruent	Block1	congruent/STIM_025.jpg
1076.104	0.747	1	congruent	Block1	congruent/STIM_026.jpg
1080.234	0.512	1	congruent	Block1	congruent/STIM_026.jpg
1083.333	0.73	1	congruent	Block1	congruent/STIM_026.jpg
1086.419	0.892	1	congruent	Block1	congruent/STIM_026.jpg
1090.391	0.905	1	congruent	Block1	congruent/STIM_026.jpg
1093.339	0.871	1	congruent	Block1	congruent/STIM_027.jpg
1098.098	0.866	1	congruent	Block1	congruent/STIM_027.jpg
1101.994	0.805	1	congruent	Block1	congruent/STIM_027.jpg
1105.769	0.826	1	congruent	Block1	congruent/STIM_027.jpg
1109.566	0.778	1	congruent	Block1	congruent/STIM_027.jpg
1113.938	0.573	1	congruent	Block1	congruent/STIM_028.jpg
1117.822	0.69	1	congruent	Block1	congruent/STIM_028.jpg
1120.716	0.569	1	congruent	Block1	congruent/STIM_028.jpg
1124.687	0.538	1	congruent	Block1	congruent/STIM_028.jpg
1128.544	0.556	1	congruent	Block1	congruent/STIM_028.jpg
1132.128	0.781	1	congruent	Block1	congruent/STIM_029.jpg
1134.923	0.677	1	congruent	Block1	congruent/STIM_029.jpg
1137.782	0.644	1	congruent	Block1	congruent/STIM_029.jpg
1141.014	0.603	1	congruent	Block1	congruent/STIM_029.jpg
1145.115	0.705	1	congruent	Block1	congruent/STIM_029.jpg
1148.619	1.035	1	incongruent	Block2	incongruent/STIM_000.jpg
1152.956	0.739	1	incongruent	Block2	incongruent/STIM_000.jpg
1157.653	0.8	1	incongruent	Block2	incongruent/STIM_000.jpg
1160.843	0.618	1	incongruent	Block2	incongruent/STIM_000.jpg
1163.992	0.924	1	incongruent	Block2	incongruent/STIM_000.jpg
1167.76	1.021	1	incongruent	Block2	incongruent/STIM_001.jpg
1172.667	0.797	1	incongruent	Block2	incongruent/STIM_001.jpg
1176.174	0.545	1	incongruent	Block2	incongruent/STIM_001.jpg
1179.203	0.874	1	incongruent	Block2	incongruent/STIM_001.jpg
1183.891	0.646	1	incongruent	Block2	incongruent/STIM_001.jpg
1187.125	0.976	1	incongruent	Block2	incongruent/STIM_002.jpg
1190.177	1.139	1	incongruent	Block2	incongruent/STIM_002.jpg
1193.54	0.721	1	incongruent	Block2	incongruent/STIM_002.jpg
1196.801	0.941	1	incongruent	Block2	incongruent/STIM_002.jpg
1199.988	0.647	1	incongruent	Block2	incongruent/STIM_002.jpg
1204.407	0.943	1	incongruent	Block2	incongruent/STIM_003.jpg
1207.737	0.969	1	incongruent	Block2	incongruent/STIM_003.jpg
1211.128	1.118	1	incongruent	Block2	incongruent/STIM_003.jpg
1216.1	0.801	1	incongruent	Block2	incongruent/STIM_003.jpg
1219.841	0.726	1	incongruent	Block2	incongruent/STIM_003.jpg
1223.422	1.143	1	incongruent	Block2	incongruent/STIM_004.jpg
1227.566	0.66	1	incongruent	Block2	incongruent/STIM_004.jpg
1231.781	0.91	1	incongruent	Block2	incongruent/STIM_004.jpg
1236.359	0.895	1	incongruent	Block2	incongruent/STIM_004.jpg
1240.608	0.742	1	incongruent	Block2	incongruent/STIM_004.jpg
1243.36	0.798	1	incongruent	Block2	incongruent/STIM_005.jpg
1246.915	0.877	1	incongruent	Block2	incongruent/STIM_005.jpg
1249.978	0.621	1	incongruent	Block2	incongruent/STIM_005.jpg
1253.201	0.622	1	incongruent	Block2	incongruent/STIM_005.jpg
1257.306	0.764	1	incongruent	Block2	incongruent/STIM_005.jpg
1260.492	0.707	1	incongruent	Block2	incongruent/STIM_006.jpg
1265.004	0.767	1	incongruent	Block2	incongruent/STIM_006.jpg
1268.072	0.687	1	incongruent	Block2	incongruent/STIM_006.jpg
1272.37	1.03	1	incongruent	Block2	incongruent/STIM_006.jpg
1277.236	0.827	1	incongruent	Block2	incongruent/STIM_006.jpg
1281.16	1.037	1	incongruent	Block2	incongruent/STIM_007.jpg
1284.697	0.893	1	incongruent	Block2	incongruent/STIM_007.jpg
1288.597	0.874	1	incongruent	Block2	incongruent/STIM_007.jpg
1293.042	0.704	1	incongruent	Block2	incongruent/STIM_007.jpg
1296.754	1.008	1	incongruent	Block2	incongruent/STIM_007.jpg
1300.518	0.965	1	incongruent	Block2	incongruent/STIM_008.jpg
1303.647	1.061	1	incongruent	Block2	incongruent/STIM_008.jpg
1307.71	1.039	1	incongruent	Block2	incongruent/STIM_008.jpg
1312.523	0.929	1	incongruent	Block2	incongruent/STIM_008.jpg
1317.398	0.868	1	incongruent	Block2	incongruent/STIM_008.jpg
1320.911	1.015	1	incongruent	Block2	incongruent/STIM_009.jpg
1324.688	1.109	1	incongruent	Block2	incongruent/STIM_009.jpg
1328.803	1.039	1	incongruent	Block2	incongruent/STIM_009.jpg
1333.493	0.582	1	incongruent	Block2	incongruent/STIM_009.jpg
1336.294	1.044	1	incongruent	Block2	incongruent/STIM_009.jpg
1341.167	0.926	1	incongruent	Block2	incongruent/STIM_010.jpg
1344.794	1.172	0	incongruent	Block2	incongruent/STIM_010.jpg
1349.87	0.879	1	incongruent	Block2	incongruent/STIM_010.jpg
1354.121	0.936	1	incongruent	Block2	incongruent/STIM_010.jpg
1358.712	0.818	1	incongruent	Block2	incongruent/STIM_010.jpg
1363.208	0.769	1	incongruent	Block2	incongruent/STIM_011.jpg
1367.903	0.783	1	incongruent	Block2	incongruent/STIM_011.jpg
1372.413	0.699	1	incongruent	Block2	incongruent/STIM_011.jpg
1376.871	0.873	1	incongruent	Block2	incongruent/STIM_011.jpg
1380.572	0.921	1	incongruent	Block2	incongruent/STIM_011.jpg
1384.143	1.077	1	incongruent	Block2	incongruent/STIM_012.jpg
1388.204	0.725	1	incongruent	Block2	incongruent/STIM_012.jpg
1391.18	0.9	1	incongruent	Block2	incongruent/STIM_012.jpg
1395.157	0.641	1	incongruent	Block2	incongruent/STIM_012.jpg
1399.572	0.607	1	incongruent	Block2	incongruent/STIM_012.jpg
1403.363	0.724	1	incongruent	Block2	incongruent/STIM_013.jpg
1407.11	0.634	1	incongruent	Block2	incongruent/STIM_013.jpg
1410.929	0.821	1	incongruent	Block2	incongruent/STIM_013.jpg
1415.048	0.525	1	incongruent	Block2	incongruent/STIM_013.jpg
1418.212	0.731	1	incongruent	Block2	incongruent/STIM_013.jpg
1421.503	1.213	1	incongruent	Block2	incongruent/STIM_014.jpg
1426.382	0.982	1	incongruent	Block2	incongruent/STIM_014.jpg
1431.007	0.98	1	incongruent	Block2	incongruent/STIM_014.jpg
1435.896	0.722	1	incongruent	Block2	incongruent/STIM_014.jpg
1438.782	0.844	1	incongruent	Block2	incongruent/STIM_014.jpg
1442.433	0.965	1	incongruent	Block2	incongruent/STIM_015.jpg
1447.153	0.914	1	incongruent	Block2	incongruent/STIM_015.jpg
1450.526	1.062	1	incongruent	Block2	incongruent/STIM_015.jpg
1454.373	0.679	1	incongruent	Block2	incongruent/STIM_015.jpg
1458.028	0.757	1	incongruent	Block2	incongruent/STIM_015.jpg
1462.592	0.626	1	incongruent	Block2	incongruent/STIM_016.jpg
1466.905	0.721	1	incongruent	Block2	incongruent/STIM_016.jpg
1470.108	0.898	1	incongruent	Block2	incongruent/STIM_016.jpg
1474.294	0.64	1	incongruent	Block2	incongruent/STIM_016.jpg
1477.504	0.715	1	incongruent	Block2	incongruent/STIM_016.jpg
1480.468	0.623	1	incongruent	Block2	incongruent/STIM_017.jpg
1484.262	1.206	1	incongruent	Block2	incongruent/STIM_017.jpg
1488.876	1.055	1	incongruent	Block2	incongruent/STIM_017.jpg
1493.502	0.715	1	incongruent	Block2	incongruent/STIM_017.jpg
1497.202	0.647	1	incongruent	Block2	incongruent/STIM_017.jpg
1500.999	0.732	1	incongruent	Block2	incongruent/STIM_018.jpg
1504.333	0.585	0	incongruent	Block2	incongruent/STIM_018.jpg
1508.791	0.889	1	incongruent	Block2	incongruent/STIM_018.jpg
1512.62	0.684	1	incongruent	Block2	incongruent/STIM_018.jpg
1516.748	0.588	1	incongruent	Block2	incongruent/STIM_018.jpg
1520.605	0.971	1	incongruent	Block2	incongruent/STIM_019.jpg
1525.184	0.906	1	incongruent	Block2	incongruent/STIM_019.jpg
1528.954	0.926	1	incongruent	Block2	incongruent/STIM_019.jpg
1531.921	1.055	1	incongruent	Block2	incongruent/STIM_019.jpg
1535.016	0.631	1	incongruent	Block2	incongruent/STIM_019.jpg
1538.154	0.789	1	incongruent	Block2	incongruent/STIM_020.jpg
1541.673	0.909	1	incongruent	Block2	incongruent/STIM_020.jpg
1545.041	0.805	1	incongruent	Block2	incongruent/STIM_020.jpg
1549.227	0.829	1	incongruent	Block2	incongruent/STIM_020.jpg
1552.265	1.004	1	incongruent	Block2	incongruent/STIM_020.jpg
1556.804	0.651	1	incongruent	Block2	incongruent/STIM_021.jpg
1560.118	0.761	1	incongruent	Block2	incongruent/STIM_021.jpg
1564.04	0.692	1	incongruent	Block2	incongruent/STIM_021.jpg
1567.312	0.884	1	incongruent	Block2	incongruent/STIM_021.jpg
1571.679	0.799	1	incongruent	Block2	incongruent/STIM_021.jpg
1574.768	1.216	1	incongruent	Block2	incongruent/STIM_022.jpg
1578.875	1.095	1	incongruent	Block2	incongruent/STIM_022.jpg
1582.938	0.648	1	incongruent	Block2	incongruent/STIM_022.jpg
1586.614	0.762	1	incongruent	Block2	incongruent/STIM_022.jpg
1590.64	0.73	1	incongruent	Block2	incongruent/STIM_022.jpg
1593.554	0.696	1	incongruent	Block2	incongruent/STIM_023.jpg
1596.417	1.167	1	incongruent	Block2	incongruent/STIM_023.jpg
1600.388	0.668	1	incongruent	Block2	incongruent/STIM_023.jpg
1605.03	0.555	1	incongruent	Block2	incongruent/STIM_023.jpg
1608.363	0.62	1	incongruent	Block2	incongruent/STIM_023.jpg
1612.957	0.965	1	incongruent	Block2	incongruent/STIM_024.jpg
1617.185	1.0	1	incongruent	Block2	incongruent/STIM_024.jpg
1621.26	0.958	1	incongruent	Block2	incongruent/STIM_024.jpg
1625.813	0.996	1	incongruent	Block2	incongruent/STIM_024.jpg
1630.428	0.714	1	incongruent	Block2	incongruent/STIM_024.jpg
1634.699	0.69	1	incongruent	Block2	incongruent/STIM_025.jpg
1637.636	1.144	1	incongruent	Block2	incongruent/STIM_025.jpg
1642.721	0.741	1	incongruent	Block2	incongruent/STIM_025.jpg
1646.487	0.823	1	incongruent	Block2	incongruent/STIM_025.jpg
1651.223	0.757	1	incongruent	Block2	incongruent/STIM_025.jpg
1655.475	0.841	1	incongruent	Block2	incongruent/STIM_026.jpg
1658.621	1.083	1	incongruent	Block2	incongruent/STIM_026.jpg
1663.347	0.954	1	incongruent	Block2	incongruent/STIM_026.jpg
1668.03	0.693	1	incongruent	Block2	incongruent/STIM_026.jpg
1671.685	0.905	1	incongruent	Block2	incongruent/STIM_026.jpg
1674.705	0.605	1	incongruent	Block2	incongruent/STIM_027.jpg
1678.017	0.938	1	incongruent	Block2	incongruent/STIM_027.jpg
1682.836	0.798	1	incongruent	Block2	incongruent/STIM_027.jpg
1686.626	0.8	1	incongruent	Block2	incongruent/STIM_027.jpg
1690.502	0.983	1	incongruent	Block2	incongruent/STIM_027.jpg
1694.842	1.205	1	incongruent	Block2	incongruent/STIM_028.jpg
1699.787	0.721	1	incongruent	Block2	incongruent/STIM_028.jpg
1704.347	0.878	1	incongruent	Block2	incongruent/STIM_028.jpg
1708.283	0.917	1	incongruent	Block2	incongruent/STIM_028.jpg
1711.923	0.76	1	incongruent	Block2	incongruent/STIM_028.jpg
1716.246	0.83	1	incongruent	Block2	incongruent/STIM_029.jpg
1719.815	0.755	1	incongruent	Block2	incongruent/STIM_029.jpg
1722.952	0.556	1	incongruent	Block2	incongruent/STIM_029.jpg
1726.61	0.841	1	incongruent	Block2	incongruent/STIM_029.jpg
1731.371	0.937	1	incongruent	Block2	incongruent/STIM_029.jpg
1735.977	0.879	1	congruent	Block2	congruent/STIM_000.jpg
1739.488	0.84	1	congruent	Block2	congruent/STIM_000.jpg
1743.332	0.753	1	congruent	Block2	congruent/STIM_000.jpg
1746.634	0.797	1	congruent	Block2	congruent/STIM_000.jpg
1750.302	0.612	1	congruent	Block2	congruent/STIM_000.jpg
1754.108	0.756	1	congruent	Block2	congruent/STIM_001.jpg
1758.614	0.513	1	congruent	Block2	congruent/STIM_001.jpg
1762.148	0.771	1	congruent	Block2	congruent/STIM_001.jpg
1766.859	0.674	1	congruent	Block2	congruent/STIM_001.jpg
1769.784	0.865	1	congruent	Block2	congruent/STIM_001.jpg
1773.065	0.73	1	congruent	Block2	congruent/STIM_002.jpg
1777.178	0.818	1	congruent	Block2	congruent/STIM_002.jpg
1780.939	0.688	1	congruent	Block2	congruent/STIM_002.jpg
1785.408	0.79	1	congruent	Block2	congruent/STIM_002.jpg
1789.027	0.706	1	congruent	Block2	congruent/STIM_002.jpg
1792.297	0.741	1	congruent	Block2	congruent/STIM_003.jpg
1796.334	0.768	1	congruent	Block2	congruent/STIM_003.jpg
1800.066	0.855	1	congruent	Block2	congruent/STIM_003.jpg
1804.719	0.636	1	congruent	Block2	congruent/STIM_003.jpg
1808.953	0.862	1	congruent	Block2	congruent/STIM_003.jpg
1811.836	0.532	1	congruent	Block2	congruent/STIM_004.jpg
1815.589	0.504	1	congruent	Block2	congruent/STIM_004.jpg
1818.435	0.602	1	congruent	Block2	congruent/STIM_004.jpg
1821.939	0.866	1	congruent	Block2	congruent/STIM_004.jpg
1825.581	0.901	1	congruent	Block2	congruent/STIM_004.jpg
1829.858	0.681	1	congruent	Block2	congruent/STIM_005.jpg
1833.916	0.794	1	congruent	Block2	congruent/STIM_005.jpg
1838.652	0.563	1	congruent	Block2	congruent/STIM_005.jpg
1841.279	0.612	1	congruent	Block2	congruent/STIM_005.jpg
1844.687	0.88	1	congruent	Block2	congruent/STIM_005.jpg
1849.078	0.813	1	congruent	Block2	congruent/STIM_006.jpg
1853.298	0.897	1	congruent	Block2	congruent/STIM_006.jpg
1858.105	0.771	1	congruent	Block2	congruent/STIM_006.jpg
1862.492	0.696	1	congruent	Block2	congruent/STIM_006.jpg
1866.64	0.702	1	congruent	Block2	congruent/STIM_006.jpg
1870.295	0.549	1	congruent	Block2	congruent/STIM_007.jpg
1874.254	0.755	1	congruent	Block2	congruent/STIM_007.jpg
1877.147	0.871	1	congruent	Block2	congruent/STIM_007.jpg
1881.514	0.709	1	congruent	Block2	congruent/STIM_007.jpg
1885.442	0.704	1	congruent	Block2	congruent/STIM_007.jpg
1889.895	0.831	1	congruent	Block2	congruent/STIM_008.jpg
1894.721	0.841	1	congruent	Block2	congruent/STIM_008.jpg
1897.787	0.516	1	congruent	Block2	congruent/STIM_008.jpg
1901.295	0.638	1	congruent	Block2	congruent/STIM_008.jpg
1904.519	0.626	1	congruent	Block2	congruent/STIM_008.jpg
1908.157	0.761	1	congruent	Block2	congruent/STIM_009.jpg
1911.2	0.714	1	congruent	Block2	congruent/STIM_009.jpg
1914.686	0.687	1	congruent	Block2	congruent/STIM_009.jpg
1918.056	0.85	1	congruent	Block2	congruent/STIM_009.jpg
1922.834	0.893	1	congruent	Block2	congruent/STIM_009.jpg
1926.071	0.668	1	congruent	Block2	congruent/STIM_010.jpg
1929.857	0.876	1	congruent	Block2	congruent/STIM_010.jpg
1933.71	0.622	1	congruent	Block2	congruent/STIM_010.jpg
1937.386	0.896	1	congruent	Block2	congruent/STIM_010.jpg
1941.707	0.883	1	congruent	Block2	congruent/STIM_010.jpg
1945.192	0.684	1	congruent	Block2	congruent/STIM_011.jpg
1948.839	0.761	1	congruent	Block2	congruent/STIM_011.jpg
1951.711	0.576	1	congruent	Block2	congruent/STIM_011.jpg
1955.46	0.635	1	congruent	Block2	congruent/STIM_011.jpg
1959.13	0.638	1	congruent	Block2	congruent/STIM_011.jpg
1962.139	0.78	1	congruent	Block2	congruent/STIM_012.jpg
1965.703	0.674	1	congruent	Block2	congruent/STIM_012.jpg
1968.608	0.583	1	congruent	Block2	congruent/STIM_012.jpg
1971.759	0.68	1	congruent	Block2	congruent/STIM_012.jpg
1974.651	0.863	1	congruent	Block2	congruent/STIM_012.jpg
1979.389	0.841	1	congruent	Block2	congruent/STIM_013.jpg
1983.617	0.67	1	congruent	Block2	congruent/STIM_013.jpg
1986.381	0.76	1	congruent	Block2	congruent/STIM_013.jpg
1989.198	0.704	1	congruent	Block2	congruent/STIM_013.jpg
1992.444	0.764	1	congruent	Block2	congruent/STIM_013.jpg
1996.147	0.591	1	congruent	Block2	congruent/STIM_014.jpg
2000.684	0.777	1	congruent	Block2	congruent/STIM_014.jpg
2003.67	0.782	1	congruent	Block2	congruent/STIM_014.jpg
2007.768	0.549	1	congruent	Block2	congruent/STIM_014.jpg
2011.161	0.605	1	congruent	Block2	congruent/STIM_014.jpg
2014.13	0.895	1	congruent	Block2	congruent/STIM_015.jpg
2017.557	0.524	1	congruent	Block2	congruent/STIM_015.jpg
2021.184	0.849	1	congruent	Block2	congruent/STIM_015.jpg
2025.063	0.522	1	congruent	Block2	congruent/STIM_015.jpg
2029.322	0.688	1	congruent	Block2	congruent/STIM_015.jpg
2033.933	0.534	1	congruent	Block2	congruent/STIM_016.jpg
2037.497	0.537	1	congruent	Block2	congruent/STIM_016.jpg
2041.53	0.676	1	congruent	Block2	congruent/STIM_016.jpg
2045.345	0.807	1	congruent	Block2	congruent/STIM_016.jpg
2049.518	0.808	1	congruent	Block2	congruent/STIM_016.jpg
2052.616	0.779	1	congruent	Block2	congruent/STIM_017.jpg
2056.883	0.901	1	congruent	Block2	congruent/STIM_017.jpg
2060.539	0.757	1	congruent	Block2	congruent/STIM_017.jpg
2063.801	0.618	1	congruent	Block2	congruent/STIM_017.jpg
2068.019	0.736	1	congruent	Block2	congruent/STIM_017.jpg
2070.856	0.685	1	congruent	Block2	congruent/STIM_018.jpg
2075.021	0.719	1	congruent	Block2	congruent/STIM_018.jpg
2077.791	0.756	1	congruent	Block2	congruent/STIM_018.jpg
2081.194	0.782	1	congruent	Block2	congruent/STIM_018.jpg
2085.42	0.875	1	congruent	Block2	congruent/STIM_018.jpg
2089.421	0.842	0	congruent	Block2	congruent/STIM_019.jpg
2092.492	0.611	1	congruent	Block2	congruent/STIM_019.jpg
2095.458	0.903	1	congruent	Block2	congruent/STIM_019.jpg
2099.224	0.516	1	congruent	Block2	congruent/STIM_019.jpg
2103.109	0.702	1	congruent	Block2	congruent/STIM_019.jpg
2106.388	0.698	1	congruent	Block2	congruent/STIM_020.jpg
2109.205	0.853	1	congruent	Block2	congruent/STIM_020.jpg
2113.216	0.83	1	congruent	Block2	congruent/STIM_020.jpg
2117.182	0.719	1	congruent	Block2	congruent/STIM_020.jpg
2120.391	0.754	1	congruent	Block2	congruent/STIM_020.jpg
2123.719	0.845	1	congruent	Block2	congruent/STIM_021.jpg
2126.85	0.524	1	congruent	Block2	congruent/STIM_021.jpg
2131.199	0.508	1	congruent	Block2	congruent/STIM_021.jpg
2135.09	0.656	1	congruent	Block2	congruent/STIM_021.jpg
2139.457	0.757	1	congruent	Block2	congruent/STIM_021.jpg
2142.776	0.55	1	congruent	Block2	congruent/STIM_022.jpg
2146.827	0.634	1	congruent	Block2	congruent/STIM_022.jpg
2149.607	0.819	1	congruent	Block2	congruent/STIM_022.jpg
2153.052	0.568	1	congruent	Block2	congruent/STIM_022.jpg
2157.289	0.574	1	congruent	Block2	congruent/STIM_022.jpg
2160.374	0.875	1	congruent	Block2	congruent/STIM_023.jpg
2164.919	0.558	1	congruent	Block2	congruent/STIM_023.jpg
2168.987	0.732	1	congruent	Block2	congruent/STIM_023.jpg
2172.033	0.784	1	congruent	Block2	congruent/STIM_023.jpg
2176.67	0.775	1	congruent	Block2	congruent/STIM_023.jpg
2180.974	0.708	1	congruent	Block2	congruent/STIM_024.jpg
2183.993	0.715	1	congruent	Block2	congruent/STIM_024.jpg
2187.255	0.712	1	congruent	Block2	congruent/STIM_024.jpg
2191.692	0.678	1	congruent	Block2	congruent/STIM_024.jpg
2195.502	0.876	1	congruent	Block2	congruent/STIM_024.jpg
2199.474	0.778	1	congruent	Block2	congruent/STIM_025.jpg
2202.822	0.54	1	congruent	Block2	congruent/STIM_025.jpg
2207.245	0.837	1	congruent	Block2	congruent/STIM_025.jpg
2211.209	0.647	1	congruent	Block2	congruent/STIM_025.jpg
2214.519	0.843	1	congruent	Block2	congruent/STIM_025.jpg
2217.953	0.845	1	congruent	Block2	congruent/STIM_026.jpg
2222.251	0.708	1	congruent	Block2	congruent/STIM_026.jpg
2225.339	0.82	1	congruent	Block2	congruent/STIM_026.jpg
2228.512	0.814	1	congruent	Block2	congruent/STIM_026.jpg
2233.122	0.881	1	congruent	Block2	congruent/STIM_026.jpg
2237.717	0.878	1	congruent	Block2	congruent/STIM_027.jpg
2241.996	0.849	1	congruent	Block2	congruent/STIM_027.jpg
2245.176	0.518	1	congruent	Block2	congruent/STIM_027.jpg
2247.921	0.668	1	congruent	Block2	congruent/STIM_027.jpg
2251.206	0.574	1	congruent	Block2	congruent/STIM_027.jpg
2253.82	0.738	1	congruent	Block2	congruent/STIM_028.jpg
2256.946	0.678	1	congruent	Block2	congruent/STIM_028.jpg
2260.182	0.679	1	congruent	Block2	congruent/STIM_028.jpg
2263.11	0.541	1	congruent	Block2	congruent/STIM_028.jpg
2265.715	0.847	1	congruent	Block2	congruent/STIM_028.jpg
2268.765	0.873	1	congruent	Block2	congruent/STIM_029.jpg
2271.995	0.758	1	congruent	Block2	congruent/STIM_029.jpg
2275.102	0.521	1	congruent	Block2	congruent/STIM_029.jpg
2279.305	0.764	1	congruent	Block2	congruent/STIM_029.jpg
2282.707	0.6	1	congruent	Block2	congruent/STIM_029.jpg
2286.961	0.92	1	incongruent	Block3	incongruent/STIM_000.jpg
2291.449	0.506	1	incongruent	Block3	incongruent/STIM_000.jpg
2295.21	0.708	1	incongruent	Block3	incongruent/STIM_000.jpg
2299.086	0.502	1	incongruent	Block3	incongruent/STIM_000.jpg
2302.418	0.885	1	incongruent	Block3	incongruent/STIM_000.jpg
2305.781	0.918	1	incongruent	Block3	incongruent/STIM_001.jpg
2310.305	0.496	1	incongruent	Block3	incongruent/STIM_001.jpg
2313.55	0.5	1	incongruent	Block3	incongruent/STIM_001.jpg
2316.478	0.964	1	incongruent	Block3	incongruent/STIM_001.jpg
2320.425	0.566	1	incongruent	Block3	incongruent/STIM_001.jpg
2323.293	0.697	1	incongruent	Block3	incongruent/STIM_002.jpg
2327.098	0.598	1	incongruent	Block3	incongruent/STIM_002.jpg
2330.172	0.54	1	incongruent	Block3	incongruent/STIM_002.jpg
2334.322	0.593	0	incongruent	Block3	incongruent/STIM_002.jpg
2337.61	0.675	1	incongruent	Block3	incongruent/STIM_002.jpg
2341.993	0.852	1	incongruent	Block3	incongruent/STIM_003.jpg
2346.771	0.865	1	incongruent	Block3	incongruent/STIM_003.jpg
2350.655	0.926	1	incongruent	Block3	incongruent/STIM_003.jpg
2354.07	0.616	1	incongruent	Block3	incongruent/STIM_003.jpg
2358.219	0.538	1	incongruent	Block3	incongruent/STIM_003.jpg
2361.295	0.51	1	incongruent	Block3	incongruent/STIM_004.jpg
2365.633	0.56	1	incongruent	Block3	incongruent/STIM_004.jpg
2368.838	0.628	1	incongruent	Block3	incongruent/STIM_004.jpg
2372.447	0.997	1	incongruent	Block3	incongruent/STIM_004.jpg
2376.048	0.761	1	incongruent	Block3	incongruent/STIM_004.jpg
2379.931	0.61	1	incongruent	Block3	incongruent/STIM_005.jpg
2382.73	1.004	1	incongruent	Block3	incongruent/STIM_005.jpg
2386.608	0.892	1	incongruent	Block3	incongruent/STIM_005.jpg
2389.836	0.734	1	incongruent	Block3	incongruent/STIM_005.jpg
2393.158	1.0	1	incongruent	Block3	incongruent/STIM_005.jpg
2396.568	0.569	1	incongruent	Block3	incongruent/STIM_006.jpg
2399.958	0.552	1	incongruent	Block3	incongruent/STIM_006.jpg
2403.592	1.012	1	incongruent	Block3	incongruent/STIM_006.jpg
2407.506	0.982	1	incongruent	Block3	incongruent/STIM_006.jpg
2411.488	0.831	1	incongruent	Block3	incongruent/STIM_006.jpg
2416.193	0.552	1	incongruent	Block3	incongruent/STIM_007.jpg
2418.954	0.841	1	incongruent	Block3	incongruent/STIM_007.jpg
2421.876	0.875	1	incongruent	Block3	incongruent/STIM_007.jpg
2425.23	0.934	1	incongruent	Block3	incongruent/STIM_007.jpg
2429.155	0.522	1	incongruent	Block3	incongruent/STIM_007.jpg
2432.554	0.81	1	incongruent	Block3	incongruent/STIM_008.jpg
2436.054	0.889	1	incongruent	Block3	incongruent/STIM_008.jpg
2439.942	0.887	1	incongruent	Block3	incongruent/STIM_008.jpg
2443.807	0.631	0	incongruent	Block3	incongruent/STIM_008.jpg
2446.926	0.84	1	incongruent	Block3	incongruent/STIM_008.jpg
2450.199	0.5	1	incongruent	Block3	incongruent/STIM_009.jpg
2452.914	0.533	1	incongruent	Block3	incongruent/STIM_009.jpg
2456.358	0.792	1	incongruent	Block3	incongruent/STIM_009.jpg
2459.176	0.503	1	incongruent	Block3	incongruent/STIM_009.jpg
2461.957	0.815	1	incongruent	Block3	incongruent/STIM_009.jpg
2465.629	0.739	1	incongruent	Block3	incongruent/STIM_010.jpg
2470.28	0.846	1	incongruent	Block3	incongruent/STIM_010.jpg
2475.06	0.6	1	incongruent	Block3	incongruent/STIM_010.jpg
2478.638	0.963	1	incongruent	Block3	incongruent/STIM_010.jpg
2481.777	0.823	1	incongruent	Block3	incongruent/STIM_010.jpg
2486.391	0.67	1	incongruent	Block3	incongruent/STIM_011.jpg
2489.465	0.962	1	incongruent	Block3	incongruent/STIM_011.jpg
2493.549	0.571	1	incongruent	Block3	incongruent/STIM_011.jpg
2496.645	0.829	1	incongruent	Block3	incongruent/STIM_011.jpg
2499.717	0.875	1	incongruent	Block3	incongruent/STIM_011.jpg
2503.411	0.58	1	incongruent	Block3	incongruent/STIM_012.jpg
2507.077	0.678	1	incongruent	Block3	incongruent/STIM_012.jpg
2510.927	0.724	1	incongruent	Block3	incongruent/STIM_012.jpg
2514.86	1.029	1	incongruent	Block3	incongruent/STIM_012.jpg
2518.654	0.547	1	incongruent	Block3	incongruent/STIM_012.jpg
2522.96	0.59	1	incongruent	Block3	incongruent/STIM_013.jpg
2526.714	0.792	0	incongruent	Block3	incongruent/STIM_013.jpg
2529.905	0.576	1	incongruent	Block3	incongruent/STIM_013.jpg
2533.127	0.928	1	incongruent	Block3	incongruent/STIM_013.jpg
2536.375	0.902	0	incongruent	Block3	incongruent/STIM_013.jpg
2541.097	1.045	1	incongruent	Block3	incongruent/STIM_014.jpg
2544.718	0.553	1	incongruent	Block3	incongruent/STIM_014.jpg
2548.903	0.524	1	incongruent	Block3	incongruent/STIM_014.jpg
2553.228	0.507	1	incongruent	Block3	incongruent/STIM_014.jpg
2556.656	0.498	1	incongruent	Block3	incongruent/STIM_014.jpg
2560.793	0.737	1	incongruent	Block3	incongruent/STIM_015.jpg
2564.924	0.662	1	incongruent	Block3	incongruent/STIM_015.jpg
2567.692	0.988	1	incongruent	Block3	incongruent/STIM_015.jpg
2570.983	0.841	1	incongruent	Block3	incongruent/STIM_015.jpg
2574.416	0.854	1	incongruent	Block3	incongruent/STIM_015.jpg
2578.819	0.836	1	incongruent	Block3	incongruent/STIM_016.jpg
2582.185	0.91	1	incongruent	Block3	incongruent/STIM_016.jpg
2586.299	0.518	1	incongruent	Block3	incongruent/STIM_016.jpg
2589.656	0.696	1	incongruent	Block3	incongruent/STIM_016.jpg
2593.163	1.029	1	incongruent	Block3	incongruent/STIM_016.jpg
2597.986	0.715	1	incongruent	Block3	incongruent/STIM_017.jpg
2601.921	1.0	1	incongruent	Block3	incongruent/STIM_017.jpg
2605.774	0.627	1	incongruent	Block3	incongruent/STIM_017.jpg
2609.398	0.648	1	incongruent	Block3	incongruent/STIM_017.jpg
2612.092	0.599	1	incongruent	Block3	incongruent/STIM_017.jpg
2615.351	0.98	1	incongruent	Block3	incongruent/STIM_018.jpg
2620.103	0.556	1	incongruent	Block3	incongruent/STIM_018.jpg
2623.077	0.878	1	incongruent	Block3	incongruent/STIM_018.jpg
2627.225	0.904	1	incongruent	Block3	incongruent/STIM_018.jpg
2631.792	0.891	1	incongruent	Block3	incongruent/STIM_018.jpg
2635.848	0.875	1	incongruent	Block3	incongruent/STIM_019.jpg
2638.769	0.52	1	incongruent	Block3	incongruent/STIM_019.jpg
2641.795	0.652	1	incongruent	Block3	incongruent/STIM_019.jpg
2644.576	0.633	1	incongruent	Block3	incongruent/STIM_019.jpg
2648.796	0.731	1	incongruent	Block3	incongruent/STIM_019.jpg
2653.331	1.041	1	incongruent	Block3	incongruent/STIM_020.jpg
2656.991	0.84	1	incongruent	Block3	incongruent/STIM_020.jpg
2660.525	0.512	1	incongruent	Block3	incongruent/STIM_020.jpg
2664.003	0.824	0	incongruent	Block3	incongruent/STIM_020.jpg
2668.016	0.808	1	incongruent	Block3	incongruent/STIM_020.jpg
2672.327	0.671	1	incongruent	Block3	incongruent/STIM_021.jpg
2676.894	0.944	1	incongruent	Block3	incongruent/STIM_021.jpg
2680.486	0.968	1	incongruent	Block3	incongruent/STIM_021.jpg
2685.155	1.046	1	incongruent	Block3	incongruent/STIM_021.jpg
2688.635	0.5	1	incongruent	Block3	incongruent/STIM_021.jpg
2691.758	1.027	1	incongruent	Block3	incongruent/STIM_022.jpg
2696.689	1.046	1	incongruent	Block3	incongruent/STIM_022.jpg
2701.602	0.648	1	incongruent	Block3	incongruent/STIM_022.jpg
2704.89	0.828	1	incongruent	Block3	incongruent/STIM_022.jpg
2707.726	0.892	1	incongruent	Block3	incongruent/STIM_022.jpg
2711.672	1.046	1	incongruent	Block3	incongruent/STIM_023.jpg
2716.66	0.606	1	incongruent	Block3	incongruent/STIM_023.jpg
2721.073	0.859	1	incongruent	Block3	incongruent/STIM_023.jpg
2725.43	0.822	1	incongruent	Block3	incongruent/STIM_023.jpg
2728.881	0.914	1	incongruent	Block3	incongruent/STIM_023.jpg
2732.228	0.83	1	incongruent	Block3	incongruent/STIM_024.jpg
2736.211	0.942	1	incongruent	Block3	incongruent/STIM_024.jpg
2740.134	1.001	1	incongruent	Block3	incongruent/STIM_024.jpg
2743.572	0.565	1	incongruent	Block3	incongruent/STIM_024.jpg
2748.099	0.803	1	incongruent	Block3	incongruent/STIM_024.jpg
2752.21	0.837	1	incongruent	Block3	incongruent/STIM_025.jpg
2755.739	0.979	1	incongruent	Block3	incongruent/STIM_025.jpg
2760.589	0.958	1	incongruent	Block3	incongruent/STIM_025.jpg
2763.662	0.782	1	incongruent	Block3	incongruent/STIM_025.jpg
2767.901	1.02	1	incongruent	Block3	incongruent/STIM_025.jpg
2772.247	0.552	1	incongruent	Block3	incongruent/STIM_026.jpg
2775.421	0.581	1	incongruent	Block3	incongruent/STIM_026.jpg
2778.967	0.588	1	incongruent	Block3	incongruent/STIM_026.jpg
2781.576	0.702	1	incongruent	Block3	incongruent/STIM_026.jpg
2785.071	0.883	1	incongruent	Block3	incongruent/STIM_026.jpg
2788.749	0.874	1	incongruent	Block3	incongruent/STIM_027.jpg
2792.95	0.502	1	incongruent	Block3	incongruent/STIM_027.jpg
2795.77	0.597	1	incongruent	Block3	incongruent/STIM_027.jpg
2798.752	0.653	1	incongruent	Block3	incongruent/STIM_027.jpg
2801.906	0.962	1	incongruent	Block3	incongruent/STIM_027.jpg
2805.272	0.78	1	incongruent	Block3	incongruent/STIM_028.jpg
2809.128	0.636	1	incongruent	Block3	incongruent/STIM_028.jpg
2812.251	0.507	1	incongruent	Block3	incongruent/STIM_028.jpg
2816.125	0.506	1	incongruent	Block3	incongruent/STIM_028.jpg
2819.047	0.52	1	incongruent	Block3	incongruent/STIM_028.jpg
2822.243	0.63	1	incongruent	Block3	incongruent/STIM_029.jpg
2826.688	0.857	1	incongruent	Block3	incongruent/STIM_029.jpg
2829.725	0.563	1	incongruent	Block3	incongruent/STIM_029.jpg
2833.262	1.004	1	incongruent	Block3	incongruent/STIM_029.jpg
2836.794	0.836	1	incongruent	Block3	incongruent/STIM_029.jpg
2841.596	0.574	1	congruent	Block3	congruent/STIM_000.jpg
2845.055	0.738	1	congruent	Block3	congruent/STIM_000.jpg
2848.126	0.829	1	congruent	Block3	congruent/STIM_000.jpg
2851.924	0.649	1	congruent	Block3	congruent/STIM_000.jpg
2854.914	0.802	1	congruent	Block3	congruent/STIM_000.jpg
2859.574	0.722	1	congruent	Block3	congruent/STIM_001.jpg
2862.347	0.891	1	congruent	Block3	congruent/STIM_001.jpg
2866.437	0.778	1	congruent	Block3	congruent/STIM_001.jpg
2871.135	0.846	1	congruent	Block3	congruent/STIM_001.jpg
2874.642	0.778	1	congruent	Block3	congruent/STIM_001.jpg
2879.309	0.795	1	congruent	Block3	congruent/STIM_002.jpg
2883.267	0.755	1	congruent	Block3	congruent/STIM_002.jpg
2887.242	0.546	1	congruent	Block3	congruent/STIM_002.jpg
2891.725	0.828	1	congruent	Block3	congruent/STIM_002.jpg
2896.519	0.623	1	congruent	Block3	congruent/STIM_002.jpg
2900.816	0.728	1	congruent	Block3	congruent/STIM_003.jpg
2904.566	0.797	1	congruent	Block3	congruent/STIM_003.jpg
2907.63	0.728	1	congruent	Block3	congruent/STIM_003.jpg
2910.385	0.783	1	congruent	Block3	congruent/STIM_003.jpg
2914.115	0.755	1	congruent	Block3	congruent/STIM_003.jpg
2918.043	0.626	1	congruent	Block3	congruent/STIM_004.jpg
2922.588	0.795	1	congruent	Block3	congruent/STIM_004.jpg
2926.27	0.602	1	congruent	Block3	congruent/STIM_004.jpg
2929.68	0.704	1	congruent	Block3	congruent/STIM_004.jpg
2933.275	0.599	1	congruent	Block3	congruent/STIM_004.jpg
2936.838	0.798	1	congruent	Block3	congruent/STIM_005.jpg
2940.089	0.827	1	congruent	Block3	congruent/STIM_005.jpg
2943.854	0.588	1	congruent	Block3	congruent/STIM_005.jpg
2946.723	0.688	1	congruent	Block3	congruent/STIM_005.jpg
2950.408	0.595	1	congruent	Block3	congruent/STIM_005.jpg
2953.386	0.728	1	congruent	Block3	congruent/STIM_006.jpg
2956.849	0.569	1	congruent	Block3	congruent/STIM_006.jpg
2959.735	0.779	1	congruent	Block3	congruent/STIM_006.jpg
2962.59	0.621	1	congruent	Block3	congruent/STIM_006.jpg
2965.677	0.669	1	congruent	Block3	congruent/STIM_006.jpg
2969.15	0.614	1	congruent	Block3	congruent/STIM_007.jpg
2973.711	0.589	0	congruent	Block3	congruent/STIM_007.jpg
2977.9	0.586	0	congruent	Block3	congruent/STIM_007.jpg
2982.211	0.675	1	congruent	Block3	congruent/STIM_007.jpg
2986.161	0.82	1	congruent	Block3	congruent/STIM_007.jpg
2989.02	0.88	1	congruent	Block3	congruent/STIM_008.jpg
2992.146	0.549	1	congruent	Block3	congruent/STIM_008.jpg
2996.673	0.85	1	congruent	Block3	congruent/STIM_008.jpg
3000.336	0.832	1	congruent	Block3	congruent/STIM_008.jpg
3003.651	0.687	1	congruent	Block3	congruent/STIM_008.jpg
3006.692	0.836	1	congruent	Block3	congruent/STIM_009.jpg
3010.242	0.696	1	congruent	Block3	congruent/STIM_009.jpg
3014.509	0.588	1	congruent	Block3	congruent/STIM_009.jpg
3017.57	0.61	1	congruent	Block3	congruent/STIM_009.jpg
3021.085	0.896	1	congruent	Block3	congruent/STIM_009.jpg
3025.855	0.799	1	congruent	Block3	congruent/STIM_010.jpg
3028.706	0.725	1	congruent	Block3	congruent/STIM_010.jpg
3032.076	0.693	1	congruent	Block3	congruent/STIM_010.jpg
3034.905	0.744	1	congruent	Block3	congruent/STIM_010.jpg
3039.207	0.608	1	congruent	Block3	congruent/STIM_010.jpg
3041.963	0.638	0	congruent	Block3	congruent/STIM_011.jpg
3046.089	0.758	1	congruent	Block3	congruent/STIM_011.jpg
3050.416	0.622	1	congruent	Block3	congruent/STIM_011.jpg
3053.332	0.552	1	congruent	Block3	congruent/STIM_011.jpg
3056.69	0.527	1	congruent	Block3	congruent/STIM_011.jpg
3059.599	0.597	1	congruent	Block3	congruent/STIM_012.jpg
3063.967	0.747	1	congruent	Block3	congruent/STIM_012.jpg
3067.058	0.84	1	congruent	Block3	congruent/STIM_012.jpg
3070.917	0.657	1	congruent	Block3	congruent/STIM_012.jpg
3075.154	0.63	1	congruent	Block3	congruent/STIM_012.jpg
3079.048	0.676	1	congruent	Block3	congruent/STIM_013.jpg
3082.915	0.787	1	congruent	Block3	congruent/STIM_013.jpg
3087.379	0.525	1	congruent	Block3	congruent/STIM_013.jpg
3091.732	0.731	1	congruent	Block3	congruent/STIM_013.jpg
3095.583	0.551	1	congruent	Block3	congruent/STIM_013.jpg
3098.382	0.518	1	congruent	Block3	congruent/STIM_014.jpg
3102.589	0.882	1	congruent	Block3	congruent/STIM_014.jpg
3107.061	0.753	1	congruent	Block3	congruent/STIM_014.jpg
3110.253	0.674	1	congruent	Block3	congruent/STIM_014.jpg
3114.009	0.829	1	congruent	Block3	congruent/STIM_014.jpg
3118.249	0.544	1	congruent	Block3	congruent/STIM_015.jpg
3122.268	0.896	1	congruent	Block3	congruent/STIM_015.jpg
3125.525	0.754	1	congruent	Block3	congruent/STIM_015.jpg
3128.387	0.73	1	congruent	Block3	congruent/STIM_015.jpg
3132.486	0.655	1	congruent	Block3	congruent/STIM_015.jpg
3136.494	0.739	1	congruent	Block3	congruent/STIM_016.jpg
3139.427	0.808	1	congruent	Block3	congruent/STIM_016.jpg
3142.646	0.608	0	congruent	Block3	congruent/STIM_016.jpg
3146.802	0.657	1	congruent	Block3	congruent/STIM_016.jpg
3149.674	0.863	1	congruent	Block3	congruent/STIM_016.jpg
3154.012	0.538	1	congruent	Block3	congruent/STIM_017.jpg
3157.921	0.795	1	congruent	Block3	congruent/STIM_017.jpg
3161.475	0.743	1	congruent	Block3	congruent/STIM_017.jpg
3165.19	0.604	1	congruent	Block3	congruent/STIM_017.jpg
3168.171	0.704	1	congruent	Block3	congruent/STIM_017.jpg
3171.302	0.631	1	congruent	Block3	congruent/STIM_018.jpg
3173.998	0.731	1	congruent	Block3	congruent/STIM_018.jpg
3176.936	0.642	1	congruent	Block3	congruent/STIM_018.jpg
3179.878	0.852	1	congruent	Block3	congruent/STIM_018.jpg
3183.377	0.796	1	congruent	Block3	congruent/STIM_018.jpg
3186.677	0.81	1	congruent	Block3	congruent/STIM_019.jpg
3189.91	0.651	1	congruent	Block3	congruent/STIM_019.jpg
3192.668	0.87	1	congruent	Block3	congruent/STIM_019.jpg
3195.944	0.582	1	congruent	Block3	congruent/STIM_019.jpg
3199.597	0.662	1	congruent	Block3	congruent/STIM_019.jpg
3202.59	0.605	1	congruent	Block3	congruent/STIM_020.jpg
3206.566	0.878	1	congruent	Block3	congruent/STIM_020.jpg
3210.334	0.575	1	congruent	Block3	congruent/STIM_020.jpg
3214.74	0.711	1	congruent	Block3	congruent/STIM_020.jpg
3217.932	0.811	1	congruent	Block3	congruent/STIM_020.jpg
3221.361	0.85	0	congruent	Block3	congruent/STIM_021.jpg
3224.88	0.535	1	congruent	Block3	congruent/STIM_021.jpg
3228.131	0.806	1	congruent	Block3	congruent/STIM_021.jpg
3231.238	0.67	1	congruent	Block3	congruent/STIM_021.jpg
3235.222	0.682	1	congruent	Block3	congruent/STIM_021.jpg
3238.189	0.624	1	congruent	Block3	congruent/STIM_022.jpg
3241.708	0.706	1	congruent	Block3	congruent/STIM_022.jpg
3246.304	0.533	1	congruent	Block3	congruent/STIM_022.jpg
3249.656	0.599	1	congruent	Block3	congruent/STIM_022.jpg
3254.164	0.54	1	congruent	Block3	congruent/STIM_022.jpg
3258.685	0.512	1	congruent	Block3	congruent/STIM_023.jpg
3261.953	0.54	1	congruent	Block3	congruent/STIM_023.jpg
3266.439	0.54	1	congruent	Block3	congruent/STIM_023.jpg
3269.449	0.815	1	congruent	Block3	congruent/STIM_023.jpg
3273.121	0.754	1	congruent	Block3	congruent/STIM_023.jpg
3276.187	0.511	0	congruent	Block3	congruent/STIM_024.jpg
3279.586	0.811	1	congruent	Block3	congruent/STIM_024.jpg
3283.837	0.732	1	congruent	Block3	congruent/STIM_024.jpg
3287.848	0.706	1	congruent	Block3	congruent/STIM_024.jpg
3292.372	0.763	1	congruent	Block3	congruent/STIM_024.jpg
3295.223	0.781	1	congruent	Block3	congruent/STIM_025.jpg
3298.275	0.53	1	congruent	Block3	congruent/STIM_025.jpg
3302.059	0.666	1	congruent	Block3	congruent/STIM_025.jpg
3306.317	0.696	1	congruent	Block3	congruent/STIM_025.jpg
3309.342	0.808	1	congruent	Block3	congruent/STIM_025.jpg
3312.665	0.575	1	congruent	Block3	congruent/STIM_026.jpg
3317.231	0.733	1	congruent	Block3	congruent/STIM_026.jpg
3321.247	0.677	1	congruent	Block3	congruent/STIM_026.jpg
3324.073	0.711	1	congruent	Block3	congruent/STIM_026.jpg
3328.736	0.579	1	congruent	Block3	congruent/STIM_026.jpg
3332.528	0.787	1	congruent	Block3	congruent/STIM_027.jpg
3337.13	0.642	1	congruent	Block3	congruent/STIM_027.jpg
3339.813	0.833	1	congruent	Block3	congruent/STIM_027.jpg
3344.467	0.882	1	congruent	Block3	congruent/STIM_027.jpg
3348.614	0.734	1	congruent	Block3	congruent/STIM_027.jpg
3352.361	0.751	1	congruent	Block3	congruent/STIM_028.jpg
3356.829	0.845	1	congruent	Block3	congruent/STIM_028.jpg
3361.193	0.871	1	congruent	Block3	congruent/STIM_028.jpg
3365.694	0.676	0	congruent	Block3	congruent/STIM_028.jpg
3370.069	0.813	1	congruent	Block3	congruent/STIM_028.jpg
3374.354	0.538	1	congruent	Block3	congruent/STIM_029.jpg
3378.016	0.89	1	congruent	Block3	congruent/STIM_029.jpg
3380.978	0.722	1	congruent	Block3	congruent/STIM_029.jpg
3384.5	0.653	1	congruent	Block3	congruent/STIM_029.jpg
3387.476	0.542	1	congruent	Block3	congruent/STIM_029.jpg
