onset	duration	response_time_ms	trial_type	learning_stage	stimulus	response_port
0.0	0.993	992.8	incongruent	Block1	incongruent/STIM_000.jpg	100
4.844	0.848	848.4	incongruent	Block1	incongruent/STIM_000.jpg	100
8.638	1.147	1146.7	incongruent	Block1	incongruent/STIM_000.jpg	100
13.687	0.935	935.4	incongruent	Block1	incongruent/STIM_000.jpg	100
17.823	0.589	588.9	incongruent	Block1	incongruent/STIM_000.jpg	99
22.31	0.837	837.2	incongruent	Block1	incongruent/STIM_001.jpg	99
25.872	1.411	1410.8	incongruent	Block1	incongruent/STIM_001.jpg	99
30.766	1.014	1014.0	incongruent	Block1	incongruent/STIM_001.jpg	100
35.632	1.085	1085.3	incongruent	Block1	incongruent/STIM_001.jpg	99
39.693	0.886	885.6	incongruent	Block1	incongruent/STIM_001.jpg	99
43.934	1.507	1506.6	incongruent	Block1	incongruent/STIM_002.jpg	99
49.432	1.423	1422.7	incongruent	Block1	incongruent/STIM_002.jpg	100
53.97	0.694	694.0	incongruent	Block1	incongruent/STIM_002.jpg	99
56.954	1.256	1255.9	incongruent	Block1	incongruent/STIM_002.jpg	100
60.909	1.039	1038.9	incongruent	Block1	incongruent/STIM_002.jpg	100
64.262	1.449	1448.6	incongruent	Block1	incongruent/STIM_003.jpg	100
67.728	1.17	1169.5	incongruent	Block1	incongruent/STIM_003.jpg	100
72.887	0.967	967.2	incongruent	Block1	incongruent/STIM_003.jpg	100
75.961	1.144	1144.1	incongruent	Block1	incongruent/STIM_003.jpg	99
80.11	0.84	840.5	incongruent	Block1	incongruent/STIM_003.jpg	100
83.525	1.364	1363.7	incongruent	Block1	incongruent/STIM_004.jpg	100
88.21	1.154	1153.8	incongruent	Block1	incongruent/STIM_004.jpg	99
91.585	1.14	1140.5	incongruent	Block1	incongruent/STIM_004.jpg	100
94.82	0.849	849.4	incongruent	Block1	incongruent/STIM_004.jpg	99
98.658	0.708	708.4	incongruent	Block1	incongruent/STIM_004.jpg	100
103.246	1.295	1295.3	incongruent	Block1	incongruent/STIM_005.jpg	99
107.542	1.379	1378.8	incongruent	Block1	incongruent/STIM_005.jpg	100
112.622	1.036	1035.7	incongruent	Block1	incongruent/STIM_005.jpg	99
115.676	0.917	917.4	incongruent	Block1	incongruent/STIM_005.jpg	100
118.731	1.121	1121.0	incongruent	Block1	incongruent/STIM_005.jpg	99
122.377	0.987	987.3	incongruent	Block1	incongruent/STIM_006.jpg	99
125.505	0.924	923.7	incongruent	Block1	incongruent/STIM_006.jpg	100
129.251	0.72	719.6	incongruent	Block1	incongruent/STIM_006.jpg	99
133.345	0.847	846.6	incongruent	Block1	incongruent/STIM_006.jpg	99
136.291	0.675	675.3	incongruent	Block1	incongruent/STIM_006.jpg	100
139.52	0.925	924.9	incongruent	Block1	incongruent/STIM_007.jpg	99
143.554	0.967	966.8	incongruent	Block1	incongruent/STIM_007.jpg	100
147.45	0.96	959.9	incongruent	Block1	incongruent/STIM_007.jpg	99
150.818	0.998	997.7	incongruent	Block1	incongruent/STIM_007.jpg	100
155.75	1.142	1142.2	incongruent	Block1	incongruent/STIM_007.jpg	100
160.847	1.1	1100.4	incongruent	Block1	incongruent/STIM_008.jpg	99
164.707	0.981	980.7	incongruent	Block1	incongruent/STIM_008.jpg	99
168.2	1.289	1288.7	incongruent	Block1	incongruent/STIM_008.jpg	100
171.871	0.734	734.5	incongruent	Block1	incongruent/STIM_008.jpg	100
175.467	1.041	1041.3	incongruent	Block1	incongruent/STIM_008.jpg	99
178.779	0.708	707.6	incongruent	Block1	incongruent/STIM_009.jpg	99
182.957	0.744	744.2	incongruent	Block1	incongruent/STIM_009.jpg	100
186.716	1.094	1093.9	incongruent	Block1	incongruent/STIM_009.jpg	100
191.515	0.849	849.3	incongruent	Block1	incongruent/STIM_009.jpg	99
196.332	0.699	699.4	incongruent	Block1	incongruent/STIM_009.jpg	100
199.156	1.081	1080.6	incongruent	Block1	incongruent/STIM_010.jpg	100
203.309	0.974	974.1	incongruent	Block1	incongruent/STIM_010.jpg	99
208.181	1.104	1104.4	incongruent	Block1	incongruent/STIM_010.jpg	100
211.288	1.035	1034.6	incongruent	Block1	incongruent/STIM_010.jpg	99
214.536	1.122	1122.1	incongruent	Block1	incongruent/STIM_010.jpg	99
217.779	0.746	746.1	incongruent	Block1	incongruent/STIM_011.jpg	99
221.505	1.306	1306.4	incongruent	Block1	incongruent/STIM_011.jpg	100
225.09	0.938	938.2	incongruent	Block1	incongruent/STIM_011.jpg	99
228.108	1.164	1164.1	incongruent	Block1	incongruent/STIM_011.jpg	100
232.79	0.918	918.3	incongruent	Block1	incongruent/STIM_011.jpg	100
237.121	1.473	1473.0	incongruent	Block1	incongruent/STIM_012.jpg	99
241.618	1.292	1292.2	incongruent	Block1	incongruent/STIM_012.jpg	100
245.183	0.866	865.7	incongruent	Block1	incongruent/STIM_012.jpg	100
248.795	0.963	962.7	incongruent	Block1	incongruent/STIM_012.jpg	99
253.266	0.813	812.6	incongruent	Block1	incongruent/STIM_012.jpg	100
257.386	1.458	1457.6	incongruent	Block1	incongruent/STIM_013.jpg	100
260.989	0.731	730.8	incongruent	Block1	incongruent/STIM_013.jpg	99
264.641	0.85	849.5	incongruent	Block1	incongruent/STIM_013.jpg	100
268.184	1.121	1121.2	incongruent	Block1	incongruent/STIM_013.jpg	99
271.439	1.09	1090.3	incongruent	Block1	incongruent/STIM_013.jpg	100
275.291	1.494	1493.8	incongruent	Block1	incongruent/STIM_014.jpg	99
280.395	1.158	1158.0	incongruent	Block1	incongruent/STIM_014.jpg	100
284.862	0.967	967.2	incongruent	Block1	incongruent/STIM_014.jpg	99
289.772	0.747	747.3	incongruent	Block1	incongruent/STIM_014.jpg	99
292.673	1.048	1048.4	incongruent	Block1	incongruent/STIM_014.jpg	99
296.599	1.079	1079.1	incongruent	Block1	incongruent/STIM_015.jpg	100
301.384	1.234	1234.4	incongruent	Block1	incongruent/STIM_015.jpg	99
306.271	1.169	1169.3	incongruent	Block1	incongruent/STIM_015.jpg	100
310.391	1.068	1067.6	incongruent	Block1	incongruent/STIM_015.jpg	100
314.301	1.203	1202.8	incongruent	Block1	incongruent/STIM_015.jpg	100
317.78	0.834	834.4	incongruent	Block1	incongruent/STIM_016.jpg	99
322.375	0.935	934.6	incongruent	Block1	incongruent/STIM_016.jpg	99
327.191	0.781	781.0	incongruent	Block1	incongruent/STIM_016.jpg	100
331.918	1.062	1062.2	incongruent	Block1	incongruent/STIM_016.jpg	99
335.488	1.178	1178.1	incongruent	Block1	incongruent/STIM_016.jpg	99
340.188	1.417	1416.7	incongruent	Block1	incongruent/STIM_017.jpg	99
343.726	1.169	1169.3	incongruent	Block1	incongruent/STIM_017.jpg	100
348.156	1.044	1044.0	incongruent	Block1	incongruent/STIM_017.jpg	99
351.337	1.274	1273.5	incongruent	Block1	incongruent/STIM_017.jpg	99
355.126	0.851	850.7	incongruent	Block1	incongruent/STIM_017.jpg	100
359.43	1.18	1179.5	incongruent	Block1	incongruent/STIM_018.jpg	99
362.85	1.393	1392.7	incongruent	Block1	incongruent/STIM_018.jpg	100
367.837	1.136	1135.7	incongruent	Block1	incongruent/STIM_018.jpg	99
371.332	1.129	1129.4	incongruent	Block1	incongruent/STIM_018.jpg	99
375.123	0.868	868.2	incongruent	Block1	incongruent/STIM_018.jpg	99
379.059	1.234	1234.3	incongruent	Block1	incongruent/STIM_019.jpg	99
383.595	0.722	721.9	incongruent	Block1	incongruent/STIM_019.jpg	99
387.85	0.657	657.3	incongruent	Block1	incongruent/STIM_019.jpg	99
391.995	1.042	1042.3	incongruent	Block1	incongruent/STIM_019.jpg	99
396.654	1.2	1199.7	incongruent	Block1	incongruent/STIM_019.jpg	99
401.244	1.25	1250.1	incongruent	Block1	incongruent/STIM_020.jpg	100
406.205	0.855	854.7	incongruent	Block1	incongruent/STIM_020.jpg	99
409.564	1.009	1009.4	incongruent	Block1	incongruent/STIM_020.jpg	99
414.305	1.105	1105.4	incongruent	Block1	incongruent/STIM_020.jpg	99
417.572	0.642	642.2	incongruent	Block1	incongruent/STIM_020.jpg	99
420.27	0.994	994.5	incongruent	Block1	incongruent/STIM_021.jpg	100
424.143	0.938	938.1	incongruent	Block1	incongruent/STIM_021.jpg	100
427.29	0.93	930.1	incongruent	Block1	incongruent/STIM_021.jpg	100
431.357	1.182	1182.4	incongruent	Block1	incongruent/STIM_021.jpg	99
434.687	1.073	1073.3	incongruent	Block1	incongruent/STIM_021.jpg	100
438.485	1.373	1373.0	incongruent	Block1	incongruent/STIM_022.jpg	100
442.757	0.749	748.9	incongruent	Block1	incongruent/STIM_022.jpg	100
446.539	1.29	1290.2	incongruent	Block1	incongruent/STIM_022.jpg	100
451.353	0.922	922.4	incongruent	Block1	incongruent/STIM_022.jpg	100
455.951	0.954	953.8	incongruent	Block1	incongruent/STIM_022.jpg	99
460.156	0.907	906.8	incongruent	Block1	incongruent/STIM_023.jpg	99
463.722	1.166	1166.1	incongruent	Block1	incongruent/STIM_023.jpg	100
468.397	0.636	635.9	incongruent	Block1	incongruent/STIM_023.jpg	99
472.688	0.967	967.3	incongruent	Block1	incongruent/STIM_023.jpg	100
477.325	0.575	575.4	incongruent	Block1	incongruent/STIM_023.jpg	100
480.675	0.789	789.4	incongruent	Block1	incongruent/STIM_024.jpg	100
484.667	1.358	1358.1	incongruent	Block1	incongruent/STIM_024.jpg	99
489.58	1.149	1149.1	incongruent	Block1	incongruent/STIM_024.jpg	100
493.265	0.672	672.0	incongruent	Block1	incongruent/STIM_024.jpg	100
496.338	1.003	1003.0	incongruent	Block1	incongruent/STIM_024.jpg	99
500.207	1.095	1095.4	incongruent	Block1	incongruent/STIM_025.jpg	99
503.495	0.828	828.3	incongruent	Block1	incongruent/STIM_025.jpg	99
507.173	1.016	1016.3	incongruent	Block1	incongruent/STIM_025.jpg	100
511.083	0.627	627.2	incongruent	Block1	incongruent/STIM_025.jpg	99
514.767	0.685	685.1	incongruent	Block1	incongruent/STIM_025.jpg	100
518.952	1.503	1502.8	incongruent	Block1	incongruent/STIM_026.jpg	99
523.263	1.104	1104.2	incongruent	Block1	incongruent/STIM_026.jpg	100
527.956	1.065	1064.6	incongruent	Block1	incongruent/STIM_026.jpg	100
531.855	1.273	1273.1	incongruent	Block1	incongruent/STIM_026.jpg	99
535.745	0.947	946.9	incongruent	Block1	incongruent/STIM_026.jpg	100
539.214	1.113	1112.6	incongruent	Block1	incongruent/STIM_027.jpg	100
543.388	1.211	1211.4	incongruent	Block1	incongruent/STIM_027.jpg	100
547.089	0.779	778.8	incongruent	Block1	incongruent/STIM_027.jpg	99
551.144	0.983	982.9	incongruent	Block1	incongruent/STIM_027.jpg	100
555.971	0.669	669.3	incongruent	Block1	incongruent/STIM_027.jpg	99
560.229	1.504	1504.3	incongruent	Block1	incongruent/STIM_028.jpg	100
564.178	0.944	943.5	incongruent	Block1	incongruent/STIM_028.jpg	100
568.291	0.645	644.7	incongruent	Block1	incongruent/STIM_028.jpg	100
572.716	0.865	865.1	incongruent	Block1	incongruent/STIM_028.jpg	99
576.199	1.144	1144.4	incongruent	Block1	incongruent/STIM_028.jpg	99
581.073	1.228	1228.1	incongruent	Block1	incongruent/STIM_029.jpg	100
585.373	1.338	1337.7	incongruent	Block1	incongruent/STIM_029.jpg	99
589.245	1.065	1065.2	incongruent	Block1	incongruent/STIM_029.jpg	100
593.725	0.66	659.9	incongruent	Block1	incongruent/STIM_029.jpg	100
596.645	1.173	1173.2	incongruent	Block1	incongruent/STIM_029.jpg	99
600.079	0.883	883.4	congruent	Block1	congruent/STIM_000.jpg	99
604.508	0.731	730.6	congruent	Block1	congruent/STIM_000.jpg	99
608.796	0.75	750.4	congruent	Block1	congruent/STIM_000.jpg	99
612.55	0.798	798.2	congruent	Block1	congruent/STIM_000.jpg	100
617.342	0.874	874.4	congruent	Block1	congruent/STIM_000.jpg	99
621.907	0.778	778.1	congruent	Block1	congruent/STIM_001.jpg	99
625.493	0.829	829.2	congruent	Block1	congruent/STIM_001.jpg	100
629.528	0.574	573.8	congruent	Block1	congruent/STIM_001.jpg	100
633.809	0.571	571.0	congruent	Block1	congruent/STIM_001.jpg	100
637.848	0.55	549.8	congruent	Block1	congruent/STIM_001.jpg	99
640.848	0.811	811.2	congruent	Block1	congruent/STIM_002.jpg	99
645.228	0.868	867.8	congruent	Block1	congruent/STIM_002.jpg	100
649.39	0.845	845.2	congruent	Block1	congruent/STIM_002.jpg	99
652.459	0.768	768.4	congruent	Block1	congruent/STIM_002.jpg	100
657.09	0.537	537.3	congruent	Block1	congruent/STIM_002.jpg	100
660.158	0.839	838.9	congruent	Block1	congruent/STIM_003.jpg	100
663.5	0.614	613.8	congruent	Block1	congruent/STIM_003.jpg	100
668.1	0.698	697.7	congruent	Block1	congruent/STIM_003.jpg	99
671.741	0.865	865.0	congruent	Block1	congruent/STIM_003.jpg	99
675.872	0.687	686.8	congruent	Block1	congruent/STIM_003.jpg	99
679.36	0.831	831.0	congruent	Block1	congruent/STIM_004.jpg	100
682.492	0.708	708.0	congruent	Block1	congruent/STIM_004.jpg	100
685.808	0.679	678.9	congruent	Block1	congruent/STIM_004.jpg	99
690.431	0.625	624.8	congruent	Block1	congruent/STIM_004.jpg	100
693.939	0.526	525.9	congruent	Block1	congruent/STIM_004.jpg	99
698.455	0.578	578.0	congruent	Block1	congruent/STIM_005.jpg	99
701.102	0.828	827.8	congruent	Block1	congruent/STIM_005.jpg	100
704.652	0.637	636.8	congruent	Block1	congruent/STIM_005.jpg	99
708.679	0.634	634.2	congruent	Block1	congruent/STIM_005.jpg	99
712.113	0.628	627.5	congruent	Block1	congruent/STIM_005.jpg	99
715.067	0.598	598.1	congruent	Block1	congruent/STIM_006.jpg	100
719.593	0.673	672.7	congruent	Block1	congruent/STIM_006.jpg	99
724.184	0.65	649.6	congruent	Block1	congruent/STIM_006.jpg	100
727.127	0.87	870.0	congruent	Block1	congruent/STIM_006.jpg	100
731.951	0.659	658.8	congruent	Block1	congruent/STIM_006.jpg	100
734.789	0.684	683.5	congruent	Block1	congruent/STIM_007.jpg	100
738.272	0.804	804.1	congruent	Block1	congruent/STIM_007.jpg	99
743.032	0.628	628.4	congruent	Block1	congruent/STIM_007.jpg	99
745.75	0.582	582.1	congruent	Block1	congruent/STIM_007.jpg	99
749.146	0.821	820.8	congruent	Block1	congruent/STIM_007.jpg	99
752.455	0.56	559.7	congruent	Block1	congruent/STIM_008.jpg	100
755.926	0.531	531.4	congruent	Block1	congruent/STIM_008.jpg	99
760.048	0.791	791.4	congruent	Block1	congruent/STIM_008.jpg	99
764.51	0.791	790.7	congruent	Block1	congruent/STIM_008.jpg	99
767.417	0.506	505.7	congruent	Block1	congruent/STIM_008.jpg	100
770.643	0.661	660.7	congruent	Block1	congruent/STIM_009.jpg	100
773.398	0.522	521.8	congruent	Block1	congruent/STIM_009.jpg	100
776.126	0.698	697.9	congruent	Block1	congruent/STIM_009.jpg	100
779.925	0.575	574.8	congruent	Block1	congruent/STIM_009.jpg	100
783.187	0.654	653.5	congruent	Block1	congruent/STIM_009.jpg	100
787.781	0.61	609.7	congruent	Block1	congruent/STIM_010.jpg	99
790.891	0.784	784.5	congruent	Block1	congruent/STIM_010.jpg	99
795.118	0.593	593.3	congruent	Block1	congruent/STIM_010.jpg	100
799.308	0.806	805.8	congruent	Block1	congruent/STIM_010.jpg	99
803.923	0.504	503.7	congruent	Block1	congruent/STIM_010.jpg	100
806.97	0.521	521.3	congruent	Block1	congruent/STIM_011.jpg	100
810.984	0.692	692.2	congruent	Block1	congruent/STIM_011.jpg	100
814.236	0.602	602.0	congruent	Block1	congruent/STIM_011.jpg	100
818.784	0.73	730.3	congruent	Block1	congruent/STIM_011.jpg	100
822.872	0.816	816.5	congruent	Block1	congruent/STIM_011.jpg	100
826.68	0.692	692.4	congruent	Block1	congruent/STIM_012.jpg	99
830.411	0.871	870.7	congruent	Block1	congruent/STIM_012.jpg	100
834.051	0.542	542.1	congruent	Block1	congruent/STIM_012.jpg	99
837.016	0.815	814.6	congruent	Block1	congruent/STIM_012.jpg	100
840.501	0.663	663.2	congruent	Block1	congruent/STIM_012.jpg	99
844.041	0.844	843.8	congruent	Block1	congruent/STIM_013.jpg	99
847.661	0.761	761.1	congruent	Block1	congruent/STIM_013.jpg	99
850.883	0.721	721.3	congruent	Block1	congruent/STIM_013.jpg	100
854.509	0.573	573.3	congruent	Block1	congruent/STIM_013.jpg	100
857.226	0.536	535.7	congruent	Block1	congruent/STIM_013.jpg	100
861.089	0.684	683.7	congruent	Block1	congruent/STIM_014.jpg	99
865.178	0.819	818.7	congruent	Block1	congruent/STIM_014.jpg	99
868.203	0.634	633.8	congruent	Block1	congruent/STIM_014.jpg	100
870.92	0.517	517.3	congruent	Block1	congruent/STIM_014.jpg	100
873.967	0.597	597.4	congruent	Block1	congruent/STIM_014.jpg	99
876.813	0.64	639.5	congruent	Block1	congruent/STIM_015.jpg	99
880.958	0.898	898.5	congruent	Block1	congruent/STIM_015.jpg	100
885.758	0.84	839.6	congruent	Block1	congruent/STIM_015.jpg	99
889.905	0.835	835.3	congruent	Block1	congruent/STIM_015.jpg	100
892.749	0.772	772.2	congruent	Block1	congruent/STIM_015.jpg	99
896.707	0.778	777.9	congruent	Block1	congruent/STIM_016.jpg	100
900.607	0.69	690.4	congruent	Block1	congruent/STIM_016.jpg	99
903.942	0.593	593.1	congruent	Block1	congruent/STIM_016.jpg	99
906.858	0.829	829.4	congruent	Block1	congruent/STIM_016.jpg	99
910.871	0.858	858.0	congruent	Block1	congruent/STIM_016.jpg	100
914.891	0.787	787.3	congruent	Block1	congruent/STIM_017.jpg	99
918.427	0.516	516.4	congruent	Block1	congruent/STIM_017.jpg	99
920.986	0.594	593.5	congruent	Block1	congruent/STIM_017.jpg	99
923.697	0.795	794.8	congruent	Block1	congruent/STIM_017.jpg	100
927.945	0.9	899.9	congruent	Block1	congruent/STIM_017.jpg	100
931.604	0.817	816.7	congruent	Block1	congruent/STIM_018.jpg	100
935.75	0.705	705.4	congruent	Block1	congruent/STIM_018.jpg	99
939.47	0.536	536.2	congruent	Block1	congruent/STIM_018.jpg	100
942.579	0.59	589.7	congruent	Block1	congruent/STIM_018.jpg	99
945.492	0.531	531.2	congruent	Block1	congruent/STIM_018.jpg	99
948.048	0.676	675.8	congruent	Block1	congruent/STIM_019.jpg	100
951.121	0.867	867.0	congruent	Block1	congruent/STIM_019.jpg	100
955.695	0.855	855.0	congruent	Block1	congruent/STIM_019.jpg	100
959.657	0.618	617.7	congruent	Block1	congruent/STIM_019.jpg	100
962.396	0.825	825.2	congruent	Block1	congruent/STIM_019.jpg	100
965.787	0.589	589.4	congruent	Block1	congruent/STIM_020.jpg	100
969.893	0.595	595.3	congruent	Block1	congruent/STIM_020.jpg	99
973.071	0.794	793.7	congruent	Block1	congruent/STIM_020.jpg	100
976.229	0.844	844.2	congruent	Block1	congruent/STIM_020.jpg	100
980.79	0.575	574.6	congruent	Block1	congruent/STIM_020.jpg	100
984.801	0.843	843.0	congruent	Block1	congruent/STIM_021.jpg	100
987.847	0.785	785.0	congruent	Block1	congruent/STIM_021.jpg	99
992.369	0.719	719.4	congruent	Block1	congruent/STIM_021.jpg	99
996.666	0.798	797.8	congruent	Block1	congruent/STIM_021.jpg	100
999.688	0.63	630.0	congruent	Block1	congruent/STIM_021.jpg	100
1002.357	0.869	869.3	congruent	Block1	congruent/STIM_022.jpg	100
1005.623	0.843	843.1	congruent	Block1	congruent/STIM_022.jpg	100
1008.812	0.635	635.2	congruent	Block1	congruent/STIM_022.jpg	99
1012.221	0.771	770.8	congruent	Block1	congruent/STIM_022.jpg	99
1015.378	0.844	843.7	congruent	Block1	congruent/STIM_022.jpg	99
1019.63	0.56	559.5	congruent	Block1	congruent/STIM_023.jpg	100
1022.411	0.713	712.8	congruent	Block1	congruent/STIM_023.jpg	99
1026.514	0.829	829.3	congruent	Block1	congruent/STIM_023.jpg	99
1031.258	0.696	695.9	congruent	Block1	congruent/STIM_023.jpg	100
1035.115	0.598	597.7	congruent	Block1	congruent/STIM_023.jpg	100
1039.521	0.664	663.6	congruent	Block1	congruent/STIM_024.jpg	99
1042.681	0.701	700.6	congruent	Block1	congruent/STIM_024.jpg	100
1045.572	0.81	810.4	congruent	Block1	congruent/STIM_024.jpg	100
1048.843	0.798	797.6	congruent	Block1	congruent/STIM_024.jpg	99
1053.218	0.882	881.8	congruent	Block1	congruent/STIM_024.jpg	99
1057.505	0.658	657.9	congruent	Block1	congruent/STIM_025.jpg	100
1060.392	0.804	804.5	congruent	Block1	congruent/STIM_025.jpg	99
1063.999	0.83	829.7	congruent	Block1	congruent/STIM_025.jpg	100
1067.05	0.728	728.5	congruent	Block1	congruent/STIM_025.jpg	99
1071.773	0.802	801.8	congruent	Block1	congruent/STIM_025.jpg	99
1076.104	0.747	746.8	congruent	Block1	congruent/STIM_026.jpg	99
1080.234	0.512	512.1	congruent	Block1	congruent/STIM_026.jpg	99
1083.333	0.73	729.7	congruent	Block1	congruent/STIM_026.jpg	100
1086.419	0.892	891.8	congruent	Block1	congruent/STIM_026.jpg	100
1090.391	0.905	905.0	congruent	Block1	congruent/STIM_026.jpg	100
1093.339	0.871	870.6	congruent	Block1	congruent/STIM_027.jpg	100
1098.098	0.866	866.2	congruent	Block1	congruent/STIM_027.jpg	99
1101.994	0.805	804.8	congruent	Block1	congruent/STIM_027.jpg	100
1105.769	0.826	826.5	congruent	Block1	congruent/STIM_027.jpg	99
1109.566	0.778	778.3	congruent	Block1	congruent/STIM_027.jpg	99
1113.938	0.573	572.7	congruent	Block1	congruent/STIM_028.jpg	100
1117.822	0.69	689.7	congruent	Block1	congruent/STIM_028.jpg	100
1120.716	0.569	568.8	congruent	Block1	congruent/STIM_028.jpg	99
1124.687	0.538	537.6	congruent	Block1	congruent/STIM_028.jpg	100
1128.544	0.556	556.1	congruent	Block1	congruent/STIM_028.jpg	99
1132.128	0.781	780.6	congruent	Block1	congruent/STIM_029.jpg	99
1134.923	0.677	676.8	congruent	Block1	congruent/STIM_029.jpg	100
1137.782	0.644	644.3	congruent	Block1	congruent/STIM_029.jpg	99
1141.014	0.603	603.3	congruent	Block1	congruent/STIM_029.jpg	100
1145.115	0.705	704.9	congruent	Block1	congruent/STIM_029.jpg	99
1148.619	1.035	1035.4	incongruent	Block2	incongruent/STIM_000.jpg	100
1152.956	0.739	739.0	incongruent	Block2	incongruent/STIM_000.jpg	99
1157.653	0.8	799.5	incongruent	Block2	incongruent/STIM_000.jpg	99
1160.843	0.618	618.1	incongruent	Block2	incongruent/STIM_000.jpg	100
1163.992	0.924	923.5	incongruent	Block2	incongruent/STIM_000.jpg	100
1167.76	1.021	1020.7	incongruent	Block2	incongruent/STIM_001.jpg	100
1172.667	0.797	796.8	incongruent	Block2	incongruent/STIM_001.jpg	99
1176.174	0.545	544.9	incongruent	Block2	incongruent/STIM_001.jpg	99
1179.203	0.874	873.7	incongruent	Block2	incongruent/STIM_001.jpg	99
1183.891	0.646	646.3	incongruent	Block2	incongruent/STIM_001.jpg	100
1187.125	0.976	976.4	incongruent	Block2	incongruent/STIM_002.jpg	99
1190.177	1.139	1138.6	incongruent	Block2	incongruent/STIM_002.jpg	100
1193.54	0.721	721.4	incongruent	Block2	incongruent/STIM_002.jpg	99
1196.801	0.941	941.3	incongruent	Block2	incongruent/STIM_002.jpg	99
1199.988	0.647	647.3	incongruent	Block2	incongruent/STIM_002.jpg	99
1204.407	0.943	943.2	incongruent	Block2	incongruent/STIM_003.jpg	100
1207.737	0.969	969.3	incongruent	Block2	incongruent/STIM_003.jpg	100
1211.128	1.118	1117.9	incongruent	Block2	incongruent/STIM_003.jpg	99
1216.1	0.801	800.9	incongruent	Block2	incongruent/STIM_003.jpg	99
1219.841	0.726	725.7	incongruent	Block2	incongruent/STIM_003.jpg	99
1223.422	1.143	1143.0	incongruent	Block2	incongruent/STIM_004.jpg	100
1227.566	0.66	659.9	incongruent	Block2	incongruent/STIM_004.jpg	99
1231.781	0.91	910.1	incongruent	Block2	incongruent/STIM_004.jpg	99
1236.359	0.895	895.0	incongruent	Block2	incongruent/STIM_004.jpg	100
1240.608	0.742	742.4	incongruent	Block2	incongruent/STIM_004.jpg	99
1243.36	0.798	797.9	incongruent	Block2	incongruent/STIM_005.jpg	100
1246.915	0.877	877.1	incongruent	Block2	incongruent/STIM_005.jpg	100
1249.978	0.621	621.1	incongruent	Block2	incongruent/STIM_005.jpg	99
1253.201	0.622	622.2	incongruent	Block2	incongruent/STIM_005.jpg	100
1257.306	0.764	764.2	incongruent	Block2	incongruent/STIM_005.jpg	100
1260.492	0.707	707.1	incongruent	Block2	incongruent/STIM_006.jpg	100
1265.004	0.767	767.1	incongruent	Block2	incongruent/STIM_006.jpg	99
1268.072	0.687	686.9	incongruent	Block2	incongruent/STIM_006.jpg	99
1272.37	1.03	1030.2	incongruent	Block2	incongruent/STIM_006.jpg	99
1277.236	0.827	827.0	incongruent	Block2	incongruent/STIM_006.jpg	100
1281.16	1.037	1036.9	incongruent	Block2	incongruent/STIM_007.jpg	99
1284.697	0.893	893.4	incongruent	Block2	incongruent/STIM_007.jpg	99
1288.597	0.874	874.2	incongruent	Block2	incongruent/STIM_007.jpg	99
1293.042	0.704	704.5	incongruent	Block2	incongruent/STIM_007.jpg	99
1296.754	1.008	1007.7	incongruent	Block2	incongruent/STIM_007.jpg	100
1300.518	0.965	965.1	incongruent	Block2	incongruent/STIM_008.jpg	100
1303.647	1.061	1061.2	incongruent	Block2	incongruent/STIM_008.jpg	99
1307.71	1.039	1038.7	incongruent	Block2	incongruent/STIM_008.jpg	99
1312.523	0.929	928.8	incongruent	Block2	incongruent/STIM_008.jpg	99
1317.398	0.868	868.3	incongruent	Block2	incongruent/STIM_008.jpg	99
1320.911	1.015	1015.3	incongruent	Block2	incongruent/STIM_009.jpg	100
1324.688	1.109	1109.2	incongruent	Block2	incongruent/STIM_009.jpg	99
1328.803	1.039	1038.8	incongruent	Block2	incongruent/STIM_009.jpg	99
1333.493	0.582	582.5	incongruent	Block2	incongruent/STIM_009.jpg	99
1336.294	1.044	1044.2	incongruent	Block2	incongruent/STIM_009.jpg	99
1341.167	0.926	925.5	incongruent	Block2	incongruent/STIM_010.jpg	100
1344.794	1.172	1171.7	incongruent	Block2	incongruent/STIM_010.jpg	99
1349.87	0.879	879.4	incongruent	Block2	incongruent/STIM_010.jpg	99
1354.121	0.936	936.4	incongruent	Block2	incongruent/STIM_010.jpg	100
1358.712	0.818	818.3	incongruent	Block2	incongruent/STIM_010.jpg	100
1363.208	0.769	769.1	incongruent	Block2	incongruent/STIM_011.jpg	99
1367.903	0.783	783.0	incongruent	Block2	incongruent/STIM_011.jpg	100
1372.413	0.699	698.9	incongruent	Block2	incongruent/STIM_011.jpg	100
1376.871	0.873	873.1	incongruent	Block2	incongruent/STIM_011.jpg	100
1380.572	0.921	921.3	incongruent	Block2	incongruent/STIM_011.jpg	99
1384.143	1.077	1077.3	incongruent	Block2	incongruent/STIM_012.jpg	99
1388.204	0.725	724.6	incongruent	Block2	incongruent/STIM_012.jpg	99
1391.18	0.9	900.3	incongruent	Block2	incongruent/STIM_012.jpg	100
1395.157	0.641	641.4	incongruent	Block2	incongruent/STIM_012.jpg	99
1399.572	0.607	606.9	incongruent	Block2	incongruent/STIM_012.jpg	100
1403.363	0.724	724.4	incongruent	Block2	incongruent/STIM_013.jpg	100
1407.11	0.634	634.5	incongruent	Block2	incongruent/STIM_013.jpg	100
1410.929	0.821	821.0	incongruent	Block2	incongruent/STIM_013.jpg	99
1415.048	0.525	525.2	incongruent	Block2	incongruent/STIM_013.jpg	100
1418.212	0.731	731.1	incongruent	Block2	incongruent/STIM_013.jpg	100
1421.503	1.213	1213.4	incongruent	Block2	incongruent/STIM_014.jpg	99
1426.382	0.982	982.5	incongruent	Block2	incongruent/STIM_014.jpg	100
1431.007	0.98	979.7	incongruent	Block2	incongruent/STIM_014.jpg	99
1435.896	0.722	721.8	incongruent	Block2	incongruent/STIM_014.jpg	99
1438.782	0.844	843.7	incongruent	Block2	incongruent/STIM_014.jpg	99
1442.433	0.965	964.6	incongruent	Block2	incongruent/STIM_015.jpg	99
1447.153	0.914	914.0	incongruent	Block2	incongruent/STIM_015.jpg	100
1450.526	1.062	1061.9	incongruent	Block2	incongruent/STIM_015.jpg	100
1454.373	0.679	679.3	incongruent	Block2	incongruent/STIM_015.jpg	100
1458.028	0.757	756.9	incongruent	Block2	incongruent/STIM_015.jpg	100
1462.592	0.626	626.0	incongruent	Block2	incongruent/STIM_016.jpg	100
1466.905	0.721	720.7	incongruent	Block2	incongruent/STIM_016.jpg	99
1470.108	0.898	898.1	incongruent	Block2	incongruent/STIM_016.jpg	100
1474.294	0.64	639.9	incongruent	Block2	incongruent/STIM_016.jpg	100
1477.504	0.715	714.8	incongruent	Block2	incongruent/STIM_016.jpg	99
1480.468	0.623	622.7	incongruent	Block2	incongruent/STIM_017.jpg	100
1484.262	1.206	1205.9	incongruent	Block2	incongruent/STIM_017.jpg	100
1488.876	1.055	1054.8	incongruent	Block2	incongruent/STIM_017.jpg	99
1493.502	0.715	715.0	incongruent	Block2	incongruent/STIM_017.jpg	99
1497.202	0.647	646.9	incongruent	Block2	incongruent/STIM_017.jpg	99
1500.999	0.732	731.6	incongruent	Block2	incongruent/STIM_018.jpg	99
1504.333	0.585	585.1	incongruent	Block2	incongruent/STIM_018.jpg	99
1508.791	0.889	889.3	incongruent	Block2	incongruent/STIM_018.jpg	100
1512.62	0.684	684.3	incongruent	Block2	incongruent/STIM_018.jpg	99
1516.748	0.588	588.1	incongruent	Block2	incongruent/STIM_018.jpg	100
1520.605	0.971	971.3	incongruent	Block2	incongruent/STIM_019.jpg	99
1525.184	0.906	905.9	incongruent	Block2	incongruent/STIM_019.jpg	99
1528.954	0.926	925.7	incongruent	Block2	incongruent/STIM_019.jpg	99
1531.921	1.055	1054.9	incongruent	Block2	incongruent/STIM_019.jpg	100
1535.016	0.631	631.0	incongruent	Block2	incongruent/STIM_019.jpg	99
1538.154	0.789	789.1	incongruent	Block2	incongruent/STIM_020.jpg	99
1541.673	0.909	908.9	incongruent	Block2	incongruent/STIM_020.jpg	99
1545.041	0.805	804.8	incongruent	Block2	incongruent/STIM_020.jpg	100
1549.227	0.829	828.8	incongruent	Block2	incongruent/STIM_020.jpg	99
1552.265	1.004	1003.6	incongruent	Block2	incongruent/STIM_020.jpg	99
1556.804	0.651	651.3	incongruent	Block2	incongruent/STIM_021.jpg	100
1560.118	0.761	761.2	incongruent	Block2	incongruent/STIM_021.jpg	99
1564.04	0.692	691.7	incongruent	Block2	incongruent/STIM_021.jpg	100
1567.312	0.884	884.5	incongruent	Block2	incongruent/STIM_021.jpg	100
1571.679	0.799	799.3	incongruent	Block2	incongruent/STIM_021.jpg	100
1574.768	1.216	1215.5	incongruent	Block2	incongruent/STIM_022.jpg	99
1578.875	1.095	1095.0	incongruent	Block2	incongruent/STIM_022.jpg	100
1582.938	0.648	647.8	incongruent	Block2	incongruent/STIM_022.jpg	100
1586.614	0.762	762.2	incongruent	Block2	incongruent/STIM_022.jpg	100
1590.64	0.73	730.5	incongruent	Block2	incongruent/STIM_022.jpg	99
1593.554	0.696	696.5	incongruent	Block2	incongruent/STIM_023.jpg	100
1596.417	1.167	1167.3	incongruent	Block2	incongruent/STIM_023.jpg	100
1600.388	0.668	667.5	incongruent	Block2	incongruent/STIM_023.jpg	99
1605.03	0.555	555.0	incongruent	Block2	incongruent/STIM_023.jpg	99
1608.363	0.62	619.6	incongruent	Block2	incongruent/STIM_023.jpg	100
1612.957	0.965	965.0	incongruent	Block2	incongruent/STIM_024.jpg	99
1617.185	1.0	999.5	incongruent	Block2	incongruent/STIM_024.jpg	100
1621.26	0.958	958.1	incongruent	Block2	incongruent/STIM_024.jpg	99
1625.813	0.996	996.5	incongruent	Block2	incongruent/STIM_024.jpg	99
1630.428	0.714	714.2	incongruent	Block2	incongruent/STIM_024.jpg	100
1634.699	0.69	690.3	incongruent	Block2	incongruent/STIM_025.jpg	100
1637.636	1.144	1143.9	incongruent	Block2	incongruent/STIM_025.jpg	99
1642.721	0.741	741.3	incongruent	Block2	incongruent/STIM_025.jpg	100
1646.487	0.823	823.0	incongruent	Block2	incongruent/STIM_025.jpg	100
1651.223	0.757	756.8	incongruent	Block2	incongruent/STIM_025.jpg	100
1655.475	0.841	841.0	incongruent	Block2	incongruent/STIM_026.jpg	99
1658.621	1.083	1082.9	incongruent	Block2	incongruent/STIM_026.jpg	99
1663.347	0.954	953.9	incongruent	Block2	incongruent/STIM_026.jpg	100
1668.03	0.693	693.2	incongruent	Block2	incongruent/STIM_026.jpg	100
1671.685	0.905	905.2	incongruent	Block2	incongruent/STIM_026.jpg	99
1674.705	0.605	604.6	incongruent	Block2	incongruent/STIM_027.jpg	100
1678.017	0.938	938.2	incongruent	Block2	incongruent/STIM_027.jpg	100
1682.836	0.798	798.0	incongruent	Block2	incongruent/STIM_027.jpg	99
1686.626	0.8	800.0	incongruent	Block2	incongruent/STIM_027.jpg	99
1690.502	0.983	983.2	incongruent	Block2	incongruent/STIM_027.jpg	100
1694.842	1.205	1205.3	incongruent	Block2	incongruent/STIM_028.jpg	99
1699.787	0.721	721.3	incongruent	Block2	incongruent/STIM_028.jpg	100
1704.347	0.878	878.1	incongruent	Block2	incongruent/STIM_028.jpg	99
1708.283	0.917	917.4	incongruent	Block2	incongruent/STIM_028.jpg	100
1711.923	0.76	760.5	incongruent	Block2	incongruent/STIM_028.jpg	99
1716.246	0.83	830.1	incongruent	Block2	incongruent/STIM_029.jpg	100
1719.815	0.755	755.2	incongruent	Block2	incongruent/STIM_029.jpg	99
1722.952	0.556	556.0	incongruent	Block2	incongruent/STIM_029.jpg	100
1726.61	0.841	841.4	incongruent	Block2	incongruent/STIM_029.jpg	99
1731.371	0.937	937.4	incongruent	Block2	incongruent/STIM_029.jpg	100
1735.977	0.879	878.6	congruent	Block2	congruent/STIM_000.jpg	100
1739.488	0.84	839.7	congruent	Block2	congruent/STIM_000.jpg	100
1743.332	0.753	753.1	congruent	Block2	congruent/STIM_000.jpg	99
1746.634	0.797	796.8	congruent	Block2	congruent/STIM_000.jpg	100
1750.302	0.612	611.7	congruent	Block2	congruent/STIM_000.jpg	100
1754.108	0.756	756.3	congruent	Block2	congruent/STIM_001.jpg	99
1758.614	0.513	512.9	congruent	Block2	congruent/STIM_001.jpg	100
1762.148	0.771	770.7	congruent	Block2	congruent/STIM_001.jpg	100
1766.859	0.674	673.6	congruent	Block2	congruent/STIM_001.jpg	100
1769.784	0.865	864.7	congruent	Block2	congruent/STIM_001.jpg	99
1773.065	0.73	729.7	congruent	Block2	congruent/STIM_002.jpg	100
1777.178	0.818	817.9	congruent	Block2	congruent/STIM_002.jpg	99
1780.939	0.688	688.4	congruent	Block2	congruent/STIM_002.jpg	100
1785.408	0.79	789.5	congruent	Block2	congruent/STIM_002.jpg	99
1789.027	0.706	705.9	congruent	Block2	congruent/STIM_002.jpg	100
1792.297	0.741	741.3	congruent	Block2	congruent/STIM_003.jpg	100
1796.334	0.768	767.5	congruent	Block2	congruent/STIM_003.jpg	100
1800.066	0.855	854.7	congruent	Block2	congruent/STIM_003.jpg	100
1804.719	0.636	636.3	congruent	Block2	congruent/STIM_003.jpg	100
1808.953	0.862	861.8	congruent	Block2	congruent/STIM_003.jpg	100
1811.836	0.532	532.3	congruent	Block2	congruent/STIM_004.jpg	99
1815.589	0.504	503.7	congruent	Block2	congruent/STIM_004.jpg	100
1818.435	0.602	601.6	congruent	Block2	congruent/STIM_004.jpg	99
1821.939	0.866	866.2	congruent	Block2	congruent/STIM_004.jpg	99
1825.581	0.901	901.2	congruent	Block2	congruent/STIM_004.jpg	100
1829.858	0.681	680.8	congruent	Block2	congruent/STIM_005.jpg	99
1833.916	0.794	793.8	congruent	Block2	congruent/STIM_005.jpg	100
1838.652	0.563	563.3	congruent	Block2	congruent/STIM_005.jpg	99
1841.279	0.612	611.8	congruent	Block2	congruent/STIM_005.jpg	99
1844.687	0.88	880.5	congruent	Block2	congruent/STIM_005.jpg	99
1849.078	0.813	812.6	congruent	Block2	congruent/STIM_006.jpg	99
1853.298	0.897	897.3	congruent	Block2	congruent/STIM_006.jpg	99
1858.105	0.771	770.8	congruent	Block2	congruent/STIM_006.jpg	100
1862.492	0.696	695.8	congruent	Block2	congruent/STIM_006.jpg	99
1866.64	0.702	702.5	congruent	Block2	congruent/STIM_006.jpg	100
1870.295	0.549	549.3	congruent	Block2	congruent/STIM_007.jpg	99
1874.254	0.755	754.6	congruent	Block2	congruent/STIM_007.jpg	100
1877.147	0.871	870.8	congruent	Block2	congruent/STIM_007.jpg	99
1881.514	0.709	708.9	congruent	Block2	congruent/STIM_007.jpg	100
1885.442	0.704	704.4	congruent	Block2	congruent/STIM_007.jpg	99
1889.895	0.831	831.1	congruent	Block2	congruent/STIM_008.jpg	99
1894.721	0.841	840.6	congruent	Block2	congruent/STIM_008.jpg	100
1897.787	0.516	516.0	congruent	Block2	congruent/STIM_008.jpg	99
1901.295	0.638	638.0	congruent	Block2	congruent/STIM_008.jpg	99
1904.519	0.626	625.5	congruent	Block2	congruent/STIM_008.jpg	99
1908.157	0.761	761.3	congruent	Block2	congruent/STIM_009.jpg	99
1911.2	0.714	714.1	congruent	Block2	congruent/STIM_009.jpg	99
1914.686	0.687	687.0	congruent	Block2	congruent/STIM_009.jpg	100
1918.056	0.85	849.7	congruent	Block2	congruent/STIM_009.jpg	99
1922.834	0.893	893.1	congruent	Block2	congruent/STIM_009.jpg	99
1926.071	0.668	668.4	congruent	Block2	congruent/STIM_010.jpg	99
1929.857	0.876	876.2	congruent	Block2	congruent/STIM_010.jpg	100
1933.71	0.622	622.5	congruent	Block2	congruent/STIM_010.jpg	99
1937.386	0.896	895.6	congruent	Block2	congruent/STIM_010.jpg	100
1941.707	0.883	882.6	congruent	Block2	congruent/STIM_010.jpg	99
1945.192	0.684	684.5	congruent	Block2	congruent/STIM_011.jpg	100
1948.839	0.761	761.2	congruent	Block2	congruent/STIM_011.jpg	99
1951.711	0.576	576.3	congruent	Block2	congruent/STIM_011.jpg	100
1955.46	0.635	635.4	congruent	Block2	congruent/STIM_011.jpg	100
1959.13	0.638	638.2	congruent	Block2	congruent/STIM_011.jpg	99
1962.139	0.78	779.6	congruent	Block2	congruent/STIM_012.jpg	99
1965.703	0.674	673.6	congruent	Block2	congruent/STIM_012.jpg	100
1968.608	0.583	583.3	congruent	Block2	congruent/STIM_012.jpg	100
1971.759	0.68	679.8	congruent	Block2	congruent/STIM_012.jpg	99
1974.651	0.863	863.1	congruent	Block2	congruent/STIM_012.jpg	100
1979.389	0.841	841.3	congruent	Block2	congruent/STIM_013.jpg	100
1983.617	0.67	670.3	congruent	Block2	congruent/STIM_013.jpg	100
1986.381	0.76	759.8	congruent	Block2	congruent/STIM_013.jpg	99
1989.198	0.704	703.8	congruent	Block2	congruent/STIM_013.jpg	100
1992.444	0.764	763.5	congruent	Block2	congruent/STIM_013.jpg	99
1996.147	0.591	591.0	congruent	Block2	congruent/STIM_014.jpg	99
2000.684	0.777	776.8	congruent	Block2	congruent/STIM_014.jpg	99
2003.67	0.782	782.2	congruent	Block2	congruent/STIM_014.jpg	100
2007.768	0.549	549.3	congruent	Block2	congruent/STIM_014.jpg	100
2011.161	0.605	605.2	congruent	Block2	congruent/STIM_014.jpg	100
2014.13	0.895	895.4	congruent	Block2	congruent/STIM_015.jpg	100
2017.557	0.524	524.5	congruent	Block2	congruent/STIM_015.jpg	100
2021.184	0.849	848.7	congruent	Block2	congruent/STIM_015.jpg	99
2025.063	0.522	521.9	congruent	Block2	congruent/STIM_015.jpg	99
2029.322	0.688	688.1	congruent	Block2	congruent/STIM_015.jpg	99
2033.933	0.534	534.5	congruent	Block2	congruent/STIM_016.jpg	100
2037.497	0.537	536.8	congruent	Block2	congruent/STIM_016.jpg	99
2041.53	0.676	676.2	congruent	Block2	congruent/STIM_016.jpg	100
2045.345	0.807	807.4	congruent	Block2	congruent/STIM_016.jpg	99
2049.518	0.808	808.1	congruent	Block2	congruent/STIM_016.jpg	99
2052.616	0.779	779.3	congruent	Block2	congruent/STIM_017.jpg	100
2056.883	0.901	901.1	congruent	Block2	congruent/STIM_017.jpg	100
2060.539	0.757	757.3	congruent	Block2	congruent/STIM_017.jpg	100
2063.801	0.618	618.5	congruent	Block2	congruent/STIM_017.jpg	99
2068.019	0.736	735.9	congruent	Block2	congruent/STIM_017.jpg	100
2070.856	0.685	685.2	congruent	Block2	congruent/STIM_018.jpg	100
2075.021	0.719	718.8	congruent	Block2	congruent/STIM_018.jpg	100
2077.791	0.756	756.1	congruent	Block2	congruent/STIM_018.jpg	100
2081.194	0.782	781.6	congruent	Block2	congruent/STIM_018.jpg	100
2085.42	0.875	874.7	congruent	Block2	congruent/STIM_018.jpg	100
2089.421	0.842	841.7	congruent	Block2	congruent/STIM_019.jpg	99
2092.492	0.611	611.3	congruent	Block2	congruent/STIM_019.jpg	99
2095.458	0.903	903.4	congruent	Block2	congruent/STIM_019.jpg	100
2099.224	0.516	516.0	congruent	Block2	congruent/STIM_019.jpg	100
2103.109	0.702	701.5	congruent	Block2	congruent/STIM_019.jpg	99
2106.388	0.698	697.6	congruent	Block2	congruent/STIM_020.jpg	99
2109.205	0.853	852.7	congruent	Block2	congruent/STIM_020.jpg	100
2113.216	0.83	830.0	congruent	Block2	congruent/STIM_020.jpg	99
2117.182	0.719	719.1	congruent	Block2	congruent/STIM_020.jpg	99
2120.391	0.754	753.5	congruent	Block2	congruent/STIM_020.jpg	99
2123.719	0.845	844.7	congruent	Block2	congruent/STIM_021.jpg	100
2126.85	0.524	524.4	congruent	Block2	congruent/STIM_021.jpg	100
2131.199	0.508	507.7	congruent	Block2	congruent/STIM_021.jpg	100
2135.09	0.656	656.3	congruent	Block2	congruent/STIM_021.jpg	100
2139.457	0.757	757.0	congruent	Block2	congruent/STIM_021.jpg	100
2142.776	0.55	550.3	congruent	Block2	congruent/STIM_022.jpg	100
2146.827	0.634	634.4	congruent	Block2	congruent/STIM_022.jpg	99
2149.607	0.819	819.0	congruent	Block2	congruent/STIM_022.jpg	99
2153.052	0.568	568.4	congruent	Block2	congruent/STIM_022.jpg	99
2157.289	0.574	574.3	congruent	Block2	congruent/STIM_022.jpg	99
2160.374	0.875	874.8	congruent	Block2	congruent/STIM_023.jpg	100
2164.919	0.558	558.2	congruent	Block2	congruent/STIM_023.jpg	99
2168.987	0.732	731.7	congruent	Block2	congruent/STIM_023.jpg	99
2172.033	0.784	784.4	congruent	Block2	congruent/STIM_023.jpg	99
2176.67	0.775	775.2	congruent	Block2	congruent/STIM_023.jpg	99
2180.974	0.708	707.5	congruent	Block2	congruent/STIM_024.jpg	100
2183.993	0.715	715.4	congruent	Block2	congruent/STIM_024.jpg	99
2187.255	0.712	712.4	congruent	Block2	congruent/STIM_024.jpg	100
2191.692	0.678	677.5	congruent	Block2	congruent/STIM_024.jpg	100
2195.502	0.876	875.9	congruent	Block2	congruent/STIM_024.jpg	99
2199.474	0.778	778.1	congruent	Block2	congruent/STIM_025.jpg	100
2202.822	0.54	539.6	congruent	Block2	congruent/STIM_025.jpg	99
2207.245	0.837	836.8	congruent	Block2	congruent/STIM_025.jpg	99
2211.209	0.647	646.6	congruent	Block2	congruent/STIM_025.jpg	99
2214.519	0.843	842.7	congruent	Block2	congruent/STIM_025.jpg	100
2217.953	0.845	845.4	congruent	Block2	congruent/STIM_026.jpg	100
2222.251	0.708	707.6	congruent	Block2	congruent/STIM_026.jpg	100
2225.339	0.82	820.2	congruent	Block2	congruent/STIM_026.jpg	99
2228.512	0.814	813.5	congruent	Block2	congruent/STIM_026.jpg	99
2233.122	0.881	880.7	congruent	Block2	congruent/STIM_026.jpg	99
2237.717	0.878	877.6	congruent	Block2	congruent/STIM_027.jpg	99
2241.996	0.849	848.9	congruent	Block2	congruent/STIM_027.jpg	99
2245.176	0.518	518.5	congruent	Block2	congruent/STIM_027.jpg	99
2247.921	0.668	667.7	congruent	Block2	congruent/STIM_027.jpg	99
2251.206	0.574	573.7	congruent	Block2	congruent/STIM_027.jpg	100
2253.82	0.738	738.0	congruent	Block2	congruent/STIM_028.jpg	100
2256.946	0.678	677.6	congruent	Block2	congruent/STIM_028.jpg	100
2260.182	0.679	678.9	congruent	Block2	congruent/STIM_028.jpg	100
2263.11	0.541	540.9	congruent	Block2	congruent/STIM_028.jpg	99
2265.715	0.847	847.2	congruent	Block2	congruent/STIM_028.jpg	100
2268.765	0.873	873.4	congruent	Block2	congruent/STIM_029.jpg	99
2271.995	0.758	757.6	congruent	Block2	congruent/STIM_029.jpg	99
2275.102	0.521	521.3	congruent	Block2	congruent/STIM_029.jpg	99
2279.305	0.764	764.2	congruent	Block2	congruent/STIM_029.jpg	99
2282.707	0.6	600.3	congruent	Block2	congruent/STIM_029.jpg	100
2286.961	0.92	920.3	incongruent	Block3	incongruent/STIM_000.jpg	99
2291.449	0.506	505.6	incongruent	Block3	incongruent/STIM_000.jpg	100
2295.21	0.708	707.5	incongruent	Block3	incongruent/STIM_000.jpg	100
2299.086	0.502	502.1	incongruent	Block3	incongruent/STIM_000.jpg	99
2302.418	0.885	885.4	incongruent	Block3	incongruent/STIM_000.jpg	99
2305.781	0.918	917.9	incongruent	Block3	incongruent/STIM_001.jpg	100
2310.305	0.496	496.4	incongruent	Block3	incongruent/STIM_001.jpg	99
2313.55	0.5	500.3	incongruent	Block3	incongruent/STIM_001.jpg	99
2316.478	0.964	963.5	incongruent	Block3	incongruent/STIM_001.jpg	99
2320.425	0.566	566.5	incongruent	Block3	incongruent/STIM_001.jpg	100
2323.293	0.697	697.2	incongruent	Block3	incongruent/STIM_002.jpg	100
2327.098	0.598	598.2	incongruent	Block3	incongruent/STIM_002.jpg	100
2330.172	0.54	539.6	incongruent	Block3	incongruent/STIM_002.jpg	100
2334.322	0.593	592.6	incongruent	Block3	incongruent/STIM_002.jpg	99
2337.61	0.675	674.7	incongruent	Block3	incongruent/STIM_002.jpg	100
2341.993	0.852	852.1	incongruent	Block3	incongruent/STIM_003.jpg	100
2346.771	0.865	865.1	incongruent	Block3	incongruent/STIM_003.jpg	99
2350.655	0.926	926.0	incongruent	Block3	incongruent/STIM_003.jpg	99
2354.07	0.616	615.7	incongruent	Block3	incongruent/STIM_003.jpg	100
2358.219	0.538	537.7	incongruent	Block3	incongruent/STIM_003.jpg	100
2361.295	0.51	510.4	incongruent	Block3	incongruent/STIM_004.jpg	100
2365.633	0.56	560.3	incongruent	Block3	incongruent/STIM_004.jpg	100
2368.838	0.628	628.4	incongruent	Block3	incongruent/STIM_004.jpg	99
2372.447	0.997	997.3	incongruent	Block3	incongruent/STIM_004.jpg	99
2376.048	0.761	761.3	incongruent	Block3	incongruent/STIM_004.jpg	99
2379.931	0.61	610.0	incongruent	Block3	incongruent/STIM_005.jpg	100
2382.73	1.004	1003.9	incongruent	Block3	incongruent/STIM_005.jpg	100
2386.608	0.892	891.8	incongruent	Block3	incongruent/STIM_005.jpg	100
2389.836	0.734	734.4	incongruent	Block3	incongruent/STIM_005.jpg	100
2393.158	1.0	1000.2	incongruent	Block3	incongruent/STIM_005.jpg	100
2396.568	0.569	569.2	incongruent	Block3	incongruent/STIM_006.jpg	100
2399.958	0.552	551.9	incongruent	Block3	incongruent/STIM_006.jpg	99
2403.592	1.012	1011.5	incongruent	Block3	incongruent/STIM_006.jpg	100
2407.506	0.982	982.0	incongruent	Block3	incongruent/STIM_006.jpg	100
2411.488	0.831	831.0	incongruent	Block3	incongruent/STIM_006.jpg	100
2416.193	0.552	552.4	incongruent	Block3	incongruent/STIM_007.jpg	99
2418.954	0.841	841.4	incongruent	Block3	incongruent/STIM_007.jpg	99
2421.876	0.875	875.1	incongruent	Block3	incongruent/STIM_007.jpg	99
2425.23	0.934	933.8	incongruent	Block3	incongruent/STIM_007.jpg	99
2429.155	0.522	522.5	incongruent	Block3	incongruent/STIM_007.jpg	100
2432.554	0.81	810.3	incongruent	Block3	incongruent/STIM_008.jpg	99
2436.054	0.889	888.6	incongruent	Block3	incongruent/STIM_008.jpg	99
2439.942	0.887	887.3	incongruent	Block3	incongruent/STIM_008.jpg	99
2443.807	0.631	630.6	incongruent	Block3	incongruent/STIM_008.jpg	100
2446.926	0.84	840.4	incongruent	Block3	incongruent/STIM_008.jpg	100
2450.199	0.5	499.9	incongruent	Block3	incongruent/STIM_009.jpg	100
2452.914	0.533	533.0	incongruent	Block3	incongruent/STIM_009.jpg	100
2456.358	0.792	791.6	incongruent	Block3	incongruent/STIM_009.jpg	99
2459.176	0.503	503.3	incongruent	Block3	incongruent/STIM_009.jpg	100
2461.957	0.815	814.9	incongruent	Block3	incongruent/STIM_009.jpg	99
2465.629	0.739	739.2	incongruent	Block3	incongruent/STIM_010.jpg	99
2470.28	0.846	846.3	incongruent	Block3	incongruent/STIM_010.jpg	100
2475.06	0.6	599.8	incongruent	Block3	incongruent/STIM_010.jpg	99
2478.638	0.963	962.6	incongruent	Block3	incongruent/STIM_010.jpg	99
2481.777	0.823	822.6	incongruent	Block3	incongruent/STIM_010.jpg	100
2486.391	0.67	669.9	incongruent	Block3	incongruent/STIM_011.jpg	99
2489.465	0.962	961.7	incongruent	Block3	incongruent/STIM_011.jpg	100
2493.549	0.571	571.4	incongruent	Block3	incongruent/STIM_011.jpg	99
2496.645	0.829	829.4	incongruent	Block3	incongruent/STIM_011.jpg	99
2499.717	0.875	875.2	incongruent	Block3	incongruent/STIM_011.jpg	100
2503.411	0.58	579.9	incongruent	Block3	incongruent/STIM_012.jpg	99
2507.077	0.678	677.8	incongruent	Block3	incongruent/STIM_012.jpg	100
2510.927	0.724	724.5	incongruent	Block3	incongruent/STIM_012.jpg	99
2514.86	1.029	1028.6	incongruent	Block3	incongruent/STIM_012.jpg	99
2518.654	0.547	547.2	incongruent	Block3	incongruent/STIM_012.jpg	100
2522.96	0.59	590.4	incongruent	Block3	incongruent/STIM_013.jpg	99
2526.714	0.792	792.5	incongruent	Block3	incongruent/STIM_013.jpg	99
2529.905	0.576	575.5	incongruent	Block3	incongruent/STIM_013.jpg	99
2533.127	0.928	927.9	incongruent	Block3	incongruent/STIM_013.jpg	99
2536.375	0.902	901.7	incongruent	Block3	incongruent/STIM_013.jpg	99
2541.097	1.045	1044.6	incongruent	Block3	incongruent/STIM_014.jpg	100
2544.718	0.553	552.8	incongruent	Block3	incongruent/STIM_014.jpg	99
2548.903	0.524	524.5	incongruent	Block3	incongruent/STIM_014.jpg	99
2553.228	0.507	507.5	incongruent	Block3	incongruent/STIM_014.jpg	99
2556.656	0.498	498.5	incongruent	Block3	incongruent/STIM_014.jpg	100
2560.793	0.737	737.2	incongruent	Block3	incongruent/STIM_015.jpg	100
2564.924	0.662	661.8	incongruent	Block3	incongruent/STIM_015.jpg	100
2567.692	0.988	988.1	incongruent	Block3	incongruent/STIM_015.jpg	100
2570.983	0.841	841.4	incongruent	Block3	incongruent/STIM_015.jpg	99
2574.416	0.854	853.5	incongruent	Block3	incongruent/STIM_015.jpg	100
2578.819	0.836	835.6	incongruent	Block3	incongruent/STIM_016.jpg	99
2582.185	0.91	909.5	incongruent	Block3	incongruent/STIM_016.jpg	100
2586.299	0.518	518.4	incongruent	Block3	incongruent/STIM_016.jpg	100
2589.656	0.696	696.1	incongruent	Block3	incongruent/STIM_016.jpg	100
2593.163	1.029	1029.3	incongruent	Block3	incongruent/STIM_016.jpg	99
2597.986	0.715	715.2	incongruent	Block3	incongruent/STIM_017.jpg	100
2601.921	1.0	1000.2	incongruent	Block3	incongruent/STIM_017.jpg	99
2605.774	0.627	627.2	incongruent	Block3	incongruent/STIM_017.jpg	100
2609.398	0.648	648.4	incongruent	Block3	incongruent/STIM_017.jpg	100
2612.092	0.599	599.1	incongruent	Block3	incongruent/STIM_017.jpg	100
2615.351	0.98	979.7	incongruent	Block3	incongruent/STIM_018.jpg	99
2620.103	0.556	556.2	incongruent	Block3	incongruent/STIM_018.jpg	99
2623.077	0.878	877.8	incongruent	Block3	incongruent/STIM_018.jpg	99
2627.225	0.904	903.6	incongruent	Block3	incongruent/STIM_018.jpg	100
2631.792	0.891	890.7	incongruent	Block3	incongruent/STIM_018.jpg	99
2635.848	0.875	875.0	incongruent	Block3	incongruent/STIM_019.jpg	99
2638.769	0.52	520.2	incongruent	Block3	incongruent/STIM_019.jpg	100
2641.795	0.652	651.5	incongruent	Block3	incongruent/STIM_019.jpg	99
2644.576	0.633	633.2	incongruent	Block3	incongruent/STIM_019.jpg	99
2648.796	0.731	730.9	incongruent	Block3	incongruent/STIM_019.jpg	99
2653.331	1.041	1041.1	incongruent	Block3	incongruent/STIM_020.jpg	99
2656.991	0.84	840.5	incongruent	Block3	incongruent/STIM_020.jpg	100
2660.525	0.512	512.1	incongruent	Block3	incongruent/STIM_020.jpg	100
2664.003	0.824	824.0	incongruent	Block3	incongruent/STIM_020.jpg	100
2668.016	0.808	808.2	incongruent	Block3	incongruent/STIM_020.jpg	100
2672.327	0.671	671.1	incongruent	Block3	incongruent/STIM_021.jpg	99
2676.894	0.944	944.3	incongruent	Block3	incongruent/STIM_021.jpg	100
2680.486	0.968	968.5	incongruent	Block3	incongruent/STIM_021.jpg	100
2685.155	1.046	1045.6	incongruent	Block3	incongruent/STIM_021.jpg	99
2688.635	0.5	500.1	incongruent	Block3	incongruent/STIM_021.jpg	100
2691.758	1.027	1027.0	incongruent	Block3	incongruent/STIM_022.jpg	99
2696.689	1.046	1045.5	incongruent	Block3	incongruent/STIM_022.jpg	100
2701.602	0.648	648.4	incongruent	Block3	incongruent/STIM_022.jpg	99
2704.89	0.828	827.8	incongruent	Block3	incongruent/STIM_022.jpg	99
2707.726	0.892	891.7	incongruent	Block3	incongruent/STIM_022.jpg	99
2711.672	1.046	1045.9	incongruent	Block3	incongruent/STIM_023.jpg	99
2716.66	0.606	606.1	incongruent	Block3	incongruent/STIM_023.jpg	100
2721.073	0.859	859.2	incongruent	Block3	incongruent/STIM_023.jpg	100
2725.43	0.822	821.9	incongruent	Block3	incongruent/STIM_023.jpg	100
2728.881	0.914	913.7	incongruent	Block3	incongruent/STIM_023.jpg	99
2732.228	0.83	829.8	incongruent	Block3	incongruent/STIM_024.jpg	99
2736.211	0.942	942.4	incongruent	Block3	incongruent/STIM_024.jpg	100
2740.134	1.001	1001.3	incongruent	Block3	incongruent/STIM_024.jpg	100
2743.572	0.565	564.6	incongruent	Block3	incongruent/STIM_024.jpg	99
2748.099	0.803	802.6	incongruent	Block3	incongruent/STIM_024.jpg	99
2752.21	0.837	837.0	incongruent	Block3	incongruent/STIM_025.jpg	100
2755.739	0.979	978.7	incongruent	Block3	incongruent/STIM_025.jpg	99
2760.589	0.958	958.1	incongruent	Block3	incongruent/STIM_025.jpg	100
2763.662	0.782	781.5	incongruent	Block3	incongruent/STIM_025.jpg	100
2767.901	1.02	1019.7	incongruent	Block3	incongruent/STIM_025.jpg	99
2772.247	0.552	552.0	incongruent	Block3	incongruent/STIM_026.jpg	99
2775.421	0.581	580.8	incongruent	Block3	incongruent/STIM_026.jpg	100
2778.967	0.588	587.6	incongruent	Block3	incongruent/STIM_026.jpg	99
2781.576	0.702	701.6	incongruent	Block3	incongruent/STIM_026.jpg	99
2785.071	0.883	882.6	incongruent	Block3	incongruent/STIM_026.jpg	100
2788.749	0.874	874.1	incongruent	Block3	incongruent/STIM_027.jpg	100
2792.95	0.502	502.5	incongruent	Block3	incongruent/STIM_027.jpg	100
2795.77	0.597	597.4	incongruent	Block3	incongruent/STIM_027.jpg	99
2798.752	0.653	653.3	incongruent	Block3	incongruent/STIM_027.jpg	100
2801.906	0.962	961.8	incongruent	Block3	incongruent/STIM_027.jpg	99
2805.272	0.78	780.1	incongruent	Block3	incongruent/STIM_028.jpg	100
2809.128	0.636	636.5	incongruent	Block3	incongruent/STIM_028.jpg	99
2812.251	0.507	507.5	incongruent	Block3	incongruent/STIM_028.jpg	100
2816.125	0.506	506.4	incongruent	Block3	incongruent/STIM_028.jpg	99
2819.047	0.52	520.5	incongruent	Block3	incongruent/STIM_028.jpg	99
2822.243	0.63	630.1	incongruent	Block3	incongruent/STIM_029.jpg	99
2826.688	0.857	856.6	incongruent	Block3	incongruent/STIM_029.jpg	100
2829.725	0.563	563.4	incongruent	Block3	incongruent/STIM_029.jpg	99
2833.262	1.004	1003.8	incongruent	Block3	incongruent/STIM_029.jpg	99
2836.794	0.836	835.8	incongruent	Block3	incongruent/STIM_029.jpg	100
2841.596	0.574	574.0	congruent	Block3	congruent/STIM_000.jpg	99
2845.055	0.738	738.5	congruent	Block3	congruent/STIM_000.jpg	99
2848.126	0.829	829.2	congruent	Block3	congruent/STIM_000.jpg	100
2851.924	0.649	649.2	congruent	Block3	congruent/STIM_000.jpg	100
2854.914	0.802	801.9	congruent	Block3	congruent/STIM_000.jpg	100
2859.574	0.722	722.4	congruent	Block3	congruent/STIM_001.jpg	100
2862.347	0.891	890.9	congruent	Block3	congruent/STIM_001.jpg	100
2866.437	0.778	778.1	congruent	Block3	congruent/STIM_001.jpg	100
2871.135	0.846	846.2	congruent	Block3	congruent/STIM_001.jpg	100
2874.642	0.778	777.8	congruent	Block3	congruent/STIM_001.jpg	100
2879.309	0.795	795.2	congruent	Block3	congruent/STIM_002.jpg	100
2883.267	0.755	755.3	congruent	Block3	congruent/STIM_002.jpg	99
2887.242	0.546	546.5	congruent	Block3	congruent/STIM_002.jpg	99
2891.725	0.828	828.3	congruent	Block3	congruent/STIM_002.jpg	99
2896.519	0.623	622.7	congruent	Block3	congruent/STIM_002.jpg	99
2900.816	0.728	728.4	congruent	Block3	congruent/STIM_003.jpg	99
2904.566	0.797	797.4	congruent	Block3	congruent/STIM_003.jpg	99
2907.63	0.728	728.1	congruent	Block3	congruent/STIM_003.jpg	99
2910.385	0.783	782.7	congruent	Block3	congruent/STIM_003.jpg	99
2914.115	0.755	755.3	congruent	Block3	congruent/STIM_003.jpg	99
2918.043	0.626	626.3	congruent	Block3	congruent/STIM_004.jpg	99
2922.588	0.795	794.6	congruent	Block3	congruent/STIM_004.jpg	99
2926.27	0.602	601.8	congruent	Block3	congruent/STIM_004.jpg	99
2929.68	0.704	703.9	congruent	Block3	congruent/STIM_004.jpg	100
2933.275	0.599	599.2	congruent	Block3	congruent/STIM_004.jpg	99
2936.838	0.798	797.9	congruent	Block3	congruent/STIM_005.jpg	100
2940.089	0.827	827.0	congruent	Block3	congruent/STIM_005.jpg	100
2943.854	0.588	588.0	congruent	Block3	congruent/STIM_005.jpg	99
2946.723	0.688	687.6	congruent	Block3	congruent/STIM_005.jpg	99
2950.408	0.595	595.0	congruent	Block3	congruent/STIM_005.jpg	99
2953.386	0.728	728.4	congruent	Block3	congruent/STIM_006.jpg	100
2956.849	0.569	568.9	congruent	Block3	congruent/STIM_006.jpg	100
2959.735	0.779	779.4	congruent	Block3	congruent/STIM_006.jpg	100
2962.59	0.621	620.6	congruent	Block3	congruent/STIM_006.jpg	99
2965.677	0.669	669.1	congruent	Block3	congruent/STIM_006.jpg	100
2969.15	0.614	613.8	congruent	Block3	congruent/STIM_007.jpg	99
2973.711	0.589	589.0	congruent	Block3	congruent/STIM_007.jpg	100
2977.9	0.586	585.9	congruent	Block3	congruent/STIM_007.jpg	100
2982.211	0.675	675.2	congruent	Block3	congruent/STIM_007.jpg	99
2986.161	0.82	819.5	congruent	Block3	congruent/STIM_007.jpg	99
2989.02	0.88	879.5	congruent	Block3	congruent/STIM_008.jpg	99
2992.146	0.549	548.8	congruent	Block3	congruent/STIM_008.jpg	99
2996.673	0.85	850.0	congruent	Block3	congruent/STIM_008.jpg	99
3000.336	0.832	831.8	congruent	Block3	congruent/STIM_008.jpg	100
3003.651	0.687	687.3	congruent	Block3	congruent/STIM_008.jpg	99
3006.692	0.836	836.2	congruent	Block3	congruent/STIM_009.jpg	100
3010.242	0.696	695.7	congruent	Block3	congruent/STIM_009.jpg	99
3014.509	0.588	588.2	congruent	Block3	congruent/STIM_009.jpg	99
3017.57	0.61	609.8	congruent	Block3	congruent/STIM_009.jpg	100
3021.085	0.896	895.6	congruent	Block3	congruent/STIM_009.jpg	100
3025.855	0.799	798.8	congruent	Block3	congruent/STIM_010.jpg	100
3028.706	0.725	725.2	congruent	Block3	congruent/STIM_010.jpg	100
3032.076	0.693	692.9	congruent	Block3	congruent/STIM_010.jpg	100
3034.905	0.744	743.6	congruent	Block3	congruent/STIM_010.jpg	99
3039.207	0.608	607.5	congruent	Block3	congruent/STIM_010.jpg	99
3041.963	0.638	638.5	congruent	Block3	congruent/STIM_011.jpg	100
3046.089	0.758	758.5	congruent	Block3	congruent/STIM_011.jpg	100
3050.416	0.622	622.2	congruent	Block3	congruent/STIM_011.jpg	100
3053.332	0.552	552.3	congruent	Block3	congruent/STIM_011.jpg	99
3056.69	0.527	527.4	congruent	Block3	congruent/STIM_011.jpg	100
3059.599	0.597	596.6	congruent	Block3	congruent/STIM_012.jpg	100
3063.967	0.747	746.8	congruent	Block3	congruent/STIM_012.jpg	99
3067.058	0.84	840.4	congruent	Block3	congruent/STIM_012.jpg	99
3070.917	0.657	657.3	congruent	Block3	congruent/STIM_012.jpg	99
3075.154	0.63	629.9	congruent	Block3	congruent/STIM_012.jpg	100
3079.048	0.676	675.7	congruent	Block3	congruent/STIM_013.jpg	100
3082.915	0.787	787.3	congruent	Block3	congruent/STIM_013.jpg	100
3087.379	0.525	524.7	congruent	Block3	congruent/STIM_013.jpg	100
3091.732	0.731	731.1	congruent	Block3	congruent/STIM_013.jpg	99
3095.583	0.551	551.2	congruent	Block3	congruent/STIM_013.jpg	100
3098.382	0.518	517.5	congruent	Block3	congruent/STIM_014.jpg	99
3102.589	0.882	882.2	congruent	Block3	congruent/STIM_014.jpg	100
3107.061	0.753	753.1	congruent	Block3	congruent/STIM_014.jpg	99
3110.253	0.674	674.3	congruent	Block3	congruent/STIM_014.jpg	100
3114.009	0.829	828.8	congruent	Block3	congruent/STIM_014.jpg	99
3118.249	0.544	544.2	congruent	Block3	congruent/STIM_015.jpg	100
3122.268	0.896	895.7	congruent	Block3	congruent/STIM_015.jpg	99
3125.525	0.754	754.1	congruent	Block3	congruent/STIM_015.jpg	100
3128.387	0.73	730.3	congruent	Block3	congruent/STIM_015.jpg	100
3132.486	0.655	655.3	congruent	Block3	congruent/STIM_015.jpg	99
3136.494	0.739	738.9	congruent	Block3	congruent/STIM_016.jpg	99
3139.427	0.808	808.4	congruent	Block3	congruent/STIM_016.jpg	100
3142.646	0.608	607.8	congruent	Block3	congruent/STIM_016.jpg	99
3146.802	0.657	656.7	congruent	Block3	congruent/STIM_016.jpg	99
3149.674	0.863	863.2	congruent	Block3	congruent/STIM_016.jpg	100
3154.012	0.538	537.9	congruent	Block3	congruent/STIM_017.jpg	99
3157.921	0.795	795.4	congruent	Block3	congruent/STIM_017.jpg	100
3161.475	0.743	742.8	congruent	Block3	congruent/STIM_017.jpg	99
3165.19	0.604	604.1	congruent	Block3	congruent/STIM_017.jpg	100
3168.171	0.704	703.7	congruent	Block3	congruent/STIM_017.jpg	99
3171.302	0.631	630.6	congruent	Block3	congruent/STIM_018.jpg	100
3173.998	0.731	731.4	congruent	Block3	congruent/STIM_018.jpg	100
3176.936	0.642	642.3	congruent	Block3	congruent/STIM_018.jpg	99
3179.878	0.852	851.6	congruent	Block3	congruent/STIM_018.jpg	100
3183.377	0.796	796.5	congruent	Block3	congruent/STIM_018.jpg	99
3186.677	0.81	809.8	congruent	Block3	congruent/STIM_019.jpg	100
3189.91	0.651	650.7	congruent	Block3	congruent/STIM_019.jpg	99
3192.668	0.87	869.8	congruent	Block3	congruent/STIM_019.jpg	100
3195.944	0.582	581.6	congruent	Block3	congruent/STIM_019.jpg	99
3199.597	0.662	661.5	congruent	Block3	congruent/STIM_019.jpg	99
3202.59	0.605	605.2	congruent	Block3	congruent/STIM_020.jpg	100
3206.566	0.878	878.1	congruent	Block3	congruent/STIM_020.jpg	100
3210.334	0.575	574.8	congruent	Block3	congruent/STIM_020.jpg	99
3214.74	0.711	710.9	congruent	Block3	congruent/STIM_020.jpg	100
3217.932	0.811	810.9	congruent	Block3	congruent/STIM_020.jpg	99
3221.361	0.85	849.6	congruent	Block3	congruent/STIM_021.jpg	100
3224.88	0.535	535.0	congruent	Block3	congruent/STIM_021.jpg	100
3228.131	0.806	805.8	congruent	Block3	congruent/STIM_021.jpg	100
3231.238	0.67	670.0	congruent	Block3	congruent/STIM_021.jpg	99
3235.222	0.682	681.7	congruent	Block3	congruent/STIM_021.jpg	99
3238.189	0.624	624.5	congruent	Block3	congruent/STIM_022.jpg	100
3241.708	0.706	706.1	congruent	Block3	congruent/STIM_022.jpg	100
3246.304	0.533	533.3	congruent	Block3	congruent/STIM_022.jpg	99
3249.656	0.599	598.7	congruent	Block3	congruent/STIM_022.jpg	99
3254.164	0.54	540.5	congruent	Block3	congruent/STIM_022.jpg	100
3258.685	0.512	512.3	congruent	Block3	congruent/STIM_023.jpg	99
3261.953	0.54	540.4	congruent	Block3	congruent/STIM_023.jpg	99
3266.439	0.54	539.7	congruent	Block3	congruent/STIM_023.jpg	100
3269.449	0.815	815.1	congruent	Block3	congruent/STIM_023.jpg	100
3273.121	0.754	754.1	congruent	Block3	congruent/STIM_023.jpg	100
3276.187	0.511	510.8	congruent	Block3	congruent/STIM_024.jpg	99
3279.586	0.811	810.9	congruent	Block3	congruent/STIM_024.jpg	99
3283.837	0.732	731.5	congruent	Block3	congruent/STIM_024.jpg	99
3287.848	0.706	705.9	congruent	Block3	congruent/STIM_024.jpg	100
3292.372	0.763	762.8	congruent	Block3	congruent/STIM_024.jpg	99
3295.223	0.781	780.7	congruent	Block3	congruent/STIM_025.jpg	100
3298.275	0.53	529.5	congruent	Block3	congruent/STIM_025.jpg	100
3302.059	0.666	665.7	congruent	Block3	congruent/STIM_025.jpg	99
3306.317	0.696	696.4	congruent	Block3	congruent/STIM_025.jpg	100
3309.342	0.808	808.4	congruent	Block3	congruent/STIM_025.jpg	100
3312.665	0.575	575.3	congruent	Block3	congruent/STIM_026.jpg	100
3317.231	0.733	732.9	congruent	Block3	congruent/STIM_026.jpg	100
3321.247	0.677	676.9	congruent	Block3	congruent/STIM_026.jpg	100
3324.073	0.711	710.9	congruent	Block3	congruent/STIM_026.jpg	100
3328.736	0.579	579.0	congruent	Block3	congruent/STIM_026.jpg	100
3332.528	0.787	786.7	congruent	Block3	congruent/STIM_027.jpg	100
3337.13	0.642	642.0	congruent	Block3	congruent/STIM_027.jpg	99
3339.813	0.833	833.1	congruent	Block3	congruent/STIM_027.jpg	100
3344.467	0.882	882.4	congruent	Block3	congruent/STIM_027.jpg	99
3348.614	0.734	734.3	congruent	Block3	congruent/STIM_027.jpg	99
3352.361	0.751	750.7	congruent	Block3	congruent/STIM_028.jpg	100
3356.829	0.845	845.3	congruent	Block3	congruent/STIM_028.jpg	100
3361.193	0.871	871.4	congruent	Block3	congruent/STIM_028.jpg	99
3365.694	0.676	675.7	congruent	Block3	congruent/STIM_028.jpg	100
3370.069	0.813	813.1	congruent	Block3	congruent/STIM_028.jpg	100
3374.354	0.538	537.9	congruent	Block3	congruent/STIM_029.jpg	100
3378.016	0.89	890.4	congruent	Block3	congruent/STIM_029.jpg	100
3380.978	0.722	721.9	congruent	Block3	congruent/STIM_029.jpg	99
3384.5	0.653	652.9	congruent	Block3	congruent/STIM_029.jpg	100
3387.476	0.542	541.5	congruent	Block3	congruent/STIM_029.jpg	100
