onset	duration	accuracy_binary	trial_type	learning_stage	stimulus
0.0	0.866	1	incongruent	Block1	incongruent/STIM_000.jpg
4.618	1.224	1	incongruent	Block1	incongruent/STIM_000.jpg
9.047	1.239	1	incongruent	Block1	incongruent/STIM_000.jpg
13.314	1.199	1	incongruent	Block1	incongruent/STIM_000.jpg
17.792	0.844	1	incongruent	Block1	incongruent/STIM_000.jpg
21.828	0.905	1	incongruent	Block1	incongruent/STIM_001.jpg
25.618	0.905	1	incongruent	Block1	incongruent/STIM_001.jpg
29.531	1.147	1	incongruent	Block1	incongruent/STIM_001.jpg
34.785	0.597	1	incongruent	Block1	incongruent/STIM_001.jpg
38.071	0.565	1	incongruent	Block1	incongruent/STIM_001.jpg
40.786	1.205	1	incongruent	Block1	incongruent/STIM_002.jpg
45.109	0.996	1	incongruent	Block1	incongruent/STIM_002.jpg
50.031	0.968	1	incongruent	Block1	incongruent/STIM_002.jpg
53.868	1.027	1	incongruent	Block1	incongruent/STIM_002.jpg
57.392	1.144	1	incongruent	Block1	incongruent/STIM_002.jpg
60.737	1.022	1	incongruent	Block1	incongruent/STIM_003.jpg
65.018	0.894	1	incongruent	Block1	incongruent/STIM_003.jpg
69.046	0.663	1	incongruent	Block1	incongruent/STIM_003.jpg
73.221	0.805	1	incongruent	Block1	incongruent/STIM_003.jpg
78.04	0.959	1	incongruent	Block1	incongruent/STIM_003.jpg
82.681	1.287	1	incongruent	Block1	incongruent/STIM_004.jpg
86.946	1.239	1	incongruent	Block1	incongruent/STIM_004.jpg
91.955	1.027	1	incongruent	Block1	incongruent/STIM_004.jpg
96.666	0.666	1	incongruent	Block1	incongruent/STIM_004.jpg
101.188	0.946	1	incongruent	Block1	incongruent/STIM_004.jpg
104.61	1.191	1	incongruent	Block1	incongruent/STIM_005.jpg
109.156	0.876	1	incongruent	Block1	incongruent/STIM_005.jpg
113.238	0.895	1	incongruent	Block1	incongruent/STIM_005.jpg
118.179	0.933	1	incongruent	Block1	incongruent/STIM_005.jpg
121.923	0.711	1	incongruent	Block1	incongruent/STIM_005.jpg
124.696	1.35	1	incongruent	Block1	incongruent/STIM_006.jpg
129.432	0.926	1	incongruent	Block1	incongruent/STIM_006.jpg
133.411	0.971	1	incongruent	Block1	incongruent/STIM_006.jpg
138.353	0.701	1	incongruent	Block1	incongruent/STIM_006.jpg
142.908	0.903	1	incongruent	Block1	incongruent/STIM_006.jpg
146.48	1.306	1	incongruent	Block1	incongruent/STIM_007.jpg
151.671	1.076	1	incongruent	Block1	incongruent/STIM_007.jpg
156.054	0.983	0	incongruent	Block1	incongruent/STIM_007.jpg
159.963	0.664	1	incongruent	Block1	incongruent/STIM_007.jpg
162.979	0.541	1	incongruent	Block1	incongruent/STIM_007.jpg
166.788	0.847	1	incongruent	Block1	incongruent/STIM_008.jpg
170.968	0.986	1	incongruent	Block1	incongruent/STIM_008.jpg
175.531	1.096	1	incongruent	Block1	incongruent/STIM_008.jpg
179.473	0.984	1	incongruent	Block1	incongruent/STIM_008.jpg
183.814	0.938	1	incongruent	Block1	incongruent/STIM_008.jpg
188.686	0.709	1	incongruent	Block1	incongruent/STIM_009.jpg
192.361	0.759	1	incongruent	Block1	incongruent/STIM_009.jpg
195.411	1.264	1	incongruent	Block1	incongruent/STIM_009.jpg
200.543	0.576	1	incongruent	Block1	incongruent/STIM_009.jpg
203.353	0.924	1	incongruent	Block1	incongruent/STIM_009.jpg
208.382	1.246	1	incongruent	Block1	incongruent/STIM_010.jpg
212.722	1.015	1	incongruent	Block1	incongruent/STIM_010.jpg
215.819	0.751	1	incongruent	Block1	incongruent/STIM_010.jpg
220.271	0.816	1	incongruent	Block1	incongruent/STIM_010.jpg
224.903	1.08	1	incongruent	Block1	incongruent/STIM_010.jpg
229.739	1.244	1	incongruent	Block1	incongruent/STIM_011.jpg
234.857	1.366	1	incongruent	Block1	incongruent/STIM_011.jpg
238.243	0.802	0	incongruent	Block1	incongruent/STIM_011.jpg
242.21	0.887	0	incongruent	Block1	incongruent/STIM_011.jpg
246.962	1.069	1	incongruent	Block1	incongruent/STIM_011.jpg
250.163	0.923	0	incongruent	Block1	incongruent/STIM_012.jpg
254.129	0.796	1	incongruent	Block1	incongruent/STIM_012.jpg
258.498	1.174	1	incongruent	Block1	incongruent/STIM_012.jpg
262.054	1.016	1	incongruent	Block1	incongruent/STIM_012.jpg
266.964	0.468	1	incongruent	Block1	incongruent/STIM_012.jpg
270.001	1.293	1	incongruent	Block1	incongruent/STIM_013.jpg
273.906	0.977	0	incongruent	Block1	incongruent/STIM_013.jpg
277.162	0.571	1	incongruent	Block1	incongruent/STIM_013.jpg
280.043	0.588	1	incongruent	Block1	incongruent/STIM_013.jpg
283.562	0.843	1	incongruent	Block1	incongruent/STIM_013.jpg
287.105	0.686	1	incongruent	Block1	incongruent/STIM_014.jpg
290.184	0.874	1	incongruent	Block1	incongruent/STIM_014.jpg
293.861	0.916	1	incongruent	Block1	incongruent/STIM_014.jpg
297.037	0.736	1	incongruent	Block1	incongruent/STIM_014.jpg
300.751	0.746	1	incongruent	Block1	incongruent/STIM_014.jpg
305.075	1.157	0	incongruent	Block1	incongruent/STIM_015.jpg
310.131	1.285	1	incongruent	Block1	incongruent/STIM_015.jpg
314.321	0.923	1	incongruent	Block1	incongruent/STIM_015.jpg
319.162	0.705	1	incongruent	Block1	incongruent/STIM_015.jpg
322.513	1.105	1	incongruent	Block1	incongruent/STIM_015.jpg
326.59	1.089	1	incongruent	Block1	incongruent/STIM_016.jpg
331.294	0.814	1	incongruent	Block1	incongruent/STIM_016.jpg
336.08	1.013	1	incongruent	Block1	incongruent/STIM_016.jpg
339.332	0.694	1	incongruent	Block1	incongruent/STIM_016.jpg
343.716	0.967	1	incongruent	Block1	incongruent/STIM_016.jpg
347.045	1.392	1	incongruent	Block1	incongruent/STIM_017.jpg
351.037	1.095	1	incongruent	Block1	incongruent/STIM_017.jpg
356.053	0.797	1	incongruent	Block1	incongruent/STIM_017.jpg
359.428	0.755	1	incongruent	Block1	incongruent/STIM_017.jpg
363.975	0.649	1	incongruent	Block1	incongruent/STIM_017.jpg
367.313	0.73	0	incongruent	Block1	incongruent/STIM_018.jpg
371.965	1.05	1	incongruent	Block1	incongruent/STIM_018.jpg
376.086	0.823	1	incongruent	Block1	incongruent/STIM_018.jpg
380.796	0.942	1	incongruent	Block1	incongruent/STIM_018.jpg
385.717	0.841	1	incongruent	Block1	incongruent/STIM_018.jpg
390.422	1.156	0	incongruent	Block1	incongruent/STIM_019.jpg
394.169	0.859	1	incongruent	Block1	incongruent/STIM_019.jpg
397.345	0.737	0	incongruent	Block1	incongruent/STIM_019.jpg
400.414	0.834	1	incongruent	Block1	incongruent/STIM_019.jpg
404.551	0.985	1	incongruent	Block1	incongruent/STIM_019.jpg
408.566	1.271	1	incongruent	Block1	incongruent/STIM_020.jpg
412.772	0.764	1	incongruent	Block1	incongruent/STIM_020.jpg
416.957	0.764	1	incongruent	Block1	incongruent/STIM_020.jpg
420.528	1.13	1	incongruent	Block1	incongruent/STIM_020.jpg
425.685	0.896	1	incongruent	Block1	incongruent/STIM_020.jpg
430.334	1.058	1	incongruent	Block1	incongruent/STIM_021.jpg
434.686	0.63	0	incongruent	Block1	incongruent/STIM_021.jpg
438.323	1.001	1	incongruent	Block1	incongruent/STIM_021.jpg
441.548	0.862	1	incongruent	Block1	incongruent/STIM_021.jpg
445.974	0.58	1	incongruent	Block1	incongruent/STIM_021.jpg
450.294	0.615	1	incongruent	Block1	incongruent/STIM_022.jpg
454.912	0.979	1	incongruent	Block1	incongruent/STIM_022.jpg
459.546	0.635	1	incongruent	Block1	incongruent/STIM_022.jpg
464.126	1.032	1	incongruent	Block1	incongruent/STIM_022.jpg
467.662	0.793	1	incongruent	Block1	incongruent/STIM_022.jpg
470.892	0.691	0	incongruent	Block1	incongruent/STIM_023.jpg
473.995	1.12	1	incongruent	Block1	incongruent/STIM_023.jpg
479.134	1.129	1	incongruent	Block1	incongruent/STIM_023.jpg
484.245	0.857	1	incongruent	Block1	incongruent/STIM_023.jpg
488.877	0.613	1	incongruent	Block1	incongruent/STIM_023.jpg
492.347	1.121	1	incongruent	Block1	incongruent/STIM_024.jpg
495.578	0.799	1	incongruent	Block1	incongruent/STIM_024.jpg
499.671	1.324	1	incongruent	Block1	incongruent/STIM_024.jpg
503.834	0.815	1	incongruent	Block1	incongruent/STIM_024.jpg
507.76	0.75	1	incongruent	Block1	incongruent/STIM_024.jpg
511.416	1.336	1	incongruent	Block1	incongruent/STIM_025.jpg
516.283	1.178	1	incongruent	Block1	incongruent/STIM_025.jpg
521.124	0.874	1	incongruent	Block1	incongruent/STIM_025.jpg
524.534	0.614	1	incongruent	Block1	incongruent/STIM_025.jpg
528.917	0.928	1	incongruent	Block1	incongruent/STIM_025.jpg
532.335	1.1	1	incongruent	Block1	incongruent/STIM_026.jpg
535.952	1.032	1	incongruent	Block1	incongruent/STIM_026.jpg
540.514	0.899	1	incongruent	Block1	incongruent/STIM_026.jpg
544.066	0.735	1	incongruent	Block1	incongruent/STIM_026.jpg
547.175	0.838	1	incongruent	Block1	incongruent/STIM_026.jpg
551.877	0.879	1	incongruent	Block1	incongruent/STIM_027.jpg
556.714	1.045	1	incongruent	Block1	incongruent/STIM_027.jpg
561.717	0.878	0	incongruent	Block1	incongruent/STIM_027.jpg
565.725	0.963	1	incongruent	Block1	incongruent/STIM_027.jpg
569.077	0.813	1	incongruent	Block1	incongruent/STIM_027.jpg
573.462	1.022	1	incongruent	Block1	incongruent/STIM_028.jpg
578.283	0.793	1	incongruent	Block1	incongruent/STIM_028.jpg
581.288	0.638	1	incongruent	Block1	incongruent/STIM_028.jpg
584.708	1.072	1	incongruent	Block1	incongruent/STIM_028.jpg
589.383	0.722	1	incongruent	Block1	incongruent/STIM_028.jpg
592.439	1.343	1	incongruent	Block1	incongruent/STIM_029.jpg
595.922	1.212	1	incongruent	Block1	incongruent/STIM_029.jpg
601.07	1.246	1	incongruent	Block1	incongruent/STIM_029.jpg
605.742	1.04	1	incongruent	Block1	incongruent/STIM_029.jpg
610.689	0.635	1	incongruent	Block1	incongruent/STIM_029.jpg
615.165	0.448	1	congruent	Block1	congruent/STIM_000.jpg
618.132	0.887	1	congruent	Block1	congruent/STIM_000.jpg
621.566	0.792	1	congruent	Block1	congruent/STIM_000.jpg
624.678	0.549	1	congruent	Block1	congruent/STIM_000.jpg
627.523	0.588	1	congruent	Block1	congruent/STIM_000.jpg
631.673	0.686	1	congruent	Block1	congruent/STIM_001.jpg
635.721	0.676	1	congruent	Block1	congruent/STIM_001.jpg
640.127	0.543	1	congruent	Block1	congruent/STIM_001.jpg
643.982	0.541	1	congruent	Block1	congruent/STIM_001.jpg
647.709	0.712	1	congruent	Block1	congruent/STIM_001.jpg
651.619	0.533	1	congruent	Block1	congruent/STIM_002.jpg
655.799	0.683	1	congruent	Block1	congruent/STIM_002.jpg
659.738	0.648	1	congruent	Block1	congruent/STIM_002.jpg
664.026	0.718	1	congruent	Block1	congruent/STIM_002.jpg
666.88	0.814	1	congruent	Block1	congruent/STIM_002.jpg
671.293	0.706	1	congruent	Block1	congruent/STIM_003.jpg
675.483	0.421	1	congruent	Block1	congruent/STIM_003.jpg
678.636	0.567	1	congruent	Block1	congruent/STIM_003.jpg
681.759	0.709	1	congruent	Block1	congruent/STIM_003.jpg
685.503	0.578	1	congruent	Block1	congruent/STIM_003.jpg
688.952	0.746	1	congruent	Block1	congruent/STIM_004.jpg
692.304	0.543	1	congruent	Block1	congruent/STIM_004.jpg
696.764	0.859	1	congruent	Block1	congruent/STIM_004.jpg
699.783	0.753	1	congruent	Block1	congruent/STIM_004.jpg
704.37	0.696	1	congruent	Block1	congruent/STIM_004.jpg
708.369	0.619	1	congruent	Block1	congruent/STIM_005.jpg
711.645	0.519	0	congruent	Block1	congruent/STIM_005.jpg
714.753	0.638	1	congruent	Block1	congruent/STIM_005.jpg
719.132	0.793	1	congruent	Block1	congruent/STIM_005.jpg
722.595	0.634	1	congruent	Block1	congruent/STIM_005.jpg
727.105	0.591	1	congruent	Block1	congruent/STIM_006.jpg
730.962	0.633	1	congruent	Block1	congruent/STIM_006.jpg
735.414	0.687	1	congruent	Block1	congruent/STIM_006.jpg
739.311	0.484	1	congruent	Block1	congruent/STIM_006.jpg
743.348	0.753	1	congruent	Block1	congruent/STIM_006.jpg
746.527	0.728	1	congruent	Block1	congruent/STIM_007.jpg
750.369	0.818	1	congruent	Block1	congruent/STIM_007.jpg
754.792	0.641	1	congruent	Block1	congruent/STIM_007.jpg
759.079	0.579	1	congruent	Block1	congruent/STIM_007.jpg
762.614	0.489	1	congruent	Block1	congruent/STIM_007.jpg
765.729	0.621	1	congruent	Block1	congruent/STIM_008.jpg
769.6	0.515	1	congruent	Block1	congruent/STIM_008.jpg
773.401	0.623	1	congruent	Block1	congruent/STIM_008.jpg
776.221	0.76	1	congruent	Block1	congruent/STIM_008.jpg
779.248	0.72	1	congruent	Block1	congruent/STIM_008.jpg
783.593	0.506	1	congruent	Block1	congruent/STIM_009.jpg
786.295	0.737	1	congruent	Block1	congruent/STIM_009.jpg
789.87	0.596	1	congruent	Block1	congruent/STIM_009.jpg
792.592	0.777	1	congruent	Block1	congruent/STIM_009.jpg
796.228	0.569	1	congruent	Block1	congruent/STIM_009.jpg
800.348	0.662	1	congruent	Block1	congruent/STIM_010.jpg
804.233	0.564	1	congruent	Block1	congruent/STIM_010.jpg
807.097	0.55	0	congruent	Block1	congruent/STIM_010.jpg
811.506	0.681	1	congruent	Block1	congruent/STIM_010.jpg
814.751	0.784	1	congruent	Block1	congruent/STIM_010.jpg
817.879	0.706	0	congruent	Block1	congruent/STIM_011.jpg
822.34	0.585	1	congruent	Block1	congruent/STIM_011.jpg
826.185	0.556	1	congruent	Block1	congruent/STIM_011.jpg
829.454	0.601	1	congruent	Block1	congruent/STIM_011.jpg
832.727	0.823	1	congruent	Block1	congruent/STIM_011.jpg
836.902	0.522	1	congruent	Block1	congruent/STIM_012.jpg
839.933	0.543	0	congruent	Block1	congruent/STIM_012.jpg
844.379	0.462	0	congruent	Block1	congruent/STIM_012.jpg
847.701	0.678	1	congruent	Block1	congruent/STIM_012.jpg
851.044	0.571	1	congruent	Block1	congruent/STIM_012.jpg
855.013	0.468	1	congruent	Block1	congruent/STIM_013.jpg
857.974	0.774	0	congruent	Block1	congruent/STIM_013.jpg
861.076	0.489	1	congruent	Block1	congruent/STIM_013.jpg
863.816	0.524	1	congruent	Block1	congruent/STIM_013.jpg
867.496	0.775	1	congruent	Block1	congruent/STIM_013.jpg
870.577	0.484	1	congruent	Block1	congruent/STIM_014.jpg
873.888	0.694	1	congruent	Block1	congruent/STIM_014.jpg
878.015	0.781	1	congruent	Block1	congruent/STIM_014.jpg
880.939	0.853	1	congruent	Block1	congruent/STIM_014.jpg
884.426	0.76	1	congruent	Block1	congruent/STIM_014.jpg
888.7	0.833	1	congruent	Block1	congruent/STIM_015.jpg
892.413	0.68	1	congruent	Block1	congruent/STIM_015.jpg
896.327	0.719	1	congruent	Block1	congruent/STIM_015.jpg
899.278	0.781	1	congruent	Block1	congruent/STIM_015.jpg
903.741	0.595	1	congruent	Block1	congruent/STIM_015.jpg
906.773	0.594	0	congruent	Block1	congruent/STIM_016.jpg
909.648	0.582	1	congruent	Block1	congruent/STIM_016.jpg
912.864	0.567	1	congruent	Block1	congruent/STIM_016.jpg
916.01	0.45	1	congruent	Block1	congruent/STIM_016.jpg
919.829	0.779	1	congruent	Block1	congruent/STIM_016.jpg
924.025	0.52	1	congruent	Block1	congruent/STIM_017.jpg
926.86	0.862	1	congruent	Block1	congruent/STIM_017.jpg
931.732	0.636	1	congruent	Block1	congruent/STIM_017.jpg
935.409	0.644	1	congruent	Block1	congruent/STIM_017.jpg
938.357	0.731	1	congruent	Block1	congruent/STIM_017.jpg
942.427	0.657	1	congruent	Block1	congruent/STIM_018.jpg
946.897	0.579	1	congruent	Block1	congruent/STIM_018.jpg
950.966	0.825	1	congruent	Block1	congruent/STIM_018.jpg
955.106	0.571	1	congruent	Block1	congruent/STIM_018.jpg
958.805	0.84	1	congruent	Block1	congruent/STIM_018.jpg
963.576	0.798	1	congruent	Block1	congruent/STIM_019.jpg
967.067	0.453	1	congruent	Block1	congruent/STIM_019.jpg
971.118	0.506	1	congruent	Block1	congruent/STIM_019.jpg
975.075	0.534	1	congruent	Block1	congruent/STIM_019.jpg
979.197	0.798	1	congruent	Block1	congruent/STIM_019.jpg
982.853	0.746	1	congruent	Block1	congruent/STIM_020.jpg
987.081	0.507	1	congruent	Block1	congruent/STIM_020.jpg
990.751	0.546	1	congruent	Block1	congruent/STIM_020.jpg
993.651	0.735	1	congruent	Block1	congruent/STIM_020.jpg
997.469	0.68	1	congruent	Block1	congruent/STIM_020.jpg
1000.283	0.752	1	congruent	Block1	congruent/STIM_021.jpg
1003.646	0.569	1	congruent	Block1	congruent/STIM_021.jpg
1008.095	0.491	1	congruent	Block1	congruent/STIM_021.jpg
1011.124	0.698	1	congruent	Block1	congruent/STIM_021.jpg
1015.567	0.744	1	congruent	Block1	congruent/STIM_021.jpg
1018.72	0.694	1	congruent	Block1	congruent/STIM_022.jpg
1023.407	0.709	1	congruent	Block1	congruent/STIM_022.jpg
1026.448	0.705	1	congruent	Block1	congruent/STIM_022.jpg
1029.942	0.535	1	congruent	Block1	congruent/STIM_022.jpg
1032.817	0.413	1	congruent	Block1	congruent/STIM_022.jpg
1035.633	0.494	1	congruent	Block1	congruent/STIM_023.jpg
1040.116	0.506	1	congruent	Block1	congruent/STIM_023.jpg
1042.999	0.723	1	congruent	Block1	congruent/STIM_023.jpg
1046.977	0.673	1	congruent	Block1	congruent/STIM_023.jpg
1051.379	0.787	1	congruent	Block1	congruent/STIM_023.jpg
1054.839	0.559	1	congruent	Block1	congruent/STIM_024.jpg
1057.932	0.757	1	congruent	Block1	congruent/STIM_024.jpg
1061.284	0.511	1	congruent	Block1	congruent/STIM_024.jpg
1063.935	0.468	1	congruent	Block1	congruent/STIM_024.jpg
1066.515	0.554	1	congruent	Block1	congruent/STIM_024.jpg
1069.754	0.642	1	congruent	Block1	congruent/STIM_025.jpg
1072.965	0.477	1	congruent	Block1	congruent/STIM_025.jpg
1076.993	0.685	1	congruent	Block1	congruent/STIM_025.jpg
1081.64	0.493	1	congruent	Block1	congruent/STIM_025.jpg
1085.683	0.779	0	congruent	Block1	congruent/STIM_025.jpg
1089.412	0.666	1	congruent	Block1	congruent/STIM_026.jpg
1093.245	0.575	1	congruent	Block1	congruent/STIM_026.jpg
1096.381	0.538	1	congruent	Block1	congruent/STIM_026.jpg
1100.185	0.574	1	congruent	Block1	congruent/STIM_026.jpg
1103.562	0.772	1	congruent	Block1	congruent/STIM_026.jpg
1108.232	0.506	1	congruent	Block1	congruent/STIM_027.jpg
1112.686	0.37	1	congruent	Block1	congruent/STIM_027.jpg
1117.161	0.58	1	congruent	Block1	congruent/STIM_027.jpg
1120.037	0.531	1	congruent	Block1	congruent/STIM_027.jpg
1123.743	0.805	1	congruent	Block1	congruent/STIM_027.jpg
1127.061	0.506	1	congruent	Block1	congruent/STIM_028.jpg
1131.623	0.594	1	congruent	Block1	congruent/STIM_028.jpg
1135.033	0.816	1	congruent	Block1	congruent/STIM_028.jpg
1139.033	0.78	1	congruent	Block1	congruent/STIM_028.jpg
1142.238	0.695	1	congruent	Block1	congruent/STIM_028.jpg
1145.699	0.618	1	congruent	Block1	congruent/STIM_029.jpg
1150.15	0.598	1	congruent	Block1	congruent/STIM_029.jpg
1153.475	0.783	1	congruent	Block1	congruent/STIM_029.jpg
1157.677	0.739	0	congruent	Block1	congruent/STIM_029.jpg
1161.067	0.744	1	congruent	Block1	congruent/STIM_029.jpg
1165.839	0.618	1	incongruent	Block2	incongruent/STIM_000.jpg
1170.533	0.571	1	incongruent	Block2	incongruent/STIM_000.jpg
1174.226	0.779	1	incongruent	Block2	incongruent/STIM_000.jpg
1178.747	0.609	1	incongruent	Block2	incongruent/STIM_000.jpg
1183.265	0.471	1	incongruent	Block2	incongruent/STIM_000.jpg
1186.373	0.566	1	incongruent	Block2	incongruent/STIM_001.jpg
1190.55	0.884	1	incongruent	Block2	incongruent/STIM_001.jpg
1194.45	0.87	1	incongruent	Block2	incongruent/STIM_001.jpg
1199.26	0.49	1	incongruent	Block2	incongruent/STIM_001.jpg
1202.37	0.872	1	incongruent	Block2	incongruent/STIM_001.jpg
1206.542	0.938	1	incongruent	Block2	incongruent/STIM_002.jpg
1211.188	0.848	1	incongruent	Block2	incongruent/STIM_002.jpg
1214.896	0.757	1	incongruent	Block2	incongruent/STIM_002.jpg
1219.357	0.737	1	incongruent	Block2	incongruent/STIM_002.jpg
1223.192	0.698	1	incongruent	Block2	incongruent/STIM_002.jpg
1227.411	0.961	1	incongruent	Block2	incongruent/STIM_003.jpg
1231.5	0.974	1	incongruent	Block2	incongruent/STIM_003.jpg
1236.418	0.704	1	incongruent	Block2	incongruent/STIM_003.jpg
1239.617	0.566	1	incongruent	Block2	incongruent/STIM_003.jpg
1243.157	0.832	1	incongruent	Block2	incongruent/STIM_003.jpg
1246.425	0.739	1	incongruent	Block2	incongruent/STIM_004.jpg
1249.877	0.955	1	incongruent	Block2	incongruent/STIM_004.jpg
1253.316	0.958	1	incongruent	Block2	incongruent/STIM_004.jpg
1257.303	0.496	1	incongruent	Block2	incongruent/STIM_004.jpg
1261.016	0.611	1	incongruent	Block2	incongruent/STIM_004.jpg
1264.647	0.607	1	incongruent	Block2	incongruent/STIM_005.jpg
1269.102	0.582	1	incongruent	Block2	incongruent/STIM_005.jpg
1271.811	0.716	1	incongruent	Block2	incongruent/STIM_005.jpg
1275.603	0.776	1	incongruent	Block2	incongruent/STIM_005.jpg
1278.845	0.565	1	incongruent	Block2	incongruent/STIM_005.jpg
1281.882	0.956	1	incongruent	Block2	incongruent/STIM_006.jpg
1285.847	0.894	1	incongruent	Block2	incongruent/STIM_006.jpg
1288.874	0.683	1	incongruent	Block2	incongruent/STIM_006.jpg
1293.147	0.726	1	incongruent	Block2	incongruent/STIM_006.jpg
1297.429	0.584	1	incongruent	Block2	incongruent/STIM_006.jpg
1301.272	1.229	1	incongruent	Block2	incongruent/STIM_007.jpg
1306.495	0.779	1	incongruent	Block2	incongruent/STIM_007.jpg
1311.34	0.845	1	incongruent	Block2	incongruent/STIM_007.jpg
1315.892	0.456	1	incongruent	Block2	incongruent/STIM_007.jpg
1318.63	0.609	1	incongruent	Block2	incongruent/STIM_007.jpg
1321.755	0.946	1	incongruent	Block2	incongruent/STIM_008.jpg
1326.572	0.928	1	incongruent	Block2	incongruent/STIM_008.jpg
1330.48	0.662	1	incongruent	Block2	incongruent/STIM_008.jpg
1333.245	0.665	1	incongruent	Block2	incongruent/STIM_008.jpg
1337.431	0.602	1	incongruent	Block2	incongruent/STIM_008.jpg
1341.291	0.939	1	incongruent	Block2	incongruent/STIM_009.jpg
1346.043	0.474	1	incongruent	Block2	incongruent/STIM_009.jpg
1349.304	0.85	1	incongruent	Block2	incongruent/STIM_009.jpg
1353.753	0.812	0	incongruent	Block2	incongruent/STIM_009.jpg
1357.254	0.819	1	incongruent	Block2	incongruent/STIM_009.jpg
1360.536	0.669	1	incongruent	Block2	incongruent/STIM_010.jpg
1364.64	1.008	0	incongruent	Block2	incongruent/STIM_010.jpg
1369.477	0.855	1	incongruent	Block2	incongruent/STIM_010.jpg
1373.176	0.684	1	incongruent	Block2	incongruent/STIM_010.jpg
1376.249	0.449	1	incongruent	Block2	incongruent/STIM_010.jpg
1380.286	0.546	1	incongruent	Block2	incongruent/STIM_011.jpg
1384.572	0.873	1	incongruent	Block2	incongruent/STIM_011.jpg
1388.527	1.009	1	incongruent	Block2	incongruent/STIM_011.jpg
1391.833	0.697	1	incongruent	Block2	incongruent/STIM_011.jpg
1394.841	0.824	1	incongruent	Block2	incongruent/STIM_011.jpg
1399.107	0.466	1	incongruent	Block2	incongruent/STIM_012.jpg
1403.132	0.546	1	incongruent	Block2	incongruent/STIM_012.jpg
1407.039	0.847	1	incongruent	Block2	incongruent/STIM_012.jpg
1411.162	0.618	1	incongruent	Block2	incongruent/STIM_012.jpg
1414.226	0.867	1	incongruent	Block2	incongruent/STIM_012.jpg
1417.295	0.618	1	incongruent	Block2	incongruent/STIM_013.jpg
1420.533	0.819	1	incongruent	Block2	incongruent/STIM_013.jpg
1423.732	0.921	1	incongruent	Block2	incongruent/STIM_013.jpg
1428.332	0.906	1	incongruent	Block2	incongruent/STIM_013.jpg
1433.081	0.53	1	incongruent	Block2	incongruent/STIM_013.jpg
1437.214	0.992	1	incongruent	Block2	incongruent/STIM_014.jpg
1441.385	0.778	1	incongruent	Block2	incongruent/STIM_014.jpg
1445.275	0.831	1	incongruent	Block2	incongruent/STIM_014.jpg
1448.687	0.833	1	incongruent	Block2	incongruent/STIM_014.jpg
1452.515	0.641	1	incongruent	Block2	incongruent/STIM_014.jpg
1456.52	0.755	1	incongruent	Block2	incongruent/STIM_015.jpg
1460.64	0.804	1	incongruent	Block2	incongruent/STIM_015.jpg
1463.608	0.692	1	incongruent	Block2	incongruent/STIM_015.jpg
1466.633	0.749	1	incongruent	Block2	incongruent/STIM_015.jpg
1470.33	0.565	1	incongruent	Block2	incongruent/STIM_015.jpg
1473.644	0.846	1	incongruent	Block2	incongruent/STIM_016.jpg
1477.427	0.601	1	incongruent	Block2	incongruent/STIM_016.jpg
1481.304	0.852	1	incongruent	Block2	incongruent/STIM_016.jpg
1484.409	0.766	0	incongruent	Block2	incongruent/STIM_016.jpg
1488.228	0.75	1	incongruent	Block2	incongruent/STIM_016.jpg
1491.494	0.868	1	incongruent	Block2	incongruent/STIM_017.jpg
1496.182	0.606	1	incongruent	Block2	incongruent/STIM_017.jpg
1500.294	0.571	1	incongruent	Block2	incongruent/STIM_017.jpg
1503.503	0.578	1	incongruent	Block2	incongruent/STIM_017.jpg
1508.053	0.97	1	incongruent	Block2	incongruent/STIM_017.jpg
1512.0	1.163	1	incongruent	Block2	incongruent/STIM_018.jpg
1516.647	0.561	0	incongruent	Block2	incongruent/STIM_018.jpg
1519.949	0.754	1	incongruent	Block2	incongruent/STIM_018.jpg
1524.373	0.649	1	incongruent	Block2	incongruent/STIM_018.jpg
1527.918	0.892	1	incongruent	Block2	incongruent/STIM_018.jpg
1532.667	0.775	1	incongruent	Block2	incongruent/STIM_019.jpg
1537.116	0.479	1	incongruent	Block2	incongruent/STIM_019.jpg
1541.006	0.954	1	incongruent	Block2	incongruent/STIM_019.jpg
1544.907	0.618	1	incongruent	Block2	incongruent/STIM_019.jpg
1549.526	0.581	1	incongruent	Block2	incongruent/STIM_019.jpg
1553.52	1.246	1	incongruent	Block2	incongruent/STIM_020.jpg
1557.935	1.062	1	incongruent	Block2	incongruent/STIM_020.jpg
1562.682	0.635	1	incongruent	Block2	incongruent/STIM_020.jpg
1565.51	0.852	1	incongruent	Block2	incongruent/STIM_020.jpg
1569.612	0.447	1	incongruent	Block2	incongruent/STIM_020.jpg
1573.539	0.848	1	incongruent	Block2	incongruent/STIM_021.jpg
1577.774	0.556	1	incongruent	Block2	incongruent/STIM_021.jpg
1582.242	0.762	1	incongruent	Block2	incongruent/STIM_021.jpg
1586.362	0.643	1	incongruent	Block2	incongruent/STIM_021.jpg
1590.039	1.021	1	incongruent	Block2	incongruent/STIM_021.jpg
1594.331	0.891	1	incongruent	Block2	incongruent/STIM_022.jpg
1598.547	0.482	1	incongruent	Block2	incongruent/STIM_022.jpg
1603.071	0.798	1	incongruent	Block2	incongruent/STIM_022.jpg
1606.484	0.819	1	incongruent	Block2	incongruent/STIM_022.jpg
1611.347	0.573	1	incongruent	Block2	incongruent/STIM_022.jpg
1614.481	0.512	1	incongruent	Block2	incongruent/STIM_023.jpg
1617.326	1.1	1	incongruent	Block2	incongruent/STIM_023.jpg
1620.746	0.428	1	incongruent	Block2	incongruent/STIM_023.jpg
1624.942	0.691	1	incongruent	Block2	incongruent/STIM_023.jpg
1629.116	0.557	1	incongruent	Block2	incongruent/STIM_023.jpg
1633.458	0.725	1	incongruent	Block2	incongruent/STIM_024.jpg
1637.352	0.844	1	incongruent	Block2	incongruent/STIM_024.jpg
1640.378	0.736	1	incongruent	Block2	incongruent/STIM_024.jpg
1645.028	0.73	1	incongruent	Block2	incongruent/STIM_024.jpg
1648.843	0.631	1	incongruent	Block2	incongruent/STIM_024.jpg
1653.406	0.771	1	incongruent	Block2	incongruent/STIM_025.jpg
1657.424	0.612	1	incongruent	Block2	incongruent/STIM_025.jpg
1660.958	0.716	1	incongruent	Block2	incongruent/STIM_025.jpg
1665.371	0.762	1	incongruent	Block2	incongruent/STIM_025.jpg
1668.341	0.497	1	incongruent	Block2	incongruent/STIM_025.jpg
1672.17	0.777	1	incongruent	Block2	incongruent/STIM_026.jpg
1675.922	0.612	1	incongruent	Block2	incongruent/STIM_026.jpg
1679.841	1.081	1	incongruent	Block2	incongruent/STIM_026.jpg
1684.255	0.946	1	incongruent	Block2	incongruent/STIM_026.jpg
1689.214	0.678	1	incongruent	Block2	incongruent/STIM_026.jpg
1692.516	0.675	1	incongruent	Block2	incongruent/STIM_027.jpg
1695.304	0.437	1	incongruent	Block2	incongruent/STIM_027.jpg
1698.13	0.502	1	incongruent	Block2	incongruent/STIM_027.jpg
1702.382	0.614	1	incongruent	Block2	incongruent/STIM_027.jpg
1706.375	0.694	1	incongruent	Block2	incongruent/STIM_027.jpg
1710.078	0.811	1	incongruent	Block2	incongruent/STIM_028.jpg
1714.454	0.844	1	incongruent	Block2	incongruent/STIM_028.jpg
1717.852	0.601	1	incongruent	Block2	incongruent/STIM_028.jpg
1722.275	0.726	1	incongruent	Block2	incongruent/STIM_028.jpg
1726.365	0.846	1	incongruent	Block2	incongruent/STIM_028.jpg
1730.529	0.691	1	incongruent	Block2	incongruent/STIM_029.jpg
1734.201	0.533	1	incongruent	Block2	incongruent/STIM_029.jpg
1736.946	0.946	1	incongruent	Block2	incongruent/STIM_029.jpg
1740.763	0.672	1	incongruent	Block2	incongruent/STIM_029.jpg
1744.05	0.926	1	incongruent	Block2	incongruent/STIM_029.jpg
1747.455	0.59	1	congruent	Block2	congruent/STIM_000.jpg
1751.402	0.681	1	congruent	Block2	congruent/STIM_000.jpg
1754.21	0.732	1	congruent	Block2	congruent/STIM_000.jpg
1758.604	0.643	1	congruent	Block2	congruent/STIM_000.jpg
1762.521	0.636	1	congruent	Block2	congruent/STIM_000.jpg
1765.382	0.676	1	congruent	Block2	congruent/STIM_001.jpg
1768.361	0.513	1	congruent	Block2	congruent/STIM_001.jpg
1771.429	0.55	1	congruent	Block2	congruent/STIM_001.jpg
1775.254	0.78	1	congruent	Block2	congruent/STIM_001.jpg
1779.893	0.676	1	congruent	Block2	congruent/STIM_001.jpg
1782.69	0.702	1	congruent	Block2	congruent/STIM_002.jpg
1786.381	0.753	1	congruent	Block2	congruent/STIM_002.jpg
1790.842	0.768	1	congruent	Block2	congruent/STIM_002.jpg
1793.918	0.593	1	congruent	Block2	congruent/STIM_002.jpg
1798.56	0.652	1	congruent	Block2	congruent/STIM_002.jpg
1802.013	0.439	1	congruent	Block2	congruent/STIM_003.jpg
1804.715	0.711	1	congruent	Block2	congruent/STIM_003.jpg
1807.856	0.711	1	congruent	Block2	congruent/STIM_003.jpg
1811.595	0.738	1	congruent	Block2	congruent/STIM_003.jpg
1815.589	0.866	1	congruent	Block2	congruent/STIM_003.jpg
1818.831	0.824	1	congruent	Block2	congruent/STIM_004.jpg
1822.957	0.52	1	congruent	Block2	congruent/STIM_004.jpg
1825.657	0.635	1	congruent	Block2	congruent/STIM_004.jpg
1829.767	0.679	1	congruent	Block2	congruent/STIM_004.jpg
1834.13	0.74	1	congruent	Block2	congruent/STIM_004.jpg
1837.816	0.585	1	congruent	Block2	congruent/STIM_005.jpg
1842.127	0.772	1	congruent	Block2	congruent/STIM_005.jpg
1845.685	0.494	1	congruent	Block2	congruent/STIM_005.jpg
1849.277	0.715	1	congruent	Block2	congruent/STIM_005.jpg
1852.595	0.556	1	congruent	Block2	congruent/STIM_005.jpg
1857.194	0.445	1	congruent	Block2	congruent/STIM_006.jpg
1860.986	0.672	1	congruent	Block2	congruent/STIM_006.jpg
1864.136	0.716	1	congruent	Block2	congruent/STIM_006.jpg
1868.717	0.758	1	congruent	Block2	congruent/STIM_006.jpg
1872.513	0.61	1	congruent	Block2	congruent/STIM_006.jpg
1876.66	0.514	1	congruent	Block2	congruent/STIM_007.jpg
1880.918	0.565	1	congruent	Block2	congruent/STIM_007.jpg
1885.297	0.618	1	congruent	Block2	congruent/STIM_007.jpg
1890.005	0.517	1	congruent	Block2	congruent/STIM_007.jpg
1893.27	0.783	1	congruent	Block2	congruent/STIM_007.jpg
1897.785	0.495	1	congruent	Block2	congruent/STIM_008.jpg
1901.012	0.628	1	congruent	Block2	congruent/STIM_008.jpg
1905.43	0.722	1	congruent	Block2	congruent/STIM_008.jpg
1909.27	0.713	1	congruent	Block2	congruent/STIM_008.jpg
1912.276	0.518	1	congruent	Block2	congruent/STIM_008.jpg
1915.215	0.691	1	congruent	Block2	congruent/STIM_009.jpg
1917.998	0.62	1	congruent	Block2	congruent/STIM_009.jpg
1921.035	0.814	1	congruent	Block2	congruent/STIM_009.jpg
1924.294	0.749	1	congruent	Block2	congruent/STIM_009.jpg
1928.668	0.377	1	congruent	Block2	congruent/STIM_009.jpg
1932.802	0.842	1	congruent	Block2	congruent/STIM_010.jpg
1936.13	0.644	1	congruent	Block2	congruent/STIM_010.jpg
1938.916	0.497	1	congruent	Block2	congruent/STIM_010.jpg
1941.982	0.594	1	congruent	Block2	congruent/STIM_010.jpg
1945.497	0.83	1	congruent	Block2	congruent/STIM_010.jpg
1948.491	0.712	1	congruent	Block2	congruent/STIM_011.jpg
1952.27	0.765	1	congruent	Block2	congruent/STIM_011.jpg
1955.774	0.562	1	congruent	Block2	congruent/STIM_011.jpg
1958.368	0.643	1	congruent	Block2	congruent/STIM_011.jpg
1961.496	0.652	1	congruent	Block2	congruent/STIM_011.jpg
1965.558	0.879	1	congruent	Block2	congruent/STIM_012.jpg
1969.968	0.712	1	congruent	Block2	congruent/STIM_012.jpg
1972.983	0.574	1	congruent	Block2	congruent/STIM_012.jpg
1976.001	0.78	1	congruent	Block2	congruent/STIM_012.jpg
1980.574	0.407	1	congruent	Block2	congruent/STIM_012.jpg
1983.608	0.488	1	congruent	Block2	congruent/STIM_013.jpg
1987.785	0.685	1	congruent	Block2	congruent/STIM_013.jpg
1992.041	0.807	1	congruent	Block2	congruent/STIM_013.jpg
1995.694	0.538	1	congruent	Block2	congruent/STIM_013.jpg
1998.912	0.66	1	congruent	Block2	congruent/STIM_013.jpg
2002.889	0.595	1	congruent	Block2	congruent/STIM_014.jpg
2007.13	0.679	1	congruent	Block2	congruent/STIM_014.jpg
2010.836	0.53	1	congruent	Block2	congruent/STIM_014.jpg
2014.287	0.636	1	congruent	Block2	congruent/STIM_014.jpg
2018.762	0.503	1	congruent	Block2	congruent/STIM_014.jpg
2023.131	0.846	1	congruent	Block2	congruent/STIM_015.jpg
2027.504	0.584	1	congruent	Block2	congruent/STIM_015.jpg
2030.561	0.587	0	congruent	Block2	congruent/STIM_015.jpg
2035.146	0.474	1	congruent	Block2	congruent/STIM_015.jpg
2038.565	0.715	1	congruent	Block2	congruent/STIM_015.jpg
2041.705	0.609	1	congruent	Block2	congruent/STIM_016.jpg
2045.262	0.8	1	congruent	Block2	congruent/STIM_016.jpg
2049.446	0.8	1	congruent	Block2	congruent/STIM_016.jpg
2052.675	0.794	1	congruent	Block2	congruent/STIM_016.jpg
2056.018	0.819	1	congruent	Block2	congruent/STIM_016.jpg
2058.978	0.548	0	congruent	Block2	congruent/STIM_017.jpg
2062.579	0.74	1	congruent	Block2	congruent/STIM_017.jpg
2066.242	0.684	1	congruent	Block2	congruent/STIM_017.jpg
2070.079	0.725	1	congruent	Block2	congruent/STIM_017.jpg
2073.165	0.541	1	congruent	Block2	congruent/STIM_017.jpg
2076.929	0.597	1	congruent	Block2	congruent/STIM_018.jpg
2080.509	0.899	1	congruent	Block2	congruent/STIM_018.jpg
2083.558	0.588	1	congruent	Block2	congruent/STIM_018.jpg
2087.239	0.652	1	congruent	Block2	congruent/STIM_018.jpg
2091.011	0.62	1	congruent	Block2	congruent/STIM_018.jpg
2095.145	0.557	0	congruent	Block2	congruent/STIM_019.jpg
2098.839	0.671	1	congruent	Block2	congruent/STIM_019.jpg
2102.64	0.802	1	congruent	Block2	congruent/STIM_019.jpg
2106.269	0.656	1	congruent	Block2	congruent/STIM_019.jpg
2109.628	0.689	1	congruent	Block2	congruent/STIM_019.jpg
2113.373	0.695	1	congruent	Block2	congruent/STIM_020.jpg
2117.203	0.546	1	congruent	Block2	congruent/STIM_020.jpg
2120.824	0.598	1	congruent	Block2	congruent/STIM_020.jpg
2124.638	0.737	1	congruent	Block2	congruent/STIM_020.jpg
2127.847	0.547	1	congruent	Block2	congruent/STIM_020.jpg
2132.331	0.843	0	congruent	Block2	congruent/STIM_021.jpg
2136.08	0.566	1	congruent	Block2	congruent/STIM_021.jpg
2138.736	0.5	1	congruent	Block2	congruent/STIM_021.jpg
2141.343	0.492	1	congruent	Block2	congruent/STIM_021.jpg
2145.145	0.442	1	congruent	Block2	congruent/STIM_021.jpg
2148.087	0.488	1	congruent	Block2	congruent/STIM_022.jpg
2152.165	0.5	1	congruent	Block2	congruent/STIM_022.jpg
2155.77	0.602	1	congruent	Block2	congruent/STIM_022.jpg
2160.267	0.56	1	congruent	Block2	congruent/STIM_022.jpg
2164.307	0.72	1	congruent	Block2	congruent/STIM_022.jpg
2167.82	0.74	1	congruent	Block2	congruent/STIM_023.jpg
2171.717	0.419	1	congruent	Block2	congruent/STIM_023.jpg
2174.967	0.444	1	congruent	Block2	congruent/STIM_023.jpg
2178.409	0.595	1	congruent	Block2	congruent/STIM_023.jpg
2181.164	0.785	1	congruent	Block2	congruent/STIM_023.jpg
2185.304	0.742	1	congruent	Block2	congruent/STIM_024.jpg
2189.871	0.834	1	congruent	Block2	congruent/STIM_024.jpg
2192.969	0.55	1	congruent	Block2	congruent/STIM_024.jpg
2196.915	0.582	1	congruent	Block2	congruent/STIM_024.jpg
2201.282	0.743	1	congruent	Block2	congruent/STIM_024.jpg
2204.952	0.668	1	congruent	Block2	congruent/STIM_025.jpg
2209.137	0.671	1	congruent	Block2	congruent/STIM_025.jpg
2212.37	0.613	1	congruent	Block2	congruent/STIM_025.jpg
2215.764	0.6	1	congruent	Block2	congruent/STIM_025.jpg
2219.919	0.893	1	congruent	Block2	congruent/STIM_025.jpg
2224.521	0.609	1	congruent	Block2	congruent/STIM_026.jpg
2228.49	0.898	1	congruent	Block2	congruent/STIM_026.jpg
2231.723	0.762	1	congruent	Block2	congruent/STIM_026.jpg
2234.981	0.766	1	congruent	Block2	congruent/STIM_026.jpg
2238.213	0.735	1	congruent	Block2	congruent/STIM_026.jpg
2242.83	0.637	1	congruent	Block2	congruent/STIM_027.jpg
2246.517	0.74	1	congruent	Block2	congruent/STIM_027.jpg
2250.335	0.646	1	congruent	Block2	congruent/STIM_027.jpg
2254.835	0.528	1	congruent	Block2	congruent/STIM_027.jpg
2258.021	0.791	1	congruent	Block2	congruent/STIM_027.jpg
2262.771	0.662	1	congruent	Block2	congruent/STIM_028.jpg
2266.06	0.639	1	congruent	Block2	congruent/STIM_028.jpg
2270.321	0.701	1	congruent	Block2	congruent/STIM_028.jpg
2274.691	0.58	0	congruent	Block2	congruent/STIM_028.jpg
2278.493	0.798	1	congruent	Block2	congruent/STIM_028.jpg
2283.02	0.672	1	congruent	Block2	congruent/STIM_029.jpg
2287.464	0.637	1	congruent	Block2	congruent/STIM_029.jpg
2290.312	0.541	1	congruent	Block2	congruent/STIM_029.jpg
2294.295	0.791	1	congruent	Block2	congruent/STIM_029.jpg
2298.411	0.81	1	congruent	Block2	congruent/STIM_029.jpg
2303.046	0.813	1	incongruent	Block3	incongruent/STIM_000.jpg
2306.691	0.81	1	incongruent	Block3	incongruent/STIM_000.jpg
2310.313	0.97	1	incongruent	Block3	incongruent/STIM_000.jpg
2313.514	0.73	1	incongruent	Block3	incongruent/STIM_000.jpg
2316.591	0.649	1	incongruent	Block3	incongruent/STIM_000.jpg
2320.278	0.368	1	incongruent	Block3	incongruent/STIM_001.jpg
2323.534	0.943	1	incongruent	Block3	incongruent/STIM_001.jpg
2327.415	0.82	1	incongruent	Block3	incongruent/STIM_001.jpg
2332.214	0.513	1	incongruent	Block3	incongruent/STIM_001.jpg
2335.213	0.69	1	incongruent	Block3	incongruent/STIM_001.jpg
2338.333	0.665	1	incongruent	Block3	incongruent/STIM_002.jpg
2342.956	0.898	1	incongruent	Block3	incongruent/STIM_002.jpg
2347.448	0.989	1	incongruent	Block3	incongruent/STIM_002.jpg
2351.197	0.773	0	incongruent	Block3	incongruent/STIM_002.jpg
2355.123	0.779	1	incongruent	Block3	incongruent/STIM_002.jpg
2359.183	0.892	1	incongruent	Block3	incongruent/STIM_003.jpg
2362.578	0.914	1	incongruent	Block3	incongruent/STIM_003.jpg
2367.505	0.69	1	incongruent	Block3	incongruent/STIM_003.jpg
2371.533	0.679	1	incongruent	Block3	incongruent/STIM_003.jpg
2374.616	0.884	1	incongruent	Block3	incongruent/STIM_003.jpg
2378.785	0.618	1	incongruent	Block3	incongruent/STIM_004.jpg
2383.03	0.969	1	incongruent	Block3	incongruent/STIM_004.jpg
2386.599	0.705	1	incongruent	Block3	incongruent/STIM_004.jpg
2390.987	0.56	1	incongruent	Block3	incongruent/STIM_004.jpg
2393.907	0.74	1	incongruent	Block3	incongruent/STIM_004.jpg
2397.216	0.666	1	incongruent	Block3	incongruent/STIM_005.jpg
2400.081	0.558	1	incongruent	Block3	incongruent/STIM_005.jpg
2404.708	0.828	1	incongruent	Block3	incongruent/STIM_005.jpg
2408.851	0.92	1	incongruent	Block3	incongruent/STIM_005.jpg
2413.068	0.61	1	incongruent	Block3	incongruent/STIM_005.jpg
2416.452	0.965	1	incongruent	Block3	incongruent/STIM_006.jpg
2420.021	0.429	1	incongruent	Block3	incongruent/STIM_006.jpg
2423.656	1.067	1	incongruent	Block3	incongruent/STIM_006.jpg
2427.979	0.873	1	incongruent	Block3	incongruent/STIM_006.jpg
2432.704	0.549	1	incongruent	Block3	incongruent/STIM_006.jpg
2437.056	0.712	1	incongruent	Block3	incongruent/STIM_007.jpg
2439.949	0.741	1	incongruent	Block3	incongruent/STIM_007.jpg
2444.652	0.917	1	incongruent	Block3	incongruent/STIM_007.jpg
2448.713	0.476	1	incongruent	Block3	incongruent/STIM_007.jpg
2453.007	0.709	1	incongruent	Block3	incongruent/STIM_007.jpg
2457.612	0.917	1	incongruent	Block3	incongruent/STIM_008.jpg
2461.9	0.67	1	incongruent	Block3	incongruent/STIM_008.jpg
2465.235	0.825	1	incongruent	Block3	incongruent/STIM_008.jpg
2469.547	0.771	0	incongruent	Block3	incongruent/STIM_008.jpg
2474.278	0.9	1	incongruent	Block3	incongruent/STIM_008.jpg
2478.609	0.736	1	incongruent	Block3	incongruent/STIM_009.jpg
2481.755	0.523	1	incongruent	Block3	incongruent/STIM_009.jpg
2486.228	0.723	1	incongruent	Block3	incongruent/STIM_009.jpg
2489.641	0.849	1	incongruent	Block3	incongruent/STIM_009.jpg
2492.839	0.834	1	incongruent	Block3	incongruent/STIM_009.jpg
2497.466	1.007	1	incongruent	Block3	incongruent/STIM_010.jpg
2502.281	0.916	1	incongruent	Block3	incongruent/STIM_010.jpg
2505.509	0.668	1	incongruent	Block3	incongruent/STIM_010.jpg
2508.919	0.728	1	incongruent	Block3	incongruent/STIM_010.jpg
2511.791	0.503	1	incongruent	Block3	incongruent/STIM_010.jpg
2515.911	0.756	1	incongruent	Block3	incongruent/STIM_011.jpg
2519.19	0.932	1	incongruent	Block3	incongruent/STIM_011.jpg
2524.163	0.799	1	incongruent	Block3	incongruent/STIM_011.jpg
2527.794	0.548	1	incongruent	Block3	incongruent/STIM_011.jpg
2530.48	0.687	1	incongruent	Block3	incongruent/STIM_011.jpg
2533.518	0.954	1	incongruent	Block3	incongruent/STIM_012.jpg
2538.33	0.7	1	incongruent	Block3	incongruent/STIM_012.jpg
2542.534	1.035	1	incongruent	Block3	incongruent/STIM_012.jpg
2545.891	0.623	1	incongruent	Block3	incongruent/STIM_012.jpg
2549.27	0.479	1	incongruent	Block3	incongruent/STIM_012.jpg
2553.381	0.76	1	incongruent	Block3	incongruent/STIM_013.jpg
2557.936	0.796	0	incongruent	Block3	incongruent/STIM_013.jpg
2560.965	0.658	1	incongruent	Block3	incongruent/STIM_013.jpg
2564.754	0.756	1	incongruent	Block3	incongruent/STIM_013.jpg
2568.686	0.488	0	incongruent	Block3	incongruent/STIM_013.jpg
2573.023	0.89	1	incongruent	Block3	incongruent/STIM_014.jpg
2576.208	0.967	1	incongruent	Block3	incongruent/STIM_014.jpg
2580.795	0.729	1	incongruent	Block3	incongruent/STIM_014.jpg
2585.171	0.604	1	incongruent	Block3	incongruent/STIM_014.jpg
2588.587	0.484	1	incongruent	Block3	incongruent/STIM_014.jpg
2593.066	0.764	1	incongruent	Block3	incongruent/STIM_015.jpg
2597.351	0.828	1	incongruent	Block3	incongruent/STIM_015.jpg
2601.93	0.737	1	incongruent	Block3	incongruent/STIM_015.jpg
2604.758	0.881	1	incongruent	Block3	incongruent/STIM_015.jpg
2608.497	0.884	1	incongruent	Block3	incongruent/STIM_015.jpg
2611.902	0.566	1	incongruent	Block3	incongruent/STIM_016.jpg
2615.371	0.577	1	incongruent	Block3	incongruent/STIM_016.jpg
2619.86	0.934	1	incongruent	Block3	incongruent/STIM_016.jpg
2624.384	0.567	1	incongruent	Block3	incongruent/STIM_016.jpg
2627.825	0.623	1	incongruent	Block3	incongruent/STIM_016.jpg
2631.46	0.824	0	incongruent	Block3	incongruent/STIM_017.jpg
2634.767	0.704	1	incongruent	Block3	incongruent/STIM_017.jpg
2639.402	0.914	1	incongruent	Block3	incongruent/STIM_017.jpg
2642.56	1.044	1	incongruent	Block3	incongruent/STIM_017.jpg
2645.801	0.512	1	incongruent	Block3	incongruent/STIM_017.jpg
2648.541	0.771	1	incongruent	Block3	incongruent/STIM_018.jpg
2652.171	0.545	1	incongruent	Block3	incongruent/STIM_018.jpg
2656.749	0.705	1	incongruent	Block3	incongruent/STIM_018.jpg
2660.508	0.958	1	incongruent	Block3	incongruent/STIM_018.jpg
2663.818	0.633	1	incongruent	Block3	incongruent/STIM_018.jpg
2667.75	0.963	1	incongruent	Block3	incongruent/STIM_019.jpg
2671.635	0.822	1	incongruent	Block3	incongruent/STIM_019.jpg
2676.241	0.481	1	incongruent	Block3	incongruent/STIM_019.jpg
2679.366	0.938	1	incongruent	Block3	incongruent/STIM_019.jpg
2682.793	0.583	1	incongruent	Block3	incongruent/STIM_019.jpg
2687.232	0.77	1	incongruent	Block3	incongruent/STIM_020.jpg
2692.008	0.584	1	incongruent	Block3	incongruent/STIM_020.jpg
2696.293	0.576	1	incongruent	Block3	incongruent/STIM_020.jpg
2699.333	0.645	0	incongruent	Block3	incongruent/STIM_020.jpg
2702.49	0.741	1	incongruent	Block3	incongruent/STIM_020.jpg
2705.469	0.512	1	incongruent	Block3	incongruent/STIM_021.jpg
2710.025	0.847	1	incongruent	Block3	incongruent/STIM_021.jpg
2714.618	0.605	1	incongruent	Block3	incongruent/STIM_021.jpg
2718.775	0.601	1	incongruent	Block3	incongruent/STIM_021.jpg
2721.885	1.014	1	incongruent	Block3	incongruent/STIM_021.jpg
2726.592	0.789	0	incongruent	Block3	incongruent/STIM_022.jpg
2730.002	0.791	1	incongruent	Block3	incongruent/STIM_022.jpg
2732.978	0.458	1	incongruent	Block3	incongruent/STIM_022.jpg
2737.554	0.597	1	incongruent	Block3	incongruent/STIM_022.jpg
2740.694	0.587	1	incongruent	Block3	incongruent/STIM_022.jpg
2744.02	0.667	1	incongruent	Block3	incongruent/STIM_023.jpg
2746.914	0.54	1	incongruent	Block3	incongruent/STIM_023.jpg
2750.738	0.409	1	incongruent	Block3	incongruent/STIM_023.jpg
2753.356	0.658	1	incongruent	Block3	incongruent/STIM_023.jpg
2756.196	0.846	1	incongruent	Block3	incongruent/STIM_023.jpg
2759.471	0.751	1	incongruent	Block3	incongruent/STIM_024.jpg
2763.533	0.814	1	incongruent	Block3	incongruent/STIM_024.jpg
2766.887	0.961	1	incongruent	Block3	incongruent/STIM_024.jpg
2771.463	0.603	1	incongruent	Block3	incongruent/STIM_024.jpg
2775.64	0.634	1	incongruent	Block3	incongruent/STIM_024.jpg
2779.372	0.665	1	incongruent	Block3	incongruent/STIM_025.jpg
2783.646	0.892	1	incongruent	Block3	incongruent/STIM_025.jpg
2788.515	0.758	1	incongruent	Block3	incongruent/STIM_025.jpg
2791.792	0.596	1	incongruent	Block3	incongruent/STIM_025.jpg
2795.495	0.736	1	incongruent	Block3	incongruent/STIM_025.jpg
2799.117	0.636	1	incongruent	Block3	incongruent/STIM_026.jpg
2802.287	0.852	1	incongruent	Block3	incongruent/STIM_026.jpg
2806.188	0.612	1	incongruent	Block3	incongruent/STIM_026.jpg
2810.127	0.831	1	incongruent	Block3	incongruent/STIM_026.jpg
2813.322	0.596	1	incongruent	Block3	incongruent/STIM_026.jpg
2817.523	0.932	1	incongruent	Block3	incongruent/STIM_027.jpg
2821.59	0.652	1	incongruent	Block3	incongruent/STIM_027.jpg
2825.507	0.564	1	incongruent	Block3	incongruent/STIM_027.jpg
2829.231	0.804	1	incongruent	Block3	incongruent/STIM_027.jpg
2833.777	0.542	1	incongruent	Block3	incongruent/STIM_027.jpg
2836.738	0.388	1	incongruent	Block3	incongruent/STIM_028.jpg
2839.258	0.695	1	incongruent	Block3	incongruent/STIM_028.jpg
2842.271	0.574	1	incongruent	Block3	incongruent/STIM_028.jpg
2846.141	0.567	1	incongruent	Block3	incongruent/STIM_028.jpg
2848.977	0.631	1	incongruent	Block3	incongruent/STIM_028.jpg
2852.961	0.722	1	incongruent	Block3	incongruent/STIM_029.jpg
2856.361	0.915	1	incongruent	Block3	incongruent/STIM_029.jpg
2860.135	0.487	1	incongruent	Block3	incongruent/STIM_029.jpg
2863.241	0.575	1	incongruent	Block3	incongruent/STIM_029.jpg
2866.372	0.703	1	incongruent	Block3	incongruent/STIM_029.jpg
2869.511	0.635	1	congruent	Block3	congruent/STIM_000.jpg
2873.368	0.731	1	congruent	Block3	congruent/STIM_000.jpg
2877.054	0.673	1	congruent	Block3	congruent/STIM_000.jpg
2880.851	0.62	1	congruent	Block3	congruent/STIM_000.jpg
2884.976	0.715	1	congruent	Block3	congruent/STIM_000.jpg
2889.247	0.504	1	congruent	Block3	congruent/STIM_001.jpg
2892.902	0.448	1	congruent	Block3	congruent/STIM_001.jpg
2897.018	0.448	1	congruent	Block3	congruent/STIM_001.jpg
2900.307	0.509	1	congruent	Block3	congruent/STIM_001.jpg
2903.669	0.555	1	congruent	Block3	congruent/STIM_001.jpg
2907.107	0.69	1	congruent	Block3	congruent/STIM_002.jpg
2910.226	0.498	1	congruent	Block3	congruent/STIM_002.jpg
2913.771	0.789	1	congruent	Block3	congruent/STIM_002.jpg
2917.483	0.431	1	congruent	Block3	congruent/STIM_002.jpg
2921.133	0.633	1	congruent	Block3	congruent/STIM_002.jpg
2923.972	0.683	1	congruent	Block3	congruent/STIM_003.jpg
2926.848	0.748	1	congruent	Block3	congruent/STIM_003.jpg
2931.467	0.783	1	congruent	Block3	congruent/STIM_003.jpg
2934.887	0.693	1	congruent	Block3	congruent/STIM_003.jpg
2937.929	0.792	1	congruent	Block3	congruent/STIM_003.jpg
2941.416	0.726	1	congruent	Block3	congruent/STIM_004.jpg
2945.107	0.696	1	congruent	Block3	congruent/STIM_004.jpg
2948.593	0.546	1	congruent	Block3	congruent/STIM_004.jpg
2953.103	0.594	1	congruent	Block3	congruent/STIM_004.jpg
2955.878	0.652	1	congruent	Block3	congruent/STIM_004.jpg
2959.729	0.845	1	congruent	Block3	congruent/STIM_005.jpg
2964.329	0.576	1	congruent	Block3	congruent/STIM_005.jpg
2967.366	0.617	1	congruent	Block3	congruent/STIM_005.jpg
2970.387	0.634	1	congruent	Block3	congruent/STIM_005.jpg
2973.589	0.801	1	congruent	Block3	congruent/STIM_005.jpg
2977.163	0.74	1	congruent	Block3	congruent/STIM_006.jpg
2981.83	0.543	1	congruent	Block3	congruent/STIM_006.jpg
2986.0	0.543	1	congruent	Block3	congruent/STIM_006.jpg
2988.899	0.836	1	congruent	Block3	congruent/STIM_006.jpg
2993.294	0.699	1	congruent	Block3	congruent/STIM_006.jpg
2997.756	0.51	1	congruent	Block3	congruent/STIM_007.jpg
3002.294	0.736	0	congruent	Block3	congruent/STIM_007.jpg
3005.82	0.69	0	congruent	Block3	congruent/STIM_007.jpg
3009.819	0.729	1	congruent	Block3	congruent/STIM_007.jpg
3013.076	0.807	1	congruent	Block3	congruent/STIM_007.jpg
3016.405	0.395	1	congruent	Block3	congruent/STIM_008.jpg
3019.718	0.493	1	congruent	Block3	congruent/STIM_008.jpg
3022.963	0.602	1	congruent	Block3	congruent/STIM_008.jpg
3027.335	0.791	1	congruent	Block3	congruent/STIM_008.jpg
3031.354	0.574	1	congruent	Block3	congruent/STIM_008.jpg
3033.897	0.741	1	congruent	Block3	congruent/STIM_009.jpg
3037.963	0.502	1	congruent	Block3	congruent/STIM_009.jpg
3040.755	0.664	1	congruent	Block3	congruent/STIM_009.jpg
3043.783	0.725	1	congruent	Block3	congruent/STIM_009.jpg
3048.273	0.854	1	congruent	Block3	congruent/STIM_009.jpg
3052.119	0.787	1	congruent	Block3	congruent/STIM_010.jpg
3056.661	0.502	1	congruent	Block3	congruent/STIM_010.jpg
3060.944	0.664	1	congruent	Block3	congruent/STIM_010.jpg
3065.484	0.83	1	congruent	Block3	congruent/STIM_010.jpg
3070.27	0.708	1	congruent	Block3	congruent/STIM_010.jpg
3073.103	0.764	0	congruent	Block3	congruent/STIM_011.jpg
3076.604	0.615	1	congruent	Block3	congruent/STIM_011.jpg
3079.33	0.708	1	congruent	Block3	congruent/STIM_011.jpg
3083.991	0.598	1	congruent	Block3	congruent/STIM_011.jpg
3087.842	0.62	1	congruent	Block3	congruent/STIM_011.jpg
3091.575	0.439	1	congruent	Block3	congruent/STIM_012.jpg
3095.638	0.618	1	congruent	Block3	congruent/STIM_012.jpg
3099.842	0.714	1	congruent	Block3	congruent/STIM_012.jpg
3103.378	0.644	0	congruent	Block3	congruent/STIM_012.jpg
3108.095	0.705	1	congruent	Block3	congruent/STIM_012.jpg
3112.636	0.633	1	congruent	Block3	congruent/STIM_013.jpg
3116.262	0.817	1	congruent	Block3	congruent/STIM_013.jpg
3119.788	0.642	1	congruent	Block3	congruent/STIM_013.jpg
3123.76	0.415	1	congruent	Block3	congruent/STIM_013.jpg
3127.729	0.722	1	congruent	Block3	congruent/STIM_013.jpg
3131.729	0.676	1	congruent	Block3	congruent/STIM_014.jpg
3134.8	0.604	1	congruent	Block3	congruent/STIM_014.jpg
3138.899	0.599	1	congruent	Block3	congruent/STIM_014.jpg
3142.965	0.721	1	congruent	Block3	congruent/STIM_014.jpg
3147.187	0.509	1	congruent	Block3	congruent/STIM_014.jpg
3151.569	0.473	1	congruent	Block3	congruent/STIM_015.jpg
3154.857	0.749	1	congruent	Block3	congruent/STIM_015.jpg
3158.504	0.888	1	congruent	Block3	congruent/STIM_015.jpg
3162.734	0.657	1	congruent	Block3	congruent/STIM_015.jpg
3166.991	0.659	1	congruent	Block3	congruent/STIM_015.jpg
3170.808	0.632	1	congruent	Block3	congruent/STIM_016.jpg
3173.516	0.415	1	congruent	Block3	congruent/STIM_016.jpg
3178.003	0.583	0	congruent	Block3	congruent/STIM_016.jpg
3181.501	0.545	1	congruent	Block3	congruent/STIM_016.jpg
3185.227	0.549	1	congruent	Block3	congruent/STIM_016.jpg
3189.507	0.561	1	congruent	Block3	congruent/STIM_017.jpg
3194.056	0.78	0	congruent	Block3	congruent/STIM_017.jpg
3198.226	0.613	1	congruent	Block3	congruent/STIM_017.jpg
3201.728	0.57	1	congruent	Block3	congruent/STIM_017.jpg
3204.799	0.703	1	congruent	Block3	congruent/STIM_017.jpg
3208.818	0.364	1	congruent	Block3	congruent/STIM_018.jpg
3212.838	0.547	1	congruent	Block3	congruent/STIM_018.jpg
3215.52	0.505	1	congruent	Block3	congruent/STIM_018.jpg
3218.9	0.612	1	congruent	Block3	congruent/STIM_018.jpg
3221.827	0.541	1	congruent	Block3	congruent/STIM_018.jpg
3224.876	0.614	1	congruent	Block3	congruent/STIM_019.jpg
3228.961	0.786	1	congruent	Block3	congruent/STIM_019.jpg
3233.597	0.845	1	congruent	Block3	congruent/STIM_019.jpg
3238.242	0.698	1	congruent	Block3	congruent/STIM_019.jpg
3241.602	0.63	1	congruent	Block3	congruent/STIM_019.jpg
3244.512	0.822	1	congruent	Block3	congruent/STIM_020.jpg
3247.7	0.538	1	congruent	Block3	congruent/STIM_020.jpg
3251.172	0.697	1	congruent	Block3	congruent/STIM_020.jpg
3254.571	0.455	1	congruent	Block3	congruent/STIM_020.jpg
3258.378	0.54	1	congruent	Block3	congruent/STIM_020.jpg
3262.457	0.754	0	congruent	Block3	congruent/STIM_021.jpg
3267.017	0.534	1	congruent	Block3	congruent/STIM_021.jpg
3270.214	0.454	1	congruent	Block3	congruent/STIM_021.jpg
3273.879	0.44	0	congruent	Block3	congruent/STIM_021.jpg
3277.65	0.744	1	congruent	Block3	congruent/STIM_021.jpg
3280.972	0.541	1	congruent	Block3	congruent/STIM_022.jpg
3284.132	0.567	1	congruent	Block3	congruent/STIM_022.jpg
3287.71	0.57	1	congruent	Block3	congruent/STIM_022.jpg
3292.09	0.428	0	congruent	Block3	congruent/STIM_022.jpg
3296.158	0.573	1	congruent	Block3	congruent/STIM_022.jpg
3299.327	0.497	1	congruent	Block3	congruent/STIM_023.jpg
3302.882	0.54	1	congruent	Block3	congruent/STIM_023.jpg
3305.944	0.652	1	congruent	Block3	congruent/STIM_023.jpg
3308.599	0.759	1	congruent	Block3	congruent/STIM_023.jpg
3312.442	0.426	1	congruent	Block3	congruent/STIM_023.jpg
3315.769	0.778	0	congruent	Block3	congruent/STIM_024.jpg
3320.054	0.503	1	congruent	Block3	congruent/STIM_024.jpg
3323.745	0.636	1	congruent	Block3	congruent/STIM_024.jpg
3326.979	0.849	1	congruent	Block3	congruent/STIM_024.jpg
3331.578	0.578	1	congruent	Block3	congruent/STIM_024.jpg
3335.183	0.649	1	congruent	Block3	congruent/STIM_025.jpg
3338.401	0.564	1	congruent	Block3	congruent/STIM_025.jpg
3341.647	0.63	1	congruent	Block3	congruent/STIM_025.jpg
3344.763	0.791	1	congruent	Block3	congruent/STIM_025.jpg
3349.188	0.898	1	congruent	Block3	congruent/STIM_025.jpg
3353.276	0.552	1	congruent	Block3	congruent/STIM_026.jpg
3356.996	0.474	1	congruent	Block3	congruent/STIM_026.jpg
3360.203	0.891	1	congruent	Block3	congruent/STIM_026.jpg
3363.115	0.73	1	congruent	Block3	congruent/STIM_026.jpg
3366.551	0.554	0	congruent	Block3	congruent/STIM_026.jpg
3369.243	0.775	1	congruent	Block3	congruent/STIM_027.jpg
3372.905	0.57	1	congruent	Block3	congruent/STIM_027.jpg
3377.141	0.742	1	congruent	Block3	congruent/STIM_027.jpg
3380.341	0.579	1	congruent	Block3	congruent/STIM_027.jpg
3383.771	0.694	1	congruent	Block3	congruent/STIM_027.jpg
3387.641	0.5	1	congruent	Block3	congruent/STIM_028.jpg
3391.285	0.619	1	congruent	Block3	congruent/STIM_028.jpg
3395.512	0.796	1	congruent	Block3	congruent/STIM_028.jpg
3399.904	0.478	0	congruent	Block3	congruent/STIM_028.jpg
3403.04	0.736	1	congruent	Block3	congruent/STIM_028.jpg
3407.707	0.767	1	congruent	Block3	congruent/STIM_029.jpg
3411.163	0.503	1	congruent	Block3	congruent/STIM_029.jpg
3415.034	0.42	1	congruent	Block3	congruent/STIM_029.jpg
3417.678	0.794	1	congruent	Block3	congruent/STIM_029.jpg
3420.632	0.545	1	congruent	Block3	congruent/STIM_029.jpg
