onset	duration	accuracy	trial_type	learning_stage	stimulus
0.0	2.841	correct	generate	Run1	generate/STIM_000.jpg
5.991	2.69	incorrect	generate	Run1	generate/STIM_000.jpg
12.284	1.666	correct	generate	Run1	generate/STIM_000.jpg
17.343	1.496	correct	generate	Run1	generate/STIM_000.jpg
21.277	1.335	incorrect	generate	Run1	generate/STIM_000.jpg
25.185	2.542	correct	generate	Run1	generate/STIM_001.jpg
31.579	2.257	correct	generate	Run1	generate/STIM_001.jpg
36.699	1.326	correct	generate	Run1	generate/STIM_001.jpg
40.468	1.457	correct	generate	Run1	generate/STIM_001.jpg
44.737	1.83	incorrect	generate	Run1	generate/STIM_001.jpg
48.969	2.886	correct	generate	Run1	generate/STIM_002.jpg
55.109	2.241	correct	generate	Run1	generate/STIM_002.jpg
60.989	2.416	correct	generate	Run1	generate/STIM_002.jpg
66.028	1.05	correct	generate	Run1	generate/STIM_002.jpg
69.175	1.866	incorrect	generate	Run1	generate/STIM_002.jpg
73.91	2.886	correct	generate	Run1	generate/STIM_003.jpg
80.237	2.21	correct	generate	Run1	generate/STIM_003.jpg
84.585	2.407	correct	generate	Run1	generate/STIM_003.jpg
89.19	1.553	correct	generate	Run1	generate/STIM_003.jpg
93.773	1.233	incorrect	generate	Run1	generate/STIM_003.jpg
97.416	2.656	incorrect	generate	Run1	generate/STIM_004.jpg
103.007	2.72	correct	generate	Run1	generate/STIM_004.jpg
108.879	2.091	correct	generate	Run1	generate/STIM_004.jpg
113.738	2.286	correct	generate	Run1	generate/STIM_004.jpg
119.709	2.149	correct	generate	Run1	generate/STIM_004.jpg
124.702	2.571	incorrect	generate	Run1	generate/STIM_005.jpg
130.512	2.109	correct	generate	Run1	generate/STIM_005.jpg
135.226	1.946	correct	generate	Run1	generate/STIM_005.jpg
140.214	2.347	correct	generate	Run1	generate/STIM_005.jpg
145.271	1.821	correct	generate	Run1	generate/STIM_005.jpg
150.481	2.693	correct	generate	Run1	generate/STIM_006.jpg
156.754	2.406	incorrect	generate	Run1	generate/STIM_006.jpg
162.28	2.087	correct	generate	Run1	generate/STIM_006.jpg
168.33	1.809	correct	generate	Run1	generate/STIM_006.jpg
173.157	1.199	correct	generate	Run1	generate/STIM_006.jpg
178.134	1.642	incorrect	generate	Run1	generate/STIM_007.jpg
183.304	2.737	correct	generate	Run1	generate/STIM_007.jpg
189.654	2.632	correct	generate	Run1	generate/STIM_007.jpg
196.075	2.242	correct	generate	Run1	generate/STIM_007.jpg
201.099	1.052	incorrect	generate	Run1	generate/STIM_007.jpg
204.731	2.133	correct	generate	Run1	generate/STIM_008.jpg
209.659	2.604	correct	generate	Run1	generate/STIM_008.jpg
215.765	1.395	incorrect	generate	Run1	generate/STIM_008.jpg
219.815	1.976	correct	generate	Run1	generate/STIM_008.jpg
225.558	1.614	correct	generate	Run1	generate/STIM_008.jpg
230.217	2.076	correct	generate	Run1	generate/STIM_009.jpg
234.673	2.102	correct	generate	Run1	generate/STIM_009.jpg
240.422	2.101	correct	generate	Run1	generate/STIM_009.jpg
246.249	1.986	incorrect	generate	Run1	generate/STIM_009.jpg
251.943	0.98	incorrect	generate	Run1	generate/STIM_009.jpg
255.932	2.294	correct	generate	Run1	generate/STIM_010.jpg
262.249	2.065	correct	generate	Run1	generate/STIM_010.jpg
267.783	1.897	incorrect	generate	Run1	generate/STIM_010.jpg
272.806	2.196	correct	generate	Run1	generate/STIM_010.jpg
278.253	2.015	correct	generate	Run1	generate/STIM_010.jpg
282.712	2.101	incorrect	generate	Run1	generate/STIM_011.jpg
287.02	1.22	incorrect	generate	Run1	generate/STIM_011.jpg
292.058	2.397	correct	generate	Run1	generate/STIM_011.jpg
297.827	1.545	correct	generate	Run1	generate/STIM_011.jpg
301.66	1.974	correct	generate	Run1	generate/STIM_011.jpg
306.748	1.966	correct	generate	Run1	generate/STIM_012.jpg
311.277	2.187	correct	generate	Run1	generate/STIM_012.jpg
316.379	2.595	correct	generate	Run1	generate/STIM_012.jpg
322.468	1.373	correct	generate	Run1	generate/STIM_012.jpg
327.857	1.666	incorrect	generate	Run1	generate/STIM_012.jpg
331.595	1.676	correct	generate	Run1	generate/STIM_013.jpg
336.83	2.113	correct	generate	Run1	generate/STIM_013.jpg
342.058	2.289	correct	generate	Run1	generate/STIM_013.jpg
347.957	1.33	correct	generate	Run1	generate/STIM_013.jpg
352.528	1.392	incorrect	generate	Run1	generate/STIM_013.jpg
357.011	1.496	correct	generate	Run1	generate/STIM_014.jpg
360.998	2.591	incorrect	generate	Run1	generate/STIM_014.jpg
367.616	1.76	correct	generate	Run1	generate/STIM_014.jpg
372.235	1.67	correct	generate	Run1	generate/STIM_014.jpg
377.614	1.873	correct	generate	Run1	generate/STIM_014.jpg
383.085	1.356	incorrect	generate	Run1	generate/STIM_015.jpg
387.881	2.282	correct	generate	Run1	generate/STIM_015.jpg
392.403	1.258	correct	generate	Run1	generate/STIM_015.jpg
395.787	1.754	correct	generate	Run1	generate/STIM_015.jpg
399.897	1.18	correct	generate	Run1	generate/STIM_015.jpg
403.988	2.943	incorrect	generate	Run1	generate/STIM_016.jpg
410.882	2.726	correct	generate	Run1	generate/STIM_016.jpg
416.947	1.572	correct	generate	Run1	generate/STIM_016.jpg
421.646	1.638	correct	generate	Run1	generate/STIM_016.jpg
426.15	1.797	correct	generate	Run1	generate/STIM_016.jpg
430.447	1.793	correct	generate	Run1	generate/STIM_017.jpg
434.333	1.998	correct	generate	Run1	generate/STIM_017.jpg
439.386	1.172	correct	generate	Run1	generate/STIM_017.jpg
444.572	1.236	correct	generate	Run1	generate/STIM_017.jpg
449.673	1.242	correct	generate	Run1	generate/STIM_017.jpg
453.815	1.471	correct	generate	Run1	generate/STIM_018.jpg
457.601	2.609	incorrect	generate	Run1	generate/STIM_018.jpg
463.009	2.202	correct	generate	Run1	generate/STIM_018.jpg
468.662	2.442	correct	generate	Run1	generate/STIM_018.jpg
474.519	1.267	correct	generate	Run1	generate/STIM_018.jpg
479.529	2.298	correct	generate	Run1	generate/STIM_019.jpg
485.672	2.125	incorrect	generate	Run1	generate/STIM_019.jpg
490.63	1.547	correct	generate	Run1	generate/STIM_019.jpg
495.529	1.567	correct	generate	Run1	generate/STIM_019.jpg
500.496	1.525	correct	generate	Run1	generate/STIM_019.jpg
505.924	1.64	correct	generate	Run1	generate/STIM_020.jpg
510.264	1.604	correct	generate	Run1	generate/STIM_020.jpg
515.667	2.205	correct	generate	Run1	generate/STIM_020.jpg
521.802	1.576	correct	generate	Run1	generate/STIM_020.jpg
526.544	1.236	correct	generate	Run1	generate/STIM_020.jpg
530.9	1.208	correct	generate	Run1	generate/STIM_021.jpg
534.872	2.025	correct	generate	Run1	generate/STIM_021.jpg
539.608	2.498	incorrect	generate	Run1	generate/STIM_021.jpg
544.396	1.292	incorrect	generate	Run1	generate/STIM_021.jpg
549.059	1.651	incorrect	generate	Run1	generate/STIM_021.jpg
554.145	2.758	correct	generate	Run1	generate/STIM_022.jpg
560.873	2.24	incorrect	generate	Run1	generate/STIM_022.jpg
566.353	1.314	correct	generate	Run1	generate/STIM_022.jpg
571.405	2.048	correct	generate	Run1	generate/STIM_022.jpg
575.786	1.45	correct	generate	Run1	generate/STIM_022.jpg
579.458	2.844	correct	generate	Run1	generate/STIM_023.jpg
585.779	2.113	correct	generate	Run1	generate/STIM_023.jpg
591.318	1.771	incorrect	generate	Run1	generate/STIM_023.jpg
596.496	1.394	incorrect	generate	Run1	generate/STIM_023.jpg
600.934	1.833	correct	generate	Run1	generate/STIM_023.jpg
604.896	1.246	incorrect	generate	Run1	generate/STIM_024.jpg
609.318	1.683	correct	generate	Run1	generate/STIM_024.jpg
613.304	1.83	correct	generate	Run1	generate/STIM_024.jpg
619.058	2.254	correct	generate	Run1	generate/STIM_024.jpg
624.167	2.016	correct	generate	Run1	generate/STIM_024.jpg
628.805	0.81	correct	repeat	Run1	repeat/STIM_000.jpg
633.516	0.891	correct	repeat	Run1	repeat/STIM_000.jpg
636.817	0.606	correct	repeat	Run1	repeat/STIM_000.jpg
640.661	0.689	correct	repeat	Run1	repeat/STIM_000.jpg
643.47	0.968	correct	repeat	Run1	repeat/STIM_000.jpg
646.456	0.661	correct	repeat	Run1	repeat/STIM_001.jpg
651.043	0.598	correct	repeat	Run1	repeat/STIM_001.jpg
654.046	0.51	correct	repeat	Run1	repeat/STIM_001.jpg
657.928	0.752	correct	repeat	Run1	repeat/STIM_001.jpg
661.802	0.544	correct	repeat	Run1	repeat/STIM_001.jpg
665.608	0.889	correct	repeat	Run1	repeat/STIM_002.jpg
668.856	0.587	correct	repeat	Run1	repeat/STIM_002.jpg
672.958	0.63	correct	repeat	Run1	repeat/STIM_002.jpg
676.176	0.732	correct	repeat	Run1	repeat/STIM_002.jpg
679.098	0.625	correct	repeat	Run1	repeat/STIM_002.jpg
682.792	0.494	correct	repeat	Run1	repeat/STIM_003.jpg
685.656	0.604	correct	repeat	Run1	repeat/STIM_003.jpg
688.505	0.734	correct	repeat	Run1	repeat/STIM_003.jpg
692.395	0.976	incorrect	repeat	Run1	repeat/STIM_003.jpg
695.508	0.605	correct	repeat	Run1	repeat/STIM_003.jpg
698.44	0.835	correct	repeat	Run1	repeat/STIM_004.jpg
702.346	0.626	correct	repeat	Run1	repeat/STIM_004.jpg
705.026	0.968	correct	repeat	Run1	repeat/STIM_004.jpg
708.358	0.55	correct	repeat	Run1	repeat/STIM_004.jpg
712.483	0.848	correct	repeat	Run1	repeat/STIM_004.jpg
715.894	0.729	incorrect	repeat	Run1	repeat/STIM_005.jpg
719.561	0.681	correct	repeat	Run1	repeat/STIM_005.jpg
723.648	0.762	correct	repeat	Run1	repeat/STIM_005.jpg
727.223	0.641	correct	repeat	Run1	repeat/STIM_005.jpg
731.061	0.526	correct	repeat	Run1	repeat/STIM_005.jpg
734.989	0.629	correct	repeat	Run1	repeat/STIM_006.jpg
739.622	0.762	correct	repeat	Run1	repeat/STIM_006.jpg
744.378	0.761	correct	repeat	Run1	repeat/STIM_006.jpg
747.292	0.613	correct	repeat	Run1	repeat/STIM_006.jpg
750.041	0.724	correct	repeat	Run1	repeat/STIM_006.jpg
753.984	0.59	correct	repeat	Run1	repeat/STIM_007.jpg
757.662	0.802	correct	repeat	Run1	repeat/STIM_007.jpg
761.783	0.663	correct	repeat	Run1	repeat/STIM_007.jpg
765.432	0.955	correct	repeat	Run1	repeat/STIM_007.jpg
769.015	0.527	correct	repeat	Run1	repeat/STIM_007.jpg
773.378	0.586	correct	repeat	Run1	repeat/STIM_008.jpg
777.693	0.936	correct	repeat	Run1	repeat/STIM_008.jpg
780.981	0.767	correct	repeat	Run1	repeat/STIM_008.jpg
784.746	0.884	correct	repeat	Run1	repeat/STIM_008.jpg
789.249	0.941	correct	repeat	Run1	repeat/STIM_008.jpg
793.574	0.65	correct	repeat	Run1	repeat/STIM_009.jpg
796.81	0.945	correct	repeat	Run1	repeat/STIM_009.jpg
800.014	0.729	correct	repeat	Run1	repeat/STIM_009.jpg
804.449	0.735	correct	repeat	Run1	repeat/STIM_009.jpg
809.188	0.697	correct	repeat	Run1	repeat/STIM_009.jpg
813.729	0.906	correct	repeat	Run1	repeat/STIM_010.jpg
818.602	0.606	correct	repeat	Run1	repeat/STIM_010.jpg
822.352	0.549	correct	repeat	Run1	repeat/STIM_010.jpg
825.654	0.593	correct	repeat	Run1	repeat/STIM_010.jpg
828.337	0.87	correct	repeat	Run1	repeat/STIM_010.jpg
831.221	0.86	correct	repeat	Run1	repeat/STIM_011.jpg
835.379	0.83	correct	repeat	Run1	repeat/STIM_011.jpg
839.462	0.712	correct	repeat	Run1	repeat/STIM_011.jpg
843.824	0.957	correct	repeat	Run1	repeat/STIM_011.jpg
846.841	0.84	correct	repeat	Run1	repeat/STIM_011.jpg
851.323	0.836	correct	repeat	Run1	repeat/STIM_012.jpg
855.495	0.946	correct	repeat	Run1	repeat/STIM_012.jpg
859.4	0.873	correct	repeat	Run1	repeat/STIM_012.jpg
862.368	0.905	correct	repeat	Run1	repeat/STIM_012.jpg
865.395	0.783	correct	repeat	Run1	repeat/STIM_012.jpg
868.788	0.67	correct	repeat	Run1	repeat/STIM_013.jpg
873.384	0.934	correct	repeat	Run1	repeat/STIM_013.jpg
877.324	0.725	correct	repeat	Run1	repeat/STIM_013.jpg
880.488	0.71	correct	repeat	Run1	repeat/STIM_013.jpg
885.015	0.532	incorrect	repeat	Run1	repeat/STIM_013.jpg
889.316	0.908	correct	repeat	Run1	repeat/STIM_014.jpg
893.298	0.647	correct	repeat	Run1	repeat/STIM_014.jpg
897.952	0.698	correct	repeat	Run1	repeat/STIM_014.jpg
902.454	0.884	correct	repeat	Run1	repeat/STIM_014.jpg
905.791	0.505	correct	repeat	Run1	repeat/STIM_014.jpg
909.269	1.671	correct	generate	Run2	generate/STIM_000.jpg
913.131	1.437	correct	generate	Run2	generate/STIM_000.jpg
917.899	1.164	correct	generate	Run2	generate/STIM_000.jpg
921.605	1.572	correct	generate	Run2	generate/STIM_000.jpg
926.66	1.903	correct	generate	Run2	generate/STIM_000.jpg
931.533	2.145	correct	generate	Run2	generate/STIM_001.jpg
937.566	1.575	correct	generate	Run2	generate/STIM_001.jpg
941.934	0.943	incorrect	generate	Run2	generate/STIM_001.jpg
946.343	0.941	correct	generate	Run2	generate/STIM_001.jpg
949.664	1.546	incorrect	generate	Run2	generate/STIM_001.jpg
953.545	1.345	correct	generate	Run2	generate/STIM_002.jpg
957.484	1.45	correct	generate	Run2	generate/STIM_002.jpg
962.107	1.815	correct	generate	Run2	generate/STIM_002.jpg
966.943	1.267	correct	generate	Run2	generate/STIM_002.jpg
971.898	1.681	correct	generate	Run2	generate/STIM_002.jpg
976.6	1.575	correct	generate	Run2	generate/STIM_003.jpg
981.567	1.153	correct	generate	Run2	generate/STIM_003.jpg
985.715	1.055	correct	generate	Run2	generate/STIM_003.jpg
990.632	1.283	correct	generate	Run2	generate/STIM_003.jpg
994.818	1.894	correct	generate	Run2	generate/STIM_003.jpg
1000.396	1.479	correct	generate	Run2	generate/STIM_004.jpg
1004.597	1.821	correct	generate	Run2	generate/STIM_004.jpg
1008.802	1.226	correct	generate	Run2	generate/STIM_004.jpg
1013.448	0.972	correct	generate	Run2	generate/STIM_004.jpg
1016.578	1.427	correct	generate	Run2	generate/STIM_004.jpg
1021.052	1.615	incorrect	generate	Run2	generate/STIM_005.jpg
1025.376	1.139	correct	generate	Run2	generate/STIM_005.jpg
1029.234	1.852	correct	generate	Run2	generate/STIM_005.jpg
1034.986	1.186	incorrect	generate	Run2	generate/STIM_005.jpg
1038.559	1.09	incorrect	generate	Run2	generate/STIM_005.jpg
1042.204	1.026	correct	generate	Run2	generate/STIM_006.jpg
1046.456	2.015	incorrect	generate	Run2	generate/STIM_006.jpg
1050.528	1.372	incorrect	generate	Run2	generate/STIM_006.jpg
1054.742	1.475	correct	generate	Run2	generate/STIM_006.jpg
1058.246	1.44	correct	generate	Run2	generate/STIM_006.jpg
1062.472	2.466	incorrect	generate	Run2	generate/STIM_007.jpg
1067.38	1.162	correct	generate	Run2	generate/STIM_007.jpg
1070.614	1.148	correct	generate	Run2	generate/STIM_007.jpg
1074.767	1.631	correct	generate	Run2	generate/STIM_007.jpg
1079.664	2.067	correct	generate	Run2	generate/STIM_007.jpg
1083.779	2.404	incorrect	generate	Run2	generate/STIM_008.jpg
1088.916	1.364	correct	generate	Run2	generate/STIM_008.jpg
1092.868	2.098	correct	generate	Run2	generate/STIM_008.jpg
1098.713	1.729	incorrect	generate	Run2	generate/STIM_008.jpg
1103.283	1.984	correct	generate	Run2	generate/STIM_008.jpg
1108.437	1.101	correct	generate	Run2	generate/STIM_009.jpg
1112.472	1.168	incorrect	generate	Run2	generate/STIM_009.jpg
1117.588	1.123	incorrect	generate	Run2	generate/STIM_009.jpg
1120.984	1.842	correct	generate	Run2	generate/STIM_009.jpg
1126.126	1.267	correct	generate	Run2	generate/STIM_009.jpg
1130.942	2.109	correct	generate	Run2	generate/STIM_010.jpg
1136.163	0.95	correct	generate	Run2	generate/STIM_010.jpg
1140.661	2.022	correct	generate	Run2	generate/STIM_010.jpg
1145.319	2.053	incorrect	generate	Run2	generate/STIM_010.jpg
1151.152	1.255	correct	generate	Run2	generate/STIM_010.jpg
1156.061	2.06	incorrect	generate	Run2	generate/STIM_011.jpg
1160.717	1.271	correct	generate	Run2	generate/STIM_011.jpg
1164.19	2.025	incorrect	generate	Run2	generate/STIM_011.jpg
1168.804	1.426	correct	generate	Run2	generate/STIM_011.jpg
1174.232	1.834	correct	generate	Run2	generate/STIM_011.jpg
1178.532	2.212	correct	generate	Run2	generate/STIM_012.jpg
1183.488	1.176	correct	generate	Run2	generate/STIM_012.jpg
1186.776	1.375	correct	generate	Run2	generate/STIM_012.jpg
1190.668	1.744	correct	generate	Run2	generate/STIM_012.jpg
1195.279	1.199	correct	generate	Run2	generate/STIM_012.jpg
1199.193	2.307	incorrect	generate	Run2	generate/STIM_013.jpg
1204.727	1.63	correct	generate	Run2	generate/STIM_013.jpg
1209.501	1.028	correct	generate	Run2	generate/STIM_013.jpg
1213.723	1.536	correct	generate	Run2	generate/STIM_013.jpg
1218.438	1.827	correct	generate	Run2	generate/STIM_013.jpg
1224.235	1.245	correct	generate	Run2	generate/STIM_014.jpg
1227.53	2.232	correct	generate	Run2	generate/STIM_014.jpg
1231.868	1.513	correct	generate	Run2	generate/STIM_014.jpg
1236.443	1.786	correct	generate	Run2	generate/STIM_014.jpg
1241.264	1.912	correct	generate	Run2	generate/STIM_014.jpg
1246.568	1.984	correct	generate	Run2	generate/STIM_015.jpg
1251.441	1.621	incorrect	generate	Run2	generate/STIM_015.jpg
1256.241	0.905	correct	generate	Run2	generate/STIM_015.jpg
1259.98	1.482	correct	generate	Run2	generate/STIM_015.jpg
1264.876	1.429	correct	generate	Run2	generate/STIM_015.jpg
1269.396	1.055	correct	generate	Run2	generate/STIM_016.jpg
1274.349	1.504	correct	generate	Run2	generate/STIM_016.jpg
1279.814	1.448	correct	generate	Run2	generate/STIM_016.jpg
1284.765	0.997	correct	generate	Run2	generate/STIM_016.jpg
1288.805	0.987	correct	generate	Run2	generate/STIM_016.jpg
1293.305	1.912	incorrect	generate	Run2	generate/STIM_017.jpg
1299.077	1.569	correct	generate	Run2	generate/STIM_017.jpg
1303.207	1.388	correct	generate	Run2	generate/STIM_017.jpg
1307.146	1.03	incorrect	generate	Run2	generate/STIM_017.jpg
1311.628	0.962	correct	generate	Run2	generate/STIM_017.jpg
1315.124	1.757	correct	generate	Run2	generate/STIM_018.jpg
1320.018	2.076	incorrect	generate	Run2	generate/STIM_018.jpg
1325.08	1.018	correct	generate	Run2	generate/STIM_018.jpg
1328.519	0.834	correct	generate	Run2	generate/STIM_018.jpg
1333.009	1.173	correct	generate	Run2	generate/STIM_018.jpg
1336.829	2.302	incorrect	generate	Run2	generate/STIM_019.jpg
1341.682	1.562	correct	generate	Run2	generate/STIM_019.jpg
1346.131	1.184	correct	generate	Run2	generate/STIM_019.jpg
1351.036	0.953	correct	generate	Run2	generate/STIM_019.jpg
1355.866	1.538	correct	generate	Run2	generate/STIM_019.jpg
1360.484	2.154	correct	generate	Run2	generate/STIM_020.jpg
1365.84	2.128	incorrect	generate	Run2	generate/STIM_020.jpg
1370.631	1.21	correct	generate	Run2	generate/STIM_020.jpg
1374.037	0.956	correct	generate	Run2	generate/STIM_020.jpg
1378.119	0.922	correct	generate	Run2	generate/STIM_020.jpg
1383.032	2.265	incorrect	generate	Run2	generate/STIM_021.jpg
1388.688	1.524	correct	generate	Run2	generate/STIM_021.jpg
1392.332	2.085	incorrect	generate	Run2	generate/STIM_021.jpg
1397.946	0.829	correct	generate	Run2	generate/STIM_021.jpg
1401.146	1.638	correct	generate	Run2	generate/STIM_021.jpg
1405.907	1.273	incorrect	generate	Run2	generate/STIM_022.jpg
1410.228	1.549	incorrect	generate	Run2	generate/STIM_022.jpg
1413.822	0.908	correct	generate	Run2	generate/STIM_022.jpg
1418.396	1.897	correct	generate	Run2	generate/STIM_022.jpg
1423.201	1.809	correct	generate	Run2	generate/STIM_022.jpg
1428.126	2.444	correct	generate	Run2	generate/STIM_023.jpg
1434.54	1.103	correct	generate	Run2	generate/STIM_023.jpg
1438.398	1.315	correct	generate	Run2	generate/STIM_023.jpg
1442.027	2.026	correct	generate	Run2	generate/STIM_023.jpg
1447.163	1.198	correct	generate	Run2	generate/STIM_023.jpg
1452.342	2.431	incorrect	generate	Run2	generate/STIM_024.jpg
1457.662	1.064	correct	generate	Run2	generate/STIM_024.jpg
1462.419	0.931	correct	generate	Run2	generate/STIM_024.jpg
1466.016	1.756	correct	generate	Run2	generate/STIM_024.jpg
1470.373	0.944	correct	generate	Run2	generate/STIM_024.jpg
1473.597	0.558	correct	repeat	Run2	repeat/STIM_000.jpg
1477.763	0.899	correct	repeat	Run2	repeat/STIM_000.jpg
1482.518	0.938	correct	repeat	Run2	repeat/STIM_000.jpg
1486.864	0.974	correct	repeat	Run2	repeat/STIM_000.jpg
1491.726	0.541	correct	repeat	Run2	repeat/STIM_000.jpg
1495.384	0.837	correct	repeat	Run2	repeat/STIM_001.jpg
1499.825	0.589	correct	repeat	Run2	repeat/STIM_001.jpg
1504.077	0.497	incorrect	repeat	Run2	repeat/STIM_001.jpg
1507.295	0.9	correct	repeat	Run2	repeat/STIM_001.jpg
1511.297	0.874	correct	repeat	Run2	repeat/STIM_001.jpg
1515.695	0.89	correct	repeat	Run2	repeat/STIM_002.jpg
1519.262	0.851	correct	repeat	Run2	repeat/STIM_002.jpg
1523.011	0.826	correct	repeat	Run2	repeat/STIM_002.jpg
1525.893	0.847	correct	repeat	Run2	repeat/STIM_002.jpg
1529.379	0.644	correct	repeat	Run2	repeat/STIM_002.jpg
1532.118	0.667	correct	repeat	Run2	repeat/STIM_003.jpg
1536.536	0.731	correct	repeat	Run2	repeat/STIM_003.jpg
1540.106	0.942	correct	repeat	Run2	repeat/STIM_003.jpg
1544.691	0.803	correct	repeat	Run2	repeat/STIM_003.jpg
1548.909	0.789	correct	repeat	Run2	repeat/STIM_003.jpg
1553.429	0.71	correct	repeat	Run2	repeat/STIM_004.jpg
1558.048	0.573	correct	repeat	Run2	repeat/STIM_004.jpg
1562.378	0.634	incorrect	repeat	Run2	repeat/STIM_004.jpg
1565.335	0.808	correct	repeat	Run2	repeat/STIM_004.jpg
1568.81	0.496	incorrect	repeat	Run2	repeat/STIM_004.jpg
1572.246	0.88	correct	repeat	Run2	repeat/STIM_005.jpg
1576.746	0.928	correct	repeat	Run2	repeat/STIM_005.jpg
1579.7	0.692	correct	repeat	Run2	repeat/STIM_005.jpg
1583.686	0.968	correct	repeat	Run2	repeat/STIM_005.jpg
1586.829	0.637	correct	repeat	Run2	repeat/STIM_005.jpg
1590.774	0.694	correct	repeat	Run2	repeat/STIM_006.jpg
1595.264	0.931	correct	repeat	Run2	repeat/STIM_006.jpg
1599.896	0.886	correct	repeat	Run2	repeat/STIM_006.jpg
1604.667	0.78	correct	repeat	Run2	repeat/STIM_006.jpg
1607.758	0.921	correct	repeat	Run2	repeat/STIM_006.jpg
1611.506	0.759	incorrect	repeat	Run2	repeat/STIM_007.jpg
1615.913	0.77	correct	repeat	Run2	repeat/STIM_007.jpg
1618.755	0.628	correct	repeat	Run2	repeat/STIM_007.jpg
1622.125	0.82	correct	repeat	Run2	repeat/STIM_007.jpg
1625.014	0.762	correct	repeat	Run2	repeat/STIM_007.jpg
1629.379	0.844	correct	repeat	Run2	repeat/STIM_008.jpg
1633.551	0.737	correct	repeat	Run2	repeat/STIM_008.jpg
1637.372	0.642	correct	repeat	Run2	repeat/STIM_008.jpg
1640.327	0.77	incorrect	repeat	Run2	repeat/STIM_008.jpg
1645.024	0.735	correct	repeat	Run2	repeat/STIM_008.jpg
1648.978	0.614	correct	repeat	Run2	repeat/STIM_009.jpg
1652.289	0.54	correct	repeat	Run2	repeat/STIM_009.jpg
1656.295	0.773	incorrect	repeat	Run2	repeat/STIM_009.jpg
1660.543	0.85	correct	repeat	Run2	repeat/STIM_009.jpg
1663.791	0.519	correct	repeat	Run2	repeat/STIM_009.jpg
1666.885	0.928	correct	repeat	Run2	repeat/STIM_010.jpg
1670.52	0.82	correct	repeat	Run2	repeat/STIM_010.jpg
1674.384	0.744	correct	repeat	Run2	repeat/STIM_010.jpg
1677.308	0.881	correct	repeat	Run2	repeat/STIM_010.jpg
1680.75	0.931	correct	repeat	Run2	repeat/STIM_010.jpg
1685.384	0.571	correct	repeat	Run2	repeat/STIM_011.jpg
1688.351	0.758	correct	repeat	Run2	repeat/STIM_011.jpg
1691.909	0.7	correct	repeat	Run2	repeat/STIM_011.jpg
1695.552	0.851	correct	repeat	Run2	repeat/STIM_011.jpg
1699.607	0.498	correct	repeat	Run2	repeat/STIM_011.jpg
1703.187	0.613	correct	repeat	Run2	repeat/STIM_012.jpg
1705.968	0.772	correct	repeat	Run2	repeat/STIM_012.jpg
1708.809	0.903	incorrect	repeat	Run2	repeat/STIM_012.jpg
1713.181	0.914	correct	repeat	Run2	repeat/STIM_012.jpg
1717.694	0.765	correct	repeat	Run2	repeat/STIM_012.jpg
1721.586	0.707	correct	repeat	Run2	repeat/STIM_013.jpg
1726.109	0.772	correct	repeat	Run2	repeat/STIM_013.jpg
1729.885	0.891	correct	repeat	Run2	repeat/STIM_013.jpg
1734.341	0.7	correct	repeat	Run2	repeat/STIM_013.jpg
1737.264	0.962	correct	repeat	Run2	repeat/STIM_013.jpg
1740.874	0.957	correct	repeat	Run2	repeat/STIM_014.jpg
1745.835	0.857	correct	repeat	Run2	repeat/STIM_014.jpg
1748.886	0.858	correct	repeat	Run2	repeat/STIM_014.jpg
1752.173	0.517	correct	repeat	Run2	repeat/STIM_014.jpg
1756.666	0.808	correct	repeat	Run2	repeat/STIM_014.jpg
1760.35	1.215	correct	generate	Run3	generate/STIM_000.jpg
1764.779	1.217	correct	generate	Run3	generate/STIM_000.jpg
1769.69	1.191	correct	generate	Run3	generate/STIM_000.jpg
1774.276	0.939	correct	generate	Run3	generate/STIM_000.jpg
1777.357	1.318	correct	generate	Run3	generate/STIM_000.jpg
1782.262	1.671	correct	generate	Run3	generate/STIM_001.jpg
1786.425	1.454	correct	generate	Run3	generate/STIM_001.jpg
1790.807	1.734	correct	generate	Run3	generate/STIM_001.jpg
1794.83	1.364	correct	generate	Run3	generate/STIM_001.jpg
1798.281	1.42	correct	generate	Run3	generate/STIM_001.jpg
1803.417	1.0	correct	generate	Run3	generate/STIM_002.jpg
1807.488	1.859	correct	generate	Run3	generate/STIM_002.jpg
1811.846	2.017	correct	generate	Run3	generate/STIM_002.jpg
1817.238	1.544	correct	generate	Run3	generate/STIM_002.jpg
1821.485	1.554	correct	generate	Run3	generate/STIM_002.jpg
1825.355	1.366	correct	generate	Run3	generate/STIM_003.jpg
1830.115	1.749	correct	generate	Run3	generate/STIM_003.jpg
1835.551	1.453	correct	generate	Run3	generate/STIM_003.jpg
1839.914	1.937	correct	generate	Run3	generate/STIM_003.jpg
1845.673	1.686	correct	generate	Run3	generate/STIM_003.jpg
1850.484	1.742	correct	generate	Run3	generate/STIM_004.jpg
1855.302	1.99	correct	generate	Run3	generate/STIM_004.jpg
1860.821	1.387	correct	generate	Run3	generate/STIM_004.jpg
1864.898	1.968	correct	generate	Run3	generate/STIM_004.jpg
1869.863	1.569	correct	generate	Run3	generate/STIM_004.jpg
1874.513	1.783	correct	generate	Run3	generate/STIM_005.jpg
1878.669	0.907	correct	generate	Run3	generate/STIM_005.jpg
1882.724	1.041	correct	generate	Run3	generate/STIM_005.jpg
1885.965	1.185	correct	generate	Run3	generate/STIM_005.jpg
1890.019	2.059	correct	generate	Run3	generate/STIM_005.jpg
1894.588	1.528	correct	generate	Run3	generate/STIM_006.jpg
1898.609	1.013	correct	generate	Run3	generate/STIM_006.jpg
1902.271	1.302	correct	generate	Run3	generate/STIM_006.jpg
1907.586	1.806	incorrect	generate	Run3	generate/STIM_006.jpg
1913.121	1.922	correct	generate	Run3	generate/STIM_006.jpg
1917.486	1.684	correct	generate	Run3	generate/STIM_007.jpg
1922.906	2.031	correct	generate	Run3	generate/STIM_007.jpg
1927.257	1.967	correct	generate	Run3	generate/STIM_007.jpg
1933.248	1.567	correct	generate	Run3	generate/STIM_007.jpg
1936.985	1.612	correct	generate	Run3	generate/STIM_007.jpg
1942.083	1.833	correct	generate	Run3	generate/STIM_008.jpg
1946.027	1.334	correct	generate	Run3	generate/STIM_008.jpg
1951.352	1.255	correct	generate	Run3	generate/STIM_008.jpg
1956.589	1.509	correct	generate	Run3	generate/STIM_008.jpg
1961.603	1.792	correct	generate	Run3	generate/STIM_008.jpg
1966.927	1.03	correct	generate	Run3	generate/STIM_009.jpg
1971.942	1.215	correct	generate	Run3	generate/STIM_009.jpg
1976.132	2.029	correct	generate	Run3	generate/STIM_009.jpg
1981.865	1.105	correct	generate	Run3	generate/STIM_009.jpg
1986.972	1.855	correct	generate	Run3	generate/STIM_009.jpg
1992.603	1.342	correct	generate	Run3	generate/STIM_010.jpg
1996.945	1.332	correct	generate	Run3	generate/STIM_010.jpg
2002.023	1.281	correct	generate	Run3	generate/STIM_010.jpg
2006.488	1.915	correct	generate	Run3	generate/STIM_010.jpg
2011.568	1.013	correct	generate	Run3	generate/STIM_010.jpg
2014.756	0.842	correct	generate	Run3	generate/STIM_011.jpg
2018.084	1.971	correct	generate	Run3	generate/STIM_011.jpg
2023.145	1.778	correct	generate	Run3	generate/STIM_011.jpg
2028.535	1.669	correct	generate	Run3	generate/STIM_011.jpg
2032.349	1.783	correct	generate	Run3	generate/STIM_011.jpg
2037.389	1.824	correct	generate	Run3	generate/STIM_012.jpg
2041.294	1.644	incorrect	generate	Run3	generate/STIM_012.jpg
2045.487	1.763	incorrect	generate	Run3	generate/STIM_012.jpg
2049.954	1.61	incorrect	generate	Run3	generate/STIM_012.jpg
2054.797	1.99	correct	generate	Run3	generate/STIM_012.jpg
2060.639	1.56	correct	generate	Run3	generate/STIM_013.jpg
2065.352	1.839	correct	generate	Run3	generate/STIM_013.jpg
2069.257	1.747	correct	generate	Run3	generate/STIM_013.jpg
2074.349	1.359	correct	generate	Run3	generate/STIM_013.jpg
2078.422	1.01	incorrect	generate	Run3	generate/STIM_013.jpg
2082.954	1.053	correct	generate	Run3	generate/STIM_014.jpg
2087.089	1.434	incorrect	generate	Run3	generate/STIM_014.jpg
2091.267	1.813	correct	generate	Run3	generate/STIM_014.jpg
2096.416	1.724	correct	generate	Run3	generate/STIM_014.jpg
2101.307	1.236	correct	generate	Run3	generate/STIM_014.jpg
2106.313	0.909	correct	generate	Run3	generate/STIM_015.jpg
2109.656	1.814	correct	generate	Run3	generate/STIM_015.jpg
2114.197	1.476	correct	generate	Run3	generate/STIM_015.jpg
2119.251	1.519	incorrect	generate	Run3	generate/STIM_015.jpg
2124.342	1.299	correct	generate	Run3	generate/STIM_015.jpg
2127.965	1.68	correct	generate	Run3	generate/STIM_016.jpg
2132.708	2.023	correct	generate	Run3	generate/STIM_016.jpg
2137.896	1.197	correct	generate	Run3	generate/STIM_016.jpg
2142.367	1.437	correct	generate	Run3	generate/STIM_016.jpg
2147.809	1.955	correct	generate	Run3	generate/STIM_016.jpg
2152.405	1.06	correct	generate	Run3	generate/STIM_017.jpg
2156.346	1.063	correct	generate	Run3	generate/STIM_017.jpg
2160.193	0.866	correct	generate	Run3	generate/STIM_017.jpg
2164.392	1.287	correct	generate	Run3	generate/STIM_017.jpg
2168.494	2.05	correct	generate	Run3	generate/STIM_017.jpg
2173.395	1.289	correct	generate	Run3	generate/STIM_018.jpg
2177.013	1.502	correct	generate	Run3	generate/STIM_018.jpg
2182.379	1.037	correct	generate	Run3	generate/STIM_018.jpg
2187.104	0.97	correct	generate	Run3	generate/STIM_018.jpg
2191.8	1.752	correct	generate	Run3	generate/STIM_018.jpg
2197.327	1.006	correct	generate	Run3	generate/STIM_019.jpg
2202.287	1.534	correct	generate	Run3	generate/STIM_019.jpg
2206.492	1.36	incorrect	generate	Run3	generate/STIM_019.jpg
2211.147	1.928	correct	generate	Run3	generate/STIM_019.jpg
2215.771	1.203	correct	generate	Run3	generate/STIM_019.jpg
2220.683	1.983	correct	generate	Run3	generate/STIM_020.jpg
2226.584	1.616	correct	generate	Run3	generate/STIM_020.jpg
2232.012	1.196	correct	generate	Run3	generate/STIM_020.jpg
2236.416	0.887	correct	generate	Run3	generate/STIM_020.jpg
2239.536	1.47	correct	generate	Run3	generate/STIM_020.jpg
2243.29	1.189	correct	generate	Run3	generate/STIM_021.jpg
2247.734	1.19	correct	generate	Run3	generate/STIM_021.jpg
2251.895	1.006	incorrect	generate	Run3	generate/STIM_021.jpg
2255.875	1.245	correct	generate	Run3	generate/STIM_021.jpg
2260.165	1.11	correct	generate	Run3	generate/STIM_021.jpg
2264.957	1.969	correct	generate	Run3	generate/STIM_022.jpg
2269.665	1.746	correct	generate	Run3	generate/STIM_022.jpg
2274.488	1.507	correct	generate	Run3	generate/STIM_022.jpg
2278.537	1.411	correct	generate	Run3	generate/STIM_022.jpg
2282.291	1.759	correct	generate	Run3	generate/STIM_022.jpg
2287.707	1.063	correct	generate	Run3	generate/STIM_023.jpg
2291.295	1.742	correct	generate	Run3	generate/STIM_023.jpg
2296.43	1.801	correct	generate	Run3	generate/STIM_023.jpg
2300.475	1.811	correct	generate	Run3	generate/STIM_023.jpg
2305.526	1.56	correct	generate	Run3	generate/STIM_023.jpg
2310.177	1.77	correct	generate	Run3	generate/STIM_024.jpg
2315.646	1.621	correct	generate	Run3	generate/STIM_024.jpg
2320.647	1.288	correct	generate	Run3	generate/STIM_024.jpg
2324.663	1.865	correct	generate	Run3	generate/STIM_024.jpg
2329.548	1.013	correct	generate	Run3	generate/STIM_024.jpg
2332.924	0.741	correct	repeat	Run3	repeat/STIM_000.jpg
2336.922	0.505	correct	repeat	Run3	repeat/STIM_000.jpg
2340.023	0.664	correct	repeat	Run3	repeat/STIM_000.jpg
2343.057	0.496	correct	repeat	Run3	repeat/STIM_000.jpg
2345.682	0.809	correct	repeat	Run3	repeat/STIM_000.jpg
2349.083	0.769	correct	repeat	Run3	repeat/STIM_001.jpg
2352.227	0.539	correct	repeat	Run3	repeat/STIM_001.jpg
2355.142	0.772	correct	repeat	Run3	repeat/STIM_001.jpg
2358.88	0.494	correct	repeat	Run3	repeat/STIM_001.jpg
2362.386	0.861	correct	repeat	Run3	repeat/STIM_001.jpg
2366.46	0.495	correct	repeat	Run3	repeat/STIM_002.jpg
2369.53	0.932	correct	repeat	Run3	repeat/STIM_002.jpg
2373.313	0.771	correct	repeat	Run3	repeat/STIM_002.jpg
2377.169	0.7	correct	repeat	Run3	repeat/STIM_002.jpg
2381.222	0.773	correct	repeat	Run3	repeat/STIM_002.jpg
2385.767	0.684	correct	repeat	Run3	repeat/STIM_003.jpg
2389.18	0.946	correct	repeat	Run3	repeat/STIM_003.jpg
2393.51	0.563	correct	repeat	Run3	repeat/STIM_003.jpg
2397.756	0.965	correct	repeat	Run3	repeat/STIM_003.jpg
2402.721	0.891	correct	repeat	Run3	repeat/STIM_003.jpg
2406.847	0.843	correct	repeat	Run3	repeat/STIM_004.jpg
2410.269	0.952	correct	repeat	Run3	repeat/STIM_004.jpg
2414.769	0.848	correct	repeat	Run3	repeat/STIM_004.jpg
2417.748	0.67	correct	repeat	Run3	repeat/STIM_004.jpg
2420.826	0.714	correct	repeat	Run3	repeat/STIM_004.jpg
2424.596	0.886	correct	repeat	Run3	repeat/STIM_005.jpg
2428.692	0.571	correct	repeat	Run3	repeat/STIM_005.jpg
2432.638	0.868	correct	repeat	Run3	repeat/STIM_005.jpg
2437.013	0.939	correct	repeat	Run3	repeat/STIM_005.jpg
2441.428	0.7	correct	repeat	Run3	repeat/STIM_005.jpg
2444.974	0.708	correct	repeat	Run3	repeat/STIM_006.jpg
2448.268	0.526	correct	repeat	Run3	repeat/STIM_006.jpg
2451.888	0.766	correct	repeat	Run3	repeat/STIM_006.jpg
2454.719	0.766	correct	repeat	Run3	repeat/STIM_006.jpg
2458.457	0.879	correct	repeat	Run3	repeat/STIM_006.jpg
2462.049	0.596	correct	repeat	Run3	repeat/STIM_007.jpg
2465.956	0.815	correct	repeat	Run3	repeat/STIM_007.jpg
2470.604	0.85	correct	repeat	Run3	repeat/STIM_007.jpg
2475.3	0.919	correct	repeat	Run3	repeat/STIM_007.jpg
2480.006	0.742	correct	repeat	Run3	repeat/STIM_007.jpg
2484.238	0.833	correct	repeat	Run3	repeat/STIM_008.jpg
2488.322	0.5	correct	repeat	Run3	repeat/STIM_008.jpg
2491.525	0.807	correct	repeat	Run3	repeat/STIM_008.jpg
2494.694	0.858	correct	repeat	Run3	repeat/STIM_008.jpg
2499.462	0.564	correct	repeat	Run3	repeat/STIM_008.jpg
2503.472	0.633	correct	repeat	Run3	repeat/STIM_009.jpg
2507.526	0.632	correct	repeat	Run3	repeat/STIM_009.jpg
2511.527	0.556	correct	repeat	Run3	repeat/STIM_009.jpg
2515.337	0.858	correct	repeat	Run3	repeat/STIM_009.jpg
2518.684	0.788	correct	repeat	Run3	repeat/STIM_009.jpg
2522.607	0.638	correct	repeat	Run3	repeat/STIM_010.jpg
2526.22	0.837	correct	repeat	Run3	repeat/STIM_010.jpg
2530.975	0.876	correct	repeat	Run3	repeat/STIM_010.jpg
2535.726	0.934	incorrect	repeat	Run3	repeat/STIM_010.jpg
2539.428	0.721	correct	repeat	Run3	repeat/STIM_010.jpg
2543.686	0.708	correct	repeat	Run3	repeat/STIM_011.jpg
2548.39	0.54	correct	repeat	Run3	repeat/STIM_011.jpg
2552.282	0.526	correct	repeat	Run3	repeat/STIM_011.jpg
2555.067	0.655	correct	repeat	Run3	repeat/STIM_011.jpg
2558.893	0.687	correct	repeat	Run3	repeat/STIM_011.jpg
2562.333	0.918	correct	repeat	Run3	repeat/STIM_012.jpg
2566.961	0.862	correct	repeat	Run3	repeat/STIM_012.jpg
2571.206	0.898	correct	repeat	Run3	repeat/STIM_012.jpg
2575.661	0.56	correct	repeat	Run3	repeat/STIM_012.jpg
2578.907	0.83	correct	repeat	Run3	repeat/STIM_012.jpg
2582.467	0.871	correct	repeat	Run3	repeat/STIM_013.jpg
2585.376	0.651	correct	repeat	Run3	repeat/STIM_013.jpg
2588.485	0.905	correct	repeat	Run3	repeat/STIM_013.jpg
2592.736	0.618	correct	repeat	Run3	repeat/STIM_013.jpg
2595.924	0.705	correct	repeat	Run3	repeat/STIM_013.jpg
2598.805	0.656	correct	repeat	Run3	repeat/STIM_014.jpg
2601.976	0.522	correct	repeat	Run3	repeat/STIM_014.jpg
2604.804	0.969	correct	repeat	Run3	repeat/STIM_014.jpg
2608.979	0.714	correct	repeat	Run3	repeat/STIM_014.jpg
2613.59	0.722	correct	repeat	Run3	repeat/STIM_014.jpg
2616.415	1.164	correct	generate	Run4	generate/STIM_000.jpg
2621.349	2.044	correct	generate	Run4	generate/STIM_000.jpg
2627.101	1.688	correct	generate	Run4	generate/STIM_000.jpg
2630.931	1.434	correct	generate	Run4	generate/STIM_000.jpg
2636.052	1.482	correct	generate	Run4	generate/STIM_000.jpg
2640.791	1.981	correct	generate	Run4	generate/STIM_001.jpg
2645.738	0.864	correct	generate	Run4	generate/STIM_001.jpg
2650.563	1.208	correct	generate	Run4	generate/STIM_001.jpg
2654.334	1.611	correct	generate	Run4	generate/STIM_001.jpg
2659.785	2.053	correct	generate	Run4	generate/STIM_001.jpg
2664.823	1.548	correct	generate	Run4	generate/STIM_002.jpg
2669.626	1.477	correct	generate	Run4	generate/STIM_002.jpg
2675.021	1.541	correct	generate	Run4	generate/STIM_002.jpg
2679.483	1.151	correct	generate	Run4	generate/STIM_002.jpg
2683.189	1.051	correct	generate	Run4	generate/STIM_002.jpg
2687.248	1.001	correct	generate	Run4	generate/STIM_003.jpg
2691.436	1.081	correct	generate	Run4	generate/STIM_003.jpg
2695.277	1.094	correct	generate	Run4	generate/STIM_003.jpg
2700.146	2.046	correct	generate	Run4	generate/STIM_003.jpg
2706.22	1.871	correct	generate	Run4	generate/STIM_003.jpg
2710.479	1.021	incorrect	generate	Run4	generate/STIM_004.jpg
2714.633	0.84	correct	generate	Run4	generate/STIM_004.jpg
2719.408	1.757	correct	generate	Run4	generate/STIM_004.jpg
2723.336	1.395	correct	generate	Run4	generate/STIM_004.jpg
2728.405	1.668	correct	generate	Run4	generate/STIM_004.jpg
2732.321	0.927	correct	generate	Run4	generate/STIM_005.jpg
2736.633	1.912	correct	generate	Run4	generate/STIM_005.jpg
2741.181	1.989	correct	generate	Run4	generate/STIM_005.jpg
2746.838	1.36	correct	generate	Run4	generate/STIM_005.jpg
2750.326	1.053	correct	generate	Run4	generate/STIM_005.jpg
2754.965	0.865	correct	generate	Run4	generate/STIM_006.jpg
2759.775	0.95	correct	generate	Run4	generate/STIM_006.jpg
2763.19	1.912	correct	generate	Run4	generate/STIM_006.jpg
2768.108	1.048	correct	generate	Run4	generate/STIM_006.jpg
2771.337	1.299	correct	generate	Run4	generate/STIM_006.jpg
2774.698	1.567	correct	generate	Run4	generate/STIM_007.jpg
2779.006	1.287	correct	generate	Run4	generate/STIM_007.jpg
2783.574	0.978	correct	generate	Run4	generate/STIM_007.jpg
2787.411	2.004	correct	generate	Run4	generate/STIM_007.jpg
2792.536	1.821	correct	generate	Run4	generate/STIM_007.jpg
2796.831	0.924	correct	generate	Run4	generate/STIM_008.jpg
2801.577	1.763	correct	generate	Run4	generate/STIM_008.jpg
2805.974	1.872	correct	generate	Run4	generate/STIM_008.jpg
2811.07	1.633	correct	generate	Run4	generate/STIM_008.jpg
2816.169	1.58	correct	generate	Run4	generate/STIM_008.jpg
2820.835	0.955	correct	generate	Run4	generate/STIM_009.jpg
2825.201	1.534	correct	generate	Run4	generate/STIM_009.jpg
2830.64	1.723	correct	generate	Run4	generate/STIM_009.jpg
2835.463	1.799	correct	generate	Run4	generate/STIM_009.jpg
2841.141	1.592	correct	generate	Run4	generate/STIM_009.jpg
2844.845	0.969	correct	generate	Run4	generate/STIM_010.jpg
2848.394	0.873	correct	generate	Run4	generate/STIM_010.jpg
2853.148	1.723	correct	generate	Run4	generate/STIM_010.jpg
2858.516	1.275	correct	generate	Run4	generate/STIM_010.jpg
2862.745	1.595	correct	generate	Run4	generate/STIM_010.jpg
2867.482	1.245	correct	generate	Run4	generate/STIM_011.jpg
2872.456	1.837	correct	generate	Run4	generate/STIM_011.jpg
2877.487	1.965	correct	generate	Run4	generate/STIM_011.jpg
2883.41	1.472	correct	generate	Run4	generate/STIM_011.jpg
2886.92	2.002	incorrect	generate	Run4	generate/STIM_011.jpg
2890.965	1.92	correct	generate	Run4	generate/STIM_012.jpg
2896.423	2.064	correct	generate	Run4	generate/STIM_012.jpg
2901.657	1.866	correct	generate	Run4	generate/STIM_012.jpg
2906.937	0.88	correct	generate	Run4	generate/STIM_012.jpg
2911.065	1.044	correct	generate	Run4	generate/STIM_012.jpg
2915.11	1.237	correct	generate	Run4	generate/STIM_013.jpg
2918.783	1.52	correct	generate	Run4	generate/STIM_013.jpg
2923.492	0.938	correct	generate	Run4	generate/STIM_013.jpg
2926.882	1.182	correct	generate	Run4	generate/STIM_013.jpg
2930.951	1.29	correct	generate	Run4	generate/STIM_013.jpg
2935.893	1.789	correct	generate	Run4	generate/STIM_014.jpg
2940.052	1.411	correct	generate	Run4	generate/STIM_014.jpg
2944.039	1.898	correct	generate	Run4	generate/STIM_014.jpg
2948.33	0.924	correct	generate	Run4	generate/STIM_014.jpg
2951.327	1.065	correct	generate	Run4	generate/STIM_014.jpg
2955.421	0.914	correct	generate	Run4	generate/STIM_015.jpg
2960.257	2.056	correct	generate	Run4	generate/STIM_015.jpg
2964.369	1.775	correct	generate	Run4	generate/STIM_015.jpg
2970.129	1.463	correct	generate	Run4	generate/STIM_015.jpg
2973.902	0.962	correct	generate	Run4	generate/STIM_015.jpg
2977.618	1.399	correct	generate	Run4	generate/STIM_016.jpg
2981.161	1.121	correct	generate	Run4	generate/STIM_016.jpg
2985.123	1.698	correct	generate	Run4	generate/STIM_016.jpg
2990.69	1.257	correct	generate	Run4	generate/STIM_016.jpg
2994.04	0.86	correct	generate	Run4	generate/STIM_016.jpg
2997.374	1.819	correct	generate	Run4	generate/STIM_017.jpg
3002.824	1.4	correct	generate	Run4	generate/STIM_017.jpg
3006.417	1.326	correct	generate	Run4	generate/STIM_017.jpg
3010.322	1.598	correct	generate	Run4	generate/STIM_017.jpg
3015.288	1.522	incorrect	generate	Run4	generate/STIM_017.jpg
3020.51	2.0	correct	generate	Run4	generate/STIM_018.jpg
3025.949	0.883	correct	generate	Run4	generate/STIM_018.jpg
3029.577	1.32	correct	generate	Run4	generate/STIM_018.jpg
3034.849	1.122	correct	generate	Run4	generate/STIM_018.jpg
3039.001	1.913	correct	generate	Run4	generate/STIM_018.jpg
3043.975	1.618	correct	generate	Run4	generate/STIM_019.jpg
3049.077	1.762	correct	generate	Run4	generate/STIM_019.jpg
3054.668	0.885	correct	generate	Run4	generate/STIM_019.jpg
3059.517	1.189	correct	generate	Run4	generate/STIM_019.jpg
3063.863	1.353	correct	generate	Run4	generate/STIM_019.jpg
3067.425	1.921	correct	generate	Run4	generate/STIM_020.jpg
3072.544	0.905	correct	generate	Run4	generate/STIM_020.jpg
3075.764	1.653	correct	generate	Run4	generate/STIM_020.jpg
3081.311	0.965	correct	generate	Run4	generate/STIM_020.jpg
3085.659	1.572	correct	generate	Run4	generate/STIM_020.jpg
3091.248	1.471	correct	generate	Run4	generate/STIM_021.jpg
3096.646	1.946	correct	generate	Run4	generate/STIM_021.jpg
3101.527	1.857	correct	generate	Run4	generate/STIM_021.jpg
3105.968	1.046	correct	generate	Run4	generate/STIM_021.jpg
3109.226	1.163	correct	generate	Run4	generate/STIM_021.jpg
3113.043	1.412	correct	generate	Run4	generate/STIM_022.jpg
3117.129	2.068	correct	generate	Run4	generate/STIM_022.jpg
3121.619	0.884	correct	generate	Run4	generate/STIM_022.jpg
3126.07	1.83	correct	generate	Run4	generate/STIM_022.jpg
3130.589	1.284	correct	generate	Run4	generate/STIM_022.jpg
3135.173	0.888	correct	generate	Run4	generate/STIM_023.jpg
3139.259	1.307	correct	generate	Run4	generate/STIM_023.jpg
3142.681	1.922	correct	generate	Run4	generate/STIM_023.jpg
3147.389	1.762	correct	generate	Run4	generate/STIM_023.jpg
3152.19	1.644	correct	generate	Run4	generate/STIM_023.jpg
3157.607	1.518	correct	generate	Run4	generate/STIM_024.jpg
3162.871	1.841	correct	generate	Run4	generate/STIM_024.jpg
3167.092	1.336	correct	generate	Run4	generate/STIM_024.jpg
3171.107	0.879	correct	generate	Run4	generate/STIM_024.jpg
3174.264	1.318	correct	generate	Run4	generate/STIM_024.jpg
3179.357	0.64	correct	repeat	Run4	repeat/STIM_000.jpg
3182.53	0.664	incorrect	repeat	Run4	repeat/STIM_000.jpg
3185.948	0.945	correct	repeat	Run4	repeat/STIM_000.jpg
3189.272	0.789	correct	repeat	Run4	repeat/STIM_000.jpg
3192.992	0.57	incorrect	repeat	Run4	repeat/STIM_000.jpg
3196.481	0.92	correct	repeat	Run4	repeat/STIM_001.jpg
3199.83	0.611	correct	repeat	Run4	repeat/STIM_001.jpg
3204.169	0.676	correct	repeat	Run4	repeat/STIM_001.jpg
3207.57	0.568	correct	repeat	Run4	repeat/STIM_001.jpg
3212.09	0.868	correct	repeat	Run4	repeat/STIM_001.jpg
3215.444	0.742	correct	repeat	Run4	repeat/STIM_002.jpg
3219.277	0.582	incorrect	repeat	Run4	repeat/STIM_002.jpg
3222.73	0.546	correct	repeat	Run4	repeat/STIM_002.jpg
3226.477	0.547	correct	repeat	Run4	repeat/STIM_002.jpg
3230.448	0.559	correct	repeat	Run4	repeat/STIM_002.jpg
3234.942	0.726	correct	repeat	Run4	repeat/STIM_003.jpg
3239.461	0.966	correct	repeat	Run4	repeat/STIM_003.jpg
3244.272	0.907	correct	repeat	Run4	repeat/STIM_003.jpg
3247.97	0.603	correct	repeat	Run4	repeat/STIM_003.jpg
3250.992	0.958	correct	repeat	Run4	repeat/STIM_003.jpg
3255.353	0.797	correct	repeat	Run4	repeat/STIM_004.jpg
3258.361	0.821	correct	repeat	Run4	repeat/STIM_004.jpg
3261.847	0.675	correct	repeat	Run4	repeat/STIM_004.jpg
3266.017	0.891	correct	repeat	Run4	repeat/STIM_004.jpg
3270.649	0.607	correct	repeat	Run4	repeat/STIM_004.jpg
3273.438	0.551	correct	repeat	Run4	repeat/STIM_005.jpg
3276.627	0.873	correct	repeat	Run4	repeat/STIM_005.jpg
3279.843	0.914	correct	repeat	Run4	repeat/STIM_005.jpg
3283.363	0.898	correct	repeat	Run4	repeat/STIM_005.jpg
3287.686	0.705	correct	repeat	Run4	repeat/STIM_005.jpg
3291.17	0.732	correct	repeat	Run4	repeat/STIM_006.jpg
3295.259	0.978	correct	repeat	Run4	repeat/STIM_006.jpg
3299.415	0.856	incorrect	repeat	Run4	repeat/STIM_006.jpg
3303.916	0.921	correct	repeat	Run4	repeat/STIM_006.jpg
3308.518	0.85	correct	repeat	Run4	repeat/STIM_006.jpg
3311.963	0.626	correct	repeat	Run4	repeat/STIM_007.jpg
3315.218	0.594	correct	repeat	Run4	repeat/STIM_007.jpg
3319.084	0.955	correct	repeat	Run4	repeat/STIM_007.jpg
3322.886	0.661	correct	repeat	Run4	repeat/STIM_007.jpg
3327.128	0.89	correct	repeat	Run4	repeat/STIM_007.jpg
3330.78	0.606	correct	repeat	Run4	repeat/STIM_008.jpg
3333.613	0.596	correct	repeat	Run4	repeat/STIM_008.jpg
3337.355	0.767	correct	repeat	Run4	repeat/STIM_008.jpg
3340.428	0.681	correct	repeat	Run4	repeat/STIM_008.jpg
3343.874	0.73	correct	repeat	Run4	repeat/STIM_008.jpg
3347.619	0.769	correct	repeat	Run4	repeat/STIM_009.jpg
3352.256	0.598	correct	repeat	Run4	repeat/STIM_009.jpg
3355.675	0.804	correct	repeat	Run4	repeat/STIM_009.jpg
3358.63	0.58	correct	repeat	Run4	repeat/STIM_009.jpg
3361.963	0.507	correct	repeat	Run4	repeat/STIM_009.jpg
3365.36	0.795	incorrect	repeat	Run4	repeat/STIM_010.jpg
3368.445	0.776	correct	repeat	Run4	repeat/STIM_010.jpg
3372.441	0.72	correct	repeat	Run4	repeat/STIM_010.jpg
3376.767	0.744	correct	repeat	Run4	repeat/STIM_010.jpg
3380.946	0.608	correct	repeat	Run4	repeat/STIM_010.jpg
3384.58	0.86	correct	repeat	Run4	repeat/STIM_011.jpg
3387.781	0.867	correct	repeat	Run4	repeat/STIM_011.jpg
3390.996	0.796	correct	repeat	Run4	repeat/STIM_011.jpg
3395.66	0.857	correct	repeat	Run4	repeat/STIM_011.jpg
3399.947	0.869	correct	repeat	Run4	repeat/STIM_011.jpg
3404.652	0.808	incorrect	repeat	Run4	repeat/STIM_012.jpg
3407.824	0.643	correct	repeat	Run4	repeat/STIM_012.jpg
3411.455	0.977	correct	repeat	Run4	repeat/STIM_012.jpg
3414.706	0.763	correct	repeat	Run4	repeat/STIM_012.jpg
3417.496	0.794	correct	repeat	Run4	repeat/STIM_012.jpg
3420.641	0.861	correct	repeat	Run4	repeat/STIM_013.jpg
3424.998	0.622	incorrect	repeat	Run4	repeat/STIM_013.jpg
3427.941	0.946	correct	repeat	Run4	repeat/STIM_013.jpg
3431.807	0.677	incorrect	repeat	Run4	repeat/STIM_013.jpg
3436.055	0.829	correct	repeat	Run4	repeat/STIM_013.jpg
3439.644	0.55	correct	repeat	Run4	repeat/STIM_014.jpg
3442.806	0.87	correct	repeat	Run4	repeat/STIM_014.jpg
3447.081	0.76	correct	repeat	Run4	repeat/STIM_014.jpg
3450.854	0.697	correct	repeat	Run4	repeat/STIM_014.jpg
3454.503	0.495	correct	repeat	Run4	repeat/STIM_014.jpg
