onset	duration	response_time_ms	trial_type	learning_stage	stimulus	response_port
0.0	2.841	2840.8	generate	Run1	generate/STIM_000.jpg	99
5.991	2.69	2690.1	generate	Run1	generate/STIM_000.jpg	99
12.284	1.666	1665.6	generate	Run1	generate/STIM_000.jpg	100
17.343	1.496	1496.4	generate	Run1	generate/STIM_000.jpg	100
21.277	1.335	1335.1	generate	Run1	generate/STIM_000.jpg	99
25.185	2.542	2542.2	generate	Run1	generate/STIM_001.jpg	99
31.579	2.257	2256.9	generate	Run1	generate/STIM_001.jpg	99
36.699	1.326	1325.7	generate	Run1	generate/STIM_001.jpg	99
40.468	1.457	1456.6	generate	Run1	generate/STIM_001.jpg	100
44.737	1.83	1830.3	generate	Run1	generate/STIM_001.jpg	100
48.969	2.886	2886.1	generate	Run1	generate/STIM_002.jpg	100
55.109	2.241	2241.1	generate	Run1	generate/STIM_002.jpg	100
60.989	2.416	2416.2	generate	Run1	generate/STIM_002.jpg	99
66.028	1.05	1050.5	generate	Run1	generate/STIM_002.jpg	100
69.175	1.866	1866.1	generate	Run1	generate/STIM_002.jpg	100
73.91	2.886	2886.2	generate	Run1	generate/STIM_003.jpg	99
80.237	2.21	2210.4	generate	Run1	generate/STIM_003.jpg	100
84.585	2.407	2406.9	generate	Run1	generate/STIM_003.jpg	99
89.19	1.553	1552.7	generate	Run1	generate/STIM_003.jpg	99
93.773	1.233	1233.2	generate	Run1	generate/STIM_003.jpg	99
97.416	2.656	2656.2	generate	Run1	generate/STIM_004.jpg	100
103.007	2.72	2720.1	generate	Run1	generate/STIM_004.jpg	99
108.879	2.091	2091.1	generate	Run1	generate/STIM_004.jpg	99
113.738	2.286	2286.0	generate	Run1	generate/STIM_004.jpg	99
119.709	2.149	2148.9	generate	Run1	generate/STIM_004.jpg	100
124.702	2.571	2570.6	generate	Run1	generate/STIM_005.jpg	99
130.512	2.109	2108.7	generate	Run1	generate/STIM_005.jpg	99
135.226	1.946	1945.6	generate	Run1	generate/STIM_005.jpg	99
140.214	2.347	2346.6	generate	Run1	generate/STIM_005.jpg	100
145.271	1.821	1820.8	generate	Run1	generate/STIM_005.jpg	100
150.481	2.693	2692.7	generate	Run1	generate/STIM_006.jpg	100
156.754	2.406	2406.5	generate	Run1	generate/STIM_006.jpg	99
162.28	2.087	2086.9	generate	Run1	generate/STIM_006.jpg	99
168.33	1.809	1808.8	generate	Run1	generate/STIM_006.jpg	99
173.157	1.199	1198.7	generate	Run1	generate/STIM_006.jpg	99
178.134	1.642	1641.8	generate	Run1	generate/STIM_007.jpg	100
183.304	2.737	2737.2	generate	Run1	generate/STIM_007.jpg	100
189.654	2.632	2632.2	generate	Run1	generate/STIM_007.jpg	99
196.075	2.242	2241.5	generate	Run1	generate/STIM_007.jpg	99
201.099	1.052	1051.9	generate	Run1	generate/STIM_007.jpg	100
204.731	2.133	2133.4	generate	Run1	generate/STIM_008.jpg	99
209.659	2.604	2604.2	generate	Run1	generate/STIM_008.jpg	100
215.765	1.395	1394.8	generate	Run1	generate/STIM_008.jpg	99
219.815	1.976	1975.6	generate	Run1	generate/STIM_008.jpg	100
225.558	1.614	1613.8	generate	Run1	generate/STIM_008.jpg	100
230.217	2.076	2076.2	generate	Run1	generate/STIM_009.jpg	99
234.673	2.102	2102.3	generate	Run1	generate/STIM_009.jpg	100
240.422	2.101	2101.3	generate	Run1	generate/STIM_009.jpg	100
246.249	1.986	1985.6	generate	Run1	generate/STIM_009.jpg	99
251.943	0.98	980.2	generate	Run1	generate/STIM_009.jpg	100
255.932	2.294	2293.5	generate	Run1	generate/STIM_010.jpg	100
262.249	2.065	2064.7	generate	Run1	generate/STIM_010.jpg	100
267.783	1.897	1896.6	generate	Run1	generate/STIM_010.jpg	99
272.806	2.196	2195.9	generate	Run1	generate/STIM_010.jpg	100
278.253	2.015	2015.1	generate	Run1	generate/STIM_010.jpg	99
282.712	2.101	2101.4	generate	Run1	generate/STIM_011.jpg	100
287.02	1.22	1219.5	generate	Run1	generate/STIM_011.jpg	99
292.058	2.397	2397.1	generate	Run1	generate/STIM_011.jpg	100
297.827	1.545	1545.3	generate	Run1	generate/STIM_011.jpg	99
301.66	1.974	1973.6	generate	Run1	generate/STIM_011.jpg	100
306.748	1.966	1965.5	generate	Run1	generate/STIM_012.jpg	100
311.277	2.187	2187.0	generate	Run1	generate/STIM_012.jpg	99
316.379	2.595	2595.2	generate	Run1	generate/STIM_012.jpg	99
322.468	1.373	1373.2	generate	Run1	generate/STIM_012.jpg	99
327.857	1.666	1665.8	generate	Run1	generate/STIM_012.jpg	100
331.595	1.676	1676.4	generate	Run1	generate/STIM_013.jpg	99
336.83	2.113	2113.2	generate	Run1	generate/STIM_013.jpg	100
342.058	2.289	2288.6	generate	Run1	generate/STIM_013.jpg	100
347.957	1.33	1330.3	generate	Run1	generate/STIM_013.jpg	99
352.528	1.392	1391.9	generate	Run1	generate/STIM_013.jpg	99
357.011	1.496	1496.5	generate	Run1	generate/STIM_014.jpg	100
360.998	2.591	2591.2	generate	Run1	generate/STIM_014.jpg	100
367.616	1.76	1759.7	generate	Run1	generate/STIM_014.jpg	99
372.235	1.67	1670.1	generate	Run1	generate/STIM_014.jpg	100
377.614	1.873	1873.1	generate	Run1	generate/STIM_014.jpg	100
383.085	1.356	1356.3	generate	Run1	generate/STIM_015.jpg	99
387.881	2.282	2282.1	generate	Run1	generate/STIM_015.jpg	99
392.403	1.258	1258.2	generate	Run1	generate/STIM_015.jpg	99
395.787	1.754	1754.4	generate	Run1	generate/STIM_015.jpg	100
399.897	1.18	1180.0	generate	Run1	generate/STIM_015.jpg	100
403.988	2.943	2943.2	generate	Run1	generate/STIM_016.jpg	99
410.882	2.726	2726.4	generate	Run1	generate/STIM_016.jpg	99
416.947	1.572	1572.0	generate	Run1	generate/STIM_016.jpg	100
421.646	1.638	1638.3	generate	Run1	generate/STIM_016.jpg	99
426.15	1.797	1797.1	generate	Run1	generate/STIM_016.jpg	99
430.447	1.793	1792.7	generate	Run1	generate/STIM_017.jpg	99
434.333	1.998	1997.6	generate	Run1	generate/STIM_017.jpg	99
439.386	1.172	1172.2	generate	Run1	generate/STIM_017.jpg	99
444.572	1.236	1235.5	generate	Run1	generate/STIM_017.jpg	100
449.673	1.242	1242.5	generate	Run1	generate/STIM_017.jpg	100
453.815	1.471	1471.1	generate	Run1	generate/STIM_018.jpg	100
457.601	2.609	2609.3	generate	Run1	generate/STIM_018.jpg	99
463.009	2.202	2202.0	generate	Run1	generate/STIM_018.jpg	100
468.662	2.442	2441.5	generate	Run1	generate/STIM_018.jpg	100
474.519	1.267	1267.3	generate	Run1	generate/STIM_018.jpg	99
479.529	2.298	2297.6	generate	Run1	generate/STIM_019.jpg	100
485.672	2.125	2124.6	generate	Run1	generate/STIM_019.jpg	100
490.63	1.547	1546.6	generate	Run1	generate/STIM_019.jpg	100
495.529	1.567	1567.4	generate	Run1	generate/STIM_019.jpg	99
500.496	1.525	1525.4	generate	Run1	generate/STIM_019.jpg	99
505.924	1.64	1640.4	generate	Run1	generate/STIM_020.jpg	99
510.264	1.604	1604.5	generate	Run1	generate/STIM_020.jpg	100
515.667	2.205	2204.8	generate	Run1	generate/STIM_020.jpg	99
521.802	1.576	1575.9	generate	Run1	generate/STIM_020.jpg	100
526.544	1.236	1235.5	generate	Run1	generate/STIM_020.jpg	100
530.9	1.208	1207.9	generate	Run1	generate/STIM_021.jpg	100
534.872	2.025	2024.9	generate	Run1	generate/STIM_021.jpg	100
539.608	2.498	2498.2	generate	Run1	generate/STIM_021.jpg	100
544.396	1.292	1291.9	generate	Run1	generate/STIM_021.jpg	100
549.059	1.651	1651.0	generate	Run1	generate/STIM_021.jpg	99
554.145	2.758	2758.4	generate	Run1	generate/STIM_022.jpg	100
560.873	2.24	2240.2	generate	Run1	generate/STIM_022.jpg	100
566.353	1.314	1314.3	generate	Run1	generate/STIM_022.jpg	99
571.405	2.048	2047.6	generate	Run1	generate/STIM_022.jpg	100
575.786	1.45	1450.3	generate	Run1	generate/STIM_022.jpg	100
579.458	2.844	2844.0	generate	Run1	generate/STIM_023.jpg	99
585.779	2.113	2113.0	generate	Run1	generate/STIM_023.jpg	100
591.318	1.771	1770.8	generate	Run1	generate/STIM_023.jpg	100
596.496	1.394	1394.4	generate	Run1	generate/STIM_023.jpg	100
600.934	1.833	1833.0	generate	Run1	generate/STIM_023.jpg	100
604.896	1.246	1246.2	generate	Run1	generate/STIM_024.jpg	99
609.318	1.683	1683.0	generate	Run1	generate/STIM_024.jpg	99
613.304	1.83	1829.9	generate	Run1	generate/STIM_024.jpg	100
619.058	2.254	2254.2	generate	Run1	generate/STIM_024.jpg	100
624.167	2.016	2016.3	generate	Run1	generate/STIM_024.jpg	100
628.805	0.81	809.6	repeat	Run1	repeat/STIM_000.jpg	99
633.516	0.891	890.6	repeat	Run1	repeat/STIM_000.jpg	100
636.817	0.606	605.6	repeat	Run1	repeat/STIM_000.jpg	99
640.661	0.689	688.8	repeat	Run1	repeat/STIM_000.jpg	100
643.47	0.968	968.1	repeat	Run1	repeat/STIM_000.jpg	99
646.456	0.661	661.2	repeat	Run1	repeat/STIM_001.jpg	100
651.043	0.598	597.9	repeat	Run1	repeat/STIM_001.jpg	99
654.046	0.51	509.7	repeat	Run1	repeat/STIM_001.jpg	99
657.928	0.752	752.1	repeat	Run1	repeat/STIM_001.jpg	100
661.802	0.544	543.9	repeat	Run1	repeat/STIM_001.jpg	99
665.608	0.889	889.4	repeat	Run1	repeat/STIM_002.jpg	99
668.856	0.587	587.1	repeat	Run1	repeat/STIM_002.jpg	99
672.958	0.63	629.8	repeat	Run1	repeat/STIM_002.jpg	99
676.176	0.732	731.7	repeat	Run1	repeat/STIM_002.jpg	99
679.098	0.625	624.6	repeat	Run1	repeat/STIM_002.jpg	99
682.792	0.494	494.3	repeat	Run1	repeat/STIM_003.jpg	100
685.656	0.604	604.2	repeat	Run1	repeat/STIM_003.jpg	99
688.505	0.734	733.8	repeat	Run1	repeat/STIM_003.jpg	99
692.395	0.976	976.3	repeat	Run1	repeat/STIM_003.jpg	100
695.508	0.605	604.8	repeat	Run1	repeat/STIM_003.jpg	100
698.44	0.835	834.9	repeat	Run1	repeat/STIM_004.jpg	99
702.346	0.626	626.4	repeat	Run1	repeat/STIM_004.jpg	99
705.026	0.968	968.3	repeat	Run1	repeat/STIM_004.jpg	100
708.358	0.55	550.1	repeat	Run1	repeat/STIM_004.jpg	99
712.483	0.848	848.0	repeat	Run1	repeat/STIM_004.jpg	100
715.894	0.729	729.4	repeat	Run1	repeat/STIM_005.jpg	100
719.561	0.681	680.8	repeat	Run1	repeat/STIM_005.jpg	100
723.648	0.762	762.1	repeat	Run1	repeat/STIM_005.jpg	99
727.223	0.641	641.2	repeat	Run1	repeat/STIM_005.jpg	100
731.061	0.526	526.3	repeat	Run1	repeat/STIM_005.jpg	99
734.989	0.629	628.9	repeat	Run1	repeat/STIM_006.jpg	99
739.622	0.762	762.3	repeat	Run1	repeat/STIM_006.jpg	99
744.378	0.761	761.1	repeat	Run1	repeat/STIM_006.jpg	100
747.292	0.613	613.2	repeat	Run1	repeat/STIM_006.jpg	99
750.041	0.724	723.9	repeat	Run1	repeat/STIM_006.jpg	99
753.984	0.59	589.7	repeat	Run1	repeat/STIM_007.jpg	100
757.662	0.802	801.5	repeat	Run1	repeat/STIM_007.jpg	100
761.783	0.663	662.8	repeat	Run1	repeat/STIM_007.jpg	99
765.432	0.955	955.1	repeat	Run1	repeat/STIM_007.jpg	100
769.015	0.527	526.9	repeat	Run1	repeat/STIM_007.jpg	99
773.378	0.586	585.8	repeat	Run1	repeat/STIM_008.jpg	100
777.693	0.936	935.7	repeat	Run1	repeat/STIM_008.jpg	99
780.981	0.767	767.2	repeat	Run1	repeat/STIM_008.jpg	99
784.746	0.884	883.5	repeat	Run1	repeat/STIM_008.jpg	99
789.249	0.941	941.2	repeat	Run1	repeat/STIM_008.jpg	99
793.574	0.65	649.9	repeat	Run1	repeat/STIM_009.jpg	100
796.81	0.945	945.3	repeat	Run1	repeat/STIM_009.jpg	99
800.014	0.729	729.4	repeat	Run1	repeat/STIM_009.jpg	100
804.449	0.735	734.9	repeat	Run1	repeat/STIM_009.jpg	99
809.188	0.697	696.6	repeat	Run1	repeat/STIM_009.jpg	99
813.729	0.906	906.0	repeat	Run1	repeat/STIM_010.jpg	99
818.602	0.606	605.9	repeat	Run1	repeat/STIM_010.jpg	100
822.352	0.549	549.4	repeat	Run1	repeat/STIM_010.jpg	99
825.654	0.593	592.6	repeat	Run1	repeat/STIM_010.jpg	99
828.337	0.87	870.0	repeat	Run1	repeat/STIM_010.jpg	99
831.221	0.86	859.6	repeat	Run1	repeat/STIM_011.jpg	99
835.379	0.83	830.5	repeat	Run1	repeat/STIM_011.jpg	99
839.462	0.712	712.5	repeat	Run1	repeat/STIM_011.jpg	99
843.824	0.957	957.4	repeat	Run1	repeat/STIM_011.jpg	100
846.841	0.84	839.5	repeat	Run1	repeat/STIM_011.jpg	100
851.323	0.836	835.8	repeat	Run1	repeat/STIM_012.jpg	99
855.495	0.946	946.5	repeat	Run1	repeat/STIM_012.jpg	100
859.4	0.873	873.1	repeat	Run1	repeat/STIM_012.jpg	100
862.368	0.905	904.7	repeat	Run1	repeat/STIM_012.jpg	100
865.395	0.783	783.3	repeat	Run1	repeat/STIM_012.jpg	100
868.788	0.67	670.2	repeat	Run1	repeat/STIM_013.jpg	100
873.384	0.934	933.6	repeat	Run1	repeat/STIM_013.jpg	99
877.324	0.725	725.2	repeat	Run1	repeat/STIM_013.jpg	99
880.488	0.71	710.4	repeat	Run1	repeat/STIM_013.jpg	99
885.015	0.532	532.0	repeat	Run1	repeat/STIM_013.jpg	99
889.316	0.908	908.4	repeat	Run1	repeat/STIM_014.jpg	99
893.298	0.647	647.1	repeat	Run1	repeat/STIM_014.jpg	99
897.952	0.698	698.3	repeat	Run1	repeat/STIM_014.jpg	100
902.454	0.884	883.8	repeat	Run1	repeat/STIM_014.jpg	100
905.791	0.505	504.6	repeat	Run1	repeat/STIM_014.jpg	100
909.269	1.671	1671.0	generate	Run2	generate/STIM_000.jpg	100
913.131	1.437	1436.7	generate	Run2	generate/STIM_000.jpg	100
917.899	1.164	1164.4	generate	Run2	generate/STIM_000.jpg	100
921.605	1.572	1571.7	generate	Run2	generate/STIM_000.jpg	99
926.66	1.903	1902.8	generate	Run2	generate/STIM_000.jpg	100
931.533	2.145	2145.0	generate	Run2	generate/STIM_001.jpg	100
937.566	1.575	1574.6	generate	Run2	generate/STIM_001.jpg	100
941.934	0.943	943.0	generate	Run2	generate/STIM_001.jpg	100
946.343	0.941	941.2	generate	Run2	generate/STIM_001.jpg	100
949.664	1.546	1545.6	generate	Run2	generate/STIM_001.jpg	100
953.545	1.345	1344.8	generate	Run2	generate/STIM_002.jpg	99
957.484	1.45	1449.9	generate	Run2	generate/STIM_002.jpg	100
962.107	1.815	1814.6	generate	Run2	generate/STIM_002.jpg	99
966.943	1.267	1267.2	generate	Run2	generate/STIM_002.jpg	99
971.898	1.681	1681.1	generate	Run2	generate/STIM_002.jpg	100
976.6	1.575	1574.7	generate	Run2	generate/STIM_003.jpg	99
981.567	1.153	1153.3	generate	Run2	generate/STIM_003.jpg	99
985.715	1.055	1055.1	generate	Run2	generate/STIM_003.jpg	100
990.632	1.283	1282.8	generate	Run2	generate/STIM_003.jpg	100
994.818	1.894	1894.0	generate	Run2	generate/STIM_003.jpg	99
1000.396	1.479	1479.1	generate	Run2	generate/STIM_004.jpg	99
1004.597	1.821	1821.1	generate	Run2	generate/STIM_004.jpg	100
1008.802	1.226	1225.5	generate	Run2	generate/STIM_004.jpg	100
1013.448	0.972	972.5	generate	Run2	generate/STIM_004.jpg	99
1016.578	1.427	1426.9	generate	Run2	generate/STIM_004.jpg	100
1021.052	1.615	1615.2	generate	Run2	generate/STIM_005.jpg	100
1025.376	1.139	1139.1	generate	Run2	generate/STIM_005.jpg	99
1029.234	1.852	1851.6	generate	Run2	generate/STIM_005.jpg	100
1034.986	1.186	1185.5	generate	Run2	generate/STIM_005.jpg	99
1038.559	1.09	1089.5	generate	Run2	generate/STIM_005.jpg	100
1042.204	1.026	1026.4	generate	Run2	generate/STIM_006.jpg	99
1046.456	2.015	2014.9	generate	Run2	generate/STIM_006.jpg	99
1050.528	1.372	1371.9	generate	Run2	generate/STIM_006.jpg	99
1054.742	1.475	1475.3	generate	Run2	generate/STIM_006.jpg	100
1058.246	1.44	1439.5	generate	Run2	generate/STIM_006.jpg	100
1062.472	2.466	2466.5	generate	Run2	generate/STIM_007.jpg	99
1067.38	1.162	1162.4	generate	Run2	generate/STIM_007.jpg	100
1070.614	1.148	1148.4	generate	Run2	generate/STIM_007.jpg	100
1074.767	1.631	1631.3	generate	Run2	generate/STIM_007.jpg	99
1079.664	2.067	2066.6	generate	Run2	generate/STIM_007.jpg	99
1083.779	2.404	2403.7	generate	Run2	generate/STIM_008.jpg	100
1088.916	1.364	1364.0	generate	Run2	generate/STIM_008.jpg	99
1092.868	2.098	2098.3	generate	Run2	generate/STIM_008.jpg	100
1098.713	1.729	1728.9	generate	Run2	generate/STIM_008.jpg	99
1103.283	1.984	1984.4	generate	Run2	generate/STIM_008.jpg	100
1108.437	1.101	1100.8	generate	Run2	generate/STIM_009.jpg	100
1112.472	1.168	1167.9	generate	Run2	generate/STIM_009.jpg	99
1117.588	1.123	1123.3	generate	Run2	generate/STIM_009.jpg	100
1120.984	1.842	1841.9	generate	Run2	generate/STIM_009.jpg	99
1126.126	1.267	1266.7	generate	Run2	generate/STIM_009.jpg	100
1130.942	2.109	2109.4	generate	Run2	generate/STIM_010.jpg	100
1136.163	0.95	949.5	generate	Run2	generate/STIM_010.jpg	99
1140.661	2.022	2021.7	generate	Run2	generate/STIM_010.jpg	99
1145.319	2.053	2053.4	generate	Run2	generate/STIM_010.jpg	100
1151.152	1.255	1254.7	generate	Run2	generate/STIM_010.jpg	100
1156.061	2.06	2060.4	generate	Run2	generate/STIM_011.jpg	100
1160.717	1.271	1271.2	generate	Run2	generate/STIM_011.jpg	99
1164.19	2.025	2025.4	generate	Run2	generate/STIM_011.jpg	99
1168.804	1.426	1426.2	generate	Run2	generate/STIM_011.jpg	99
1174.232	1.834	1834.4	generate	Run2	generate/STIM_011.jpg	99
1178.532	2.212	2212.1	generate	Run2	generate/STIM_012.jpg	99
1183.488	1.176	1175.8	generate	Run2	generate/STIM_012.jpg	100
1186.776	1.375	1374.7	generate	Run2	generate/STIM_012.jpg	100
1190.668	1.744	1744.5	generate	Run2	generate/STIM_012.jpg	99
1195.279	1.199	1198.9	generate	Run2	generate/STIM_012.jpg	99
1199.193	2.307	2306.6	generate	Run2	generate/STIM_013.jpg	99
1204.727	1.63	1629.9	generate	Run2	generate/STIM_013.jpg	100
1209.501	1.028	1027.8	generate	Run2	generate/STIM_013.jpg	99
1213.723	1.536	1535.8	generate	Run2	generate/STIM_013.jpg	100
1218.438	1.827	1827.3	generate	Run2	generate/STIM_013.jpg	99
1224.235	1.245	1244.8	generate	Run2	generate/STIM_014.jpg	100
1227.53	2.232	2232.4	generate	Run2	generate/STIM_014.jpg	99
1231.868	1.513	1513.2	generate	Run2	generate/STIM_014.jpg	100
1236.443	1.786	1785.5	generate	Run2	generate/STIM_014.jpg	99
1241.264	1.912	1912.3	generate	Run2	generate/STIM_014.jpg	100
1246.568	1.984	1984.5	generate	Run2	generate/STIM_015.jpg	99
1251.441	1.621	1621.2	generate	Run2	generate/STIM_015.jpg	99
1256.241	0.905	905.0	generate	Run2	generate/STIM_015.jpg	100
1259.98	1.482	1481.5	generate	Run2	generate/STIM_015.jpg	100
1264.876	1.429	1428.8	generate	Run2	generate/STIM_015.jpg	99
1269.396	1.055	1054.9	generate	Run2	generate/STIM_016.jpg	100
1274.349	1.504	1503.8	generate	Run2	generate/STIM_016.jpg	100
1279.814	1.448	1447.9	generate	Run2	generate/STIM_016.jpg	100
1284.765	0.997	997.2	generate	Run2	generate/STIM_016.jpg	100
1288.805	0.987	987.4	generate	Run2	generate/STIM_016.jpg	100
1293.305	1.912	1912.1	generate	Run2	generate/STIM_017.jpg	99
1299.077	1.569	1568.6	generate	Run2	generate/STIM_017.jpg	99
1303.207	1.388	1387.7	generate	Run2	generate/STIM_017.jpg	99
1307.146	1.03	1029.9	generate	Run2	generate/STIM_017.jpg	100
1311.628	0.962	962.2	generate	Run2	generate/STIM_017.jpg	100
1315.124	1.757	1757.0	generate	Run2	generate/STIM_018.jpg	99
1320.018	2.076	2075.9	generate	Run2	generate/STIM_018.jpg	99
1325.08	1.018	1018.4	generate	Run2	generate/STIM_018.jpg	100
1328.519	0.834	834.1	generate	Run2	generate/STIM_018.jpg	99
1333.009	1.173	1172.8	generate	Run2	generate/STIM_018.jpg	100
1336.829	2.302	2302.4	generate	Run2	generate/STIM_019.jpg	100
1341.682	1.562	1561.6	generate	Run2	generate/STIM_019.jpg	99
1346.131	1.184	1183.6	generate	Run2	generate/STIM_019.jpg	100
1351.036	0.953	953.2	generate	Run2	generate/STIM_019.jpg	100
1355.866	1.538	1538.2	generate	Run2	generate/STIM_019.jpg	100
1360.484	2.154	2153.8	generate	Run2	generate/STIM_020.jpg	100
1365.84	2.128	2128.5	generate	Run2	generate/STIM_020.jpg	99
1370.631	1.21	1209.5	generate	Run2	generate/STIM_020.jpg	99
1374.037	0.956	955.5	generate	Run2	generate/STIM_020.jpg	100
1378.119	0.922	921.7	generate	Run2	generate/STIM_020.jpg	99
1383.032	2.265	2265.3	generate	Run2	generate/STIM_021.jpg	99
1388.688	1.524	1523.5	generate	Run2	generate/STIM_021.jpg	99
1392.332	2.085	2084.6	generate	Run2	generate/STIM_021.jpg	100
1397.946	0.829	828.8	generate	Run2	generate/STIM_021.jpg	99
1401.146	1.638	1638.2	generate	Run2	generate/STIM_021.jpg	99
1405.907	1.273	1272.6	generate	Run2	generate/STIM_022.jpg	99
1410.228	1.549	1549.0	generate	Run2	generate/STIM_022.jpg	100
1413.822	0.908	907.5	generate	Run2	generate/STIM_022.jpg	99
1418.396	1.897	1897.0	generate	Run2	generate/STIM_022.jpg	99
1423.201	1.809	1808.6	generate	Run2	generate/STIM_022.jpg	99
1428.126	2.444	2444.1	generate	Run2	generate/STIM_023.jpg	99
1434.54	1.103	1103.3	generate	Run2	generate/STIM_023.jpg	99
1438.398	1.315	1314.7	generate	Run2	generate/STIM_023.jpg	100
1442.027	2.026	2025.5	generate	Run2	generate/STIM_023.jpg	100
1447.163	1.198	1197.7	generate	Run2	generate/STIM_023.jpg	99
1452.342	2.431	2430.7	generate	Run2	generate/STIM_024.jpg	99
1457.662	1.064	1064.0	generate	Run2	generate/STIM_024.jpg	99
1462.419	0.931	931.3	generate	Run2	generate/STIM_024.jpg	99
1466.016	1.756	1756.4	generate	Run2	generate/STIM_024.jpg	99
1470.373	0.944	943.6	generate	Run2	generate/STIM_024.jpg	99
1473.597	0.558	558.2	repeat	Run2	repeat/STIM_000.jpg	99
1477.763	0.899	898.6	repeat	Run2	repeat/STIM_000.jpg	99
1482.518	0.938	938.3	repeat	Run2	repeat/STIM_000.jpg	99
1486.864	0.974	974.5	repeat	Run2	repeat/STIM_000.jpg	99
1491.726	0.541	541.3	repeat	Run2	repeat/STIM_000.jpg	100
1495.384	0.837	836.7	repeat	Run2	repeat/STIM_001.jpg	99
1499.825	0.589	588.8	repeat	Run2	repeat/STIM_001.jpg	99
1504.077	0.497	497.4	repeat	Run2	repeat/STIM_001.jpg	100
1507.295	0.9	900.1	repeat	Run2	repeat/STIM_001.jpg	100
1511.297	0.874	874.2	repeat	Run2	repeat/STIM_001.jpg	99
1515.695	0.89	889.9	repeat	Run2	repeat/STIM_002.jpg	100
1519.262	0.851	851.1	repeat	Run2	repeat/STIM_002.jpg	99
1523.011	0.826	825.5	repeat	Run2	repeat/STIM_002.jpg	100
1525.893	0.847	846.6	repeat	Run2	repeat/STIM_002.jpg	100
1529.379	0.644	643.7	repeat	Run2	repeat/STIM_002.jpg	99
1532.118	0.667	667.0	repeat	Run2	repeat/STIM_003.jpg	100
1536.536	0.731	730.7	repeat	Run2	repeat/STIM_003.jpg	100
1540.106	0.942	942.2	repeat	Run2	repeat/STIM_003.jpg	100
1544.691	0.803	802.9	repeat	Run2	repeat/STIM_003.jpg	99
1548.909	0.789	788.6	repeat	Run2	repeat/STIM_003.jpg	100
1553.429	0.71	709.8	repeat	Run2	repeat/STIM_004.jpg	99
1558.048	0.573	572.8	repeat	Run2	repeat/STIM_004.jpg	99
1562.378	0.634	633.5	repeat	Run2	repeat/STIM_004.jpg	99
1565.335	0.808	808.2	repeat	Run2	repeat/STIM_004.jpg	100
1568.81	0.496	495.8	repeat	Run2	repeat/STIM_004.jpg	100
1572.246	0.88	880.1	repeat	Run2	repeat/STIM_005.jpg	99
1576.746	0.928	928.2	repeat	Run2	repeat/STIM_005.jpg	100
1579.7	0.692	692.0	repeat	Run2	repeat/STIM_005.jpg	100
1583.686	0.968	967.7	repeat	Run2	repeat/STIM_005.jpg	99
1586.829	0.637	637.2	repeat	Run2	repeat/STIM_005.jpg	100
1590.774	0.694	693.8	repeat	Run2	repeat/STIM_006.jpg	100
1595.264	0.931	931.3	repeat	Run2	repeat/STIM_006.jpg	100
1599.896	0.886	886.1	repeat	Run2	repeat/STIM_006.jpg	99
1604.667	0.78	779.5	repeat	Run2	repeat/STIM_006.jpg	100
1607.758	0.921	920.9	repeat	Run2	repeat/STIM_006.jpg	99
1611.506	0.759	758.8	repeat	Run2	repeat/STIM_007.jpg	100
1615.913	0.77	769.8	repeat	Run2	repeat/STIM_007.jpg	100
1618.755	0.628	627.6	repeat	Run2	repeat/STIM_007.jpg	100
1622.125	0.82	819.8	repeat	Run2	repeat/STIM_007.jpg	99
1625.014	0.762	761.6	repeat	Run2	repeat/STIM_007.jpg	99
1629.379	0.844	844.3	repeat	Run2	repeat/STIM_008.jpg	99
1633.551	0.737	737.3	repeat	Run2	repeat/STIM_008.jpg	100
1637.372	0.642	642.0	repeat	Run2	repeat/STIM_008.jpg	99
1640.327	0.77	770.1	repeat	Run2	repeat/STIM_008.jpg	100
1645.024	0.735	734.8	repeat	Run2	repeat/STIM_008.jpg	100
1648.978	0.614	614.4	repeat	Run2	repeat/STIM_009.jpg	100
1652.289	0.54	540.4	repeat	Run2	repeat/STIM_009.jpg	99
1656.295	0.773	773.2	repeat	Run2	repeat/STIM_009.jpg	100
1660.543	0.85	850.5	repeat	Run2	repeat/STIM_009.jpg	99
1663.791	0.519	518.8	repeat	Run2	repeat/STIM_009.jpg	99
1666.885	0.928	927.5	repeat	Run2	repeat/STIM_010.jpg	99
1670.52	0.82	819.7	repeat	Run2	repeat/STIM_010.jpg	99
1674.384	0.744	743.5	repeat	Run2	repeat/STIM_010.jpg	100
1677.308	0.881	881.0	repeat	Run2	repeat/STIM_010.jpg	99
1680.75	0.931	930.9	repeat	Run2	repeat/STIM_010.jpg	100
1685.384	0.571	570.8	repeat	Run2	repeat/STIM_011.jpg	99
1688.351	0.758	758.2	repeat	Run2	repeat/STIM_011.jpg	99
1691.909	0.7	700.1	repeat	Run2	repeat/STIM_011.jpg	99
1695.552	0.851	851.2	repeat	Run2	repeat/STIM_011.jpg	99
1699.607	0.498	497.9	repeat	Run2	repeat/STIM_011.jpg	99
1703.187	0.613	613.2	repeat	Run2	repeat/STIM_012.jpg	100
1705.968	0.772	771.6	repeat	Run2	repeat/STIM_012.jpg	100
1708.809	0.903	902.9	repeat	Run2	repeat/STIM_012.jpg	99
1713.181	0.914	913.8	repeat	Run2	repeat/STIM_012.jpg	100
1717.694	0.765	765.1	repeat	Run2	repeat/STIM_012.jpg	100
1721.586	0.707	707.1	repeat	Run2	repeat/STIM_013.jpg	99
1726.109	0.772	771.8	repeat	Run2	repeat/STIM_013.jpg	99
1729.885	0.891	890.7	repeat	Run2	repeat/STIM_013.jpg	99
1734.341	0.7	700.2	repeat	Run2	repeat/STIM_013.jpg	100
1737.264	0.962	962.2	repeat	Run2	repeat/STIM_013.jpg	100
1740.874	0.957	957.4	repeat	Run2	repeat/STIM_014.jpg	100
1745.835	0.857	857.1	repeat	Run2	repeat/STIM_014.jpg	100
1748.886	0.858	857.9	repeat	Run2	repeat/STIM_014.jpg	99
1752.173	0.517	517.4	repeat	Run2	repeat/STIM_014.jpg	100
1756.666	0.808	807.6	repeat	Run2	repeat/STIM_014.jpg	99
1760.35	1.215	1214.8	generate	Run3	generate/STIM_000.jpg	100
1764.779	1.217	1217.1	generate	Run3	generate/STIM_000.jpg	99
1769.69	1.191	1191.4	generate	Run3	generate/STIM_000.jpg	100
1774.276	0.939	939.3	generate	Run3	generate/STIM_000.jpg	99
1777.357	1.318	1318.1	generate	Run3	generate/STIM_000.jpg	100
1782.262	1.671	1671.0	generate	Run3	generate/STIM_001.jpg	99
1786.425	1.454	1454.0	generate	Run3	generate/STIM_001.jpg	100
1790.807	1.734	1733.5	generate	Run3	generate/STIM_001.jpg	99
1794.83	1.364	1363.8	generate	Run3	generate/STIM_001.jpg	100
1798.281	1.42	1420.2	generate	Run3	generate/STIM_001.jpg	99
1803.417	1.0	999.5	generate	Run3	generate/STIM_002.jpg	100
1807.488	1.859	1858.8	generate	Run3	generate/STIM_002.jpg	99
1811.846	2.017	2016.6	generate	Run3	generate/STIM_002.jpg	99
1817.238	1.544	1543.6	generate	Run3	generate/STIM_002.jpg	100
1821.485	1.554	1554.4	generate	Run3	generate/STIM_002.jpg	100
1825.355	1.366	1365.7	generate	Run3	generate/STIM_003.jpg	100
1830.115	1.749	1749.0	generate	Run3	generate/STIM_003.jpg	100
1835.551	1.453	1452.9	generate	Run3	generate/STIM_003.jpg	100
1839.914	1.937	1937.4	generate	Run3	generate/STIM_003.jpg	99
1845.673	1.686	1685.8	generate	Run3	generate/STIM_003.jpg	100
1850.484	1.742	1741.7	generate	Run3	generate/STIM_004.jpg	100
1855.302	1.99	1990.3	generate	Run3	generate/STIM_004.jpg	100
1860.821	1.387	1387.0	generate	Run3	generate/STIM_004.jpg	99
1864.898	1.968	1967.9	generate	Run3	generate/STIM_004.jpg	100
1869.863	1.569	1569.2	generate	Run3	generate/STIM_004.jpg	99
1874.513	1.783	1782.7	generate	Run3	generate/STIM_005.jpg	100
1878.669	0.907	906.6	generate	Run3	generate/STIM_005.jpg	99
1882.724	1.041	1040.7	generate	Run3	generate/STIM_005.jpg	99
1885.965	1.185	1184.8	generate	Run3	generate/STIM_005.jpg	99
1890.019	2.059	2058.7	generate	Run3	generate/STIM_005.jpg	99
1894.588	1.528	1528.3	generate	Run3	generate/STIM_006.jpg	100
1898.609	1.013	1012.9	generate	Run3	generate/STIM_006.jpg	100
1902.271	1.302	1302.2	generate	Run3	generate/STIM_006.jpg	100
1907.586	1.806	1806.4	generate	Run3	generate/STIM_006.jpg	99
1913.121	1.922	1921.9	generate	Run3	generate/STIM_006.jpg	99
1917.486	1.684	1683.8	generate	Run3	generate/STIM_007.jpg	99
1922.906	2.031	2030.7	generate	Run3	generate/STIM_007.jpg	100
1927.257	1.967	1967.2	generate	Run3	generate/STIM_007.jpg	99
1933.248	1.567	1566.7	generate	Run3	generate/STIM_007.jpg	100
1936.985	1.612	1611.7	generate	Run3	generate/STIM_007.jpg	100
1942.083	1.833	1833.4	generate	Run3	generate/STIM_008.jpg	99
1946.027	1.334	1333.8	generate	Run3	generate/STIM_008.jpg	99
1951.352	1.255	1255.4	generate	Run3	generate/STIM_008.jpg	99
1956.589	1.509	1508.6	generate	Run3	generate/STIM_008.jpg	99
1961.603	1.792	1791.5	generate	Run3	generate/STIM_008.jpg	99
1966.927	1.03	1030.2	generate	Run3	generate/STIM_009.jpg	99
1971.942	1.215	1214.8	generate	Run3	generate/STIM_009.jpg	99
1976.132	2.029	2029.1	generate	Run3	generate/STIM_009.jpg	99
1981.865	1.105	1105.4	generate	Run3	generate/STIM_009.jpg	100
1986.972	1.855	1855.0	generate	Run3	generate/STIM_009.jpg	99
1992.603	1.342	1342.5	generate	Run3	generate/STIM_010.jpg	100
1996.945	1.332	1331.9	generate	Run3	generate/STIM_010.jpg	100
2002.023	1.281	1280.8	generate	Run3	generate/STIM_010.jpg	100
2006.488	1.915	1915.3	generate	Run3	generate/STIM_010.jpg	100
2011.568	1.013	1012.6	generate	Run3	generate/STIM_010.jpg	100
2014.756	0.842	841.8	generate	Run3	generate/STIM_011.jpg	99
2018.084	1.971	1971.4	generate	Run3	generate/STIM_011.jpg	100
2023.145	1.778	1777.7	generate	Run3	generate/STIM_011.jpg	100
2028.535	1.669	1668.6	generate	Run3	generate/STIM_011.jpg	99
2032.349	1.783	1782.9	generate	Run3	generate/STIM_011.jpg	99
2037.389	1.824	1824.1	generate	Run3	generate/STIM_012.jpg	100
2041.294	1.644	1644.0	generate	Run3	generate/STIM_012.jpg	100
2045.487	1.763	1762.9	generate	Run3	generate/STIM_012.jpg	99
2049.954	1.61	1610.5	generate	Run3	generate/STIM_012.jpg	99
2054.797	1.99	1990.3	generate	Run3	generate/STIM_012.jpg	99
2060.639	1.56	1559.5	generate	Run3	generate/STIM_013.jpg	100
2065.352	1.839	1838.7	generate	Run3	generate/STIM_013.jpg	100
2069.257	1.747	1747.1	generate	Run3	generate/STIM_013.jpg	99
2074.349	1.359	1358.6	generate	Run3	generate/STIM_013.jpg	99
2078.422	1.01	1009.5	generate	Run3	generate/STIM_013.jpg	100
2082.954	1.053	1052.6	generate	Run3	generate/STIM_014.jpg	99
2087.089	1.434	1433.9	generate	Run3	generate/STIM_014.jpg	99
2091.267	1.813	1813.4	generate	Run3	generate/STIM_014.jpg	99
2096.416	1.724	1723.5	generate	Run3	generate/STIM_014.jpg	99
2101.307	1.236	1235.7	generate	Run3	generate/STIM_014.jpg	99
2106.313	0.909	909.0	generate	Run3	generate/STIM_015.jpg	100
2109.656	1.814	1813.7	generate	Run3	generate/STIM_015.jpg	100
2114.197	1.476	1475.5	generate	Run3	generate/STIM_015.jpg	100
2119.251	1.519	1519.4	generate	Run3	generate/STIM_015.jpg	99
2124.342	1.299	1298.8	generate	Run3	generate/STIM_015.jpg	99
2127.965	1.68	1680.3	generate	Run3	generate/STIM_016.jpg	100
2132.708	2.023	2022.7	generate	Run3	generate/STIM_016.jpg	100
2137.896	1.197	1197.1	generate	Run3	generate/STIM_016.jpg	100
2142.367	1.437	1437.3	generate	Run3	generate/STIM_016.jpg	100
2147.809	1.955	1954.9	generate	Run3	generate/STIM_016.jpg	99
2152.405	1.06	1059.8	generate	Run3	generate/STIM_017.jpg	100
2156.346	1.063	1063.1	generate	Run3	generate/STIM_017.jpg	99
2160.193	0.866	866.4	generate	Run3	generate/STIM_017.jpg	99
2164.392	1.287	1286.8	generate	Run3	generate/STIM_017.jpg	99
2168.494	2.05	2049.9	generate	Run3	generate/STIM_017.jpg	100
2173.395	1.289	1289.1	generate	Run3	generate/STIM_018.jpg	100
2177.013	1.502	1501.5	generate	Run3	generate/STIM_018.jpg	99
2182.379	1.037	1036.8	generate	Run3	generate/STIM_018.jpg	100
2187.104	0.97	970.1	generate	Run3	generate/STIM_018.jpg	99
2191.8	1.752	1751.8	generate	Run3	generate/STIM_018.jpg	100
2197.327	1.006	1005.6	generate	Run3	generate/STIM_019.jpg	99
2202.287	1.534	1534.3	generate	Run3	generate/STIM_019.jpg	99
2206.492	1.36	1359.8	generate	Run3	generate/STIM_019.jpg	99
2211.147	1.928	1928.0	generate	Run3	generate/STIM_019.jpg	99
2215.771	1.203	1203.4	generate	Run3	generate/STIM_019.jpg	99
2220.683	1.983	1982.9	generate	Run3	generate/STIM_020.jpg	99
2226.584	1.616	1615.9	generate	Run3	generate/STIM_020.jpg	99
2232.012	1.196	1195.5	generate	Run3	generate/STIM_020.jpg	100
2236.416	0.887	887.3	generate	Run3	generate/STIM_020.jpg	99
2239.536	1.47	1470.0	generate	Run3	generate/STIM_020.jpg	99
2243.29	1.189	1188.8	generate	Run3	generate/STIM_021.jpg	99
2247.734	1.19	1190.0	generate	Run3	generate/STIM_021.jpg	100
2251.895	1.006	1006.5	generate	Run3	generate/STIM_021.jpg	99
2255.875	1.245	1245.2	generate	Run3	generate/STIM_021.jpg	99
2260.165	1.11	1109.8	generate	Run3	generate/STIM_021.jpg	99
2264.957	1.969	1969.2	generate	Run3	generate/STIM_022.jpg	99
2269.665	1.746	1745.9	generate	Run3	generate/STIM_022.jpg	100
2274.488	1.507	1507.2	generate	Run3	generate/STIM_022.jpg	99
2278.537	1.411	1411.3	generate	Run3	generate/STIM_022.jpg	100
2282.291	1.759	1759.0	generate	Run3	generate/STIM_022.jpg	100
2287.707	1.063	1062.7	generate	Run3	generate/STIM_023.jpg	100
2291.295	1.742	1742.2	generate	Run3	generate/STIM_023.jpg	99
2296.43	1.801	1801.1	generate	Run3	generate/STIM_023.jpg	100
2300.475	1.811	1810.7	generate	Run3	generate/STIM_023.jpg	100
2305.526	1.56	1559.7	generate	Run3	generate/STIM_023.jpg	99
2310.177	1.77	1770.5	generate	Run3	generate/STIM_024.jpg	99
2315.646	1.621	1621.2	generate	Run3	generate/STIM_024.jpg	99
2320.647	1.288	1288.1	generate	Run3	generate/STIM_024.jpg	100
2324.663	1.865	1864.9	generate	Run3	generate/STIM_024.jpg	99
2329.548	1.013	1013.1	generate	Run3	generate/STIM_024.jpg	100
2332.924	0.741	740.6	repeat	Run3	repeat/STIM_000.jpg	99
2336.922	0.505	505.4	repeat	Run3	repeat/STIM_000.jpg	99
2340.023	0.664	664.4	repeat	Run3	repeat/STIM_000.jpg	100
2343.057	0.496	496.5	repeat	Run3	repeat/STIM_000.jpg	99
2345.682	0.809	809.2	repeat	Run3	repeat/STIM_000.jpg	100
2349.083	0.769	769.1	repeat	Run3	repeat/STIM_001.jpg	99
2352.227	0.539	539.0	repeat	Run3	repeat/STIM_001.jpg	99
2355.142	0.772	771.5	repeat	Run3	repeat/STIM_001.jpg	100
2358.88	0.494	494.5	repeat	Run3	repeat/STIM_001.jpg	99
2362.386	0.861	860.6	repeat	Run3	repeat/STIM_001.jpg	100
2366.46	0.495	495.1	repeat	Run3	repeat/STIM_002.jpg	99
2369.53	0.932	932.2	repeat	Run3	repeat/STIM_002.jpg	99
2373.313	0.771	770.9	repeat	Run3	repeat/STIM_002.jpg	99
2377.169	0.7	700.4	repeat	Run3	repeat/STIM_002.jpg	100
2381.222	0.773	773.4	repeat	Run3	repeat/STIM_002.jpg	99
2385.767	0.684	684.3	repeat	Run3	repeat/STIM_003.jpg	99
2389.18	0.946	945.8	repeat	Run3	repeat/STIM_003.jpg	100
2393.51	0.563	563.2	repeat	Run3	repeat/STIM_003.jpg	99
2397.756	0.965	965.4	repeat	Run3	repeat/STIM_003.jpg	100
2402.721	0.891	891.3	repeat	Run3	repeat/STIM_003.jpg	100
2406.847	0.843	843.4	repeat	Run3	repeat/STIM_004.jpg	100
2410.269	0.952	951.8	repeat	Run3	repeat/STIM_004.jpg	100
2414.769	0.848	847.5	repeat	Run3	repeat/STIM_004.jpg	99
2417.748	0.67	670.3	repeat	Run3	repeat/STIM_004.jpg	99
2420.826	0.714	713.8	repeat	Run3	repeat/STIM_004.jpg	100
2424.596	0.886	885.5	repeat	Run3	repeat/STIM_005.jpg	99
2428.692	0.571	570.8	repeat	Run3	repeat/STIM_005.jpg	99
2432.638	0.868	868.4	repeat	Run3	repeat/STIM_005.jpg	100
2437.013	0.939	939.3	repeat	Run3	repeat/STIM_005.jpg	100
2441.428	0.7	699.6	repeat	Run3	repeat/STIM_005.jpg	99
2444.974	0.708	708.2	repeat	Run3	repeat/STIM_006.jpg	99
2448.268	0.526	525.6	repeat	Run3	repeat/STIM_006.jpg	99
2451.888	0.766	766.1	repeat	Run3	repeat/STIM_006.jpg	99
2454.719	0.766	765.7	repeat	Run3	repeat/STIM_006.jpg	100
2458.457	0.879	878.8	repeat	Run3	repeat/STIM_006.jpg	99
2462.049	0.596	595.5	repeat	Run3	repeat/STIM_007.jpg	99
2465.956	0.815	815.3	repeat	Run3	repeat/STIM_007.jpg	99
2470.604	0.85	850.2	repeat	Run3	repeat/STIM_007.jpg	99
2475.3	0.919	918.9	repeat	Run3	repeat/STIM_007.jpg	99
2480.006	0.742	742.1	repeat	Run3	repeat/STIM_007.jpg	99
2484.238	0.833	832.6	repeat	Run3	repeat/STIM_008.jpg	99
2488.322	0.5	500.4	repeat	Run3	repeat/STIM_008.jpg	99
2491.525	0.807	806.6	repeat	Run3	repeat/STIM_008.jpg	99
2494.694	0.858	857.5	repeat	Run3	repeat/STIM_008.jpg	100
2499.462	0.564	564.0	repeat	Run3	repeat/STIM_008.jpg	99
2503.472	0.633	633.1	repeat	Run3	repeat/STIM_009.jpg	99
2507.526	0.632	632.4	repeat	Run3	repeat/STIM_009.jpg	99
2511.527	0.556	556.4	repeat	Run3	repeat/STIM_009.jpg	100
2515.337	0.858	857.5	repeat	Run3	repeat/STIM_009.jpg	100
2518.684	0.788	787.5	repeat	Run3	repeat/STIM_009.jpg	100
2522.607	0.638	637.9	repeat	Run3	repeat/STIM_010.jpg	99
2526.22	0.837	836.7	repeat	Run3	repeat/STIM_010.jpg	99
2530.975	0.876	876.0	repeat	Run3	repeat/STIM_010.jpg	99
2535.726	0.934	933.9	repeat	Run3	repeat/STIM_010.jpg	99
2539.428	0.721	721.4	repeat	Run3	repeat/STIM_010.jpg	100
2543.686	0.708	708.0	repeat	Run3	repeat/STIM_011.jpg	99
2548.39	0.54	539.8	repeat	Run3	repeat/STIM_011.jpg	99
2552.282	0.526	526.5	repeat	Run3	repeat/STIM_011.jpg	100
2555.067	0.655	655.2	repeat	Run3	repeat/STIM_011.jpg	99
2558.893	0.687	686.9	repeat	Run3	repeat/STIM_011.jpg	100
2562.333	0.918	917.6	repeat	Run3	repeat/STIM_012.jpg	100
2566.961	0.862	862.4	repeat	Run3	repeat/STIM_012.jpg	99
2571.206	0.898	897.6	repeat	Run3	repeat/STIM_012.jpg	99
2575.661	0.56	559.5	repeat	Run3	repeat/STIM_012.jpg	100
2578.907	0.83	829.5	repeat	Run3	repeat/STIM_012.jpg	100
2582.467	0.871	870.9	repeat	Run3	repeat/STIM_013.jpg	99
2585.376	0.651	651.3	repeat	Run3	repeat/STIM_013.jpg	99
2588.485	0.905	904.7	repeat	Run3	repeat/STIM_013.jpg	100
2592.736	0.618	617.7	repeat	Run3	repeat/STIM_013.jpg	100
2595.924	0.705	705.2	repeat	Run3	repeat/STIM_013.jpg	99
2598.805	0.656	655.6	repeat	Run3	repeat/STIM_014.jpg	100
2601.976	0.522	522.3	repeat	Run3	repeat/STIM_014.jpg	100
2604.804	0.969	969.1	repeat	Run3	repeat/STIM_014.jpg	100
2608.979	0.714	713.6	repeat	Run3	repeat/STIM_014.jpg	99
2613.59	0.722	721.9	repeat	Run3	repeat/STIM_014.jpg	100
2616.415	1.164	1163.9	generate	Run4	generate/STIM_000.jpg	100
2621.349	2.044	2043.8	generate	Run4	generate/STIM_000.jpg	99
2627.101	1.688	1687.6	generate	Run4	generate/STIM_000.jpg	99
2630.931	1.434	1433.8	generate	Run4	generate/STIM_000.jpg	100
2636.052	1.482	1481.7	generate	Run4	generate/STIM_000.jpg	99
2640.791	1.981	1980.9	generate	Run4	generate/STIM_001.jpg	100
2645.738	0.864	864.5	generate	Run4	generate/STIM_001.jpg	99
2650.563	1.208	1207.8	generate	Run4	generate/STIM_001.jpg	99
2654.334	1.611	1610.8	generate	Run4	generate/STIM_001.jpg	99
2659.785	2.053	2053.3	generate	Run4	generate/STIM_001.jpg	99
2664.823	1.548	1548.3	generate	Run4	generate/STIM_002.jpg	100
2669.626	1.477	1477.2	generate	Run4	generate/STIM_002.jpg	99
2675.021	1.541	1541.1	generate	Run4	generate/STIM_002.jpg	99
2679.483	1.151	1151.3	generate	Run4	generate/STIM_002.jpg	99
2683.189	1.051	1051.1	generate	Run4	generate/STIM_002.jpg	100
2687.248	1.001	1000.8	generate	Run4	generate/STIM_003.jpg	99
2691.436	1.081	1080.6	generate	Run4	generate/STIM_003.jpg	99
2695.277	1.094	1093.5	generate	Run4	generate/STIM_003.jpg	99
2700.146	2.046	2046.0	generate	Run4	generate/STIM_003.jpg	99
2706.22	1.871	1871.0	generate	Run4	generate/STIM_003.jpg	100
2710.479	1.021	1021.4	generate	Run4	generate/STIM_004.jpg	100
2714.633	0.84	840.5	generate	Run4	generate/STIM_004.jpg	99
2719.408	1.757	1757.4	generate	Run4	generate/STIM_004.jpg	99
2723.336	1.395	1395.2	generate	Run4	generate/STIM_004.jpg	99
2728.405	1.668	1667.7	generate	Run4	generate/STIM_004.jpg	99
2732.321	0.927	927.1	generate	Run4	generate/STIM_005.jpg	99
2736.633	1.912	1911.6	generate	Run4	generate/STIM_005.jpg	99
2741.181	1.989	1989.3	generate	Run4	generate/STIM_005.jpg	100
2746.838	1.36	1360.4	generate	Run4	generate/STIM_005.jpg	99
2750.326	1.053	1052.8	generate	Run4	generate/STIM_005.jpg	99
2754.965	0.865	864.9	generate	Run4	generate/STIM_006.jpg	99
2759.775	0.95	949.9	generate	Run4	generate/STIM_006.jpg	99
2763.19	1.912	1911.6	generate	Run4	generate/STIM_006.jpg	100
2768.108	1.048	1047.6	generate	Run4	generate/STIM_006.jpg	99
2771.337	1.299	1298.6	generate	Run4	generate/STIM_006.jpg	99
2774.698	1.567	1567.0	generate	Run4	generate/STIM_007.jpg	99
2779.006	1.287	1287.1	generate	Run4	generate/STIM_007.jpg	100
2783.574	0.978	978.2	generate	Run4	generate/STIM_007.jpg	99
2787.411	2.004	2004.2	generate	Run4	generate/STIM_007.jpg	99
2792.536	1.821	1821.0	generate	Run4	generate/STIM_007.jpg	100
2796.831	0.924	924.4	generate	Run4	generate/STIM_008.jpg	100
2801.577	1.763	1763.2	generate	Run4	generate/STIM_008.jpg	99
2805.974	1.872	1872.4	generate	Run4	generate/STIM_008.jpg	100
2811.07	1.633	1632.9	generate	Run4	generate/STIM_008.jpg	99
2816.169	1.58	1579.7	generate	Run4	generate/STIM_008.jpg	99
2820.835	0.955	954.9	generate	Run4	generate/STIM_009.jpg	100
2825.201	1.534	1534.0	generate	Run4	generate/STIM_009.jpg	99
2830.64	1.723	1723.1	generate	Run4	generate/STIM_009.jpg	99
2835.463	1.799	1799.1	generate	Run4	generate/STIM_009.jpg	100
2841.141	1.592	1591.6	generate	Run4	generate/STIM_009.jpg	99
2844.845	0.969	968.7	generate	Run4	generate/STIM_010.jpg	99
2848.394	0.873	873.1	generate	Run4	generate/STIM_010.jpg	99
2853.148	1.723	1722.7	generate	Run4	generate/STIM_010.jpg	100
2858.516	1.275	1275.1	generate	Run4	generate/STIM_010.jpg	100
2862.745	1.595	1595.3	generate	Run4	generate/STIM_010.jpg	100
2867.482	1.245	1245.1	generate	Run4	generate/STIM_011.jpg	100
2872.456	1.837	1837.4	generate	Run4	generate/STIM_011.jpg	100
2877.487	1.965	1965.0	generate	Run4	generate/STIM_011.jpg	100
2883.41	1.472	1472.1	generate	Run4	generate/STIM_011.jpg	100
2886.92	2.002	2002.0	generate	Run4	generate/STIM_011.jpg	100
2890.965	1.92	1920.2	generate	Run4	generate/STIM_012.jpg	100
2896.423	2.064	2064.3	generate	Run4	generate/STIM_012.jpg	100
2901.657	1.866	1865.5	generate	Run4	generate/STIM_012.jpg	99
2906.937	0.88	879.7	generate	Run4	generate/STIM_012.jpg	100
2911.065	1.044	1044.3	generate	Run4	generate/STIM_012.jpg	99
2915.11	1.237	1237.3	generate	Run4	generate/STIM_013.jpg	99
2918.783	1.52	1520.0	generate	Run4	generate/STIM_013.jpg	100
2923.492	0.938	937.8	generate	Run4	generate/STIM_013.jpg	100
2926.882	1.182	1181.8	generate	Run4	generate/STIM_013.jpg	99
2930.951	1.29	1289.6	generate	Run4	generate/STIM_013.jpg	99
2935.893	1.789	1789.4	generate	Run4	generate/STIM_014.jpg	99
2940.052	1.411	1411.4	generate	Run4	generate/STIM_014.jpg	100
2944.039	1.898	1898.0	generate	Run4	generate/STIM_014.jpg	100
2948.33	0.924	924.4	generate	Run4	generate/STIM_014.jpg	100
2951.327	1.065	1065.4	generate	Run4	generate/STIM_014.jpg	100
2955.421	0.914	914.4	generate	Run4	generate/STIM_015.jpg	99
2960.257	2.056	2056.0	generate	Run4	generate/STIM_015.jpg	100
2964.369	1.775	1774.9	generate	Run4	generate/STIM_015.jpg	99
2970.129	1.463	1463.0	generate	Run4	generate/STIM_015.jpg	100
2973.902	0.962	962.4	generate	Run4	generate/STIM_015.jpg	100
2977.618	1.399	1399.4	generate	Run4	generate/STIM_016.jpg	99
2981.161	1.121	1120.9	generate	Run4	generate/STIM_016.jpg	100
2985.123	1.698	1697.8	generate	Run4	generate/STIM_016.jpg	99
2990.69	1.257	1256.9	generate	Run4	generate/STIM_016.jpg	99
2994.04	0.86	860.0	generate	Run4	generate/STIM_016.jpg	99
2997.374	1.819	1819.0	generate	Run4	generate/STIM_017.jpg	100
3002.824	1.4	1400.3	generate	Run4	generate/STIM_017.jpg	100
3006.417	1.326	1326.2	generate	Run4	generate/STIM_017.jpg	99
3010.322	1.598	1598.2	generate	Run4	generate/STIM_017.jpg	100
3015.288	1.522	1521.5	generate	Run4	generate/STIM_017.jpg	99
3020.51	2.0	1999.9	generate	Run4	generate/STIM_018.jpg	100
3025.949	0.883	882.9	generate	Run4	generate/STIM_018.jpg	100
3029.577	1.32	1320.5	generate	Run4	generate/STIM_018.jpg	100
3034.849	1.122	1122.4	generate	Run4	generate/STIM_018.jpg	100
3039.001	1.913	1912.8	generate	Run4	generate/STIM_018.jpg	100
3043.975	1.618	1617.8	generate	Run4	generate/STIM_019.jpg	100
3049.077	1.762	1762.2	generate	Run4	generate/STIM_019.jpg	100
3054.668	0.885	884.6	generate	Run4	generate/STIM_019.jpg	100
3059.517	1.189	1188.9	generate	Run4	generate/STIM_019.jpg	100
3063.863	1.353	1352.9	generate	Run4	generate/STIM_019.jpg	100
3067.425	1.921	1921.2	generate	Run4	generate/STIM_020.jpg	99
3072.544	0.905	905.3	generate	Run4	generate/STIM_020.jpg	100
3075.764	1.653	1653.1	generate	Run4	generate/STIM_020.jpg	100
3081.311	0.965	964.9	generate	Run4	generate/STIM_020.jpg	99
3085.659	1.572	1572.2	generate	Run4	generate/STIM_020.jpg	99
3091.248	1.471	1470.7	generate	Run4	generate/STIM_021.jpg	100
3096.646	1.946	1946.4	generate	Run4	generate/STIM_021.jpg	99
3101.527	1.857	1856.7	generate	Run4	generate/STIM_021.jpg	100
3105.968	1.046	1046.1	generate	Run4	generate/STIM_021.jpg	99
3109.226	1.163	1163.0	generate	Run4	generate/STIM_021.jpg	100
3113.043	1.412	1412.4	generate	Run4	generate/STIM_022.jpg	100
3117.129	2.068	2068.3	generate	Run4	generate/STIM_022.jpg	100
3121.619	0.884	884.1	generate	Run4	generate/STIM_022.jpg	100
3126.07	1.83	1829.7	generate	Run4	generate/STIM_022.jpg	99
3130.589	1.284	1284.4	generate	Run4	generate/STIM_022.jpg	100
3135.173	0.888	888.1	generate	Run4	generate/STIM_023.jpg	100
3139.259	1.307	1307.0	generate	Run4	generate/STIM_023.jpg	100
3142.681	1.922	1921.9	generate	Run4	generate/STIM_023.jpg	100
3147.389	1.762	1761.7	generate	Run4	generate/STIM_023.jpg	99
3152.19	1.644	1643.7	generate	Run4	generate/STIM_023.jpg	99
3157.607	1.518	1518.5	generate	Run4	generate/STIM_024.jpg	99
3162.871	1.841	1841.0	generate	Run4	generate/STIM_024.jpg	100
3167.092	1.336	1336.3	generate	Run4	generate/STIM_024.jpg	100
3171.107	0.879	878.6	generate	Run4	generate/STIM_024.jpg	99
3174.264	1.318	1318.3	generate	Run4	generate/STIM_024.jpg	100
3179.357	0.64	639.8	repeat	Run4	repeat/STIM_000.jpg	99
3182.53	0.664	663.5	repeat	Run4	repeat/STIM_000.jpg	99
3185.948	0.945	944.7	repeat	Run4	repeat/STIM_000.jpg	99
3189.272	0.789	788.6	repeat	Run4	repeat/STIM_000.jpg	99
3192.992	0.57	569.5	repeat	Run4	repeat/STIM_000.jpg	99
3196.481	0.92	919.9	repeat	Run4	repeat/STIM_001.jpg	100
3199.83	0.611	611.4	repeat	Run4	repeat/STIM_001.jpg	99
3204.169	0.676	676.5	repeat	Run4	repeat/STIM_001.jpg	100
3207.57	0.568	568.3	repeat	Run4	repeat/STIM_001.jpg	99
3212.09	0.868	867.5	repeat	Run4	repeat/STIM_001.jpg	100
3215.444	0.742	742.5	repeat	Run4	repeat/STIM_002.jpg	100
3219.277	0.582	582.4	repeat	Run4	repeat/STIM_002.jpg	99
3222.73	0.546	545.7	repeat	Run4	repeat/STIM_002.jpg	100
3226.477	0.547	547.1	repeat	Run4	repeat/STIM_002.jpg	100
3230.448	0.559	558.9	repeat	Run4	repeat/STIM_002.jpg	99
3234.942	0.726	726.5	repeat	Run4	repeat/STIM_003.jpg	100
3239.461	0.966	965.8	repeat	Run4	repeat/STIM_003.jpg	99
3244.272	0.907	906.9	repeat	Run4	repeat/STIM_003.jpg	100
3247.97	0.603	603.4	repeat	Run4	repeat/STIM_003.jpg	99
3250.992	0.958	957.6	repeat	Run4	repeat/STIM_003.jpg	100
3255.353	0.797	797.4	repeat	Run4	repeat/STIM_004.jpg	99
3258.361	0.821	821.1	repeat	Run4	repeat/STIM_004.jpg	100
3261.847	0.675	675.3	repeat	Run4	repeat/STIM_004.jpg	100
3266.017	0.891	891.0	repeat	Run4	repeat/STIM_004.jpg	100
3270.649	0.607	606.7	repeat	Run4	repeat/STIM_004.jpg	100
3273.438	0.551	551.4	repeat	Run4	repeat/STIM_005.jpg	100
3276.627	0.873	873.3	repeat	Run4	repeat/STIM_005.jpg	99
3279.843	0.914	914.4	repeat	Run4	repeat/STIM_005.jpg	100
3283.363	0.898	897.9	repeat	Run4	repeat/STIM_005.jpg	100
3287.686	0.705	705.1	repeat	Run4	repeat/STIM_005.jpg	99
3291.17	0.732	731.8	repeat	Run4	repeat/STIM_006.jpg	100
3295.259	0.978	977.7	repeat	Run4	repeat/STIM_006.jpg	99
3299.415	0.856	855.5	repeat	Run4	repeat/STIM_006.jpg	99
3303.916	0.921	920.9	repeat	Run4	repeat/STIM_006.jpg	99
3308.518	0.85	849.6	repeat	Run4	repeat/STIM_006.jpg	100
3311.963	0.626	626.3	repeat	Run4	repeat/STIM_007.jpg	100
3315.218	0.594	593.5	repeat	Run4	repeat/STIM_007.jpg	99
3319.084	0.955	955.1	repeat	Run4	repeat/STIM_007.jpg	100
3322.886	0.661	661.0	repeat	Run4	repeat/STIM_007.jpg	99
3327.128	0.89	889.6	repeat	Run4	repeat/STIM_007.jpg	99
3330.78	0.606	606.2	repeat	Run4	repeat/STIM_008.jpg	100
3333.613	0.596	596.5	repeat	Run4	repeat/STIM_008.jpg	99
3337.355	0.767	767.1	repeat	Run4	repeat/STIM_008.jpg	99
3340.428	0.681	681.1	repeat	Run4	repeat/STIM_008.jpg	99
3343.874	0.73	729.6	repeat	Run4	repeat/STIM_008.jpg	100
3347.619	0.769	768.7	repeat	Run4	repeat/STIM_009.jpg	100
3352.256	0.598	597.9	repeat	Run4	repeat/STIM_009.jpg	99
3355.675	0.804	804.2	repeat	Run4	repeat/STIM_009.jpg	99
3358.63	0.58	579.6	repeat	Run4	repeat/STIM_009.jpg	99
3361.963	0.507	507.2	repeat	Run4	repeat/STIM_009.jpg	100
3365.36	0.795	795.4	repeat	Run4	repeat/STIM_010.jpg	100
3368.445	0.776	775.6	repeat	Run4	repeat/STIM_010.jpg	99
3372.441	0.72	719.9	repeat	Run4	repeat/STIM_010.jpg	99
3376.767	0.744	743.5	repeat	Run4	repeat/STIM_010.jpg	99
3380.946	0.608	608.1	repeat	Run4	repeat/STIM_010.jpg	100
3384.58	0.86	859.5	repeat	Run4	repeat/STIM_011.jpg	99
3387.781	0.867	867.2	repeat	Run4	repeat/STIM_011.jpg	99
3390.996	0.796	795.8	repeat	Run4	repeat/STIM_011.jpg	100
3395.66	0.857	856.6	repeat	Run4	repeat/STIM_011.jpg	100
3399.947	0.869	868.8	repeat	Run4	repeat/STIM_011.jpg	99
3404.652	0.808	808.3	repeat	Run4	repeat/STIM_012.jpg	100
3407.824	0.643	643.4	repeat	Run4	repeat/STIM_012.jpg	99
3411.455	0.977	976.9	repeat	Run4	repeat/STIM_012.jpg	100
3414.706	0.763	762.8	repeat	Run4	repeat/STIM_012.jpg	99
3417.496	0.794	794.0	repeat	Run4	repeat/STIM_012.jpg	100
3420.641	0.861	860.7	repeat	Run4	repeat/STIM_013.jpg	100
3424.998	0.622	621.8	repeat	Run4	repeat/STIM_013.jpg	100
3427.941	0.946	945.6	repeat	Run4	repeat/STIM_013.jpg	99
3431.807	0.677	676.9	repeat	Run4	repeat/STIM_013.jpg	99
3436.055	0.829	828.7	repeat	Run4	repeat/STIM_013.jpg	100
3439.644	0.55	550.0	repeat	Run4	repeat/STIM_014.jpg	100
3442.806	0.87	870.3	repeat	Run4	repeat/STIM_014.jpg	100
3447.081	0.76	760.3	repeat	Run4	repeat/STIM_014.jpg	100
3450.854	0.697	697.1	repeat	Run4	repeat/STIM_014.jpg	100
3454.503	0.495	495.0	repeat	Run4	repeat/STIM_014.jpg	100
