onset	duration	accuracy	trial_type	learning_stage	stimulus
0.0	1.966	correct	generate	Run1	generate/STIM_000.jpg
5.373	1.9	incorrect	generate	Run1	generate/STIM_000.jpg
10.188	1.461	correct	generate	Run1	generate/STIM_000.jpg
14.937	1.458	correct	generate	Run1	generate/STIM_000.jpg
19.601	1.421	incorrect	generate	Run1	generate/STIM_000.jpg
23.761	2.079	correct	generate	Run1	generate/STIM_001.jpg
27.844	1.604	correct	generate	Run1	generate/STIM_001.jpg
33.024	2.019	correct	generate	Run1	generate/STIM_001.jpg
39.008	1.672	correct	generate	Run1	generate/STIM_001.jpg
43.993	1.451	correct	generate	Run1	generate/STIM_001.jpg
48.098	1.376	correct	generate	Run1	generate/STIM_002.jpg
53.003	2.152	correct	generate	Run1	generate/STIM_002.jpg
58.709	2.343	correct	generate	Run1	generate/STIM_002.jpg
64.941	0.921	correct	generate	Run1	generate/STIM_002.jpg
68.963	1.824	correct	generate	Run1	generate/STIM_002.jpg
73.743	1.396	correct	generate	Run1	generate/STIM_003.jpg
78.275	1.293	correct	generate	Run1	generate/STIM_003.jpg
82.274	1.369	correct	generate	Run1	generate/STIM_003.jpg
87.347	1.934	correct	generate	Run1	generate/STIM_003.jpg
93.059	1.399	incorrect	generate	Run1	generate/STIM_003.jpg
97.985	2.593	incorrect	generate	Run1	generate/STIM_004.jpg
103.871	1.851	correct	generate	Run1	generate/STIM_004.jpg
108.469	1.438	correct	generate	Run1	generate/STIM_004.jpg
112.59	1.179	correct	generate	Run1	generate/STIM_004.jpg
116.927	1.309	correct	generate	Run1	generate/STIM_004.jpg
121.577	1.074	incorrect	generate	Run1	generate/STIM_005.jpg
124.832	1.552	correct	generate	Run1	generate/STIM_005.jpg
128.957	2.147	correct	generate	Run1	generate/STIM_005.jpg
134.456	2.229	correct	generate	Run1	generate/STIM_005.jpg
139.574	1.388	correct	generate	Run1	generate/STIM_005.jpg
144.12	1.202	correct	generate	Run1	generate/STIM_006.jpg
148.558	1.281	incorrect	generate	Run1	generate/STIM_006.jpg
152.766	1.712	incorrect	generate	Run1	generate/STIM_006.jpg
157.651	0.903	correct	generate	Run1	generate/STIM_006.jpg
162.52	1.117	correct	generate	Run1	generate/STIM_006.jpg
166.682	2.6	incorrect	generate	Run1	generate/STIM_007.jpg
171.716	1.9	correct	generate	Run1	generate/STIM_007.jpg
176.873	1.99	correct	generate	Run1	generate/STIM_007.jpg
182.544	1.138	correct	generate	Run1	generate/STIM_007.jpg
186.859	1.148	incorrect	generate	Run1	generate/STIM_007.jpg
191.842	1.922	correct	generate	Run1	generate/STIM_008.jpg
197.462	1.431	correct	generate	Run1	generate/STIM_008.jpg
201.725	1.239	incorrect	generate	Run1	generate/STIM_008.jpg
205.73	1.725	correct	generate	Run1	generate/STIM_008.jpg
210.614	1.09	correct	generate	Run1	generate/STIM_008.jpg
213.967	1.55	correct	generate	Run1	generate/STIM_009.jpg
218.569	1.13	correct	generate	Run1	generate/STIM_009.jpg
223.479	1.098	correct	generate	Run1	generate/STIM_009.jpg
226.743	1.462	incorrect	generate	Run1	generate/STIM_009.jpg
230.309	2.026	incorrect	generate	Run1	generate/STIM_009.jpg
234.67	2.365	correct	generate	Run1	generate/STIM_010.jpg
239.31	2.511	correct	generate	Run1	generate/STIM_010.jpg
244.867	1.769	incorrect	generate	Run1	generate/STIM_010.jpg
248.76	1.238	correct	generate	Run1	generate/STIM_010.jpg
252.435	1.107	correct	generate	Run1	generate/STIM_010.jpg
256.063	1.852	incorrect	generate	Run1	generate/STIM_011.jpg
261.582	1.958	incorrect	generate	Run1	generate/STIM_011.jpg
265.709	1.123	correct	generate	Run1	generate/STIM_011.jpg
270.493	1.531	correct	generate	Run1	generate/STIM_011.jpg
275.711	1.118	correct	generate	Run1	generate/STIM_011.jpg
278.852	2.294	correct	generate	Run1	generate/STIM_012.jpg
284.288	2.035	correct	generate	Run1	generate/STIM_012.jpg
289.417	1.859	correct	generate	Run1	generate/STIM_012.jpg
293.528	1.278	correct	generate	Run1	generate/STIM_012.jpg
297.945	1.411	incorrect	generate	Run1	generate/STIM_012.jpg
302.305	1.223	incorrect	generate	Run1	generate/STIM_013.jpg
305.59	2.426	incorrect	generate	Run1	generate/STIM_013.jpg
310.372	1.884	correct	generate	Run1	generate/STIM_013.jpg
315.555	1.458	correct	generate	Run1	generate/STIM_013.jpg
319.239	2.034	incorrect	generate	Run1	generate/STIM_013.jpg
324.723	1.966	correct	generate	Run1	generate/STIM_014.jpg
329.643	2.262	incorrect	generate	Run1	generate/STIM_014.jpg
335.663	2.039	correct	generate	Run1	generate/STIM_014.jpg
339.717	1.211	correct	generate	Run1	generate/STIM_014.jpg
344.206	1.225	correct	generate	Run1	generate/STIM_014.jpg
349.427	2.11	incorrect	generate	Run1	generate/STIM_015.jpg
354.97	1.044	correct	generate	Run1	generate/STIM_015.jpg
358.948	1.235	correct	generate	Run1	generate/STIM_015.jpg
363.694	1.673	correct	generate	Run1	generate/STIM_015.jpg
367.874	1.351	correct	generate	Run1	generate/STIM_015.jpg
372.536	2.377	incorrect	generate	Run1	generate/STIM_016.jpg
378.056	1.576	correct	generate	Run1	generate/STIM_016.jpg
381.861	1.062	correct	generate	Run1	generate/STIM_016.jpg
386.585	1.493	correct	generate	Run1	generate/STIM_016.jpg
391.1	1.818	correct	generate	Run1	generate/STIM_016.jpg
396.829	1.781	correct	generate	Run1	generate/STIM_017.jpg
401.847	1.263	correct	generate	Run1	generate/STIM_017.jpg
405.332	1.33	correct	generate	Run1	generate/STIM_017.jpg
409.179	1.451	correct	generate	Run1	generate/STIM_017.jpg
412.918	1.216	incorrect	generate	Run1	generate/STIM_017.jpg
416.925	1.863	correct	generate	Run1	generate/STIM_018.jpg
420.944	2.296	incorrect	generate	Run1	generate/STIM_018.jpg
425.286	0.995	correct	generate	Run1	generate/STIM_018.jpg
428.794	1.669	correct	generate	Run1	generate/STIM_018.jpg
434.04	1.293	correct	generate	Run1	generate/STIM_018.jpg
438.442	2.161	correct	generate	Run1	generate/STIM_019.jpg
444.06	2.457	incorrect	generate	Run1	generate/STIM_019.jpg
448.705	1.725	correct	generate	Run1	generate/STIM_019.jpg
453.598	1.133	correct	generate	Run1	generate/STIM_019.jpg
456.952	1.126	correct	generate	Run1	generate/STIM_019.jpg
461.421	1.512	correct	generate	Run1	generate/STIM_020.jpg
465.161	2.158	correct	generate	Run1	generate/STIM_020.jpg
469.511	1.329	correct	generate	Run1	generate/STIM_020.jpg
474.268	1.748	correct	generate	Run1	generate/STIM_020.jpg
479.763	1.738	correct	generate	Run1	generate/STIM_020.jpg
484.11	1.629	correct	generate	Run1	generate/STIM_021.jpg
489.313	1.9	incorrect	generate	Run1	generate/STIM_021.jpg
494.969	1.081	incorrect	generate	Run1	generate/STIM_021.jpg
499.152	1.438	incorrect	generate	Run1	generate/STIM_021.jpg
503.971	1.13	incorrect	generate	Run1	generate/STIM_021.jpg
509.085	1.78	correct	generate	Run1	generate/STIM_022.jpg
513.533	1.969	incorrect	generate	Run1	generate/STIM_022.jpg
517.698	1.864	correct	generate	Run1	generate/STIM_022.jpg
521.716	2.08	correct	generate	Run1	generate/STIM_022.jpg
526.775	1.639	correct	generate	Run1	generate/STIM_022.jpg
531.832	2.581	correct	generate	Run1	generate/STIM_023.jpg
537.399	1.889	correct	generate	Run1	generate/STIM_023.jpg
541.661	1.821	incorrect	generate	Run1	generate/STIM_023.jpg
546.832	1.671	correct	generate	Run1	generate/STIM_023.jpg
550.557	1.235	correct	generate	Run1	generate/STIM_023.jpg
555.288	1.415	incorrect	generate	Run1	generate/STIM_024.jpg
560.048	1.355	correct	generate	Run1	generate/STIM_024.jpg
564.036	1.367	correct	generate	Run1	generate/STIM_024.jpg
568.112	1.71	incorrect	generate	Run1	generate/STIM_024.jpg
573.253	1.471	correct	generate	Run1	generate/STIM_024.jpg
577.697	0.516	correct	repeat	Run1	repeat/STIM_000.jpg
581.055	0.574	correct	repeat	Run1	repeat/STIM_000.jpg
584.643	0.502	correct	repeat	Run1	repeat/STIM_000.jpg
588.262	0.725	correct	repeat	Run1	repeat/STIM_000.jpg
591.57	0.678	correct	repeat	Run1	repeat/STIM_000.jpg
595.032	0.798	correct	repeat	Run1	repeat/STIM_001.jpg
598.188	0.715	correct	repeat	Run1	repeat/STIM_001.jpg
601.63	0.618	correct	repeat	Run1	repeat/STIM_001.jpg
605.892	0.539	correct	repeat	Run1	repeat/STIM_001.jpg
608.948	0.454	correct	repeat	Run1	repeat/STIM_001.jpg
611.952	0.754	correct	repeat	Run1	repeat/STIM_002.jpg
615.27	0.718	incorrect	repeat	Run1	repeat/STIM_002.jpg
619.288	0.545	correct	repeat	Run1	repeat/STIM_002.jpg
623.458	0.514	correct	repeat	Run1	repeat/STIM_002.jpg
627.092	0.515	correct	repeat	Run1	repeat/STIM_002.jpg
630.485	0.505	correct	repeat	Run1	repeat/STIM_003.jpg
633.727	0.784	correct	repeat	Run1	repeat/STIM_003.jpg
637.388	0.862	correct	repeat	Run1	repeat/STIM_003.jpg
641.796	0.641	incorrect	repeat	Run1	repeat/STIM_003.jpg
645.902	0.79	correct	repeat	Run1	repeat/STIM_003.jpg
649.855	0.866	correct	repeat	Run1	repeat/STIM_004.jpg
654.172	0.576	correct	repeat	Run1	repeat/STIM_004.jpg
657.987	0.518	correct	repeat	Run1	repeat/STIM_004.jpg
661.411	0.577	correct	repeat	Run1	repeat/STIM_004.jpg
665.616	0.504	correct	repeat	Run1	repeat/STIM_004.jpg
669.339	0.642	correct	repeat	Run1	repeat/STIM_005.jpg
673.469	0.646	correct	repeat	Run1	repeat/STIM_005.jpg
677.25	0.843	correct	repeat	Run1	repeat/STIM_005.jpg
680.2	0.819	correct	repeat	Run1	repeat/STIM_005.jpg
684.119	0.608	correct	repeat	Run1	repeat/STIM_005.jpg
687.086	0.636	correct	repeat	Run1	repeat/STIM_006.jpg
690.653	0.782	correct	repeat	Run1	repeat/STIM_006.jpg
693.547	0.45	correct	repeat	Run1	repeat/STIM_006.jpg
696.187	0.737	correct	repeat	Run1	repeat/STIM_006.jpg
698.942	0.738	correct	repeat	Run1	repeat/STIM_006.jpg
702.706	0.524	correct	repeat	Run1	repeat/STIM_007.jpg
706.615	0.634	correct	repeat	Run1	repeat/STIM_007.jpg
710.847	0.489	correct	repeat	Run1	repeat/STIM_007.jpg
714.885	0.484	correct	repeat	Run1	repeat/STIM_007.jpg
717.507	0.721	correct	repeat	Run1	repeat/STIM_007.jpg
721.762	0.518	correct	repeat	Run1	repeat/STIM_008.jpg
724.62	0.531	correct	repeat	Run1	repeat/STIM_008.jpg
727.749	0.806	correct	repeat	Run1	repeat/STIM_008.jpg
731.012	0.868	correct	repeat	Run1	repeat/STIM_008.jpg
734.283	0.783	correct	repeat	Run1	repeat/STIM_008.jpg
738.759	0.832	correct	repeat	Run1	repeat/STIM_009.jpg
742.921	0.711	correct	repeat	Run1	repeat/STIM_009.jpg
745.644	0.813	correct	repeat	Run1	repeat/STIM_009.jpg
749.949	0.482	correct	repeat	Run1	repeat/STIM_009.jpg
753.994	0.7	correct	repeat	Run1	repeat/STIM_009.jpg
756.893	0.692	correct	repeat	Run1	repeat/STIM_010.jpg
760.801	0.767	correct	repeat	Run1	repeat/STIM_010.jpg
765.264	0.463	correct	repeat	Run1	repeat/STIM_010.jpg
768.09	0.751	correct	repeat	Run1	repeat/STIM_010.jpg
771.027	0.828	correct	repeat	Run1	repeat/STIM_010.jpg
773.97	0.78	correct	repeat	Run1	repeat/STIM_011.jpg
777.691	0.877	correct	repeat	Run1	repeat/STIM_011.jpg
782.567	0.874	correct	repeat	Run1	repeat/STIM_011.jpg
787.168	0.455	correct	repeat	Run1	repeat/STIM_011.jpg
791.007	0.731	correct	repeat	Run1	repeat/STIM_011.jpg
795.624	0.456	correct	repeat	Run1	repeat/STIM_012.jpg
799.603	0.497	correct	repeat	Run1	repeat/STIM_012.jpg
802.829	0.543	correct	repeat	Run1	repeat/STIM_012.jpg
806.64	0.799	correct	repeat	Run1	repeat/STIM_012.jpg
810.875	0.656	correct	repeat	Run1	repeat/STIM_012.jpg
815.102	0.804	correct	repeat	Run1	repeat/STIM_013.jpg
818.92	0.61	correct	repeat	Run1	repeat/STIM_013.jpg
822.866	0.6	correct	repeat	Run1	repeat/STIM_013.jpg
826.313	0.602	correct	repeat	Run1	repeat/STIM_013.jpg
829.473	0.738	incorrect	repeat	Run1	repeat/STIM_013.jpg
834.028	0.703	correct	repeat	Run1	repeat/STIM_014.jpg
838.432	0.825	correct	repeat	Run1	repeat/STIM_014.jpg
842.784	0.876	correct	repeat	Run1	repeat/STIM_014.jpg
846.407	0.819	correct	repeat	Run1	repeat/STIM_014.jpg
849.473	0.761	correct	repeat	Run1	repeat/STIM_014.jpg
852.62	1.118	correct	generate	Run2	generate/STIM_000.jpg
856.899	0.893	correct	generate	Run2	generate/STIM_000.jpg
861.406	1.227	correct	generate	Run2	generate/STIM_000.jpg
866.095	1.251	correct	generate	Run2	generate/STIM_000.jpg
870.748	1.227	correct	generate	Run2	generate/STIM_000.jpg
875.857	1.816	correct	generate	Run2	generate/STIM_001.jpg
880.787	1.817	incorrect	generate	Run2	generate/STIM_001.jpg
884.919	1.535	correct	generate	Run2	generate/STIM_001.jpg
889.654	0.804	correct	generate	Run2	generate/STIM_001.jpg
893.543	1.107	incorrect	generate	Run2	generate/STIM_001.jpg
898.017	1.162	correct	generate	Run2	generate/STIM_002.jpg
903.019	1.461	correct	generate	Run2	generate/STIM_002.jpg
908.354	1.588	correct	generate	Run2	generate/STIM_002.jpg
912.517	1.305	correct	generate	Run2	generate/STIM_002.jpg
916.136	1.763	correct	generate	Run2	generate/STIM_002.jpg
919.977	1.436	correct	generate	Run2	generate/STIM_003.jpg
924.482	1.521	incorrect	generate	Run2	generate/STIM_003.jpg
929.636	1.049	correct	generate	Run2	generate/STIM_003.jpg
932.74	1.798	correct	generate	Run2	generate/STIM_003.jpg
937.497	0.842	correct	generate	Run2	generate/STIM_003.jpg
941.338	2.108	correct	generate	Run2	generate/STIM_004.jpg
945.747	1.141	correct	generate	Run2	generate/STIM_004.jpg
949.396	0.922	correct	generate	Run2	generate/STIM_004.jpg
954.218	1.09	correct	generate	Run2	generate/STIM_004.jpg
957.691	1.196	incorrect	generate	Run2	generate/STIM_004.jpg
962.735	1.299	incorrect	generate	Run2	generate/STIM_005.jpg
966.373	1.67	correct	generate	Run2	generate/STIM_005.jpg
970.497	1.873	correct	generate	Run2	generate/STIM_005.jpg
974.988	0.927	incorrect	generate	Run2	generate/STIM_005.jpg
978.596	1.777	incorrect	generate	Run2	generate/STIM_005.jpg
983.892	1.242	correct	generate	Run2	generate/STIM_006.jpg
988.778	1.854	incorrect	generate	Run2	generate/STIM_006.jpg
992.995	1.681	correct	generate	Run2	generate/STIM_006.jpg
998.396	1.131	correct	generate	Run2	generate/STIM_006.jpg
1003.166	1.298	correct	generate	Run2	generate/STIM_006.jpg
1006.526	1.09	correct	generate	Run2	generate/STIM_007.jpg
1011.29	1.194	correct	generate	Run2	generate/STIM_007.jpg
1015.917	1.047	correct	generate	Run2	generate/STIM_007.jpg
1020.53	1.808	correct	generate	Run2	generate/STIM_007.jpg
1024.43	1.056	correct	generate	Run2	generate/STIM_007.jpg
1028.512	1.409	incorrect	generate	Run2	generate/STIM_008.jpg
1032.126	1.645	correct	generate	Run2	generate/STIM_008.jpg
1037.371	1.675	correct	generate	Run2	generate/STIM_008.jpg
1041.695	1.577	incorrect	generate	Run2	generate/STIM_008.jpg
1046.751	1.136	correct	generate	Run2	generate/STIM_008.jpg
1051.138	1.335	correct	generate	Run2	generate/STIM_009.jpg
1055.914	1.82	incorrect	generate	Run2	generate/STIM_009.jpg
1059.856	1.61	incorrect	generate	Run2	generate/STIM_009.jpg
1064.302	1.532	correct	generate	Run2	generate/STIM_009.jpg
1067.975	1.616	correct	generate	Run2	generate/STIM_009.jpg
1072.486	1.762	correct	generate	Run2	generate/STIM_010.jpg
1077.383	0.916	correct	generate	Run2	generate/STIM_010.jpg
1082.151	1.943	correct	generate	Run2	generate/STIM_010.jpg
1087.296	1.842	correct	generate	Run2	generate/STIM_010.jpg
1092.16	0.913	correct	generate	Run2	generate/STIM_010.jpg
1096.918	1.692	incorrect	generate	Run2	generate/STIM_011.jpg
1101.799	1.402	correct	generate	Run2	generate/STIM_011.jpg
1106.333	0.939	incorrect	generate	Run2	generate/STIM_011.jpg
1111.098	1.314	correct	generate	Run2	generate/STIM_011.jpg
1114.606	1.771	correct	generate	Run2	generate/STIM_011.jpg
1119.494	1.252	correct	generate	Run2	generate/STIM_012.jpg
1124.456	1.36	correct	generate	Run2	generate/STIM_012.jpg
1129.159	1.077	correct	generate	Run2	generate/STIM_012.jpg
1132.907	0.906	correct	generate	Run2	generate/STIM_012.jpg
1137.095	1.216	correct	generate	Run2	generate/STIM_012.jpg
1140.639	1.889	correct	generate	Run2	generate/STIM_013.jpg
1145.767	2.067	correct	generate	Run2	generate/STIM_013.jpg
1151.681	1.048	correct	generate	Run2	generate/STIM_013.jpg
1156.048	1.278	correct	generate	Run2	generate/STIM_013.jpg
1159.736	1.327	correct	generate	Run2	generate/STIM_013.jpg
1164.594	1.896	correct	generate	Run2	generate/STIM_014.jpg
1168.673	1.21	correct	generate	Run2	generate/STIM_014.jpg
1173.378	1.822	correct	generate	Run2	generate/STIM_014.jpg
1177.623	1.213	correct	generate	Run2	generate/STIM_014.jpg
1181.297	1.688	correct	generate	Run2	generate/STIM_014.jpg
1185.346	1.411	correct	generate	Run2	generate/STIM_015.jpg
1189.387	0.903	incorrect	generate	Run2	generate/STIM_015.jpg
1192.458	1.734	correct	generate	Run2	generate/STIM_015.jpg
1197.286	1.4	correct	generate	Run2	generate/STIM_015.jpg
1201.158	1.643	correct	generate	Run2	generate/STIM_015.jpg
1206.451	1.514	correct	generate	Run2	generate/STIM_016.jpg
1210.796	1.791	correct	generate	Run2	generate/STIM_016.jpg
1215.501	1.069	correct	generate	Run2	generate/STIM_016.jpg
1218.92	0.803	correct	generate	Run2	generate/STIM_016.jpg
1222.731	1.315	correct	generate	Run2	generate/STIM_016.jpg
1227.124	1.042	correct	generate	Run2	generate/STIM_017.jpg
1230.611	1.094	correct	generate	Run2	generate/STIM_017.jpg
1234.313	0.814	correct	generate	Run2	generate/STIM_017.jpg
1238.006	1.732	incorrect	generate	Run2	generate/STIM_017.jpg
1241.825	1.227	correct	generate	Run2	generate/STIM_017.jpg
1246.9	2.243	correct	generate	Run2	generate/STIM_018.jpg
1252.64	0.978	incorrect	generate	Run2	generate/STIM_018.jpg
1257.353	1.759	correct	generate	Run2	generate/STIM_018.jpg
1261.647	1.166	correct	generate	Run2	generate/STIM_018.jpg
1265.476	1.084	correct	generate	Run2	generate/STIM_018.jpg
1269.406	1.42	incorrect	generate	Run2	generate/STIM_019.jpg
1273.926	1.726	correct	generate	Run2	generate/STIM_019.jpg
1279.465	1.435	correct	generate	Run2	generate/STIM_019.jpg
1283.644	1.12	correct	generate	Run2	generate/STIM_019.jpg
1288.632	1.75	correct	generate	Run2	generate/STIM_019.jpg
1293.433	1.685	correct	generate	Run2	generate/STIM_020.jpg
1298.502	1.119	incorrect	generate	Run2	generate/STIM_020.jpg
1303.202	1.792	correct	generate	Run2	generate/STIM_020.jpg
1307.272	0.907	correct	generate	Run2	generate/STIM_020.jpg
1310.796	1.01	correct	generate	Run2	generate/STIM_020.jpg
1314.232	1.15	incorrect	generate	Run2	generate/STIM_021.jpg
1318.901	1.225	correct	generate	Run2	generate/STIM_021.jpg
1323.691	1.29	incorrect	generate	Run2	generate/STIM_021.jpg
1327.091	1.727	correct	generate	Run2	generate/STIM_021.jpg
1331.126	0.818	correct	generate	Run2	generate/STIM_021.jpg
1335.236	1.586	incorrect	generate	Run2	generate/STIM_022.jpg
1340.722	1.772	incorrect	generate	Run2	generate/STIM_022.jpg
1345.549	1.577	correct	generate	Run2	generate/STIM_022.jpg
1350.496	1.112	correct	generate	Run2	generate/STIM_022.jpg
1354.472	1.01	correct	generate	Run2	generate/STIM_022.jpg
1357.723	1.798	correct	generate	Run2	generate/STIM_023.jpg
1362.67	1.931	correct	generate	Run2	generate/STIM_023.jpg
1367.168	1.834	correct	generate	Run2	generate/STIM_023.jpg
1372.96	1.68	correct	generate	Run2	generate/STIM_023.jpg
1377.306	1.688	correct	generate	Run2	generate/STIM_023.jpg
1381.277	0.988	incorrect	generate	Run2	generate/STIM_024.jpg
1384.465	2.096	correct	generate	Run2	generate/STIM_024.jpg
1390.443	1.426	correct	generate	Run2	generate/STIM_024.jpg
1395.219	1.186	correct	generate	Run2	generate/STIM_024.jpg
1398.994	1.622	correct	generate	Run2	generate/STIM_024.jpg
1403.371	0.705	correct	repeat	Run2	repeat/STIM_000.jpg
1406.43	0.752	correct	repeat	Run2	repeat/STIM_000.jpg
1410.706	0.507	correct	repeat	Run2	repeat/STIM_000.jpg
1413.899	0.818	correct	repeat	Run2	repeat/STIM_000.jpg
1417.439	0.701	correct	repeat	Run2	repeat/STIM_000.jpg
1420.18	0.454	correct	repeat	Run2	repeat/STIM_001.jpg
1423.979	0.541	correct	repeat	Run2	repeat/STIM_001.jpg
1427.129	0.586	correct	repeat	Run2	repeat/STIM_001.jpg
1431.223	0.536	correct	repeat	Run2	repeat/STIM_001.jpg
1435.118	0.571	correct	repeat	Run2	repeat/STIM_001.jpg
1439.379	0.877	correct	repeat	Run2	repeat/STIM_002.jpg
1443.135	0.585	correct	repeat	Run2	repeat/STIM_002.jpg
1447.251	0.593	correct	repeat	Run2	repeat/STIM_002.jpg
1450.614	0.822	correct	repeat	Run2	repeat/STIM_002.jpg
1453.549	0.604	correct	repeat	Run2	repeat/STIM_002.jpg
1458.032	0.469	correct	repeat	Run2	repeat/STIM_003.jpg
1460.676	0.556	correct	repeat	Run2	repeat/STIM_003.jpg
1464.868	0.853	correct	repeat	Run2	repeat/STIM_003.jpg
1468.147	0.461	correct	repeat	Run2	repeat/STIM_003.jpg
1471.56	0.601	correct	repeat	Run2	repeat/STIM_003.jpg
1475.453	0.797	correct	repeat	Run2	repeat/STIM_004.jpg
1478.555	0.612	correct	repeat	Run2	repeat/STIM_004.jpg
1481.663	0.852	incorrect	repeat	Run2	repeat/STIM_004.jpg
1486.149	0.868	correct	repeat	Run2	repeat/STIM_004.jpg
1490.792	0.828	correct	repeat	Run2	repeat/STIM_004.jpg
1495.616	0.79	correct	repeat	Run2	repeat/STIM_005.jpg
1499.516	0.848	correct	repeat	Run2	repeat/STIM_005.jpg
1502.675	0.749	correct	repeat	Run2	repeat/STIM_005.jpg
1506.483	0.566	correct	repeat	Run2	repeat/STIM_005.jpg
1510.555	0.878	correct	repeat	Run2	repeat/STIM_005.jpg
1514.639	0.632	correct	repeat	Run2	repeat/STIM_006.jpg
1517.469	0.832	correct	repeat	Run2	repeat/STIM_006.jpg
1520.404	0.807	correct	repeat	Run2	repeat/STIM_006.jpg
1523.443	0.543	correct	repeat	Run2	repeat/STIM_006.jpg
1526.125	0.791	correct	repeat	Run2	repeat/STIM_006.jpg
1530.448	0.847	correct	repeat	Run2	repeat/STIM_007.jpg
1533.373	0.815	correct	repeat	Run2	repeat/STIM_007.jpg
1536.536	0.787	correct	repeat	Run2	repeat/STIM_007.jpg
1539.615	0.74	correct	repeat	Run2	repeat/STIM_007.jpg
1543.538	0.649	incorrect	repeat	Run2	repeat/STIM_007.jpg
1548.179	0.628	correct	repeat	Run2	repeat/STIM_008.jpg
1550.949	0.856	correct	repeat	Run2	repeat/STIM_008.jpg
1554.947	0.475	correct	repeat	Run2	repeat/STIM_008.jpg
1557.55	0.774	incorrect	repeat	Run2	repeat/STIM_008.jpg
1562.249	0.863	correct	repeat	Run2	repeat/STIM_008.jpg
1566.337	0.527	correct	repeat	Run2	repeat/STIM_009.jpg
1569.18	0.803	correct	repeat	Run2	repeat/STIM_009.jpg
1572.256	0.63	incorrect	repeat	Run2	repeat/STIM_009.jpg
1576.379	0.786	correct	repeat	Run2	repeat/STIM_009.jpg
1580.494	0.798	correct	repeat	Run2	repeat/STIM_009.jpg
1584.051	0.525	correct	repeat	Run2	repeat/STIM_010.jpg
1587.584	0.639	correct	repeat	Run2	repeat/STIM_010.jpg
1591.01	0.449	correct	repeat	Run2	repeat/STIM_010.jpg
1594.903	0.867	correct	repeat	Run2	repeat/STIM_010.jpg
1598.283	0.484	correct	repeat	Run2	repeat/STIM_010.jpg
1602.078	0.72	correct	repeat	Run2	repeat/STIM_011.jpg
1604.953	0.555	correct	repeat	Run2	repeat/STIM_011.jpg
1609.24	0.796	correct	repeat	Run2	repeat/STIM_011.jpg
1612.57	0.817	correct	repeat	Run2	repeat/STIM_011.jpg
1615.498	0.448	correct	repeat	Run2	repeat/STIM_011.jpg
1618.512	0.746	correct	repeat	Run2	repeat/STIM_012.jpg
1621.449	0.842	correct	repeat	Run2	repeat/STIM_012.jpg
1624.906	0.74	correct	repeat	Run2	repeat/STIM_012.jpg
1629.404	0.497	correct	repeat	Run2	repeat/STIM_012.jpg
1632.79	0.818	correct	repeat	Run2	repeat/STIM_012.jpg
1637.552	0.534	correct	repeat	Run2	repeat/STIM_013.jpg
1642.075	0.654	correct	repeat	Run2	repeat/STIM_013.jpg
1646.616	0.73	correct	repeat	Run2	repeat/STIM_013.jpg
1650.96	0.498	correct	repeat	Run2	repeat/STIM_013.jpg
1654.562	0.847	correct	repeat	Run2	repeat/STIM_013.jpg
1659.2	0.444	correct	repeat	Run2	repeat/STIM_014.jpg
1663.409	0.71	correct	repeat	Run2	repeat/STIM_014.jpg
1666.232	0.789	correct	repeat	Run2	repeat/STIM_014.jpg
1670.494	0.792	correct	repeat	Run2	repeat/STIM_014.jpg
1674.483	0.656	correct	repeat	Run2	repeat/STIM_014.jpg
1677.918	1.49	correct	generate	Run3	generate/STIM_000.jpg
1683.005	0.998	correct	generate	Run3	generate/STIM_000.jpg
1686.545	1.07	correct	generate	Run3	generate/STIM_000.jpg
1689.744	0.819	correct	generate	Run3	generate/STIM_000.jpg
1692.89	1.14	correct	generate	Run3	generate/STIM_000.jpg
1696.086	1.266	correct	generate	Run3	generate/STIM_001.jpg
1699.58	1.216	correct	generate	Run3	generate/STIM_001.jpg
1702.917	1.207	incorrect	generate	Run3	generate/STIM_001.jpg
1707.232	1.343	correct	generate	Run3	generate/STIM_001.jpg
1712.251	0.852	correct	generate	Run3	generate/STIM_001.jpg
1715.966	1.709	correct	generate	Run3	generate/STIM_002.jpg
1720.611	1.836	correct	generate	Run3	generate/STIM_002.jpg
1725.955	1.482	correct	generate	Run3	generate/STIM_002.jpg
1730.301	1.387	correct	generate	Run3	generate/STIM_002.jpg
1734.306	0.997	correct	generate	Run3	generate/STIM_002.jpg
1738.983	0.755	correct	generate	Run3	generate/STIM_003.jpg
1742.677	1.693	incorrect	generate	Run3	generate/STIM_003.jpg
1747.637	0.766	correct	generate	Run3	generate/STIM_003.jpg
1751.36	1.671	correct	generate	Run3	generate/STIM_003.jpg
1755.624	1.644	correct	generate	Run3	generate/STIM_003.jpg
1760.477	1.391	correct	generate	Run3	generate/STIM_004.jpg
1765.363	1.31	correct	generate	Run3	generate/STIM_004.jpg
1769.219	1.761	correct	generate	Run3	generate/STIM_004.jpg
1774.866	1.445	correct	generate	Run3	generate/STIM_004.jpg
1778.341	1.692	correct	generate	Run3	generate/STIM_004.jpg
1782.333	1.538	correct	generate	Run3	generate/STIM_005.jpg
1785.974	1.475	correct	generate	Run3	generate/STIM_005.jpg
1791.409	1.112	correct	generate	Run3	generate/STIM_005.jpg
1796.272	0.814	correct	generate	Run3	generate/STIM_005.jpg
1799.776	1.206	correct	generate	Run3	generate/STIM_005.jpg
1804.324	0.781	correct	generate	Run3	generate/STIM_006.jpg
1807.345	1.243	correct	generate	Run3	generate/STIM_006.jpg
1811.59	1.531	correct	generate	Run3	generate/STIM_006.jpg
1816.877	1.065	incorrect	generate	Run3	generate/STIM_006.jpg
1820.14	1.536	correct	generate	Run3	generate/STIM_006.jpg
1824.457	1.364	correct	generate	Run3	generate/STIM_007.jpg
1829.69	0.999	incorrect	generate	Run3	generate/STIM_007.jpg
1832.955	1.632	correct	generate	Run3	generate/STIM_007.jpg
1838.576	0.997	correct	generate	Run3	generate/STIM_007.jpg
1842.403	1.57	correct	generate	Run3	generate/STIM_007.jpg
1847.369	0.952	correct	generate	Run3	generate/STIM_008.jpg
1851.371	0.775	correct	generate	Run3	generate/STIM_008.jpg
1855.519	1.256	correct	generate	Run3	generate/STIM_008.jpg
1859.811	1.296	correct	generate	Run3	generate/STIM_008.jpg
1864.105	1.441	correct	generate	Run3	generate/STIM_008.jpg
1869.377	0.946	correct	generate	Run3	generate/STIM_009.jpg
1872.577	0.778	correct	generate	Run3	generate/STIM_009.jpg
1876.451	1.01	correct	generate	Run3	generate/STIM_009.jpg
1880.875	1.36	correct	generate	Run3	generate/STIM_009.jpg
1885.212	1.842	correct	generate	Run3	generate/STIM_009.jpg
1890.951	1.282	correct	generate	Run3	generate/STIM_010.jpg
1895.128	1.642	correct	generate	Run3	generate/STIM_010.jpg
1900.394	0.935	correct	generate	Run3	generate/STIM_010.jpg
1905.128	0.977	correct	generate	Run3	generate/STIM_010.jpg
1908.855	1.152	correct	generate	Run3	generate/STIM_010.jpg
1913.355	1.822	incorrect	generate	Run3	generate/STIM_011.jpg
1918.356	1.175	correct	generate	Run3	generate/STIM_011.jpg
1923.122	1.345	correct	generate	Run3	generate/STIM_011.jpg
1927.61	1.096	correct	generate	Run3	generate/STIM_011.jpg
1930.997	1.774	correct	generate	Run3	generate/STIM_011.jpg
1935.917	1.465	correct	generate	Run3	generate/STIM_012.jpg
1940.135	1.766	incorrect	generate	Run3	generate/STIM_012.jpg
1944.23	1.475	incorrect	generate	Run3	generate/STIM_012.jpg
1948.807	1.626	correct	generate	Run3	generate/STIM_012.jpg
1953.313	1.131	correct	generate	Run3	generate/STIM_012.jpg
1958.076	0.8	correct	generate	Run3	generate/STIM_013.jpg
1962.136	1.329	correct	generate	Run3	generate/STIM_013.jpg
1966.376	0.853	correct	generate	Run3	generate/STIM_013.jpg
1970.041	1.416	correct	generate	Run3	generate/STIM_013.jpg
1975.275	0.817	incorrect	generate	Run3	generate/STIM_013.jpg
1978.6	1.76	correct	generate	Run3	generate/STIM_014.jpg
1982.513	1.094	incorrect	generate	Run3	generate/STIM_014.jpg
1986.134	1.581	correct	generate	Run3	generate/STIM_014.jpg
1990.192	1.012	correct	generate	Run3	generate/STIM_014.jpg
1993.395	1.492	correct	generate	Run3	generate/STIM_014.jpg
1997.589	1.308	correct	generate	Run3	generate/STIM_015.jpg
2001.217	1.132	correct	generate	Run3	generate/STIM_015.jpg
2005.047	1.597	correct	generate	Run3	generate/STIM_015.jpg
2008.984	1.771	incorrect	generate	Run3	generate/STIM_015.jpg
2012.812	1.777	correct	generate	Run3	generate/STIM_015.jpg
2016.724	1.709	correct	generate	Run3	generate/STIM_016.jpg
2021.784	1.81	correct	generate	Run3	generate/STIM_016.jpg
2027.506	1.266	correct	generate	Run3	generate/STIM_016.jpg
2031.053	1.83	correct	generate	Run3	generate/STIM_016.jpg
2035.559	1.259	correct	generate	Run3	generate/STIM_016.jpg
2039.832	1.122	correct	generate	Run3	generate/STIM_017.jpg
2043.51	1.481	correct	generate	Run3	generate/STIM_017.jpg
2048.636	1.636	correct	generate	Run3	generate/STIM_017.jpg
2052.621	0.97	correct	generate	Run3	generate/STIM_017.jpg
2056.496	1.306	correct	generate	Run3	generate/STIM_017.jpg
2061.605	0.904	correct	generate	Run3	generate/STIM_018.jpg
2064.771	1.43	correct	generate	Run3	generate/STIM_018.jpg
2068.637	1.109	correct	generate	Run3	generate/STIM_018.jpg
2071.815	0.941	correct	generate	Run3	generate/STIM_018.jpg
2076.336	1.451	correct	generate	Run3	generate/STIM_018.jpg
2081.141	1.814	correct	generate	Run3	generate/STIM_019.jpg
2086.939	1.412	correct	generate	Run3	generate/STIM_019.jpg
2090.682	1.661	correct	generate	Run3	generate/STIM_019.jpg
2095.663	0.998	correct	generate	Run3	generate/STIM_019.jpg
2099.423	1.27	correct	generate	Run3	generate/STIM_019.jpg
2103.317	1.064	correct	generate	Run3	generate/STIM_020.jpg
2107.147	0.842	correct	generate	Run3	generate/STIM_020.jpg
2111.679	1.14	correct	generate	Run3	generate/STIM_020.jpg
2116.623	1.643	correct	generate	Run3	generate/STIM_020.jpg
2120.554	1.763	correct	generate	Run3	generate/STIM_020.jpg
2124.573	1.385	correct	generate	Run3	generate/STIM_021.jpg
2128.158	0.86	correct	generate	Run3	generate/STIM_021.jpg
2131.203	1.478	incorrect	generate	Run3	generate/STIM_021.jpg
2135.684	1.609	correct	generate	Run3	generate/STIM_021.jpg
2139.42	1.026	correct	generate	Run3	generate/STIM_021.jpg
2143.93	1.218	correct	generate	Run3	generate/STIM_022.jpg
2148.935	1.516	correct	generate	Run3	generate/STIM_022.jpg
2153.287	0.838	correct	generate	Run3	generate/STIM_022.jpg
2156.354	1.843	correct	generate	Run3	generate/STIM_022.jpg
2162.139	1.802	correct	generate	Run3	generate/STIM_022.jpg
2166.128	0.924	correct	generate	Run3	generate/STIM_023.jpg
2170.729	0.981	correct	generate	Run3	generate/STIM_023.jpg
2174.064	1.42	correct	generate	Run3	generate/STIM_023.jpg
2179.41	1.225	correct	generate	Run3	generate/STIM_023.jpg
2182.771	1.077	correct	generate	Run3	generate/STIM_023.jpg
2186.723	0.883	correct	generate	Run3	generate/STIM_024.jpg
2190.821	0.856	correct	generate	Run3	generate/STIM_024.jpg
2195.436	1.51	correct	generate	Run3	generate/STIM_024.jpg
2200.921	1.692	correct	generate	Run3	generate/STIM_024.jpg
2206.442	1.04	correct	generate	Run3	generate/STIM_024.jpg
2211.354	0.586	correct	repeat	Run3	repeat/STIM_000.jpg
2215.179	0.825	correct	repeat	Run3	repeat/STIM_000.jpg
2219.207	0.691	correct	repeat	Run3	repeat/STIM_000.jpg
2223.307	0.447	correct	repeat	Run3	repeat/STIM_000.jpg
2226.976	0.851	correct	repeat	Run3	repeat/STIM_000.jpg
2229.862	0.849	correct	repeat	Run3	repeat/STIM_001.jpg
2234.104	0.725	correct	repeat	Run3	repeat/STIM_001.jpg
2238.567	0.466	correct	repeat	Run3	repeat/STIM_001.jpg
2242.921	0.781	correct	repeat	Run3	repeat/STIM_001.jpg
2247.665	0.807	correct	repeat	Run3	repeat/STIM_001.jpg
2251.645	0.712	correct	repeat	Run3	repeat/STIM_002.jpg
2255.836	0.776	correct	repeat	Run3	repeat/STIM_002.jpg
2258.77	0.724	correct	repeat	Run3	repeat/STIM_002.jpg
2263.387	0.52	correct	repeat	Run3	repeat/STIM_002.jpg
2267.247	0.727	correct	repeat	Run3	repeat/STIM_002.jpg
2271.057	0.51	correct	repeat	Run3	repeat/STIM_003.jpg
2274.27	0.45	correct	repeat	Run3	repeat/STIM_003.jpg
2276.915	0.733	correct	repeat	Run3	repeat/STIM_003.jpg
2280.068	0.562	correct	repeat	Run3	repeat/STIM_003.jpg
2284.535	0.571	correct	repeat	Run3	repeat/STIM_003.jpg
2288.31	0.765	correct	repeat	Run3	repeat/STIM_004.jpg
2292.837	0.594	correct	repeat	Run3	repeat/STIM_004.jpg
2297.39	0.526	correct	repeat	Run3	repeat/STIM_004.jpg
2300.278	0.56	correct	repeat	Run3	repeat/STIM_004.jpg
2302.879	0.77	correct	repeat	Run3	repeat/STIM_004.jpg
2305.817	0.866	correct	repeat	Run3	repeat/STIM_005.jpg
2308.96	0.799	correct	repeat	Run3	repeat/STIM_005.jpg
2312.756	0.6	correct	repeat	Run3	repeat/STIM_005.jpg
2315.565	0.58	correct	repeat	Run3	repeat/STIM_005.jpg
2319.657	0.718	correct	repeat	Run3	repeat/STIM_005.jpg
2323.934	0.505	correct	repeat	Run3	repeat/STIM_006.jpg
2326.932	0.52	correct	repeat	Run3	repeat/STIM_006.jpg
2330.039	0.457	correct	repeat	Run3	repeat/STIM_006.jpg
2334.031	0.765	correct	repeat	Run3	repeat/STIM_006.jpg
2338.457	0.672	correct	repeat	Run3	repeat/STIM_006.jpg
2343.026	0.81	correct	repeat	Run3	repeat/STIM_007.jpg
2346.342	0.602	correct	repeat	Run3	repeat/STIM_007.jpg
2349.525	0.55	correct	repeat	Run3	repeat/STIM_007.jpg
2352.599	0.827	correct	repeat	Run3	repeat/STIM_007.jpg
2356.798	0.469	correct	repeat	Run3	repeat/STIM_007.jpg
2359.81	0.732	correct	repeat	Run3	repeat/STIM_008.jpg
2364.035	0.464	correct	repeat	Run3	repeat/STIM_008.jpg
2366.564	0.618	correct	repeat	Run3	repeat/STIM_008.jpg
2369.588	0.747	correct	repeat	Run3	repeat/STIM_008.jpg
2372.912	0.578	correct	repeat	Run3	repeat/STIM_008.jpg
2376.492	0.554	correct	repeat	Run3	repeat/STIM_009.jpg
2379.174	0.676	correct	repeat	Run3	repeat/STIM_009.jpg
2382.917	0.775	correct	repeat	Run3	repeat/STIM_009.jpg
2387.678	0.633	correct	repeat	Run3	repeat/STIM_009.jpg
2390.493	0.791	correct	repeat	Run3	repeat/STIM_009.jpg
2393.51	0.597	correct	repeat	Run3	repeat/STIM_010.jpg
2396.514	0.863	correct	repeat	Run3	repeat/STIM_010.jpg
2401.279	0.776	correct	repeat	Run3	repeat/STIM_010.jpg
2405.687	0.618	correct	repeat	Run3	repeat/STIM_010.jpg
2409.435	0.691	correct	repeat	Run3	repeat/STIM_010.jpg
2412.654	0.699	correct	repeat	Run3	repeat/STIM_011.jpg
2415.354	0.854	correct	repeat	Run3	repeat/STIM_011.jpg
2419.617	0.646	correct	repeat	Run3	repeat/STIM_011.jpg
2423.576	0.564	correct	repeat	Run3	repeat/STIM_011.jpg
2426.828	0.512	correct	repeat	Run3	repeat/STIM_011.jpg
2430.184	0.487	correct	repeat	Run3	repeat/STIM_012.jpg
2434.027	0.451	correct	repeat	Run3	repeat/STIM_012.jpg
2437.189	0.453	correct	repeat	Run3	repeat/STIM_012.jpg
2439.889	0.679	correct	repeat	Run3	repeat/STIM_012.jpg
2443.033	0.559	correct	repeat	Run3	repeat/STIM_012.jpg
2446.803	0.642	correct	repeat	Run3	repeat/STIM_013.jpg
2450.894	0.717	correct	repeat	Run3	repeat/STIM_013.jpg
2454.461	0.694	correct	repeat	Run3	repeat/STIM_013.jpg
2458.503	0.54	correct	repeat	Run3	repeat/STIM_013.jpg
2461.651	0.827	correct	repeat	Run3	repeat/STIM_013.jpg
2465.93	0.72	correct	repeat	Run3	repeat/STIM_014.jpg
2468.752	0.691	correct	repeat	Run3	repeat/STIM_014.jpg
2473.222	0.774	correct	repeat	Run3	repeat/STIM_014.jpg
2477.401	0.58	correct	repeat	Run3	repeat/STIM_014.jpg
2481.479	0.539	correct	repeat	Run3	repeat/STIM_014.jpg
2484.624	1.354	correct	generate	Run4	generate/STIM_000.jpg
2488.128	1.106	correct	generate	Run4	generate/STIM_000.jpg
2492.529	1.289	correct	generate	Run4	generate/STIM_000.jpg
2496.328	1.028	correct	generate	Run4	generate/STIM_000.jpg
2499.984	1.331	correct	generate	Run4	generate/STIM_000.jpg
2504.721	0.975	correct	generate	Run4	generate/STIM_001.jpg
2507.723	1.285	correct	generate	Run4	generate/STIM_001.jpg
2512.805	1.221	correct	generate	Run4	generate/STIM_001.jpg
2517.418	1.377	correct	generate	Run4	generate/STIM_001.jpg
2521.427	1.492	correct	generate	Run4	generate/STIM_001.jpg
2525.353	1.292	correct	generate	Run4	generate/STIM_002.jpg
2530.39	1.153	correct	generate	Run4	generate/STIM_002.jpg
2533.684	1.325	correct	generate	Run4	generate/STIM_002.jpg
2538.781	0.748	correct	generate	Run4	generate/STIM_002.jpg
2543.08	0.904	correct	generate	Run4	generate/STIM_002.jpg
2547.158	1.273	correct	generate	Run4	generate/STIM_003.jpg
2552.346	1.031	correct	generate	Run4	generate/STIM_003.jpg
2556.973	0.864	correct	generate	Run4	generate/STIM_003.jpg
2560.157	1.802	correct	generate	Run4	generate/STIM_003.jpg
2565.149	1.508	correct	generate	Run4	generate/STIM_003.jpg
2569.278	1.272	incorrect	generate	Run4	generate/STIM_004.jpg
2574.542	1.261	correct	generate	Run4	generate/STIM_004.jpg
2578.713	0.861	correct	generate	Run4	generate/STIM_004.jpg
2582.699	1.085	correct	generate	Run4	generate/STIM_004.jpg
2587.211	1.792	correct	generate	Run4	generate/STIM_004.jpg
2592.613	0.929	correct	generate	Run4	generate/STIM_005.jpg
2595.554	1.774	correct	generate	Run4	generate/STIM_005.jpg
2600.499	1.475	correct	generate	Run4	generate/STIM_005.jpg
2605.92	1.795	correct	generate	Run4	generate/STIM_005.jpg
2611.566	0.746	correct	generate	Run4	generate/STIM_005.jpg
2616.189	0.988	correct	generate	Run4	generate/STIM_006.jpg
2620.712	1.779	correct	generate	Run4	generate/STIM_006.jpg
2625.904	1.204	correct	generate	Run4	generate/STIM_006.jpg
2630.141	1.464	correct	generate	Run4	generate/STIM_006.jpg
2635.504	1.459	correct	generate	Run4	generate/STIM_006.jpg
2639.531	0.963	correct	generate	Run4	generate/STIM_007.jpg
2644.029	1.388	correct	generate	Run4	generate/STIM_007.jpg
2648.116	1.782	correct	generate	Run4	generate/STIM_007.jpg
2653.634	0.785	correct	generate	Run4	generate/STIM_007.jpg
2657.667	0.939	correct	generate	Run4	generate/STIM_007.jpg
2662.456	1.634	correct	generate	Run4	generate/STIM_008.jpg
2666.2	0.86	correct	generate	Run4	generate/STIM_008.jpg
2670.399	1.198	correct	generate	Run4	generate/STIM_008.jpg
2673.639	0.967	correct	generate	Run4	generate/STIM_008.jpg
2676.667	0.87	correct	generate	Run4	generate/STIM_008.jpg
2679.604	1.71	correct	generate	Run4	generate/STIM_009.jpg
2685.076	0.992	correct	generate	Run4	generate/STIM_009.jpg
2688.411	1.278	correct	generate	Run4	generate/STIM_009.jpg
2692.932	1.731	correct	generate	Run4	generate/STIM_009.jpg
2698.457	1.316	correct	generate	Run4	generate/STIM_009.jpg
2702.414	0.904	correct	generate	Run4	generate/STIM_010.jpg
2705.594	1.665	correct	generate	Run4	generate/STIM_010.jpg
2710.662	1.653	correct	generate	Run4	generate/STIM_010.jpg
2714.499	1.72	correct	generate	Run4	generate/STIM_010.jpg
2719.503	1.812	correct	generate	Run4	generate/STIM_010.jpg
2723.76	1.214	correct	generate	Run4	generate/STIM_011.jpg
2727.355	1.847	correct	generate	Run4	generate/STIM_011.jpg
2732.599	1.455	correct	generate	Run4	generate/STIM_011.jpg
2737.602	0.748	correct	generate	Run4	generate/STIM_011.jpg
2740.731	1.074	incorrect	generate	Run4	generate/STIM_011.jpg
2745.601	1.039	correct	generate	Run4	generate/STIM_012.jpg
2750.151	1.689	correct	generate	Run4	generate/STIM_012.jpg
2755.411	1.738	correct	generate	Run4	generate/STIM_012.jpg
2759.927	0.867	correct	generate	Run4	generate/STIM_012.jpg
2764.705	1.336	correct	generate	Run4	generate/STIM_012.jpg
2769.204	1.428	correct	generate	Run4	generate/STIM_013.jpg
2773.995	1.309	correct	generate	Run4	generate/STIM_013.jpg
2777.948	1.156	correct	generate	Run4	generate/STIM_013.jpg
2782.349	0.76	correct	generate	Run4	generate/STIM_013.jpg
2785.838	1.493	correct	generate	Run4	generate/STIM_013.jpg
2790.304	0.861	correct	generate	Run4	generate/STIM_014.jpg
2794.731	1.341	correct	generate	Run4	generate/STIM_014.jpg
2799.343	0.926	correct	generate	Run4	generate/STIM_014.jpg
2803.746	1.628	correct	generate	Run4	generate/STIM_014.jpg
2808.319	1.438	correct	generate	Run4	generate/STIM_014.jpg
2812.361	1.356	correct	generate	Run4	generate/STIM_015.jpg
2816.495	1.606	correct	generate	Run4	generate/STIM_015.jpg
2821.923	1.173	correct	generate	Run4	generate/STIM_015.jpg
2825.172	1.826	correct	generate	Run4	generate/STIM_015.jpg
2830.118	1.085	correct	generate	Run4	generate/STIM_015.jpg
2833.812	0.772	incorrect	generate	Run4	generate/STIM_016.jpg
2837.501	1.522	correct	generate	Run4	generate/STIM_016.jpg
2841.126	1.174	correct	generate	Run4	generate/STIM_016.jpg
2845.234	1.14	correct	generate	Run4	generate/STIM_016.jpg
2849.84	1.058	correct	generate	Run4	generate/STIM_016.jpg
2854.891	0.768	correct	generate	Run4	generate/STIM_017.jpg
2859.546	1.508	correct	generate	Run4	generate/STIM_017.jpg
2864.217	1.426	correct	generate	Run4	generate/STIM_017.jpg
2868.417	1.132	correct	generate	Run4	generate/STIM_017.jpg
2873.04	1.207	incorrect	generate	Run4	generate/STIM_017.jpg
2877.024	1.785	correct	generate	Run4	generate/STIM_018.jpg
2882.247	1.247	correct	generate	Run4	generate/STIM_018.jpg
2886.899	1.748	correct	generate	Run4	generate/STIM_018.jpg
2892.022	1.656	correct	generate	Run4	generate/STIM_018.jpg
2896.692	1.825	correct	generate	Run4	generate/STIM_018.jpg
2901.216	1.132	correct	generate	Run4	generate/STIM_019.jpg
2905.274	1.218	correct	generate	Run4	generate/STIM_019.jpg
2910.241	1.842	correct	generate	Run4	generate/STIM_019.jpg
2915.276	1.531	correct	generate	Run4	generate/STIM_019.jpg
2918.863	1.323	correct	generate	Run4	generate/STIM_019.jpg
2922.43	1.118	correct	generate	Run4	generate/STIM_020.jpg
2925.891	1.732	correct	generate	Run4	generate/STIM_020.jpg
2930.611	0.809	correct	generate	Run4	generate/STIM_020.jpg
2935.333	0.757	correct	generate	Run4	generate/STIM_020.jpg
2939.973	1.62	correct	generate	Run4	generate/STIM_020.jpg
2944.661	1.655	correct	generate	Run4	generate/STIM_021.jpg
2948.828	0.864	correct	generate	Run4	generate/STIM_021.jpg
2953.647	0.827	correct	generate	Run4	generate/STIM_021.jpg
2957.095	1.461	correct	generate	Run4	generate/STIM_021.jpg
2962.366	1.014	correct	generate	Run4	generate/STIM_021.jpg
2966.495	1.021	correct	generate	Run4	generate/STIM_022.jpg
2969.517	1.064	correct	generate	Run4	generate/STIM_022.jpg
2972.9	1.567	correct	generate	Run4	generate/STIM_022.jpg
2977.139	1.278	correct	generate	Run4	generate/STIM_022.jpg
2981.119	0.849	correct	generate	Run4	generate/STIM_022.jpg
2985.018	1.368	correct	generate	Run4	generate/STIM_023.jpg
2989.254	1.169	correct	generate	Run4	generate/STIM_023.jpg
2993.347	1.54	correct	generate	Run4	generate/STIM_023.jpg
2997.733	0.991	correct	generate	Run4	generate/STIM_023.jpg
3000.829	0.848	correct	generate	Run4	generate/STIM_023.jpg
3004.655	0.836	correct	generate	Run4	generate/STIM_024.jpg
3008.081	1.093	correct	generate	Run4	generate/STIM_024.jpg
3011.908	1.115	correct	generate	Run4	generate/STIM_024.jpg
3016.208	1.607	correct	generate	Run4	generate/STIM_024.jpg
3020.537	1.016	correct	generate	Run4	generate/STIM_024.jpg
3023.807	0.678	correct	repeat	Run4	repeat/STIM_000.jpg
3028.128	0.7	incorrect	repeat	Run4	repeat/STIM_000.jpg
3031.126	0.877	correct	repeat	Run4	repeat/STIM_000.jpg
3035.149	0.699	correct	repeat	Run4	repeat/STIM_000.jpg
3038.74	0.768	incorrect	repeat	Run4	repeat/STIM_000.jpg
3043.25	0.651	correct	repeat	Run4	repeat/STIM_001.jpg
3047.536	0.771	correct	repeat	Run4	repeat/STIM_001.jpg
3051.315	0.479	correct	repeat	Run4	repeat/STIM_001.jpg
3055.131	0.756	correct	repeat	Run4	repeat/STIM_001.jpg
3058.411	0.452	correct	repeat	Run4	repeat/STIM_001.jpg
3062.563	0.808	correct	repeat	Run4	repeat/STIM_002.jpg
3066.815	0.728	incorrect	repeat	Run4	repeat/STIM_002.jpg
3070.288	0.664	correct	repeat	Run4	repeat/STIM_002.jpg
3074.596	0.646	correct	repeat	Run4	repeat/STIM_002.jpg
3078.04	0.68	correct	repeat	Run4	repeat/STIM_002.jpg
3081.697	0.544	correct	repeat	Run4	repeat/STIM_003.jpg
3085.541	0.56	correct	repeat	Run4	repeat/STIM_003.jpg
3089.786	0.56	correct	repeat	Run4	repeat/STIM_003.jpg
3093.575	0.705	correct	repeat	Run4	repeat/STIM_003.jpg
3097.003	0.521	correct	repeat	Run4	repeat/STIM_003.jpg
3100.288	0.774	correct	repeat	Run4	repeat/STIM_004.jpg
3104.531	0.76	correct	repeat	Run4	repeat/STIM_004.jpg
3107.368	0.768	correct	repeat	Run4	repeat/STIM_004.jpg
3111.024	0.622	correct	repeat	Run4	repeat/STIM_004.jpg
3115.35	0.867	correct	repeat	Run4	repeat/STIM_004.jpg
3119.794	0.569	correct	repeat	Run4	repeat/STIM_005.jpg
3124.189	0.753	correct	repeat	Run4	repeat/STIM_005.jpg
3128.668	0.718	correct	repeat	Run4	repeat/STIM_005.jpg
3131.967	0.639	correct	repeat	Run4	repeat/STIM_005.jpg
3135.003	0.468	correct	repeat	Run4	repeat/STIM_005.jpg
3137.92	0.479	incorrect	repeat	Run4	repeat/STIM_006.jpg
3140.559	0.641	correct	repeat	Run4	repeat/STIM_006.jpg
3144.617	0.672	incorrect	repeat	Run4	repeat/STIM_006.jpg
3147.366	0.514	correct	repeat	Run4	repeat/STIM_006.jpg
3151.098	0.736	correct	repeat	Run4	repeat/STIM_006.jpg
3154.392	0.606	correct	repeat	Run4	repeat/STIM_007.jpg
3157.272	0.666	correct	repeat	Run4	repeat/STIM_007.jpg
3161.053	0.871	correct	repeat	Run4	repeat/STIM_007.jpg
3165.235	0.726	correct	repeat	Run4	repeat/STIM_007.jpg
3169.464	0.468	correct	repeat	Run4	repeat/STIM_007.jpg
3173.442	0.699	correct	repeat	Run4	repeat/STIM_008.jpg
3177.295	0.792	correct	repeat	Run4	repeat/STIM_008.jpg
3181.164	0.644	correct	repeat	Run4	repeat/STIM_008.jpg
3183.869	0.741	correct	repeat	Run4	repeat/STIM_008.jpg
3187.785	0.6	correct	repeat	Run4	repeat/STIM_008.jpg
3191.042	0.456	correct	repeat	Run4	repeat/STIM_009.jpg
3194.449	0.593	correct	repeat	Run4	repeat/STIM_009.jpg
3198.25	0.736	correct	repeat	Run4	repeat/STIM_009.jpg
3202.007	0.589	correct	repeat	Run4	repeat/STIM_009.jpg
3205.434	0.57	correct	repeat	Run4	repeat/STIM_009.jpg
3208.887	0.458	incorrect	repeat	Run4	repeat/STIM_010.jpg
3212.083	0.51	correct	repeat	Run4	repeat/STIM_010.jpg
3215.488	0.779	correct	repeat	Run4	repeat/STIM_010.jpg
3219.868	0.781	correct	repeat	Run4	repeat/STIM_010.jpg
3224.04	0.671	correct	repeat	Run4	repeat/STIM_010.jpg
3228.214	0.764	correct	repeat	Run4	repeat/STIM_011.jpg
3231.483	0.804	correct	repeat	Run4	repeat/STIM_011.jpg
3234.938	0.803	correct	repeat	Run4	repeat/STIM_011.jpg
3238.312	0.795	correct	repeat	Run4	repeat/STIM_011.jpg
3241.614	0.648	correct	repeat	Run4	repeat/STIM_011.jpg
3244.517	0.764	incorrect	repeat	Run4	repeat/STIM_012.jpg
3247.909	0.653	correct	repeat	Run4	repeat/STIM_012.jpg
3251.352	0.705	correct	repeat	Run4	repeat/STIM_012.jpg
3254.548	0.569	correct	repeat	Run4	repeat/STIM_012.jpg
3257.782	0.753	correct	repeat	Run4	repeat/STIM_012.jpg
3261.049	0.515	correct	repeat	Run4	repeat/STIM_013.jpg
3264.445	0.499	incorrect	repeat	Run4	repeat/STIM_013.jpg
3267.186	0.642	correct	repeat	Run4	repeat/STIM_013.jpg
3269.835	0.652	incorrect	repeat	Run4	repeat/STIM_013.jpg
3273.416	0.762	correct	repeat	Run4	repeat/STIM_013.jpg
3277.828	0.84	correct	repeat	Run4	repeat/STIM_014.jpg
3281.4	0.452	correct	repeat	Run4	repeat/STIM_014.jpg
3284.286	0.759	correct	repeat	Run4	repeat/STIM_014.jpg
3288.864	0.585	correct	repeat	Run4	repeat/STIM_014.jpg
3291.751	0.598	correct	repeat	Run4	repeat/STIM_014.jpg
