onset	duration	response_time_ms	trial_type	learning_stage	stimulus	response_port
0.0	1.966	1965.9	generate	Run1	generate/STIM_000.jpg	99
5.373	1.9	1900.5	generate	Run1	generate/STIM_000.jpg	99
10.188	1.461	1460.8	generate	Run1	generate/STIM_000.jpg	100
14.937	1.458	1458.4	generate	Run1	generate/STIM_000.jpg	100
19.601	1.421	1421.1	generate	Run1	generate/STIM_000.jpg	99
23.761	2.079	2079.2	generate	Run1	generate/STIM_001.jpg	99
27.844	1.604	1604.4	generate	Run1	generate/STIM_001.jpg	99
33.024	2.019	2019.5	generate	Run1	generate/STIM_001.jpg	99
39.008	1.672	1672.4	generate	Run1	generate/STIM_001.jpg	100
43.993	1.451	1450.8	generate	Run1	generate/STIM_001.jpg	100
48.098	1.376	1376.5	generate	Run1	generate/STIM_002.jpg	100
53.003	2.152	2151.9	generate	Run1	generate/STIM_002.jpg	100
58.709	2.343	2342.8	generate	Run1	generate/STIM_002.jpg	99
64.941	0.921	921.2	generate	Run1	generate/STIM_002.jpg	100
68.963	1.824	1824.4	generate	Run1	generate/STIM_002.jpg	100
73.743	1.396	1396.3	generate	Run1	generate/STIM_003.jpg	99
78.275	1.293	1293.1	generate	Run1	generate/STIM_003.jpg	100
82.274	1.369	1369.4	generate	Run1	generate/STIM_003.jpg	99
87.347	1.934	1933.9	generate	Run1	generate/STIM_003.jpg	99
93.059	1.399	1398.6	generate	Run1	generate/STIM_003.jpg	99
97.985	2.593	2593.0	generate	Run1	generate/STIM_004.jpg	100
103.871	1.851	1851.1	generate	Run1	generate/STIM_004.jpg	99
108.469	1.438	1437.5	generate	Run1	generate/STIM_004.jpg	99
112.59	1.179	1179.3	generate	Run1	generate/STIM_004.jpg	99
116.927	1.309	1308.9	generate	Run1	generate/STIM_004.jpg	100
121.577	1.074	1073.7	generate	Run1	generate/STIM_005.jpg	99
124.832	1.552	1551.7	generate	Run1	generate/STIM_005.jpg	99
128.957	2.147	2147.2	generate	Run1	generate/STIM_005.jpg	99
134.456	2.229	2228.9	generate	Run1	generate/STIM_005.jpg	100
139.574	1.388	1388.5	generate	Run1	generate/STIM_005.jpg	100
144.12	1.202	1202.1	generate	Run1	generate/STIM_006.jpg	100
148.558	1.281	1281.4	generate	Run1	generate/STIM_006.jpg	99
152.766	1.712	1712.5	generate	Run1	generate/STIM_006.jpg	99
157.651	0.903	902.8	generate	Run1	generate/STIM_006.jpg	99
162.52	1.117	1116.8	generate	Run1	generate/STIM_006.jpg	99
166.682	2.6	2599.9	generate	Run1	generate/STIM_007.jpg	100
171.716	1.9	1899.7	generate	Run1	generate/STIM_007.jpg	100
176.873	1.99	1989.7	generate	Run1	generate/STIM_007.jpg	99
182.544	1.138	1138.4	generate	Run1	generate/STIM_007.jpg	99
186.859	1.148	1148.0	generate	Run1	generate/STIM_007.jpg	100
191.842	1.922	1922.1	generate	Run1	generate/STIM_008.jpg	99
197.462	1.431	1430.6	generate	Run1	generate/STIM_008.jpg	100
201.725	1.239	1239.1	generate	Run1	generate/STIM_008.jpg	99
205.73	1.725	1725.4	generate	Run1	generate/STIM_008.jpg	100
210.614	1.09	1089.7	generate	Run1	generate/STIM_008.jpg	100
213.967	1.55	1550.5	generate	Run1	generate/STIM_009.jpg	99
218.569	1.13	1130.4	generate	Run1	generate/STIM_009.jpg	100
223.479	1.098	1097.9	generate	Run1	generate/STIM_009.jpg	100
226.743	1.462	1461.8	generate	Run1	generate/STIM_009.jpg	99
230.309	2.026	2025.5	generate	Run1	generate/STIM_009.jpg	100
234.67	2.365	2364.6	generate	Run1	generate/STIM_010.jpg	100
239.31	2.511	2510.6	generate	Run1	generate/STIM_010.jpg	100
244.867	1.769	1769.0	generate	Run1	generate/STIM_010.jpg	99
248.76	1.238	1238.4	generate	Run1	generate/STIM_010.jpg	100
252.435	1.107	1107.1	generate	Run1	generate/STIM_010.jpg	99
256.063	1.852	1851.6	generate	Run1	generate/STIM_011.jpg	100
261.582	1.958	1957.9	generate	Run1	generate/STIM_011.jpg	99
265.709	1.123	1122.6	generate	Run1	generate/STIM_011.jpg	100
270.493	1.531	1530.6	generate	Run1	generate/STIM_011.jpg	99
275.711	1.118	1118.1	generate	Run1	generate/STIM_011.jpg	100
278.852	2.294	2294.1	generate	Run1	generate/STIM_012.jpg	100
284.288	2.035	2035.5	generate	Run1	generate/STIM_012.jpg	99
289.417	1.859	1858.9	generate	Run1	generate/STIM_012.jpg	99
293.528	1.278	1278.5	generate	Run1	generate/STIM_012.jpg	99
297.945	1.411	1410.6	generate	Run1	generate/STIM_012.jpg	100
302.305	1.223	1222.9	generate	Run1	generate/STIM_013.jpg	99
305.59	2.426	2426.1	generate	Run1	generate/STIM_013.jpg	100
310.372	1.884	1883.6	generate	Run1	generate/STIM_013.jpg	100
315.555	1.458	1458.5	generate	Run1	generate/STIM_013.jpg	99
319.239	2.034	2033.5	generate	Run1	generate/STIM_013.jpg	99
324.723	1.966	1965.7	generate	Run1	generate/STIM_014.jpg	100
329.643	2.262	2261.8	generate	Run1	generate/STIM_014.jpg	100
335.663	2.039	2039.1	generate	Run1	generate/STIM_014.jpg	99
339.717	1.211	1210.9	generate	Run1	generate/STIM_014.jpg	100
344.206	1.225	1225.1	generate	Run1	generate/STIM_014.jpg	100
349.427	2.11	2110.1	generate	Run1	generate/STIM_015.jpg	99
354.97	1.044	1044.4	generate	Run1	generate/STIM_015.jpg	99
358.948	1.235	1234.8	generate	Run1	generate/STIM_015.jpg	99
363.694	1.673	1672.6	generate	Run1	generate/STIM_015.jpg	100
367.874	1.351	1351.0	generate	Run1	generate/STIM_015.jpg	100
372.536	2.377	2377.2	generate	Run1	generate/STIM_016.jpg	99
378.056	1.576	1576.5	generate	Run1	generate/STIM_016.jpg	99
381.861	1.062	1061.6	generate	Run1	generate/STIM_016.jpg	100
386.585	1.493	1493.1	generate	Run1	generate/STIM_016.jpg	99
391.1	1.818	1818.5	generate	Run1	generate/STIM_016.jpg	99
396.829	1.781	1781.3	generate	Run1	generate/STIM_017.jpg	99
401.847	1.263	1263.2	generate	Run1	generate/STIM_017.jpg	99
405.332	1.33	1329.9	generate	Run1	generate/STIM_017.jpg	99
409.179	1.451	1451.2	generate	Run1	generate/STIM_017.jpg	100
412.918	1.216	1216.5	generate	Run1	generate/STIM_017.jpg	100
416.925	1.863	1862.9	generate	Run1	generate/STIM_018.jpg	100
420.944	2.296	2295.6	generate	Run1	generate/STIM_018.jpg	99
425.286	0.995	995.0	generate	Run1	generate/STIM_018.jpg	100
428.794	1.669	1669.1	generate	Run1	generate/STIM_018.jpg	100
434.04	1.293	1293.1	generate	Run1	generate/STIM_018.jpg	99
438.442	2.161	2161.4	generate	Run1	generate/STIM_019.jpg	100
444.06	2.457	2456.8	generate	Run1	generate/STIM_019.jpg	100
448.705	1.725	1724.9	generate	Run1	generate/STIM_019.jpg	100
453.598	1.133	1132.9	generate	Run1	generate/STIM_019.jpg	99
456.952	1.126	1126.2	generate	Run1	generate/STIM_019.jpg	99
461.421	1.512	1512.3	generate	Run1	generate/STIM_020.jpg	99
465.161	2.158	2158.0	generate	Run1	generate/STIM_020.jpg	100
469.511	1.329	1328.7	generate	Run1	generate/STIM_020.jpg	99
474.268	1.748	1748.0	generate	Run1	generate/STIM_020.jpg	100
479.763	1.738	1738.3	generate	Run1	generate/STIM_020.jpg	100
484.11	1.629	1629.0	generate	Run1	generate/STIM_021.jpg	100
489.313	1.9	1899.6	generate	Run1	generate/STIM_021.jpg	100
494.969	1.081	1080.7	generate	Run1	generate/STIM_021.jpg	100
499.152	1.438	1438.2	generate	Run1	generate/STIM_021.jpg	100
503.971	1.13	1130.5	generate	Run1	generate/STIM_021.jpg	99
509.085	1.78	1780.3	generate	Run1	generate/STIM_022.jpg	100
513.533	1.969	1969.4	generate	Run1	generate/STIM_022.jpg	100
517.698	1.864	1863.7	generate	Run1	generate/STIM_022.jpg	99
521.716	2.08	2080.2	generate	Run1	generate/STIM_022.jpg	100
526.775	1.639	1639.3	generate	Run1	generate/STIM_022.jpg	100
531.832	2.581	2581.4	generate	Run1	generate/STIM_023.jpg	99
537.399	1.889	1888.7	generate	Run1	generate/STIM_023.jpg	100
541.661	1.821	1821.4	generate	Run1	generate/STIM_023.jpg	100
546.832	1.671	1671.4	generate	Run1	generate/STIM_023.jpg	100
550.557	1.235	1235.2	generate	Run1	generate/STIM_023.jpg	100
555.288	1.415	1414.6	generate	Run1	generate/STIM_024.jpg	99
560.048	1.355	1354.6	generate	Run1	generate/STIM_024.jpg	99
564.036	1.367	1366.8	generate	Run1	generate/STIM_024.jpg	100
568.112	1.71	1709.5	generate	Run1	generate/STIM_024.jpg	100
573.253	1.471	1471.3	generate	Run1	generate/STIM_024.jpg	100
577.697	0.516	516.5	repeat	Run1	repeat/STIM_000.jpg	99
581.055	0.574	574.2	repeat	Run1	repeat/STIM_000.jpg	100
584.643	0.502	501.6	repeat	Run1	repeat/STIM_000.jpg	99
588.262	0.725	724.6	repeat	Run1	repeat/STIM_000.jpg	100
591.57	0.678	678.3	repeat	Run1	repeat/STIM_000.jpg	99
595.032	0.798	798.0	repeat	Run1	repeat/STIM_001.jpg	100
598.188	0.715	715.3	repeat	Run1	repeat/STIM_001.jpg	99
601.63	0.618	617.5	repeat	Run1	repeat/STIM_001.jpg	99
605.892	0.539	539.3	repeat	Run1	repeat/STIM_001.jpg	100
608.948	0.454	454.1	repeat	Run1	repeat/STIM_001.jpg	99
611.952	0.754	753.8	repeat	Run1	repeat/STIM_002.jpg	99
615.27	0.718	717.9	repeat	Run1	repeat/STIM_002.jpg	99
619.288	0.545	545.4	repeat	Run1	repeat/STIM_002.jpg	99
623.458	0.514	514.1	repeat	Run1	repeat/STIM_002.jpg	99
627.092	0.515	515.2	repeat	Run1	repeat/STIM_002.jpg	99
630.485	0.505	505.5	repeat	Run1	repeat/STIM_003.jpg	100
633.727	0.784	783.5	repeat	Run1	repeat/STIM_003.jpg	99
637.388	0.862	861.6	repeat	Run1	repeat/STIM_003.jpg	99
641.796	0.641	641.0	repeat	Run1	repeat/STIM_003.jpg	100
645.902	0.79	789.7	repeat	Run1	repeat/STIM_003.jpg	100
649.855	0.866	865.9	repeat	Run1	repeat/STIM_004.jpg	99
654.172	0.576	576.4	repeat	Run1	repeat/STIM_004.jpg	99
657.987	0.518	518.3	repeat	Run1	repeat/STIM_004.jpg	100
661.411	0.577	577.2	repeat	Run1	repeat/STIM_004.jpg	99
665.616	0.504	503.6	repeat	Run1	repeat/STIM_004.jpg	100
669.339	0.642	641.8	repeat	Run1	repeat/STIM_005.jpg	100
673.469	0.646	646.4	repeat	Run1	repeat/STIM_005.jpg	100
677.25	0.843	842.7	repeat	Run1	repeat/STIM_005.jpg	99
680.2	0.819	819.3	repeat	Run1	repeat/STIM_005.jpg	100
684.119	0.608	607.5	repeat	Run1	repeat/STIM_005.jpg	99
687.086	0.636	636.3	repeat	Run1	repeat/STIM_006.jpg	99
690.653	0.782	782.2	repeat	Run1	repeat/STIM_006.jpg	99
693.547	0.45	449.5	repeat	Run1	repeat/STIM_006.jpg	100
696.187	0.737	737.0	repeat	Run1	repeat/STIM_006.jpg	99
698.942	0.738	738.1	repeat	Run1	repeat/STIM_006.jpg	99
702.706	0.524	524.4	repeat	Run1	repeat/STIM_007.jpg	100
706.615	0.634	634.2	repeat	Run1	repeat/STIM_007.jpg	100
710.847	0.489	489.1	repeat	Run1	repeat/STIM_007.jpg	99
714.885	0.484	483.5	repeat	Run1	repeat/STIM_007.jpg	100
717.507	0.721	720.6	repeat	Run1	repeat/STIM_007.jpg	99
721.762	0.518	517.7	repeat	Run1	repeat/STIM_008.jpg	100
724.62	0.531	530.9	repeat	Run1	repeat/STIM_008.jpg	99
727.749	0.806	806.1	repeat	Run1	repeat/STIM_008.jpg	99
731.012	0.868	868.5	repeat	Run1	repeat/STIM_008.jpg	99
734.283	0.783	783.1	repeat	Run1	repeat/STIM_008.jpg	99
738.759	0.832	831.6	repeat	Run1	repeat/STIM_009.jpg	100
742.921	0.711	710.9	repeat	Run1	repeat/STIM_009.jpg	99
745.644	0.813	813.1	repeat	Run1	repeat/STIM_009.jpg	100
749.949	0.482	481.8	repeat	Run1	repeat/STIM_009.jpg	99
753.994	0.7	700.5	repeat	Run1	repeat/STIM_009.jpg	99
756.893	0.692	691.6	repeat	Run1	repeat/STIM_010.jpg	99
760.801	0.767	767.3	repeat	Run1	repeat/STIM_010.jpg	100
765.264	0.463	462.7	repeat	Run1	repeat/STIM_010.jpg	99
768.09	0.751	750.9	repeat	Run1	repeat/STIM_010.jpg	99
771.027	0.828	828.1	repeat	Run1	repeat/STIM_010.jpg	99
773.97	0.78	780.0	repeat	Run1	repeat/STIM_011.jpg	99
777.691	0.877	876.6	repeat	Run1	repeat/STIM_011.jpg	99
782.567	0.874	874.4	repeat	Run1	repeat/STIM_011.jpg	99
787.168	0.455	455.4	repeat	Run1	repeat/STIM_011.jpg	100
791.007	0.731	731.3	repeat	Run1	repeat/STIM_011.jpg	100
795.624	0.456	455.9	repeat	Run1	repeat/STIM_012.jpg	99
799.603	0.497	497.3	repeat	Run1	repeat/STIM_012.jpg	100
802.829	0.543	543.4	repeat	Run1	repeat/STIM_012.jpg	100
806.64	0.799	798.8	repeat	Run1	repeat/STIM_012.jpg	100
810.875	0.656	656.5	repeat	Run1	repeat/STIM_012.jpg	100
815.102	0.804	804.5	repeat	Run1	repeat/STIM_013.jpg	100
818.92	0.61	610.1	repeat	Run1	repeat/STIM_013.jpg	99
822.866	0.6	599.7	repeat	Run1	repeat/STIM_013.jpg	99
826.313	0.602	602.1	repeat	Run1	repeat/STIM_013.jpg	99
829.473	0.738	737.8	repeat	Run1	repeat/STIM_013.jpg	99
834.028	0.703	703.4	repeat	Run1	repeat/STIM_014.jpg	99
838.432	0.825	824.9	repeat	Run1	repeat/STIM_014.jpg	99
842.784	0.876	876.5	repeat	Run1	repeat/STIM_014.jpg	100
846.407	0.819	818.8	repeat	Run1	repeat/STIM_014.jpg	100
849.473	0.761	761.2	repeat	Run1	repeat/STIM_014.jpg	100
852.62	1.118	1117.6	generate	Run2	generate/STIM_000.jpg	100
856.899	0.893	893.3	generate	Run2	generate/STIM_000.jpg	100
861.406	1.227	1227.2	generate	Run2	generate/STIM_000.jpg	100
866.095	1.251	1251.3	generate	Run2	generate/STIM_000.jpg	99
870.748	1.227	1227.4	generate	Run2	generate/STIM_000.jpg	100
875.857	1.816	1815.8	generate	Run2	generate/STIM_001.jpg	100
880.787	1.817	1817.4	generate	Run2	generate/STIM_001.jpg	100
884.919	1.535	1534.6	generate	Run2	generate/STIM_001.jpg	100
889.654	0.804	803.9	generate	Run2	generate/STIM_001.jpg	100
893.543	1.107	1106.7	generate	Run2	generate/STIM_001.jpg	100
898.017	1.162	1161.7	generate	Run2	generate/STIM_002.jpg	99
903.019	1.461	1460.6	generate	Run2	generate/STIM_002.jpg	100
908.354	1.588	1588.1	generate	Run2	generate/STIM_002.jpg	99
912.517	1.305	1305.2	generate	Run2	generate/STIM_002.jpg	99
916.136	1.763	1763.1	generate	Run2	generate/STIM_002.jpg	100
919.977	1.436	1435.7	generate	Run2	generate/STIM_003.jpg	99
924.482	1.521	1521.0	generate	Run2	generate/STIM_003.jpg	99
929.636	1.049	1048.8	generate	Run2	generate/STIM_003.jpg	100
932.74	1.798	1798.0	generate	Run2	generate/STIM_003.jpg	100
937.497	0.842	842.1	generate	Run2	generate/STIM_003.jpg	99
941.338	2.108	2107.9	generate	Run2	generate/STIM_004.jpg	99
945.747	1.141	1141.1	generate	Run2	generate/STIM_004.jpg	100
949.396	0.922	921.8	generate	Run2	generate/STIM_004.jpg	100
954.218	1.09	1089.8	generate	Run2	generate/STIM_004.jpg	99
957.691	1.196	1195.8	generate	Run2	generate/STIM_004.jpg	100
962.735	1.299	1299.2	generate	Run2	generate/STIM_005.jpg	100
966.373	1.67	1670.3	generate	Run2	generate/STIM_005.jpg	99
970.497	1.873	1872.8	generate	Run2	generate/STIM_005.jpg	100
974.988	0.927	926.6	generate	Run2	generate/STIM_005.jpg	99
978.596	1.777	1777.0	generate	Run2	generate/STIM_005.jpg	100
983.892	1.242	1242.2	generate	Run2	generate/STIM_006.jpg	99
988.778	1.854	1854.1	generate	Run2	generate/STIM_006.jpg	99
992.995	1.681	1681.3	generate	Run2	generate/STIM_006.jpg	99
998.396	1.131	1131.2	generate	Run2	generate/STIM_006.jpg	100
1003.166	1.298	1297.8	generate	Run2	generate/STIM_006.jpg	100
1006.526	1.09	1090.5	generate	Run2	generate/STIM_007.jpg	99
1011.29	1.194	1194.3	generate	Run2	generate/STIM_007.jpg	100
1015.917	1.047	1047.2	generate	Run2	generate/STIM_007.jpg	100
1020.53	1.808	1808.4	generate	Run2	generate/STIM_007.jpg	99
1024.43	1.056	1056.4	generate	Run2	generate/STIM_007.jpg	99
1028.512	1.409	1408.7	generate	Run2	generate/STIM_008.jpg	100
1032.126	1.645	1645.1	generate	Run2	generate/STIM_008.jpg	99
1037.371	1.675	1675.0	generate	Run2	generate/STIM_008.jpg	100
1041.695	1.577	1576.6	generate	Run2	generate/STIM_008.jpg	99
1046.751	1.136	1136.2	generate	Run2	generate/STIM_008.jpg	100
1051.138	1.335	1334.7	generate	Run2	generate/STIM_009.jpg	100
1055.914	1.82	1820.1	generate	Run2	generate/STIM_009.jpg	99
1059.856	1.61	1609.6	generate	Run2	generate/STIM_009.jpg	100
1064.302	1.532	1532.3	generate	Run2	generate/STIM_009.jpg	99
1067.975	1.616	1615.9	generate	Run2	generate/STIM_009.jpg	100
1072.486	1.762	1762.0	generate	Run2	generate/STIM_010.jpg	100
1077.383	0.916	915.6	generate	Run2	generate/STIM_010.jpg	99
1082.151	1.943	1943.0	generate	Run2	generate/STIM_010.jpg	99
1087.296	1.842	1841.9	generate	Run2	generate/STIM_010.jpg	100
1092.16	0.913	912.7	generate	Run2	generate/STIM_010.jpg	100
1096.918	1.692	1692.4	generate	Run2	generate/STIM_011.jpg	100
1101.799	1.402	1401.7	generate	Run2	generate/STIM_011.jpg	99
1106.333	0.939	938.7	generate	Run2	generate/STIM_011.jpg	99
1111.098	1.314	1314.1	generate	Run2	generate/STIM_011.jpg	99
1114.606	1.771	1770.7	generate	Run2	generate/STIM_011.jpg	99
1119.494	1.252	1252.1	generate	Run2	generate/STIM_012.jpg	99
1124.456	1.36	1360.3	generate	Run2	generate/STIM_012.jpg	100
1129.159	1.077	1076.8	generate	Run2	generate/STIM_012.jpg	100
1132.907	0.906	906.4	generate	Run2	generate/STIM_012.jpg	99
1137.095	1.216	1216.2	generate	Run2	generate/STIM_012.jpg	99
1140.639	1.889	1889.1	generate	Run2	generate/STIM_013.jpg	99
1145.767	2.067	2066.7	generate	Run2	generate/STIM_013.jpg	100
1151.681	1.048	1047.7	generate	Run2	generate/STIM_013.jpg	99
1156.048	1.278	1278.0	generate	Run2	generate/STIM_013.jpg	100
1159.736	1.327	1326.8	generate	Run2	generate/STIM_013.jpg	99
1164.594	1.896	1895.8	generate	Run2	generate/STIM_014.jpg	100
1168.673	1.21	1210.0	generate	Run2	generate/STIM_014.jpg	99
1173.378	1.822	1821.8	generate	Run2	generate/STIM_014.jpg	100
1177.623	1.213	1212.8	generate	Run2	generate/STIM_014.jpg	99
1181.297	1.688	1688.2	generate	Run2	generate/STIM_014.jpg	100
1185.346	1.411	1411.3	generate	Run2	generate/STIM_015.jpg	99
1189.387	0.903	903.2	generate	Run2	generate/STIM_015.jpg	99
1192.458	1.734	1733.5	generate	Run2	generate/STIM_015.jpg	100
1197.286	1.4	1400.1	generate	Run2	generate/STIM_015.jpg	100
1201.158	1.643	1642.9	generate	Run2	generate/STIM_015.jpg	99
1206.451	1.514	1513.6	generate	Run2	generate/STIM_016.jpg	100
1210.796	1.791	1791.1	generate	Run2	generate/STIM_016.jpg	100
1215.501	1.069	1068.6	generate	Run2	generate/STIM_016.jpg	100
1218.92	0.803	802.8	generate	Run2	generate/STIM_016.jpg	100
1222.731	1.315	1314.6	generate	Run2	generate/STIM_016.jpg	100
1227.124	1.042	1042.5	generate	Run2	generate/STIM_017.jpg	99
1230.611	1.094	1093.7	generate	Run2	generate/STIM_017.jpg	99
1234.313	0.814	814.3	generate	Run2	generate/STIM_017.jpg	99
1238.006	1.732	1732.5	generate	Run2	generate/STIM_017.jpg	100
1241.825	1.227	1226.6	generate	Run2	generate/STIM_017.jpg	100
1246.9	2.243	2243.3	generate	Run2	generate/STIM_018.jpg	99
1252.64	0.978	977.7	generate	Run2	generate/STIM_018.jpg	99
1257.353	1.759	1759.4	generate	Run2	generate/STIM_018.jpg	100
1261.647	1.166	1165.6	generate	Run2	generate/STIM_018.jpg	99
1265.476	1.084	1084.3	generate	Run2	generate/STIM_018.jpg	100
1269.406	1.42	1420.3	generate	Run2	generate/STIM_019.jpg	100
1273.926	1.726	1726.0	generate	Run2	generate/STIM_019.jpg	99
1279.465	1.435	1434.7	generate	Run2	generate/STIM_019.jpg	100
1283.644	1.12	1119.7	generate	Run2	generate/STIM_019.jpg	100
1288.632	1.75	1750.1	generate	Run2	generate/STIM_019.jpg	100
1293.433	1.685	1685.4	generate	Run2	generate/STIM_020.jpg	100
1298.502	1.119	1119.2	generate	Run2	generate/STIM_020.jpg	99
1303.202	1.792	1792.1	generate	Run2	generate/STIM_020.jpg	99
1307.272	0.907	907.1	generate	Run2	generate/STIM_020.jpg	100
1310.796	1.01	1010.5	generate	Run2	generate/STIM_020.jpg	99
1314.232	1.15	1149.8	generate	Run2	generate/STIM_021.jpg	99
1318.901	1.225	1225.4	generate	Run2	generate/STIM_021.jpg	99
1323.691	1.29	1290.3	generate	Run2	generate/STIM_021.jpg	100
1327.091	1.727	1727.4	generate	Run2	generate/STIM_021.jpg	99
1331.126	0.818	817.9	generate	Run2	generate/STIM_021.jpg	99
1335.236	1.586	1586.0	generate	Run2	generate/STIM_022.jpg	99
1340.722	1.772	1771.8	generate	Run2	generate/STIM_022.jpg	100
1345.549	1.577	1577.4	generate	Run2	generate/STIM_022.jpg	99
1350.496	1.112	1111.8	generate	Run2	generate/STIM_022.jpg	99
1354.472	1.01	1010.2	generate	Run2	generate/STIM_022.jpg	99
1357.723	1.798	1797.5	generate	Run2	generate/STIM_023.jpg	99
1362.67	1.931	1931.3	generate	Run2	generate/STIM_023.jpg	99
1367.168	1.834	1834.1	generate	Run2	generate/STIM_023.jpg	100
1372.96	1.68	1679.9	generate	Run2	generate/STIM_023.jpg	100
1377.306	1.688	1687.9	generate	Run2	generate/STIM_023.jpg	99
1381.277	0.988	987.9	generate	Run2	generate/STIM_024.jpg	99
1384.465	2.096	2095.5	generate	Run2	generate/STIM_024.jpg	99
1390.443	1.426	1426.3	generate	Run2	generate/STIM_024.jpg	99
1395.219	1.186	1185.8	generate	Run2	generate/STIM_024.jpg	99
1398.994	1.622	1622.0	generate	Run2	generate/STIM_024.jpg	99
1403.371	0.705	705.1	repeat	Run2	repeat/STIM_000.jpg	99
1406.43	0.752	752.4	repeat	Run2	repeat/STIM_000.jpg	99
1410.706	0.507	506.8	repeat	Run2	repeat/STIM_000.jpg	99
1413.899	0.818	818.1	repeat	Run2	repeat/STIM_000.jpg	99
1417.439	0.701	701.2	repeat	Run2	repeat/STIM_000.jpg	100
1420.18	0.454	453.9	repeat	Run2	repeat/STIM_001.jpg	99
1423.979	0.541	541.3	repeat	Run2	repeat/STIM_001.jpg	99
1427.129	0.586	586.5	repeat	Run2	repeat/STIM_001.jpg	100
1431.223	0.536	536.2	repeat	Run2	repeat/STIM_001.jpg	100
1435.118	0.571	570.9	repeat	Run2	repeat/STIM_001.jpg	99
1439.379	0.877	876.9	repeat	Run2	repeat/STIM_002.jpg	100
1443.135	0.585	584.7	repeat	Run2	repeat/STIM_002.jpg	99
1447.251	0.593	593.4	repeat	Run2	repeat/STIM_002.jpg	100
1450.614	0.822	821.7	repeat	Run2	repeat/STIM_002.jpg	100
1453.549	0.604	604.0	repeat	Run2	repeat/STIM_002.jpg	99
1458.032	0.469	469.2	repeat	Run2	repeat/STIM_003.jpg	100
1460.676	0.556	555.5	repeat	Run2	repeat/STIM_003.jpg	100
1464.868	0.853	853.2	repeat	Run2	repeat/STIM_003.jpg	100
1468.147	0.461	460.6	repeat	Run2	repeat/STIM_003.jpg	99
1471.56	0.601	601.0	repeat	Run2	repeat/STIM_003.jpg	100
1475.453	0.797	797.3	repeat	Run2	repeat/STIM_004.jpg	99
1478.555	0.612	612.4	repeat	Run2	repeat/STIM_004.jpg	99
1481.663	0.852	852.3	repeat	Run2	repeat/STIM_004.jpg	99
1486.149	0.868	867.6	repeat	Run2	repeat/STIM_004.jpg	100
1490.792	0.828	827.9	repeat	Run2	repeat/STIM_004.jpg	100
1495.616	0.79	789.9	repeat	Run2	repeat/STIM_005.jpg	99
1499.516	0.848	848.4	repeat	Run2	repeat/STIM_005.jpg	100
1502.675	0.749	749.1	repeat	Run2	repeat/STIM_005.jpg	100
1506.483	0.566	566.1	repeat	Run2	repeat/STIM_005.jpg	99
1510.555	0.878	877.8	repeat	Run2	repeat/STIM_005.jpg	100
1514.639	0.632	632.1	repeat	Run2	repeat/STIM_006.jpg	100
1517.469	0.832	831.5	repeat	Run2	repeat/STIM_006.jpg	100
1520.404	0.807	807.0	repeat	Run2	repeat/STIM_006.jpg	99
1523.443	0.543	543.4	repeat	Run2	repeat/STIM_006.jpg	100
1526.125	0.791	790.6	repeat	Run2	repeat/STIM_006.jpg	99
1530.448	0.847	847.3	repeat	Run2	repeat/STIM_007.jpg	100
1533.373	0.815	815.2	repeat	Run2	repeat/STIM_007.jpg	100
1536.536	0.787	786.9	repeat	Run2	repeat/STIM_007.jpg	100
1539.615	0.74	740.5	repeat	Run2	repeat/STIM_007.jpg	99
1543.538	0.649	648.9	repeat	Run2	repeat/STIM_007.jpg	99
1548.179	0.628	628.2	repeat	Run2	repeat/STIM_008.jpg	99
1550.949	0.856	856.0	repeat	Run2	repeat/STIM_008.jpg	100
1554.947	0.475	475.0	repeat	Run2	repeat/STIM_008.jpg	99
1557.55	0.774	773.9	repeat	Run2	repeat/STIM_008.jpg	100
1562.249	0.863	862.8	repeat	Run2	repeat/STIM_008.jpg	100
1566.337	0.527	527.2	repeat	Run2	repeat/STIM_009.jpg	100
1569.18	0.803	803.3	repeat	Run2	repeat/STIM_009.jpg	99
1572.256	0.63	629.9	repeat	Run2	repeat/STIM_009.jpg	100
1576.379	0.786	786.0	repeat	Run2	repeat/STIM_009.jpg	99
1580.494	0.798	798.5	repeat	Run2	repeat/STIM_009.jpg	99
1584.051	0.525	525.2	repeat	Run2	repeat/STIM_010.jpg	99
1587.584	0.639	639.3	repeat	Run2	repeat/STIM_010.jpg	99
1591.01	0.449	449.2	repeat	Run2	repeat/STIM_010.jpg	100
1594.903	0.867	867.0	repeat	Run2	repeat/STIM_010.jpg	99
1598.283	0.484	484.4	repeat	Run2	repeat/STIM_010.jpg	100
1602.078	0.72	720.0	repeat	Run2	repeat/STIM_011.jpg	99
1604.953	0.555	555.2	repeat	Run2	repeat/STIM_011.jpg	99
1609.24	0.796	795.5	repeat	Run2	repeat/STIM_011.jpg	99
1612.57	0.817	816.8	repeat	Run2	repeat/STIM_011.jpg	99
1615.498	0.448	448.0	repeat	Run2	repeat/STIM_011.jpg	99
1618.512	0.746	746.3	repeat	Run2	repeat/STIM_012.jpg	100
1621.449	0.842	841.8	repeat	Run2	repeat/STIM_012.jpg	100
1624.906	0.74	739.6	repeat	Run2	repeat/STIM_012.jpg	99
1629.404	0.497	497.0	repeat	Run2	repeat/STIM_012.jpg	100
1632.79	0.818	817.5	repeat	Run2	repeat/STIM_012.jpg	100
1637.552	0.534	534.0	repeat	Run2	repeat/STIM_013.jpg	99
1642.075	0.654	653.7	repeat	Run2	repeat/STIM_013.jpg	99
1646.616	0.73	730.2	repeat	Run2	repeat/STIM_013.jpg	99
1650.96	0.498	497.9	repeat	Run2	repeat/STIM_013.jpg	100
1654.562	0.847	847.2	repeat	Run2	repeat/STIM_013.jpg	100
1659.2	0.444	443.7	repeat	Run2	repeat/STIM_014.jpg	100
1663.409	0.71	710.2	repeat	Run2	repeat/STIM_014.jpg	100
1666.232	0.789	788.8	repeat	Run2	repeat/STIM_014.jpg	99
1670.494	0.792	792.4	repeat	Run2	repeat/STIM_014.jpg	100
1674.483	0.656	655.9	repeat	Run2	repeat/STIM_014.jpg	99
1677.918	1.49	1489.7	generate	Run3	generate/STIM_000.jpg	100
1683.005	0.998	997.8	generate	Run3	generate/STIM_000.jpg	99
1686.545	1.07	1070.1	generate	Run3	generate/STIM_000.jpg	100
1689.744	0.819	819.2	generate	Run3	generate/STIM_000.jpg	99
1692.89	1.14	1139.5	generate	Run3	generate/STIM_000.jpg	100
1696.086	1.266	1266.5	generate	Run3	generate/STIM_001.jpg	99
1699.58	1.216	1216.3	generate	Run3	generate/STIM_001.jpg	100
1702.917	1.207	1207.2	generate	Run3	generate/STIM_001.jpg	99
1707.232	1.343	1342.8	generate	Run3	generate/STIM_001.jpg	100
1712.251	0.852	851.6	generate	Run3	generate/STIM_001.jpg	99
1715.966	1.709	1708.8	generate	Run3	generate/STIM_002.jpg	100
1720.611	1.836	1836.4	generate	Run3	generate/STIM_002.jpg	99
1725.955	1.482	1482.4	generate	Run3	generate/STIM_002.jpg	99
1730.301	1.387	1386.6	generate	Run3	generate/STIM_002.jpg	100
1734.306	0.997	997.1	generate	Run3	generate/STIM_002.jpg	100
1738.983	0.755	755.2	generate	Run3	generate/STIM_003.jpg	100
1742.677	1.693	1692.7	generate	Run3	generate/STIM_003.jpg	100
1747.637	0.766	766.5	generate	Run3	generate/STIM_003.jpg	100
1751.36	1.671	1671.2	generate	Run3	generate/STIM_003.jpg	99
1755.624	1.644	1644.2	generate	Run3	generate/STIM_003.jpg	100
1760.477	1.391	1390.8	generate	Run3	generate/STIM_004.jpg	100
1765.363	1.31	1309.6	generate	Run3	generate/STIM_004.jpg	100
1769.219	1.761	1760.9	generate	Run3	generate/STIM_004.jpg	99
1774.866	1.445	1445.1	generate	Run3	generate/STIM_004.jpg	100
1778.341	1.692	1692.0	generate	Run3	generate/STIM_004.jpg	99
1782.333	1.538	1537.9	generate	Run3	generate/STIM_005.jpg	100
1785.974	1.475	1475.1	generate	Run3	generate/STIM_005.jpg	99
1791.409	1.112	1112.2	generate	Run3	generate/STIM_005.jpg	99
1796.272	0.814	813.9	generate	Run3	generate/STIM_005.jpg	99
1799.776	1.206	1205.6	generate	Run3	generate/STIM_005.jpg	99
1804.324	0.781	781.3	generate	Run3	generate/STIM_006.jpg	100
1807.345	1.243	1243.2	generate	Run3	generate/STIM_006.jpg	100
1811.59	1.531	1530.9	generate	Run3	generate/STIM_006.jpg	100
1816.877	1.065	1065.4	generate	Run3	generate/STIM_006.jpg	99
1820.14	1.536	1536.5	generate	Run3	generate/STIM_006.jpg	99
1824.457	1.364	1364.1	generate	Run3	generate/STIM_007.jpg	99
1829.69	0.999	999.0	generate	Run3	generate/STIM_007.jpg	100
1832.955	1.632	1632.3	generate	Run3	generate/STIM_007.jpg	99
1838.576	0.997	997.2	generate	Run3	generate/STIM_007.jpg	100
1842.403	1.57	1570.3	generate	Run3	generate/STIM_007.jpg	100
1847.369	0.952	952.1	generate	Run3	generate/STIM_008.jpg	99
1851.371	0.775	774.9	generate	Run3	generate/STIM_008.jpg	99
1855.519	1.256	1255.9	generate	Run3	generate/STIM_008.jpg	99
1859.811	1.296	1296.0	generate	Run3	generate/STIM_008.jpg	99
1864.105	1.441	1441.3	generate	Run3	generate/STIM_008.jpg	99
1869.377	0.946	946.3	generate	Run3	generate/STIM_009.jpg	99
1872.577	0.778	778.5	generate	Run3	generate/STIM_009.jpg	99
1876.451	1.01	1010.4	generate	Run3	generate/STIM_009.jpg	99
1880.875	1.36	1360.0	generate	Run3	generate/STIM_009.jpg	100
1885.212	1.842	1841.7	generate	Run3	generate/STIM_009.jpg	99
1890.951	1.282	1282.1	generate	Run3	generate/STIM_010.jpg	100
1895.128	1.642	1641.5	generate	Run3	generate/STIM_010.jpg	100
1900.394	0.935	935.0	generate	Run3	generate/STIM_010.jpg	100
1905.128	0.977	977.4	generate	Run3	generate/STIM_010.jpg	100
1908.855	1.152	1151.6	generate	Run3	generate/STIM_010.jpg	100
1913.355	1.822	1822.1	generate	Run3	generate/STIM_011.jpg	99
1918.356	1.175	1175.2	generate	Run3	generate/STIM_011.jpg	100
1923.122	1.345	1345.1	generate	Run3	generate/STIM_011.jpg	100
1927.61	1.096	1096.4	generate	Run3	generate/STIM_011.jpg	99
1930.997	1.774	1773.9	generate	Run3	generate/STIM_011.jpg	99
1935.917	1.465	1464.9	generate	Run3	generate/STIM_012.jpg	100
1940.135	1.766	1765.9	generate	Run3	generate/STIM_012.jpg	100
1944.23	1.475	1475.0	generate	Run3	generate/STIM_012.jpg	99
1948.807	1.626	1625.8	generate	Run3	generate/STIM_012.jpg	99
1953.313	1.131	1130.8	generate	Run3	generate/STIM_012.jpg	99
1958.076	0.8	799.6	generate	Run3	generate/STIM_013.jpg	100
1962.136	1.329	1329.1	generate	Run3	generate/STIM_013.jpg	100
1966.376	0.853	852.8	generate	Run3	generate/STIM_013.jpg	99
1970.041	1.416	1416.4	generate	Run3	generate/STIM_013.jpg	99
1975.275	0.817	816.6	generate	Run3	generate/STIM_013.jpg	100
1978.6	1.76	1759.8	generate	Run3	generate/STIM_014.jpg	99
1982.513	1.094	1094.2	generate	Run3	generate/STIM_014.jpg	99
1986.134	1.581	1581.4	generate	Run3	generate/STIM_014.jpg	99
1990.192	1.012	1011.9	generate	Run3	generate/STIM_014.jpg	99
1993.395	1.492	1492.1	generate	Run3	generate/STIM_014.jpg	99
1997.589	1.308	1308.2	generate	Run3	generate/STIM_015.jpg	100
2001.217	1.132	1132.4	generate	Run3	generate/STIM_015.jpg	100
2005.047	1.597	1596.8	generate	Run3	generate/STIM_015.jpg	100
2008.984	1.771	1771.3	generate	Run3	generate/STIM_015.jpg	99
2012.812	1.777	1777.2	generate	Run3	generate/STIM_015.jpg	99
2016.724	1.709	1709.0	generate	Run3	generate/STIM_016.jpg	100
2021.784	1.81	1810.1	generate	Run3	generate/STIM_016.jpg	100
2027.506	1.266	1265.9	generate	Run3	generate/STIM_016.jpg	100
2031.053	1.83	1829.8	generate	Run3	generate/STIM_016.jpg	100
2035.559	1.259	1258.7	generate	Run3	generate/STIM_016.jpg	99
2039.832	1.122	1122.4	generate	Run3	generate/STIM_017.jpg	100
2043.51	1.481	1480.9	generate	Run3	generate/STIM_017.jpg	99
2048.636	1.636	1635.6	generate	Run3	generate/STIM_017.jpg	99
2052.621	0.97	970.1	generate	Run3	generate/STIM_017.jpg	99
2056.496	1.306	1305.7	generate	Run3	generate/STIM_017.jpg	100
2061.605	0.904	904.4	generate	Run3	generate/STIM_018.jpg	100
2064.771	1.43	1429.5	generate	Run3	generate/STIM_018.jpg	99
2068.637	1.109	1109.2	generate	Run3	generate/STIM_018.jpg	100
2071.815	0.941	940.9	generate	Run3	generate/STIM_018.jpg	99
2076.336	1.451	1450.9	generate	Run3	generate/STIM_018.jpg	100
2081.141	1.814	1814.4	generate	Run3	generate/STIM_019.jpg	99
2086.939	1.412	1412.0	generate	Run3	generate/STIM_019.jpg	99
2090.682	1.661	1661.4	generate	Run3	generate/STIM_019.jpg	99
2095.663	0.998	998.2	generate	Run3	generate/STIM_019.jpg	99
2099.423	1.27	1270.1	generate	Run3	generate/STIM_019.jpg	99
2103.317	1.064	1064.5	generate	Run3	generate/STIM_020.jpg	99
2107.147	0.842	842.2	generate	Run3	generate/STIM_020.jpg	99
2111.679	1.14	1139.5	generate	Run3	generate/STIM_020.jpg	100
2116.623	1.643	1642.7	generate	Run3	generate/STIM_020.jpg	99
2120.554	1.763	1762.8	generate	Run3	generate/STIM_020.jpg	99
2124.573	1.385	1384.7	generate	Run3	generate/STIM_021.jpg	99
2128.158	0.86	860.4	generate	Run3	generate/STIM_021.jpg	100
2131.203	1.478	1478.3	generate	Run3	generate/STIM_021.jpg	99
2135.684	1.609	1608.7	generate	Run3	generate/STIM_021.jpg	99
2139.42	1.026	1026.0	generate	Run3	generate/STIM_021.jpg	99
2143.93	1.218	1218.0	generate	Run3	generate/STIM_022.jpg	99
2148.935	1.516	1515.7	generate	Run3	generate/STIM_022.jpg	100
2153.287	0.838	838.5	generate	Run3	generate/STIM_022.jpg	99
2156.354	1.843	1842.9	generate	Run3	generate/STIM_022.jpg	100
2162.139	1.802	1802.1	generate	Run3	generate/STIM_022.jpg	100
2166.128	0.924	924.4	generate	Run3	generate/STIM_023.jpg	100
2170.729	0.981	980.9	generate	Run3	generate/STIM_023.jpg	99
2174.064	1.42	1420.1	generate	Run3	generate/STIM_023.jpg	100
2179.41	1.225	1224.8	generate	Run3	generate/STIM_023.jpg	100
2182.771	1.077	1077.1	generate	Run3	generate/STIM_023.jpg	99
2186.723	0.883	883.2	generate	Run3	generate/STIM_024.jpg	99
2190.821	0.856	856.4	generate	Run3	generate/STIM_024.jpg	99
2195.436	1.51	1510.0	generate	Run3	generate/STIM_024.jpg	100
2200.921	1.692	1691.9	generate	Run3	generate/STIM_024.jpg	99
2206.442	1.04	1040.3	generate	Run3	generate/STIM_024.jpg	100
2211.354	0.586	586.2	repeat	Run3	repeat/STIM_000.jpg	99
2215.179	0.825	824.8	repeat	Run3	repeat/STIM_000.jpg	99
2219.207	0.691	691.0	repeat	Run3	repeat/STIM_000.jpg	100
2223.307	0.447	447.1	repeat	Run3	repeat/STIM_000.jpg	99
2226.976	0.851	851.3	repeat	Run3	repeat/STIM_000.jpg	100
2229.862	0.849	849.2	repeat	Run3	repeat/STIM_001.jpg	99
2234.104	0.725	725.2	repeat	Run3	repeat/STIM_001.jpg	99
2238.567	0.466	465.5	repeat	Run3	repeat/STIM_001.jpg	100
2242.921	0.781	781.3	repeat	Run3	repeat/STIM_001.jpg	99
2247.665	0.807	807.4	repeat	Run3	repeat/STIM_001.jpg	100
2251.645	0.712	712.4	repeat	Run3	repeat/STIM_002.jpg	99
2255.836	0.776	776.1	repeat	Run3	repeat/STIM_002.jpg	99
2258.77	0.724	723.6	repeat	Run3	repeat/STIM_002.jpg	99
2263.387	0.52	519.8	repeat	Run3	repeat/STIM_002.jpg	100
2267.247	0.727	727.0	repeat	Run3	repeat/STIM_002.jpg	99
2271.057	0.51	509.8	repeat	Run3	repeat/STIM_003.jpg	99
2274.27	0.45	449.9	repeat	Run3	repeat/STIM_003.jpg	100
2276.915	0.733	732.7	repeat	Run3	repeat/STIM_003.jpg	99
2280.068	0.562	561.5	repeat	Run3	repeat/STIM_003.jpg	100
2284.535	0.571	571.0	repeat	Run3	repeat/STIM_003.jpg	100
2288.31	0.765	765.2	repeat	Run3	repeat/STIM_004.jpg	100
2292.837	0.594	593.6	repeat	Run3	repeat/STIM_004.jpg	100
2297.39	0.526	526.4	repeat	Run3	repeat/STIM_004.jpg	99
2300.278	0.56	559.7	repeat	Run3	repeat/STIM_004.jpg	99
2302.879	0.77	769.5	repeat	Run3	repeat/STIM_004.jpg	100
2305.817	0.866	865.7	repeat	Run3	repeat/STIM_005.jpg	99
2308.96	0.799	798.9	repeat	Run3	repeat/STIM_005.jpg	99
2312.756	0.6	600.2	repeat	Run3	repeat/STIM_005.jpg	100
2315.565	0.58	579.5	repeat	Run3	repeat/STIM_005.jpg	100
2319.657	0.718	717.7	repeat	Run3	repeat/STIM_005.jpg	99
2323.934	0.505	505.2	repeat	Run3	repeat/STIM_006.jpg	99
2326.932	0.52	520.1	repeat	Run3	repeat/STIM_006.jpg	99
2330.039	0.457	457.2	repeat	Run3	repeat/STIM_006.jpg	99
2334.031	0.765	764.7	repeat	Run3	repeat/STIM_006.jpg	100
2338.457	0.672	672.5	repeat	Run3	repeat/STIM_006.jpg	99
2343.026	0.81	810.0	repeat	Run3	repeat/STIM_007.jpg	99
2346.342	0.602	601.8	repeat	Run3	repeat/STIM_007.jpg	99
2349.525	0.55	550.0	repeat	Run3	repeat/STIM_007.jpg	99
2352.599	0.827	827.1	repeat	Run3	repeat/STIM_007.jpg	99
2356.798	0.469	469.0	repeat	Run3	repeat/STIM_007.jpg	99
2359.81	0.732	732.1	repeat	Run3	repeat/STIM_008.jpg	99
2364.035	0.464	463.8	repeat	Run3	repeat/STIM_008.jpg	99
2366.564	0.618	618.4	repeat	Run3	repeat/STIM_008.jpg	99
2369.588	0.747	747.2	repeat	Run3	repeat/STIM_008.jpg	100
2372.912	0.578	577.6	repeat	Run3	repeat/STIM_008.jpg	99
2376.492	0.554	553.7	repeat	Run3	repeat/STIM_009.jpg	99
2379.174	0.676	675.6	repeat	Run3	repeat/STIM_009.jpg	99
2382.917	0.775	775.3	repeat	Run3	repeat/STIM_009.jpg	100
2387.678	0.633	632.8	repeat	Run3	repeat/STIM_009.jpg	100
2390.493	0.791	791.2	repeat	Run3	repeat/STIM_009.jpg	100
2393.51	0.597	596.8	repeat	Run3	repeat/STIM_010.jpg	99
2396.514	0.863	863.0	repeat	Run3	repeat/STIM_010.jpg	99
2401.279	0.776	776.1	repeat	Run3	repeat/STIM_010.jpg	99
2405.687	0.618	617.6	repeat	Run3	repeat/STIM_010.jpg	99
2409.435	0.691	691.0	repeat	Run3	repeat/STIM_010.jpg	100
2412.654	0.699	698.7	repeat	Run3	repeat/STIM_011.jpg	99
2415.354	0.854	853.5	repeat	Run3	repeat/STIM_011.jpg	99
2419.617	0.646	646.0	repeat	Run3	repeat/STIM_011.jpg	100
2423.576	0.564	564.1	repeat	Run3	repeat/STIM_011.jpg	99
2426.828	0.512	511.9	repeat	Run3	repeat/STIM_011.jpg	100
2430.184	0.487	486.9	repeat	Run3	repeat/STIM_012.jpg	100
2434.027	0.451	451.4	repeat	Run3	repeat/STIM_012.jpg	99
2437.189	0.453	452.6	repeat	Run3	repeat/STIM_012.jpg	99
2439.889	0.679	679.1	repeat	Run3	repeat/STIM_012.jpg	100
2443.033	0.559	559.2	repeat	Run3	repeat/STIM_012.jpg	100
2446.803	0.642	642.5	repeat	Run3	repeat/STIM_013.jpg	99
2450.894	0.717	716.8	repeat	Run3	repeat/STIM_013.jpg	99
2454.461	0.694	694.2	repeat	Run3	repeat/STIM_013.jpg	100
2458.503	0.54	539.5	repeat	Run3	repeat/STIM_013.jpg	100
2461.651	0.827	827.4	repeat	Run3	repeat/STIM_013.jpg	99
2465.93	0.72	719.6	repeat	Run3	repeat/STIM_014.jpg	100
2468.752	0.691	690.9	repeat	Run3	repeat/STIM_014.jpg	100
2473.222	0.774	773.6	repeat	Run3	repeat/STIM_014.jpg	100
2477.401	0.58	579.6	repeat	Run3	repeat/STIM_014.jpg	99
2481.479	0.539	539.2	repeat	Run3	repeat/STIM_014.jpg	100
2484.624	1.354	1354.0	generate	Run4	generate/STIM_000.jpg	100
2488.128	1.106	1106.1	generate	Run4	generate/STIM_000.jpg	99
2492.529	1.289	1288.7	generate	Run4	generate/STIM_000.jpg	99
2496.328	1.028	1028.0	generate	Run4	generate/STIM_000.jpg	100
2499.984	1.331	1330.6	generate	Run4	generate/STIM_000.jpg	99
2504.721	0.975	975.2	generate	Run4	generate/STIM_001.jpg	100
2507.723	1.285	1284.7	generate	Run4	generate/STIM_001.jpg	99
2512.805	1.221	1221.2	generate	Run4	generate/STIM_001.jpg	99
2517.418	1.377	1377.0	generate	Run4	generate/STIM_001.jpg	99
2521.427	1.492	1491.6	generate	Run4	generate/STIM_001.jpg	99
2525.353	1.292	1292.0	generate	Run4	generate/STIM_002.jpg	100
2530.39	1.153	1152.9	generate	Run4	generate/STIM_002.jpg	99
2533.684	1.325	1325.4	generate	Run4	generate/STIM_002.jpg	99
2538.781	0.748	747.9	generate	Run4	generate/STIM_002.jpg	99
2543.08	0.904	904.2	generate	Run4	generate/STIM_002.jpg	100
2547.158	1.273	1273.1	generate	Run4	generate/STIM_003.jpg	99
2552.346	1.031	1030.7	generate	Run4	generate/STIM_003.jpg	99
2556.973	0.864	864.0	generate	Run4	generate/STIM_003.jpg	99
2560.157	1.802	1802.1	generate	Run4	generate/STIM_003.jpg	99
2565.149	1.508	1508.3	generate	Run4	generate/STIM_003.jpg	100
2569.278	1.272	1272.1	generate	Run4	generate/STIM_004.jpg	100
2574.542	1.261	1261.0	generate	Run4	generate/STIM_004.jpg	99
2578.713	0.861	860.6	generate	Run4	generate/STIM_004.jpg	99
2582.699	1.085	1085.0	generate	Run4	generate/STIM_004.jpg	99
2587.211	1.792	1792.1	generate	Run4	generate/STIM_004.jpg	99
2592.613	0.929	929.1	generate	Run4	generate/STIM_005.jpg	99
2595.554	1.774	1773.6	generate	Run4	generate/STIM_005.jpg	99
2600.499	1.475	1475.2	generate	Run4	generate/STIM_005.jpg	100
2605.92	1.795	1795.2	generate	Run4	generate/STIM_005.jpg	99
2611.566	0.746	746.2	generate	Run4	generate/STIM_005.jpg	99
2616.189	0.988	988.5	generate	Run4	generate/STIM_006.jpg	99
2620.712	1.779	1779.3	generate	Run4	generate/STIM_006.jpg	99
2625.904	1.204	1203.8	generate	Run4	generate/STIM_006.jpg	100
2630.141	1.464	1463.5	generate	Run4	generate/STIM_006.jpg	99
2635.504	1.459	1459.2	generate	Run4	generate/STIM_006.jpg	99
2639.531	0.963	962.6	generate	Run4	generate/STIM_007.jpg	99
2644.029	1.388	1387.8	generate	Run4	generate/STIM_007.jpg	100
2648.116	1.782	1781.8	generate	Run4	generate/STIM_007.jpg	99
2653.634	0.785	784.8	generate	Run4	generate/STIM_007.jpg	99
2657.667	0.939	939.1	generate	Run4	generate/STIM_007.jpg	100
2662.456	1.634	1633.7	generate	Run4	generate/STIM_008.jpg	100
2666.2	0.86	860.0	generate	Run4	generate/STIM_008.jpg	99
2670.399	1.198	1198.0	generate	Run4	generate/STIM_008.jpg	100
2673.639	0.967	967.1	generate	Run4	generate/STIM_008.jpg	99
2676.667	0.87	870.0	generate	Run4	generate/STIM_008.jpg	99
2679.604	1.71	1709.9	generate	Run4	generate/STIM_009.jpg	100
2685.076	0.992	991.7	generate	Run4	generate/STIM_009.jpg	99
2688.411	1.278	1278.1	generate	Run4	generate/STIM_009.jpg	99
2692.932	1.731	1730.7	generate	Run4	generate/STIM_009.jpg	100
2698.457	1.316	1316.3	generate	Run4	generate/STIM_009.jpg	99
2702.414	0.904	903.8	generate	Run4	generate/STIM_010.jpg	99
2705.594	1.665	1664.6	generate	Run4	generate/STIM_010.jpg	99
2710.662	1.653	1653.2	generate	Run4	generate/STIM_010.jpg	100
2714.499	1.72	1719.7	generate	Run4	generate/STIM_010.jpg	100
2719.503	1.812	1812.0	generate	Run4	generate/STIM_010.jpg	100
2723.76	1.214	1214.1	generate	Run4	generate/STIM_011.jpg	100
2727.355	1.847	1846.6	generate	Run4	generate/STIM_011.jpg	100
2732.599	1.455	1454.6	generate	Run4	generate/STIM_011.jpg	100
2737.602	0.748	748.3	generate	Run4	generate/STIM_011.jpg	100
2740.731	1.074	1074.0	generate	Run4	generate/STIM_011.jpg	100
2745.601	1.039	1039.4	generate	Run4	generate/STIM_012.jpg	100
2750.151	1.689	1688.7	generate	Run4	generate/STIM_012.jpg	100
2755.411	1.738	1738.4	generate	Run4	generate/STIM_012.jpg	99
2759.927	0.867	867.0	generate	Run4	generate/STIM_012.jpg	100
2764.705	1.336	1335.5	generate	Run4	generate/STIM_012.jpg	99
2769.204	1.428	1428.4	generate	Run4	generate/STIM_013.jpg	99
2773.995	1.309	1309.3	generate	Run4	generate/STIM_013.jpg	100
2777.948	1.156	1156.2	generate	Run4	generate/STIM_013.jpg	100
2782.349	0.76	760.1	generate	Run4	generate/STIM_013.jpg	99
2785.838	1.493	1493.4	generate	Run4	generate/STIM_013.jpg	99
2790.304	0.861	861.0	generate	Run4	generate/STIM_014.jpg	99
2794.731	1.341	1341.1	generate	Run4	generate/STIM_014.jpg	100
2799.343	0.926	925.6	generate	Run4	generate/STIM_014.jpg	100
2803.746	1.628	1628.0	generate	Run4	generate/STIM_014.jpg	100
2808.319	1.438	1437.9	generate	Run4	generate/STIM_014.jpg	100
2812.361	1.356	1355.9	generate	Run4	generate/STIM_015.jpg	99
2816.495	1.606	1605.9	generate	Run4	generate/STIM_015.jpg	100
2821.923	1.173	1173.3	generate	Run4	generate/STIM_015.jpg	99
2825.172	1.826	1825.5	generate	Run4	generate/STIM_015.jpg	100
2830.118	1.085	1085.2	generate	Run4	generate/STIM_015.jpg	100
2833.812	0.772	772.4	generate	Run4	generate/STIM_016.jpg	99
2837.501	1.522	1522.2	generate	Run4	generate/STIM_016.jpg	100
2841.126	1.174	1174.4	generate	Run4	generate/STIM_016.jpg	99
2845.234	1.14	1139.8	generate	Run4	generate/STIM_016.jpg	99
2849.84	1.058	1058.2	generate	Run4	generate/STIM_016.jpg	99
2854.891	0.768	768.5	generate	Run4	generate/STIM_017.jpg	100
2859.546	1.508	1507.7	generate	Run4	generate/STIM_017.jpg	100
2864.217	1.426	1426.2	generate	Run4	generate/STIM_017.jpg	99
2868.417	1.132	1132.3	generate	Run4	generate/STIM_017.jpg	100
2873.04	1.207	1206.8	generate	Run4	generate/STIM_017.jpg	99
2877.024	1.785	1785.0	generate	Run4	generate/STIM_018.jpg	100
2882.247	1.247	1246.7	generate	Run4	generate/STIM_018.jpg	100
2886.899	1.748	1748.3	generate	Run4	generate/STIM_018.jpg	100
2892.022	1.656	1656.0	generate	Run4	generate/STIM_018.jpg	100
2896.692	1.825	1824.7	generate	Run4	generate/STIM_018.jpg	100
2901.216	1.132	1131.8	generate	Run4	generate/STIM_019.jpg	100
2905.274	1.218	1217.7	generate	Run4	generate/STIM_019.jpg	100
2910.241	1.842	1842.0	generate	Run4	generate/STIM_019.jpg	100
2915.276	1.531	1530.9	generate	Run4	generate/STIM_019.jpg	100
2918.863	1.323	1323.2	generate	Run4	generate/STIM_019.jpg	100
2922.43	1.118	1118.1	generate	Run4	generate/STIM_020.jpg	99
2925.891	1.732	1731.5	generate	Run4	generate/STIM_020.jpg	100
2930.611	0.809	808.7	generate	Run4	generate/STIM_020.jpg	100
2935.333	0.757	756.6	generate	Run4	generate/STIM_020.jpg	99
2939.973	1.62	1620.2	generate	Run4	generate/STIM_020.jpg	99
2944.661	1.655	1655.0	generate	Run4	generate/STIM_021.jpg	100
2948.828	0.864	863.5	generate	Run4	generate/STIM_021.jpg	99
2953.647	0.827	826.8	generate	Run4	generate/STIM_021.jpg	100
2957.095	1.461	1460.7	generate	Run4	generate/STIM_021.jpg	99
2962.366	1.014	1014.1	generate	Run4	generate/STIM_021.jpg	100
2966.495	1.021	1021.0	generate	Run4	generate/STIM_022.jpg	100
2969.517	1.064	1064.1	generate	Run4	generate/STIM_022.jpg	100
2972.9	1.567	1567.2	generate	Run4	generate/STIM_022.jpg	100
2977.139	1.278	1277.6	generate	Run4	generate/STIM_022.jpg	99
2981.119	0.849	849.4	generate	Run4	generate/STIM_022.jpg	100
2985.018	1.368	1368.1	generate	Run4	generate/STIM_023.jpg	100
2989.254	1.169	1168.8	generate	Run4	generate/STIM_023.jpg	100
2993.347	1.54	1540.4	generate	Run4	generate/STIM_023.jpg	100
2997.733	0.991	990.6	generate	Run4	generate/STIM_023.jpg	99
3000.829	0.848	847.6	generate	Run4	generate/STIM_023.jpg	99
3004.655	0.836	836.4	generate	Run4	generate/STIM_024.jpg	99
3008.081	1.093	1092.7	generate	Run4	generate/STIM_024.jpg	100
3011.908	1.115	1114.8	generate	Run4	generate/STIM_024.jpg	100
3016.208	1.607	1606.8	generate	Run4	generate/STIM_024.jpg	99
3020.537	1.016	1016.2	generate	Run4	generate/STIM_024.jpg	100
3023.807	0.678	678.4	repeat	Run4	repeat/STIM_000.jpg	99
3028.128	0.7	700.3	repeat	Run4	repeat/STIM_000.jpg	99
3031.126	0.877	877.2	repeat	Run4	repeat/STIM_000.jpg	99
3035.149	0.699	698.6	repeat	Run4	repeat/STIM_000.jpg	99
3038.74	0.768	768.4	repeat	Run4	repeat/STIM_000.jpg	99
3043.25	0.651	651.1	repeat	Run4	repeat/STIM_001.jpg	100
3047.536	0.771	771.2	repeat	Run4	repeat/STIM_001.jpg	99
3051.315	0.479	479.2	repeat	Run4	repeat/STIM_001.jpg	100
3055.131	0.756	755.8	repeat	Run4	repeat/STIM_001.jpg	99
3058.411	0.452	452.3	repeat	Run4	repeat/STIM_001.jpg	100
3062.563	0.808	808.3	repeat	Run4	repeat/STIM_002.jpg	100
3066.815	0.728	728.0	repeat	Run4	repeat/STIM_002.jpg	99
3070.288	0.664	664.4	repeat	Run4	repeat/STIM_002.jpg	100
3074.596	0.646	646.2	repeat	Run4	repeat/STIM_002.jpg	100
3078.04	0.68	680.0	repeat	Run4	repeat/STIM_002.jpg	99
3081.697	0.544	543.5	repeat	Run4	repeat/STIM_003.jpg	100
3085.541	0.56	559.6	repeat	Run4	repeat/STIM_003.jpg	99
3089.786	0.56	559.8	repeat	Run4	repeat/STIM_003.jpg	100
3093.575	0.705	704.9	repeat	Run4	repeat/STIM_003.jpg	99
3097.003	0.521	521.4	repeat	Run4	repeat/STIM_003.jpg	100
3100.288	0.774	774.3	repeat	Run4	repeat/STIM_004.jpg	99
3104.531	0.76	759.9	repeat	Run4	repeat/STIM_004.jpg	100
3107.368	0.768	767.5	repeat	Run4	repeat/STIM_004.jpg	100
3111.024	0.622	621.9	repeat	Run4	repeat/STIM_004.jpg	100
3115.35	0.867	866.7	repeat	Run4	repeat/STIM_004.jpg	100
3119.794	0.569	569.4	repeat	Run4	repeat/STIM_005.jpg	100
3124.189	0.753	753.4	repeat	Run4	repeat/STIM_005.jpg	99
3128.668	0.718	717.7	repeat	Run4	repeat/STIM_005.jpg	100
3131.967	0.639	638.7	repeat	Run4	repeat/STIM_005.jpg	100
3135.003	0.468	468.5	repeat	Run4	repeat/STIM_005.jpg	99
3137.92	0.479	478.6	repeat	Run4	repeat/STIM_006.jpg	100
3140.559	0.641	641.1	repeat	Run4	repeat/STIM_006.jpg	99
3144.617	0.672	672.5	repeat	Run4	repeat/STIM_006.jpg	99
3147.366	0.514	514.4	repeat	Run4	repeat/STIM_006.jpg	99
3151.098	0.736	735.5	repeat	Run4	repeat/STIM_006.jpg	100
3154.392	0.606	606.0	repeat	Run4	repeat/STIM_007.jpg	100
3157.272	0.666	666.2	repeat	Run4	repeat/STIM_007.jpg	99
3161.053	0.871	871.4	repeat	Run4	repeat/STIM_007.jpg	100
3165.235	0.726	726.5	repeat	Run4	repeat/STIM_007.jpg	99
3169.464	0.468	468.2	repeat	Run4	repeat/STIM_007.jpg	99
3173.442	0.699	699.1	repeat	Run4	repeat/STIM_008.jpg	100
3177.295	0.792	791.6	repeat	Run4	repeat/STIM_008.jpg	99
3181.164	0.644	643.9	repeat	Run4	repeat/STIM_008.jpg	99
3183.869	0.741	741.1	repeat	Run4	repeat/STIM_008.jpg	99
3187.785	0.6	600.1	repeat	Run4	repeat/STIM_008.jpg	100
3191.042	0.456	456.0	repeat	Run4	repeat/STIM_009.jpg	100
3194.449	0.593	593.0	repeat	Run4	repeat/STIM_009.jpg	99
3198.25	0.736	735.8	repeat	Run4	repeat/STIM_009.jpg	99
3202.007	0.589	588.8	repeat	Run4	repeat/STIM_009.jpg	99
3205.434	0.57	569.6	repeat	Run4	repeat/STIM_009.jpg	100
3208.887	0.458	457.8	repeat	Run4	repeat/STIM_010.jpg	100
3212.083	0.51	509.6	repeat	Run4	repeat/STIM_010.jpg	99
3215.488	0.779	778.9	repeat	Run4	repeat/STIM_010.jpg	99
3219.868	0.781	781.3	repeat	Run4	repeat/STIM_010.jpg	99
3224.04	0.671	670.9	repeat	Run4	repeat/STIM_010.jpg	100
3228.214	0.764	764.1	repeat	Run4	repeat/STIM_011.jpg	99
3231.483	0.804	804.3	repeat	Run4	repeat/STIM_011.jpg	99
3234.938	0.803	802.6	repeat	Run4	repeat/STIM_011.jpg	100
3238.312	0.795	795.4	repeat	Run4	repeat/STIM_011.jpg	100
3241.614	0.648	647.5	repeat	Run4	repeat/STIM_011.jpg	99
3244.517	0.764	763.9	repeat	Run4	repeat/STIM_012.jpg	100
3247.909	0.653	652.9	repeat	Run4	repeat/STIM_012.jpg	99
3251.352	0.705	704.6	repeat	Run4	repeat/STIM_012.jpg	100
3254.548	0.569	569.2	repeat	Run4	repeat/STIM_012.jpg	99
3257.782	0.753	752.6	repeat	Run4	repeat/STIM_012.jpg	100
3261.049	0.515	515.4	repeat	Run4	repeat/STIM_013.jpg	100
3264.445	0.499	498.8	repeat	Run4	repeat/STIM_013.jpg	100
3267.186	0.642	641.6	repeat	Run4	repeat/STIM_013.jpg	99
3269.835	0.652	651.8	repeat	Run4	repeat/STIM_013.jpg	99
3273.416	0.762	761.6	repeat	Run4	repeat/STIM_013.jpg	100
3277.828	0.84	839.9	repeat	Run4	repeat/STIM_014.jpg	100
3281.4	0.452	451.6	repeat	Run4	repeat/STIM_014.jpg	100
3284.286	0.759	758.9	repeat	Run4	repeat/STIM_014.jpg	100
3288.864	0.585	585.4	repeat	Run4	repeat/STIM_014.jpg	100
3291.751	0.598	598.4	repeat	Run4	repeat/STIM_014.jpg	100
