onset	duration	accuracy	trial_type	learning_stage	stimulus
0.0	2.122	correct	regulate	Run1	regulate/STIM_000.jpg
5.638	1.94	correct	regulate	Run1	regulate/STIM_000.jpg
11.207	1.745	correct	regulate	Run1	regulate/STIM_000.jpg
16.3	2.213	incorrect	regulate	Run1	regulate/STIM_000.jpg
20.557	3.72	incorrect	regulate	Run1	regulate/STIM_001.jpg
27.12	2.155	correct	regulate	Run1	regulate/STIM_001.jpg
32.079	3.353	correct	regulate	Run1	regulate/STIM_001.jpg
39.139	2.086	correct	regulate	Run1	regulate/STIM_001.jpg
43.78	3.613	incorrect	regulate	Run1	regulate/STIM_002.jpg
49.538	3.05	correct	regulate	Run1	regulate/STIM_002.jpg
54.703	3.454	correct	regulate	Run1	regulate/STIM_002.jpg
60.788	1.868	incorrect	regulate	Run1	regulate/STIM_002.jpg
65.853	3.82	correct	regulate	Run1	regulate/STIM_003.jpg
73.47	2.833	incorrect	regulate	Run1	regulate/STIM_003.jpg
79.95	3.12	correct	regulate	Run1	regulate/STIM_003.jpg
86.328	2.535	correct	regulate	Run1	regulate/STIM_003.jpg
91.577	1.884	correct	regulate	Run1	regulate/STIM_004.jpg
95.918	3.603	incorrect	regulate	Run1	regulate/STIM_004.jpg
101.869	2.717	correct	regulate	Run1	regulate/STIM_004.jpg
106.595	1.722	incorrect	regulate	Run1	regulate/STIM_004.jpg
110.923	2.546	correct	regulate	Run1	regulate/STIM_005.jpg
115.496	3.198	correct	regulate	Run1	regulate/STIM_005.jpg
121.429	3.007	correct	regulate	Run1	regulate/STIM_005.jpg
127.681	2.933	incorrect	regulate	Run1	regulate/STIM_005.jpg
134.251	2.027	correct	regulate	Run1	regulate/STIM_006.jpg
140.021	2.292	correct	regulate	Run1	regulate/STIM_006.jpg
144.42	2.816	correct	regulate	Run1	regulate/STIM_006.jpg
149.69	3.067	correct	regulate	Run1	regulate/STIM_006.jpg
155.3	2.012	correct	regulate	Run1	regulate/STIM_007.jpg
159.975	2.266	correct	regulate	Run1	regulate/STIM_007.jpg
164.666	3.278	correct	regulate	Run1	regulate/STIM_007.jpg
171.915	2.87	correct	regulate	Run1	regulate/STIM_007.jpg
176.869	2.419	correct	regulate	Run1	regulate/STIM_008.jpg
182.676	2.779	correct	regulate	Run1	regulate/STIM_008.jpg
189.386	2.801	correct	regulate	Run1	regulate/STIM_008.jpg
195.358	3.182	incorrect	regulate	Run1	regulate/STIM_008.jpg
201.73	2.85	correct	regulate	Run1	regulate/STIM_009.jpg
207.189	2.726	incorrect	regulate	Run1	regulate/STIM_009.jpg
213.55	2.011	correct	regulate	Run1	regulate/STIM_009.jpg
218.618	1.501	correct	regulate	Run1	regulate/STIM_009.jpg
223.247	2.162	correct	regulate	Run1	regulate/STIM_010.jpg
227.905	1.667	correct	regulate	Run1	regulate/STIM_010.jpg
232.284	2.291	incorrect	regulate	Run1	regulate/STIM_010.jpg
237.173	2.949	correct	regulate	Run1	regulate/STIM_010.jpg
243.749	3.84	correct	regulate	Run1	regulate/STIM_011.jpg
250.184	3.22	incorrect	regulate	Run1	regulate/STIM_011.jpg
256.954	1.83	correct	regulate	Run1	regulate/STIM_011.jpg
261.315	1.939	correct	regulate	Run1	regulate/STIM_011.jpg
267.175	3.761	incorrect	regulate	Run1	regulate/STIM_012.jpg
273.829	3.584	correct	regulate	Run1	regulate/STIM_012.jpg
280.637	2.835	correct	regulate	Run1	regulate/STIM_012.jpg
286.423	2.287	correct	regulate	Run1	regulate/STIM_012.jpg
292.205	2.26	correct	regulate	Run1	regulate/STIM_013.jpg
297.979	1.929	correct	regulate	Run1	regulate/STIM_013.jpg
302.436	1.635	correct	regulate	Run1	regulate/STIM_013.jpg
306.584	2.413	incorrect	regulate	Run1	regulate/STIM_013.jpg
312.576	1.916	correct	regulate	Run1	regulate/STIM_014.jpg
318.024	1.655	correct	regulate	Run1	regulate/STIM_014.jpg
321.983	2.595	incorrect	regulate	Run1	regulate/STIM_014.jpg
328.219	3.228	correct	regulate	Run1	regulate/STIM_014.jpg
334.252	3.775	correct	regulate	Run1	regulate/STIM_015.jpg
341.289	3.05	correct	regulate	Run1	regulate/STIM_015.jpg
346.531	3.398	incorrect	regulate	Run1	regulate/STIM_015.jpg
353.685	1.486	incorrect	regulate	Run1	regulate/STIM_015.jpg
357.987	3.176	correct	regulate	Run1	regulate/STIM_016.jpg
364.055	3.589	correct	regulate	Run1	regulate/STIM_016.jpg
370.684	2.525	correct	regulate	Run1	regulate/STIM_016.jpg
376.326	3.215	incorrect	regulate	Run1	regulate/STIM_016.jpg
383.062	3.298	correct	regulate	Run1	regulate/STIM_017.jpg
390.112	2.822	correct	regulate	Run1	regulate/STIM_017.jpg
396.556	1.549	correct	regulate	Run1	regulate/STIM_017.jpg
401.279	2.071	correct	regulate	Run1	regulate/STIM_017.jpg
405.433	2.0	correct	regulate	Run1	regulate/STIM_018.jpg
409.851	3.651	correct	regulate	Run1	regulate/STIM_018.jpg
416.484	3.365	correct	regulate	Run1	regulate/STIM_018.jpg
423.194	2.261	correct	regulate	Run1	regulate/STIM_018.jpg
428.643	1.984	correct	regulate	Run1	regulate/STIM_019.jpg
434.554	3.567	correct	regulate	Run1	regulate/STIM_019.jpg
440.433	1.665	correct	regulate	Run1	regulate/STIM_019.jpg
445.24	2.931	incorrect	regulate	Run1	regulate/STIM_019.jpg
451.046	2.26	incorrect	regulate	Run1	regulate/STIM_020.jpg
456.939	3.805	correct	regulate	Run1	regulate/STIM_020.jpg
463.567	2.632	correct	regulate	Run1	regulate/STIM_020.jpg
470.042	2.578	incorrect	regulate	Run1	regulate/STIM_020.jpg
475.366	2.602	correct	regulate	Run1	regulate/STIM_021.jpg
481.424	2.527	correct	regulate	Run1	regulate/STIM_021.jpg
487.644	3.518	correct	regulate	Run1	regulate/STIM_021.jpg
494.468	2.799	correct	regulate	Run1	regulate/STIM_021.jpg
499.816	1.784	correct	regulate	Run1	regulate/STIM_022.jpg
505.088	3.522	incorrect	regulate	Run1	regulate/STIM_022.jpg
510.653	1.553	correct	regulate	Run1	regulate/STIM_022.jpg
515.68	1.854	correct	regulate	Run1	regulate/STIM_022.jpg
520.457	2.509	correct	regulate	Run1	regulate/STIM_023.jpg
526.106	3.363	correct	regulate	Run1	regulate/STIM_023.jpg
532.586	2.201	correct	regulate	Run1	regulate/STIM_023.jpg
537.547	2.196	correct	regulate	Run1	regulate/STIM_023.jpg
542.098	2.475	correct	regulate	Run1	regulate/STIM_024.jpg
546.686	3.226	correct	regulate	Run1	regulate/STIM_024.jpg
553.381	2.851	correct	regulate	Run1	regulate/STIM_024.jpg
559.095	2.576	correct	regulate	Run1	regulate/STIM_024.jpg
563.83	3.995	correct	regulate	Run1	regulate/STIM_025.jpg
571.075	2.184	incorrect	regulate	Run1	regulate/STIM_025.jpg
576.323	2.006	incorrect	regulate	Run1	regulate/STIM_025.jpg
580.662	3.388	incorrect	regulate	Run1	regulate/STIM_025.jpg
587.586	3.392	correct	regulate	Run1	regulate/STIM_026.jpg
593.947	3.61	correct	regulate	Run1	regulate/STIM_026.jpg
600.812	3.309	correct	regulate	Run1	regulate/STIM_026.jpg
606.585	1.719	correct	regulate	Run1	regulate/STIM_026.jpg
611.496	3.428	incorrect	regulate	Run1	regulate/STIM_027.jpg
618.472	3.5	correct	regulate	Run1	regulate/STIM_027.jpg
625.217	3.326	correct	regulate	Run1	regulate/STIM_027.jpg
632.323	1.475	correct	regulate	Run1	regulate/STIM_027.jpg
635.997	2.714	correct	regulate	Run1	regulate/STIM_028.jpg
641.044	3.527	correct	regulate	Run1	regulate/STIM_028.jpg
647.336	3.161	correct	regulate	Run1	regulate/STIM_028.jpg
653.242	1.658	correct	regulate	Run1	regulate/STIM_028.jpg
657.762	1.968	correct	regulate	Run1	regulate/STIM_029.jpg
662.576	3.65	correct	regulate	Run1	regulate/STIM_029.jpg
669.241	2.735	correct	regulate	Run1	regulate/STIM_029.jpg
674.572	1.553	correct	regulate	Run1	regulate/STIM_029.jpg
679.168	1.371	correct	observe	Run1	observe/STIM_000.jpg
684.478	1.026	correct	observe	Run1	observe/STIM_000.jpg
688.277	1.383	correct	observe	Run1	observe/STIM_000.jpg
692.448	1.428	correct	observe	Run1	observe/STIM_000.jpg
697.543	1.073	correct	observe	Run1	observe/STIM_001.jpg
702.539	1.683	correct	observe	Run1	observe/STIM_001.jpg
707.915	0.967	correct	observe	Run1	observe/STIM_001.jpg
711.951	1.534	correct	observe	Run1	observe/STIM_001.jpg
716.241	1.592	correct	observe	Run1	observe/STIM_002.jpg
720.436	1.53	correct	observe	Run1	observe/STIM_002.jpg
725.907	1.233	correct	observe	Run1	observe/STIM_002.jpg
730.014	1.698	correct	observe	Run1	observe/STIM_002.jpg
734.155	1.134	incorrect	observe	Run1	observe/STIM_003.jpg
739.004	1.128	correct	observe	Run1	observe/STIM_003.jpg
743.082	1.707	correct	observe	Run1	observe/STIM_003.jpg
746.94	1.372	correct	observe	Run1	observe/STIM_003.jpg
752.168	1.58	correct	observe	Run1	observe/STIM_004.jpg
755.833	1.66	incorrect	observe	Run1	observe/STIM_004.jpg
760.474	0.986	correct	observe	Run1	observe/STIM_004.jpg
763.671	1.39	correct	observe	Run1	observe/STIM_004.jpg
768.659	1.423	correct	observe	Run1	observe/STIM_005.jpg
773.944	1.154	correct	observe	Run1	observe/STIM_005.jpg
777.732	1.368	correct	observe	Run1	observe/STIM_005.jpg
781.82	1.712	correct	observe	Run1	observe/STIM_005.jpg
786.633	1.411	correct	observe	Run1	observe/STIM_006.jpg
791.362	1.55	correct	observe	Run1	observe/STIM_006.jpg
795.995	1.576	correct	observe	Run1	observe/STIM_006.jpg
801.528	1.259	correct	observe	Run1	observe/STIM_006.jpg
805.808	1.566	correct	observe	Run1	observe/STIM_007.jpg
811.16	1.305	correct	observe	Run1	observe/STIM_007.jpg
814.973	1.416	incorrect	observe	Run1	observe/STIM_007.jpg
819.993	1.754	correct	observe	Run1	observe/STIM_007.jpg
824.377	1.049	correct	observe	Run1	observe/STIM_008.jpg
828.323	1.797	correct	observe	Run1	observe/STIM_008.jpg
833.331	1.258	correct	observe	Run1	observe/STIM_008.jpg
838.576	1.434	correct	observe	Run1	observe/STIM_008.jpg
842.425	1.733	correct	observe	Run1	observe/STIM_009.jpg
847.33	1.446	correct	observe	Run1	observe/STIM_009.jpg
851.696	1.401	correct	observe	Run1	observe/STIM_009.jpg
856.493	1.014	correct	observe	Run1	observe/STIM_009.jpg
861.061	1.808	incorrect	observe	Run1	observe/STIM_010.jpg
865.22	1.311	correct	observe	Run1	observe/STIM_010.jpg
869.155	1.303	correct	observe	Run1	observe/STIM_010.jpg
874.027	1.329	correct	observe	Run1	observe/STIM_010.jpg
878.645	1.697	correct	observe	Run1	observe/STIM_011.jpg
882.629	1.602	correct	observe	Run1	observe/STIM_011.jpg
888.077	1.335	correct	observe	Run1	observe/STIM_011.jpg
891.756	1.178	correct	observe	Run1	observe/STIM_011.jpg
896.236	1.508	correct	observe	Run1	observe/STIM_012.jpg
901.419	1.17	correct	observe	Run1	observe/STIM_012.jpg
906.281	1.542	correct	observe	Run1	observe/STIM_012.jpg
910.311	1.327	correct	observe	Run1	observe/STIM_012.jpg
914.814	1.112	correct	observe	Run1	observe/STIM_013.jpg
919.433	1.361	correct	observe	Run1	observe/STIM_013.jpg
923.412	1.412	correct	observe	Run1	observe/STIM_013.jpg
928.65	0.925	correct	observe	Run1	observe/STIM_013.jpg
932.48	1.088	correct	observe	Run1	observe/STIM_014.jpg
937.421	1.207	correct	observe	Run1	observe/STIM_014.jpg
942.216	0.996	correct	observe	Run1	observe/STIM_014.jpg
946.075	1.628	correct	observe	Run1	observe/STIM_014.jpg
950.009	1.503	correct	observe	Run1	observe/STIM_015.jpg
954.392	1.237	correct	observe	Run1	observe/STIM_015.jpg
959.216	1.207	correct	observe	Run1	observe/STIM_015.jpg
962.7	1.405	correct	observe	Run1	observe/STIM_015.jpg
967.391	1.158	correct	observe	Run1	observe/STIM_016.jpg
971.617	1.735	correct	observe	Run1	observe/STIM_016.jpg
976.187	0.972	correct	observe	Run1	observe/STIM_016.jpg
980.427	1.181	correct	observe	Run1	observe/STIM_016.jpg
984.991	1.463	incorrect	observe	Run1	observe/STIM_017.jpg
989.936	1.299	correct	observe	Run1	observe/STIM_017.jpg
994.291	1.451	correct	observe	Run1	observe/STIM_017.jpg
999.039	1.315	incorrect	observe	Run1	observe/STIM_017.jpg
1003.121	1.335	correct	observe	Run1	observe/STIM_018.jpg
1006.627	1.67	correct	observe	Run1	observe/STIM_018.jpg
1012.128	1.17	correct	observe	Run1	observe/STIM_018.jpg
1017.069	1.789	correct	observe	Run1	observe/STIM_018.jpg
1021.043	1.524	correct	observe	Run1	observe/STIM_019.jpg
1025.777	1.392	correct	observe	Run1	observe/STIM_019.jpg
1030.982	1.083	correct	observe	Run1	observe/STIM_019.jpg
1035.901	1.073	correct	observe	Run1	observe/STIM_019.jpg
1040.965	3.233	incorrect	regulate	Run2	regulate/STIM_000.jpg
1047.127	2.841	correct	regulate	Run2	regulate/STIM_000.jpg
1053.518	2.365	correct	regulate	Run2	regulate/STIM_000.jpg
1059.19	2.737	correct	regulate	Run2	regulate/STIM_000.jpg
1064.617	3.221	correct	regulate	Run2	regulate/STIM_001.jpg
1071.241	2.958	correct	regulate	Run2	regulate/STIM_001.jpg
1077.263	2.448	correct	regulate	Run2	regulate/STIM_001.jpg
1082.417	1.349	correct	regulate	Run2	regulate/STIM_001.jpg
1087.696	1.784	correct	regulate	Run2	regulate/STIM_002.jpg
1092.93	2.741	incorrect	regulate	Run2	regulate/STIM_002.jpg
1099.639	2.512	correct	regulate	Run2	regulate/STIM_002.jpg
1105.898	2.535	correct	regulate	Run2	regulate/STIM_002.jpg
1111.715	1.985	correct	regulate	Run2	regulate/STIM_003.jpg
1117.169	3.151	correct	regulate	Run2	regulate/STIM_003.jpg
1122.401	2.314	correct	regulate	Run2	regulate/STIM_003.jpg
1128.384	2.543	correct	regulate	Run2	regulate/STIM_003.jpg
1134.643	2.742	correct	regulate	Run2	regulate/STIM_004.jpg
1140.11	2.818	correct	regulate	Run2	regulate/STIM_004.jpg
1145.263	1.526	incorrect	regulate	Run2	regulate/STIM_004.jpg
1150.192	2.451	correct	regulate	Run2	regulate/STIM_004.jpg
1155.48	1.597	correct	regulate	Run2	regulate/STIM_005.jpg
1161.057	1.913	correct	regulate	Run2	regulate/STIM_005.jpg
1166.331	2.461	correct	regulate	Run2	regulate/STIM_005.jpg
1171.326	1.693	correct	regulate	Run2	regulate/STIM_005.jpg
1176.715	1.539	correct	regulate	Run2	regulate/STIM_006.jpg
1180.531	2.886	correct	regulate	Run2	regulate/STIM_006.jpg
1186.826	2.411	correct	regulate	Run2	regulate/STIM_006.jpg
1192.153	2.214	correct	regulate	Run2	regulate/STIM_006.jpg
1197.762	1.965	correct	regulate	Run2	regulate/STIM_007.jpg
1201.73	3.117	correct	regulate	Run2	regulate/STIM_007.jpg
1208.595	2.226	correct	regulate	Run2	regulate/STIM_007.jpg
1213.567	2.249	correct	regulate	Run2	regulate/STIM_007.jpg
1219.38	2.785	correct	regulate	Run2	regulate/STIM_008.jpg
1224.523	2.415	correct	regulate	Run2	regulate/STIM_008.jpg
1229.192	1.684	correct	regulate	Run2	regulate/STIM_008.jpg
1233.928	1.832	correct	regulate	Run2	regulate/STIM_008.jpg
1238.089	1.781	correct	regulate	Run2	regulate/STIM_009.jpg
1242.977	1.852	incorrect	regulate	Run2	regulate/STIM_009.jpg
1247.707	2.593	correct	regulate	Run2	regulate/STIM_009.jpg
1252.578	2.394	correct	regulate	Run2	regulate/STIM_009.jpg
1258.778	2.848	correct	regulate	Run2	regulate/STIM_010.jpg
1263.775	2.019	correct	regulate	Run2	regulate/STIM_010.jpg
1268.888	1.301	correct	regulate	Run2	regulate/STIM_010.jpg
1273.215	2.479	correct	regulate	Run2	regulate/STIM_010.jpg
1279.432	2.115	correct	regulate	Run2	regulate/STIM_011.jpg
1284.732	2.302	correct	regulate	Run2	regulate/STIM_011.jpg
1289.694	2.297	correct	regulate	Run2	regulate/STIM_011.jpg
1294.795	2.692	correct	regulate	Run2	regulate/STIM_011.jpg
1301.189	1.617	correct	regulate	Run2	regulate/STIM_012.jpg
1304.894	2.058	incorrect	regulate	Run2	regulate/STIM_012.jpg
1310.933	1.758	correct	regulate	Run2	regulate/STIM_012.jpg
1316.118	1.603	correct	regulate	Run2	regulate/STIM_012.jpg
1320.666	2.221	correct	regulate	Run2	regulate/STIM_013.jpg
1326.547	3.123	correct	regulate	Run2	regulate/STIM_013.jpg
1332.528	1.784	incorrect	regulate	Run2	regulate/STIM_013.jpg
1338.167	2.248	correct	regulate	Run2	regulate/STIM_013.jpg
1342.96	3.083	correct	regulate	Run2	regulate/STIM_014.jpg
1348.386	2.672	correct	regulate	Run2	regulate/STIM_014.jpg
1354.689	1.957	correct	regulate	Run2	regulate/STIM_014.jpg
1359.775	1.75	correct	regulate	Run2	regulate/STIM_014.jpg
1364.619	2.229	correct	regulate	Run2	regulate/STIM_015.jpg
1370.343	1.562	incorrect	regulate	Run2	regulate/STIM_015.jpg
1374.892	1.315	incorrect	regulate	Run2	regulate/STIM_015.jpg
1379.631	2.409	incorrect	regulate	Run2	regulate/STIM_015.jpg
1384.058	2.64	correct	regulate	Run2	regulate/STIM_016.jpg
1390.304	1.973	correct	regulate	Run2	regulate/STIM_016.jpg
1396.268	2.425	incorrect	regulate	Run2	regulate/STIM_016.jpg
1401.661	2.219	correct	regulate	Run2	regulate/STIM_016.jpg
1406.712	3.376	correct	regulate	Run2	regulate/STIM_017.jpg
1413.199	1.952	correct	regulate	Run2	regulate/STIM_017.jpg
1418.802	2.06	incorrect	regulate	Run2	regulate/STIM_017.jpg
1423.016	2.652	correct	regulate	Run2	regulate/STIM_017.jpg
1428.301	2.222	correct	regulate	Run2	regulate/STIM_018.jpg
1434.076	2.394	correct	regulate	Run2	regulate/STIM_018.jpg
1439.119	2.427	correct	regulate	Run2	regulate/STIM_018.jpg
1444.446	2.612	correct	regulate	Run2	regulate/STIM_018.jpg
1449.92	1.555	incorrect	regulate	Run2	regulate/STIM_019.jpg
1454.599	2.93	correct	regulate	Run2	regulate/STIM_019.jpg
1459.93	1.786	correct	regulate	Run2	regulate/STIM_019.jpg
1464.142	1.207	incorrect	regulate	Run2	regulate/STIM_019.jpg
1467.917	2.345	correct	regulate	Run2	regulate/STIM_020.jpg
1474.055	2.284	correct	regulate	Run2	regulate/STIM_020.jpg
1479.102	1.758	correct	regulate	Run2	regulate/STIM_020.jpg
1484.48	1.316	correct	regulate	Run2	regulate/STIM_020.jpg
1487.808	2.518	correct	regulate	Run2	regulate/STIM_021.jpg
1493.089	3.114	incorrect	regulate	Run2	regulate/STIM_021.jpg
1499.927	1.793	correct	regulate	Run2	regulate/STIM_021.jpg
1505.701	2.717	correct	regulate	Run2	regulate/STIM_021.jpg
1511.507	3.378	correct	regulate	Run2	regulate/STIM_022.jpg
1517.538	2.155	correct	regulate	Run2	regulate/STIM_022.jpg
1522.8	2.853	correct	regulate	Run2	regulate/STIM_022.jpg
1528.683	1.985	correct	regulate	Run2	regulate/STIM_022.jpg
1533.589	1.834	correct	regulate	Run2	regulate/STIM_023.jpg
1538.124	3.044	correct	regulate	Run2	regulate/STIM_023.jpg
1543.267	2.664	correct	regulate	Run2	regulate/STIM_023.jpg
1549.13	1.479	correct	regulate	Run2	regulate/STIM_023.jpg
1553.01	3.196	correct	regulate	Run2	regulate/STIM_024.jpg
1559.876	2.696	correct	regulate	Run2	regulate/STIM_024.jpg
1566.291	2.334	correct	regulate	Run2	regulate/STIM_024.jpg
1571.642	1.492	correct	regulate	Run2	regulate/STIM_024.jpg
1575.647	1.467	correct	regulate	Run2	regulate/STIM_025.jpg
1580.821	1.937	correct	regulate	Run2	regulate/STIM_025.jpg
1585.988	2.878	correct	regulate	Run2	regulate/STIM_025.jpg
1591.013	2.067	correct	regulate	Run2	regulate/STIM_025.jpg
1595.437	2.822	correct	regulate	Run2	regulate/STIM_026.jpg
1600.474	3.02	correct	regulate	Run2	regulate/STIM_026.jpg
1606.766	2.566	correct	regulate	Run2	regulate/STIM_026.jpg
1613.0	2.34	correct	regulate	Run2	regulate/STIM_026.jpg
1619.228	2.82	incorrect	regulate	Run2	regulate/STIM_027.jpg
1625.31	1.78	correct	regulate	Run2	regulate/STIM_027.jpg
1629.219	2.829	correct	regulate	Run2	regulate/STIM_027.jpg
1635.369	1.528	incorrect	regulate	Run2	regulate/STIM_027.jpg
1640.622	2.628	correct	regulate	Run2	regulate/STIM_028.jpg
1646.294	1.649	correct	regulate	Run2	regulate/STIM_028.jpg
1650.843	1.613	correct	regulate	Run2	regulate/STIM_028.jpg
1656.135	1.323	correct	regulate	Run2	regulate/STIM_028.jpg
1661.326	2.123	correct	regulate	Run2	regulate/STIM_029.jpg
1666.172	2.819	correct	regulate	Run2	regulate/STIM_029.jpg
1672.956	1.651	correct	regulate	Run2	regulate/STIM_029.jpg
1677.922	2.189	correct	regulate	Run2	regulate/STIM_029.jpg
1682.414	1.793	correct	observe	Run2	observe/STIM_000.jpg
1686.511	1.189	correct	observe	Run2	observe/STIM_000.jpg
1690.647	1.247	correct	observe	Run2	observe/STIM_000.jpg
1694.258	1.549	correct	observe	Run2	observe/STIM_000.jpg
1699.627	1.109	correct	observe	Run2	observe/STIM_001.jpg
1703.382	1.12	incorrect	observe	Run2	observe/STIM_001.jpg
1707.511	1.15	correct	observe	Run2	observe/STIM_001.jpg
1711.82	0.927	correct	observe	Run2	observe/STIM_001.jpg
1715.091	1.404	correct	observe	Run2	observe/STIM_002.jpg
1719.668	1.368	correct	observe	Run2	observe/STIM_002.jpg
1724.19	1.208	correct	observe	Run2	observe/STIM_002.jpg
1728.017	1.702	correct	observe	Run2	observe/STIM_002.jpg
1733.087	1.471	correct	observe	Run2	observe/STIM_003.jpg
1737.701	1.15	correct	observe	Run2	observe/STIM_003.jpg
1741.809	1.746	correct	observe	Run2	observe/STIM_003.jpg
1747.255	1.461	correct	observe	Run2	observe/STIM_003.jpg
1752.363	1.138	correct	observe	Run2	observe/STIM_004.jpg
1755.931	1.608	incorrect	observe	Run2	observe/STIM_004.jpg
1760.837	1.581	correct	observe	Run2	observe/STIM_004.jpg
1766.348	0.98	incorrect	observe	Run2	observe/STIM_004.jpg
1769.524	1.764	correct	observe	Run2	observe/STIM_005.jpg
1773.978	1.556	correct	observe	Run2	observe/STIM_005.jpg
1779.338	1.422	correct	observe	Run2	observe/STIM_005.jpg
1783.594	1.671	correct	observe	Run2	observe/STIM_005.jpg
1788.45	1.74	correct	observe	Run2	observe/STIM_006.jpg
1792.995	1.209	correct	observe	Run2	observe/STIM_006.jpg
1797.495	1.146	correct	observe	Run2	observe/STIM_006.jpg
1802.244	0.95	correct	observe	Run2	observe/STIM_006.jpg
1805.656	1.307	correct	observe	Run2	observe/STIM_007.jpg
1808.984	1.11	correct	observe	Run2	observe/STIM_007.jpg
1812.573	1.255	correct	observe	Run2	observe/STIM_007.jpg
1817.782	1.412	correct	observe	Run2	observe/STIM_007.jpg
1822.508	1.641	correct	observe	Run2	observe/STIM_008.jpg
1827.752	1.655	correct	observe	Run2	observe/STIM_008.jpg
1831.819	1.458	correct	observe	Run2	observe/STIM_008.jpg
1836.571	1.539	correct	observe	Run2	observe/STIM_008.jpg
1841.342	1.106	incorrect	observe	Run2	observe/STIM_009.jpg
1846.294	1.439	correct	observe	Run2	observe/STIM_009.jpg
1851.657	1.66	correct	observe	Run2	observe/STIM_009.jpg
1857.246	1.36	correct	observe	Run2	observe/STIM_009.jpg
1861.15	1.524	correct	observe	Run2	observe/STIM_010.jpg
1865.681	0.917	correct	observe	Run2	observe/STIM_010.jpg
1869.196	1.158	correct	observe	Run2	observe/STIM_010.jpg
1874.052	1.563	correct	observe	Run2	observe/STIM_010.jpg
1879.072	1.174	correct	observe	Run2	observe/STIM_011.jpg
1883.725	1.697	incorrect	observe	Run2	observe/STIM_011.jpg
1887.439	1.659	correct	observe	Run2	observe/STIM_011.jpg
1892.868	0.973	correct	observe	Run2	observe/STIM_011.jpg
1897.203	1.729	correct	observe	Run2	observe/STIM_012.jpg
1901.44	1.792	correct	observe	Run2	observe/STIM_012.jpg
1905.472	1.538	correct	observe	Run2	observe/STIM_012.jpg
1910.318	1.416	correct	observe	Run2	observe/STIM_012.jpg
1913.924	0.997	correct	observe	Run2	observe/STIM_013.jpg
1918.743	1.661	incorrect	observe	Run2	observe/STIM_013.jpg
1923.92	1.492	incorrect	observe	Run2	observe/STIM_013.jpg
1928.986	1.157	correct	observe	Run2	observe/STIM_013.jpg
1932.749	1.483	correct	observe	Run2	observe/STIM_014.jpg
1936.955	1.453	correct	observe	Run2	observe/STIM_014.jpg
1942.356	1.186	correct	observe	Run2	observe/STIM_014.jpg
1945.953	1.276	incorrect	observe	Run2	observe/STIM_014.jpg
1949.885	1.788	correct	observe	Run2	observe/STIM_015.jpg
1954.221	1.781	correct	observe	Run2	observe/STIM_015.jpg
1958.334	1.136	correct	observe	Run2	observe/STIM_015.jpg
1963.22	1.087	correct	observe	Run2	observe/STIM_015.jpg
1967.223	0.949	correct	observe	Run2	observe/STIM_016.jpg
1970.767	1.818	correct	observe	Run2	observe/STIM_016.jpg
1975.441	1.254	incorrect	observe	Run2	observe/STIM_016.jpg
1980.536	1.226	correct	observe	Run2	observe/STIM_016.jpg
1985.099	1.238	correct	observe	Run2	observe/STIM_017.jpg
1989.87	1.337	correct	observe	Run2	observe/STIM_017.jpg
1994.499	1.516	correct	observe	Run2	observe/STIM_017.jpg
1998.172	1.583	correct	observe	Run2	observe/STIM_017.jpg
2003.228	0.929	incorrect	observe	Run2	observe/STIM_018.jpg
2006.233	1.825	correct	observe	Run2	observe/STIM_018.jpg
2011.263	1.357	correct	observe	Run2	observe/STIM_018.jpg
2014.921	1.312	correct	observe	Run2	observe/STIM_018.jpg
2019.881	1.01	correct	observe	Run2	observe/STIM_019.jpg
2023.191	0.989	correct	observe	Run2	observe/STIM_019.jpg
2026.728	1.67	correct	observe	Run2	observe/STIM_019.jpg
2030.51	1.706	correct	observe	Run2	observe/STIM_019.jpg
2035.607	2.083	incorrect	regulate	Run3	regulate/STIM_000.jpg
2040.94	2.355	correct	regulate	Run3	regulate/STIM_000.jpg
2047.19	2.214	incorrect	regulate	Run3	regulate/STIM_000.jpg
2051.536	1.815	correct	regulate	Run3	regulate/STIM_000.jpg
2056.452	1.915	correct	regulate	Run3	regulate/STIM_001.jpg
2062.305	1.423	correct	regulate	Run3	regulate/STIM_001.jpg
2066.379	2.676	correct	regulate	Run3	regulate/STIM_001.jpg
2072.831	1.694	correct	regulate	Run3	regulate/STIM_001.jpg
2077.056	2.762	correct	regulate	Run3	regulate/STIM_002.jpg
2083.649	2.275	incorrect	regulate	Run3	regulate/STIM_002.jpg
2089.578	2.654	correct	regulate	Run3	regulate/STIM_002.jpg
2095.174	2.086	correct	regulate	Run3	regulate/STIM_002.jpg
2100.923	2.26	correct	regulate	Run3	regulate/STIM_003.jpg
2107.052	2.054	correct	regulate	Run3	regulate/STIM_003.jpg
2113.058	1.373	correct	regulate	Run3	regulate/STIM_003.jpg
2117.54	2.302	correct	regulate	Run3	regulate/STIM_003.jpg
2121.863	2.761	correct	regulate	Run3	regulate/STIM_004.jpg
2127.213	1.896	correct	regulate	Run3	regulate/STIM_004.jpg
2132.266	2.032	correct	regulate	Run3	regulate/STIM_004.jpg
2137.524	2.077	correct	regulate	Run3	regulate/STIM_004.jpg
2142.971	1.688	incorrect	regulate	Run3	regulate/STIM_005.jpg
2147.917	2.593	correct	regulate	Run3	regulate/STIM_005.jpg
2154.012	1.474	correct	regulate	Run3	regulate/STIM_005.jpg
2158.167	2.704	correct	regulate	Run3	regulate/STIM_005.jpg
2163.507	2.055	correct	regulate	Run3	regulate/STIM_006.jpg
2168.812	1.685	correct	regulate	Run3	regulate/STIM_006.jpg
2174.211	2.595	correct	regulate	Run3	regulate/STIM_006.jpg
2179.913	1.506	correct	regulate	Run3	regulate/STIM_006.jpg
2184.312	2.774	correct	regulate	Run3	regulate/STIM_007.jpg
2191.004	2.242	correct	regulate	Run3	regulate/STIM_007.jpg
2196.589	1.457	correct	regulate	Run3	regulate/STIM_007.jpg
2201.375	2.566	correct	regulate	Run3	regulate/STIM_007.jpg
2207.699	1.282	correct	regulate	Run3	regulate/STIM_008.jpg
2211.734	1.877	correct	regulate	Run3	regulate/STIM_008.jpg
2216.278	1.208	correct	regulate	Run3	regulate/STIM_008.jpg
2220.05	1.986	correct	regulate	Run3	regulate/STIM_008.jpg
2224.341	2.694	correct	regulate	Run3	regulate/STIM_009.jpg
2230.632	2.138	correct	regulate	Run3	regulate/STIM_009.jpg
2234.935	2.772	correct	regulate	Run3	regulate/STIM_009.jpg
2239.944	2.295	correct	regulate	Run3	regulate/STIM_009.jpg
2245.581	1.735	correct	regulate	Run3	regulate/STIM_010.jpg
2249.847	1.891	correct	regulate	Run3	regulate/STIM_010.jpg
2255.439	2.781	correct	regulate	Run3	regulate/STIM_010.jpg
2261.228	2.29	correct	regulate	Run3	regulate/STIM_010.jpg
2266.343	1.271	correct	regulate	Run3	regulate/STIM_011.jpg
2270.152	1.459	correct	regulate	Run3	regulate/STIM_011.jpg
2274.349	1.61	correct	regulate	Run3	regulate/STIM_011.jpg
2279.372	2.097	correct	regulate	Run3	regulate/STIM_011.jpg
2285.41	2.228	correct	regulate	Run3	regulate/STIM_012.jpg
2290.914	2.269	correct	regulate	Run3	regulate/STIM_012.jpg
2296.418	2.11	correct	regulate	Run3	regulate/STIM_012.jpg
2302.217	1.312	correct	regulate	Run3	regulate/STIM_012.jpg
2306.375	2.484	correct	regulate	Run3	regulate/STIM_013.jpg
2312.188	2.538	correct	regulate	Run3	regulate/STIM_013.jpg
2318.515	1.805	correct	regulate	Run3	regulate/STIM_013.jpg
2322.419	1.535	correct	regulate	Run3	regulate/STIM_013.jpg
2326.412	2.225	correct	regulate	Run3	regulate/STIM_014.jpg
2331.455	1.588	correct	regulate	Run3	regulate/STIM_014.jpg
2335.147	2.782	correct	regulate	Run3	regulate/STIM_014.jpg
2340.529	1.933	correct	regulate	Run3	regulate/STIM_014.jpg
2345.784	1.742	correct	regulate	Run3	regulate/STIM_015.jpg
2350.956	1.753	incorrect	regulate	Run3	regulate/STIM_015.jpg
2355.621	2.24	correct	regulate	Run3	regulate/STIM_015.jpg
2361.326	1.314	correct	regulate	Run3	regulate/STIM_015.jpg
2365.93	2.306	correct	regulate	Run3	regulate/STIM_016.jpg
2371.625	1.848	correct	regulate	Run3	regulate/STIM_016.jpg
2377.0	2.313	correct	regulate	Run3	regulate/STIM_016.jpg
2382.994	2.026	correct	regulate	Run3	regulate/STIM_016.jpg
2387.668	1.724	correct	regulate	Run3	regulate/STIM_017.jpg
2393.071	1.204	correct	regulate	Run3	regulate/STIM_017.jpg
2397.988	2.013	correct	regulate	Run3	regulate/STIM_017.jpg
2402.131	1.558	correct	regulate	Run3	regulate/STIM_017.jpg
2406.92	2.675	correct	regulate	Run3	regulate/STIM_018.jpg
2411.967	2.645	correct	regulate	Run3	regulate/STIM_018.jpg
2417.708	2.349	correct	regulate	Run3	regulate/STIM_018.jpg
2423.471	2.063	correct	regulate	Run3	regulate/STIM_018.jpg
2427.777	2.116	correct	regulate	Run3	regulate/STIM_019.jpg
2432.666	1.735	correct	regulate	Run3	regulate/STIM_019.jpg
2436.847	1.479	correct	regulate	Run3	regulate/STIM_019.jpg
2441.505	1.801	correct	regulate	Run3	regulate/STIM_019.jpg
2446.693	2.79	correct	regulate	Run3	regulate/STIM_020.jpg
2451.519	2.303	correct	regulate	Run3	regulate/STIM_020.jpg
2457.744	1.804	correct	regulate	Run3	regulate/STIM_020.jpg
2463.451	2.087	correct	regulate	Run3	regulate/STIM_020.jpg
2468.291	2.267	correct	regulate	Run3	regulate/STIM_021.jpg
2472.864	1.614	correct	regulate	Run3	regulate/STIM_021.jpg
2477.018	2.646	correct	regulate	Run3	regulate/STIM_021.jpg
2483.094	1.37	correct	regulate	Run3	regulate/STIM_021.jpg
2488.16	1.482	correct	regulate	Run3	regulate/STIM_022.jpg
2492.936	1.747	correct	regulate	Run3	regulate/STIM_022.jpg
2498.542	2.103	correct	regulate	Run3	regulate/STIM_022.jpg
2503.495	2.219	correct	regulate	Run3	regulate/STIM_022.jpg
2508.247	1.203	incorrect	regulate	Run3	regulate/STIM_023.jpg
2511.868	1.43	correct	regulate	Run3	regulate/STIM_023.jpg
2515.459	2.788	correct	regulate	Run3	regulate/STIM_023.jpg
2520.876	2.633	correct	regulate	Run3	regulate/STIM_023.jpg
2526.375	2.641	correct	regulate	Run3	regulate/STIM_024.jpg
2532.344	2.007	correct	regulate	Run3	regulate/STIM_024.jpg
2536.774	2.527	correct	regulate	Run3	regulate/STIM_024.jpg
2542.334	1.748	correct	regulate	Run3	regulate/STIM_024.jpg
2547.853	2.641	correct	regulate	Run3	regulate/STIM_025.jpg
2553.367	2.745	correct	regulate	Run3	regulate/STIM_025.jpg
2559.44	2.729	correct	regulate	Run3	regulate/STIM_025.jpg
2565.676	1.821	correct	regulate	Run3	regulate/STIM_025.jpg
2569.67	2.375	correct	regulate	Run3	regulate/STIM_026.jpg
2575.275	1.367	correct	regulate	Run3	regulate/STIM_026.jpg
2579.055	2.783	incorrect	regulate	Run3	regulate/STIM_026.jpg
2584.317	1.885	correct	regulate	Run3	regulate/STIM_026.jpg
2588.561	1.741	correct	regulate	Run3	regulate/STIM_027.jpg
2594.276	1.806	correct	regulate	Run3	regulate/STIM_027.jpg
2598.803	2.359	correct	regulate	Run3	regulate/STIM_027.jpg
2603.743	1.306	correct	regulate	Run3	regulate/STIM_027.jpg
2607.913	1.87	correct	regulate	Run3	regulate/STIM_028.jpg
2613.683	1.274	correct	regulate	Run3	regulate/STIM_028.jpg
2617.297	2.151	correct	regulate	Run3	regulate/STIM_028.jpg
2622.824	2.664	correct	regulate	Run3	regulate/STIM_028.jpg
2627.809	1.629	correct	regulate	Run3	regulate/STIM_029.jpg
2631.627	2.004	correct	regulate	Run3	regulate/STIM_029.jpg
2637.009	1.779	correct	regulate	Run3	regulate/STIM_029.jpg
2641.662	2.67	correct	regulate	Run3	regulate/STIM_029.jpg
2647.94	1.818	correct	observe	Run3	observe/STIM_000.jpg
2651.932	1.745	correct	observe	Run3	observe/STIM_000.jpg
2656.649	1.395	correct	observe	Run3	observe/STIM_000.jpg
2661.532	1.321	correct	observe	Run3	observe/STIM_000.jpg
2666.744	1.486	correct	observe	Run3	observe/STIM_001.jpg
2670.565	1.729	correct	observe	Run3	observe/STIM_001.jpg
2675.56	1.794	incorrect	observe	Run3	observe/STIM_001.jpg
2680.45	1.281	correct	observe	Run3	observe/STIM_001.jpg
2684.303	1.664	correct	observe	Run3	observe/STIM_002.jpg
2688.645	1.226	correct	observe	Run3	observe/STIM_002.jpg
2692.626	1.71	correct	observe	Run3	observe/STIM_002.jpg
2697.773	1.049	correct	observe	Run3	observe/STIM_002.jpg
2702.013	1.739	correct	observe	Run3	observe/STIM_003.jpg
2707.563	1.063	correct	observe	Run3	observe/STIM_003.jpg
2712.581	1.739	correct	observe	Run3	observe/STIM_003.jpg
2717.272	1.438	correct	observe	Run3	observe/STIM_003.jpg
2721.724	1.714	correct	observe	Run3	observe/STIM_004.jpg
2726.889	1.155	incorrect	observe	Run3	observe/STIM_004.jpg
2731.778	1.207	correct	observe	Run3	observe/STIM_004.jpg
2736.196	1.307	correct	observe	Run3	observe/STIM_004.jpg
2740.525	1.821	incorrect	observe	Run3	observe/STIM_005.jpg
2745.797	1.112	correct	observe	Run3	observe/STIM_005.jpg
2749.505	1.123	correct	observe	Run3	observe/STIM_005.jpg
2753.474	1.155	correct	observe	Run3	observe/STIM_005.jpg
2757.009	1.176	incorrect	observe	Run3	observe/STIM_006.jpg
2760.454	1.266	incorrect	observe	Run3	observe/STIM_006.jpg
2764.737	1.695	correct	observe	Run3	observe/STIM_006.jpg
2769.717	1.126	correct	observe	Run3	observe/STIM_006.jpg
2774.593	1.374	correct	observe	Run3	observe/STIM_007.jpg
2779.695	1.127	correct	observe	Run3	observe/STIM_007.jpg
2784.593	1.74	correct	observe	Run3	observe/STIM_007.jpg
2789.117	1.532	correct	observe	Run3	observe/STIM_007.jpg
2792.936	1.33	correct	observe	Run3	observe/STIM_008.jpg
2796.683	0.993	correct	observe	Run3	observe/STIM_008.jpg
2801.257	1.682	correct	observe	Run3	observe/STIM_008.jpg
2806.306	1.631	incorrect	observe	Run3	observe/STIM_008.jpg
2811.64	1.826	correct	observe	Run3	observe/STIM_009.jpg
2817.068	1.507	correct	observe	Run3	observe/STIM_009.jpg
2821.034	1.507	correct	observe	Run3	observe/STIM_009.jpg
2825.897	1.214	correct	observe	Run3	observe/STIM_009.jpg
2830.946	1.142	correct	observe	Run3	observe/STIM_010.jpg
2836.073	1.298	correct	observe	Run3	observe/STIM_010.jpg
2840.207	1.511	correct	observe	Run3	observe/STIM_010.jpg
2845.406	1.636	correct	observe	Run3	observe/STIM_010.jpg
2849.07	1.027	incorrect	observe	Run3	observe/STIM_011.jpg
2853.58	1.244	incorrect	observe	Run3	observe/STIM_011.jpg
2857.172	1.684	correct	observe	Run3	observe/STIM_011.jpg
2862.359	1.382	correct	observe	Run3	observe/STIM_011.jpg
2866.6	1.14	correct	observe	Run3	observe/STIM_012.jpg
2870.526	1.328	correct	observe	Run3	observe/STIM_012.jpg
2874.166	1.661	correct	observe	Run3	observe/STIM_012.jpg
2879.341	1.276	correct	observe	Run3	observe/STIM_012.jpg
2883.518	1.465	correct	observe	Run3	observe/STIM_013.jpg
2888.978	1.494	correct	observe	Run3	observe/STIM_013.jpg
2893.957	1.505	correct	observe	Run3	observe/STIM_013.jpg
2898.787	1.094	correct	observe	Run3	observe/STIM_013.jpg
2901.91	1.166	correct	observe	Run3	observe/STIM_014.jpg
2906.462	0.956	correct	observe	Run3	observe/STIM_014.jpg
2910.078	1.132	correct	observe	Run3	observe/STIM_014.jpg
2913.93	1.471	correct	observe	Run3	observe/STIM_014.jpg
2918.406	1.203	correct	observe	Run3	observe/STIM_015.jpg
2921.635	1.659	correct	observe	Run3	observe/STIM_015.jpg
2925.887	1.084	correct	observe	Run3	observe/STIM_015.jpg
2929.544	0.932	correct	observe	Run3	observe/STIM_015.jpg
2933.629	1.293	correct	observe	Run3	observe/STIM_016.jpg
2938.722	1.198	incorrect	observe	Run3	observe/STIM_016.jpg
2943.176	1.09	correct	observe	Run3	observe/STIM_016.jpg
2946.569	0.948	correct	observe	Run3	observe/STIM_016.jpg
2949.667	1.028	correct	observe	Run3	observe/STIM_017.jpg
2952.894	1.628	correct	observe	Run3	observe/STIM_017.jpg
2957.924	1.304	incorrect	observe	Run3	observe/STIM_017.jpg
2962.915	0.999	correct	observe	Run3	observe/STIM_017.jpg
2967.031	0.986	correct	observe	Run3	observe/STIM_018.jpg
2970.797	1.215	correct	observe	Run3	observe/STIM_018.jpg
2975.749	1.436	correct	observe	Run3	observe/STIM_018.jpg
2980.166	0.952	incorrect	observe	Run3	observe/STIM_018.jpg
2983.154	1.226	incorrect	observe	Run3	observe/STIM_019.jpg
2988.248	1.068	correct	observe	Run3	observe/STIM_019.jpg
2992.43	1.261	correct	observe	Run3	observe/STIM_019.jpg
2996.504	1.586	correct	observe	Run3	observe/STIM_019.jpg
