onset	duration	response_time_ms	trial_type	learning_stage	stimulus	response_port
0.0	3.249	3248.7	regulate	Run1	regulate/STIM_000.jpg	99
6.627	2.41	2409.9	regulate	Run1	regulate/STIM_000.jpg	100
12.203	2.974	2974.5	regulate	Run1	regulate/STIM_000.jpg	100
17.241	2.431	2430.7	regulate	Run1	regulate/STIM_000.jpg	100
23.041	2.547	2547.3	regulate	Run1	regulate/STIM_001.jpg	100
28.214	2.38	2379.9	regulate	Run1	regulate/STIM_001.jpg	100
33.658	3.16	3159.7	regulate	Run1	regulate/STIM_001.jpg	100
40.057	1.958	1957.9	regulate	Run1	regulate/STIM_001.jpg	100
44.253	2.481	2480.8	regulate	Run1	regulate/STIM_002.jpg	100
48.727	2.052	2051.8	regulate	Run1	regulate/STIM_002.jpg	99
53.78	2.612	2612.2	regulate	Run1	regulate/STIM_002.jpg	99
60.138	1.413	1413.3	regulate	Run1	regulate/STIM_002.jpg	99
65.35	3.193	3192.9	regulate	Run1	regulate/STIM_003.jpg	99
71.692	1.675	1674.6	regulate	Run1	regulate/STIM_003.jpg	99
76.559	3.208	3208.1	regulate	Run1	regulate/STIM_003.jpg	100
82.819	2.05	2050.0	regulate	Run1	regulate/STIM_003.jpg	99
88.471	3.498	3498.5	regulate	Run1	regulate/STIM_004.jpg	100
94.426	2.18	2179.6	regulate	Run1	regulate/STIM_004.jpg	99
100.333	1.583	1583.0	regulate	Run1	regulate/STIM_004.jpg	100
104.323	2.88	2879.9	regulate	Run1	regulate/STIM_004.jpg	100
109.205	3.359	3358.9	regulate	Run1	regulate/STIM_005.jpg	100
115.212	3.06	3060.5	regulate	Run1	regulate/STIM_005.jpg	99
121.87	1.913	1912.9	regulate	Run1	regulate/STIM_005.jpg	99
127.225	2.726	2726.5	regulate	Run1	regulate/STIM_005.jpg	99
131.853	3.446	3446.1	regulate	Run1	regulate/STIM_006.jpg	100
138.633	3.21	3210.3	regulate	Run1	regulate/STIM_006.jpg	99
145.468	1.976	1975.5	regulate	Run1	regulate/STIM_006.jpg	99
151.109	2.286	2286.1	regulate	Run1	regulate/STIM_006.jpg	99
155.903	3.009	3008.8	regulate	Run1	regulate/STIM_007.jpg	100
162.459	3.024	3024.2	regulate	Run1	regulate/STIM_007.jpg	100
168.858	2.008	2008.3	regulate	Run1	regulate/STIM_007.jpg	99
174.682	2.65	2650.1	regulate	Run1	regulate/STIM_007.jpg	99
179.642	1.763	1763.0	regulate	Run1	regulate/STIM_008.jpg	100
184.967	1.642	1641.9	regulate	Run1	regulate/STIM_008.jpg	100
190.029	2.939	2939.2	regulate	Run1	regulate/STIM_008.jpg	100
196.848	1.557	1556.9	regulate	Run1	regulate/STIM_008.jpg	99
200.547	1.633	1633.2	regulate	Run1	regulate/STIM_009.jpg	99
204.399	2.468	2467.8	regulate	Run1	regulate/STIM_009.jpg	100
209.67	2.568	2568.4	regulate	Run1	regulate/STIM_009.jpg	100
215.076	2.99	2990.4	regulate	Run1	regulate/STIM_009.jpg	100
220.342	2.675	2675.3	regulate	Run1	regulate/STIM_010.jpg	100
226.038	2.414	2414.0	regulate	Run1	regulate/STIM_010.jpg	100
230.708	1.444	1443.5	regulate	Run1	regulate/STIM_010.jpg	99
234.195	2.542	2542.5	regulate	Run1	regulate/STIM_010.jpg	99
239.514	1.945	1945.0	regulate	Run1	regulate/STIM_011.jpg	100
244.506	2.95	2950.0	regulate	Run1	regulate/STIM_011.jpg	99
249.853	2.803	2802.9	regulate	Run1	regulate/STIM_011.jpg	99
256.042	1.876	1875.7	regulate	Run1	regulate/STIM_011.jpg	99
260.776	2.138	2137.5	regulate	Run1	regulate/STIM_012.jpg	100
265.637	1.594	1594.1	regulate	Run1	regulate/STIM_012.jpg	100
270.593	1.874	1874.3	regulate	Run1	regulate/STIM_012.jpg	100
275.228	2.302	2302.0	regulate	Run1	regulate/STIM_012.jpg	99
280.734	2.546	2546.2	regulate	Run1	regulate/STIM_013.jpg	99
285.633	1.538	1538.0	regulate	Run1	regulate/STIM_013.jpg	100
289.761	2.66	2659.8	regulate	Run1	regulate/STIM_013.jpg	99
295.959	2.915	2914.9	regulate	Run1	regulate/STIM_013.jpg	99
302.572	2.364	2363.8	regulate	Run1	regulate/STIM_014.jpg	100
307.789	3.222	3221.5	regulate	Run1	regulate/STIM_014.jpg	99
312.943	1.953	1953.3	regulate	Run1	regulate/STIM_014.jpg	99
318.295	2.301	2300.8	regulate	Run1	regulate/STIM_014.jpg	99
322.749	1.729	1729.4	regulate	Run1	regulate/STIM_015.jpg	100
328.016	1.777	1776.8	regulate	Run1	regulate/STIM_015.jpg	100
331.833	2.992	2991.9	regulate	Run1	regulate/STIM_015.jpg	99
336.732	2.042	2041.7	regulate	Run1	regulate/STIM_015.jpg	100
341.771	3.301	3301.0	regulate	Run1	regulate/STIM_016.jpg	99
347.84	1.671	1671.3	regulate	Run1	regulate/STIM_016.jpg	100
353.12	3.092	3091.7	regulate	Run1	regulate/STIM_016.jpg	99
358.536	2.719	2719.1	regulate	Run1	regulate/STIM_016.jpg	99
363.234	2.247	2247.0	regulate	Run1	regulate/STIM_017.jpg	99
367.615	2.827	2826.8	regulate	Run1	regulate/STIM_017.jpg	99
373.199	1.468	1468.2	regulate	Run1	regulate/STIM_017.jpg	100
377.904	2.876	2876.3	regulate	Run1	regulate/STIM_017.jpg	99
384.578	1.598	1598.1	regulate	Run1	regulate/STIM_018.jpg	100
389.817	1.826	1825.6	regulate	Run1	regulate/STIM_018.jpg	99
394.268	1.482	1482.3	regulate	Run1	regulate/STIM_018.jpg	100
398.294	1.676	1675.9	regulate	Run1	regulate/STIM_018.jpg	99
402.428	3.264	3264.0	regulate	Run1	regulate/STIM_019.jpg	99
407.46	3.414	3413.9	regulate	Run1	regulate/STIM_019.jpg	99
413.172	3.258	3258.4	regulate	Run1	regulate/STIM_019.jpg	99
419.245	1.928	1928.1	regulate	Run1	regulate/STIM_019.jpg	100
424.348	1.644	1644.4	regulate	Run1	regulate/STIM_020.jpg	99
428.795	2.751	2751.1	regulate	Run1	regulate/STIM_020.jpg	100
434.07	3.236	3236.5	regulate	Run1	regulate/STIM_020.jpg	99
439.169	2.586	2585.9	regulate	Run1	regulate/STIM_020.jpg	99
444.433	3.08	3079.8	regulate	Run1	regulate/STIM_021.jpg	99
450.117	2.202	2201.8	regulate	Run1	regulate/STIM_021.jpg	99
454.97	1.724	1724.5	regulate	Run1	regulate/STIM_021.jpg	100
459.625	3.074	3073.8	regulate	Run1	regulate/STIM_021.jpg	99
465.977	2.009	2009.4	regulate	Run1	regulate/STIM_022.jpg	99
471.222	1.654	1654.2	regulate	Run1	regulate/STIM_022.jpg	100
475.245	1.358	1357.7	regulate	Run1	regulate/STIM_022.jpg	99
479.908	1.476	1476.1	regulate	Run1	regulate/STIM_022.jpg	100
484.803	2.547	2546.9	regulate	Run1	regulate/STIM_023.jpg	99
490.895	3.186	3186.4	regulate	Run1	regulate/STIM_023.jpg	100
497.57	3.092	3092.2	regulate	Run1	regulate/STIM_023.jpg	100
504.464	1.937	1936.7	regulate	Run1	regulate/STIM_023.jpg	99
509.048	2.734	2734.0	regulate	Run1	regulate/STIM_024.jpg	100
515.247	1.99	1990.3	regulate	Run1	regulate/STIM_024.jpg	99
519.293	2.421	2420.6	regulate	Run1	regulate/STIM_024.jpg	99
525.246	2.165	2165.0	regulate	Run1	regulate/STIM_024.jpg	100
530.437	2.914	2914.2	regulate	Run1	regulate/STIM_025.jpg	100
536.002	2.519	2519.0	regulate	Run1	regulate/STIM_025.jpg	100
542.417	2.58	2579.7	regulate	Run1	regulate/STIM_025.jpg	99
547.148	1.428	1428.0	regulate	Run1	regulate/STIM_025.jpg	100
551.867	3.575	3575.0	regulate	Run1	regulate/STIM_026.jpg	99
557.893	2.823	2822.9	regulate	Run1	regulate/STIM_026.jpg	100
564.571	1.727	1726.7	regulate	Run1	regulate/STIM_026.jpg	99
569.525	2.73	2729.8	regulate	Run1	regulate/STIM_026.jpg	99
574.284	3.044	3044.3	regulate	Run1	regulate/STIM_027.jpg	100
580.51	1.542	1541.6	regulate	Run1	regulate/STIM_027.jpg	100
584.955	1.358	1357.9	regulate	Run1	regulate/STIM_027.jpg	99
588.365	1.407	1406.8	regulate	Run1	regulate/STIM_027.jpg	99
592.096	3.661	3661.4	regulate	Run1	regulate/STIM_028.jpg	100
599.5	3.016	3015.7	regulate	Run1	regulate/STIM_028.jpg	100
606.378	1.85	1849.8	regulate	Run1	regulate/STIM_028.jpg	100
611.63	2.126	2126.5	regulate	Run1	regulate/STIM_028.jpg	100
617.534	1.646	1645.8	regulate	Run1	regulate/STIM_029.jpg	99
622.282	2.161	2161.4	regulate	Run1	regulate/STIM_029.jpg	99
626.775	2.27	2269.7	regulate	Run1	regulate/STIM_029.jpg	99
631.406	1.87	1869.5	regulate	Run1	regulate/STIM_029.jpg	99
635.579	1.266	1265.8	observe	Run1	observe/STIM_000.jpg	99
639.671	1.034	1034.5	observe	Run1	observe/STIM_000.jpg	100
642.985	1.578	1578.5	observe	Run1	observe/STIM_000.jpg	99
647.64	1.628	1627.7	observe	Run1	observe/STIM_000.jpg	99
651.652	1.668	1668.1	observe	Run1	observe/STIM_001.jpg	99
655.734	1.315	1314.8	observe	Run1	observe/STIM_001.jpg	99
659.615	0.858	857.6	observe	Run1	observe/STIM_001.jpg	99
663.099	0.915	915.4	observe	Run1	observe/STIM_001.jpg	99
667.298	1.567	1566.8	observe	Run1	observe/STIM_002.jpg	100
671.755	1.109	1108.7	observe	Run1	observe/STIM_002.jpg	100
675.464	1.069	1068.6	observe	Run1	observe/STIM_002.jpg	99
680.021	1.153	1152.6	observe	Run1	observe/STIM_002.jpg	99
684.4	0.864	864.2	observe	Run1	observe/STIM_003.jpg	100
688.032	1.206	1206.2	observe	Run1	observe/STIM_003.jpg	100
693.018	1.569	1569.4	observe	Run1	observe/STIM_003.jpg	100
697.021	1.18	1179.7	observe	Run1	observe/STIM_003.jpg	99
700.437	1.095	1095.1	observe	Run1	observe/STIM_004.jpg	100
704.983	1.3	1299.7	observe	Run1	observe/STIM_004.jpg	99
708.521	1.108	1108.0	observe	Run1	observe/STIM_004.jpg	99
713.151	0.839	839.1	observe	Run1	observe/STIM_004.jpg	99
716.94	1.179	1179.4	observe	Run1	observe/STIM_005.jpg	99
721.798	1.666	1665.8	observe	Run1	observe/STIM_005.jpg	100
725.344	1.319	1319.2	observe	Run1	observe/STIM_005.jpg	100
729.15	1.479	1478.7	observe	Run1	observe/STIM_005.jpg	99
732.687	1.33	1329.6	observe	Run1	observe/STIM_006.jpg	100
737.834	0.866	865.6	observe	Run1	observe/STIM_006.jpg	99
741.091	1.316	1316.5	observe	Run1	observe/STIM_006.jpg	100
745.509	1.642	1642.1	observe	Run1	observe/STIM_006.jpg	100
749.425	0.906	905.7	observe	Run1	observe/STIM_007.jpg	100
752.599	1.254	1253.5	observe	Run1	observe/STIM_007.jpg	100
757.524	1.166	1165.7	observe	Run1	observe/STIM_007.jpg	99
761.445	1.408	1408.0	observe	Run1	observe/STIM_007.jpg	100
766.69	1.284	1283.6	observe	Run1	observe/STIM_008.jpg	99
770.671	0.928	927.7	observe	Run1	observe/STIM_008.jpg	99
774.288	1.162	1161.9	observe	Run1	observe/STIM_008.jpg	99
777.827	1.194	1193.6	observe	Run1	observe/STIM_008.jpg	100
781.74	1.033	1032.8	observe	Run1	observe/STIM_009.jpg	100
785.689	1.31	1310.3	observe	Run1	observe/STIM_009.jpg	100
789.789	1.254	1254.1	observe	Run1	observe/STIM_009.jpg	100
793.051	1.133	1133.2	observe	Run1	observe/STIM_009.jpg	99
797.572	1.304	1304.1	observe	Run1	observe/STIM_010.jpg	99
800.998	1.616	1616.3	observe	Run1	observe/STIM_010.jpg	99
806.374	0.882	882.1	observe	Run1	observe/STIM_010.jpg	100
810.147	1.722	1722.5	observe	Run1	observe/STIM_010.jpg	99
814.487	1.357	1357.2	observe	Run1	observe/STIM_011.jpg	100
818.437	1.498	1498.0	observe	Run1	observe/STIM_011.jpg	100
822.02	0.983	983.3	observe	Run1	observe/STIM_011.jpg	100
826.478	0.851	851.1	observe	Run1	observe/STIM_011.jpg	99
830.941	1.449	1448.7	observe	Run1	observe/STIM_012.jpg	100
835.535	1.118	1118.1	observe	Run1	observe/STIM_012.jpg	99
839.452	1.47	1470.5	observe	Run1	observe/STIM_012.jpg	99
843.916	1.338	1338.5	observe	Run1	observe/STIM_012.jpg	100
848.51	1.487	1486.7	observe	Run1	observe/STIM_013.jpg	99
852.691	0.958	957.7	observe	Run1	observe/STIM_013.jpg	99
855.943	1.014	1014.0	observe	Run1	observe/STIM_013.jpg	100
860.717	0.98	980.2	observe	Run1	observe/STIM_013.jpg	100
865.735	1.462	1461.7	observe	Run1	observe/STIM_014.jpg	99
870.097	1.266	1266.2	observe	Run1	observe/STIM_014.jpg	100
873.301	1.22	1220.3	observe	Run1	observe/STIM_014.jpg	100
876.545	1.088	1088.5	observe	Run1	observe/STIM_014.jpg	99
880.193	1.478	1478.0	observe	Run1	observe/STIM_015.jpg	100
885.09	0.946	946.5	observe	Run1	observe/STIM_015.jpg	99
888.628	1.517	1517.0	observe	Run1	observe/STIM_015.jpg	100
893.521	1.058	1058.1	observe	Run1	observe/STIM_015.jpg	99
896.799	1.498	1498.2	observe	Run1	observe/STIM_016.jpg	99
901.2	1.01	1010.5	observe	Run1	observe/STIM_016.jpg	99
905.173	0.968	967.6	observe	Run1	observe/STIM_016.jpg	100
908.313	0.932	931.8	observe	Run1	observe/STIM_016.jpg	99
912.971	1.504	1503.6	observe	Run1	observe/STIM_017.jpg	99
918.053	1.474	1474.3	observe	Run1	observe/STIM_017.jpg	100
921.534	1.16	1160.0	observe	Run1	observe/STIM_017.jpg	100
925.695	1.527	1526.8	observe	Run1	observe/STIM_017.jpg	99
929.428	0.952	952.2	observe	Run1	observe/STIM_018.jpg	100
933.005	1.578	1577.7	observe	Run1	observe/STIM_018.jpg	100
938.117	1.522	1521.9	observe	Run1	observe/STIM_018.jpg	100
942.545	1.183	1182.6	observe	Run1	observe/STIM_018.jpg	100
946.959	0.937	937.3	observe	Run1	observe/STIM_019.jpg	99
951.205	1.57	1569.9	observe	Run1	observe/STIM_019.jpg	99
956.645	1.014	1014.3	observe	Run1	observe/STIM_019.jpg	100
960.968	1.376	1376.0	observe	Run1	observe/STIM_019.jpg	100
966.057	1.542	1541.9	regulate	Run2	regulate/STIM_000.jpg	100
971.138	1.79	1789.5	regulate	Run2	regulate/STIM_000.jpg	100
975.835	1.234	1233.6	regulate	Run2	regulate/STIM_000.jpg	100
979.098	1.503	1503.1	regulate	Run2	regulate/STIM_000.jpg	100
982.687	1.592	1592.0	regulate	Run2	regulate/STIM_001.jpg	100
987.321	2.711	2710.9	regulate	Run2	regulate/STIM_001.jpg	100
992.199	1.723	1723.3	regulate	Run2	regulate/STIM_001.jpg	99
995.931	2.373	2372.8	regulate	Run2	regulate/STIM_001.jpg	100
1001.487	3.021	3020.8	regulate	Run2	regulate/STIM_002.jpg	100
1006.857	2.701	2701.2	regulate	Run2	regulate/STIM_002.jpg	100
1012.288	1.862	1861.7	regulate	Run2	regulate/STIM_002.jpg	99
1017.994	1.891	1890.9	regulate	Run2	regulate/STIM_002.jpg	99
1022.357	1.303	1302.6	regulate	Run2	regulate/STIM_003.jpg	100
1025.985	1.332	1332.5	regulate	Run2	regulate/STIM_003.jpg	99
1030.386	1.88	1880.5	regulate	Run2	regulate/STIM_003.jpg	99
1035.58	1.105	1105.4	regulate	Run2	regulate/STIM_003.jpg	99
1040.254	1.921	1921.2	regulate	Run2	regulate/STIM_004.jpg	100
1044.057	2.341	2340.6	regulate	Run2	regulate/STIM_004.jpg	100
1048.445	1.533	1532.6	regulate	Run2	regulate/STIM_004.jpg	99
1053.959	1.522	1521.9	regulate	Run2	regulate/STIM_004.jpg	100
1057.54	1.765	1764.9	regulate	Run2	regulate/STIM_005.jpg	100
1062.194	1.619	1618.6	regulate	Run2	regulate/STIM_005.jpg	100
1066.079	1.61	1610.0	regulate	Run2	regulate/STIM_005.jpg	100
1071.087	1.683	1683.3	regulate	Run2	regulate/STIM_005.jpg	99
1076.636	2.712	2712.4	regulate	Run2	regulate/STIM_006.jpg	99
1081.591	1.667	1666.8	regulate	Run2	regulate/STIM_006.jpg	99
1085.214	2.548	2548.5	regulate	Run2	regulate/STIM_006.jpg	99
1090.577	1.373	1373.4	regulate	Run2	regulate/STIM_006.jpg	100
1095.066	2.548	2548.1	regulate	Run2	regulate/STIM_007.jpg	100
1100.839	1.495	1495.2	regulate	Run2	regulate/STIM_007.jpg	99
1105.781	2.36	2360.5	regulate	Run2	regulate/STIM_007.jpg	100
1111.43	2.502	2501.6	regulate	Run2	regulate/STIM_007.jpg	100
1117.771	2.789	2788.7	regulate	Run2	regulate/STIM_008.jpg	99
1123.931	2.162	2161.8	regulate	Run2	regulate/STIM_008.jpg	100
1128.849	1.563	1563.2	regulate	Run2	regulate/STIM_008.jpg	99
1133.956	2.476	2476.2	regulate	Run2	regulate/STIM_008.jpg	100
1138.701	3.143	3142.7	regulate	Run2	regulate/STIM_009.jpg	100
1143.814	1.326	1326.2	regulate	Run2	regulate/STIM_009.jpg	100
1147.87	1.218	1217.7	regulate	Run2	regulate/STIM_009.jpg	100
1151.6	1.65	1650.2	regulate	Run2	regulate/STIM_009.jpg	99
1156.843	1.658	1657.5	regulate	Run2	regulate/STIM_010.jpg	99
1162.046	1.488	1488.3	regulate	Run2	regulate/STIM_010.jpg	99
1167.333	2.601	2600.9	regulate	Run2	regulate/STIM_010.jpg	99
1172.648	2.221	2221.3	regulate	Run2	regulate/STIM_010.jpg	99
1178.565	3.126	3126.3	regulate	Run2	regulate/STIM_011.jpg	100
1183.802	2.268	2268.0	regulate	Run2	regulate/STIM_011.jpg	99
1189.625	2.799	2799.3	regulate	Run2	regulate/STIM_011.jpg	100
1195.572	1.5	1499.8	regulate	Run2	regulate/STIM_011.jpg	100
1200.89	2.559	2559.3	regulate	Run2	regulate/STIM_012.jpg	100
1205.874	2.752	2751.8	regulate	Run2	regulate/STIM_012.jpg	99
1212.267	1.266	1266.1	regulate	Run2	regulate/STIM_012.jpg	99
1215.983	1.593	1593.3	regulate	Run2	regulate/STIM_012.jpg	99
1220.242	1.463	1463.1	regulate	Run2	regulate/STIM_013.jpg	100
1224.724	2.234	2234.2	regulate	Run2	regulate/STIM_013.jpg	100
1229.033	2.076	2076.5	regulate	Run2	regulate/STIM_013.jpg	100
1234.751	1.979	1978.7	regulate	Run2	regulate/STIM_013.jpg	99
1239.262	2.494	2493.5	regulate	Run2	regulate/STIM_014.jpg	99
1245.217	1.85	1850.3	regulate	Run2	regulate/STIM_014.jpg	100
1250.298	1.524	1524.1	regulate	Run2	regulate/STIM_014.jpg	100
1253.905	2.273	2272.8	regulate	Run2	regulate/STIM_014.jpg	99
1258.626	1.682	1681.6	regulate	Run2	regulate/STIM_015.jpg	99
1264.195	1.68	1679.5	regulate	Run2	regulate/STIM_015.jpg	99
1267.857	1.699	1699.1	regulate	Run2	regulate/STIM_015.jpg	100
1273.49	1.634	1634.2	regulate	Run2	regulate/STIM_015.jpg	100
1279.04	3.042	3041.6	regulate	Run2	regulate/STIM_016.jpg	100
1284.548	1.79	1789.7	regulate	Run2	regulate/STIM_016.jpg	99
1288.638	1.862	1862.1	regulate	Run2	regulate/STIM_016.jpg	100
1293.167	1.377	1376.6	regulate	Run2	regulate/STIM_016.jpg	99
1296.743	2.588	2587.9	regulate	Run2	regulate/STIM_017.jpg	100
1301.244	2.109	2108.6	regulate	Run2	regulate/STIM_017.jpg	99
1306.16	1.457	1456.6	regulate	Run2	regulate/STIM_017.jpg	100
1310.367	1.844	1843.9	regulate	Run2	regulate/STIM_017.jpg	99
1315.828	2.419	2418.6	regulate	Run2	regulate/STIM_018.jpg	99
1321.924	2.302	2301.5	regulate	Run2	regulate/STIM_018.jpg	99
1327.672	2.42	2419.6	regulate	Run2	regulate/STIM_018.jpg	100
1332.461	1.179	1179.3	regulate	Run2	regulate/STIM_018.jpg	100
1337.518	1.802	1801.9	regulate	Run2	regulate/STIM_019.jpg	99
1341.476	1.895	1894.7	regulate	Run2	regulate/STIM_019.jpg	99
1347.149	2.159	2159.0	regulate	Run2	regulate/STIM_019.jpg	100
1352.518	2.251	2251.3	regulate	Run2	regulate/STIM_019.jpg	100
1358.243	1.685	1684.8	regulate	Run2	regulate/STIM_020.jpg	99
1362.551	1.211	1210.9	regulate	Run2	regulate/STIM_020.jpg	99
1366.742	2.647	2647.4	regulate	Run2	regulate/STIM_020.jpg	99
1372.232	2.104	2104.4	regulate	Run2	regulate/STIM_020.jpg	99
1376.628	2.328	2328.2	regulate	Run2	regulate/STIM_021.jpg	100
1381.899	1.681	1680.8	regulate	Run2	regulate/STIM_021.jpg	100
1386.521	1.675	1675.4	regulate	Run2	regulate/STIM_021.jpg	99
1390.497	1.863	1862.6	regulate	Run2	regulate/STIM_021.jpg	100
1395.586	1.834	1834.1	regulate	Run2	regulate/STIM_022.jpg	100
1400.424	2.216	2216.5	regulate	Run2	regulate/STIM_022.jpg	99
1404.591	2.433	2433.4	regulate	Run2	regulate/STIM_022.jpg	100
1410.045	2.081	2081.1	regulate	Run2	regulate/STIM_022.jpg	99
1414.643	2.672	2672.0	regulate	Run2	regulate/STIM_023.jpg	100
1419.505	1.485	1485.3	regulate	Run2	regulate/STIM_023.jpg	100
1423.163	2.629	2629.3	regulate	Run2	regulate/STIM_023.jpg	100
1428.412	1.532	1531.7	regulate	Run2	regulate/STIM_023.jpg	100
1433.788	1.85	1850.0	regulate	Run2	regulate/STIM_024.jpg	99
1438.956	2.401	2401.3	regulate	Run2	regulate/STIM_024.jpg	100
1443.213	2.381	2381.4	regulate	Run2	regulate/STIM_024.jpg	99
1448.247	1.898	1898.3	regulate	Run2	regulate/STIM_024.jpg	100
1452.185	1.764	1763.5	regulate	Run2	regulate/STIM_025.jpg	100
1457.629	2.381	2381.4	regulate	Run2	regulate/STIM_025.jpg	100
1463.233	2.012	2011.7	regulate	Run2	regulate/STIM_025.jpg	100
1468.032	2.396	2396.3	regulate	Run2	regulate/STIM_025.jpg	100
1474.193	2.958	2958.0	regulate	Run2	regulate/STIM_026.jpg	99
1479.359	2.894	2894.2	regulate	Run2	regulate/STIM_026.jpg	100
1484.084	1.339	1339.3	regulate	Run2	regulate/STIM_026.jpg	100
1488.949	2.43	2430.3	regulate	Run2	regulate/STIM_026.jpg	99
1494.39	2.857	2857.3	regulate	Run2	regulate/STIM_027.jpg	100
1500.122	1.415	1415.1	regulate	Run2	regulate/STIM_027.jpg	100
1505.237	2.588	2588.4	regulate	Run2	regulate/STIM_027.jpg	100
1510.026	2.384	2384.0	regulate	Run2	regulate/STIM_027.jpg	99
1515.225	1.899	1899.3	regulate	Run2	regulate/STIM_028.jpg	99
1520.791	2.809	2809.0	regulate	Run2	regulate/STIM_028.jpg	100
1527.435	1.689	1689.3	regulate	Run2	regulate/STIM_028.jpg	100
1531.271	1.602	1602.2	regulate	Run2	regulate/STIM_028.jpg	100
1535.35	1.699	1699.4	regulate	Run2	regulate/STIM_029.jpg	99
1540.224	1.704	1704.2	regulate	Run2	regulate/STIM_029.jpg	100
1544.837	2.599	2599.0	regulate	Run2	regulate/STIM_029.jpg	100
1550.705	1.52	1519.9	regulate	Run2	regulate/STIM_029.jpg	100
1555.376	1.597	1597.0	observe	Run2	observe/STIM_000.jpg	100
1559.788	1.242	1242.4	observe	Run2	observe/STIM_000.jpg	100
1563.514	1.204	1203.8	observe	Run2	observe/STIM_000.jpg	100
1567.218	0.975	975.3	observe	Run2	observe/STIM_000.jpg	99
1571.055	1.574	1574.1	observe	Run2	observe/STIM_001.jpg	99
1575.583	0.962	962.2	observe	Run2	observe/STIM_001.jpg	100
1580.426	1.282	1281.6	observe	Run2	observe/STIM_001.jpg	99
1585.384	1.147	1146.9	observe	Run2	observe/STIM_001.jpg	99
1589.55	1.12	1119.6	observe	Run2	observe/STIM_002.jpg	100
1593.754	1.248	1247.5	observe	Run2	observe/STIM_002.jpg	100
1598.474	1.651	1651.3	observe	Run2	observe/STIM_002.jpg	99
1602.173	1.323	1322.8	observe	Run2	observe/STIM_002.jpg	100
1607.378	1.538	1537.5	observe	Run2	observe/STIM_003.jpg	100
1611.271	1.551	1551.0	observe	Run2	observe/STIM_003.jpg	100
1614.949	1.184	1184.5	observe	Run2	observe/STIM_003.jpg	99
1618.68	1.128	1127.9	observe	Run2	observe/STIM_003.jpg	99
1622.545	1.674	1674.5	observe	Run2	observe/STIM_004.jpg	100
1627.888	1.626	1626.5	observe	Run2	observe/STIM_004.jpg	100
1631.556	1.095	1095.4	observe	Run2	observe/STIM_004.jpg	100
1634.658	1.408	1408.1	observe	Run2	observe/STIM_004.jpg	100
1639.519	1.302	1302.1	observe	Run2	observe/STIM_005.jpg	99
1644.412	1.524	1524.4	observe	Run2	observe/STIM_005.jpg	100
1649.75	0.933	933.1	observe	Run2	observe/STIM_005.jpg	100
1653.564	0.964	963.6	observe	Run2	observe/STIM_005.jpg	100
1658.099	0.939	939.0	observe	Run2	observe/STIM_006.jpg	99
1661.519	1.123	1123.1	observe	Run2	observe/STIM_006.jpg	100
1666.296	1.624	1624.3	observe	Run2	observe/STIM_006.jpg	100
1670.694	1.599	1598.9	observe	Run2	observe/STIM_006.jpg	100
1674.409	0.853	853.3	observe	Run2	observe/STIM_007.jpg	100
1677.733	1.191	1191.1	observe	Run2	observe/STIM_007.jpg	99
1681.545	1.496	1496.4	observe	Run2	observe/STIM_007.jpg	100
1685.164	0.898	897.8	observe	Run2	observe/STIM_007.jpg	99
1688.526	1.398	1397.8	observe	Run2	observe/STIM_008.jpg	100
1692.838	1.29	1290.3	observe	Run2	observe/STIM_008.jpg	99
1696.323	1.311	1311.0	observe	Run2	observe/STIM_008.jpg	100
1700.914	1.586	1586.3	observe	Run2	observe/STIM_008.jpg	100
1706.358	0.945	945.4	observe	Run2	observe/STIM_009.jpg	100
1711.094	1.663	1663.3	observe	Run2	observe/STIM_009.jpg	100
1715.613	1.272	1271.9	observe	Run2	observe/STIM_009.jpg	99
1720.562	1.588	1587.7	observe	Run2	observe/STIM_009.jpg	100
1725.371	1.103	1103.3	observe	Run2	observe/STIM_010.jpg	99
1729.684	1.323	1322.6	observe	Run2	observe/STIM_010.jpg	99
1734.332	1.268	1268.3	observe	Run2	observe/STIM_010.jpg	99
1738.685	1.262	1262.1	observe	Run2	observe/STIM_010.jpg	99
1743.716	1.686	1685.7	observe	Run2	observe/STIM_011.jpg	99
1748.011	1.243	1243.1	observe	Run2	observe/STIM_011.jpg	100
1751.301	1.03	1030.5	observe	Run2	observe/STIM_011.jpg	100
1754.362	1.591	1591.4	observe	Run2	observe/STIM_011.jpg	100
1758.685	1.038	1038.5	observe	Run2	observe/STIM_012.jpg	100
1763.03	0.902	901.6	observe	Run2	observe/STIM_012.jpg	99
1766.215	1.106	1105.7	observe	Run2	observe/STIM_012.jpg	100
1771.051	1.579	1578.6	observe	Run2	observe/STIM_012.jpg	99
1775.3	1.298	1298.2	observe	Run2	observe/STIM_013.jpg	100
1779.102	1.237	1236.6	observe	Run2	observe/STIM_013.jpg	99
1782.512	1.116	1116.3	observe	Run2	observe/STIM_013.jpg	100
1786.861	1.306	1306.4	observe	Run2	observe/STIM_013.jpg	100
1791.72	1.337	1336.6	observe	Run2	observe/STIM_014.jpg	99
1796.224	1.006	1005.7	observe	Run2	observe/STIM_014.jpg	100
1799.369	1.484	1484.1	observe	Run2	observe/STIM_014.jpg	99
1804.043	1.305	1305.2	observe	Run2	observe/STIM_014.jpg	100
1807.48	1.26	1259.6	observe	Run2	observe/STIM_015.jpg	100
1812.096	0.824	824.3	observe	Run2	observe/STIM_015.jpg	99
1816.27	1.058	1057.8	observe	Run2	observe/STIM_015.jpg	100
1820.474	1.526	1526.1	observe	Run2	observe/STIM_015.jpg	99
1825.681	1.268	1268.2	observe	Run2	observe/STIM_016.jpg	100
1830.396	1.553	1553.2	observe	Run2	observe/STIM_016.jpg	99
1835.123	0.999	999.2	observe	Run2	observe/STIM_016.jpg	100
1839.7	1.597	1596.8	observe	Run2	observe/STIM_016.jpg	99
1843.755	1.157	1156.6	observe	Run2	observe/STIM_017.jpg	99
1847.521	1.232	1231.8	observe	Run2	observe/STIM_017.jpg	99
1851.355	1.076	1076.3	observe	Run2	observe/STIM_017.jpg	100
1855.554	1.114	1113.6	observe	Run2	observe/STIM_017.jpg	100
1859.019	1.191	1191.4	observe	Run2	observe/STIM_018.jpg	100
1864.034	1.607	1607.1	observe	Run2	observe/STIM_018.jpg	100
1868.439	1.317	1316.6	observe	Run2	observe/STIM_018.jpg	99
1872.638	1.588	1588.3	observe	Run2	observe/STIM_018.jpg	100
1876.936	1.156	1155.5	observe	Run2	observe/STIM_019.jpg	100
1881.441	1.217	1216.9	observe	Run2	observe/STIM_019.jpg	100
1886.435	1.337	1337.2	observe	Run2	observe/STIM_019.jpg	99
1891.112	1.005	1005.0	observe	Run2	observe/STIM_019.jpg	99
1894.95	2.39	2389.6	regulate	Run3	regulate/STIM_000.jpg	100
1899.965	2.215	2215.1	regulate	Run3	regulate/STIM_000.jpg	100
1904.303	2.265	2264.7	regulate	Run3	regulate/STIM_000.jpg	99
1909.244	2.305	2304.9	regulate	Run3	regulate/STIM_000.jpg	100
1914.568	1.637	1637.0	regulate	Run3	regulate/STIM_001.jpg	100
1920.038	2.124	2123.6	regulate	Run3	regulate/STIM_001.jpg	100
1925.744	2.002	2001.6	regulate	Run3	regulate/STIM_001.jpg	100
1929.908	1.788	1788.2	regulate	Run3	regulate/STIM_001.jpg	100
1933.762	1.934	1934.0	regulate	Run3	regulate/STIM_002.jpg	100
1938.408	2.215	2214.8	regulate	Run3	regulate/STIM_002.jpg	99
1942.623	1.37	1370.1	regulate	Run3	regulate/STIM_002.jpg	99
1945.937	2.08	2079.6	regulate	Run3	regulate/STIM_002.jpg	100
1950.527	1.591	1591.1	regulate	Run3	regulate/STIM_003.jpg	99
1954.863	2.45	2449.8	regulate	Run3	regulate/STIM_003.jpg	100
1961.007	1.36	1359.5	regulate	Run3	regulate/STIM_003.jpg	100
1965.266	1.509	1509.0	regulate	Run3	regulate/STIM_003.jpg	99
1970.054	2.061	2061.3	regulate	Run3	regulate/STIM_004.jpg	100
1975.571	1.627	1627.1	regulate	Run3	regulate/STIM_004.jpg	100
1980.604	1.498	1497.8	regulate	Run3	regulate/STIM_004.jpg	99
1984.819	2.427	2427.4	regulate	Run3	regulate/STIM_004.jpg	99
1990.27	1.237	1236.8	regulate	Run3	regulate/STIM_005.jpg	100
1994.035	1.644	1644.2	regulate	Run3	regulate/STIM_005.jpg	99
1999.358	2.175	2175.4	regulate	Run3	regulate/STIM_005.jpg	99
2005.321	2.421	2420.9	regulate	Run3	regulate/STIM_005.jpg	99
2010.535	2.341	2341.4	regulate	Run3	regulate/STIM_006.jpg	100
2015.624	2.083	2082.9	regulate	Run3	regulate/STIM_006.jpg	99
2020.759	1.365	1364.6	regulate	Run3	regulate/STIM_006.jpg	100
2025.342	2.068	2067.9	regulate	Run3	regulate/STIM_006.jpg	99
2030.33	1.122	1122.0	regulate	Run3	regulate/STIM_007.jpg	99
2035.511	1.133	1133.0	regulate	Run3	regulate/STIM_007.jpg	99
2040.61	2.284	2284.5	regulate	Run3	regulate/STIM_007.jpg	99
2045.714	1.386	1386.5	regulate	Run3	regulate/STIM_007.jpg	100
2050.012	2.062	2062.0	regulate	Run3	regulate/STIM_008.jpg	100
2054.958	2.344	2344.1	regulate	Run3	regulate/STIM_008.jpg	100
2061.017	1.602	1602.1	regulate	Run3	regulate/STIM_008.jpg	100
2065.712	2.12	2119.7	regulate	Run3	regulate/STIM_008.jpg	100
2069.963	1.145	1145.2	regulate	Run3	regulate/STIM_009.jpg	99
2074.873	1.288	1287.6	regulate	Run3	regulate/STIM_009.jpg	100
2078.688	1.778	1777.8	regulate	Run3	regulate/STIM_009.jpg	100
2082.576	2.068	2068.4	regulate	Run3	regulate/STIM_009.jpg	99
2087.351	1.9	1899.7	regulate	Run3	regulate/STIM_010.jpg	100
2091.757	1.428	1428.2	regulate	Run3	regulate/STIM_010.jpg	100
2095.67	1.971	1971.1	regulate	Run3	regulate/STIM_010.jpg	99
2100.295	2.39	2389.7	regulate	Run3	regulate/STIM_010.jpg	99
2105.689	2.212	2211.9	regulate	Run3	regulate/STIM_011.jpg	99
2110.646	1.316	1316.1	regulate	Run3	regulate/STIM_011.jpg	100
2115.783	1.244	1243.7	regulate	Run3	regulate/STIM_011.jpg	99
2119.572	1.935	1934.6	regulate	Run3	regulate/STIM_011.jpg	99
2124.168	2.226	2225.7	regulate	Run3	regulate/STIM_012.jpg	99
2129.766	1.664	1663.9	regulate	Run3	regulate/STIM_012.jpg	99
2133.925	1.346	1346.2	regulate	Run3	regulate/STIM_012.jpg	100
2139.068	1.483	1482.9	regulate	Run3	regulate/STIM_012.jpg	100
2143.893	1.999	1999.3	regulate	Run3	regulate/STIM_013.jpg	100
2149.708	1.82	1819.8	regulate	Run3	regulate/STIM_013.jpg	100
2155.208	2.408	2407.5	regulate	Run3	regulate/STIM_013.jpg	100
2161.252	1.737	1737.0	regulate	Run3	regulate/STIM_013.jpg	100
2166.694	2.616	2616.3	regulate	Run3	regulate/STIM_014.jpg	99
2172.572	1.313	1313.2	regulate	Run3	regulate/STIM_014.jpg	100
2176.468	2.219	2219.3	regulate	Run3	regulate/STIM_014.jpg	99
2181.446	1.462	1461.7	regulate	Run3	regulate/STIM_014.jpg	100
2185.47	1.315	1315.4	regulate	Run3	regulate/STIM_015.jpg	99
2188.658	1.417	1416.9	regulate	Run3	regulate/STIM_015.jpg	99
2193.308	1.363	1362.9	regulate	Run3	regulate/STIM_015.jpg	99
2198.442	1.919	1919.4	regulate	Run3	regulate/STIM_015.jpg	99
2202.904	1.25	1249.5	regulate	Run3	regulate/STIM_016.jpg	100
2207.305	1.694	1693.5	regulate	Run3	regulate/STIM_016.jpg	100
2212.679	1.908	1907.5	regulate	Run3	regulate/STIM_016.jpg	100
2218.016	1.677	1676.6	regulate	Run3	regulate/STIM_016.jpg	100
2222.043	1.179	1178.7	regulate	Run3	regulate/STIM_017.jpg	99
2226.098	2.031	2030.9	regulate	Run3	regulate/STIM_017.jpg	99
2230.347	2.275	2274.8	regulate	Run3	regulate/STIM_017.jpg	99
2236.057	1.423	1423.4	regulate	Run3	regulate/STIM_017.jpg	100
2240.069	1.757	1757.2	regulate	Run3	regulate/STIM_018.jpg	99
2244.62	1.266	1265.8	regulate	Run3	regulate/STIM_018.jpg	99
2247.858	2.051	2050.7	regulate	Run3	regulate/STIM_018.jpg	99
2252.343	2.143	2143.0	regulate	Run3	regulate/STIM_018.jpg	100
2257.784	2.423	2423.3	regulate	Run3	regulate/STIM_019.jpg	99
2263.249	2.198	2197.7	regulate	Run3	regulate/STIM_019.jpg	100
2268.845	1.934	1934.0	regulate	Run3	regulate/STIM_019.jpg	100
2274.389	1.399	1399.4	regulate	Run3	regulate/STIM_019.jpg	100
2278.306	1.796	1795.8	regulate	Run3	regulate/STIM_020.jpg	99
2283.528	2.098	2098.3	regulate	Run3	regulate/STIM_020.jpg	99
2287.706	1.531	1530.8	regulate	Run3	regulate/STIM_020.jpg	100
2292.336	1.262	1262.3	regulate	Run3	regulate/STIM_020.jpg	100
2297.552	1.181	1181.4	regulate	Run3	regulate/STIM_021.jpg	100
2302.512	1.19	1190.5	regulate	Run3	regulate/STIM_021.jpg	100
2306.932	2.488	2488.4	regulate	Run3	regulate/STIM_021.jpg	100
2312.974	2.08	2079.8	regulate	Run3	regulate/STIM_021.jpg	99
2317.698	1.494	1493.7	regulate	Run3	regulate/STIM_022.jpg	99
2322.448	1.9	1900.1	regulate	Run3	regulate/STIM_022.jpg	100
2327.951	1.447	1446.7	regulate	Run3	regulate/STIM_022.jpg	100
2332.576	2.071	2070.6	regulate	Run3	regulate/STIM_022.jpg	100
2336.618	2.102	2102.2	regulate	Run3	regulate/STIM_023.jpg	99
2340.76	1.89	1890.2	regulate	Run3	regulate/STIM_023.jpg	99
2345.805	2.31	2310.5	regulate	Run3	regulate/STIM_023.jpg	100
2351.322	1.907	1907.4	regulate	Run3	regulate/STIM_023.jpg	100
2355.334	1.775	1775.2	regulate	Run3	regulate/STIM_024.jpg	100
2359.322	2.141	2141.3	regulate	Run3	regulate/STIM_024.jpg	99
2365.083	1.248	1248.4	regulate	Run3	regulate/STIM_024.jpg	100
2369.672	2.244	2244.0	regulate	Run3	regulate/STIM_024.jpg	100
2375.587	2.196	2195.6	regulate	Run3	regulate/STIM_025.jpg	100
2381.495	1.449	1448.7	regulate	Run3	regulate/STIM_025.jpg	99
2385.778	1.665	1665.1	regulate	Run3	regulate/STIM_025.jpg	100
2391.268	1.678	1677.9	regulate	Run3	regulate/STIM_025.jpg	100
2395.218	2.022	2021.8	regulate	Run3	regulate/STIM_026.jpg	100
2400.33	2.404	2403.7	regulate	Run3	regulate/STIM_026.jpg	99
2405.581	2.446	2445.7	regulate	Run3	regulate/STIM_026.jpg	100
2411.086	2.279	2278.7	regulate	Run3	regulate/STIM_026.jpg	99
2416.252	2.342	2342.1	regulate	Run3	regulate/STIM_027.jpg	99
2421.382	1.852	1852.0	regulate	Run3	regulate/STIM_027.jpg	100
2426.24	1.194	1194.1	regulate	Run3	regulate/STIM_027.jpg	100
2429.59	1.242	1242.5	regulate	Run3	regulate/STIM_027.jpg	100
2433.115	2.043	2043.2	regulate	Run3	regulate/STIM_028.jpg	100
2438.897	1.798	1797.9	regulate	Run3	regulate/STIM_028.jpg	99
2443.553	1.446	1445.6	regulate	Run3	regulate/STIM_028.jpg	99
2447.45	2.413	2412.7	regulate	Run3	regulate/STIM_028.jpg	99
2451.916	2.121	2121.2	regulate	Run3	regulate/STIM_029.jpg	100
2457.566	1.228	1228.0	regulate	Run3	regulate/STIM_029.jpg	99
2462.029	1.469	1469.2	regulate	Run3	regulate/STIM_029.jpg	99
2466.867	2.428	2427.9	regulate	Run3	regulate/STIM_029.jpg	100
2472.759	1.243	1243.4	observe	Run3	observe/STIM_000.jpg	99
2477.182	0.817	817.2	observe	Run3	observe/STIM_000.jpg	100
2481.422	1.46	1460.0	observe	Run3	observe/STIM_000.jpg	99
2486.065	0.818	817.7	observe	Run3	observe/STIM_000.jpg	100
2490.428	0.975	975.1	observe	Run3	observe/STIM_001.jpg	100
2494.172	1.212	1212.4	observe	Run3	observe/STIM_001.jpg	99
2498.321	1.275	1275.2	observe	Run3	observe/STIM_001.jpg	100
2501.914	1.131	1131.3	observe	Run3	observe/STIM_001.jpg	100
2505.156	0.898	898.1	observe	Run3	observe/STIM_002.jpg	100
2508.813	0.878	878.3	observe	Run3	observe/STIM_002.jpg	100
2512.591	0.929	928.9	observe	Run3	observe/STIM_002.jpg	99
2515.918	1.015	1015.4	observe	Run3	observe/STIM_002.jpg	100
2520.805	0.921	920.9	observe	Run3	observe/STIM_003.jpg	100
2525.151	1.61	1610.0	observe	Run3	observe/STIM_003.jpg	99
2528.878	1.055	1054.8	observe	Run3	observe/STIM_003.jpg	99
2532.625	0.822	822.2	observe	Run3	observe/STIM_003.jpg	99
2536.466	1.26	1259.8	observe	Run3	observe/STIM_004.jpg	100
2539.877	1.098	1097.5	observe	Run3	observe/STIM_004.jpg	100
2544.036	1.25	1249.5	observe	Run3	observe/STIM_004.jpg	100
2547.379	1.418	1417.9	observe	Run3	observe/STIM_004.jpg	100
2551.36	1.298	1297.9	observe	Run3	observe/STIM_005.jpg	100
2555.404	1.075	1074.7	observe	Run3	observe/STIM_005.jpg	99
2560.138	1.536	1536.5	observe	Run3	observe/STIM_005.jpg	100
2563.918	1.313	1312.6	observe	Run3	observe/STIM_005.jpg	99
2567.132	1.411	1410.8	observe	Run3	observe/STIM_006.jpg	99
2572.088	1.466	1465.6	observe	Run3	observe/STIM_006.jpg	100
2576.97	1.478	1477.8	observe	Run3	observe/STIM_006.jpg	99
2581.907	0.94	939.5	observe	Run3	observe/STIM_006.jpg	100
2585.506	1.253	1252.8	observe	Run3	observe/STIM_007.jpg	99
2589.813	0.928	928.2	observe	Run3	observe/STIM_007.jpg	100
2593.832	1.456	1456.3	observe	Run3	observe/STIM_007.jpg	99
2597.992	1.006	1005.8	observe	Run3	observe/STIM_007.jpg	99
2601.41	1.229	1229.2	observe	Run3	observe/STIM_008.jpg	99
2605.085	1.161	1161.1	observe	Run3	observe/STIM_008.jpg	99
2608.231	0.81	810.2	observe	Run3	observe/STIM_008.jpg	99
2612.482	1.127	1127.3	observe	Run3	observe/STIM_008.jpg	99
2616.443	1.499	1498.9	observe	Run3	observe/STIM_009.jpg	100
2621.562	1.491	1490.7	observe	Run3	observe/STIM_009.jpg	99
2625.206	1.338	1337.9	observe	Run3	observe/STIM_009.jpg	99
2629.988	0.985	984.6	observe	Run3	observe/STIM_009.jpg	99
2634.57	1.089	1089.0	observe	Run3	observe/STIM_010.jpg	100
2639.241	1.639	1639.4	observe	Run3	observe/STIM_010.jpg	99
2642.842	1.507	1507.2	observe	Run3	observe/STIM_010.jpg	100
2647.768	1.342	1341.7	observe	Run3	observe/STIM_010.jpg	100
2651.624	0.967	966.8	observe	Run3	observe/STIM_011.jpg	100
2655.338	0.825	824.7	observe	Run3	observe/STIM_011.jpg	100
2659.036	0.81	810.2	observe	Run3	observe/STIM_011.jpg	100
2663.441	1.265	1264.9	observe	Run3	observe/STIM_011.jpg	99
2667.76	1.242	1241.8	observe	Run3	observe/STIM_012.jpg	99
2672.213	1.412	1411.7	observe	Run3	observe/STIM_012.jpg	99
2677.032	1.199	1199.2	observe	Run3	observe/STIM_012.jpg	100
2680.18	0.996	996.0	observe	Run3	observe/STIM_012.jpg	100
2684.232	1.166	1166.4	observe	Run3	observe/STIM_013.jpg	99
2688.322	1.566	1566.3	observe	Run3	observe/STIM_013.jpg	99
2691.852	1.034	1034.5	observe	Run3	observe/STIM_013.jpg	99
2695.784	1.082	1082.2	observe	Run3	observe/STIM_013.jpg	99
2699.408	1.567	1566.7	observe	Run3	observe/STIM_014.jpg	100
2703.055	1.185	1185.1	observe	Run3	observe/STIM_014.jpg	99
2707.234	0.897	897.0	observe	Run3	observe/STIM_014.jpg	99
2710.302	1.412	1412.4	observe	Run3	observe/STIM_014.jpg	100
2715.348	1.636	1636.5	observe	Run3	observe/STIM_015.jpg	99
2720.031	1.106	1106.4	observe	Run3	observe/STIM_015.jpg	100
2724.502	0.977	977.2	observe	Run3	observe/STIM_015.jpg	100
2728.367	1.465	1464.9	observe	Run3	observe/STIM_015.jpg	99
2732.894	1.613	1613.1	observe	Run3	observe/STIM_016.jpg	99
2738.457	1.5	1499.7	observe	Run3	observe/STIM_016.jpg	100
2743.193	1.069	1069.2	observe	Run3	observe/STIM_016.jpg	99
2748.224	1.204	1203.9	observe	Run3	observe/STIM_016.jpg	100
2752.201	0.842	841.6	observe	Run3	observe/STIM_017.jpg	99
2756.324	1.148	1147.6	observe	Run3	observe/STIM_017.jpg	99
2759.755	1.624	1623.9	observe	Run3	observe/STIM_017.jpg	100
2764.533	1.14	1140.3	observe	Run3	observe/STIM_017.jpg	99
2769.257	1.288	1287.7	observe	Run3	observe/STIM_018.jpg	100
2773.496	1.736	1736.5	observe	Run3	observe/STIM_018.jpg	100
2778.627	1.557	1556.9	observe	Run3	observe/STIM_018.jpg	100
2782.163	0.846	845.6	observe	Run3	observe/STIM_018.jpg	100
2785.542	1.031	1031.4	observe	Run3	observe/STIM_019.jpg	100
2790.315	0.912	911.8	observe	Run3	observe/STIM_019.jpg	99
2793.762	1.188	1187.9	observe	Run3	observe/STIM_019.jpg	100
2797.265	1.184	1184.1	observe	Run3	observe/STIM_019.jpg	100
