onset	duration	response_time_ms	trial_type	learning_stage	stimulus	response_port
0.0	2.122	2121.8	regulate	Run1	regulate/STIM_000.jpg	99
5.638	1.94	1940.2	regulate	Run1	regulate/STIM_000.jpg	100
11.207	1.745	1744.9	regulate	Run1	regulate/STIM_000.jpg	100
16.3	2.213	2212.9	regulate	Run1	regulate/STIM_000.jpg	100
20.557	3.72	3720.2	regulate	Run1	regulate/STIM_001.jpg	100
27.12	2.155	2155.0	regulate	Run1	regulate/STIM_001.jpg	100
32.079	3.353	3353.1	regulate	Run1	regulate/STIM_001.jpg	100
39.139	2.086	2086.0	regulate	Run1	regulate/STIM_001.jpg	100
43.78	3.613	3612.6	regulate	Run1	regulate/STIM_002.jpg	100
49.538	3.05	3050.2	regulate	Run1	regulate/STIM_002.jpg	99
54.703	3.454	3453.5	regulate	Run1	regulate/STIM_002.jpg	99
60.788	1.868	1867.6	regulate	Run1	regulate/STIM_002.jpg	99
65.853	3.82	3819.8	regulate	Run1	regulate/STIM_003.jpg	99
73.47	2.833	2833.2	regulate	Run1	regulate/STIM_003.jpg	99
79.95	3.12	3120.1	regulate	Run1	regulate/STIM_003.jpg	100
86.328	2.535	2535.1	regulate	Run1	regulate/STIM_003.jpg	99
91.577	1.884	1884.2	regulate	Run1	regulate/STIM_004.jpg	100
95.918	3.603	3602.7	regulate	Run1	regulate/STIM_004.jpg	99
101.869	2.717	2717.0	regulate	Run1	regulate/STIM_004.jpg	100
106.595	1.722	1722.5	regulate	Run1	regulate/STIM_004.jpg	100
110.923	2.546	2546.4	regulate	Run1	regulate/STIM_005.jpg	100
115.496	3.198	3198.3	regulate	Run1	regulate/STIM_005.jpg	99
121.429	3.007	3007.0	regulate	Run1	regulate/STIM_005.jpg	99
127.681	2.933	2933.1	regulate	Run1	regulate/STIM_005.jpg	99
134.251	2.027	2026.9	regulate	Run1	regulate/STIM_006.jpg	100
140.021	2.292	2291.5	regulate	Run1	regulate/STIM_006.jpg	99
144.42	2.816	2816.4	regulate	Run1	regulate/STIM_006.jpg	99
149.69	3.067	3067.1	regulate	Run1	regulate/STIM_006.jpg	99
155.3	2.012	2012.4	regulate	Run1	regulate/STIM_007.jpg	100
159.975	2.266	2266.1	regulate	Run1	regulate/STIM_007.jpg	100
164.666	3.278	3277.6	regulate	Run1	regulate/STIM_007.jpg	99
171.915	2.87	2870.1	regulate	Run1	regulate/STIM_007.jpg	99
176.869	2.419	2419.4	regulate	Run1	regulate/STIM_008.jpg	100
182.676	2.779	2779.0	regulate	Run1	regulate/STIM_008.jpg	100
189.386	2.801	2801.1	regulate	Run1	regulate/STIM_008.jpg	100
195.358	3.182	3182.1	regulate	Run1	regulate/STIM_008.jpg	99
201.73	2.85	2850.2	regulate	Run1	regulate/STIM_009.jpg	99
207.189	2.726	2725.7	regulate	Run1	regulate/STIM_009.jpg	100
213.55	2.011	2011.5	regulate	Run1	regulate/STIM_009.jpg	100
218.618	1.501	1501.2	regulate	Run1	regulate/STIM_009.jpg	100
223.247	2.162	2162.4	regulate	Run1	regulate/STIM_010.jpg	100
227.905	1.667	1666.8	regulate	Run1	regulate/STIM_010.jpg	100
232.284	2.291	2291.2	regulate	Run1	regulate/STIM_010.jpg	99
237.173	2.949	2948.8	regulate	Run1	regulate/STIM_010.jpg	99
243.749	3.84	3839.9	regulate	Run1	regulate/STIM_011.jpg	100
250.184	3.22	3220.4	regulate	Run1	regulate/STIM_011.jpg	99
256.954	1.83	1830.2	regulate	Run1	regulate/STIM_011.jpg	99
261.315	1.939	1938.8	regulate	Run1	regulate/STIM_011.jpg	99
267.175	3.761	3761.2	regulate	Run1	regulate/STIM_012.jpg	100
273.829	3.584	3583.6	regulate	Run1	regulate/STIM_012.jpg	100
280.637	2.835	2835.4	regulate	Run1	regulate/STIM_012.jpg	100
286.423	2.287	2286.6	regulate	Run1	regulate/STIM_012.jpg	99
292.205	2.26	2259.5	regulate	Run1	regulate/STIM_013.jpg	99
297.979	1.929	1929.3	regulate	Run1	regulate/STIM_013.jpg	100
302.436	1.635	1634.8	regulate	Run1	regulate/STIM_013.jpg	99
306.584	2.413	2413.1	regulate	Run1	regulate/STIM_013.jpg	99
312.576	1.916	1915.5	regulate	Run1	regulate/STIM_014.jpg	100
318.024	1.655	1655.1	regulate	Run1	regulate/STIM_014.jpg	99
321.983	2.595	2594.9	regulate	Run1	regulate/STIM_014.jpg	99
328.219	3.228	3228.4	regulate	Run1	regulate/STIM_014.jpg	99
334.252	3.775	3775.3	regulate	Run1	regulate/STIM_015.jpg	100
341.289	3.05	3050.4	regulate	Run1	regulate/STIM_015.jpg	100
346.531	3.398	3397.7	regulate	Run1	regulate/STIM_015.jpg	99
353.685	1.486	1485.9	regulate	Run1	regulate/STIM_015.jpg	100
357.987	3.176	3175.9	regulate	Run1	regulate/STIM_016.jpg	99
364.055	3.589	3588.6	regulate	Run1	regulate/STIM_016.jpg	100
370.684	2.525	2524.7	regulate	Run1	regulate/STIM_016.jpg	99
376.326	3.215	3215.3	regulate	Run1	regulate/STIM_016.jpg	99
383.062	3.298	3298.5	regulate	Run1	regulate/STIM_017.jpg	99
390.112	2.822	2821.7	regulate	Run1	regulate/STIM_017.jpg	99
396.556	1.549	1549.2	regulate	Run1	regulate/STIM_017.jpg	100
401.279	2.071	2071.0	regulate	Run1	regulate/STIM_017.jpg	99
405.433	2.0	1999.6	regulate	Run1	regulate/STIM_018.jpg	100
409.851	3.651	3651.0	regulate	Run1	regulate/STIM_018.jpg	99
416.484	3.365	3365.4	regulate	Run1	regulate/STIM_018.jpg	100
423.194	2.261	2261.3	regulate	Run1	regulate/STIM_018.jpg	99
428.643	1.984	1984.5	regulate	Run1	regulate/STIM_019.jpg	99
434.554	3.567	3566.8	regulate	Run1	regulate/STIM_019.jpg	99
440.433	1.665	1665.2	regulate	Run1	regulate/STIM_019.jpg	99
445.24	2.931	2930.9	regulate	Run1	regulate/STIM_019.jpg	100
451.046	2.26	2260.0	regulate	Run1	regulate/STIM_020.jpg	99
456.939	3.805	3805.3	regulate	Run1	regulate/STIM_020.jpg	100
463.567	2.632	2631.7	regulate	Run1	regulate/STIM_020.jpg	99
470.042	2.578	2577.7	regulate	Run1	regulate/STIM_020.jpg	99
475.366	2.602	2601.5	regulate	Run1	regulate/STIM_021.jpg	99
481.424	2.527	2526.6	regulate	Run1	regulate/STIM_021.jpg	99
487.644	3.518	3517.9	regulate	Run1	regulate/STIM_021.jpg	100
494.468	2.799	2798.8	regulate	Run1	regulate/STIM_021.jpg	99
499.816	1.784	1784.0	regulate	Run1	regulate/STIM_022.jpg	99
505.088	3.522	3522.0	regulate	Run1	regulate/STIM_022.jpg	100
510.653	1.553	1552.8	regulate	Run1	regulate/STIM_022.jpg	99
515.68	1.854	1853.6	regulate	Run1	regulate/STIM_022.jpg	100
520.457	2.509	2509.3	regulate	Run1	regulate/STIM_023.jpg	99
526.106	3.363	3363.4	regulate	Run1	regulate/STIM_023.jpg	100
532.586	2.201	2201.4	regulate	Run1	regulate/STIM_023.jpg	100
537.547	2.196	2195.5	regulate	Run1	regulate/STIM_023.jpg	99
542.098	2.475	2475.4	regulate	Run1	regulate/STIM_024.jpg	100
546.686	3.226	3225.8	regulate	Run1	regulate/STIM_024.jpg	99
553.381	2.851	2850.8	regulate	Run1	regulate/STIM_024.jpg	99
559.095	2.576	2576.2	regulate	Run1	regulate/STIM_024.jpg	100
563.83	3.995	3994.8	regulate	Run1	regulate/STIM_025.jpg	100
571.075	2.184	2184.1	regulate	Run1	regulate/STIM_025.jpg	100
576.323	2.006	2005.6	regulate	Run1	regulate/STIM_025.jpg	99
580.662	3.388	3388.3	regulate	Run1	regulate/STIM_025.jpg	100
587.586	3.392	3391.9	regulate	Run1	regulate/STIM_026.jpg	99
593.947	3.61	3609.8	regulate	Run1	regulate/STIM_026.jpg	100
600.812	3.309	3308.7	regulate	Run1	regulate/STIM_026.jpg	99
606.585	1.719	1718.6	regulate	Run1	regulate/STIM_026.jpg	99
611.496	3.428	3428.2	regulate	Run1	regulate/STIM_027.jpg	100
618.472	3.5	3499.9	regulate	Run1	regulate/STIM_027.jpg	100
625.217	3.326	3326.2	regulate	Run1	regulate/STIM_027.jpg	99
632.323	1.475	1475.0	regulate	Run1	regulate/STIM_027.jpg	99
635.997	2.714	2714.2	regulate	Run1	regulate/STIM_028.jpg	100
641.044	3.527	3527.0	regulate	Run1	regulate/STIM_028.jpg	100
647.336	3.161	3161.2	regulate	Run1	regulate/STIM_028.jpg	100
653.242	1.658	1657.7	regulate	Run1	regulate/STIM_028.jpg	100
657.762	1.968	1967.9	regulate	Run1	regulate/STIM_029.jpg	99
662.576	3.65	3649.7	regulate	Run1	regulate/STIM_029.jpg	99
669.241	2.735	2734.9	regulate	Run1	regulate/STIM_029.jpg	99
674.572	1.553	1552.7	regulate	Run1	regulate/STIM_029.jpg	99
679.168	1.371	1371.1	observe	Run1	observe/STIM_000.jpg	99
684.478	1.026	1026.1	observe	Run1	observe/STIM_000.jpg	100
688.277	1.383	1382.6	observe	Run1	observe/STIM_000.jpg	99
692.448	1.428	1428.2	observe	Run1	observe/STIM_000.jpg	99
697.543	1.073	1073.3	observe	Run1	observe/STIM_001.jpg	99
702.539	1.683	1682.8	observe	Run1	observe/STIM_001.jpg	99
707.915	0.967	967.1	observe	Run1	observe/STIM_001.jpg	99
711.951	1.534	1534.1	observe	Run1	observe/STIM_001.jpg	99
716.241	1.592	1592.2	observe	Run1	observe/STIM_002.jpg	100
720.436	1.53	1529.5	observe	Run1	observe/STIM_002.jpg	100
725.907	1.233	1232.6	observe	Run1	observe/STIM_002.jpg	99
730.014	1.698	1698.0	observe	Run1	observe/STIM_002.jpg	99
734.155	1.134	1134.4	observe	Run1	observe/STIM_003.jpg	100
739.004	1.128	1128.5	observe	Run1	observe/STIM_003.jpg	100
743.082	1.707	1706.6	observe	Run1	observe/STIM_003.jpg	100
746.94	1.372	1372.2	observe	Run1	observe/STIM_003.jpg	99
752.168	1.58	1580.2	observe	Run1	observe/STIM_004.jpg	100
755.833	1.66	1660.2	observe	Run1	observe/STIM_004.jpg	99
760.474	0.986	986.3	observe	Run1	observe/STIM_004.jpg	99
763.671	1.39	1389.6	observe	Run1	observe/STIM_004.jpg	99
768.659	1.423	1422.7	observe	Run1	observe/STIM_005.jpg	99
773.944	1.154	1154.1	observe	Run1	observe/STIM_005.jpg	100
777.732	1.368	1367.8	observe	Run1	observe/STIM_005.jpg	100
781.82	1.712	1712.4	observe	Run1	observe/STIM_005.jpg	99
786.633	1.411	1410.7	observe	Run1	observe/STIM_006.jpg	100
791.362	1.55	1549.5	observe	Run1	observe/STIM_006.jpg	99
795.995	1.576	1575.7	observe	Run1	observe/STIM_006.jpg	100
801.528	1.259	1259.4	observe	Run1	observe/STIM_006.jpg	100
805.808	1.566	1565.9	observe	Run1	observe/STIM_007.jpg	100
811.16	1.305	1304.9	observe	Run1	observe/STIM_007.jpg	100
814.973	1.416	1415.6	observe	Run1	observe/STIM_007.jpg	99
819.993	1.754	1753.9	observe	Run1	observe/STIM_007.jpg	100
824.377	1.049	1048.7	observe	Run1	observe/STIM_008.jpg	99
828.323	1.797	1796.6	observe	Run1	observe/STIM_008.jpg	99
833.331	1.258	1258.2	observe	Run1	observe/STIM_008.jpg	99
838.576	1.434	1434.3	observe	Run1	observe/STIM_008.jpg	100
842.425	1.733	1732.6	observe	Run1	observe/STIM_009.jpg	100
847.33	1.446	1446.1	observe	Run1	observe/STIM_009.jpg	100
851.696	1.401	1401.4	observe	Run1	observe/STIM_009.jpg	100
856.493	1.014	1013.5	observe	Run1	observe/STIM_009.jpg	99
861.061	1.808	1807.7	observe	Run1	observe/STIM_010.jpg	99
865.22	1.311	1310.7	observe	Run1	observe/STIM_010.jpg	99
869.155	1.303	1303.0	observe	Run1	observe/STIM_010.jpg	100
874.027	1.329	1328.7	observe	Run1	observe/STIM_010.jpg	99
878.645	1.697	1696.9	observe	Run1	observe/STIM_011.jpg	100
882.629	1.602	1601.8	observe	Run1	observe/STIM_011.jpg	100
888.077	1.335	1335.0	observe	Run1	observe/STIM_011.jpg	100
891.756	1.178	1178.3	observe	Run1	observe/STIM_011.jpg	99
896.236	1.508	1508.2	observe	Run1	observe/STIM_012.jpg	100
901.419	1.17	1169.5	observe	Run1	observe/STIM_012.jpg	99
906.281	1.542	1541.6	observe	Run1	observe/STIM_012.jpg	99
910.311	1.327	1327.3	observe	Run1	observe/STIM_012.jpg	100
914.814	1.112	1111.8	observe	Run1	observe/STIM_013.jpg	99
919.433	1.361	1361.1	observe	Run1	observe/STIM_013.jpg	99
923.412	1.412	1412.0	observe	Run1	observe/STIM_013.jpg	100
928.65	0.925	924.6	observe	Run1	observe/STIM_013.jpg	100
932.48	1.088	1088.5	observe	Run1	observe/STIM_014.jpg	99
937.421	1.207	1206.7	observe	Run1	observe/STIM_014.jpg	100
942.216	0.996	996.5	observe	Run1	observe/STIM_014.jpg	100
946.075	1.628	1628.2	observe	Run1	observe/STIM_014.jpg	99
950.009	1.503	1502.7	observe	Run1	observe/STIM_015.jpg	100
954.392	1.237	1237.2	observe	Run1	observe/STIM_015.jpg	99
959.216	1.207	1207.0	observe	Run1	observe/STIM_015.jpg	100
962.7	1.405	1405.1	observe	Run1	observe/STIM_015.jpg	99
967.391	1.158	1157.7	observe	Run1	observe/STIM_016.jpg	99
971.617	1.735	1734.7	observe	Run1	observe/STIM_016.jpg	99
976.187	0.972	972.3	observe	Run1	observe/STIM_016.jpg	100
980.427	1.181	1180.9	observe	Run1	observe/STIM_016.jpg	99
984.991	1.463	1462.7	observe	Run1	observe/STIM_017.jpg	99
989.936	1.299	1299.3	observe	Run1	observe/STIM_017.jpg	100
994.291	1.451	1450.7	observe	Run1	observe/STIM_017.jpg	100
999.039	1.315	1315.0	observe	Run1	observe/STIM_017.jpg	99
1003.121	1.335	1334.9	observe	Run1	observe/STIM_018.jpg	100
1006.627	1.67	1669.7	observe	Run1	observe/STIM_018.jpg	100
1012.128	1.17	1169.9	observe	Run1	observe/STIM_018.jpg	100
1017.069	1.789	1788.6	observe	Run1	observe/STIM_018.jpg	100
1021.043	1.524	1524.5	observe	Run1	observe/STIM_019.jpg	99
1025.777	1.392	1391.5	observe	Run1	observe/STIM_019.jpg	99
1030.982	1.083	1082.9	observe	Run1	observe/STIM_019.jpg	100
1035.901	1.073	1072.9	observe	Run1	observe/STIM_019.jpg	100
1040.965	3.233	3233.2	regulate	Run2	regulate/STIM_000.jpg	100
1047.127	2.841	2841.1	regulate	Run2	regulate/STIM_000.jpg	100
1053.518	2.365	2364.9	regulate	Run2	regulate/STIM_000.jpg	100
1059.19	2.737	2736.8	regulate	Run2	regulate/STIM_000.jpg	100
1064.617	3.221	3220.7	regulate	Run2	regulate/STIM_001.jpg	100
1071.241	2.958	2957.9	regulate	Run2	regulate/STIM_001.jpg	100
1077.263	2.448	2448.2	regulate	Run2	regulate/STIM_001.jpg	99
1082.417	1.349	1348.6	regulate	Run2	regulate/STIM_001.jpg	100
1087.696	1.784	1783.6	regulate	Run2	regulate/STIM_002.jpg	100
1092.93	2.741	2741.1	regulate	Run2	regulate/STIM_002.jpg	100
1099.639	2.512	2512.0	regulate	Run2	regulate/STIM_002.jpg	99
1105.898	2.535	2534.9	regulate	Run2	regulate/STIM_002.jpg	99
1111.715	1.985	1985.4	regulate	Run2	regulate/STIM_003.jpg	100
1117.169	3.151	3150.7	regulate	Run2	regulate/STIM_003.jpg	99
1122.401	2.314	2314.3	regulate	Run2	regulate/STIM_003.jpg	99
1128.384	2.543	2543.1	regulate	Run2	regulate/STIM_003.jpg	99
1134.643	2.742	2742.0	regulate	Run2	regulate/STIM_004.jpg	100
1140.11	2.818	2817.9	regulate	Run2	regulate/STIM_004.jpg	100
1145.263	1.526	1526.4	regulate	Run2	regulate/STIM_004.jpg	99
1150.192	2.451	2450.6	regulate	Run2	regulate/STIM_004.jpg	100
1155.48	1.597	1596.6	regulate	Run2	regulate/STIM_005.jpg	100
1161.057	1.913	1912.6	regulate	Run2	regulate/STIM_005.jpg	100
1166.331	2.461	2460.6	regulate	Run2	regulate/STIM_005.jpg	100
1171.326	1.693	1692.9	regulate	Run2	regulate/STIM_005.jpg	99
1176.715	1.539	1539.0	regulate	Run2	regulate/STIM_006.jpg	99
1180.531	2.886	2886.5	regulate	Run2	regulate/STIM_006.jpg	99
1186.826	2.411	2411.2	regulate	Run2	regulate/STIM_006.jpg	99
1192.153	2.214	2213.7	regulate	Run2	regulate/STIM_006.jpg	100
1197.762	1.965	1965.2	regulate	Run2	regulate/STIM_007.jpg	100
1201.73	3.117	3117.0	regulate	Run2	regulate/STIM_007.jpg	99
1208.595	2.226	2225.6	regulate	Run2	regulate/STIM_007.jpg	100
1213.567	2.249	2248.8	regulate	Run2	regulate/STIM_007.jpg	100
1219.38	2.785	2784.6	regulate	Run2	regulate/STIM_008.jpg	99
1224.523	2.415	2415.2	regulate	Run2	regulate/STIM_008.jpg	100
1229.192	1.684	1683.9	regulate	Run2	regulate/STIM_008.jpg	99
1233.928	1.832	1831.6	regulate	Run2	regulate/STIM_008.jpg	100
1238.089	1.781	1781.1	regulate	Run2	regulate/STIM_009.jpg	100
1242.977	1.852	1852.5	regulate	Run2	regulate/STIM_009.jpg	100
1247.707	2.593	2593.1	regulate	Run2	regulate/STIM_009.jpg	100
1252.578	2.394	2393.6	regulate	Run2	regulate/STIM_009.jpg	99
1258.778	2.848	2848.5	regulate	Run2	regulate/STIM_010.jpg	99
1263.775	2.019	2019.2	regulate	Run2	regulate/STIM_010.jpg	99
1268.888	1.301	1300.8	regulate	Run2	regulate/STIM_010.jpg	99
1273.215	2.479	2479.2	regulate	Run2	regulate/STIM_010.jpg	99
1279.432	2.115	2114.7	regulate	Run2	regulate/STIM_011.jpg	100
1284.732	2.302	2302.1	regulate	Run2	regulate/STIM_011.jpg	99
1289.694	2.297	2296.9	regulate	Run2	regulate/STIM_011.jpg	100
1294.795	2.692	2692.2	regulate	Run2	regulate/STIM_011.jpg	100
1301.189	1.617	1617.2	regulate	Run2	regulate/STIM_012.jpg	100
1304.894	2.058	2058.5	regulate	Run2	regulate/STIM_012.jpg	99
1310.933	1.758	1758.5	regulate	Run2	regulate/STIM_012.jpg	99
1316.118	1.603	1603.2	regulate	Run2	regulate/STIM_012.jpg	99
1320.666	2.221	2221.4	regulate	Run2	regulate/STIM_013.jpg	100
1326.547	3.123	3122.6	regulate	Run2	regulate/STIM_013.jpg	100
1332.528	1.784	1783.8	regulate	Run2	regulate/STIM_013.jpg	100
1338.167	2.248	2247.6	regulate	Run2	regulate/STIM_013.jpg	99
1342.96	3.083	3083.1	regulate	Run2	regulate/STIM_014.jpg	99
1348.386	2.672	2672.0	regulate	Run2	regulate/STIM_014.jpg	100
1354.689	1.957	1956.7	regulate	Run2	regulate/STIM_014.jpg	100
1359.775	1.75	1749.9	regulate	Run2	regulate/STIM_014.jpg	99
1364.619	2.229	2228.6	regulate	Run2	regulate/STIM_015.jpg	99
1370.343	1.562	1562.5	regulate	Run2	regulate/STIM_015.jpg	99
1374.892	1.315	1315.3	regulate	Run2	regulate/STIM_015.jpg	100
1379.631	2.409	2409.2	regulate	Run2	regulate/STIM_015.jpg	100
1384.058	2.64	2640.2	regulate	Run2	regulate/STIM_016.jpg	100
1390.304	1.973	1972.8	regulate	Run2	regulate/STIM_016.jpg	99
1396.268	2.425	2425.0	regulate	Run2	regulate/STIM_016.jpg	100
1401.661	2.219	2219.4	regulate	Run2	regulate/STIM_016.jpg	99
1406.712	3.376	3376.1	regulate	Run2	regulate/STIM_017.jpg	100
1413.199	1.952	1952.3	regulate	Run2	regulate/STIM_017.jpg	99
1418.802	2.06	2060.5	regulate	Run2	regulate/STIM_017.jpg	100
1423.016	2.652	2652.5	regulate	Run2	regulate/STIM_017.jpg	99
1428.301	2.222	2221.9	regulate	Run2	regulate/STIM_018.jpg	99
1434.076	2.394	2394.5	regulate	Run2	regulate/STIM_018.jpg	99
1439.119	2.427	2426.7	regulate	Run2	regulate/STIM_018.jpg	100
1444.446	2.612	2612.4	regulate	Run2	regulate/STIM_018.jpg	100
1449.92	1.555	1554.9	regulate	Run2	regulate/STIM_019.jpg	99
1454.599	2.93	2929.8	regulate	Run2	regulate/STIM_019.jpg	99
1459.93	1.786	1786.5	regulate	Run2	regulate/STIM_019.jpg	100
1464.142	1.207	1206.7	regulate	Run2	regulate/STIM_019.jpg	100
1467.917	2.345	2345.2	regulate	Run2	regulate/STIM_020.jpg	99
1474.055	2.284	2283.8	regulate	Run2	regulate/STIM_020.jpg	99
1479.102	1.758	1757.5	regulate	Run2	regulate/STIM_020.jpg	99
1484.48	1.316	1315.5	regulate	Run2	regulate/STIM_020.jpg	99
1487.808	2.518	2518.0	regulate	Run2	regulate/STIM_021.jpg	100
1493.089	3.114	3114.2	regulate	Run2	regulate/STIM_021.jpg	100
1499.927	1.793	1793.0	regulate	Run2	regulate/STIM_021.jpg	99
1505.701	2.717	2717.4	regulate	Run2	regulate/STIM_021.jpg	100
1511.507	3.378	3378.5	regulate	Run2	regulate/STIM_022.jpg	100
1517.538	2.155	2155.4	regulate	Run2	regulate/STIM_022.jpg	99
1522.8	2.853	2852.7	regulate	Run2	regulate/STIM_022.jpg	100
1528.683	1.985	1984.6	regulate	Run2	regulate/STIM_022.jpg	99
1533.589	1.834	1834.5	regulate	Run2	regulate/STIM_023.jpg	100
1538.124	3.044	3044.5	regulate	Run2	regulate/STIM_023.jpg	100
1543.267	2.664	2664.5	regulate	Run2	regulate/STIM_023.jpg	100
1549.13	1.479	1479.4	regulate	Run2	regulate/STIM_023.jpg	100
1553.01	3.196	3196.4	regulate	Run2	regulate/STIM_024.jpg	99
1559.876	2.696	2696.5	regulate	Run2	regulate/STIM_024.jpg	100
1566.291	2.334	2334.4	regulate	Run2	regulate/STIM_024.jpg	99
1571.642	1.492	1492.4	regulate	Run2	regulate/STIM_024.jpg	100
1575.647	1.467	1467.4	regulate	Run2	regulate/STIM_025.jpg	100
1580.821	1.937	1936.8	regulate	Run2	regulate/STIM_025.jpg	100
1585.988	2.878	2878.3	regulate	Run2	regulate/STIM_025.jpg	100
1591.013	2.067	2067.4	regulate	Run2	regulate/STIM_025.jpg	100
1595.437	2.822	2821.5	regulate	Run2	regulate/STIM_026.jpg	99
1600.474	3.02	3019.9	regulate	Run2	regulate/STIM_026.jpg	100
1606.766	2.566	2566.0	regulate	Run2	regulate/STIM_026.jpg	100
1613.0	2.34	2339.6	regulate	Run2	regulate/STIM_026.jpg	99
1619.228	2.82	2819.6	regulate	Run2	regulate/STIM_027.jpg	100
1625.31	1.78	1779.9	regulate	Run2	regulate/STIM_027.jpg	100
1629.219	2.829	2828.8	regulate	Run2	regulate/STIM_027.jpg	100
1635.369	1.528	1528.5	regulate	Run2	regulate/STIM_027.jpg	99
1640.622	2.628	2627.8	regulate	Run2	regulate/STIM_028.jpg	99
1646.294	1.649	1649.4	regulate	Run2	regulate/STIM_028.jpg	100
1650.843	1.613	1612.6	regulate	Run2	regulate/STIM_028.jpg	100
1656.135	1.323	1322.9	regulate	Run2	regulate/STIM_028.jpg	100
1661.326	2.123	2123.3	regulate	Run2	regulate/STIM_029.jpg	99
1666.172	2.819	2818.8	regulate	Run2	regulate/STIM_029.jpg	100
1672.956	1.651	1650.9	regulate	Run2	regulate/STIM_029.jpg	100
1677.922	2.189	2189.3	regulate	Run2	regulate/STIM_029.jpg	100
1682.414	1.793	1792.7	observe	Run2	observe/STIM_000.jpg	100
1686.511	1.189	1188.9	observe	Run2	observe/STIM_000.jpg	100
1690.647	1.247	1247.1	observe	Run2	observe/STIM_000.jpg	100
1694.258	1.549	1548.8	observe	Run2	observe/STIM_000.jpg	99
1699.627	1.109	1109.1	observe	Run2	observe/STIM_001.jpg	99
1703.382	1.12	1119.8	observe	Run2	observe/STIM_001.jpg	100
1707.511	1.15	1150.0	observe	Run2	observe/STIM_001.jpg	99
1711.82	0.927	926.9	observe	Run2	observe/STIM_001.jpg	99
1715.091	1.404	1403.8	observe	Run2	observe/STIM_002.jpg	100
1719.668	1.368	1367.8	observe	Run2	observe/STIM_002.jpg	100
1724.19	1.208	1208.4	observe	Run2	observe/STIM_002.jpg	99
1728.017	1.702	1701.6	observe	Run2	observe/STIM_002.jpg	100
1733.087	1.471	1470.9	observe	Run2	observe/STIM_003.jpg	100
1737.701	1.15	1149.6	observe	Run2	observe/STIM_003.jpg	100
1741.809	1.746	1746.3	observe	Run2	observe/STIM_003.jpg	99
1747.255	1.461	1461.0	observe	Run2	observe/STIM_003.jpg	99
1752.363	1.138	1138.5	observe	Run2	observe/STIM_004.jpg	100
1755.931	1.608	1608.1	observe	Run2	observe/STIM_004.jpg	100
1760.837	1.581	1581.2	observe	Run2	observe/STIM_004.jpg	100
1766.348	0.98	979.7	observe	Run2	observe/STIM_004.jpg	100
1769.524	1.764	1764.2	observe	Run2	observe/STIM_005.jpg	99
1773.978	1.556	1555.9	observe	Run2	observe/STIM_005.jpg	100
1779.338	1.422	1422.3	observe	Run2	observe/STIM_005.jpg	100
1783.594	1.671	1671.4	observe	Run2	observe/STIM_005.jpg	100
1788.45	1.74	1739.8	observe	Run2	observe/STIM_006.jpg	99
1792.995	1.209	1208.6	observe	Run2	observe/STIM_006.jpg	100
1797.495	1.146	1146.2	observe	Run2	observe/STIM_006.jpg	100
1802.244	0.95	949.9	observe	Run2	observe/STIM_006.jpg	100
1805.656	1.307	1306.8	observe	Run2	observe/STIM_007.jpg	100
1808.984	1.11	1109.7	observe	Run2	observe/STIM_007.jpg	99
1812.573	1.255	1254.7	observe	Run2	observe/STIM_007.jpg	100
1817.782	1.412	1411.9	observe	Run2	observe/STIM_007.jpg	99
1822.508	1.641	1641.4	observe	Run2	observe/STIM_008.jpg	100
1827.752	1.655	1655.1	observe	Run2	observe/STIM_008.jpg	99
1831.819	1.458	1458.1	observe	Run2	observe/STIM_008.jpg	100
1836.571	1.539	1539.2	observe	Run2	observe/STIM_008.jpg	100
1841.342	1.106	1106.2	observe	Run2	observe/STIM_009.jpg	100
1846.294	1.439	1438.7	observe	Run2	observe/STIM_009.jpg	100
1851.657	1.66	1660.3	observe	Run2	observe/STIM_009.jpg	99
1857.246	1.36	1360.5	observe	Run2	observe/STIM_009.jpg	100
1861.15	1.524	1524.0	observe	Run2	observe/STIM_010.jpg	99
1865.681	0.917	917.4	observe	Run2	observe/STIM_010.jpg	99
1869.196	1.158	1158.5	observe	Run2	observe/STIM_010.jpg	99
1874.052	1.563	1562.9	observe	Run2	observe/STIM_010.jpg	99
1879.072	1.174	1173.5	observe	Run2	observe/STIM_011.jpg	99
1883.725	1.697	1696.9	observe	Run2	observe/STIM_011.jpg	100
1887.439	1.659	1659.0	observe	Run2	observe/STIM_011.jpg	100
1892.868	0.973	972.9	observe	Run2	observe/STIM_011.jpg	100
1897.203	1.729	1728.6	observe	Run2	observe/STIM_012.jpg	100
1901.44	1.792	1792.3	observe	Run2	observe/STIM_012.jpg	99
1905.472	1.538	1537.9	observe	Run2	observe/STIM_012.jpg	100
1910.318	1.416	1416.3	observe	Run2	observe/STIM_012.jpg	99
1913.924	0.997	997.3	observe	Run2	observe/STIM_013.jpg	100
1918.743	1.661	1661.2	observe	Run2	observe/STIM_013.jpg	99
1923.92	1.492	1491.7	observe	Run2	observe/STIM_013.jpg	100
1928.986	1.157	1157.0	observe	Run2	observe/STIM_013.jpg	100
1932.749	1.483	1482.8	observe	Run2	observe/STIM_014.jpg	99
1936.955	1.453	1452.9	observe	Run2	observe/STIM_014.jpg	100
1942.356	1.186	1185.9	observe	Run2	observe/STIM_014.jpg	99
1945.953	1.276	1275.8	observe	Run2	observe/STIM_014.jpg	100
1949.885	1.788	1788.2	observe	Run2	observe/STIM_015.jpg	100
1954.221	1.781	1781.0	observe	Run2	observe/STIM_015.jpg	99
1958.334	1.136	1135.6	observe	Run2	observe/STIM_015.jpg	100
1963.22	1.087	1086.8	observe	Run2	observe/STIM_015.jpg	99
1967.223	0.949	948.7	observe	Run2	observe/STIM_016.jpg	100
1970.767	1.818	1818.2	observe	Run2	observe/STIM_016.jpg	99
1975.441	1.254	1254.4	observe	Run2	observe/STIM_016.jpg	100
1980.536	1.226	1226.0	observe	Run2	observe/STIM_016.jpg	99
1985.099	1.238	1238.2	observe	Run2	observe/STIM_017.jpg	99
1989.87	1.337	1336.7	observe	Run2	observe/STIM_017.jpg	99
1994.499	1.516	1516.1	observe	Run2	observe/STIM_017.jpg	100
1998.172	1.583	1582.9	observe	Run2	observe/STIM_017.jpg	100
2003.228	0.929	929.3	observe	Run2	observe/STIM_018.jpg	100
2006.233	1.825	1825.1	observe	Run2	observe/STIM_018.jpg	100
2011.263	1.357	1357.2	observe	Run2	observe/STIM_018.jpg	99
2014.921	1.312	1312.0	observe	Run2	observe/STIM_018.jpg	100
2019.881	1.01	1010.4	observe	Run2	observe/STIM_019.jpg	100
2023.191	0.989	989.4	observe	Run2	observe/STIM_019.jpg	100
2026.728	1.67	1669.5	observe	Run2	observe/STIM_019.jpg	99
2030.51	1.706	1706.1	observe	Run2	observe/STIM_019.jpg	99
2035.607	2.083	2083.2	regulate	Run3	regulate/STIM_000.jpg	100
2040.94	2.355	2354.8	regulate	Run3	regulate/STIM_000.jpg	100
2047.19	2.214	2214.4	regulate	Run3	regulate/STIM_000.jpg	99
2051.536	1.815	1815.1	regulate	Run3	regulate/STIM_000.jpg	100
2056.452	1.915	1914.8	regulate	Run3	regulate/STIM_001.jpg	100
2062.305	1.423	1423.2	regulate	Run3	regulate/STIM_001.jpg	100
2066.379	2.676	2676.5	regulate	Run3	regulate/STIM_001.jpg	100
2072.831	1.694	1694.0	regulate	Run3	regulate/STIM_001.jpg	100
2077.056	2.762	2762.3	regulate	Run3	regulate/STIM_002.jpg	100
2083.649	2.275	2275.4	regulate	Run3	regulate/STIM_002.jpg	99
2089.578	2.654	2654.1	regulate	Run3	regulate/STIM_002.jpg	99
2095.174	2.086	2085.7	regulate	Run3	regulate/STIM_002.jpg	100
2100.923	2.26	2260.4	regulate	Run3	regulate/STIM_003.jpg	99
2107.052	2.054	2053.9	regulate	Run3	regulate/STIM_003.jpg	100
2113.058	1.373	1373.1	regulate	Run3	regulate/STIM_003.jpg	100
2117.54	2.302	2301.9	regulate	Run3	regulate/STIM_003.jpg	99
2121.863	2.761	2760.7	regulate	Run3	regulate/STIM_004.jpg	100
2127.213	1.896	1896.4	regulate	Run3	regulate/STIM_004.jpg	100
2132.266	2.032	2032.0	regulate	Run3	regulate/STIM_004.jpg	99
2137.524	2.077	2076.7	regulate	Run3	regulate/STIM_004.jpg	99
2142.971	1.688	1688.5	regulate	Run3	regulate/STIM_005.jpg	100
2147.917	2.593	2592.7	regulate	Run3	regulate/STIM_005.jpg	99
2154.012	1.474	1473.6	regulate	Run3	regulate/STIM_005.jpg	99
2158.167	2.704	2703.6	regulate	Run3	regulate/STIM_005.jpg	99
2163.507	2.055	2055.2	regulate	Run3	regulate/STIM_006.jpg	100
2168.812	1.685	1684.8	regulate	Run3	regulate/STIM_006.jpg	99
2174.211	2.595	2594.7	regulate	Run3	regulate/STIM_006.jpg	100
2179.913	1.506	1506.4	regulate	Run3	regulate/STIM_006.jpg	99
2184.312	2.774	2774.4	regulate	Run3	regulate/STIM_007.jpg	99
2191.004	2.242	2241.9	regulate	Run3	regulate/STIM_007.jpg	99
2196.589	1.457	1457.0	regulate	Run3	regulate/STIM_007.jpg	99
2201.375	2.566	2566.1	regulate	Run3	regulate/STIM_007.jpg	100
2207.699	1.282	1282.0	regulate	Run3	regulate/STIM_008.jpg	100
2211.734	1.877	1876.8	regulate	Run3	regulate/STIM_008.jpg	100
2216.278	1.208	1208.4	regulate	Run3	regulate/STIM_008.jpg	100
2220.05	1.986	1985.8	regulate	Run3	regulate/STIM_008.jpg	100
2224.341	2.694	2693.5	regulate	Run3	regulate/STIM_009.jpg	99
2230.632	2.138	2137.8	regulate	Run3	regulate/STIM_009.jpg	100
2234.935	2.772	2772.4	regulate	Run3	regulate/STIM_009.jpg	100
2239.944	2.295	2295.4	regulate	Run3	regulate/STIM_009.jpg	99
2245.581	1.735	1735.0	regulate	Run3	regulate/STIM_010.jpg	100
2249.847	1.891	1891.2	regulate	Run3	regulate/STIM_010.jpg	100
2255.439	2.781	2780.8	regulate	Run3	regulate/STIM_010.jpg	99
2261.228	2.29	2289.6	regulate	Run3	regulate/STIM_010.jpg	99
2266.343	1.271	1271.3	regulate	Run3	regulate/STIM_011.jpg	99
2270.152	1.459	1458.7	regulate	Run3	regulate/STIM_011.jpg	100
2274.349	1.61	1610.3	regulate	Run3	regulate/STIM_011.jpg	99
2279.372	2.097	2096.7	regulate	Run3	regulate/STIM_011.jpg	99
2285.41	2.228	2227.9	regulate	Run3	regulate/STIM_012.jpg	99
2290.914	2.269	2269.2	regulate	Run3	regulate/STIM_012.jpg	99
2296.418	2.11	2109.5	regulate	Run3	regulate/STIM_012.jpg	100
2302.217	1.312	1312.3	regulate	Run3	regulate/STIM_012.jpg	100
2306.375	2.484	2483.5	regulate	Run3	regulate/STIM_013.jpg	100
2312.188	2.538	2537.7	regulate	Run3	regulate/STIM_013.jpg	100
2318.515	1.805	1804.8	regulate	Run3	regulate/STIM_013.jpg	100
2322.419	1.535	1535.0	regulate	Run3	regulate/STIM_013.jpg	100
2326.412	2.225	2225.2	regulate	Run3	regulate/STIM_014.jpg	99
2331.455	1.588	1587.8	regulate	Run3	regulate/STIM_014.jpg	100
2335.147	2.782	2781.5	regulate	Run3	regulate/STIM_014.jpg	99
2340.529	1.933	1932.8	regulate	Run3	regulate/STIM_014.jpg	100
2345.784	1.742	1741.5	regulate	Run3	regulate/STIM_015.jpg	99
2350.956	1.753	1752.7	regulate	Run3	regulate/STIM_015.jpg	99
2355.621	2.24	2239.8	regulate	Run3	regulate/STIM_015.jpg	99
2361.326	1.314	1314.4	regulate	Run3	regulate/STIM_015.jpg	99
2365.93	2.306	2306.0	regulate	Run3	regulate/STIM_016.jpg	100
2371.625	1.848	1847.6	regulate	Run3	regulate/STIM_016.jpg	100
2377.0	2.313	2312.9	regulate	Run3	regulate/STIM_016.jpg	100
2382.994	2.026	2026.0	regulate	Run3	regulate/STIM_016.jpg	100
2387.668	1.724	1724.4	regulate	Run3	regulate/STIM_017.jpg	99
2393.071	1.204	1204.1	regulate	Run3	regulate/STIM_017.jpg	99
2397.988	2.013	2013.3	regulate	Run3	regulate/STIM_017.jpg	99
2402.131	1.558	1558.3	regulate	Run3	regulate/STIM_017.jpg	100
2406.92	2.675	2675.2	regulate	Run3	regulate/STIM_018.jpg	99
2411.967	2.645	2645.0	regulate	Run3	regulate/STIM_018.jpg	99
2417.708	2.349	2349.1	regulate	Run3	regulate/STIM_018.jpg	99
2423.471	2.063	2062.8	regulate	Run3	regulate/STIM_018.jpg	100
2427.777	2.116	2115.8	regulate	Run3	regulate/STIM_019.jpg	99
2432.666	1.735	1735.1	regulate	Run3	regulate/STIM_019.jpg	100
2436.847	1.479	1479.1	regulate	Run3	regulate/STIM_019.jpg	100
2441.505	1.801	1801.1	regulate	Run3	regulate/STIM_019.jpg	100
2446.693	2.79	2790.4	regulate	Run3	regulate/STIM_020.jpg	99
2451.519	2.303	2303.1	regulate	Run3	regulate/STIM_020.jpg	99
2457.744	1.804	1804.1	regulate	Run3	regulate/STIM_020.jpg	100
2463.451	2.087	2086.8	regulate	Run3	regulate/STIM_020.jpg	100
2468.291	2.267	2267.1	regulate	Run3	regulate/STIM_021.jpg	100
2472.864	1.614	1613.9	regulate	Run3	regulate/STIM_021.jpg	100
2477.018	2.646	2646.5	regulate	Run3	regulate/STIM_021.jpg	100
2483.094	1.37	1370.0	regulate	Run3	regulate/STIM_021.jpg	99
2488.16	1.482	1482.4	regulate	Run3	regulate/STIM_022.jpg	99
2492.936	1.747	1746.7	regulate	Run3	regulate/STIM_022.jpg	100
2498.542	2.103	2103.4	regulate	Run3	regulate/STIM_022.jpg	100
2503.495	2.219	2218.7	regulate	Run3	regulate/STIM_022.jpg	100
2508.247	1.203	1203.2	regulate	Run3	regulate/STIM_023.jpg	99
2511.868	1.43	1430.0	regulate	Run3	regulate/STIM_023.jpg	99
2515.459	2.788	2787.7	regulate	Run3	regulate/STIM_023.jpg	100
2520.876	2.633	2633.2	regulate	Run3	regulate/STIM_023.jpg	100
2526.375	2.641	2640.8	regulate	Run3	regulate/STIM_024.jpg	100
2532.344	2.007	2007.2	regulate	Run3	regulate/STIM_024.jpg	99
2536.774	2.527	2526.6	regulate	Run3	regulate/STIM_024.jpg	100
2542.334	1.748	1748.4	regulate	Run3	regulate/STIM_024.jpg	100
2547.853	2.641	2641.3	regulate	Run3	regulate/STIM_025.jpg	100
2553.367	2.745	2745.2	regulate	Run3	regulate/STIM_025.jpg	99
2559.44	2.729	2729.1	regulate	Run3	regulate/STIM_025.jpg	100
2565.676	1.821	1821.4	regulate	Run3	regulate/STIM_025.jpg	100
2569.67	2.375	2374.6	regulate	Run3	regulate/STIM_026.jpg	100
2575.275	1.367	1366.6	regulate	Run3	regulate/STIM_026.jpg	99
2579.055	2.783	2782.6	regulate	Run3	regulate/STIM_026.jpg	100
2584.317	1.885	1884.6	regulate	Run3	regulate/STIM_026.jpg	99
2588.561	1.741	1740.8	regulate	Run3	regulate/STIM_027.jpg	99
2594.276	1.806	1806.4	regulate	Run3	regulate/STIM_027.jpg	100
2598.803	2.359	2359.0	regulate	Run3	regulate/STIM_027.jpg	100
2603.743	1.306	1306.5	regulate	Run3	regulate/STIM_027.jpg	100
2607.913	1.87	1869.7	regulate	Run3	regulate/STIM_028.jpg	100
2613.683	1.274	1274.3	regulate	Run3	regulate/STIM_028.jpg	99
2617.297	2.151	2150.7	regulate	Run3	regulate/STIM_028.jpg	99
2622.824	2.664	2664.2	regulate	Run3	regulate/STIM_028.jpg	99
2627.809	1.629	1628.8	regulate	Run3	regulate/STIM_029.jpg	100
2631.627	2.004	2003.9	regulate	Run3	regulate/STIM_029.jpg	99
2637.009	1.779	1779.4	regulate	Run3	regulate/STIM_029.jpg	99
2641.662	2.67	2670.2	regulate	Run3	regulate/STIM_029.jpg	100
2647.94	1.818	1818.0	observe	Run3	observe/STIM_000.jpg	99
2651.932	1.745	1745.1	observe	Run3	observe/STIM_000.jpg	100
2656.649	1.395	1395.0	observe	Run3	observe/STIM_000.jpg	99
2661.532	1.321	1320.6	observe	Run3	observe/STIM_000.jpg	100
2666.744	1.486	1486.2	observe	Run3	observe/STIM_001.jpg	100
2670.565	1.729	1728.8	observe	Run3	observe/STIM_001.jpg	99
2675.56	1.794	1794.3	observe	Run3	observe/STIM_001.jpg	100
2680.45	1.281	1281.0	observe	Run3	observe/STIM_001.jpg	100
2684.303	1.664	1664.4	observe	Run3	observe/STIM_002.jpg	100
2688.645	1.226	1225.7	observe	Run3	observe/STIM_002.jpg	100
2692.626	1.71	1709.9	observe	Run3	observe/STIM_002.jpg	99
2697.773	1.049	1048.7	observe	Run3	observe/STIM_002.jpg	100
2702.013	1.739	1738.8	observe	Run3	observe/STIM_003.jpg	100
2707.563	1.063	1063.4	observe	Run3	observe/STIM_003.jpg	99
2712.581	1.739	1739.1	observe	Run3	observe/STIM_003.jpg	99
2717.272	1.438	1437.8	observe	Run3	observe/STIM_003.jpg	99
2721.724	1.714	1713.7	observe	Run3	observe/STIM_004.jpg	100
2726.889	1.155	1154.8	observe	Run3	observe/STIM_004.jpg	100
2731.778	1.207	1206.8	observe	Run3	observe/STIM_004.jpg	100
2736.196	1.307	1307.2	observe	Run3	observe/STIM_004.jpg	100
2740.525	1.821	1821.1	observe	Run3	observe/STIM_005.jpg	100
2745.797	1.112	1111.5	observe	Run3	observe/STIM_005.jpg	99
2749.505	1.123	1122.8	observe	Run3	observe/STIM_005.jpg	100
2753.474	1.155	1154.7	observe	Run3	observe/STIM_005.jpg	99
2757.009	1.176	1176.0	observe	Run3	observe/STIM_006.jpg	99
2760.454	1.266	1266.2	observe	Run3	observe/STIM_006.jpg	100
2764.737	1.695	1694.9	observe	Run3	observe/STIM_006.jpg	99
2769.717	1.126	1125.7	observe	Run3	observe/STIM_006.jpg	100
2774.593	1.374	1373.9	observe	Run3	observe/STIM_007.jpg	99
2779.695	1.127	1127.3	observe	Run3	observe/STIM_007.jpg	100
2784.593	1.74	1740.3	observe	Run3	observe/STIM_007.jpg	99
2789.117	1.532	1532.4	observe	Run3	observe/STIM_007.jpg	99
2792.936	1.33	1330.5	observe	Run3	observe/STIM_008.jpg	99
2796.683	0.993	993.3	observe	Run3	observe/STIM_008.jpg	99
2801.257	1.682	1682.1	observe	Run3	observe/STIM_008.jpg	99
2806.306	1.631	1631.2	observe	Run3	observe/STIM_008.jpg	99
2811.64	1.826	1825.6	observe	Run3	observe/STIM_009.jpg	100
2817.068	1.507	1507.1	observe	Run3	observe/STIM_009.jpg	99
2821.034	1.507	1507.0	observe	Run3	observe/STIM_009.jpg	99
2825.897	1.214	1213.5	observe	Run3	observe/STIM_009.jpg	99
2830.946	1.142	1142.3	observe	Run3	observe/STIM_010.jpg	100
2836.073	1.298	1298.1	observe	Run3	observe/STIM_010.jpg	99
2840.207	1.511	1510.8	observe	Run3	observe/STIM_010.jpg	100
2845.406	1.636	1635.5	observe	Run3	observe/STIM_010.jpg	100
2849.07	1.027	1027.1	observe	Run3	observe/STIM_011.jpg	100
2853.58	1.244	1243.6	observe	Run3	observe/STIM_011.jpg	100
2857.172	1.684	1683.5	observe	Run3	observe/STIM_011.jpg	100
2862.359	1.382	1381.5	observe	Run3	observe/STIM_011.jpg	99
2866.6	1.14	1139.7	observe	Run3	observe/STIM_012.jpg	99
2870.526	1.328	1328.2	observe	Run3	observe/STIM_012.jpg	99
2874.166	1.661	1660.8	observe	Run3	observe/STIM_012.jpg	100
2879.341	1.276	1275.9	observe	Run3	observe/STIM_012.jpg	100
2883.518	1.465	1465.1	observe	Run3	observe/STIM_013.jpg	99
2888.978	1.494	1494.4	observe	Run3	observe/STIM_013.jpg	99
2893.957	1.505	1504.6	observe	Run3	observe/STIM_013.jpg	99
2898.787	1.094	1094.1	observe	Run3	observe/STIM_013.jpg	99
2901.91	1.166	1165.5	observe	Run3	observe/STIM_014.jpg	100
2906.462	0.956	955.5	observe	Run3	observe/STIM_014.jpg	99
2910.078	1.132	1132.3	observe	Run3	observe/STIM_014.jpg	99
2913.93	1.471	1471.1	observe	Run3	observe/STIM_014.jpg	100
2918.406	1.203	1203.0	observe	Run3	observe/STIM_015.jpg	99
2921.635	1.659	1658.6	observe	Run3	observe/STIM_015.jpg	100
2925.887	1.084	1084.5	observe	Run3	observe/STIM_015.jpg	100
2929.544	0.932	931.9	observe	Run3	observe/STIM_015.jpg	99
2933.629	1.293	1293.1	observe	Run3	observe/STIM_016.jpg	99
2938.722	1.198	1197.7	observe	Run3	observe/STIM_016.jpg	100
2943.176	1.09	1090.4	observe	Run3	observe/STIM_016.jpg	99
2946.569	0.948	948.0	observe	Run3	observe/STIM_016.jpg	100
2949.667	1.028	1028.0	observe	Run3	observe/STIM_017.jpg	99
2952.894	1.628	1628.4	observe	Run3	observe/STIM_017.jpg	99
2957.924	1.304	1303.5	observe	Run3	observe/STIM_017.jpg	100
2962.915	0.999	999.1	observe	Run3	observe/STIM_017.jpg	99
2967.031	0.986	985.8	observe	Run3	observe/STIM_018.jpg	100
2970.797	1.215	1214.6	observe	Run3	observe/STIM_018.jpg	100
2975.749	1.436	1436.4	observe	Run3	observe/STIM_018.jpg	100
2980.166	0.952	952.0	observe	Run3	observe/STIM_018.jpg	100
2983.154	1.226	1226.5	observe	Run3	observe/STIM_019.jpg	100
2988.248	1.068	1068.4	observe	Run3	observe/STIM_019.jpg	99
2992.43	1.261	1261.3	observe	Run3	observe/STIM_019.jpg	100
2996.504	1.586	1586.0	observe	Run3	observe/STIM_019.jpg	100
