onset	duration	accuracy_binary	trial_type	learning_stage	stimulus
0.0	4.32	0	navigation	Trial1	navigation/STIM_000.jpg
8.272	2.503	0	navigation	Trial1	navigation/STIM_000.jpg
13.894	3.304	1	navigation	Trial1	navigation/STIM_000.jpg
19.279	3.562	1	navigation	Trial1	navigation/STIM_000.jpg
26.423	2.836	0	navigation	Trial1	navigation/STIM_000.jpg
31.561	3.184	0	navigation	Trial1	navigation/STIM_000.jpg
38.305	5.444	1	navigation	Trial1	navigation/STIM_001.jpg
47.16	2.24	0	navigation	Trial1	navigation/STIM_001.jpg
53.01	3.713	1	navigation	Trial1	navigation/STIM_001.jpg
59.007	1.99	0	navigation	Trial1	navigation/STIM_001.jpg
64.771	2.28	0	navigation	Trial1	navigation/STIM_001.jpg
69.892	2.201	1	navigation	Trial1	navigation/STIM_001.jpg
75.684	4.197	0	navigation	Trial1	navigation/STIM_002.jpg
83.839	2.903	1	navigation	Trial1	navigation/STIM_002.jpg
89.8	4.641	1	navigation	Trial1	navigation/STIM_002.jpg
97.956	2.669	1	navigation	Trial1	navigation/STIM_002.jpg
103.158	2.984	0	navigation	Trial1	navigation/STIM_002.jpg
109.176	3.391	1	navigation	Trial1	navigation/STIM_002.jpg
115.303	2.648	1	navigation	Trial1	navigation/STIM_003.jpg
120.709	3.695	1	navigation	Trial1	navigation/STIM_003.jpg
127.195	3.003	1	navigation	Trial1	navigation/STIM_003.jpg
132.971	2.063	1	navigation	Trial1	navigation/STIM_003.jpg
137.084	3.271	0	navigation	Trial1	navigation/STIM_003.jpg
144.26	1.815	1	navigation	Trial1	navigation/STIM_003.jpg
148.943	2.377	1	navigation	Trial1	navigation/STIM_004.jpg
153.515	5.086	1	navigation	Trial1	navigation/STIM_004.jpg
160.643	4.582	1	navigation	Trial1	navigation/STIM_004.jpg
168.279	3.416	0	navigation	Trial1	navigation/STIM_004.jpg
175.336	2.526	1	navigation	Trial1	navigation/STIM_004.jpg
180.554	3.973	0	navigation	Trial1	navigation/STIM_004.jpg
186.535	3.598	1	navigation	Trial1	navigation/STIM_005.jpg
192.939	3.462	0	navigation	Trial1	navigation/STIM_005.jpg
200.19	3.441	1	navigation	Trial1	navigation/STIM_005.jpg
205.775	4.041	1	navigation	Trial1	navigation/STIM_005.jpg
213.671	2.444	1	navigation	Trial1	navigation/STIM_005.jpg
218.915	3.398	1	navigation	Trial1	navigation/STIM_005.jpg
224.932	5.186	1	navigation	Trial1	navigation/STIM_006.jpg
233.87	3.217	0	navigation	Trial1	navigation/STIM_006.jpg
239.768	3.142	1	navigation	Trial1	navigation/STIM_006.jpg
246.301	2.795	1	navigation	Trial1	navigation/STIM_006.jpg
251.377	2.35	0	navigation	Trial1	navigation/STIM_006.jpg
255.916	2.225	0	navigation	Trial1	navigation/STIM_006.jpg
261.585	5.54	0	navigation	Trial1	navigation/STIM_007.jpg
270.442	2.332	0	navigation	Trial1	navigation/STIM_007.jpg
275.233	3.472	0	navigation	Trial1	navigation/STIM_007.jpg
281.239	3.603	1	navigation	Trial1	navigation/STIM_007.jpg
288.613	2.783	0	navigation	Trial1	navigation/STIM_007.jpg
295.373	1.895	1	navigation	Trial1	navigation/STIM_007.jpg
300.019	4.017	0	navigation	Trial1	navigation/STIM_008.jpg
307.12	2.925	0	navigation	Trial1	navigation/STIM_008.jpg
312.731	4.644	0	navigation	Trial1	navigation/STIM_008.jpg
319.883	2.354	0	navigation	Trial1	navigation/STIM_008.jpg
325.608	3.928	1	navigation	Trial1	navigation/STIM_008.jpg
333.268	3.405	1	navigation	Trial1	navigation/STIM_008.jpg
340.599	2.52	0	navigation	Trial1	navigation/STIM_009.jpg
346.434	2.559	0	navigation	Trial1	navigation/STIM_009.jpg
351.398	4.787	1	navigation	Trial1	navigation/STIM_009.jpg
358.815	4.782	1	navigation	Trial1	navigation/STIM_009.jpg
366.471	2.06	1	navigation	Trial1	navigation/STIM_009.jpg
372.478	3.021	0	navigation	Trial1	navigation/STIM_009.jpg
379.315	3.101	1	navigation	Trial1	navigation/STIM_010.jpg
385.986	4.542	1	navigation	Trial1	navigation/STIM_010.jpg
393.588	2.139	0	navigation	Trial1	navigation/STIM_010.jpg
398.797	4.148	0	navigation	Trial1	navigation/STIM_010.jpg
406.326	2.751	1	navigation	Trial1	navigation/STIM_010.jpg
412.617	2.848	1	navigation	Trial1	navigation/STIM_010.jpg
417.724	4.683	1	navigation	Trial1	navigation/STIM_011.jpg
424.418	2.173	1	navigation	Trial1	navigation/STIM_011.jpg
429.884	3.108	1	navigation	Trial1	navigation/STIM_011.jpg
435.303	2.831	0	navigation	Trial1	navigation/STIM_011.jpg
440.708	4.405	1	navigation	Trial1	navigation/STIM_011.jpg
449.044	3.922	1	navigation	Trial1	navigation/STIM_011.jpg
455.998	1.587	0	pointing	Trial1	pointing/STIM_000.jpg
459.65	1.149	1	pointing	Trial1	pointing/STIM_000.jpg
464.057	1.51	1	pointing	Trial1	pointing/STIM_000.jpg
469.037	1.18	1	pointing	Trial1	pointing/STIM_000.jpg
473.503	1.531	0	pointing	Trial1	pointing/STIM_000.jpg
477.564	1.338	1	pointing	Trial1	pointing/STIM_000.jpg
482.608	1.598	1	pointing	Trial1	pointing/STIM_001.jpg
486.389	1.048	1	pointing	Trial1	pointing/STIM_001.jpg
490.341	1.403	1	pointing	Trial1	pointing/STIM_001.jpg
494.698	1.316	1	pointing	Trial1	pointing/STIM_001.jpg
498.309	0.974	1	pointing	Trial1	pointing/STIM_001.jpg
502.184	1.371	1	pointing	Trial1	pointing/STIM_001.jpg
507.253	1.072	1	pointing	Trial1	pointing/STIM_002.jpg
511.742	1.218	1	pointing	Trial1	pointing/STIM_002.jpg
515.099	0.953	1	pointing	Trial1	pointing/STIM_002.jpg
518.337	1.048	1	pointing	Trial1	pointing/STIM_002.jpg
522.343	1.402	1	pointing	Trial1	pointing/STIM_002.jpg
527.391	0.964	1	pointing	Trial1	pointing/STIM_002.jpg
531.263	0.948	1	pointing	Trial1	pointing/STIM_003.jpg
534.915	1.373	1	pointing	Trial1	pointing/STIM_003.jpg
538.673	1.558	1	pointing	Trial1	pointing/STIM_003.jpg
543.543	1.286	1	pointing	Trial1	pointing/STIM_003.jpg
547.486	1.22	1	pointing	Trial1	pointing/STIM_003.jpg
551.576	1.39	1	pointing	Trial1	pointing/STIM_003.jpg
555.622	1.194	1	pointing	Trial1	pointing/STIM_004.jpg
559.016	1.453	1	pointing	Trial1	pointing/STIM_004.jpg
563.383	1.167	1	pointing	Trial1	pointing/STIM_004.jpg
567.948	1.435	0	pointing	Trial1	pointing/STIM_004.jpg
572.928	1.2	1	pointing	Trial1	pointing/STIM_004.jpg
577.714	0.96	1	pointing	Trial1	pointing/STIM_004.jpg
582.487	1.39	1	pointing	Trial1	pointing/STIM_005.jpg
586.342	1.261	1	pointing	Trial1	pointing/STIM_005.jpg
591.312	1.509	1	pointing	Trial1	pointing/STIM_005.jpg
595.779	1.374	1	pointing	Trial1	pointing/STIM_005.jpg
600.506	1.097	1	pointing	Trial1	pointing/STIM_005.jpg
604.543	1.405	1	pointing	Trial1	pointing/STIM_005.jpg
609.784	1.418	1	pointing	Trial1	pointing/STIM_006.jpg
614.539	1.005	1	pointing	Trial1	pointing/STIM_006.jpg
617.609	1.686	1	pointing	Trial1	pointing/STIM_006.jpg
623.09	1.406	1	pointing	Trial1	pointing/STIM_006.jpg
628.41	1.135	1	pointing	Trial1	pointing/STIM_006.jpg
632.638	1.336	1	pointing	Trial1	pointing/STIM_006.jpg
637.22	1.547	1	pointing	Trial1	pointing/STIM_007.jpg
641.68	1.475	1	pointing	Trial1	pointing/STIM_007.jpg
646.877	1.398	1	pointing	Trial1	pointing/STIM_007.jpg
652.241	1.388	0	pointing	Trial1	pointing/STIM_007.jpg
656.551	1.439	0	pointing	Trial1	pointing/STIM_007.jpg
660.682	1.293	1	pointing	Trial1	pointing/STIM_007.jpg
665.889	1.641	1	pointing	Trial1	pointing/STIM_008.jpg
670.38	1.383	1	pointing	Trial1	pointing/STIM_008.jpg
673.969	1.039	1	pointing	Trial1	pointing/STIM_008.jpg
677.143	1.216	1	pointing	Trial1	pointing/STIM_008.jpg
681.361	1.516	1	pointing	Trial1	pointing/STIM_008.jpg
685.995	1.341	0	pointing	Trial1	pointing/STIM_008.jpg
690.65	1.65	1	pointing	Trial1	pointing/STIM_009.jpg
696.047	1.32	1	pointing	Trial1	pointing/STIM_009.jpg
699.501	1.247	0	pointing	Trial1	pointing/STIM_009.jpg
703.409	1.26	1	pointing	Trial1	pointing/STIM_009.jpg
707.022	1.221	0	pointing	Trial1	pointing/STIM_009.jpg
711.096	0.935	1	pointing	Trial1	pointing/STIM_009.jpg
715.316	1.564	0	pointing	Trial1	pointing/STIM_010.jpg
720.358	1.537	1	pointing	Trial1	pointing/STIM_010.jpg
724.257	1.448	1	pointing	Trial1	pointing/STIM_010.jpg
729.087	1.027	1	pointing	Trial1	pointing/STIM_010.jpg
733.705	1.096	1	pointing	Trial1	pointing/STIM_010.jpg
738.558	1.565	1	pointing	Trial1	pointing/STIM_010.jpg
742.846	1.474	1	pointing	Trial1	pointing/STIM_011.jpg
746.747	1.176	0	pointing	Trial1	pointing/STIM_011.jpg
751.747	1.476	1	pointing	Trial1	pointing/STIM_011.jpg
756.448	1.488	1	pointing	Trial1	pointing/STIM_011.jpg
761.193	1.336	0	pointing	Trial1	pointing/STIM_011.jpg
766.212	0.989	1	pointing	Trial1	pointing/STIM_011.jpg
769.581	4.249	1	navigation	Trial2	navigation/STIM_000.jpg
777.554	4.235	1	navigation	Trial2	navigation/STIM_000.jpg
784.801	2.456	1	navigation	Trial2	navigation/STIM_000.jpg
789.929	1.961	1	navigation	Trial2	navigation/STIM_000.jpg
794.973	2.793	1	navigation	Trial2	navigation/STIM_000.jpg
801.454	2.244	1	navigation	Trial2	navigation/STIM_000.jpg
806.481	3.496	0	navigation	Trial2	navigation/STIM_001.jpg
812.178	3.541	1	navigation	Trial2	navigation/STIM_001.jpg
817.912	3.037	1	navigation	Trial2	navigation/STIM_001.jpg
824.805	3.468	0	navigation	Trial2	navigation/STIM_001.jpg
831.968	2.627	1	navigation	Trial2	navigation/STIM_001.jpg
837.327	3.251	1	navigation	Trial2	navigation/STIM_001.jpg
844.407	2.281	1	navigation	Trial2	navigation/STIM_002.jpg
849.476	2.992	1	navigation	Trial2	navigation/STIM_002.jpg
855.911	2.947	1	navigation	Trial2	navigation/STIM_002.jpg
861.808	3.868	0	navigation	Trial2	navigation/STIM_002.jpg
869.414	3.721	1	navigation	Trial2	navigation/STIM_002.jpg
876.822	3.128	0	navigation	Trial2	navigation/STIM_002.jpg
882.81	3.574	1	navigation	Trial2	navigation/STIM_003.jpg
889.231	2.576	1	navigation	Trial2	navigation/STIM_003.jpg
894.613	2.363	0	navigation	Trial2	navigation/STIM_003.jpg
899.626	2.749	1	navigation	Trial2	navigation/STIM_003.jpg
905.046	1.96	1	navigation	Trial2	navigation/STIM_003.jpg
909.266	2.336	1	navigation	Trial2	navigation/STIM_003.jpg
915.163	3.645	1	navigation	Trial2	navigation/STIM_004.jpg
922.58	3.549	1	navigation	Trial2	navigation/STIM_004.jpg
929.689	1.772	1	navigation	Trial2	navigation/STIM_004.jpg
935.009	2.982	1	navigation	Trial2	navigation/STIM_004.jpg
940.346	3.562	1	navigation	Trial2	navigation/STIM_004.jpg
946.682	2.204	1	navigation	Trial2	navigation/STIM_004.jpg
951.994	3.297	1	navigation	Trial2	navigation/STIM_005.jpg
959.198	2.43	1	navigation	Trial2	navigation/STIM_005.jpg
964.108	2.909	1	navigation	Trial2	navigation/STIM_005.jpg
969.413	3.508	1	navigation	Trial2	navigation/STIM_005.jpg
976.747	2.839	1	navigation	Trial2	navigation/STIM_005.jpg
983.364	2.097	0	navigation	Trial2	navigation/STIM_005.jpg
988.786	4.004	1	navigation	Trial2	navigation/STIM_006.jpg
995.029	3.086	0	navigation	Trial2	navigation/STIM_006.jpg
1001.571	1.753	1	navigation	Trial2	navigation/STIM_006.jpg
1007.289	3.369	0	navigation	Trial2	navigation/STIM_006.jpg
1012.768	2.743	1	navigation	Trial2	navigation/STIM_006.jpg
1019.352	3.24	1	navigation	Trial2	navigation/STIM_006.jpg
1024.937	3.448	1	navigation	Trial2	navigation/STIM_007.jpg
1031.627	3.629	1	navigation	Trial2	navigation/STIM_007.jpg
1037.803	3.838	1	navigation	Trial2	navigation/STIM_007.jpg
1043.785	3.27	0	navigation	Trial2	navigation/STIM_007.jpg
1050.125	1.786	1	navigation	Trial2	navigation/STIM_007.jpg
1054.96	2.617	1	navigation	Trial2	navigation/STIM_007.jpg
1059.663	3.103	1	navigation	Trial2	navigation/STIM_008.jpg
1066.05	4.267	0	navigation	Trial2	navigation/STIM_008.jpg
1072.937	3.08	1	navigation	Trial2	navigation/STIM_008.jpg
1078.716	3.293	1	navigation	Trial2	navigation/STIM_008.jpg
1084.516	3.107	1	navigation	Trial2	navigation/STIM_008.jpg
1090.867	2.779	1	navigation	Trial2	navigation/STIM_008.jpg
1095.983	2.498	1	navigation	Trial2	navigation/STIM_009.jpg
1101.038	1.89	1	navigation	Trial2	navigation/STIM_009.jpg
1106.231	2.725	0	navigation	Trial2	navigation/STIM_009.jpg
1111.465	3.501	0	navigation	Trial2	navigation/STIM_009.jpg
1117.969	3.942	1	navigation	Trial2	navigation/STIM_009.jpg
1125.747	1.76	1	navigation	Trial2	navigation/STIM_009.jpg
1130.881	1.962	1	navigation	Trial2	navigation/STIM_010.jpg
1135.307	4.153	0	navigation	Trial2	navigation/STIM_010.jpg
1142.514	3.74	0	navigation	Trial2	navigation/STIM_010.jpg
1148.443	2.186	1	navigation	Trial2	navigation/STIM_010.jpg
1153.343	3.426	0	navigation	Trial2	navigation/STIM_010.jpg
1160.098	2.81	1	navigation	Trial2	navigation/STIM_010.jpg
1165.88	4.086	1	navigation	Trial2	navigation/STIM_011.jpg
1173.792	2.297	1	navigation	Trial2	navigation/STIM_011.jpg
1179.453	2.952	0	navigation	Trial2	navigation/STIM_011.jpg
1184.728	1.798	1	navigation	Trial2	navigation/STIM_011.jpg
1189.943	2.898	1	navigation	Trial2	navigation/STIM_011.jpg
1195.001	2.199	0	navigation	Trial2	navigation/STIM_011.jpg
1200.58	1.059	1	pointing	Trial2	pointing/STIM_000.jpg
1205.271	1.684	1	pointing	Trial2	pointing/STIM_000.jpg
1210.049	1.325	0	pointing	Trial2	pointing/STIM_000.jpg
1215.113	1.223	1	pointing	Trial2	pointing/STIM_000.jpg
1218.682	1.032	1	pointing	Trial2	pointing/STIM_000.jpg
1223.43	1.215	1	pointing	Trial2	pointing/STIM_000.jpg
1228.378	1.111	1	pointing	Trial2	pointing/STIM_001.jpg
1233.014	0.921	0	pointing	Trial2	pointing/STIM_001.jpg
1236.14	1.382	1	pointing	Trial2	pointing/STIM_001.jpg
1240.177	1.127	1	pointing	Trial2	pointing/STIM_001.jpg
1245.048	1.298	1	pointing	Trial2	pointing/STIM_001.jpg
1248.921	1.056	0	pointing	Trial2	pointing/STIM_001.jpg
1253.5	1.661	0	pointing	Trial2	pointing/STIM_002.jpg
1257.377	0.928	1	pointing	Trial2	pointing/STIM_002.jpg
1260.905	1.084	0	pointing	Trial2	pointing/STIM_002.jpg
1265.097	1.636	1	pointing	Trial2	pointing/STIM_002.jpg
1269.49	1.275	1	pointing	Trial2	pointing/STIM_002.jpg
1274.499	1.07	1	pointing	Trial2	pointing/STIM_002.jpg
1278.801	1.653	1	pointing	Trial2	pointing/STIM_003.jpg
1282.664	1.396	1	pointing	Trial2	pointing/STIM_003.jpg
1287.734	1.342	1	pointing	Trial2	pointing/STIM_003.jpg
1291.293	1.637	0	pointing	Trial2	pointing/STIM_003.jpg
1294.946	1.16	0	pointing	Trial2	pointing/STIM_003.jpg
1298.305	1.533	0	pointing	Trial2	pointing/STIM_003.jpg
1301.973	1.162	1	pointing	Trial2	pointing/STIM_004.jpg
1306.466	1.154	1	pointing	Trial2	pointing/STIM_004.jpg
1309.855	1.302	1	pointing	Trial2	pointing/STIM_004.jpg
1313.298	1.55	1	pointing	Trial2	pointing/STIM_004.jpg
1317.232	0.904	0	pointing	Trial2	pointing/STIM_004.jpg
1321.707	1.234	0	pointing	Trial2	pointing/STIM_004.jpg
1325.842	0.984	1	pointing	Trial2	pointing/STIM_005.jpg
1329.63	1.029	1	pointing	Trial2	pointing/STIM_005.jpg
1333.182	1.58	1	pointing	Trial2	pointing/STIM_005.jpg
1337.362	1.548	1	pointing	Trial2	pointing/STIM_005.jpg
1341.138	1.328	1	pointing	Trial2	pointing/STIM_005.jpg
1346.319	1.268	1	pointing	Trial2	pointing/STIM_005.jpg
1350.247	1.003	1	pointing	Trial2	pointing/STIM_006.jpg
1354.672	1.571	1	pointing	Trial2	pointing/STIM_006.jpg
1358.774	1.124	1	pointing	Trial2	pointing/STIM_006.jpg
1362.221	1.496	0	pointing	Trial2	pointing/STIM_006.jpg
1366.713	0.912	1	pointing	Trial2	pointing/STIM_006.jpg
1370.82	1.558	1	pointing	Trial2	pointing/STIM_006.jpg
1375.85	1.575	1	pointing	Trial2	pointing/STIM_007.jpg
1379.65	1.356	1	pointing	Trial2	pointing/STIM_007.jpg
1383.184	0.979	1	pointing	Trial2	pointing/STIM_007.jpg
1387.511	1.381	1	pointing	Trial2	pointing/STIM_007.jpg
1391.297	1.279	1	pointing	Trial2	pointing/STIM_007.jpg
1396.005	1.011	0	pointing	Trial2	pointing/STIM_007.jpg
1399.132	1.182	1	pointing	Trial2	pointing/STIM_008.jpg
1402.75	0.96	1	pointing	Trial2	pointing/STIM_008.jpg
1406.285	1.042	1	pointing	Trial2	pointing/STIM_008.jpg
1411.023	1.238	1	pointing	Trial2	pointing/STIM_008.jpg
1415.336	1.048	0	pointing	Trial2	pointing/STIM_008.jpg
1419.64	1.26	0	pointing	Trial2	pointing/STIM_008.jpg
1424.138	1.184	0	pointing	Trial2	pointing/STIM_009.jpg
1428.61	1.675	0	pointing	Trial2	pointing/STIM_009.jpg
1432.341	1.011	1	pointing	Trial2	pointing/STIM_009.jpg
1437.022	1.287	0	pointing	Trial2	pointing/STIM_009.jpg
1441.978	1.256	1	pointing	Trial2	pointing/STIM_009.jpg
1445.988	1.362	0	pointing	Trial2	pointing/STIM_009.jpg
1449.479	1.459	1	pointing	Trial2	pointing/STIM_010.jpg
1454.038	1.18	1	pointing	Trial2	pointing/STIM_010.jpg
1459.131	1.006	1	pointing	Trial2	pointing/STIM_010.jpg
1463.342	1.002	0	pointing	Trial2	pointing/STIM_010.jpg
1467.598	1.325	1	pointing	Trial2	pointing/STIM_010.jpg
1472.374	1.382	1	pointing	Trial2	pointing/STIM_010.jpg
1477.377	0.909	1	pointing	Trial2	pointing/STIM_011.jpg
1482.068	1.079	1	pointing	Trial2	pointing/STIM_011.jpg
1486.757	1.546	1	pointing	Trial2	pointing/STIM_011.jpg
1490.565	1.535	1	pointing	Trial2	pointing/STIM_011.jpg
1495.306	1.255	1	pointing	Trial2	pointing/STIM_011.jpg
1500.264	0.937	1	pointing	Trial2	pointing/STIM_011.jpg
1504.345	2.211	1	navigation	Trial3	navigation/STIM_000.jpg
1509.206	1.736	0	navigation	Trial3	navigation/STIM_000.jpg
1513.029	3.439	0	navigation	Trial3	navigation/STIM_000.jpg
1519.104	2.9	1	navigation	Trial3	navigation/STIM_000.jpg
1524.489	3.637	1	navigation	Trial3	navigation/STIM_000.jpg
1531.23	3.554	0	navigation	Trial3	navigation/STIM_000.jpg
1537.23	2.098	1	navigation	Trial3	navigation/STIM_001.jpg
1542.348	1.763	1	navigation	Trial3	navigation/STIM_001.jpg
1546.168	2.015	0	navigation	Trial3	navigation/STIM_001.jpg
1550.62	1.906	0	navigation	Trial3	navigation/STIM_001.jpg
1555.977	2.121	1	navigation	Trial3	navigation/STIM_001.jpg
1560.793	1.718	1	navigation	Trial3	navigation/STIM_001.jpg
1565.882	3.954	1	navigation	Trial3	navigation/STIM_002.jpg
1571.955	2.718	1	navigation	Trial3	navigation/STIM_002.jpg
1577.506	2.239	1	navigation	Trial3	navigation/STIM_002.jpg
1582.366	2.197	1	navigation	Trial3	navigation/STIM_002.jpg
1588.181	2.239	1	navigation	Trial3	navigation/STIM_002.jpg
1592.483	2.515	1	navigation	Trial3	navigation/STIM_002.jpg
1597.091	2.612	1	navigation	Trial3	navigation/STIM_003.jpg
1602.205	3.906	0	navigation	Trial3	navigation/STIM_003.jpg
1608.573	2.168	1	navigation	Trial3	navigation/STIM_003.jpg
1613.484	1.891	1	navigation	Trial3	navigation/STIM_003.jpg
1617.68	2.188	1	navigation	Trial3	navigation/STIM_003.jpg
1622.363	2.205	1	navigation	Trial3	navigation/STIM_003.jpg
1628.021	2.301	1	navigation	Trial3	navigation/STIM_004.jpg
1634.04	3.894	1	navigation	Trial3	navigation/STIM_004.jpg
1640.763	2.79	1	navigation	Trial3	navigation/STIM_004.jpg
1647.082	3.762	1	navigation	Trial3	navigation/STIM_004.jpg
1653.692	1.764	1	navigation	Trial3	navigation/STIM_004.jpg
1659.256	3.034	1	navigation	Trial3	navigation/STIM_004.jpg
1666.124	1.716	1	navigation	Trial3	navigation/STIM_005.jpg
1670.396	2.994	1	navigation	Trial3	navigation/STIM_005.jpg
1676.087	1.892	1	navigation	Trial3	navigation/STIM_005.jpg
1681.508	2.944	1	navigation	Trial3	navigation/STIM_005.jpg
1687.744	3.552	1	navigation	Trial3	navigation/STIM_005.jpg
1694.891	3.266	1	navigation	Trial3	navigation/STIM_005.jpg
1701.615	2.433	0	navigation	Trial3	navigation/STIM_006.jpg
1706.552	2.739	1	navigation	Trial3	navigation/STIM_006.jpg
1712.438	3.318	1	navigation	Trial3	navigation/STIM_006.jpg
1718.699	2.669	0	navigation	Trial3	navigation/STIM_006.jpg
1724.594	3.733	0	navigation	Trial3	navigation/STIM_006.jpg
1730.434	3.108	1	navigation	Trial3	navigation/STIM_006.jpg
1736.806	3.48	1	navigation	Trial3	navigation/STIM_007.jpg
1743.005	2.05	1	navigation	Trial3	navigation/STIM_007.jpg
1747.325	2.38	1	navigation	Trial3	navigation/STIM_007.jpg
1753.326	2.527	1	navigation	Trial3	navigation/STIM_007.jpg
1759.62	1.802	1	navigation	Trial3	navigation/STIM_007.jpg
1764.786	2.981	1	navigation	Trial3	navigation/STIM_007.jpg
1770.546	3.174	1	navigation	Trial3	navigation/STIM_008.jpg
1775.976	2.878	0	navigation	Trial3	navigation/STIM_008.jpg
1781.462	1.847	1	navigation	Trial3	navigation/STIM_008.jpg
1785.412	2.299	1	navigation	Trial3	navigation/STIM_008.jpg
1791.543	1.796	1	navigation	Trial3	navigation/STIM_008.jpg
1796.635	2.511	1	navigation	Trial3	navigation/STIM_008.jpg
1801.979	3.749	1	navigation	Trial3	navigation/STIM_009.jpg
1809.436	2.472	1	navigation	Trial3	navigation/STIM_009.jpg
1814.896	3.65	0	navigation	Trial3	navigation/STIM_009.jpg
1821.838	2.739	1	navigation	Trial3	navigation/STIM_009.jpg
1827.86	3.42	1	navigation	Trial3	navigation/STIM_009.jpg
1834.213	3.375	1	navigation	Trial3	navigation/STIM_009.jpg
1841.494	2.441	1	navigation	Trial3	navigation/STIM_010.jpg
1846.108	2.331	1	navigation	Trial3	navigation/STIM_010.jpg
1850.772	3.476	0	navigation	Trial3	navigation/STIM_010.jpg
1856.646	2.214	1	navigation	Trial3	navigation/STIM_010.jpg
1861.102	3.169	1	navigation	Trial3	navigation/STIM_010.jpg
1868.079	3.256	1	navigation	Trial3	navigation/STIM_010.jpg
1874.761	1.638	1	navigation	Trial3	navigation/STIM_011.jpg
1879.317	3.435	1	navigation	Trial3	navigation/STIM_011.jpg
1886.255	1.684	1	navigation	Trial3	navigation/STIM_011.jpg
1889.948	3.489	1	navigation	Trial3	navigation/STIM_011.jpg
1897.304	2.402	1	navigation	Trial3	navigation/STIM_011.jpg
1902.723	3.773	0	navigation	Trial3	navigation/STIM_011.jpg
1908.707	1.666	1	pointing	Trial3	pointing/STIM_000.jpg
1913.425	1.455	0	pointing	Trial3	pointing/STIM_000.jpg
1918.596	1.295	1	pointing	Trial3	pointing/STIM_000.jpg
1923.289	1.523	1	pointing	Trial3	pointing/STIM_000.jpg
1927.769	1.678	1	pointing	Trial3	pointing/STIM_000.jpg
1933.212	1.035	1	pointing	Trial3	pointing/STIM_000.jpg
1936.665	1.52	1	pointing	Trial3	pointing/STIM_001.jpg
1941.423	1.394	1	pointing	Trial3	pointing/STIM_001.jpg
1945.32	0.973	0	pointing	Trial3	pointing/STIM_001.jpg
1948.355	1.444	0	pointing	Trial3	pointing/STIM_001.jpg
1952.703	0.986	1	pointing	Trial3	pointing/STIM_001.jpg
1957.31	1.544	1	pointing	Trial3	pointing/STIM_001.jpg
1961.485	1.645	1	pointing	Trial3	pointing/STIM_002.jpg
1965.482	0.976	1	pointing	Trial3	pointing/STIM_002.jpg
1969.588	1.277	1	pointing	Trial3	pointing/STIM_002.jpg
1974.022	1.03	1	pointing	Trial3	pointing/STIM_002.jpg
1978.908	1.452	1	pointing	Trial3	pointing/STIM_002.jpg
1983.684	1.384	1	pointing	Trial3	pointing/STIM_002.jpg
1988.931	1.601	1	pointing	Trial3	pointing/STIM_003.jpg
1992.915	1.385	1	pointing	Trial3	pointing/STIM_003.jpg
1997.931	1.062	1	pointing	Trial3	pointing/STIM_003.jpg
2002.836	1.16	0	pointing	Trial3	pointing/STIM_003.jpg
2006.009	0.943	1	pointing	Trial3	pointing/STIM_003.jpg
2010.54	0.928	1	pointing	Trial3	pointing/STIM_003.jpg
2015.083	1.026	0	pointing	Trial3	pointing/STIM_004.jpg
2019.552	1.413	1	pointing	Trial3	pointing/STIM_004.jpg
2023.401	1.634	1	pointing	Trial3	pointing/STIM_004.jpg
2027.556	1.454	1	pointing	Trial3	pointing/STIM_004.jpg
2032.734	1.189	0	pointing	Trial3	pointing/STIM_004.jpg
2037.355	1.279	0	pointing	Trial3	pointing/STIM_004.jpg
2042.081	1.568	1	pointing	Trial3	pointing/STIM_005.jpg
2047.456	1.168	0	pointing	Trial3	pointing/STIM_005.jpg
2051.456	1.365	1	pointing	Trial3	pointing/STIM_005.jpg
2056.659	1.208	1	pointing	Trial3	pointing/STIM_005.jpg
2061.815	0.933	1	pointing	Trial3	pointing/STIM_005.jpg
2064.937	0.961	1	pointing	Trial3	pointing/STIM_005.jpg
2068.86	1.088	1	pointing	Trial3	pointing/STIM_006.jpg
2072.185	1.54	1	pointing	Trial3	pointing/STIM_006.jpg
2076.029	1.417	1	pointing	Trial3	pointing/STIM_006.jpg
2080.815	1.468	1	pointing	Trial3	pointing/STIM_006.jpg
2086.139	1.385	1	pointing	Trial3	pointing/STIM_006.jpg
2090.053	1.138	1	pointing	Trial3	pointing/STIM_006.jpg
2094.999	1.675	1	pointing	Trial3	pointing/STIM_007.jpg
2099.525	1.658	1	pointing	Trial3	pointing/STIM_007.jpg
2103.239	1.438	0	pointing	Trial3	pointing/STIM_007.jpg
2107.442	1.495	1	pointing	Trial3	pointing/STIM_007.jpg
2112.318	1.638	1	pointing	Trial3	pointing/STIM_007.jpg
2117.677	1.56	1	pointing	Trial3	pointing/STIM_007.jpg
2122.992	1.131	1	pointing	Trial3	pointing/STIM_008.jpg
2126.977	1.367	1	pointing	Trial3	pointing/STIM_008.jpg
2131.878	1.429	0	pointing	Trial3	pointing/STIM_008.jpg
2136.418	1.587	0	pointing	Trial3	pointing/STIM_008.jpg
2140.995	1.445	1	pointing	Trial3	pointing/STIM_008.jpg
2144.848	1.622	1	pointing	Trial3	pointing/STIM_008.jpg
2148.72	1.475	1	pointing	Trial3	pointing/STIM_009.jpg
2153.2	1.087	1	pointing	Trial3	pointing/STIM_009.jpg
2156.697	1.417	1	pointing	Trial3	pointing/STIM_009.jpg
2161.193	1.398	1	pointing	Trial3	pointing/STIM_009.jpg
2166.135	1.423	0	pointing	Trial3	pointing/STIM_009.jpg
2170.39	0.929	1	pointing	Trial3	pointing/STIM_009.jpg
2174.865	1.064	1	pointing	Trial3	pointing/STIM_010.jpg
2178.934	1.047	1	pointing	Trial3	pointing/STIM_010.jpg
2182.802	1.015	0	pointing	Trial3	pointing/STIM_010.jpg
2187.33	1.167	0	pointing	Trial3	pointing/STIM_010.jpg
2191.604	0.98	1	pointing	Trial3	pointing/STIM_010.jpg
2195.51	1.128	1	pointing	Trial3	pointing/STIM_010.jpg
2199.551	1.499	0	pointing	Trial3	pointing/STIM_011.jpg
2205.014	1.066	1	pointing	Trial3	pointing/STIM_011.jpg
2209.603	1.605	1	pointing	Trial3	pointing/STIM_011.jpg
2213.27	1.3	1	pointing	Trial3	pointing/STIM_011.jpg
2217.588	1.167	1	pointing	Trial3	pointing/STIM_011.jpg
2221.234	1.366	1	pointing	Trial3	pointing/STIM_011.jpg
