onset	duration	accuracy	trial_type	learning_stage	stimulus
0.0	1.383	correct	incongruent	Block1	incongruent/STIM_000.jpg
5.013	1.271	incorrect	incongruent	Block1	incongruent/STIM_000.jpg
8.919	1.191	correct	incongruent	Block1	incongruent/STIM_000.jpg
13.399	1.239	correct	incongruent	Block1	incongruent/STIM_000.jpg
17.681	0.956	correct	incongruent	Block1	incongruent/STIM_000.jpg
22.454	0.927	correct	incongruent	Block1	incongruent/STIM_001.jpg
25.53	1.222	correct	incongruent	Block1	incongruent/STIM_001.jpg
30.69	1.102	correct	incongruent	Block1	incongruent/STIM_001.jpg
35.218	0.664	correct	incongruent	Block1	incongruent/STIM_001.jpg
39.363	0.829	correct	incongruent	Block1	incongruent/STIM_001.jpg
43.183	1.53	correct	incongruent	Block1	incongruent/STIM_002.jpg
47.739	0.819	correct	incongruent	Block1	incongruent/STIM_002.jpg
52.049	0.769	correct	incongruent	Block1	incongruent/STIM_002.jpg
55.851	0.711	correct	incongruent	Block1	incongruent/STIM_002.jpg
60.298	1.101	correct	incongruent	Block1	incongruent/STIM_002.jpg
64.162	1.246	correct	incongruent	Block1	incongruent/STIM_003.jpg
68.339	1.465	correct	incongruent	Block1	incongruent/STIM_003.jpg
73.554	0.827	correct	incongruent	Block1	incongruent/STIM_003.jpg
76.585	1.186	correct	incongruent	Block1	incongruent/STIM_003.jpg
81.292	1.149	correct	incongruent	Block1	incongruent/STIM_003.jpg
84.51	0.778	correct	incongruent	Block1	incongruent/STIM_004.jpg
88.087	1.176	correct	incongruent	Block1	incongruent/STIM_004.jpg
91.849	1.146	correct	incongruent	Block1	incongruent/STIM_004.jpg
95.005	1.072	incorrect	incongruent	Block1	incongruent/STIM_004.jpg
99.312	1.066	correct	incongruent	Block1	incongruent/STIM_004.jpg
102.928	0.77	correct	incongruent	Block1	incongruent/STIM_005.jpg
106.225	0.725	correct	incongruent	Block1	incongruent/STIM_005.jpg
110.599	0.932	correct	incongruent	Block1	incongruent/STIM_005.jpg
114.07	0.702	incorrect	incongruent	Block1	incongruent/STIM_005.jpg
117.472	0.857	correct	incongruent	Block1	incongruent/STIM_005.jpg
121.302	1.528	correct	incongruent	Block1	incongruent/STIM_006.jpg
125.688	1.404	correct	incongruent	Block1	incongruent/STIM_006.jpg
130.544	0.834	correct	incongruent	Block1	incongruent/STIM_006.jpg
135.295	1.153	correct	incongruent	Block1	incongruent/STIM_006.jpg
138.653	1.144	correct	incongruent	Block1	incongruent/STIM_006.jpg
143.677	1.074	correct	incongruent	Block1	incongruent/STIM_007.jpg
147.489	1.229	correct	incongruent	Block1	incongruent/STIM_007.jpg
151.761	1.265	correct	incongruent	Block1	incongruent/STIM_007.jpg
156.967	1.154	correct	incongruent	Block1	incongruent/STIM_007.jpg
160.377	1.027	correct	incongruent	Block1	incongruent/STIM_007.jpg
163.845	1.144	correct	incongruent	Block1	incongruent/STIM_008.jpg
168.606	1.404	correct	incongruent	Block1	incongruent/STIM_008.jpg
172.784	1.076	correct	incongruent	Block1	incongruent/STIM_008.jpg
176.334	1.007	correct	incongruent	Block1	incongruent/STIM_008.jpg
180.324	0.827	correct	incongruent	Block1	incongruent/STIM_008.jpg
183.436	1.531	correct	incongruent	Block1	incongruent/STIM_009.jpg
188.489	0.871	correct	incongruent	Block1	incongruent/STIM_009.jpg
192.876	0.861	correct	incongruent	Block1	incongruent/STIM_009.jpg
197.486	0.748	incorrect	incongruent	Block1	incongruent/STIM_009.jpg
201.084	1.245	correct	incongruent	Block1	incongruent/STIM_009.jpg
205.948	1.346	correct	incongruent	Block1	incongruent/STIM_010.jpg
210.623	1.272	correct	incongruent	Block1	incongruent/STIM_010.jpg
215.201	1.121	correct	incongruent	Block1	incongruent/STIM_010.jpg
219.748	0.79	correct	incongruent	Block1	incongruent/STIM_010.jpg
222.964	0.671	correct	incongruent	Block1	incongruent/STIM_010.jpg
227.541	0.924	correct	incongruent	Block1	incongruent/STIM_011.jpg
231.972	0.859	correct	incongruent	Block1	incongruent/STIM_011.jpg
235.731	1.058	incorrect	incongruent	Block1	incongruent/STIM_011.jpg
239.649	0.793	correct	incongruent	Block1	incongruent/STIM_011.jpg
242.573	0.906	correct	incongruent	Block1	incongruent/STIM_011.jpg
246.31	1.111	incorrect	incongruent	Block1	incongruent/STIM_012.jpg
250.666	1.025	correct	incongruent	Block1	incongruent/STIM_012.jpg
254.46	1.1	correct	incongruent	Block1	incongruent/STIM_012.jpg
258.651	1.051	correct	incongruent	Block1	incongruent/STIM_012.jpg
262.571	0.782	correct	incongruent	Block1	incongruent/STIM_012.jpg
267.125	1.205	incorrect	incongruent	Block1	incongruent/STIM_013.jpg
271.249	1.079	correct	incongruent	Block1	incongruent/STIM_013.jpg
274.289	0.662	incorrect	incongruent	Block1	incongruent/STIM_013.jpg
278.067	0.907	correct	incongruent	Block1	incongruent/STIM_013.jpg
282.93	1.129	correct	incongruent	Block1	incongruent/STIM_013.jpg
287.978	0.954	correct	incongruent	Block1	incongruent/STIM_014.jpg
291.186	0.888	correct	incongruent	Block1	incongruent/STIM_014.jpg
294.246	1.086	correct	incongruent	Block1	incongruent/STIM_014.jpg
297.344	1.194	incorrect	incongruent	Block1	incongruent/STIM_014.jpg
302.317	0.69	correct	incongruent	Block1	incongruent/STIM_014.jpg
305.023	0.778	correct	incongruent	Block1	incongruent/STIM_015.jpg
309.498	1.411	correct	incongruent	Block1	incongruent/STIM_015.jpg
313.078	1.029	correct	incongruent	Block1	incongruent/STIM_015.jpg
316.323	0.757	correct	incongruent	Block1	incongruent/STIM_015.jpg
320.168	1.173	correct	incongruent	Block1	incongruent/STIM_015.jpg
324.97	1.326	correct	incongruent	Block1	incongruent/STIM_016.jpg
329.739	1.147	correct	incongruent	Block1	incongruent/STIM_016.jpg
334.131	1.091	correct	incongruent	Block1	incongruent/STIM_016.jpg
338.37	0.855	correct	incongruent	Block1	incongruent/STIM_016.jpg
341.243	0.839	correct	incongruent	Block1	incongruent/STIM_016.jpg
345.856	1.189	correct	incongruent	Block1	incongruent/STIM_017.jpg
349.768	0.746	correct	incongruent	Block1	incongruent/STIM_017.jpg
353.392	1.317	correct	incongruent	Block1	incongruent/STIM_017.jpg
357.369	1.266	correct	incongruent	Block1	incongruent/STIM_017.jpg
361.971	1.106	correct	incongruent	Block1	incongruent/STIM_017.jpg
366.13	1.377	correct	incongruent	Block1	incongruent/STIM_018.jpg
371.074	0.823	correct	incongruent	Block1	incongruent/STIM_018.jpg
375.042	1.084	correct	incongruent	Block1	incongruent/STIM_018.jpg
378.327	1.029	correct	incongruent	Block1	incongruent/STIM_018.jpg
382.276	0.777	correct	incongruent	Block1	incongruent/STIM_018.jpg
386.026	1.081	incorrect	incongruent	Block1	incongruent/STIM_019.jpg
389.23	1.386	correct	incongruent	Block1	incongruent/STIM_019.jpg
393.972	0.78	correct	incongruent	Block1	incongruent/STIM_019.jpg
397.415	1.277	incorrect	incongruent	Block1	incongruent/STIM_019.jpg
400.953	1.104	correct	incongruent	Block1	incongruent/STIM_019.jpg
405.436	0.975	correct	incongruent	Block1	incongruent/STIM_020.jpg
409.028	1.046	correct	incongruent	Block1	incongruent/STIM_020.jpg
412.221	1.17	correct	incongruent	Block1	incongruent/STIM_020.jpg
415.998	0.863	correct	incongruent	Block1	incongruent/STIM_020.jpg
420.596	1.231	correct	incongruent	Block1	incongruent/STIM_020.jpg
424.572	0.808	correct	incongruent	Block1	incongruent/STIM_021.jpg
428.016	0.946	correct	incongruent	Block1	incongruent/STIM_021.jpg
432.807	0.739	correct	incongruent	Block1	incongruent/STIM_021.jpg
437.411	1.269	correct	incongruent	Block1	incongruent/STIM_021.jpg
441.171	1.01	correct	incongruent	Block1	incongruent/STIM_021.jpg
444.263	1.118	correct	incongruent	Block1	incongruent/STIM_022.jpg
447.978	1.355	correct	incongruent	Block1	incongruent/STIM_022.jpg
452.604	0.683	correct	incongruent	Block1	incongruent/STIM_022.jpg
455.657	1.183	correct	incongruent	Block1	incongruent/STIM_022.jpg
459.869	0.758	correct	incongruent	Block1	incongruent/STIM_022.jpg
462.867	0.787	correct	incongruent	Block1	incongruent/STIM_023.jpg
465.633	1.391	correct	incongruent	Block1	incongruent/STIM_023.jpg
470.499	0.93	correct	incongruent	Block1	incongruent/STIM_023.jpg
474.147	1.053	correct	incongruent	Block1	incongruent/STIM_023.jpg
478.823	0.641	correct	incongruent	Block1	incongruent/STIM_023.jpg
481.595	1.164	correct	incongruent	Block1	incongruent/STIM_024.jpg
485.013	1.347	correct	incongruent	Block1	incongruent/STIM_024.jpg
488.469	1.365	correct	incongruent	Block1	incongruent/STIM_024.jpg
492.628	0.753	incorrect	incongruent	Block1	incongruent/STIM_024.jpg
497.059	0.847	correct	incongruent	Block1	incongruent/STIM_024.jpg
500.739	1.526	correct	incongruent	Block1	incongruent/STIM_025.jpg
505.857	0.804	incorrect	incongruent	Block1	incongruent/STIM_025.jpg
509.859	0.898	incorrect	incongruent	Block1	incongruent/STIM_025.jpg
514.239	0.984	correct	incongruent	Block1	incongruent/STIM_025.jpg
519.105	0.836	incorrect	incongruent	Block1	incongruent/STIM_025.jpg
523.609	0.829	correct	incongruent	Block1	incongruent/STIM_026.jpg
527.22	1.179	incorrect	incongruent	Block1	incongruent/STIM_026.jpg
532.272	1.116	correct	incongruent	Block1	incongruent/STIM_026.jpg
537.212	0.695	correct	incongruent	Block1	incongruent/STIM_026.jpg
539.899	1.044	correct	incongruent	Block1	incongruent/STIM_026.jpg
543.241	1.444	correct	incongruent	Block1	incongruent/STIM_027.jpg
547.552	0.857	correct	incongruent	Block1	incongruent/STIM_027.jpg
551.115	1.229	correct	incongruent	Block1	incongruent/STIM_027.jpg
555.858	1.214	correct	incongruent	Block1	incongruent/STIM_027.jpg
559.137	0.755	correct	incongruent	Block1	incongruent/STIM_027.jpg
563.441	0.736	correct	incongruent	Block1	incongruent/STIM_028.jpg
566.903	0.958	correct	incongruent	Block1	incongruent/STIM_028.jpg
570.917	1.38	correct	incongruent	Block1	incongruent/STIM_028.jpg
576.042	1.17	correct	incongruent	Block1	incongruent/STIM_028.jpg
580.316	0.605	correct	incongruent	Block1	incongruent/STIM_028.jpg
583.904	1.27	correct	incongruent	Block1	incongruent/STIM_029.jpg
588.277	1.228	correct	incongruent	Block1	incongruent/STIM_029.jpg
592.972	1.144	correct	incongruent	Block1	incongruent/STIM_029.jpg
596.779	1.155	correct	incongruent	Block1	incongruent/STIM_029.jpg
601.024	0.68	correct	incongruent	Block1	incongruent/STIM_029.jpg
604.919	0.656	correct	congruent	Block1	congruent/STIM_000.jpg
608.426	0.9	correct	congruent	Block1	congruent/STIM_000.jpg
611.747	0.572	correct	congruent	Block1	congruent/STIM_000.jpg
616.095	0.653	correct	congruent	Block1	congruent/STIM_000.jpg
620.122	0.892	correct	congruent	Block1	congruent/STIM_000.jpg
623.429	0.598	correct	congruent	Block1	congruent/STIM_001.jpg
627.826	0.648	correct	congruent	Block1	congruent/STIM_001.jpg
631.138	0.708	correct	congruent	Block1	congruent/STIM_001.jpg
635.38	0.849	correct	congruent	Block1	congruent/STIM_001.jpg
639.688	0.831	correct	congruent	Block1	congruent/STIM_001.jpg
643.554	0.88	correct	congruent	Block1	congruent/STIM_002.jpg
647.492	0.651	correct	congruent	Block1	congruent/STIM_002.jpg
651.072	0.541	correct	congruent	Block1	congruent/STIM_002.jpg
653.655	0.92	correct	congruent	Block1	congruent/STIM_002.jpg
658.083	0.717	correct	congruent	Block1	congruent/STIM_002.jpg
662.221	0.648	correct	congruent	Block1	congruent/STIM_003.jpg
666.265	0.852	correct	congruent	Block1	congruent/STIM_003.jpg
670.186	0.842	correct	congruent	Block1	congruent/STIM_003.jpg
673.637	0.819	correct	congruent	Block1	congruent/STIM_003.jpg
677.595	0.692	correct	congruent	Block1	congruent/STIM_003.jpg
682.042	0.671	correct	congruent	Block1	congruent/STIM_004.jpg
686.068	0.701	correct	congruent	Block1	congruent/STIM_004.jpg
689.895	0.612	correct	congruent	Block1	congruent/STIM_004.jpg
692.811	0.919	correct	congruent	Block1	congruent/STIM_004.jpg
697.116	0.622	correct	congruent	Block1	congruent/STIM_004.jpg
701.658	0.923	correct	congruent	Block1	congruent/STIM_005.jpg
706.488	0.914	correct	congruent	Block1	congruent/STIM_005.jpg
711.014	0.832	correct	congruent	Block1	congruent/STIM_005.jpg
714.426	0.83	correct	congruent	Block1	congruent/STIM_005.jpg
718.716	0.827	correct	congruent	Block1	congruent/STIM_005.jpg
723.054	0.611	correct	congruent	Block1	congruent/STIM_006.jpg
726.191	0.91	correct	congruent	Block1	congruent/STIM_006.jpg
730.468	0.888	correct	congruent	Block1	congruent/STIM_006.jpg
733.892	0.794	correct	congruent	Block1	congruent/STIM_006.jpg
737.308	0.681	correct	congruent	Block1	congruent/STIM_006.jpg
740.465	0.801	correct	congruent	Block1	congruent/STIM_007.jpg
744.355	0.665	correct	congruent	Block1	congruent/STIM_007.jpg
748.705	0.753	correct	congruent	Block1	congruent/STIM_007.jpg
751.512	0.781	incorrect	congruent	Block1	congruent/STIM_007.jpg
754.456	0.665	correct	congruent	Block1	congruent/STIM_007.jpg
758.407	0.637	correct	congruent	Block1	congruent/STIM_008.jpg
761.456	0.638	correct	congruent	Block1	congruent/STIM_008.jpg
765.441	0.719	correct	congruent	Block1	congruent/STIM_008.jpg
769.802	0.887	correct	congruent	Block1	congruent/STIM_008.jpg
774.472	0.844	correct	congruent	Block1	congruent/STIM_008.jpg
778.297	0.843	correct	congruent	Block1	congruent/STIM_009.jpg
781.221	0.724	correct	congruent	Block1	congruent/STIM_009.jpg
784.03	0.545	correct	congruent	Block1	congruent/STIM_009.jpg
788.51	0.741	correct	congruent	Block1	congruent/STIM_009.jpg
791.877	0.767	correct	congruent	Block1	congruent/STIM_009.jpg
796.312	0.866	correct	congruent	Block1	congruent/STIM_010.jpg
799.361	0.602	correct	congruent	Block1	congruent/STIM_010.jpg
802.868	0.649	correct	congruent	Block1	congruent/STIM_010.jpg
805.847	0.618	correct	congruent	Block1	congruent/STIM_010.jpg
809.987	0.714	correct	congruent	Block1	congruent/STIM_010.jpg
813.213	0.854	correct	congruent	Block1	congruent/STIM_011.jpg
816.189	0.92	correct	congruent	Block1	congruent/STIM_011.jpg
819.936	0.564	correct	congruent	Block1	congruent/STIM_011.jpg
823.907	0.593	correct	congruent	Block1	congruent/STIM_011.jpg
828.125	0.694	correct	congruent	Block1	congruent/STIM_011.jpg
831.827	0.527	correct	congruent	Block1	congruent/STIM_012.jpg
834.607	0.636	correct	congruent	Block1	congruent/STIM_012.jpg
838.209	0.719	correct	congruent	Block1	congruent/STIM_012.jpg
842.847	0.79	correct	congruent	Block1	congruent/STIM_012.jpg
845.657	0.673	correct	congruent	Block1	congruent/STIM_012.jpg
848.739	0.826	correct	congruent	Block1	congruent/STIM_013.jpg
852.72	0.608	correct	congruent	Block1	congruent/STIM_013.jpg
855.817	0.836	correct	congruent	Block1	congruent/STIM_013.jpg
858.736	0.597	correct	congruent	Block1	congruent/STIM_013.jpg
861.806	0.538	correct	congruent	Block1	congruent/STIM_013.jpg
865.885	0.56	correct	congruent	Block1	congruent/STIM_014.jpg
870.143	0.808	correct	congruent	Block1	congruent/STIM_014.jpg
874.386	0.928	correct	congruent	Block1	congruent/STIM_014.jpg
877.837	0.794	correct	congruent	Block1	congruent/STIM_014.jpg
881.507	0.808	correct	congruent	Block1	congruent/STIM_014.jpg
885.824	0.874	correct	congruent	Block1	congruent/STIM_015.jpg
889.232	0.874	correct	congruent	Block1	congruent/STIM_015.jpg
893.074	0.671	correct	congruent	Block1	congruent/STIM_015.jpg
896.053	0.573	correct	congruent	Block1	congruent/STIM_015.jpg
899.215	0.766	correct	congruent	Block1	congruent/STIM_015.jpg
903.645	0.677	correct	congruent	Block1	congruent/STIM_016.jpg
906.931	0.782	correct	congruent	Block1	congruent/STIM_016.jpg
911.607	0.526	correct	congruent	Block1	congruent/STIM_016.jpg
914.503	0.744	correct	congruent	Block1	congruent/STIM_016.jpg
917.353	0.632	correct	congruent	Block1	congruent/STIM_016.jpg
921.628	0.922	correct	congruent	Block1	congruent/STIM_017.jpg
926.473	0.651	correct	congruent	Block1	congruent/STIM_017.jpg
930.293	0.756	correct	congruent	Block1	congruent/STIM_017.jpg
933.641	0.714	correct	congruent	Block1	congruent/STIM_017.jpg
937.307	0.894	correct	congruent	Block1	congruent/STIM_017.jpg
941.143	0.576	correct	congruent	Block1	congruent/STIM_018.jpg
944.646	0.548	correct	congruent	Block1	congruent/STIM_018.jpg
948.466	0.584	correct	congruent	Block1	congruent/STIM_018.jpg
952.234	0.699	correct	congruent	Block1	congruent/STIM_018.jpg
955.68	0.805	correct	congruent	Block1	congruent/STIM_018.jpg
959.873	0.549	correct	congruent	Block1	congruent/STIM_019.jpg
964.07	0.609	incorrect	congruent	Block1	congruent/STIM_019.jpg
968.177	0.614	incorrect	congruent	Block1	congruent/STIM_019.jpg
972.245	0.621	correct	congruent	Block1	congruent/STIM_019.jpg
975.23	0.627	correct	congruent	Block1	congruent/STIM_019.jpg
978.535	0.786	correct	congruent	Block1	congruent/STIM_020.jpg
982.821	0.745	correct	congruent	Block1	congruent/STIM_020.jpg
986.107	0.772	correct	congruent	Block1	congruent/STIM_020.jpg
989.67	0.528	correct	congruent	Block1	congruent/STIM_020.jpg
993.413	0.677	correct	congruent	Block1	congruent/STIM_020.jpg
997.744	0.822	correct	congruent	Block1	congruent/STIM_021.jpg
1002.246	0.811	correct	congruent	Block1	congruent/STIM_021.jpg
1005.858	0.609	correct	congruent	Block1	congruent/STIM_021.jpg
1009.79	0.737	correct	congruent	Block1	congruent/STIM_021.jpg
1013.256	0.561	correct	congruent	Block1	congruent/STIM_021.jpg
1017.258	0.774	correct	congruent	Block1	congruent/STIM_022.jpg
1020.048	0.909	correct	congruent	Block1	congruent/STIM_022.jpg
1022.991	0.538	correct	congruent	Block1	congruent/STIM_022.jpg
1027.259	0.813	correct	congruent	Block1	congruent/STIM_022.jpg
1030.941	0.683	correct	congruent	Block1	congruent/STIM_022.jpg
1033.987	0.684	correct	congruent	Block1	congruent/STIM_023.jpg
1036.717	0.566	correct	congruent	Block1	congruent/STIM_023.jpg
1039.437	0.637	incorrect	congruent	Block1	congruent/STIM_023.jpg
1042.147	0.884	correct	congruent	Block1	congruent/STIM_023.jpg
1046.254	0.925	correct	congruent	Block1	congruent/STIM_023.jpg
1049.26	0.898	correct	congruent	Block1	congruent/STIM_024.jpg
1052.876	0.924	correct	congruent	Block1	congruent/STIM_024.jpg
1057.68	0.646	incorrect	congruent	Block1	congruent/STIM_024.jpg
1060.305	0.552	correct	congruent	Block1	congruent/STIM_024.jpg
1062.909	0.772	incorrect	congruent	Block1	congruent/STIM_024.jpg
1066.787	0.861	correct	congruent	Block1	congruent/STIM_025.jpg
1069.986	0.848	correct	congruent	Block1	congruent/STIM_025.jpg
1072.813	0.886	correct	congruent	Block1	congruent/STIM_025.jpg
1077.541	0.928	correct	congruent	Block1	congruent/STIM_025.jpg
1082.158	0.695	correct	congruent	Block1	congruent/STIM_025.jpg
1085.859	0.642	incorrect	congruent	Block1	congruent/STIM_026.jpg
1089.702	0.673	correct	congruent	Block1	congruent/STIM_026.jpg
1093.463	0.835	correct	congruent	Block1	congruent/STIM_026.jpg
1098.164	0.824	correct	congruent	Block1	congruent/STIM_026.jpg
1101.327	0.8	correct	congruent	Block1	congruent/STIM_026.jpg
1104.485	0.613	correct	congruent	Block1	congruent/STIM_027.jpg
1107.349	0.571	correct	congruent	Block1	congruent/STIM_027.jpg
1110.202	0.793	correct	congruent	Block1	congruent/STIM_027.jpg
1113.678	0.586	correct	congruent	Block1	congruent/STIM_027.jpg
1116.261	0.729	correct	congruent	Block1	congruent/STIM_027.jpg
1119.926	0.595	correct	congruent	Block1	congruent/STIM_028.jpg
1124.226	0.714	correct	congruent	Block1	congruent/STIM_028.jpg
1128.603	0.761	correct	congruent	Block1	congruent/STIM_028.jpg
1132.533	0.856	correct	congruent	Block1	congruent/STIM_028.jpg
1135.545	0.832	correct	congruent	Block1	congruent/STIM_028.jpg
1138.64	0.705	correct	congruent	Block1	congruent/STIM_029.jpg
1141.872	0.534	correct	congruent	Block1	congruent/STIM_029.jpg
1144.765	0.856	correct	congruent	Block1	congruent/STIM_029.jpg
1149.026	0.898	correct	congruent	Block1	congruent/STIM_029.jpg
1152.075	0.532	correct	congruent	Block1	congruent/STIM_029.jpg
1156.023	1.192	correct	incongruent	Block2	incongruent/STIM_000.jpg
1159.416	1.032	incorrect	incongruent	Block2	incongruent/STIM_000.jpg
1163.372	0.829	correct	incongruent	Block2	incongruent/STIM_000.jpg
1166.427	0.885	correct	incongruent	Block2	incongruent/STIM_000.jpg
1170.783	0.733	correct	incongruent	Block2	incongruent/STIM_000.jpg
1174.782	0.787	correct	incongruent	Block2	incongruent/STIM_001.jpg
1179.105	1.232	correct	incongruent	Block2	incongruent/STIM_001.jpg
1182.705	0.63	correct	incongruent	Block2	incongruent/STIM_001.jpg
1186.241	0.736	correct	incongruent	Block2	incongruent/STIM_001.jpg
1189.757	0.785	correct	incongruent	Block2	incongruent/STIM_001.jpg
1194.505	0.904	correct	incongruent	Block2	incongruent/STIM_002.jpg
1197.412	1.022	correct	incongruent	Block2	incongruent/STIM_002.jpg
1201.689	0.871	correct	incongruent	Block2	incongruent/STIM_002.jpg
1204.743	1.0	correct	incongruent	Block2	incongruent/STIM_002.jpg
1209.311	0.842	correct	incongruent	Block2	incongruent/STIM_002.jpg
1213.1	1.283	correct	incongruent	Block2	incongruent/STIM_003.jpg
1218.117	0.601	correct	incongruent	Block2	incongruent/STIM_003.jpg
1221.683	0.647	correct	incongruent	Block2	incongruent/STIM_003.jpg
1224.423	0.632	correct	incongruent	Block2	incongruent/STIM_003.jpg
1227.336	0.904	correct	incongruent	Block2	incongruent/STIM_003.jpg
1230.251	0.721	correct	incongruent	Block2	incongruent/STIM_004.jpg
1233.634	0.642	correct	incongruent	Block2	incongruent/STIM_004.jpg
1237.032	0.851	correct	incongruent	Block2	incongruent/STIM_004.jpg
1240.957	1.026	correct	incongruent	Block2	incongruent/STIM_004.jpg
1245.323	0.967	correct	incongruent	Block2	incongruent/STIM_004.jpg
1249.797	0.958	correct	incongruent	Block2	incongruent/STIM_005.jpg
1254.293	0.725	correct	incongruent	Block2	incongruent/STIM_005.jpg
1257.927	0.744	correct	incongruent	Block2	incongruent/STIM_005.jpg
1262.092	0.846	incorrect	incongruent	Block2	incongruent/STIM_005.jpg
1265.628	0.724	correct	incongruent	Block2	incongruent/STIM_005.jpg
1268.499	1.18	correct	incongruent	Block2	incongruent/STIM_006.jpg
1272.058	1.071	incorrect	incongruent	Block2	incongruent/STIM_006.jpg
1276.666	0.729	correct	incongruent	Block2	incongruent/STIM_006.jpg
1280.078	0.648	correct	incongruent	Block2	incongruent/STIM_006.jpg
1283.458	0.973	correct	incongruent	Block2	incongruent/STIM_006.jpg
1286.851	1.0	correct	incongruent	Block2	incongruent/STIM_007.jpg
1291.155	1.107	correct	incongruent	Block2	incongruent/STIM_007.jpg
1294.807	0.87	correct	incongruent	Block2	incongruent/STIM_007.jpg
1298.696	0.701	correct	incongruent	Block2	incongruent/STIM_007.jpg
1302.486	0.93	correct	incongruent	Block2	incongruent/STIM_007.jpg
1306.509	1.28	correct	incongruent	Block2	incongruent/STIM_008.jpg
1310.909	0.673	correct	incongruent	Block2	incongruent/STIM_008.jpg
1314.942	0.7	incorrect	incongruent	Block2	incongruent/STIM_008.jpg
1319.179	0.972	correct	incongruent	Block2	incongruent/STIM_008.jpg
1323.39	0.916	correct	incongruent	Block2	incongruent/STIM_008.jpg
1327.997	0.891	correct	incongruent	Block2	incongruent/STIM_009.jpg
1332.287	0.73	correct	incongruent	Block2	incongruent/STIM_009.jpg
1336.825	0.883	correct	incongruent	Block2	incongruent/STIM_009.jpg
1340.876	0.778	correct	incongruent	Block2	incongruent/STIM_009.jpg
1345.193	0.914	correct	incongruent	Block2	incongruent/STIM_009.jpg
1349.444	1.295	correct	incongruent	Block2	incongruent/STIM_010.jpg
1354.502	1.119	correct	incongruent	Block2	incongruent/STIM_010.jpg
1359.06	0.764	correct	incongruent	Block2	incongruent/STIM_010.jpg
1363.424	0.973	correct	incongruent	Block2	incongruent/STIM_010.jpg
1368.19	0.645	correct	incongruent	Block2	incongruent/STIM_010.jpg
1371.441	0.846	correct	incongruent	Block2	incongruent/STIM_011.jpg
1376.173	1.074	correct	incongruent	Block2	incongruent/STIM_011.jpg
1379.293	1.021	correct	incongruent	Block2	incongruent/STIM_011.jpg
1383.942	1.068	correct	incongruent	Block2	incongruent/STIM_011.jpg
1387.216	0.987	correct	incongruent	Block2	incongruent/STIM_011.jpg
1391.564	0.918	correct	incongruent	Block2	incongruent/STIM_012.jpg
1395.322	0.608	correct	incongruent	Block2	incongruent/STIM_012.jpg
1399.077	0.653	correct	incongruent	Block2	incongruent/STIM_012.jpg
1402.002	0.586	correct	incongruent	Block2	incongruent/STIM_012.jpg
1406.496	0.655	correct	incongruent	Block2	incongruent/STIM_012.jpg
1410.201	1.018	correct	incongruent	Block2	incongruent/STIM_013.jpg
1413.206	0.649	correct	incongruent	Block2	incongruent/STIM_013.jpg
1415.849	0.691	correct	incongruent	Block2	incongruent/STIM_013.jpg
1420.247	1.09	correct	incongruent	Block2	incongruent/STIM_013.jpg
1423.75	0.616	correct	incongruent	Block2	incongruent/STIM_013.jpg
1427.999	0.68	correct	incongruent	Block2	incongruent/STIM_014.jpg
1431.234	0.948	correct	incongruent	Block2	incongruent/STIM_014.jpg
1435.74	0.695	correct	incongruent	Block2	incongruent/STIM_014.jpg
1440.238	0.516	correct	incongruent	Block2	incongruent/STIM_014.jpg
1443.059	0.776	correct	incongruent	Block2	incongruent/STIM_014.jpg
1446.759	0.814	correct	incongruent	Block2	incongruent/STIM_015.jpg
1450.523	0.699	correct	incongruent	Block2	incongruent/STIM_015.jpg
1454.165	1.079	correct	incongruent	Block2	incongruent/STIM_015.jpg
1457.527	0.964	correct	incongruent	Block2	incongruent/STIM_015.jpg
1461.637	0.755	correct	incongruent	Block2	incongruent/STIM_015.jpg
1465.192	0.627	incorrect	incongruent	Block2	incongruent/STIM_016.jpg
1467.824	0.584	correct	incongruent	Block2	incongruent/STIM_016.jpg
1470.687	0.814	correct	incongruent	Block2	incongruent/STIM_016.jpg
1473.79	0.852	correct	incongruent	Block2	incongruent/STIM_016.jpg
1478.508	0.929	correct	incongruent	Block2	incongruent/STIM_016.jpg
1482.933	1.215	correct	incongruent	Block2	incongruent/STIM_017.jpg
1488.071	0.708	correct	incongruent	Block2	incongruent/STIM_017.jpg
1491.4	0.99	correct	incongruent	Block2	incongruent/STIM_017.jpg
1495.019	0.821	correct	incongruent	Block2	incongruent/STIM_017.jpg
1498.147	0.742	correct	incongruent	Block2	incongruent/STIM_017.jpg
1502.146	1.108	correct	incongruent	Block2	incongruent/STIM_018.jpg
1505.25	0.669	correct	incongruent	Block2	incongruent/STIM_018.jpg
1508.989	1.148	incorrect	incongruent	Block2	incongruent/STIM_018.jpg
1512.277	1.018	correct	incongruent	Block2	incongruent/STIM_018.jpg
1516.337	0.871	correct	incongruent	Block2	incongruent/STIM_018.jpg
1519.505	0.634	correct	incongruent	Block2	incongruent/STIM_019.jpg
1522.737	0.602	incorrect	incongruent	Block2	incongruent/STIM_019.jpg
1526.67	0.675	incorrect	incongruent	Block2	incongruent/STIM_019.jpg
1529.422	0.88	correct	incongruent	Block2	incongruent/STIM_019.jpg
1533.904	0.672	correct	incongruent	Block2	incongruent/STIM_019.jpg
1537.945	1.146	correct	incongruent	Block2	incongruent/STIM_020.jpg
1541.764	0.851	correct	incongruent	Block2	incongruent/STIM_020.jpg
1546.556	0.898	correct	incongruent	Block2	incongruent/STIM_020.jpg
1549.872	0.797	correct	incongruent	Block2	incongruent/STIM_020.jpg
1554.563	0.73	correct	incongruent	Block2	incongruent/STIM_020.jpg
1559.024	0.68	correct	incongruent	Block2	incongruent/STIM_021.jpg
1561.784	1.062	correct	incongruent	Block2	incongruent/STIM_021.jpg
1566.192	1.089	correct	incongruent	Block2	incongruent/STIM_021.jpg
1569.326	0.911	correct	incongruent	Block2	incongruent/STIM_021.jpg
1574.196	0.807	correct	incongruent	Block2	incongruent/STIM_021.jpg
1577.845	0.642	correct	incongruent	Block2	incongruent/STIM_022.jpg
1581.092	1.156	correct	incongruent	Block2	incongruent/STIM_022.jpg
1585.802	0.872	correct	incongruent	Block2	incongruent/STIM_022.jpg
1589.015	0.933	correct	incongruent	Block2	incongruent/STIM_022.jpg
1592.087	0.541	correct	incongruent	Block2	incongruent/STIM_022.jpg
1596.31	0.709	correct	incongruent	Block2	incongruent/STIM_023.jpg
1599.188	1.158	correct	incongruent	Block2	incongruent/STIM_023.jpg
1603.164	0.937	correct	incongruent	Block2	incongruent/STIM_023.jpg
1606.199	0.671	correct	incongruent	Block2	incongruent/STIM_023.jpg
1610.0	0.863	correct	incongruent	Block2	incongruent/STIM_023.jpg
1614.584	1.298	correct	incongruent	Block2	incongruent/STIM_024.jpg
1619.794	0.95	correct	incongruent	Block2	incongruent/STIM_024.jpg
1624.321	1.143	correct	incongruent	Block2	incongruent/STIM_024.jpg
1627.743	0.781	correct	incongruent	Block2	incongruent/STIM_024.jpg
1631.446	0.91	correct	incongruent	Block2	incongruent/STIM_024.jpg
1634.416	1.23	correct	incongruent	Block2	incongruent/STIM_025.jpg
1638.761	0.636	correct	incongruent	Block2	incongruent/STIM_025.jpg
1642.316	0.932	correct	incongruent	Block2	incongruent/STIM_025.jpg
1647.194	0.633	correct	incongruent	Block2	incongruent/STIM_025.jpg
1650.301	1.002	correct	incongruent	Block2	incongruent/STIM_025.jpg
1654.485	0.648	correct	incongruent	Block2	incongruent/STIM_026.jpg
1658.016	0.66	correct	incongruent	Block2	incongruent/STIM_026.jpg
1661.069	0.702	correct	incongruent	Block2	incongruent/STIM_026.jpg
1664.467	1.045	correct	incongruent	Block2	incongruent/STIM_026.jpg
1668.379	0.884	correct	incongruent	Block2	incongruent/STIM_026.jpg
1671.507	1.32	correct	incongruent	Block2	incongruent/STIM_027.jpg
1675.905	0.674	correct	incongruent	Block2	incongruent/STIM_027.jpg
1678.902	1.111	correct	incongruent	Block2	incongruent/STIM_027.jpg
1682.982	0.94	correct	incongruent	Block2	incongruent/STIM_027.jpg
1686.124	0.656	correct	incongruent	Block2	incongruent/STIM_027.jpg
1689.93	1.279	correct	incongruent	Block2	incongruent/STIM_028.jpg
1694.437	0.75	incorrect	incongruent	Block2	incongruent/STIM_028.jpg
1697.201	0.786	incorrect	incongruent	Block2	incongruent/STIM_028.jpg
1701.105	0.746	correct	incongruent	Block2	incongruent/STIM_028.jpg
1705.644	1.019	correct	incongruent	Block2	incongruent/STIM_028.jpg
1709.514	1.257	correct	incongruent	Block2	incongruent/STIM_029.jpg
1713.468	1.174	correct	incongruent	Block2	incongruent/STIM_029.jpg
1717.008	0.698	incorrect	incongruent	Block2	incongruent/STIM_029.jpg
1719.95	0.983	correct	incongruent	Block2	incongruent/STIM_029.jpg
1724.755	0.826	correct	incongruent	Block2	incongruent/STIM_029.jpg
1728.91	0.63	correct	congruent	Block2	congruent/STIM_000.jpg
1732.502	0.92	correct	congruent	Block2	congruent/STIM_000.jpg
1736.807	0.748	correct	congruent	Block2	congruent/STIM_000.jpg
1739.673	0.526	correct	congruent	Block2	congruent/STIM_000.jpg
1744.144	0.605	correct	congruent	Block2	congruent/STIM_000.jpg
1747.477	0.592	correct	congruent	Block2	congruent/STIM_001.jpg
1750.495	0.64	correct	congruent	Block2	congruent/STIM_001.jpg
1753.794	0.755	correct	congruent	Block2	congruent/STIM_001.jpg
1758.484	0.722	correct	congruent	Block2	congruent/STIM_001.jpg
1761.22	0.824	correct	congruent	Block2	congruent/STIM_001.jpg
1764.961	0.888	correct	congruent	Block2	congruent/STIM_002.jpg
1769.493	0.878	correct	congruent	Block2	congruent/STIM_002.jpg
1773.472	0.922	correct	congruent	Block2	congruent/STIM_002.jpg
1776.722	0.767	incorrect	congruent	Block2	congruent/STIM_002.jpg
1780.324	0.738	correct	congruent	Block2	congruent/STIM_002.jpg
1783.524	0.92	correct	congruent	Block2	congruent/STIM_003.jpg
1787.092	0.558	correct	congruent	Block2	congruent/STIM_003.jpg
1789.713	0.583	correct	congruent	Block2	congruent/STIM_003.jpg
1793.431	0.89	correct	congruent	Block2	congruent/STIM_003.jpg
1797.955	0.894	correct	congruent	Block2	congruent/STIM_003.jpg
1801.731	0.59	correct	congruent	Block2	congruent/STIM_004.jpg
1804.532	0.655	correct	congruent	Block2	congruent/STIM_004.jpg
1808.577	0.842	incorrect	congruent	Block2	congruent/STIM_004.jpg
1812.108	0.526	correct	congruent	Block2	congruent/STIM_004.jpg
1816.466	0.865	incorrect	congruent	Block2	congruent/STIM_004.jpg
1820.776	0.687	correct	congruent	Block2	congruent/STIM_005.jpg
1824.25	0.584	correct	congruent	Block2	congruent/STIM_005.jpg
1827.438	0.796	correct	congruent	Block2	congruent/STIM_005.jpg
1831.703	0.798	correct	congruent	Block2	congruent/STIM_005.jpg
1835.263	0.56	correct	congruent	Block2	congruent/STIM_005.jpg
1839.398	0.697	correct	congruent	Block2	congruent/STIM_006.jpg
1844.066	0.619	correct	congruent	Block2	congruent/STIM_006.jpg
1846.826	0.535	correct	congruent	Block2	congruent/STIM_006.jpg
1850.343	0.819	correct	congruent	Block2	congruent/STIM_006.jpg
1854.027	0.814	correct	congruent	Block2	congruent/STIM_006.jpg
1858.079	0.892	correct	congruent	Block2	congruent/STIM_007.jpg
1862.558	0.815	correct	congruent	Block2	congruent/STIM_007.jpg
1866.803	0.617	correct	congruent	Block2	congruent/STIM_007.jpg
1870.403	0.578	correct	congruent	Block2	congruent/STIM_007.jpg
1873.208	0.929	correct	congruent	Block2	congruent/STIM_007.jpg
1876.257	0.548	correct	congruent	Block2	congruent/STIM_008.jpg
1880.337	0.746	correct	congruent	Block2	congruent/STIM_008.jpg
1883.433	0.625	correct	congruent	Block2	congruent/STIM_008.jpg
1887.405	0.62	correct	congruent	Block2	congruent/STIM_008.jpg
1891.354	0.902	correct	congruent	Block2	congruent/STIM_008.jpg
1896.015	0.674	correct	congruent	Block2	congruent/STIM_009.jpg
1900.556	0.923	correct	congruent	Block2	congruent/STIM_009.jpg
1904.465	0.73	correct	congruent	Block2	congruent/STIM_009.jpg
1908.886	0.621	correct	congruent	Block2	congruent/STIM_009.jpg
1912.534	0.613	correct	congruent	Block2	congruent/STIM_009.jpg
1915.305	0.567	correct	congruent	Block2	congruent/STIM_010.jpg
1919.447	0.766	incorrect	congruent	Block2	congruent/STIM_010.jpg
1923.82	0.547	correct	congruent	Block2	congruent/STIM_010.jpg
1928.083	0.587	correct	congruent	Block2	congruent/STIM_010.jpg
1932.337	0.902	correct	congruent	Block2	congruent/STIM_010.jpg
1935.767	0.62	correct	congruent	Block2	congruent/STIM_011.jpg
1938.426	0.774	correct	congruent	Block2	congruent/STIM_011.jpg
1942.873	0.525	correct	congruent	Block2	congruent/STIM_011.jpg
1945.57	0.728	correct	congruent	Block2	congruent/STIM_011.jpg
1949.421	0.77	correct	congruent	Block2	congruent/STIM_011.jpg
1952.422	0.665	correct	congruent	Block2	congruent/STIM_012.jpg
1956.945	0.712	correct	congruent	Block2	congruent/STIM_012.jpg
1960.963	0.666	correct	congruent	Block2	congruent/STIM_012.jpg
1964.292	0.764	correct	congruent	Block2	congruent/STIM_012.jpg
1968.737	0.557	correct	congruent	Block2	congruent/STIM_012.jpg
1973.081	0.73	correct	congruent	Block2	congruent/STIM_013.jpg
1975.954	0.526	correct	congruent	Block2	congruent/STIM_013.jpg
1980.164	0.539	correct	congruent	Block2	congruent/STIM_013.jpg
1983.72	0.533	correct	congruent	Block2	congruent/STIM_013.jpg
1987.676	0.817	correct	congruent	Block2	congruent/STIM_013.jpg
1991.947	0.649	correct	congruent	Block2	congruent/STIM_014.jpg
1996.19	0.566	correct	congruent	Block2	congruent/STIM_014.jpg
1998.736	0.765	correct	congruent	Block2	congruent/STIM_014.jpg
2002.805	0.904	correct	congruent	Block2	congruent/STIM_014.jpg
2007.015	0.555	correct	congruent	Block2	congruent/STIM_014.jpg
2011.136	0.88	correct	congruent	Block2	congruent/STIM_015.jpg
2014.052	0.857	correct	congruent	Block2	congruent/STIM_015.jpg
2017.285	0.562	correct	congruent	Block2	congruent/STIM_015.jpg
2019.955	0.852	correct	congruent	Block2	congruent/STIM_015.jpg
2023.188	0.898	correct	congruent	Block2	congruent/STIM_015.jpg
2027.211	0.571	correct	congruent	Block2	congruent/STIM_016.jpg
2030.948	0.626	correct	congruent	Block2	congruent/STIM_016.jpg
2033.639	0.581	correct	congruent	Block2	congruent/STIM_016.jpg
2036.901	0.57	correct	congruent	Block2	congruent/STIM_016.jpg
2039.918	0.67	correct	congruent	Block2	congruent/STIM_016.jpg
2043.809	0.641	incorrect	congruent	Block2	congruent/STIM_017.jpg
2046.546	0.575	correct	congruent	Block2	congruent/STIM_017.jpg
2050.882	0.871	correct	congruent	Block2	congruent/STIM_017.jpg
2054.922	0.593	correct	congruent	Block2	congruent/STIM_017.jpg
2057.967	0.553	correct	congruent	Block2	congruent/STIM_017.jpg
2062.44	0.565	correct	congruent	Block2	congruent/STIM_018.jpg
2065.686	0.823	correct	congruent	Block2	congruent/STIM_018.jpg
2069.711	0.79	correct	congruent	Block2	congruent/STIM_018.jpg
2073.207	0.918	correct	congruent	Block2	congruent/STIM_018.jpg
2077.235	0.706	correct	congruent	Block2	congruent/STIM_018.jpg
2080.532	0.609	correct	congruent	Block2	congruent/STIM_019.jpg
2083.585	0.705	correct	congruent	Block2	congruent/STIM_019.jpg
2086.702	0.876	correct	congruent	Block2	congruent/STIM_019.jpg
2091.076	0.552	correct	congruent	Block2	congruent/STIM_019.jpg
2094.051	0.921	correct	congruent	Block2	congruent/STIM_019.jpg
2097.579	0.922	correct	congruent	Block2	congruent/STIM_020.jpg
2100.821	0.815	correct	congruent	Block2	congruent/STIM_020.jpg
2103.726	0.84	correct	congruent	Block2	congruent/STIM_020.jpg
2106.904	0.784	correct	congruent	Block2	congruent/STIM_020.jpg
2110.222	0.634	correct	congruent	Block2	congruent/STIM_020.jpg
2114.743	0.919	correct	congruent	Block2	congruent/STIM_021.jpg
2118.751	0.784	correct	congruent	Block2	congruent/STIM_021.jpg
2122.738	0.846	incorrect	congruent	Block2	congruent/STIM_021.jpg
2126.626	0.661	correct	congruent	Block2	congruent/STIM_021.jpg
2129.324	0.626	correct	congruent	Block2	congruent/STIM_021.jpg
2133.342	0.585	correct	congruent	Block2	congruent/STIM_022.jpg
2137.379	0.833	correct	congruent	Block2	congruent/STIM_022.jpg
2141.792	0.737	correct	congruent	Block2	congruent/STIM_022.jpg
2145.453	0.812	correct	congruent	Block2	congruent/STIM_022.jpg
2149.482	0.668	correct	congruent	Block2	congruent/STIM_022.jpg
2152.771	0.844	correct	congruent	Block2	congruent/STIM_023.jpg
2157.49	0.668	correct	congruent	Block2	congruent/STIM_023.jpg
2161.954	0.677	correct	congruent	Block2	congruent/STIM_023.jpg
2164.967	0.727	correct	congruent	Block2	congruent/STIM_023.jpg
2169.617	0.86	correct	congruent	Block2	congruent/STIM_023.jpg
2173.022	0.743	correct	congruent	Block2	congruent/STIM_024.jpg
2176.861	0.928	correct	congruent	Block2	congruent/STIM_024.jpg
2181.693	0.532	correct	congruent	Block2	congruent/STIM_024.jpg
2185.049	0.911	correct	congruent	Block2	congruent/STIM_024.jpg
2188.73	0.801	correct	congruent	Block2	congruent/STIM_024.jpg
2191.79	0.852	correct	congruent	Block2	congruent/STIM_025.jpg
2194.622	0.84	correct	congruent	Block2	congruent/STIM_025.jpg
2197.8	0.876	correct	congruent	Block2	congruent/STIM_025.jpg
2202.314	0.89	incorrect	congruent	Block2	congruent/STIM_025.jpg
2206.641	0.878	correct	congruent	Block2	congruent/STIM_025.jpg
2210.265	0.92	correct	congruent	Block2	congruent/STIM_026.jpg
2213.238	0.774	correct	congruent	Block2	congruent/STIM_026.jpg
2217.794	0.582	correct	congruent	Block2	congruent/STIM_026.jpg
2220.784	0.56	correct	congruent	Block2	congruent/STIM_026.jpg
2224.962	0.64	correct	congruent	Block2	congruent/STIM_026.jpg
2228.76	0.698	correct	congruent	Block2	congruent/STIM_027.jpg
2233.402	0.551	correct	congruent	Block2	congruent/STIM_027.jpg
2236.795	0.823	correct	congruent	Block2	congruent/STIM_027.jpg
2241.273	0.528	correct	congruent	Block2	congruent/STIM_027.jpg
2245.239	0.912	correct	congruent	Block2	congruent/STIM_027.jpg
2248.812	0.675	correct	congruent	Block2	congruent/STIM_028.jpg
2252.726	0.93	correct	congruent	Block2	congruent/STIM_028.jpg
2256.845	0.913	correct	congruent	Block2	congruent/STIM_028.jpg
2260.545	0.645	correct	congruent	Block2	congruent/STIM_028.jpg
2263.842	0.839	correct	congruent	Block2	congruent/STIM_028.jpg
2267.532	0.857	correct	congruent	Block2	congruent/STIM_029.jpg
2272.07	0.688	correct	congruent	Block2	congruent/STIM_029.jpg
2276.09	0.524	correct	congruent	Block2	congruent/STIM_029.jpg
2280.052	0.552	correct	congruent	Block2	congruent/STIM_029.jpg
2283.644	0.878	correct	congruent	Block2	congruent/STIM_029.jpg
2287.629	0.816	correct	incongruent	Block3	incongruent/STIM_000.jpg
2291.195	0.894	correct	incongruent	Block3	incongruent/STIM_000.jpg
2295.25	0.878	correct	incongruent	Block3	incongruent/STIM_000.jpg
2299.601	0.6	correct	incongruent	Block3	incongruent/STIM_000.jpg
2303.14	1.076	correct	incongruent	Block3	incongruent/STIM_000.jpg
2306.205	0.811	correct	incongruent	Block3	incongruent/STIM_001.jpg
2309.175	0.81	correct	incongruent	Block3	incongruent/STIM_001.jpg
2313.416	0.893	correct	incongruent	Block3	incongruent/STIM_001.jpg
2317.245	1.076	correct	incongruent	Block3	incongruent/STIM_001.jpg
2321.022	1.0	correct	incongruent	Block3	incongruent/STIM_001.jpg
2324.818	0.719	correct	incongruent	Block3	incongruent/STIM_002.jpg
2327.64	0.797	correct	incongruent	Block3	incongruent/STIM_002.jpg
2330.827	0.863	correct	incongruent	Block3	incongruent/STIM_002.jpg
2334.397	0.833	correct	incongruent	Block3	incongruent/STIM_002.jpg
2338.844	0.73	correct	incongruent	Block3	incongruent/STIM_002.jpg
2342.329	0.637	correct	incongruent	Block3	incongruent/STIM_003.jpg
2345.438	0.554	correct	incongruent	Block3	incongruent/STIM_003.jpg
2348.15	0.799	correct	incongruent	Block3	incongruent/STIM_003.jpg
2352.144	0.77	correct	incongruent	Block3	incongruent/STIM_003.jpg
2356.535	0.538	correct	incongruent	Block3	incongruent/STIM_003.jpg
2359.173	0.872	correct	incongruent	Block3	incongruent/STIM_004.jpg
2362.135	0.967	correct	incongruent	Block3	incongruent/STIM_004.jpg
2366.696	0.772	correct	incongruent	Block3	incongruent/STIM_004.jpg
2371.398	0.972	incorrect	incongruent	Block3	incongruent/STIM_004.jpg
2374.826	0.944	correct	incongruent	Block3	incongruent/STIM_004.jpg
2377.938	0.599	correct	incongruent	Block3	incongruent/STIM_005.jpg
2380.967	1.015	correct	incongruent	Block3	incongruent/STIM_005.jpg
2384.412	0.862	correct	incongruent	Block3	incongruent/STIM_005.jpg
2388.711	0.867	correct	incongruent	Block3	incongruent/STIM_005.jpg
2391.974	1.089	correct	incongruent	Block3	incongruent/STIM_005.jpg
2395.056	0.894	correct	incongruent	Block3	incongruent/STIM_006.jpg
2398.783	0.941	correct	incongruent	Block3	incongruent/STIM_006.jpg
2402.045	0.699	correct	incongruent	Block3	incongruent/STIM_006.jpg
2406.679	0.546	correct	incongruent	Block3	incongruent/STIM_006.jpg
2410.942	1.01	correct	incongruent	Block3	incongruent/STIM_006.jpg
2415.867	0.886	incorrect	incongruent	Block3	incongruent/STIM_007.jpg
2419.281	1.076	correct	incongruent	Block3	incongruent/STIM_007.jpg
2422.932	0.7	correct	incongruent	Block3	incongruent/STIM_007.jpg
2425.902	0.622	correct	incongruent	Block3	incongruent/STIM_007.jpg
2430.237	1.032	correct	incongruent	Block3	incongruent/STIM_007.jpg
2433.765	0.722	correct	incongruent	Block3	incongruent/STIM_008.jpg
2437.859	0.628	correct	incongruent	Block3	incongruent/STIM_008.jpg
2440.598	0.62	correct	incongruent	Block3	incongruent/STIM_008.jpg
2444.844	1.062	correct	incongruent	Block3	incongruent/STIM_008.jpg
2449.616	0.949	correct	incongruent	Block3	incongruent/STIM_008.jpg
2453.037	1.04	correct	incongruent	Block3	incongruent/STIM_009.jpg
2457.151	0.61	correct	incongruent	Block3	incongruent/STIM_009.jpg
2460.048	0.85	correct	incongruent	Block3	incongruent/STIM_009.jpg
2463.099	1.028	correct	incongruent	Block3	incongruent/STIM_009.jpg
2466.701	0.631	correct	incongruent	Block3	incongruent/STIM_009.jpg
2470.643	1.018	correct	incongruent	Block3	incongruent/STIM_010.jpg
2474.06	1.027	correct	incongruent	Block3	incongruent/STIM_010.jpg
2478.183	0.782	correct	incongruent	Block3	incongruent/STIM_010.jpg
2482.842	0.638	correct	incongruent	Block3	incongruent/STIM_010.jpg
2487.101	0.76	correct	incongruent	Block3	incongruent/STIM_010.jpg
2490.339	0.64	correct	incongruent	Block3	incongruent/STIM_011.jpg
2494.062	0.79	incorrect	incongruent	Block3	incongruent/STIM_011.jpg
2497.001	0.54	correct	incongruent	Block3	incongruent/STIM_011.jpg
2501.182	0.68	correct	incongruent	Block3	incongruent/STIM_011.jpg
2504.49	0.947	correct	incongruent	Block3	incongruent/STIM_011.jpg
2509.3	0.815	correct	incongruent	Block3	incongruent/STIM_012.jpg
2513.694	1.034	correct	incongruent	Block3	incongruent/STIM_012.jpg
2516.721	0.92	correct	incongruent	Block3	incongruent/STIM_012.jpg
2521.08	0.65	correct	incongruent	Block3	incongruent/STIM_012.jpg
2524.229	0.698	correct	incongruent	Block3	incongruent/STIM_012.jpg
2527.513	0.634	correct	incongruent	Block3	incongruent/STIM_013.jpg
2530.18	0.51	correct	incongruent	Block3	incongruent/STIM_013.jpg
2534.382	0.823	correct	incongruent	Block3	incongruent/STIM_013.jpg
2537.372	0.564	correct	incongruent	Block3	incongruent/STIM_013.jpg
2540.013	1.063	correct	incongruent	Block3	incongruent/STIM_013.jpg
2544.221	0.594	correct	incongruent	Block3	incongruent/STIM_014.jpg
2548.506	0.565	correct	incongruent	Block3	incongruent/STIM_014.jpg
2553.005	0.81	correct	incongruent	Block3	incongruent/STIM_014.jpg
2557.194	0.882	correct	incongruent	Block3	incongruent/STIM_014.jpg
2560.053	0.595	correct	incongruent	Block3	incongruent/STIM_014.jpg
2562.909	0.804	correct	incongruent	Block3	incongruent/STIM_015.jpg
2566.06	0.831	correct	incongruent	Block3	incongruent/STIM_015.jpg
2569.978	0.912	correct	incongruent	Block3	incongruent/STIM_015.jpg
2572.971	0.592	incorrect	incongruent	Block3	incongruent/STIM_015.jpg
2575.915	0.966	correct	incongruent	Block3	incongruent/STIM_015.jpg
2580.732	0.934	correct	incongruent	Block3	incongruent/STIM_016.jpg
2584.01	0.668	correct	incongruent	Block3	incongruent/STIM_016.jpg
2588.464	0.782	correct	incongruent	Block3	incongruent/STIM_016.jpg
2593.039	1.086	correct	incongruent	Block3	incongruent/STIM_016.jpg
2596.318	1.063	correct	incongruent	Block3	incongruent/STIM_016.jpg
2600.802	0.563	correct	incongruent	Block3	incongruent/STIM_017.jpg
2604.056	0.928	correct	incongruent	Block3	incongruent/STIM_017.jpg
2607.035	0.876	correct	incongruent	Block3	incongruent/STIM_017.jpg
2611.436	1.058	correct	incongruent	Block3	incongruent/STIM_017.jpg
2615.778	0.995	correct	incongruent	Block3	incongruent/STIM_017.jpg
2620.482	0.701	correct	incongruent	Block3	incongruent/STIM_018.jpg
2624.649	0.958	correct	incongruent	Block3	incongruent/STIM_018.jpg
2628.67	1.076	correct	incongruent	Block3	incongruent/STIM_018.jpg
2632.603	0.522	correct	incongruent	Block3	incongruent/STIM_018.jpg
2635.515	0.79	correct	incongruent	Block3	incongruent/STIM_018.jpg
2638.434	0.941	correct	incongruent	Block3	incongruent/STIM_019.jpg
2641.582	0.874	correct	incongruent	Block3	incongruent/STIM_019.jpg
2645.764	0.904	correct	incongruent	Block3	incongruent/STIM_019.jpg
2650.21	0.887	correct	incongruent	Block3	incongruent/STIM_019.jpg
2653.147	1.053	correct	incongruent	Block3	incongruent/STIM_019.jpg
2657.593	0.946	correct	incongruent	Block3	incongruent/STIM_020.jpg
2660.806	0.913	correct	incongruent	Block3	incongruent/STIM_020.jpg
2663.792	0.532	correct	incongruent	Block3	incongruent/STIM_020.jpg
2666.857	0.755	correct	incongruent	Block3	incongruent/STIM_020.jpg
2670.813	1.026	correct	incongruent	Block3	incongruent/STIM_020.jpg
2673.916	0.903	correct	incongruent	Block3	incongruent/STIM_021.jpg
2677.484	0.72	correct	incongruent	Block3	incongruent/STIM_021.jpg
2680.3	0.743	correct	incongruent	Block3	incongruent/STIM_021.jpg
2684.048	0.568	correct	incongruent	Block3	incongruent/STIM_021.jpg
2687.207	0.695	correct	incongruent	Block3	incongruent/STIM_021.jpg
2691.828	0.765	correct	incongruent	Block3	incongruent/STIM_022.jpg
2695.37	0.743	correct	incongruent	Block3	incongruent/STIM_022.jpg
2699.371	0.892	correct	incongruent	Block3	incongruent/STIM_022.jpg
2702.425	0.612	correct	incongruent	Block3	incongruent/STIM_022.jpg
2705.41	0.599	correct	incongruent	Block3	incongruent/STIM_022.jpg
2708.457	1.077	correct	incongruent	Block3	incongruent/STIM_023.jpg
2711.934	0.968	correct	incongruent	Block3	incongruent/STIM_023.jpg
2716.375	0.82	correct	incongruent	Block3	incongruent/STIM_023.jpg
2720.66	1.025	correct	incongruent	Block3	incongruent/STIM_023.jpg
2724.952	0.682	correct	incongruent	Block3	incongruent/STIM_023.jpg
2728.77	0.745	correct	incongruent	Block3	incongruent/STIM_024.jpg
2731.843	0.659	incorrect	incongruent	Block3	incongruent/STIM_024.jpg
2734.804	0.799	correct	incongruent	Block3	incongruent/STIM_024.jpg
2737.873	1.072	correct	incongruent	Block3	incongruent/STIM_024.jpg
2741.883	1.047	incorrect	incongruent	Block3	incongruent/STIM_024.jpg
2745.419	0.653	correct	incongruent	Block3	incongruent/STIM_025.jpg
2749.282	0.674	correct	incongruent	Block3	incongruent/STIM_025.jpg
2752.594	0.825	correct	incongruent	Block3	incongruent/STIM_025.jpg
2757.104	0.752	correct	incongruent	Block3	incongruent/STIM_025.jpg
2761.802	0.659	correct	incongruent	Block3	incongruent/STIM_025.jpg
2764.804	0.744	correct	incongruent	Block3	incongruent/STIM_026.jpg
2768.211	0.942	correct	incongruent	Block3	incongruent/STIM_026.jpg
2773.074	0.778	correct	incongruent	Block3	incongruent/STIM_026.jpg
2776.988	0.876	correct	incongruent	Block3	incongruent/STIM_026.jpg
2781.102	0.703	correct	incongruent	Block3	incongruent/STIM_026.jpg
2785.346	0.535	correct	incongruent	Block3	incongruent/STIM_027.jpg
2789.723	0.68	correct	incongruent	Block3	incongruent/STIM_027.jpg
2793.968	0.877	correct	incongruent	Block3	incongruent/STIM_027.jpg
2798.665	0.605	correct	incongruent	Block3	incongruent/STIM_027.jpg
2801.27	0.862	correct	incongruent	Block3	incongruent/STIM_027.jpg
2805.24	0.943	correct	incongruent	Block3	incongruent/STIM_028.jpg
2809.105	1.029	correct	incongruent	Block3	incongruent/STIM_028.jpg
2813.968	0.971	correct	incongruent	Block3	incongruent/STIM_028.jpg
2818.666	0.75	correct	incongruent	Block3	incongruent/STIM_028.jpg
2822.128	0.922	correct	incongruent	Block3	incongruent/STIM_028.jpg
2826.672	0.875	correct	incongruent	Block3	incongruent/STIM_029.jpg
2830.142	0.907	correct	incongruent	Block3	incongruent/STIM_029.jpg
2834.301	0.586	correct	incongruent	Block3	incongruent/STIM_029.jpg
2836.95	0.651	correct	incongruent	Block3	incongruent/STIM_029.jpg
2839.854	1.044	correct	incongruent	Block3	incongruent/STIM_029.jpg
2843.21	0.534	correct	congruent	Block3	congruent/STIM_000.jpg
2845.979	0.528	correct	congruent	Block3	congruent/STIM_000.jpg
2849.845	0.813	correct	congruent	Block3	congruent/STIM_000.jpg
2853.569	0.786	correct	congruent	Block3	congruent/STIM_000.jpg
2858.027	0.832	correct	congruent	Block3	congruent/STIM_000.jpg
2862.559	0.686	correct	congruent	Block3	congruent/STIM_001.jpg
2865.749	0.55	correct	congruent	Block3	congruent/STIM_001.jpg
2870.269	0.734	correct	congruent	Block3	congruent/STIM_001.jpg
2874.563	0.699	correct	congruent	Block3	congruent/STIM_001.jpg
2878.335	0.755	correct	congruent	Block3	congruent/STIM_001.jpg
2881.181	0.617	correct	congruent	Block3	congruent/STIM_002.jpg
2883.839	0.733	correct	congruent	Block3	congruent/STIM_002.jpg
2887.947	0.727	correct	congruent	Block3	congruent/STIM_002.jpg
2890.811	0.839	correct	congruent	Block3	congruent/STIM_002.jpg
2895.358	0.666	correct	congruent	Block3	congruent/STIM_002.jpg
2898.974	0.758	correct	congruent	Block3	congruent/STIM_003.jpg
2903.4	0.932	correct	congruent	Block3	congruent/STIM_003.jpg
2908.216	0.635	correct	congruent	Block3	congruent/STIM_003.jpg
2912.308	0.708	correct	congruent	Block3	congruent/STIM_003.jpg
2916.095	0.864	correct	congruent	Block3	congruent/STIM_003.jpg
2919.5	0.581	correct	congruent	Block3	congruent/STIM_004.jpg
2922.726	0.833	correct	congruent	Block3	congruent/STIM_004.jpg
2926.522	0.851	correct	congruent	Block3	congruent/STIM_004.jpg
2929.748	0.56	incorrect	congruent	Block3	congruent/STIM_004.jpg
2932.649	0.528	correct	congruent	Block3	congruent/STIM_004.jpg
2936.446	0.54	correct	congruent	Block3	congruent/STIM_005.jpg
2940.768	0.574	correct	congruent	Block3	congruent/STIM_005.jpg
2944.965	0.778	correct	congruent	Block3	congruent/STIM_005.jpg
2948.793	0.649	correct	congruent	Block3	congruent/STIM_005.jpg
2951.816	0.588	correct	congruent	Block3	congruent/STIM_005.jpg
2956.368	0.755	correct	congruent	Block3	congruent/STIM_006.jpg
2960.978	0.564	correct	congruent	Block3	congruent/STIM_006.jpg
2964.299	0.679	correct	congruent	Block3	congruent/STIM_006.jpg
2967.939	0.561	correct	congruent	Block3	congruent/STIM_006.jpg
2972.271	0.789	correct	congruent	Block3	congruent/STIM_006.jpg
2976.273	0.539	correct	congruent	Block3	congruent/STIM_007.jpg
2979.092	0.522	correct	congruent	Block3	congruent/STIM_007.jpg
2983.128	0.676	correct	congruent	Block3	congruent/STIM_007.jpg
2987.315	0.653	correct	congruent	Block3	congruent/STIM_007.jpg
2991.636	0.607	correct	congruent	Block3	congruent/STIM_007.jpg
2995.823	0.74	correct	congruent	Block3	congruent/STIM_008.jpg
2999.855	0.549	correct	congruent	Block3	congruent/STIM_008.jpg
3003.799	0.881	correct	congruent	Block3	congruent/STIM_008.jpg
3007.871	0.666	correct	congruent	Block3	congruent/STIM_008.jpg
3012.505	0.664	correct	congruent	Block3	congruent/STIM_008.jpg
3015.855	0.931	correct	congruent	Block3	congruent/STIM_009.jpg
3020.372	0.766	correct	congruent	Block3	congruent/STIM_009.jpg
3024.053	0.629	correct	congruent	Block3	congruent/STIM_009.jpg
3028.525	0.637	correct	congruent	Block3	congruent/STIM_009.jpg
3031.227	0.67	correct	congruent	Block3	congruent/STIM_009.jpg
3033.947	0.525	correct	congruent	Block3	congruent/STIM_010.jpg
3038.313	0.634	correct	congruent	Block3	congruent/STIM_010.jpg
3042.911	0.713	correct	congruent	Block3	congruent/STIM_010.jpg
3046.135	0.685	correct	congruent	Block3	congruent/STIM_010.jpg
3050.608	0.593	correct	congruent	Block3	congruent/STIM_010.jpg
3054.08	0.914	correct	congruent	Block3	congruent/STIM_011.jpg
3058.519	0.622	incorrect	congruent	Block3	congruent/STIM_011.jpg
3062.147	0.744	correct	congruent	Block3	congruent/STIM_011.jpg
3066.25	0.586	correct	congruent	Block3	congruent/STIM_011.jpg
3070.757	0.76	correct	congruent	Block3	congruent/STIM_011.jpg
3073.862	0.936	correct	congruent	Block3	congruent/STIM_012.jpg
3077.539	0.873	correct	congruent	Block3	congruent/STIM_012.jpg
3081.644	0.841	correct	congruent	Block3	congruent/STIM_012.jpg
3084.953	0.655	correct	congruent	Block3	congruent/STIM_012.jpg
3088.322	0.763	correct	congruent	Block3	congruent/STIM_012.jpg
3092.832	0.728	correct	congruent	Block3	congruent/STIM_013.jpg
3096.572	0.633	correct	congruent	Block3	congruent/STIM_013.jpg
3100.897	0.665	correct	congruent	Block3	congruent/STIM_013.jpg
3103.704	0.632	correct	congruent	Block3	congruent/STIM_013.jpg
3106.617	0.853	correct	congruent	Block3	congruent/STIM_013.jpg
3111.274	0.796	correct	congruent	Block3	congruent/STIM_014.jpg
3114.858	0.538	correct	congruent	Block3	congruent/STIM_014.jpg
3117.778	0.728	correct	congruent	Block3	congruent/STIM_014.jpg
3120.976	0.569	correct	congruent	Block3	congruent/STIM_014.jpg
3123.702	0.932	correct	congruent	Block3	congruent/STIM_014.jpg
3126.85	0.766	correct	congruent	Block3	congruent/STIM_015.jpg
3131.464	0.904	correct	congruent	Block3	congruent/STIM_015.jpg
3135.758	0.698	correct	congruent	Block3	congruent/STIM_015.jpg
3140.111	0.907	correct	congruent	Block3	congruent/STIM_015.jpg
3144.029	0.803	correct	congruent	Block3	congruent/STIM_015.jpg
3148.28	0.697	correct	congruent	Block3	congruent/STIM_016.jpg
3151.749	0.728	correct	congruent	Block3	congruent/STIM_016.jpg
3154.534	0.857	correct	congruent	Block3	congruent/STIM_016.jpg
3157.457	0.923	correct	congruent	Block3	congruent/STIM_016.jpg
3160.948	0.764	correct	congruent	Block3	congruent/STIM_016.jpg
3164.047	0.844	correct	congruent	Block3	congruent/STIM_017.jpg
3168.417	0.525	correct	congruent	Block3	congruent/STIM_017.jpg
3171.642	0.557	correct	congruent	Block3	congruent/STIM_017.jpg
3174.958	0.667	correct	congruent	Block3	congruent/STIM_017.jpg
3179.049	0.557	correct	congruent	Block3	congruent/STIM_017.jpg
3181.716	0.873	correct	congruent	Block3	congruent/STIM_018.jpg
3186.552	0.524	correct	congruent	Block3	congruent/STIM_018.jpg
3190.6	0.532	correct	congruent	Block3	congruent/STIM_018.jpg
3194.223	0.631	correct	congruent	Block3	congruent/STIM_018.jpg
3196.999	0.76	correct	congruent	Block3	congruent/STIM_018.jpg
3201.062	0.874	correct	congruent	Block3	congruent/STIM_019.jpg
3205.015	0.692	correct	congruent	Block3	congruent/STIM_019.jpg
3208.542	0.92	correct	congruent	Block3	congruent/STIM_019.jpg
3212.423	0.531	correct	congruent	Block3	congruent/STIM_019.jpg
3215.771	0.591	correct	congruent	Block3	congruent/STIM_019.jpg
3220.144	0.779	correct	congruent	Block3	congruent/STIM_020.jpg
3223.121	0.785	correct	congruent	Block3	congruent/STIM_020.jpg
3226.889	0.626	correct	congruent	Block3	congruent/STIM_020.jpg
3230.719	0.874	correct	congruent	Block3	congruent/STIM_020.jpg
3233.94	0.625	correct	congruent	Block3	congruent/STIM_020.jpg
3238.151	0.902	correct	congruent	Block3	congruent/STIM_021.jpg
3242.408	0.61	correct	congruent	Block3	congruent/STIM_021.jpg
3246.932	0.914	correct	congruent	Block3	congruent/STIM_021.jpg
3250.234	0.854	correct	congruent	Block3	congruent/STIM_021.jpg
3254.067	0.929	correct	congruent	Block3	congruent/STIM_021.jpg
3258.736	0.824	correct	congruent	Block3	congruent/STIM_022.jpg
3262.467	0.544	correct	congruent	Block3	congruent/STIM_022.jpg
3266.329	0.678	correct	congruent	Block3	congruent/STIM_022.jpg
3270.666	0.753	correct	congruent	Block3	congruent/STIM_022.jpg
3275.212	0.873	correct	congruent	Block3	congruent/STIM_022.jpg
3279.147	0.689	incorrect	congruent	Block3	congruent/STIM_023.jpg
3282.39	0.727	correct	congruent	Block3	congruent/STIM_023.jpg
3285.813	0.731	correct	congruent	Block3	congruent/STIM_023.jpg
3289.69	0.686	correct	congruent	Block3	congruent/STIM_023.jpg
3293.67	0.688	correct	congruent	Block3	congruent/STIM_023.jpg
3297.885	0.535	correct	congruent	Block3	congruent/STIM_024.jpg
3302.368	0.919	correct	congruent	Block3	congruent/STIM_024.jpg
3306.999	0.8	correct	congruent	Block3	congruent/STIM_024.jpg
3311.741	0.647	correct	congruent	Block3	congruent/STIM_024.jpg
3314.738	0.578	correct	congruent	Block3	congruent/STIM_024.jpg
3318.568	0.53	correct	congruent	Block3	congruent/STIM_025.jpg
3322.614	0.622	correct	congruent	Block3	congruent/STIM_025.jpg
3326.907	0.713	correct	congruent	Block3	congruent/STIM_025.jpg
3329.943	0.798	correct	congruent	Block3	congruent/STIM_025.jpg
3333.837	0.927	correct	congruent	Block3	congruent/STIM_025.jpg
3337.336	0.775	correct	congruent	Block3	congruent/STIM_026.jpg
3341.543	0.857	correct	congruent	Block3	congruent/STIM_026.jpg
3346.174	0.868	correct	congruent	Block3	congruent/STIM_026.jpg
3350.978	0.925	correct	congruent	Block3	congruent/STIM_026.jpg
3354.663	0.862	correct	congruent	Block3	congruent/STIM_026.jpg
3357.799	0.551	correct	congruent	Block3	congruent/STIM_027.jpg
3360.95	0.686	correct	congruent	Block3	congruent/STIM_027.jpg
3364.856	0.806	correct	congruent	Block3	congruent/STIM_027.jpg
3368.158	0.544	correct	congruent	Block3	congruent/STIM_027.jpg
3372.197	0.745	correct	congruent	Block3	congruent/STIM_027.jpg
3375.849	0.897	correct	congruent	Block3	congruent/STIM_028.jpg
3379.786	0.86	correct	congruent	Block3	congruent/STIM_028.jpg
3383.01	0.741	correct	congruent	Block3	congruent/STIM_028.jpg
3385.982	0.616	correct	congruent	Block3	congruent/STIM_028.jpg
3390.264	0.745	incorrect	congruent	Block3	congruent/STIM_028.jpg
3394.356	0.899	correct	congruent	Block3	congruent/STIM_029.jpg
3397.659	0.89	correct	congruent	Block3	congruent/STIM_029.jpg
3401.484	0.788	correct	congruent	Block3	congruent/STIM_029.jpg
3405.253	0.552	correct	congruent	Block3	congruent/STIM_029.jpg
3408.758	0.734	correct	congruent	Block3	congruent/STIM_029.jpg
