onset	duration	response_time_ms	trial_type	learning_stage	stimulus	response_port
0.0	1.129	1128.8	incongruent	Block1	incongruent/STIM_000.jpg	99
4.719	1.306	1305.8	incongruent	Block1	incongruent/STIM_000.jpg	100
8.85	1.261	1261.4	incongruent	Block1	incongruent/STIM_000.jpg	100
12.352	0.647	647.0	incongruent	Block1	incongruent/STIM_000.jpg	100
16.385	0.605	605.1	incongruent	Block1	incongruent/STIM_000.jpg	99
20.268	0.833	833.3	incongruent	Block1	incongruent/STIM_001.jpg	99
23.7	1.213	1212.6	incongruent	Block1	incongruent/STIM_001.jpg	99
27.461	1.006	1005.8	incongruent	Block1	incongruent/STIM_001.jpg	100
30.625	1.015	1015.4	incongruent	Block1	incongruent/STIM_001.jpg	100
34.56	0.671	671.3	incongruent	Block1	incongruent/STIM_001.jpg	99
38.248	1.09	1089.5	incongruent	Block1	incongruent/STIM_002.jpg	100
43.311	0.976	976.2	incongruent	Block1	incongruent/STIM_002.jpg	100
47.889	0.796	795.5	incongruent	Block1	incongruent/STIM_002.jpg	100
52.252	0.702	702.5	incongruent	Block1	incongruent/STIM_002.jpg	100
55.096	1.11	1109.5	incongruent	Block1	incongruent/STIM_002.jpg	99
59.38	1.223	1223.4	incongruent	Block1	incongruent/STIM_003.jpg	99
63.456	0.956	956.5	incongruent	Block1	incongruent/STIM_003.jpg	100
67.871	1.104	1103.5	incongruent	Block1	incongruent/STIM_003.jpg	100
71.645	1.292	1292.5	incongruent	Block1	incongruent/STIM_003.jpg	100
75.342	0.66	659.8	incongruent	Block1	incongruent/STIM_003.jpg	99
78.194	0.857	856.8	incongruent	Block1	incongruent/STIM_004.jpg	99
82.769	1.147	1146.8	incongruent	Block1	incongruent/STIM_004.jpg	99
87.727	0.997	996.8	incongruent	Block1	incongruent/STIM_004.jpg	100
92.079	1.006	1005.6	incongruent	Block1	incongruent/STIM_004.jpg	100
96.83	0.93	930.0	incongruent	Block1	incongruent/STIM_004.jpg	99
100.768	1.53	1529.5	incongruent	Block1	incongruent/STIM_005.jpg	99
106.02	1.036	1035.7	incongruent	Block1	incongruent/STIM_005.jpg	99
110.064	0.782	781.5	incongruent	Block1	incongruent/STIM_005.jpg	100
114.347	0.712	712.2	incongruent	Block1	incongruent/STIM_005.jpg	99
118.984	1.078	1077.7	incongruent	Block1	incongruent/STIM_005.jpg	100
123.176	1.096	1095.9	incongruent	Block1	incongruent/STIM_006.jpg	99
127.882	0.819	819.4	incongruent	Block1	incongruent/STIM_006.jpg	99
131.7	1.154	1153.5	incongruent	Block1	incongruent/STIM_006.jpg	100
136.443	0.831	831.1	incongruent	Block1	incongruent/STIM_006.jpg	99
140.361	1.107	1107.4	incongruent	Block1	incongruent/STIM_006.jpg	99
144.607	1.198	1198.0	incongruent	Block1	incongruent/STIM_007.jpg	100
149.762	0.888	887.7	incongruent	Block1	incongruent/STIM_007.jpg	100
152.665	1.272	1272.1	incongruent	Block1	incongruent/STIM_007.jpg	100
157.348	1.118	1117.5	incongruent	Block1	incongruent/STIM_007.jpg	99
160.487	0.645	645.2	incongruent	Block1	incongruent/STIM_007.jpg	100
164.594	1.174	1173.8	incongruent	Block1	incongruent/STIM_008.jpg	100
168.118	1.072	1071.7	incongruent	Block1	incongruent/STIM_008.jpg	100
173.113	1.325	1324.6	incongruent	Block1	incongruent/STIM_008.jpg	100
177.327	1.142	1142.4	incongruent	Block1	incongruent/STIM_008.jpg	100
182.296	0.898	897.7	incongruent	Block1	incongruent/STIM_008.jpg	100
186.577	1.484	1483.5	incongruent	Block1	incongruent/STIM_009.jpg	99
190.061	0.892	891.9	incongruent	Block1	incongruent/STIM_009.jpg	100
194.338	1.363	1362.7	incongruent	Block1	incongruent/STIM_009.jpg	99
199.523	0.924	924.0	incongruent	Block1	incongruent/STIM_009.jpg	99
204.241	1.104	1104.3	incongruent	Block1	incongruent/STIM_009.jpg	99
208.184	1.451	1450.9	incongruent	Block1	incongruent/STIM_010.jpg	100
212.922	0.905	905.3	incongruent	Block1	incongruent/STIM_010.jpg	99
216.451	0.987	987.1	incongruent	Block1	incongruent/STIM_010.jpg	99
221.319	1.238	1237.8	incongruent	Block1	incongruent/STIM_010.jpg	100
226.087	1.236	1235.8	incongruent	Block1	incongruent/STIM_010.jpg	99
230.263	1.549	1549.3	incongruent	Block1	incongruent/STIM_011.jpg	100
234.347	0.882	881.7	incongruent	Block1	incongruent/STIM_011.jpg	99
238.484	0.882	881.9	incongruent	Block1	incongruent/STIM_011.jpg	100
242.069	0.808	808.3	incongruent	Block1	incongruent/STIM_011.jpg	99
245.746	0.757	757.3	incongruent	Block1	incongruent/STIM_011.jpg	99
249.891	1.44	1440.2	incongruent	Block1	incongruent/STIM_012.jpg	100
254.509	0.75	750.5	incongruent	Block1	incongruent/STIM_012.jpg	99
257.274	1.129	1128.6	incongruent	Block1	incongruent/STIM_012.jpg	100
261.262	1.3	1300.0	incongruent	Block1	incongruent/STIM_012.jpg	99
265.233	0.991	991.4	incongruent	Block1	incongruent/STIM_012.jpg	100
269.054	0.75	749.6	incongruent	Block1	incongruent/STIM_013.jpg	99
272.498	1.225	1225.1	incongruent	Block1	incongruent/STIM_013.jpg	99
276.867	1.331	1331.0	incongruent	Block1	incongruent/STIM_013.jpg	100
282.06	0.764	763.9	incongruent	Block1	incongruent/STIM_013.jpg	100
284.975	0.957	956.9	incongruent	Block1	incongruent/STIM_013.jpg	99
289.338	1.401	1400.9	incongruent	Block1	incongruent/STIM_014.jpg	100
294.563	1.231	1231.0	incongruent	Block1	incongruent/STIM_014.jpg	100
299.701	0.716	715.6	incongruent	Block1	incongruent/STIM_014.jpg	99
303.212	1.249	1249.0	incongruent	Block1	incongruent/STIM_014.jpg	99
307.721	0.784	783.6	incongruent	Block1	incongruent/STIM_014.jpg	99
312.382	1.147	1146.6	incongruent	Block1	incongruent/STIM_015.jpg	100
315.752	1.458	1458.5	incongruent	Block1	incongruent/STIM_015.jpg	100
319.921	1.288	1287.9	incongruent	Block1	incongruent/STIM_015.jpg	100
324.517	0.76	759.7	incongruent	Block1	incongruent/STIM_015.jpg	99
328.621	0.638	638.3	incongruent	Block1	incongruent/STIM_015.jpg	100
331.622	1.178	1177.7	incongruent	Block1	incongruent/STIM_016.jpg	100
336.202	1.066	1065.8	incongruent	Block1	incongruent/STIM_016.jpg	99
340.257	1.328	1327.6	incongruent	Block1	incongruent/STIM_016.jpg	99
344.083	0.761	761.4	incongruent	Block1	incongruent/STIM_016.jpg	99
347.791	1.201	1200.6	incongruent	Block1	incongruent/STIM_016.jpg	100
352.077	1.181	1180.7	incongruent	Block1	incongruent/STIM_017.jpg	100
356.026	1.311	1311.1	incongruent	Block1	incongruent/STIM_017.jpg	99
359.667	1.396	1396.0	incongruent	Block1	incongruent/STIM_017.jpg	99
363.378	1.149	1149.4	incongruent	Block1	incongruent/STIM_017.jpg	100
367.212	0.855	854.7	incongruent	Block1	incongruent/STIM_017.jpg	99
370.572	1.206	1205.5	incongruent	Block1	incongruent/STIM_018.jpg	100
375.621	0.778	778.1	incongruent	Block1	incongruent/STIM_018.jpg	100
379.471	1.123	1122.7	incongruent	Block1	incongruent/STIM_018.jpg	99
384.505	0.958	957.5	incongruent	Block1	incongruent/STIM_018.jpg	100
388.125	1.187	1186.7	incongruent	Block1	incongruent/STIM_018.jpg	100
392.075	0.744	743.9	incongruent	Block1	incongruent/STIM_019.jpg	100
395.561	0.9	900.0	incongruent	Block1	incongruent/STIM_019.jpg	100
399.482	1.209	1208.6	incongruent	Block1	incongruent/STIM_019.jpg	99
403.334	0.999	998.6	incongruent	Block1	incongruent/STIM_019.jpg	99
407.734	1.161	1161.0	incongruent	Block1	incongruent/STIM_019.jpg	99
411.8	1.002	1001.5	incongruent	Block1	incongruent/STIM_020.jpg	100
415.072	0.927	926.7	incongruent	Block1	incongruent/STIM_020.jpg	99
418.073	0.905	905.4	incongruent	Block1	incongruent/STIM_020.jpg	100
421.731	0.873	873.2	incongruent	Block1	incongruent/STIM_020.jpg	99
425.64	0.955	954.6	incongruent	Block1	incongruent/STIM_020.jpg	99
430.193	0.825	825.4	incongruent	Block1	incongruent/STIM_021.jpg	99
434.653	0.714	714.5	incongruent	Block1	incongruent/STIM_021.jpg	99
439.116	0.817	817.4	incongruent	Block1	incongruent/STIM_021.jpg	100
442.969	1.318	1317.7	incongruent	Block1	incongruent/STIM_021.jpg	99
447.462	0.784	783.5	incongruent	Block1	incongruent/STIM_021.jpg	100
450.601	1.44	1440.1	incongruent	Block1	incongruent/STIM_022.jpg	100
454.084	1.137	1137.1	incongruent	Block1	incongruent/STIM_022.jpg	100
458.054	1.384	1384.1	incongruent	Block1	incongruent/STIM_022.jpg	99
462.724	0.83	829.7	incongruent	Block1	incongruent/STIM_022.jpg	100
467.304	1.148	1147.9	incongruent	Block1	incongruent/STIM_022.jpg	100
471.679	0.826	825.5	incongruent	Block1	incongruent/STIM_023.jpg	99
476.3	0.915	915.0	incongruent	Block1	incongruent/STIM_023.jpg	99
480.589	0.887	886.8	incongruent	Block1	incongruent/STIM_023.jpg	100
485.242	0.954	954.1	incongruent	Block1	incongruent/STIM_023.jpg	99
489.089	0.613	612.7	incongruent	Block1	incongruent/STIM_023.jpg	100
493.008	1.421	1421.0	incongruent	Block1	incongruent/STIM_024.jpg	100
497.785	1.192	1192.0	incongruent	Block1	incongruent/STIM_024.jpg	99
502.294	0.947	947.2	incongruent	Block1	incongruent/STIM_024.jpg	99
506.734	1.127	1126.9	incongruent	Block1	incongruent/STIM_024.jpg	99
509.919	1.24	1240.3	incongruent	Block1	incongruent/STIM_024.jpg	99
514.55	1.29	1290.1	incongruent	Block1	incongruent/STIM_025.jpg	99
518.701	1.418	1417.6	incongruent	Block1	incongruent/STIM_025.jpg	100
523.774	0.708	707.9	incongruent	Block1	incongruent/STIM_025.jpg	100
528.413	0.893	892.6	incongruent	Block1	incongruent/STIM_025.jpg	99
531.566	1.24	1239.9	incongruent	Block1	incongruent/STIM_025.jpg	100
536.729	0.746	746.1	incongruent	Block1	incongruent/STIM_026.jpg	100
540.998	0.862	862.1	incongruent	Block1	incongruent/STIM_026.jpg	100
544.244	0.799	798.9	incongruent	Block1	incongruent/STIM_026.jpg	100
548.247	0.635	634.8	incongruent	Block1	incongruent/STIM_026.jpg	100
552.371	0.935	935.0	incongruent	Block1	incongruent/STIM_026.jpg	100
555.557	0.759	758.8	incongruent	Block1	incongruent/STIM_027.jpg	99
559.155	0.915	914.6	incongruent	Block1	incongruent/STIM_027.jpg	100
562.643	0.834	834.5	incongruent	Block1	incongruent/STIM_027.jpg	100
566.545	1.163	1163.3	incongruent	Block1	incongruent/STIM_027.jpg	99
569.964	1.018	1017.5	incongruent	Block1	incongruent/STIM_027.jpg	99
574.648	1.44	1440.2	incongruent	Block1	incongruent/STIM_028.jpg	100
578.349	0.857	857.3	incongruent	Block1	incongruent/STIM_028.jpg	100
581.518	0.656	656.4	incongruent	Block1	incongruent/STIM_028.jpg	100
585.749	0.669	669.4	incongruent	Block1	incongruent/STIM_028.jpg	100
588.521	1.151	1151.2	incongruent	Block1	incongruent/STIM_028.jpg	99
593.38	1.206	1206.5	incongruent	Block1	incongruent/STIM_029.jpg	100
598.529	1.4	1399.9	incongruent	Block1	incongruent/STIM_029.jpg	99
603.378	0.861	860.7	incongruent	Block1	incongruent/STIM_029.jpg	99
607.819	0.632	632.1	incongruent	Block1	incongruent/STIM_029.jpg	100
612.189	1.218	1217.5	incongruent	Block1	incongruent/STIM_029.jpg	99
617.177	0.657	657.3	congruent	Block1	congruent/STIM_000.jpg	100
620.598	0.778	778.0	congruent	Block1	congruent/STIM_000.jpg	99
623.471	0.689	688.9	congruent	Block1	congruent/STIM_000.jpg	99
627.454	0.546	546.3	congruent	Block1	congruent/STIM_000.jpg	100
631.454	0.679	678.7	congruent	Block1	congruent/STIM_000.jpg	99
635.145	0.801	801.1	congruent	Block1	congruent/STIM_001.jpg	100
639.768	0.854	854.5	congruent	Block1	congruent/STIM_001.jpg	100
644.557	0.623	622.9	congruent	Block1	congruent/STIM_001.jpg	100
647.975	0.598	598.1	congruent	Block1	congruent/STIM_001.jpg	99
652.187	0.619	618.7	congruent	Block1	congruent/STIM_001.jpg	100
654.832	0.607	607.3	congruent	Block1	congruent/STIM_002.jpg	100
657.689	0.653	652.7	congruent	Block1	congruent/STIM_002.jpg	100
662.137	0.612	611.9	congruent	Block1	congruent/STIM_002.jpg	100
665.909	0.8	800.5	congruent	Block1	congruent/STIM_002.jpg	99
669.457	0.746	746.0	congruent	Block1	congruent/STIM_002.jpg	100
673.595	0.824	823.9	congruent	Block1	congruent/STIM_003.jpg	99
677.505	0.576	576.3	congruent	Block1	congruent/STIM_003.jpg	99
682.014	0.808	808.3	congruent	Block1	congruent/STIM_003.jpg	100
685.951	0.85	849.5	congruent	Block1	congruent/STIM_003.jpg	100
690.474	0.822	821.9	congruent	Block1	congruent/STIM_003.jpg	99
694.006	0.767	767.1	congruent	Block1	congruent/STIM_004.jpg	100
696.999	0.588	587.5	congruent	Block1	congruent/STIM_004.jpg	99
700.685	0.739	739.2	congruent	Block1	congruent/STIM_004.jpg	100
705.379	0.653	653.2	congruent	Block1	congruent/STIM_004.jpg	99
708.745	0.542	541.6	congruent	Block1	congruent/STIM_004.jpg	100
712.911	0.778	777.8	congruent	Block1	congruent/STIM_005.jpg	99
717.491	0.54	539.7	congruent	Block1	congruent/STIM_005.jpg	100
721.369	0.686	686.1	congruent	Block1	congruent/STIM_005.jpg	100
724.52	0.77	769.8	congruent	Block1	congruent/STIM_005.jpg	99
728.712	0.834	833.6	congruent	Block1	congruent/STIM_005.jpg	100
732.537	0.666	666.5	congruent	Block1	congruent/STIM_006.jpg	100
736.582	0.898	897.6	congruent	Block1	congruent/STIM_006.jpg	99
741.105	0.821	821.2	congruent	Block1	congruent/STIM_006.jpg	99
744.248	0.692	692.5	congruent	Block1	congruent/STIM_006.jpg	100
747.236	0.536	536.4	congruent	Block1	congruent/STIM_006.jpg	100
751.445	0.926	926.3	congruent	Block1	congruent/STIM_007.jpg	99
755.935	0.878	877.9	congruent	Block1	congruent/STIM_007.jpg	99
760.423	0.862	861.5	congruent	Block1	congruent/STIM_007.jpg	99
763.818	0.8	800.0	congruent	Block1	congruent/STIM_007.jpg	99
767.449	0.602	601.7	congruent	Block1	congruent/STIM_007.jpg	99
770.368	0.7	699.8	congruent	Block1	congruent/STIM_008.jpg	99
773.467	0.702	701.5	congruent	Block1	congruent/STIM_008.jpg	100
776.908	0.656	656.1	congruent	Block1	congruent/STIM_008.jpg	99
781.208	0.73	729.6	congruent	Block1	congruent/STIM_008.jpg	99
784.037	0.628	628.4	congruent	Block1	congruent/STIM_008.jpg	100
787.053	0.847	846.6	congruent	Block1	congruent/STIM_009.jpg	100
791.226	0.872	871.5	congruent	Block1	congruent/STIM_009.jpg	99
794.849	0.542	542.4	congruent	Block1	congruent/STIM_009.jpg	99
797.949	0.676	675.6	congruent	Block1	congruent/STIM_009.jpg	100
802.132	0.809	809.4	congruent	Block1	congruent/STIM_009.jpg	99
806.326	0.79	790.3	congruent	Block1	congruent/STIM_010.jpg	99
809.626	0.569	569.0	congruent	Block1	congruent/STIM_010.jpg	100
812.241	0.717	717.4	congruent	Block1	congruent/STIM_010.jpg	100
815.783	0.759	759.0	congruent	Block1	congruent/STIM_010.jpg	99
819.784	0.778	778.1	congruent	Block1	congruent/STIM_010.jpg	99
823.053	0.597	597.3	congruent	Block1	congruent/STIM_011.jpg	100
826.254	0.665	665.3	congruent	Block1	congruent/STIM_011.jpg	99
829.232	0.828	828.0	congruent	Block1	congruent/STIM_011.jpg	99
833.293	0.546	545.6	congruent	Block1	congruent/STIM_011.jpg	99
835.844	0.895	895.2	congruent	Block1	congruent/STIM_011.jpg	100
840.553	0.765	764.9	congruent	Block1	congruent/STIM_012.jpg	99
845.053	0.603	602.9	congruent	Block1	congruent/STIM_012.jpg	100
848.243	0.681	681.0	congruent	Block1	congruent/STIM_012.jpg	99
852.669	0.757	756.7	congruent	Block1	congruent/STIM_012.jpg	100
855.433	0.599	599.3	congruent	Block1	congruent/STIM_012.jpg	99
858.186	0.535	535.4	congruent	Block1	congruent/STIM_013.jpg	99
862.42	0.736	736.5	congruent	Block1	congruent/STIM_013.jpg	99
866.423	0.667	667.1	congruent	Block1	congruent/STIM_013.jpg	99
870.527	0.858	858.1	congruent	Block1	congruent/STIM_013.jpg	100
873.832	0.691	691.0	congruent	Block1	congruent/STIM_013.jpg	100
877.217	0.934	933.9	congruent	Block1	congruent/STIM_014.jpg	99
880.969	0.571	570.7	congruent	Block1	congruent/STIM_014.jpg	100
884.903	0.525	525.1	congruent	Block1	congruent/STIM_014.jpg	100
889.181	0.554	554.2	congruent	Block1	congruent/STIM_014.jpg	100
893.333	0.898	897.7	congruent	Block1	congruent/STIM_014.jpg	99
897.291	0.918	918.3	congruent	Block1	congruent/STIM_015.jpg	99
900.254	0.69	690.5	congruent	Block1	congruent/STIM_015.jpg	100
902.981	0.874	874.1	congruent	Block1	congruent/STIM_015.jpg	100
906.191	0.847	847.4	congruent	Block1	congruent/STIM_015.jpg	100
910.328	0.74	740.4	congruent	Block1	congruent/STIM_015.jpg	99
914.288	0.799	799.0	congruent	Block1	congruent/STIM_016.jpg	100
918.634	0.552	551.5	congruent	Block1	congruent/STIM_016.jpg	100
922.059	0.76	760.5	congruent	Block1	congruent/STIM_016.jpg	99
925.832	0.881	881.4	congruent	Block1	congruent/STIM_016.jpg	100
929.659	0.792	791.7	congruent	Block1	congruent/STIM_016.jpg	100
934.302	0.679	679.1	congruent	Block1	congruent/STIM_017.jpg	99
937.71	0.583	582.8	congruent	Block1	congruent/STIM_017.jpg	99
941.13	0.549	548.9	congruent	Block1	congruent/STIM_017.jpg	100
943.752	0.542	541.7	congruent	Block1	congruent/STIM_017.jpg	100
947.355	0.878	878.3	congruent	Block1	congruent/STIM_017.jpg	100
950.981	0.577	576.8	congruent	Block1	congruent/STIM_018.jpg	100
955.192	0.733	732.6	congruent	Block1	congruent/STIM_018.jpg	99
959.201	0.534	533.5	congruent	Block1	congruent/STIM_018.jpg	99
963.456	0.796	795.5	congruent	Block1	congruent/STIM_018.jpg	99
966.301	0.878	878.4	congruent	Block1	congruent/STIM_018.jpg	100
969.875	0.856	856.2	congruent	Block1	congruent/STIM_019.jpg	99
973.973	0.931	931.2	congruent	Block1	congruent/STIM_019.jpg	99
977.683	0.617	617.3	congruent	Block1	congruent/STIM_019.jpg	99
980.484	0.81	809.5	congruent	Block1	congruent/STIM_019.jpg	99
983.394	0.592	592.3	congruent	Block1	congruent/STIM_019.jpg	99
986.952	0.626	626.2	congruent	Block1	congruent/STIM_020.jpg	100
990.951	0.865	865.4	congruent	Block1	congruent/STIM_020.jpg	99
994.053	0.544	544.4	congruent	Block1	congruent/STIM_020.jpg	99
997.014	0.856	855.8	congruent	Block1	congruent/STIM_020.jpg	99
999.896	0.609	609.2	congruent	Block1	congruent/STIM_020.jpg	99
1003.821	0.858	858.5	congruent	Block1	congruent/STIM_021.jpg	100
1006.718	0.935	934.8	congruent	Block1	congruent/STIM_021.jpg	100
1011.624	0.851	851.2	congruent	Block1	congruent/STIM_021.jpg	100
1015.282	0.608	607.8	congruent	Block1	congruent/STIM_021.jpg	99
1019.432	0.589	589.2	congruent	Block1	congruent/STIM_021.jpg	99
1022.694	0.928	928.5	congruent	Block1	congruent/STIM_022.jpg	99
1026.005	0.928	928.4	congruent	Block1	congruent/STIM_022.jpg	100
1030.501	0.723	722.6	congruent	Block1	congruent/STIM_022.jpg	100
1034.327	0.697	697.3	congruent	Block1	congruent/STIM_022.jpg	100
1038.037	0.767	767.0	congruent	Block1	congruent/STIM_022.jpg	100
1042.506	0.568	567.5	congruent	Block1	congruent/STIM_023.jpg	100
1046.537	0.851	850.8	congruent	Block1	congruent/STIM_023.jpg	100
1050.708	0.765	765.2	congruent	Block1	congruent/STIM_023.jpg	100
1054.043	0.627	627.2	congruent	Block1	congruent/STIM_023.jpg	99
1057.101	0.608	607.8	congruent	Block1	congruent/STIM_023.jpg	99
1060.524	0.64	640.2	congruent	Block1	congruent/STIM_024.jpg	99
1064.328	0.816	816.2	congruent	Block1	congruent/STIM_024.jpg	99
1068.426	0.652	652.2	congruent	Block1	congruent/STIM_024.jpg	99
1071.906	0.77	770.5	congruent	Block1	congruent/STIM_024.jpg	100
1075.903	0.52	520.0	congruent	Block1	congruent/STIM_024.jpg	100
1079.211	0.674	673.6	congruent	Block1	congruent/STIM_025.jpg	100
1082.976	0.628	628.3	congruent	Block1	congruent/STIM_025.jpg	99
1086.307	0.772	772.3	congruent	Block1	congruent/STIM_025.jpg	99
1089.348	0.763	763.1	congruent	Block1	congruent/STIM_025.jpg	99
1092.35	0.559	559.1	congruent	Block1	congruent/STIM_025.jpg	99
1096.763	0.56	560.0	congruent	Block1	congruent/STIM_026.jpg	100
1100.648	0.563	563.4	congruent	Block1	congruent/STIM_026.jpg	100
1105.017	0.668	667.6	congruent	Block1	congruent/STIM_026.jpg	100
1109.518	0.54	539.5	congruent	Block1	congruent/STIM_026.jpg	100
1113.901	0.746	746.4	congruent	Block1	congruent/STIM_026.jpg	100
1116.755	0.681	680.8	congruent	Block1	congruent/STIM_027.jpg	99
1120.816	0.682	681.5	congruent	Block1	congruent/STIM_027.jpg	99
1124.997	0.745	744.7	congruent	Block1	congruent/STIM_027.jpg	99
1128.392	0.689	689.4	congruent	Block1	congruent/STIM_027.jpg	99
1132.182	0.651	650.8	congruent	Block1	congruent/STIM_027.jpg	99
1136.574	0.609	609.0	congruent	Block1	congruent/STIM_028.jpg	99
1140.147	0.861	860.9	congruent	Block1	congruent/STIM_028.jpg	100
1144.505	0.892	892.4	congruent	Block1	congruent/STIM_028.jpg	99
1149.384	0.806	806.4	congruent	Block1	congruent/STIM_028.jpg	100
1153.233	0.781	780.6	congruent	Block1	congruent/STIM_028.jpg	100
1156.917	0.886	886.4	congruent	Block1	congruent/STIM_029.jpg	99
1161.345	0.851	851.4	congruent	Block1	congruent/STIM_029.jpg	99
1165.961	0.554	553.6	congruent	Block1	congruent/STIM_029.jpg	99
1170.102	0.663	663.2	congruent	Block1	congruent/STIM_029.jpg	99
1174.658	0.637	637.1	congruent	Block1	congruent/STIM_029.jpg	100
1178.127	1.232	1231.5	incongruent	Block2	incongruent/STIM_000.jpg	100
1183.155	0.971	971.2	incongruent	Block2	incongruent/STIM_000.jpg	100
1187.909	0.838	837.8	incongruent	Block2	incongruent/STIM_000.jpg	100
1190.906	0.771	770.9	incongruent	Block2	incongruent/STIM_000.jpg	99
1195.327	0.526	526.4	incongruent	Block2	incongruent/STIM_000.jpg	99
1199.666	1.062	1061.9	incongruent	Block2	incongruent/STIM_001.jpg	100
1202.895	0.92	920.2	incongruent	Block2	incongruent/STIM_001.jpg	99
1206.958	1.05	1050.3	incongruent	Block2	incongruent/STIM_001.jpg	100
1210.302	0.857	856.6	incongruent	Block2	incongruent/STIM_001.jpg	100
1214.415	0.594	593.8	incongruent	Block2	incongruent/STIM_001.jpg	100
1217.714	1.153	1153.2	incongruent	Block2	incongruent/STIM_002.jpg	100
1221.721	0.627	626.8	incongruent	Block2	incongruent/STIM_002.jpg	99
1225.799	1.146	1145.6	incongruent	Block2	incongruent/STIM_002.jpg	100
1230.365	0.999	998.9	incongruent	Block2	incongruent/STIM_002.jpg	100
1233.445	0.869	868.8	incongruent	Block2	incongruent/STIM_002.jpg	100
1236.751	1.106	1105.7	incongruent	Block2	incongruent/STIM_003.jpg	99
1240.727	0.659	659.1	incongruent	Block2	incongruent/STIM_003.jpg	99
1244.272	0.868	867.9	incongruent	Block2	incongruent/STIM_003.jpg	99
1248.201	0.755	755.4	incongruent	Block2	incongruent/STIM_003.jpg	100
1252.382	0.838	838.2	incongruent	Block2	incongruent/STIM_003.jpg	99
1255.78	0.98	979.7	incongruent	Block2	incongruent/STIM_004.jpg	100
1260.162	0.582	582.1	incongruent	Block2	incongruent/STIM_004.jpg	99
1262.932	0.959	959.0	incongruent	Block2	incongruent/STIM_004.jpg	100
1266.625	0.581	581.2	incongruent	Block2	incongruent/STIM_004.jpg	100
1270.24	0.85	850.0	incongruent	Block2	incongruent/STIM_004.jpg	99
1274.865	1.14	1139.8	incongruent	Block2	incongruent/STIM_005.jpg	100
1278.392	0.656	655.5	incongruent	Block2	incongruent/STIM_005.jpg	99
1281.492	0.586	586.0	incongruent	Block2	incongruent/STIM_005.jpg	99
1285.098	0.999	999.0	incongruent	Block2	incongruent/STIM_005.jpg	99
1288.421	0.551	550.6	incongruent	Block2	incongruent/STIM_005.jpg	100
1292.017	0.709	709.3	incongruent	Block2	incongruent/STIM_006.jpg	99
1295.106	1.232	1232.4	incongruent	Block2	incongruent/STIM_006.jpg	99
1299.887	0.636	636.5	incongruent	Block2	incongruent/STIM_006.jpg	100
1303.575	0.795	795.4	incongruent	Block2	incongruent/STIM_006.jpg	99
1307.51	1.06	1059.5	incongruent	Block2	incongruent/STIM_006.jpg	100
1310.704	0.936	935.5	incongruent	Block2	incongruent/STIM_007.jpg	100
1315.33	0.93	929.5	incongruent	Block2	incongruent/STIM_007.jpg	100
1318.758	0.742	741.8	incongruent	Block2	incongruent/STIM_007.jpg	100
1322.15	0.823	822.7	incongruent	Block2	incongruent/STIM_007.jpg	100
1326.962	0.951	951.3	incongruent	Block2	incongruent/STIM_007.jpg	100
1329.928	0.886	885.9	incongruent	Block2	incongruent/STIM_008.jpg	100
1333.193	0.595	595.3	incongruent	Block2	incongruent/STIM_008.jpg	100
1336.303	0.711	710.9	incongruent	Block2	incongruent/STIM_008.jpg	100
1339.138	0.979	979.1	incongruent	Block2	incongruent/STIM_008.jpg	100
1342.55	0.669	668.8	incongruent	Block2	incongruent/STIM_008.jpg	99
1345.221	1.247	1247.0	incongruent	Block2	incongruent/STIM_009.jpg	99
1348.916	0.871	870.9	incongruent	Block2	incongruent/STIM_009.jpg	100
1352.736	0.734	734.3	incongruent	Block2	incongruent/STIM_009.jpg	100
1356.845	0.758	758.0	incongruent	Block2	incongruent/STIM_009.jpg	99
1360.5	1.025	1025.4	incongruent	Block2	incongruent/STIM_009.jpg	99
1365.443	1.048	1048.2	incongruent	Block2	incongruent/STIM_010.jpg	100
1370.471	0.691	690.7	incongruent	Block2	incongruent/STIM_010.jpg	100
1373.282	1.143	1142.9	incongruent	Block2	incongruent/STIM_010.jpg	99
1377.796	1.075	1074.8	incongruent	Block2	incongruent/STIM_010.jpg	100
1382.15	0.673	672.9	incongruent	Block2	incongruent/STIM_010.jpg	100
1385.078	1.016	1016.0	incongruent	Block2	incongruent/STIM_011.jpg	100
1388.674	0.746	745.5	incongruent	Block2	incongruent/STIM_011.jpg	100
1392.213	0.844	844.5	incongruent	Block2	incongruent/STIM_011.jpg	99
1395.256	0.867	867.1	incongruent	Block2	incongruent/STIM_011.jpg	100
1398.981	0.796	795.9	incongruent	Block2	incongruent/STIM_011.jpg	99
1403.347	1.264	1263.5	incongruent	Block2	incongruent/STIM_012.jpg	99
1407.218	0.821	820.8	incongruent	Block2	incongruent/STIM_012.jpg	100
1410.885	0.894	893.8	incongruent	Block2	incongruent/STIM_012.jpg	99
1414.384	0.786	785.6	incongruent	Block2	incongruent/STIM_012.jpg	100
1417.47	0.511	510.9	incongruent	Block2	incongruent/STIM_012.jpg	100
1421.738	1.202	1202.2	incongruent	Block2	incongruent/STIM_013.jpg	99
1426.302	1.016	1016.3	incongruent	Block2	incongruent/STIM_013.jpg	100
1430.194	0.651	651.1	incongruent	Block2	incongruent/STIM_013.jpg	100
1434.366	0.855	855.4	incongruent	Block2	incongruent/STIM_013.jpg	99
1438.339	0.705	705.0	incongruent	Block2	incongruent/STIM_013.jpg	99
1443.029	0.78	780.1	incongruent	Block2	incongruent/STIM_014.jpg	100
1446.266	0.788	787.9	incongruent	Block2	incongruent/STIM_014.jpg	100
1450.026	0.634	634.1	incongruent	Block2	incongruent/STIM_014.jpg	100
1453.348	0.878	878.3	incongruent	Block2	incongruent/STIM_014.jpg	100
1457.912	0.92	919.7	incongruent	Block2	incongruent/STIM_014.jpg	100
1461.56	0.737	736.6	incongruent	Block2	incongruent/STIM_015.jpg	99
1465.302	0.9	900.5	incongruent	Block2	incongruent/STIM_015.jpg	100
1469.784	0.75	749.6	incongruent	Block2	incongruent/STIM_015.jpg	99
1473.451	0.953	953.4	incongruent	Block2	incongruent/STIM_015.jpg	100
1478.165	0.752	752.3	incongruent	Block2	incongruent/STIM_015.jpg	99
1481.016	0.71	710.3	incongruent	Block2	incongruent/STIM_016.jpg	99
1484.486	0.848	848.2	incongruent	Block2	incongruent/STIM_016.jpg	99
1488.754	1.164	1164.3	incongruent	Block2	incongruent/STIM_016.jpg	100
1493.059	0.98	980.2	incongruent	Block2	incongruent/STIM_016.jpg	99
1497.94	0.95	949.8	incongruent	Block2	incongruent/STIM_016.jpg	100
1502.187	0.86	859.8	incongruent	Block2	incongruent/STIM_017.jpg	99
1505.921	1.048	1048.2	incongruent	Block2	incongruent/STIM_017.jpg	100
1509.1	0.593	592.9	incongruent	Block2	incongruent/STIM_017.jpg	100
1512.417	0.863	863.4	incongruent	Block2	incongruent/STIM_017.jpg	99
1516.468	0.556	556.1	incongruent	Block2	incongruent/STIM_017.jpg	100
1519.587	0.921	921.3	incongruent	Block2	incongruent/STIM_018.jpg	100
1524.236	0.829	829.4	incongruent	Block2	incongruent/STIM_018.jpg	100
1528.129	1.023	1022.7	incongruent	Block2	incongruent/STIM_018.jpg	100
1532.015	1.02	1019.6	incongruent	Block2	incongruent/STIM_018.jpg	99
1535.15	0.83	829.9	incongruent	Block2	incongruent/STIM_018.jpg	100
1538.989	0.684	684.5	incongruent	Block2	incongruent/STIM_019.jpg	100
1542.283	0.816	815.7	incongruent	Block2	incongruent/STIM_019.jpg	100
1545.624	0.883	882.7	incongruent	Block2	incongruent/STIM_019.jpg	99
1550.054	1.009	1009.1	incongruent	Block2	incongruent/STIM_019.jpg	99
1554.846	0.641	640.8	incongruent	Block2	incongruent/STIM_019.jpg	99
1558.787	0.979	978.7	incongruent	Block2	incongruent/STIM_020.jpg	99
1562.505	0.821	821.1	incongruent	Block2	incongruent/STIM_020.jpg	99
1566.799	1.146	1146.4	incongruent	Block2	incongruent/STIM_020.jpg	99
1571.457	0.779	778.6	incongruent	Block2	incongruent/STIM_020.jpg	100
1574.674	0.901	901.0	incongruent	Block2	incongruent/STIM_020.jpg	100
1578.794	0.76	760.5	incongruent	Block2	incongruent/STIM_021.jpg	100
1582.94	0.937	936.7	incongruent	Block2	incongruent/STIM_021.jpg	100
1587.863	1.156	1156.1	incongruent	Block2	incongruent/STIM_021.jpg	99
1591.802	1.032	1032.4	incongruent	Block2	incongruent/STIM_021.jpg	100
1596.217	1.06	1060.0	incongruent	Block2	incongruent/STIM_021.jpg	99
1599.583	0.803	803.2	incongruent	Block2	incongruent/STIM_022.jpg	100
1604.237	1.147	1147.3	incongruent	Block2	incongruent/STIM_022.jpg	100
1608.899	0.915	915.0	incongruent	Block2	incongruent/STIM_022.jpg	99
1612.977	0.856	855.7	incongruent	Block2	incongruent/STIM_022.jpg	99
1617.469	0.909	909.0	incongruent	Block2	incongruent/STIM_022.jpg	100
1622.339	1.18	1180.2	incongruent	Block2	incongruent/STIM_023.jpg	99
1626.062	1.053	1052.6	incongruent	Block2	incongruent/STIM_023.jpg	99
1629.233	1.113	1112.6	incongruent	Block2	incongruent/STIM_023.jpg	99
1633.828	0.635	634.9	incongruent	Block2	incongruent/STIM_023.jpg	100
1637.946	1.053	1052.9	incongruent	Block2	incongruent/STIM_023.jpg	99
1641.814	0.97	970.4	incongruent	Block2	incongruent/STIM_024.jpg	100
1644.961	0.642	641.9	incongruent	Block2	incongruent/STIM_024.jpg	100
1647.807	0.616	615.9	incongruent	Block2	incongruent/STIM_024.jpg	100
1652.325	1.019	1019.4	incongruent	Block2	incongruent/STIM_024.jpg	100
1656.109	0.79	790.4	incongruent	Block2	incongruent/STIM_024.jpg	100
1659.956	0.939	939.3	incongruent	Block2	incongruent/STIM_025.jpg	100
1663.024	1.034	1033.7	incongruent	Block2	incongruent/STIM_025.jpg	100
1667.993	0.629	628.7	incongruent	Block2	incongruent/STIM_025.jpg	99
1671.755	0.954	953.8	incongruent	Block2	incongruent/STIM_025.jpg	100
1676.083	0.734	734.5	incongruent	Block2	incongruent/STIM_025.jpg	99
1679.558	0.714	714.2	incongruent	Block2	incongruent/STIM_026.jpg	100
1682.529	0.954	953.7	incongruent	Block2	incongruent/STIM_026.jpg	99
1685.847	0.762	761.7	incongruent	Block2	incongruent/STIM_026.jpg	99
1689.882	0.701	701.2	incongruent	Block2	incongruent/STIM_026.jpg	100
1693.839	0.96	960.0	incongruent	Block2	incongruent/STIM_026.jpg	99
1697.824	0.67	670.3	incongruent	Block2	incongruent/STIM_027.jpg	100
1701.179	0.592	592.4	incongruent	Block2	incongruent/STIM_027.jpg	99
1704.776	0.902	902.3	incongruent	Block2	incongruent/STIM_027.jpg	99
1707.847	0.991	990.9	incongruent	Block2	incongruent/STIM_027.jpg	99
1711.408	0.786	786.1	incongruent	Block2	incongruent/STIM_027.jpg	99
1714.338	0.636	636.4	incongruent	Block2	incongruent/STIM_028.jpg	100
1718.748	0.997	996.7	incongruent	Block2	incongruent/STIM_028.jpg	100
1722.307	0.803	802.8	incongruent	Block2	incongruent/STIM_028.jpg	100
1726.022	0.86	860.0	incongruent	Block2	incongruent/STIM_028.jpg	100
1729.815	0.599	598.9	incongruent	Block2	incongruent/STIM_028.jpg	100
1732.9	1.193	1193.0	incongruent	Block2	incongruent/STIM_029.jpg	99
1736.413	0.941	940.7	incongruent	Block2	incongruent/STIM_029.jpg	99
1740.712	0.593	593.0	incongruent	Block2	incongruent/STIM_029.jpg	99
1744.612	0.568	567.9	incongruent	Block2	incongruent/STIM_029.jpg	99
1747.523	0.55	550.2	incongruent	Block2	incongruent/STIM_029.jpg	99
1750.253	0.698	698.5	congruent	Block2	congruent/STIM_000.jpg	99
1754.375	0.832	832.4	congruent	Block2	congruent/STIM_000.jpg	99
1758.098	0.741	741.1	congruent	Block2	congruent/STIM_000.jpg	99
1762.048	0.877	876.7	congruent	Block2	congruent/STIM_000.jpg	99
1766.259	0.722	721.5	congruent	Block2	congruent/STIM_000.jpg	100
1769.626	0.862	861.8	congruent	Block2	congruent/STIM_001.jpg	100
1773.008	0.53	529.6	congruent	Block2	congruent/STIM_001.jpg	100
1776.859	0.68	679.9	congruent	Block2	congruent/STIM_001.jpg	99
1781.066	0.829	829.2	congruent	Block2	congruent/STIM_001.jpg	99
1784.603	0.873	872.7	congruent	Block2	congruent/STIM_001.jpg	99
1788.899	0.668	667.5	congruent	Block2	congruent/STIM_002.jpg	100
1792.534	0.914	914.0	congruent	Block2	congruent/STIM_002.jpg	100
1797.0	0.806	806.1	congruent	Block2	congruent/STIM_002.jpg	100
1800.57	0.683	682.8	congruent	Block2	congruent/STIM_002.jpg	99
1804.408	0.756	756.5	congruent	Block2	congruent/STIM_002.jpg	99
1808.119	0.841	841.4	congruent	Block2	congruent/STIM_003.jpg	100
1812.795	0.919	919.3	congruent	Block2	congruent/STIM_003.jpg	99
1815.737	0.844	844.0	congruent	Block2	congruent/STIM_003.jpg	100
1820.43	0.724	724.3	congruent	Block2	congruent/STIM_003.jpg	99
1824.407	0.831	831.1	congruent	Block2	congruent/STIM_003.jpg	99
1828.574	0.832	831.9	congruent	Block2	congruent/STIM_004.jpg	99
1831.988	0.53	529.5	congruent	Block2	congruent/STIM_004.jpg	99
1835.36	0.85	849.8	congruent	Block2	congruent/STIM_004.jpg	100
1838.354	0.694	694.4	congruent	Block2	congruent/STIM_004.jpg	99
1842.589	0.65	649.5	congruent	Block2	congruent/STIM_004.jpg	100
1846.87	0.802	801.5	congruent	Block2	congruent/STIM_005.jpg	100
1851.198	0.523	523.1	congruent	Block2	congruent/STIM_005.jpg	99
1855.55	0.547	547.2	congruent	Block2	congruent/STIM_005.jpg	99
1858.708	0.608	608.5	congruent	Block2	congruent/STIM_005.jpg	100
1862.166	0.601	601.1	congruent	Block2	congruent/STIM_005.jpg	100
1865.512	0.921	920.7	congruent	Block2	congruent/STIM_006.jpg	99
1868.84	0.862	861.6	congruent	Block2	congruent/STIM_006.jpg	100
1873.178	0.754	754.2	congruent	Block2	congruent/STIM_006.jpg	99
1877.635	0.753	752.6	congruent	Block2	congruent/STIM_006.jpg	99
1881.134	0.814	814.1	congruent	Block2	congruent/STIM_006.jpg	100
1885.296	0.675	674.6	congruent	Block2	congruent/STIM_007.jpg	100
1888.143	0.728	728.4	congruent	Block2	congruent/STIM_007.jpg	99
1892.523	0.675	675.1	congruent	Block2	congruent/STIM_007.jpg	100
1895.901	0.838	837.8	congruent	Block2	congruent/STIM_007.jpg	99
1900.405	0.86	860.4	congruent	Block2	congruent/STIM_007.jpg	99
1905.114	0.88	880.2	congruent	Block2	congruent/STIM_008.jpg	100
1909.883	0.728	727.5	congruent	Block2	congruent/STIM_008.jpg	100
1914.181	0.866	866.2	congruent	Block2	congruent/STIM_008.jpg	100
1917.088	0.566	565.9	congruent	Block2	congruent/STIM_008.jpg	99
1921.279	0.767	766.6	congruent	Block2	congruent/STIM_008.jpg	100
1924.856	0.57	570.5	congruent	Block2	congruent/STIM_009.jpg	100
1927.527	0.644	644.2	congruent	Block2	congruent/STIM_009.jpg	99
1931.092	0.69	690.5	congruent	Block2	congruent/STIM_009.jpg	100
1934.003	0.911	910.9	congruent	Block2	congruent/STIM_009.jpg	100
1937.916	0.787	787.4	congruent	Block2	congruent/STIM_009.jpg	99
1942.221	0.797	796.9	congruent	Block2	congruent/STIM_010.jpg	99
1946.478	0.813	813.1	congruent	Block2	congruent/STIM_010.jpg	99
1950.998	0.702	702.4	congruent	Block2	congruent/STIM_010.jpg	99
1953.857	0.755	755.2	congruent	Block2	congruent/STIM_010.jpg	99
1957.006	0.556	556.5	congruent	Block2	congruent/STIM_010.jpg	100
1960.753	0.695	694.9	congruent	Block2	congruent/STIM_011.jpg	99
1964.046	0.893	893.4	congruent	Block2	congruent/STIM_011.jpg	99
1966.969	0.712	712.5	congruent	Block2	congruent/STIM_011.jpg	99
1969.96	0.586	586.3	congruent	Block2	congruent/STIM_011.jpg	99
1973.331	0.55	549.5	congruent	Block2	congruent/STIM_011.jpg	100
1976.342	0.591	590.9	congruent	Block2	congruent/STIM_012.jpg	100
1979.077	0.524	524.5	congruent	Block2	congruent/STIM_012.jpg	100
1982.426	0.89	890.0	congruent	Block2	congruent/STIM_012.jpg	99
1985.633	0.634	633.7	congruent	Block2	congruent/STIM_012.jpg	99
1989.442	0.721	721.4	congruent	Block2	congruent/STIM_012.jpg	100
1993.586	0.576	575.7	congruent	Block2	congruent/STIM_013.jpg	100
1996.92	0.724	724.5	congruent	Block2	congruent/STIM_013.jpg	99
2001.457	0.873	872.6	congruent	Block2	congruent/STIM_013.jpg	99
2005.426	0.673	673.2	congruent	Block2	congruent/STIM_013.jpg	99
2008.245	0.701	701.4	congruent	Block2	congruent/STIM_013.jpg	100
2011.699	0.751	751.0	congruent	Block2	congruent/STIM_014.jpg	99
2016.11	0.837	836.9	congruent	Block2	congruent/STIM_014.jpg	99
2020.457	0.9	899.8	congruent	Block2	congruent/STIM_014.jpg	100
2023.859	0.582	581.8	congruent	Block2	congruent/STIM_014.jpg	99
2027.886	0.906	906.4	congruent	Block2	congruent/STIM_014.jpg	99
2031.218	0.556	555.6	congruent	Block2	congruent/STIM_015.jpg	99
2034.449	0.611	611.1	congruent	Block2	congruent/STIM_015.jpg	99
2037.103	0.763	763.2	congruent	Block2	congruent/STIM_015.jpg	99
2040.411	0.895	894.9	congruent	Block2	congruent/STIM_015.jpg	99
2043.393	0.668	667.7	congruent	Block2	congruent/STIM_015.jpg	100
2047.84	0.72	719.5	congruent	Block2	congruent/STIM_016.jpg	100
2050.646	0.916	916.3	congruent	Block2	congruent/STIM_016.jpg	99
2055.362	0.617	617.0	congruent	Block2	congruent/STIM_016.jpg	100
2058.111	0.862	862.2	congruent	Block2	congruent/STIM_016.jpg	99
2062.496	0.825	825.2	congruent	Block2	congruent/STIM_016.jpg	100
2066.465	0.643	642.8	congruent	Block2	congruent/STIM_017.jpg	100
2069.628	0.793	792.8	congruent	Block2	congruent/STIM_017.jpg	99
2073.074	0.53	530.4	congruent	Block2	congruent/STIM_017.jpg	100
2075.724	0.899	898.7	congruent	Block2	congruent/STIM_017.jpg	99
2079.538	0.831	831.4	congruent	Block2	congruent/STIM_017.jpg	100
2083.06	0.892	892.5	congruent	Block2	congruent/STIM_018.jpg	100
2087.387	0.888	888.5	congruent	Block2	congruent/STIM_018.jpg	100
2090.869	0.758	757.6	congruent	Block2	congruent/STIM_018.jpg	100
2094.488	0.638	637.9	congruent	Block2	congruent/STIM_018.jpg	99
2097.938	0.912	911.9	congruent	Block2	congruent/STIM_018.jpg	100
2101.605	0.609	608.6	congruent	Block2	congruent/STIM_019.jpg	99
2105.551	0.862	862.1	congruent	Block2	congruent/STIM_019.jpg	100
2109.01	0.614	614.3	congruent	Block2	congruent/STIM_019.jpg	99
2111.987	0.557	556.6	congruent	Block2	congruent/STIM_019.jpg	100
2114.753	0.836	835.9	congruent	Block2	congruent/STIM_019.jpg	100
2118.952	0.815	814.7	congruent	Block2	congruent/STIM_020.jpg	100
2123.358	0.545	544.6	congruent	Block2	congruent/STIM_020.jpg	100
2126.635	0.728	728.5	congruent	Block2	congruent/STIM_020.jpg	100
2131.246	0.523	522.6	congruent	Block2	congruent/STIM_020.jpg	100
2135.606	0.738	738.0	congruent	Block2	congruent/STIM_020.jpg	100
2138.614	0.908	907.7	congruent	Block2	congruent/STIM_021.jpg	99
2142.885	0.843	843.4	congruent	Block2	congruent/STIM_021.jpg	99
2146.958	0.918	917.8	congruent	Block2	congruent/STIM_021.jpg	99
2151.287	0.872	872.1	congruent	Block2	congruent/STIM_021.jpg	100
2155.026	0.852	851.6	congruent	Block2	congruent/STIM_021.jpg	100
2158.666	0.732	731.6	congruent	Block2	congruent/STIM_022.jpg	99
2162.845	0.794	793.5	congruent	Block2	congruent/STIM_022.jpg	100
2167.343	0.678	677.9	congruent	Block2	congruent/STIM_022.jpg	100
2170.644	0.521	521.1	congruent	Block2	congruent/STIM_022.jpg	100
2174.463	0.785	784.8	congruent	Block2	congruent/STIM_022.jpg	99
2177.934	0.666	665.6	congruent	Block2	congruent/STIM_023.jpg	99
2182.494	0.888	888.2	congruent	Block2	congruent/STIM_023.jpg	100
2185.98	0.741	741.4	congruent	Block2	congruent/STIM_023.jpg	99
2190.379	0.644	643.7	congruent	Block2	congruent/STIM_023.jpg	100
2194.803	0.604	603.8	congruent	Block2	congruent/STIM_023.jpg	99
2199.342	0.566	566.0	congruent	Block2	congruent/STIM_024.jpg	99
2202.776	0.566	566.1	congruent	Block2	congruent/STIM_024.jpg	100
2205.446	0.74	739.6	congruent	Block2	congruent/STIM_024.jpg	100
2210.095	0.72	720.1	congruent	Block2	congruent/STIM_024.jpg	99
2214.219	0.644	643.9	congruent	Block2	congruent/STIM_024.jpg	99
2217.006	0.807	806.8	congruent	Block2	congruent/STIM_025.jpg	100
2220.51	0.644	643.5	congruent	Block2	congruent/STIM_025.jpg	100
2223.785	0.604	604.2	congruent	Block2	congruent/STIM_025.jpg	100
2226.488	0.731	731.3	congruent	Block2	congruent/STIM_025.jpg	99
2230.056	0.612	611.8	congruent	Block2	congruent/STIM_025.jpg	100
2232.799	0.592	591.6	congruent	Block2	congruent/STIM_026.jpg	99
2236.194	0.629	629.2	congruent	Block2	congruent/STIM_026.jpg	99
2240.384	0.655	654.7	congruent	Block2	congruent/STIM_026.jpg	99
2243.696	0.878	878.2	congruent	Block2	congruent/STIM_026.jpg	100
2246.986	0.7	699.7	congruent	Block2	congruent/STIM_026.jpg	99
2250.784	0.641	641.1	congruent	Block2	congruent/STIM_027.jpg	99
2254.362	0.667	667.3	congruent	Block2	congruent/STIM_027.jpg	100
2258.265	0.713	713.1	congruent	Block2	congruent/STIM_027.jpg	100
2261.821	0.891	890.6	congruent	Block2	congruent/STIM_027.jpg	100
2266.35	0.776	775.7	congruent	Block2	congruent/STIM_027.jpg	100
2270.95	0.601	600.6	congruent	Block2	congruent/STIM_028.jpg	99
2274.646	0.723	723.1	congruent	Block2	congruent/STIM_028.jpg	99
2277.903	0.815	814.6	congruent	Block2	congruent/STIM_028.jpg	100
2282.325	0.561	560.8	congruent	Block2	congruent/STIM_028.jpg	99
2286.122	0.787	786.8	congruent	Block2	congruent/STIM_028.jpg	99
2289.276	0.933	932.9	congruent	Block2	congruent/STIM_029.jpg	100
2293.424	0.647	646.6	congruent	Block2	congruent/STIM_029.jpg	100
2297.171	0.737	736.7	congruent	Block2	congruent/STIM_029.jpg	100
2301.051	0.875	875.0	congruent	Block2	congruent/STIM_029.jpg	99
2304.739	0.661	661.0	congruent	Block2	congruent/STIM_029.jpg	99
2308.41	1.049	1049.0	incongruent	Block3	incongruent/STIM_000.jpg	99
2311.684	0.793	793.1	incongruent	Block3	incongruent/STIM_000.jpg	100
2315.485	0.64	640.0	incongruent	Block3	incongruent/STIM_000.jpg	100
2319.914	0.986	985.5	incongruent	Block3	incongruent/STIM_000.jpg	99
2323.129	1.05	1050.1	incongruent	Block3	incongruent/STIM_000.jpg	99
2326.911	0.834	833.7	incongruent	Block3	incongruent/STIM_001.jpg	99
2331.171	0.839	838.7	incongruent	Block3	incongruent/STIM_001.jpg	100
2335.799	0.809	809.0	incongruent	Block3	incongruent/STIM_001.jpg	100
2339.842	0.521	521.2	incongruent	Block3	incongruent/STIM_001.jpg	99
2344.033	0.575	574.6	incongruent	Block3	incongruent/STIM_001.jpg	100
2346.615	0.81	810.2	incongruent	Block3	incongruent/STIM_002.jpg	100
2350.592	0.76	760.3	incongruent	Block3	incongruent/STIM_002.jpg	100
2354.313	0.98	979.8	incongruent	Block3	incongruent/STIM_002.jpg	100
2357.802	0.97	970.4	incongruent	Block3	incongruent/STIM_002.jpg	99
2361.981	0.979	978.6	incongruent	Block3	incongruent/STIM_002.jpg	100
2366.309	0.664	663.7	incongruent	Block3	incongruent/STIM_003.jpg	99
2370.933	0.721	720.8	incongruent	Block3	incongruent/STIM_003.jpg	100
2374.353	0.533	533.4	incongruent	Block3	incongruent/STIM_003.jpg	100
2377.829	0.632	631.9	incongruent	Block3	incongruent/STIM_003.jpg	100
2380.473	0.848	848.2	incongruent	Block3	incongruent/STIM_003.jpg	100
2384.52	0.759	758.6	incongruent	Block3	incongruent/STIM_004.jpg	99
2389.219	0.653	653.1	incongruent	Block3	incongruent/STIM_004.jpg	100
2392.298	0.593	593.4	incongruent	Block3	incongruent/STIM_004.jpg	99
2394.919	1.081	1081.3	incongruent	Block3	incongruent/STIM_004.jpg	100
2398.01	0.548	547.6	incongruent	Block3	incongruent/STIM_004.jpg	100
2402.03	0.61	609.7	incongruent	Block3	incongruent/STIM_005.jpg	99
2405.943	0.921	920.7	incongruent	Block3	incongruent/STIM_005.jpg	99
2409.412	1.047	1047.4	incongruent	Block3	incongruent/STIM_005.jpg	100
2413.581	0.795	795.1	incongruent	Block3	incongruent/STIM_005.jpg	100
2417.938	0.697	696.7	incongruent	Block3	incongruent/STIM_005.jpg	99
2422.029	0.89	890.5	incongruent	Block3	incongruent/STIM_006.jpg	99
2425.006	0.73	730.0	incongruent	Block3	incongruent/STIM_006.jpg	99
2429.335	0.867	867.4	incongruent	Block3	incongruent/STIM_006.jpg	100
2433.687	0.702	701.9	incongruent	Block3	incongruent/STIM_006.jpg	99
2438.146	0.862	862.5	incongruent	Block3	incongruent/STIM_006.jpg	100
2441.766	0.981	981.3	incongruent	Block3	incongruent/STIM_007.jpg	99
2446.536	0.602	601.6	incongruent	Block3	incongruent/STIM_007.jpg	100
2449.412	0.91	910.5	incongruent	Block3	incongruent/STIM_007.jpg	100
2452.403	0.76	759.5	incongruent	Block3	incongruent/STIM_007.jpg	100
2456.825	0.92	920.2	incongruent	Block3	incongruent/STIM_007.jpg	100
2460.085	0.814	813.5	incongruent	Block3	incongruent/STIM_008.jpg	99
2464.381	0.532	532.0	incongruent	Block3	incongruent/STIM_008.jpg	99
2467.522	0.595	595.3	incongruent	Block3	incongruent/STIM_008.jpg	100
2471.766	0.893	893.3	incongruent	Block3	incongruent/STIM_008.jpg	100
2474.799	0.602	602.0	incongruent	Block3	incongruent/STIM_008.jpg	99
2479.194	0.819	818.9	incongruent	Block3	incongruent/STIM_009.jpg	100
2482.23	1.038	1037.6	incongruent	Block3	incongruent/STIM_009.jpg	99
2486.305	0.725	724.8	incongruent	Block3	incongruent/STIM_009.jpg	100
2489.121	0.92	920.1	incongruent	Block3	incongruent/STIM_009.jpg	99
2492.538	0.84	839.6	incongruent	Block3	incongruent/STIM_009.jpg	100
2495.682	0.561	561.0	incongruent	Block3	incongruent/STIM_010.jpg	100
2498.715	0.805	805.4	incongruent	Block3	incongruent/STIM_010.jpg	100
2502.31	0.682	682.5	incongruent	Block3	incongruent/STIM_010.jpg	99
2505.764	0.888	887.6	incongruent	Block3	incongruent/STIM_010.jpg	99
2509.41	1.086	1085.5	incongruent	Block3	incongruent/STIM_010.jpg	100
2514.295	0.822	822.0	incongruent	Block3	incongruent/STIM_011.jpg	100
2518.655	1.065	1064.7	incongruent	Block3	incongruent/STIM_011.jpg	99
2522.183	0.547	546.8	incongruent	Block3	incongruent/STIM_011.jpg	100
2525.584	0.762	761.5	incongruent	Block3	incongruent/STIM_011.jpg	99
2529.071	0.933	932.9	incongruent	Block3	incongruent/STIM_011.jpg	99
2533.706	0.642	641.7	incongruent	Block3	incongruent/STIM_012.jpg	100
2537.191	1.046	1045.7	incongruent	Block3	incongruent/STIM_012.jpg	100
2540.312	0.718	718.3	incongruent	Block3	incongruent/STIM_012.jpg	100
2544.623	0.895	895.1	incongruent	Block3	incongruent/STIM_012.jpg	100
2547.846	0.539	539.3	incongruent	Block3	incongruent/STIM_012.jpg	99
2551.589	0.605	604.6	incongruent	Block3	incongruent/STIM_013.jpg	99
2554.3	0.739	738.9	incongruent	Block3	incongruent/STIM_013.jpg	100
2558.711	0.546	545.8	incongruent	Block3	incongruent/STIM_013.jpg	100
2562.105	0.672	671.6	incongruent	Block3	incongruent/STIM_013.jpg	100
2566.282	0.969	969.3	incongruent	Block3	incongruent/STIM_013.jpg	99
2571.249	0.975	974.8	incongruent	Block3	incongruent/STIM_014.jpg	100
2574.299	1.029	1029.1	incongruent	Block3	incongruent/STIM_014.jpg	100
2577.792	0.71	709.9	incongruent	Block3	incongruent/STIM_014.jpg	100
2581.529	0.954	954.5	incongruent	Block3	incongruent/STIM_014.jpg	99
2585.31	0.825	825.2	incongruent	Block3	incongruent/STIM_014.jpg	100
2588.508	0.714	713.5	incongruent	Block3	incongruent/STIM_015.jpg	99
2591.47	0.622	621.8	incongruent	Block3	incongruent/STIM_015.jpg	100
2595.034	0.554	554.2	incongruent	Block3	incongruent/STIM_015.jpg	100
2599.333	1.063	1063.1	incongruent	Block3	incongruent/STIM_015.jpg	99
2603.219	0.845	844.6	incongruent	Block3	incongruent/STIM_015.jpg	100
2606.317	0.734	733.5	incongruent	Block3	incongruent/STIM_016.jpg	100
2610.051	0.518	517.5	incongruent	Block3	incongruent/STIM_016.jpg	99
2612.957	0.615	615.1	incongruent	Block3	incongruent/STIM_016.jpg	100
2616.156	0.683	682.6	incongruent	Block3	incongruent/STIM_016.jpg	99
2620.509	0.895	894.7	incongruent	Block3	incongruent/STIM_016.jpg	100
2623.606	0.752	752.1	incongruent	Block3	incongruent/STIM_017.jpg	100
2627.878	0.95	949.7	incongruent	Block3	incongruent/STIM_017.jpg	99
2630.838	0.544	543.7	incongruent	Block3	incongruent/STIM_017.jpg	99
2634.364	0.945	945.1	incongruent	Block3	incongruent/STIM_017.jpg	100
2638.376	0.75	750.5	incongruent	Block3	incongruent/STIM_017.jpg	99
2642.798	0.531	530.9	incongruent	Block3	incongruent/STIM_018.jpg	100
2646.521	0.907	906.7	incongruent	Block3	incongruent/STIM_018.jpg	100
2651.002	0.783	782.7	incongruent	Block3	incongruent/STIM_018.jpg	99
2655.585	1.036	1036.4	incongruent	Block3	incongruent/STIM_018.jpg	99
2658.702	1.037	1036.7	incongruent	Block3	incongruent/STIM_018.jpg	99
2663.377	0.78	780.5	incongruent	Block3	incongruent/STIM_019.jpg	100
2667.62	1.073	1072.9	incongruent	Block3	incongruent/STIM_019.jpg	99
2671.208	0.598	598.4	incongruent	Block3	incongruent/STIM_019.jpg	99
2674.708	0.532	532.3	incongruent	Block3	incongruent/STIM_019.jpg	99
2677.874	0.615	614.7	incongruent	Block3	incongruent/STIM_019.jpg	99
2680.622	0.763	763.1	incongruent	Block3	incongruent/STIM_020.jpg	99
2684.788	1.0	1000.2	incongruent	Block3	incongruent/STIM_020.jpg	99
2688.46	1.075	1074.9	incongruent	Block3	incongruent/STIM_020.jpg	100
2693.43	0.633	633.0	incongruent	Block3	incongruent/STIM_020.jpg	100
2697.706	0.964	964.1	incongruent	Block3	incongruent/STIM_020.jpg	99
2702.489	1.066	1066.5	incongruent	Block3	incongruent/STIM_021.jpg	100
2707.313	0.723	722.9	incongruent	Block3	incongruent/STIM_021.jpg	100
2710.934	0.823	822.8	incongruent	Block3	incongruent/STIM_021.jpg	99
2715.067	0.964	963.8	incongruent	Block3	incongruent/STIM_021.jpg	99
2718.625	0.747	747.0	incongruent	Block3	incongruent/STIM_021.jpg	100
2722.102	0.518	518.2	incongruent	Block3	incongruent/STIM_022.jpg	99
2726.224	0.904	903.9	incongruent	Block3	incongruent/STIM_022.jpg	99
2730.868	0.994	994.2	incongruent	Block3	incongruent/STIM_022.jpg	99
2734.287	0.717	717.3	incongruent	Block3	incongruent/STIM_022.jpg	99
2737.111	0.939	939.1	incongruent	Block3	incongruent/STIM_022.jpg	99
2740.367	1.04	1040.1	incongruent	Block3	incongruent/STIM_023.jpg	99
2744.891	1.003	1003.0	incongruent	Block3	incongruent/STIM_023.jpg	99
2748.782	0.591	590.6	incongruent	Block3	incongruent/STIM_023.jpg	100
2752.561	0.905	904.7	incongruent	Block3	incongruent/STIM_023.jpg	100
2755.486	0.983	982.6	incongruent	Block3	incongruent/STIM_023.jpg	100
2759.46	0.87	869.9	incongruent	Block3	incongruent/STIM_024.jpg	99
2762.339	1.002	1002.3	incongruent	Block3	incongruent/STIM_024.jpg	99
2765.767	0.786	785.9	incongruent	Block3	incongruent/STIM_024.jpg	99
2770.154	0.756	756.0	incongruent	Block3	incongruent/STIM_024.jpg	99
2774.432	0.666	666.5	incongruent	Block3	incongruent/STIM_024.jpg	100
2778.832	0.759	759.2	incongruent	Block3	incongruent/STIM_025.jpg	99
2782.504	0.609	608.7	incongruent	Block3	incongruent/STIM_025.jpg	99
2787.051	0.739	739.0	incongruent	Block3	incongruent/STIM_025.jpg	99
2790.471	0.566	566.1	incongruent	Block3	incongruent/STIM_025.jpg	99
2793.303	0.775	775.3	incongruent	Block3	incongruent/STIM_025.jpg	99
2796.208	1.062	1062.3	incongruent	Block3	incongruent/STIM_026.jpg	99
2799.556	0.806	805.9	incongruent	Block3	incongruent/STIM_026.jpg	99
2803.893	0.92	919.5	incongruent	Block3	incongruent/STIM_026.jpg	100
2808.054	1.075	1075.2	incongruent	Block3	incongruent/STIM_026.jpg	100
2811.468	0.616	615.9	incongruent	Block3	incongruent/STIM_026.jpg	99
2815.984	0.547	547.2	incongruent	Block3	incongruent/STIM_027.jpg	99
2819.782	1.063	1062.6	incongruent	Block3	incongruent/STIM_027.jpg	99
2824.709	0.656	655.7	incongruent	Block3	incongruent/STIM_027.jpg	99
2827.509	0.644	643.6	incongruent	Block3	incongruent/STIM_027.jpg	99
2830.407	0.846	845.6	incongruent	Block3	incongruent/STIM_027.jpg	100
2833.875	0.669	668.9	incongruent	Block3	incongruent/STIM_028.jpg	99
2836.928	0.966	965.6	incongruent	Block3	incongruent/STIM_028.jpg	99
2841.776	0.787	787.2	incongruent	Block3	incongruent/STIM_028.jpg	99
2845.597	0.949	948.8	incongruent	Block3	incongruent/STIM_028.jpg	99
2849.661	0.632	631.6	incongruent	Block3	incongruent/STIM_028.jpg	99
2853.981	1.017	1016.6	incongruent	Block3	incongruent/STIM_029.jpg	100
2858.392	0.915	915.1	incongruent	Block3	incongruent/STIM_029.jpg	100
2863.247	0.842	842.0	incongruent	Block3	incongruent/STIM_029.jpg	99
2866.855	1.051	1050.6	incongruent	Block3	incongruent/STIM_029.jpg	100
2870.302	0.984	984.2	incongruent	Block3	incongruent/STIM_029.jpg	100
2873.739	0.815	814.8	congruent	Block3	congruent/STIM_000.jpg	100
2878.401	0.622	621.8	congruent	Block3	congruent/STIM_000.jpg	99
2882.169	0.575	574.9	congruent	Block3	congruent/STIM_000.jpg	100
2886.65	0.638	638.1	congruent	Block3	congruent/STIM_000.jpg	100
2889.503	0.794	793.7	congruent	Block3	congruent/STIM_000.jpg	99
2893.809	0.529	529.0	congruent	Block3	congruent/STIM_001.jpg	100
2897.411	0.861	860.7	congruent	Block3	congruent/STIM_001.jpg	100
2901.521	0.913	912.8	congruent	Block3	congruent/STIM_001.jpg	100
2905.314	0.915	915.2	congruent	Block3	congruent/STIM_001.jpg	100
2908.833	0.815	814.9	congruent	Block3	congruent/STIM_001.jpg	99
2912.371	0.752	752.3	congruent	Block3	congruent/STIM_002.jpg	99
2916.583	0.801	801.1	congruent	Block3	congruent/STIM_002.jpg	100
2920.429	0.921	920.9	congruent	Block3	congruent/STIM_002.jpg	100
2924.621	0.914	914.1	congruent	Block3	congruent/STIM_002.jpg	99
2927.908	0.817	817.1	congruent	Block3	congruent/STIM_002.jpg	100
2932.19	0.734	734.3	congruent	Block3	congruent/STIM_003.jpg	100
2935.198	0.648	647.9	congruent	Block3	congruent/STIM_003.jpg	99
2938.158	0.682	682.3	congruent	Block3	congruent/STIM_003.jpg	99
2942.731	0.89	890.1	congruent	Block3	congruent/STIM_003.jpg	99
2947.233	0.781	781.4	congruent	Block3	congruent/STIM_003.jpg	100
2951.704	0.601	601.1	congruent	Block3	congruent/STIM_004.jpg	99
2956.171	0.828	827.8	congruent	Block3	congruent/STIM_004.jpg	100
2960.062	0.569	568.8	congruent	Block3	congruent/STIM_004.jpg	100
2963.531	0.612	612.0	congruent	Block3	congruent/STIM_004.jpg	99
2967.874	0.619	618.8	congruent	Block3	congruent/STIM_004.jpg	99
2971.875	0.887	887.4	congruent	Block3	congruent/STIM_005.jpg	100
2974.775	0.579	579.3	congruent	Block3	congruent/STIM_005.jpg	100
2978.698	0.634	634.5	congruent	Block3	congruent/STIM_005.jpg	99
2982.288	0.545	544.9	congruent	Block3	congruent/STIM_005.jpg	99
2985.757	0.893	892.9	congruent	Block3	congruent/STIM_005.jpg	99
2990.308	0.875	874.8	congruent	Block3	congruent/STIM_006.jpg	100
2994.628	0.749	748.9	congruent	Block3	congruent/STIM_006.jpg	99
2998.337	0.862	862.2	congruent	Block3	congruent/STIM_006.jpg	99
3001.484	0.584	583.5	congruent	Block3	congruent/STIM_006.jpg	100
3004.602	0.696	696.2	congruent	Block3	congruent/STIM_006.jpg	99
3009.285	0.591	591.1	congruent	Block3	congruent/STIM_007.jpg	100
3012.636	0.89	890.3	congruent	Block3	congruent/STIM_007.jpg	100
3016.135	0.747	746.8	congruent	Block3	congruent/STIM_007.jpg	99
3019.348	0.644	643.7	congruent	Block3	congruent/STIM_007.jpg	99
3022.415	0.56	560.5	congruent	Block3	congruent/STIM_007.jpg	99
3026.411	0.568	568.3	congruent	Block3	congruent/STIM_008.jpg	99
3029.283	0.705	705.0	congruent	Block3	congruent/STIM_008.jpg	99
3033.757	0.753	752.8	congruent	Block3	congruent/STIM_008.jpg	99
3036.662	0.538	538.3	congruent	Block3	congruent/STIM_008.jpg	100
3040.563	0.893	893.3	congruent	Block3	congruent/STIM_008.jpg	99
3043.859	0.555	555.4	congruent	Block3	congruent/STIM_009.jpg	100
3047.253	0.592	592.2	congruent	Block3	congruent/STIM_009.jpg	100
3051.418	0.913	912.7	congruent	Block3	congruent/STIM_009.jpg	100
3055.733	0.556	556.0	congruent	Block3	congruent/STIM_009.jpg	99
3058.984	0.619	619.1	congruent	Block3	congruent/STIM_009.jpg	99
3062.223	0.744	744.2	congruent	Block3	congruent/STIM_010.jpg	99
3065.741	0.527	527.4	congruent	Block3	congruent/STIM_010.jpg	100
3068.522	0.598	597.6	congruent	Block3	congruent/STIM_010.jpg	100
3071.178	0.76	759.5	congruent	Block3	congruent/STIM_010.jpg	99
3075.29	0.818	818.2	congruent	Block3	congruent/STIM_010.jpg	99
3078.503	0.768	767.5	congruent	Block3	congruent/STIM_011.jpg	99
3083.019	0.656	656.3	congruent	Block3	congruent/STIM_011.jpg	99
3087.609	0.73	729.6	congruent	Block3	congruent/STIM_011.jpg	100
3090.487	0.883	883.1	congruent	Block3	congruent/STIM_011.jpg	99
3094.347	0.595	595.4	congruent	Block3	congruent/STIM_011.jpg	100
3098.924	0.795	795.2	congruent	Block3	congruent/STIM_012.jpg	100
3101.88	0.88	880.0	congruent	Block3	congruent/STIM_012.jpg	100
3105.184	0.703	702.9	congruent	Block3	congruent/STIM_012.jpg	99
3108.491	0.85	849.7	congruent	Block3	congruent/STIM_012.jpg	99
3112.534	0.696	696.4	congruent	Block3	congruent/STIM_012.jpg	100
3116.587	0.59	589.5	congruent	Block3	congruent/STIM_013.jpg	100
3120.466	0.75	749.5	congruent	Block3	congruent/STIM_013.jpg	100
3123.442	0.549	548.9	congruent	Block3	congruent/STIM_013.jpg	99
3127.954	0.793	792.7	congruent	Block3	congruent/STIM_013.jpg	99
3132.015	0.88	880.4	congruent	Block3	congruent/STIM_013.jpg	100
3135.908	0.554	553.5	congruent	Block3	congruent/STIM_014.jpg	100
3139.586	0.658	658.4	congruent	Block3	congruent/STIM_014.jpg	100
3143.541	0.754	753.7	congruent	Block3	congruent/STIM_014.jpg	99
3148.031	0.836	836.0	congruent	Block3	congruent/STIM_014.jpg	100
3152.625	0.764	763.7	congruent	Block3	congruent/STIM_014.jpg	99
3156.595	0.898	897.9	congruent	Block3	congruent/STIM_015.jpg	100
3160.425	0.768	768.1	congruent	Block3	congruent/STIM_015.jpg	100
3165.104	0.829	828.6	congruent	Block3	congruent/STIM_015.jpg	99
3168.967	0.763	763.4	congruent	Block3	congruent/STIM_015.jpg	100
3173.287	0.626	626.3	congruent	Block3	congruent/STIM_015.jpg	100
3176.264	0.782	781.8	congruent	Block3	congruent/STIM_016.jpg	99
3180.773	0.58	579.9	congruent	Block3	congruent/STIM_016.jpg	99
3183.98	0.678	678.0	congruent	Block3	congruent/STIM_016.jpg	100
3187.488	0.795	795.2	congruent	Block3	congruent/STIM_016.jpg	100
3191.035	0.776	776.4	congruent	Block3	congruent/STIM_016.jpg	100
3194.248	0.7	699.8	congruent	Block3	congruent/STIM_017.jpg	99
3198.211	0.599	598.9	congruent	Block3	congruent/STIM_017.jpg	99
3201.712	0.724	723.5	congruent	Block3	congruent/STIM_017.jpg	99
3204.847	0.621	621.1	congruent	Block3	congruent/STIM_017.jpg	99
3208.097	0.801	800.8	congruent	Block3	congruent/STIM_017.jpg	100
3212.079	0.596	596.0	congruent	Block3	congruent/STIM_018.jpg	99
3215.913	0.85	850.0	congruent	Block3	congruent/STIM_018.jpg	99
3219.876	0.658	658.5	congruent	Block3	congruent/STIM_018.jpg	99
3223.309	0.616	616.2	congruent	Block3	congruent/STIM_018.jpg	99
3227.61	0.599	599.1	congruent	Block3	congruent/STIM_018.jpg	99
3231.84	0.695	695.3	congruent	Block3	congruent/STIM_019.jpg	99
3234.543	0.593	592.6	congruent	Block3	congruent/STIM_019.jpg	100
3238.602	0.925	924.8	congruent	Block3	congruent/STIM_019.jpg	99
3242.379	0.678	678.2	congruent	Block3	congruent/STIM_019.jpg	99
3246.861	0.888	888.5	congruent	Block3	congruent/STIM_019.jpg	100
3250.656	0.572	571.6	congruent	Block3	congruent/STIM_020.jpg	100
3254.15	0.523	522.7	congruent	Block3	congruent/STIM_020.jpg	99
3256.944	0.885	885.4	congruent	Block3	congruent/STIM_020.jpg	100
3260.156	0.718	717.5	congruent	Block3	congruent/STIM_020.jpg	100
3263.055	0.907	906.8	congruent	Block3	congruent/STIM_020.jpg	99
3266.037	0.883	883.3	congruent	Block3	congruent/STIM_021.jpg	100
3269.425	0.693	693.3	congruent	Block3	congruent/STIM_021.jpg	100
3273.473	0.589	588.6	congruent	Block3	congruent/STIM_021.jpg	99
3277.059	0.933	932.6	congruent	Block3	congruent/STIM_021.jpg	99
3280.487	0.832	832.3	congruent	Block3	congruent/STIM_021.jpg	100
3285.035	0.788	788.3	congruent	Block3	congruent/STIM_022.jpg	99
3288.337	0.931	930.7	congruent	Block3	congruent/STIM_022.jpg	99
3291.57	0.786	786.2	congruent	Block3	congruent/STIM_022.jpg	100
3296.242	0.671	671.0	congruent	Block3	congruent/STIM_022.jpg	99
3300.052	0.918	918.5	congruent	Block3	congruent/STIM_022.jpg	100
3303.447	0.7	699.9	congruent	Block3	congruent/STIM_023.jpg	100
3307.71	0.769	768.8	congruent	Block3	congruent/STIM_023.jpg	100
3311.272	0.696	696.3	congruent	Block3	congruent/STIM_023.jpg	100
3315.785	0.668	667.7	congruent	Block3	congruent/STIM_023.jpg	99
3319.25	0.915	915.0	congruent	Block3	congruent/STIM_023.jpg	99
3322.948	0.67	669.8	congruent	Block3	congruent/STIM_024.jpg	99
3326.531	0.824	823.8	congruent	Block3	congruent/STIM_024.jpg	100
3330.614	0.572	571.5	congruent	Block3	congruent/STIM_024.jpg	100
3333.511	0.649	649.4	congruent	Block3	congruent/STIM_024.jpg	100
3336.372	0.732	731.9	congruent	Block3	congruent/STIM_024.jpg	99
3340.634	0.841	841.4	congruent	Block3	congruent/STIM_025.jpg	100
3344.885	0.588	587.5	congruent	Block3	congruent/STIM_025.jpg	99
3347.972	0.8	799.8	congruent	Block3	congruent/STIM_025.jpg	99
3352.033	0.534	533.8	congruent	Block3	congruent/STIM_025.jpg	99
3354.795	0.613	613.1	congruent	Block3	congruent/STIM_025.jpg	100
3357.452	0.693	693.4	congruent	Block3	congruent/STIM_026.jpg	100
3360.944	0.832	831.5	congruent	Block3	congruent/STIM_026.jpg	100
3365.769	0.638	637.8	congruent	Block3	congruent/STIM_026.jpg	100
3369.413	0.906	906.0	congruent	Block3	congruent/STIM_026.jpg	100
3373.868	0.868	867.6	congruent	Block3	congruent/STIM_026.jpg	99
3377.413	0.535	534.6	congruent	Block3	congruent/STIM_027.jpg	100
3380.801	0.69	689.7	congruent	Block3	congruent/STIM_027.jpg	99
3383.677	0.637	636.9	congruent	Block3	congruent/STIM_027.jpg	99
3387.434	0.558	558.0	congruent	Block3	congruent/STIM_027.jpg	99
3390.872	0.674	673.5	congruent	Block3	congruent/STIM_027.jpg	100
3393.741	0.678	678.1	congruent	Block3	congruent/STIM_028.jpg	100
3397.843	0.67	669.7	congruent	Block3	congruent/STIM_028.jpg	99
3400.807	0.824	823.7	congruent	Block3	congruent/STIM_028.jpg	99
3404.735	0.614	613.8	congruent	Block3	congruent/STIM_028.jpg	100
3408.64	0.766	766.4	congruent	Block3	congruent/STIM_028.jpg	99
3411.908	0.644	644.1	congruent	Block3	congruent/STIM_029.jpg	100
3416.536	0.924	924.0	congruent	Block3	congruent/STIM_029.jpg	99
3420.711	0.886	886.0	congruent	Block3	congruent/STIM_029.jpg	99
3425.14	0.703	703.2	congruent	Block3	congruent/STIM_029.jpg	99
3428.691	0.806	806.3	congruent	Block3	congruent/STIM_029.jpg	99
