onset	duration	accuracy_binary	trial_type	learning_stage	stimulus
0.0	1.129	1	incongruent	Block1	incongruent/STIM_000.jpg
4.719	1.306	0	incongruent	Block1	incongruent/STIM_000.jpg
8.85	1.261	1	incongruent	Block1	incongruent/STIM_000.jpg
12.352	0.647	1	incongruent	Block1	incongruent/STIM_000.jpg
16.385	0.605	1	incongruent	Block1	incongruent/STIM_000.jpg
20.268	0.833	1	incongruent	Block1	incongruent/STIM_001.jpg
23.7	1.213	1	incongruent	Block1	incongruent/STIM_001.jpg
27.461	1.006	1	incongruent	Block1	incongruent/STIM_001.jpg
30.625	1.015	1	incongruent	Block1	incongruent/STIM_001.jpg
34.56	0.671	1	incongruent	Block1	incongruent/STIM_001.jpg
38.248	1.09	1	incongruent	Block1	incongruent/STIM_002.jpg
43.311	0.976	1	incongruent	Block1	incongruent/STIM_002.jpg
47.889	0.796	1	incongruent	Block1	incongruent/STIM_002.jpg
52.252	0.702	1	incongruent	Block1	incongruent/STIM_002.jpg
55.096	1.11	1	incongruent	Block1	incongruent/STIM_002.jpg
59.38	1.223	1	incongruent	Block1	incongruent/STIM_003.jpg
63.456	0.956	1	incongruent	Block1	incongruent/STIM_003.jpg
67.871	1.104	1	incongruent	Block1	incongruent/STIM_003.jpg
71.645	1.292	1	incongruent	Block1	incongruent/STIM_003.jpg
75.342	0.66	1	incongruent	Block1	incongruent/STIM_003.jpg
78.194	0.857	1	incongruent	Block1	incongruent/STIM_004.jpg
82.769	1.147	1	incongruent	Block1	incongruent/STIM_004.jpg
87.727	0.997	1	incongruent	Block1	incongruent/STIM_004.jpg
92.079	1.006	1	incongruent	Block1	incongruent/STIM_004.jpg
96.83	0.93	1	incongruent	Block1	incongruent/STIM_004.jpg
100.768	1.53	1	incongruent	Block1	incongruent/STIM_005.jpg
106.02	1.036	1	incongruent	Block1	incongruent/STIM_005.jpg
110.064	0.782	1	incongruent	Block1	incongruent/STIM_005.jpg
114.347	0.712	0	incongruent	Block1	incongruent/STIM_005.jpg
118.984	1.078	1	incongruent	Block1	incongruent/STIM_005.jpg
123.176	1.096	1	incongruent	Block1	incongruent/STIM_006.jpg
127.882	0.819	1	incongruent	Block1	incongruent/STIM_006.jpg
131.7	1.154	1	incongruent	Block1	incongruent/STIM_006.jpg
136.443	0.831	1	incongruent	Block1	incongruent/STIM_006.jpg
140.361	1.107	1	incongruent	Block1	incongruent/STIM_006.jpg
144.607	1.198	0	incongruent	Block1	incongruent/STIM_007.jpg
149.762	0.888	1	incongruent	Block1	incongruent/STIM_007.jpg
152.665	1.272	1	incongruent	Block1	incongruent/STIM_007.jpg
157.348	1.118	1	incongruent	Block1	incongruent/STIM_007.jpg
160.487	0.645	1	incongruent	Block1	incongruent/STIM_007.jpg
164.594	1.174	1	incongruent	Block1	incongruent/STIM_008.jpg
168.118	1.072	1	incongruent	Block1	incongruent/STIM_008.jpg
173.113	1.325	1	incongruent	Block1	incongruent/STIM_008.jpg
177.327	1.142	1	incongruent	Block1	incongruent/STIM_008.jpg
182.296	0.898	1	incongruent	Block1	incongruent/STIM_008.jpg
186.577	1.484	1	incongruent	Block1	incongruent/STIM_009.jpg
190.061	0.892	1	incongruent	Block1	incongruent/STIM_009.jpg
194.338	1.363	1	incongruent	Block1	incongruent/STIM_009.jpg
199.523	0.924	0	incongruent	Block1	incongruent/STIM_009.jpg
204.241	1.104	1	incongruent	Block1	incongruent/STIM_009.jpg
208.184	1.451	1	incongruent	Block1	incongruent/STIM_010.jpg
212.922	0.905	1	incongruent	Block1	incongruent/STIM_010.jpg
216.451	0.987	1	incongruent	Block1	incongruent/STIM_010.jpg
221.319	1.238	1	incongruent	Block1	incongruent/STIM_010.jpg
226.087	1.236	1	incongruent	Block1	incongruent/STIM_010.jpg
230.263	1.549	1	incongruent	Block1	incongruent/STIM_011.jpg
234.347	0.882	1	incongruent	Block1	incongruent/STIM_011.jpg
238.484	0.882	0	incongruent	Block1	incongruent/STIM_011.jpg
242.069	0.808	1	incongruent	Block1	incongruent/STIM_011.jpg
245.746	0.757	1	incongruent	Block1	incongruent/STIM_011.jpg
249.891	1.44	0	incongruent	Block1	incongruent/STIM_012.jpg
254.509	0.75	1	incongruent	Block1	incongruent/STIM_012.jpg
257.274	1.129	1	incongruent	Block1	incongruent/STIM_012.jpg
261.262	1.3	0	incongruent	Block1	incongruent/STIM_012.jpg
265.233	0.991	1	incongruent	Block1	incongruent/STIM_012.jpg
269.054	0.75	0	incongruent	Block1	incongruent/STIM_013.jpg
272.498	1.225	1	incongruent	Block1	incongruent/STIM_013.jpg
276.867	1.331	1	incongruent	Block1	incongruent/STIM_013.jpg
282.06	0.764	1	incongruent	Block1	incongruent/STIM_013.jpg
284.975	0.957	1	incongruent	Block1	incongruent/STIM_013.jpg
289.338	1.401	1	incongruent	Block1	incongruent/STIM_014.jpg
294.563	1.231	1	incongruent	Block1	incongruent/STIM_014.jpg
299.701	0.716	1	incongruent	Block1	incongruent/STIM_014.jpg
303.212	1.249	1	incongruent	Block1	incongruent/STIM_014.jpg
307.721	0.784	1	incongruent	Block1	incongruent/STIM_014.jpg
312.382	1.147	1	incongruent	Block1	incongruent/STIM_015.jpg
315.752	1.458	1	incongruent	Block1	incongruent/STIM_015.jpg
319.921	1.288	1	incongruent	Block1	incongruent/STIM_015.jpg
324.517	0.76	1	incongruent	Block1	incongruent/STIM_015.jpg
328.621	0.638	1	incongruent	Block1	incongruent/STIM_015.jpg
331.622	1.178	1	incongruent	Block1	incongruent/STIM_016.jpg
336.202	1.066	1	incongruent	Block1	incongruent/STIM_016.jpg
340.257	1.328	1	incongruent	Block1	incongruent/STIM_016.jpg
344.083	0.761	1	incongruent	Block1	incongruent/STIM_016.jpg
347.791	1.201	1	incongruent	Block1	incongruent/STIM_016.jpg
352.077	1.181	1	incongruent	Block1	incongruent/STIM_017.jpg
356.026	1.311	1	incongruent	Block1	incongruent/STIM_017.jpg
359.667	1.396	1	incongruent	Block1	incongruent/STIM_017.jpg
363.378	1.149	1	incongruent	Block1	incongruent/STIM_017.jpg
367.212	0.855	1	incongruent	Block1	incongruent/STIM_017.jpg
370.572	1.206	1	incongruent	Block1	incongruent/STIM_018.jpg
375.621	0.778	1	incongruent	Block1	incongruent/STIM_018.jpg
379.471	1.123	1	incongruent	Block1	incongruent/STIM_018.jpg
384.505	0.958	1	incongruent	Block1	incongruent/STIM_018.jpg
388.125	1.187	1	incongruent	Block1	incongruent/STIM_018.jpg
392.075	0.744	1	incongruent	Block1	incongruent/STIM_019.jpg
395.561	0.9	1	incongruent	Block1	incongruent/STIM_019.jpg
399.482	1.209	1	incongruent	Block1	incongruent/STIM_019.jpg
403.334	0.999	0	incongruent	Block1	incongruent/STIM_019.jpg
407.734	1.161	1	incongruent	Block1	incongruent/STIM_019.jpg
411.8	1.002	1	incongruent	Block1	incongruent/STIM_020.jpg
415.072	0.927	1	incongruent	Block1	incongruent/STIM_020.jpg
418.073	0.905	1	incongruent	Block1	incongruent/STIM_020.jpg
421.731	0.873	1	incongruent	Block1	incongruent/STIM_020.jpg
425.64	0.955	1	incongruent	Block1	incongruent/STIM_020.jpg
430.193	0.825	1	incongruent	Block1	incongruent/STIM_021.jpg
434.653	0.714	1	incongruent	Block1	incongruent/STIM_021.jpg
439.116	0.817	1	incongruent	Block1	incongruent/STIM_021.jpg
442.969	1.318	1	incongruent	Block1	incongruent/STIM_021.jpg
447.462	0.784	1	incongruent	Block1	incongruent/STIM_021.jpg
450.601	1.44	1	incongruent	Block1	incongruent/STIM_022.jpg
454.084	1.137	0	incongruent	Block1	incongruent/STIM_022.jpg
458.054	1.384	1	incongruent	Block1	incongruent/STIM_022.jpg
462.724	0.83	1	incongruent	Block1	incongruent/STIM_022.jpg
467.304	1.148	0	incongruent	Block1	incongruent/STIM_022.jpg
471.679	0.826	1	incongruent	Block1	incongruent/STIM_023.jpg
476.3	0.915	1	incongruent	Block1	incongruent/STIM_023.jpg
480.589	0.887	1	incongruent	Block1	incongruent/STIM_023.jpg
485.242	0.954	1	incongruent	Block1	incongruent/STIM_023.jpg
489.089	0.613	1	incongruent	Block1	incongruent/STIM_023.jpg
493.008	1.421	1	incongruent	Block1	incongruent/STIM_024.jpg
497.785	1.192	1	incongruent	Block1	incongruent/STIM_024.jpg
502.294	0.947	1	incongruent	Block1	incongruent/STIM_024.jpg
506.734	1.127	0	incongruent	Block1	incongruent/STIM_024.jpg
509.919	1.24	1	incongruent	Block1	incongruent/STIM_024.jpg
514.55	1.29	1	incongruent	Block1	incongruent/STIM_025.jpg
518.701	1.418	1	incongruent	Block1	incongruent/STIM_025.jpg
523.774	0.708	1	incongruent	Block1	incongruent/STIM_025.jpg
528.413	0.893	1	incongruent	Block1	incongruent/STIM_025.jpg
531.566	1.24	0	incongruent	Block1	incongruent/STIM_025.jpg
536.729	0.746	1	incongruent	Block1	incongruent/STIM_026.jpg
540.998	0.862	0	incongruent	Block1	incongruent/STIM_026.jpg
544.244	0.799	1	incongruent	Block1	incongruent/STIM_026.jpg
548.247	0.635	1	incongruent	Block1	incongruent/STIM_026.jpg
552.371	0.935	1	incongruent	Block1	incongruent/STIM_026.jpg
555.557	0.759	1	incongruent	Block1	incongruent/STIM_027.jpg
559.155	0.915	1	incongruent	Block1	incongruent/STIM_027.jpg
562.643	0.834	1	incongruent	Block1	incongruent/STIM_027.jpg
566.545	1.163	1	incongruent	Block1	incongruent/STIM_027.jpg
569.964	1.018	1	incongruent	Block1	incongruent/STIM_027.jpg
574.648	1.44	1	incongruent	Block1	incongruent/STIM_028.jpg
578.349	0.857	1	incongruent	Block1	incongruent/STIM_028.jpg
581.518	0.656	1	incongruent	Block1	incongruent/STIM_028.jpg
585.749	0.669	1	incongruent	Block1	incongruent/STIM_028.jpg
588.521	1.151	1	incongruent	Block1	incongruent/STIM_028.jpg
593.38	1.206	1	incongruent	Block1	incongruent/STIM_029.jpg
598.529	1.4	1	incongruent	Block1	incongruent/STIM_029.jpg
603.378	0.861	1	incongruent	Block1	incongruent/STIM_029.jpg
607.819	0.632	1	incongruent	Block1	incongruent/STIM_029.jpg
612.189	1.218	1	incongruent	Block1	incongruent/STIM_029.jpg
617.177	0.657	1	congruent	Block1	congruent/STIM_000.jpg
620.598	0.778	1	congruent	Block1	congruent/STIM_000.jpg
623.471	0.689	1	congruent	Block1	congruent/STIM_000.jpg
627.454	0.546	1	congruent	Block1	congruent/STIM_000.jpg
631.454	0.679	1	congruent	Block1	congruent/STIM_000.jpg
635.145	0.801	1	congruent	Block1	congruent/STIM_001.jpg
639.768	0.854	1	congruent	Block1	congruent/STIM_001.jpg
644.557	0.623	1	congruent	Block1	congruent/STIM_001.jpg
647.975	0.598	1	congruent	Block1	congruent/STIM_001.jpg
652.187	0.619	1	congruent	Block1	congruent/STIM_001.jpg
654.832	0.607	1	congruent	Block1	congruent/STIM_002.jpg
657.689	0.653	1	congruent	Block1	congruent/STIM_002.jpg
662.137	0.612	1	congruent	Block1	congruent/STIM_002.jpg
665.909	0.8	1	congruent	Block1	congruent/STIM_002.jpg
669.457	0.746	1	congruent	Block1	congruent/STIM_002.jpg
673.595	0.824	1	congruent	Block1	congruent/STIM_003.jpg
677.505	0.576	1	congruent	Block1	congruent/STIM_003.jpg
682.014	0.808	1	congruent	Block1	congruent/STIM_003.jpg
685.951	0.85	1	congruent	Block1	congruent/STIM_003.jpg
690.474	0.822	1	congruent	Block1	congruent/STIM_003.jpg
694.006	0.767	1	congruent	Block1	congruent/STIM_004.jpg
696.999	0.588	1	congruent	Block1	congruent/STIM_004.jpg
700.685	0.739	1	congruent	Block1	congruent/STIM_004.jpg
705.379	0.653	1	congruent	Block1	congruent/STIM_004.jpg
708.745	0.542	1	congruent	Block1	congruent/STIM_004.jpg
712.911	0.778	1	congruent	Block1	congruent/STIM_005.jpg
717.491	0.54	1	congruent	Block1	congruent/STIM_005.jpg
721.369	0.686	1	congruent	Block1	congruent/STIM_005.jpg
724.52	0.77	1	congruent	Block1	congruent/STIM_005.jpg
728.712	0.834	1	congruent	Block1	congruent/STIM_005.jpg
732.537	0.666	1	congruent	Block1	congruent/STIM_006.jpg
736.582	0.898	1	congruent	Block1	congruent/STIM_006.jpg
741.105	0.821	1	congruent	Block1	congruent/STIM_006.jpg
744.248	0.692	1	congruent	Block1	congruent/STIM_006.jpg
747.236	0.536	1	congruent	Block1	congruent/STIM_006.jpg
751.445	0.926	1	congruent	Block1	congruent/STIM_007.jpg
755.935	0.878	1	congruent	Block1	congruent/STIM_007.jpg
760.423	0.862	1	congruent	Block1	congruent/STIM_007.jpg
763.818	0.8	0	congruent	Block1	congruent/STIM_007.jpg
767.449	0.602	1	congruent	Block1	congruent/STIM_007.jpg
770.368	0.7	1	congruent	Block1	congruent/STIM_008.jpg
773.467	0.702	1	congruent	Block1	congruent/STIM_008.jpg
776.908	0.656	1	congruent	Block1	congruent/STIM_008.jpg
781.208	0.73	1	congruent	Block1	congruent/STIM_008.jpg
784.037	0.628	1	congruent	Block1	congruent/STIM_008.jpg
787.053	0.847	1	congruent	Block1	congruent/STIM_009.jpg
791.226	0.872	1	congruent	Block1	congruent/STIM_009.jpg
794.849	0.542	1	congruent	Block1	congruent/STIM_009.jpg
797.949	0.676	1	congruent	Block1	congruent/STIM_009.jpg
802.132	0.809	1	congruent	Block1	congruent/STIM_009.jpg
806.326	0.79	1	congruent	Block1	congruent/STIM_010.jpg
809.626	0.569	1	congruent	Block1	congruent/STIM_010.jpg
812.241	0.717	1	congruent	Block1	congruent/STIM_010.jpg
815.783	0.759	1	congruent	Block1	congruent/STIM_010.jpg
819.784	0.778	1	congruent	Block1	congruent/STIM_010.jpg
823.053	0.597	1	congruent	Block1	congruent/STIM_011.jpg
826.254	0.665	1	congruent	Block1	congruent/STIM_011.jpg
829.232	0.828	1	congruent	Block1	congruent/STIM_011.jpg
833.293	0.546	1	congruent	Block1	congruent/STIM_011.jpg
835.844	0.895	1	congruent	Block1	congruent/STIM_011.jpg
840.553	0.765	1	congruent	Block1	congruent/STIM_012.jpg
845.053	0.603	1	congruent	Block1	congruent/STIM_012.jpg
848.243	0.681	1	congruent	Block1	congruent/STIM_012.jpg
852.669	0.757	1	congruent	Block1	congruent/STIM_012.jpg
855.433	0.599	1	congruent	Block1	congruent/STIM_012.jpg
858.186	0.535	1	congruent	Block1	congruent/STIM_013.jpg
862.42	0.736	1	congruent	Block1	congruent/STIM_013.jpg
866.423	0.667	1	congruent	Block1	congruent/STIM_013.jpg
870.527	0.858	1	congruent	Block1	congruent/STIM_013.jpg
873.832	0.691	1	congruent	Block1	congruent/STIM_013.jpg
877.217	0.934	1	congruent	Block1	congruent/STIM_014.jpg
880.969	0.571	1	congruent	Block1	congruent/STIM_014.jpg
884.903	0.525	1	congruent	Block1	congruent/STIM_014.jpg
889.181	0.554	0	congruent	Block1	congruent/STIM_014.jpg
893.333	0.898	1	congruent	Block1	congruent/STIM_014.jpg
897.291	0.918	1	congruent	Block1	congruent/STIM_015.jpg
900.254	0.69	1	congruent	Block1	congruent/STIM_015.jpg
902.981	0.874	1	congruent	Block1	congruent/STIM_015.jpg
906.191	0.847	1	congruent	Block1	congruent/STIM_015.jpg
910.328	0.74	1	congruent	Block1	congruent/STIM_015.jpg
914.288	0.799	1	congruent	Block1	congruent/STIM_016.jpg
918.634	0.552	1	congruent	Block1	congruent/STIM_016.jpg
922.059	0.76	1	congruent	Block1	congruent/STIM_016.jpg
925.832	0.881	1	congruent	Block1	congruent/STIM_016.jpg
929.659	0.792	1	congruent	Block1	congruent/STIM_016.jpg
934.302	0.679	1	congruent	Block1	congruent/STIM_017.jpg
937.71	0.583	1	congruent	Block1	congruent/STIM_017.jpg
941.13	0.549	1	congruent	Block1	congruent/STIM_017.jpg
943.752	0.542	1	congruent	Block1	congruent/STIM_017.jpg
947.355	0.878	1	congruent	Block1	congruent/STIM_017.jpg
950.981	0.577	1	congruent	Block1	congruent/STIM_018.jpg
955.192	0.733	1	congruent	Block1	congruent/STIM_018.jpg
959.201	0.534	1	congruent	Block1	congruent/STIM_018.jpg
963.456	0.796	1	congruent	Block1	congruent/STIM_018.jpg
966.301	0.878	1	congruent	Block1	congruent/STIM_018.jpg
969.875	0.856	1	congruent	Block1	congruent/STIM_019.jpg
973.973	0.931	1	congruent	Block1	congruent/STIM_019.jpg
977.683	0.617	1	congruent	Block1	congruent/STIM_019.jpg
980.484	0.81	1	congruent	Block1	congruent/STIM_019.jpg
983.394	0.592	1	congruent	Block1	congruent/STIM_019.jpg
986.952	0.626	1	congruent	Block1	congruent/STIM_020.jpg
990.951	0.865	1	congruent	Block1	congruent/STIM_020.jpg
994.053	0.544	1	congruent	Block1	congruent/STIM_020.jpg
997.014	0.856	1	congruent	Block1	congruent/STIM_020.jpg
999.896	0.609	1	congruent	Block1	congruent/STIM_020.jpg
1003.821	0.858	1	congruent	Block1	congruent/STIM_021.jpg
1006.718	0.935	1	congruent	Block1	congruent/STIM_021.jpg
1011.624	0.851	1	congruent	Block1	congruent/STIM_021.jpg
1015.282	0.608	1	congruent	Block1	congruent/STIM_021.jpg
1019.432	0.589	1	congruent	Block1	congruent/STIM_021.jpg
1022.694	0.928	1	congruent	Block1	congruent/STIM_022.jpg
1026.005	0.928	1	congruent	Block1	congruent/STIM_022.jpg
1030.501	0.723	1	congruent	Block1	congruent/STIM_022.jpg
1034.327	0.697	1	congruent	Block1	congruent/STIM_022.jpg
1038.037	0.767	1	congruent	Block1	congruent/STIM_022.jpg
1042.506	0.568	1	congruent	Block1	congruent/STIM_023.jpg
1046.537	0.851	1	congruent	Block1	congruent/STIM_023.jpg
1050.708	0.765	0	congruent	Block1	congruent/STIM_023.jpg
1054.043	0.627	1	congruent	Block1	congruent/STIM_023.jpg
1057.101	0.608	1	congruent	Block1	congruent/STIM_023.jpg
1060.524	0.64	1	congruent	Block1	congruent/STIM_024.jpg
1064.328	0.816	1	congruent	Block1	congruent/STIM_024.jpg
1068.426	0.652	1	congruent	Block1	congruent/STIM_024.jpg
1071.906	0.77	1	congruent	Block1	congruent/STIM_024.jpg
1075.903	0.52	0	congruent	Block1	congruent/STIM_024.jpg
1079.211	0.674	1	congruent	Block1	congruent/STIM_025.jpg
1082.976	0.628	1	congruent	Block1	congruent/STIM_025.jpg
1086.307	0.772	1	congruent	Block1	congruent/STIM_025.jpg
1089.348	0.763	0	congruent	Block1	congruent/STIM_025.jpg
1092.35	0.559	1	congruent	Block1	congruent/STIM_025.jpg
1096.763	0.56	1	congruent	Block1	congruent/STIM_026.jpg
1100.648	0.563	1	congruent	Block1	congruent/STIM_026.jpg
1105.017	0.668	1	congruent	Block1	congruent/STIM_026.jpg
1109.518	0.54	1	congruent	Block1	congruent/STIM_026.jpg
1113.901	0.746	1	congruent	Block1	congruent/STIM_026.jpg
1116.755	0.681	1	congruent	Block1	congruent/STIM_027.jpg
1120.816	0.682	1	congruent	Block1	congruent/STIM_027.jpg
1124.997	0.745	1	congruent	Block1	congruent/STIM_027.jpg
1128.392	0.689	1	congruent	Block1	congruent/STIM_027.jpg
1132.182	0.651	1	congruent	Block1	congruent/STIM_027.jpg
1136.574	0.609	1	congruent	Block1	congruent/STIM_028.jpg
1140.147	0.861	1	congruent	Block1	congruent/STIM_028.jpg
1144.505	0.892	1	congruent	Block1	congruent/STIM_028.jpg
1149.384	0.806	1	congruent	Block1	congruent/STIM_028.jpg
1153.233	0.781	1	congruent	Block1	congruent/STIM_028.jpg
1156.917	0.886	1	congruent	Block1	congruent/STIM_029.jpg
1161.345	0.851	1	congruent	Block1	congruent/STIM_029.jpg
1165.961	0.554	1	congruent	Block1	congruent/STIM_029.jpg
1170.102	0.663	1	congruent	Block1	congruent/STIM_029.jpg
1174.658	0.637	1	congruent	Block1	congruent/STIM_029.jpg
1178.127	1.232	1	incongruent	Block2	incongruent/STIM_000.jpg
1183.155	0.971	1	incongruent	Block2	incongruent/STIM_000.jpg
1187.909	0.838	1	incongruent	Block2	incongruent/STIM_000.jpg
1190.906	0.771	1	incongruent	Block2	incongruent/STIM_000.jpg
1195.327	0.526	1	incongruent	Block2	incongruent/STIM_000.jpg
1199.666	1.062	1	incongruent	Block2	incongruent/STIM_001.jpg
1202.895	0.92	1	incongruent	Block2	incongruent/STIM_001.jpg
1206.958	1.05	1	incongruent	Block2	incongruent/STIM_001.jpg
1210.302	0.857	1	incongruent	Block2	incongruent/STIM_001.jpg
1214.415	0.594	1	incongruent	Block2	incongruent/STIM_001.jpg
1217.714	1.153	1	incongruent	Block2	incongruent/STIM_002.jpg
1221.721	0.627	1	incongruent	Block2	incongruent/STIM_002.jpg
1225.799	1.146	1	incongruent	Block2	incongruent/STIM_002.jpg
1230.365	0.999	1	incongruent	Block2	incongruent/STIM_002.jpg
1233.445	0.869	1	incongruent	Block2	incongruent/STIM_002.jpg
1236.751	1.106	1	incongruent	Block2	incongruent/STIM_003.jpg
1240.727	0.659	1	incongruent	Block2	incongruent/STIM_003.jpg
1244.272	0.868	1	incongruent	Block2	incongruent/STIM_003.jpg
1248.201	0.755	1	incongruent	Block2	incongruent/STIM_003.jpg
1252.382	0.838	1	incongruent	Block2	incongruent/STIM_003.jpg
1255.78	0.98	1	incongruent	Block2	incongruent/STIM_004.jpg
1260.162	0.582	1	incongruent	Block2	incongruent/STIM_004.jpg
1262.932	0.959	1	incongruent	Block2	incongruent/STIM_004.jpg
1266.625	0.581	1	incongruent	Block2	incongruent/STIM_004.jpg
1270.24	0.85	1	incongruent	Block2	incongruent/STIM_004.jpg
1274.865	1.14	1	incongruent	Block2	incongruent/STIM_005.jpg
1278.392	0.656	1	incongruent	Block2	incongruent/STIM_005.jpg
1281.492	0.586	1	incongruent	Block2	incongruent/STIM_005.jpg
1285.098	0.999	1	incongruent	Block2	incongruent/STIM_005.jpg
1288.421	0.551	1	incongruent	Block2	incongruent/STIM_005.jpg
1292.017	0.709	1	incongruent	Block2	incongruent/STIM_006.jpg
1295.106	1.232	0	incongruent	Block2	incongruent/STIM_006.jpg
1299.887	0.636	1	incongruent	Block2	incongruent/STIM_006.jpg
1303.575	0.795	1	incongruent	Block2	incongruent/STIM_006.jpg
1307.51	1.06	1	incongruent	Block2	incongruent/STIM_006.jpg
1310.704	0.936	1	incongruent	Block2	incongruent/STIM_007.jpg
1315.33	0.93	1	incongruent	Block2	incongruent/STIM_007.jpg
1318.758	0.742	1	incongruent	Block2	incongruent/STIM_007.jpg
1322.15	0.823	1	incongruent	Block2	incongruent/STIM_007.jpg
1326.962	0.951	1	incongruent	Block2	incongruent/STIM_007.jpg
1329.928	0.886	1	incongruent	Block2	incongruent/STIM_008.jpg
1333.193	0.595	1	incongruent	Block2	incongruent/STIM_008.jpg
1336.303	0.711	1	incongruent	Block2	incongruent/STIM_008.jpg
1339.138	0.979	1	incongruent	Block2	incongruent/STIM_008.jpg
1342.55	0.669	1	incongruent	Block2	incongruent/STIM_008.jpg
1345.221	1.247	1	incongruent	Block2	incongruent/STIM_009.jpg
1348.916	0.871	1	incongruent	Block2	incongruent/STIM_009.jpg
1352.736	0.734	1	incongruent	Block2	incongruent/STIM_009.jpg
1356.845	0.758	1	incongruent	Block2	incongruent/STIM_009.jpg
1360.5	1.025	1	incongruent	Block2	incongruent/STIM_009.jpg
1365.443	1.048	1	incongruent	Block2	incongruent/STIM_010.jpg
1370.471	0.691	1	incongruent	Block2	incongruent/STIM_010.jpg
1373.282	1.143	1	incongruent	Block2	incongruent/STIM_010.jpg
1377.796	1.075	1	incongruent	Block2	incongruent/STIM_010.jpg
1382.15	0.673	1	incongruent	Block2	incongruent/STIM_010.jpg
1385.078	1.016	1	incongruent	Block2	incongruent/STIM_011.jpg
1388.674	0.746	1	incongruent	Block2	incongruent/STIM_011.jpg
1392.213	0.844	1	incongruent	Block2	incongruent/STIM_011.jpg
1395.256	0.867	1	incongruent	Block2	incongruent/STIM_011.jpg
1398.981	0.796	1	incongruent	Block2	incongruent/STIM_011.jpg
1403.347	1.264	1	incongruent	Block2	incongruent/STIM_012.jpg
1407.218	0.821	1	incongruent	Block2	incongruent/STIM_012.jpg
1410.885	0.894	1	incongruent	Block2	incongruent/STIM_012.jpg
1414.384	0.786	1	incongruent	Block2	incongruent/STIM_012.jpg
1417.47	0.511	1	incongruent	Block2	incongruent/STIM_012.jpg
1421.738	1.202	1	incongruent	Block2	incongruent/STIM_013.jpg
1426.302	1.016	1	incongruent	Block2	incongruent/STIM_013.jpg
1430.194	0.651	1	incongruent	Block2	incongruent/STIM_013.jpg
1434.366	0.855	1	incongruent	Block2	incongruent/STIM_013.jpg
1438.339	0.705	1	incongruent	Block2	incongruent/STIM_013.jpg
1443.029	0.78	1	incongruent	Block2	incongruent/STIM_014.jpg
1446.266	0.788	1	incongruent	Block2	incongruent/STIM_014.jpg
1450.026	0.634	1	incongruent	Block2	incongruent/STIM_014.jpg
1453.348	0.878	1	incongruent	Block2	incongruent/STIM_014.jpg
1457.912	0.92	1	incongruent	Block2	incongruent/STIM_014.jpg
1461.56	0.737	1	incongruent	Block2	incongruent/STIM_015.jpg
1465.302	0.9	1	incongruent	Block2	incongruent/STIM_015.jpg
1469.784	0.75	1	incongruent	Block2	incongruent/STIM_015.jpg
1473.451	0.953	1	incongruent	Block2	incongruent/STIM_015.jpg
1478.165	0.752	1	incongruent	Block2	incongruent/STIM_015.jpg
1481.016	0.71	1	incongruent	Block2	incongruent/STIM_016.jpg
1484.486	0.848	1	incongruent	Block2	incongruent/STIM_016.jpg
1488.754	1.164	1	incongruent	Block2	incongruent/STIM_016.jpg
1493.059	0.98	1	incongruent	Block2	incongruent/STIM_016.jpg
1497.94	0.95	1	incongruent	Block2	incongruent/STIM_016.jpg
1502.187	0.86	1	incongruent	Block2	incongruent/STIM_017.jpg
1505.921	1.048	1	incongruent	Block2	incongruent/STIM_017.jpg
1509.1	0.593	1	incongruent	Block2	incongruent/STIM_017.jpg
1512.417	0.863	1	incongruent	Block2	incongruent/STIM_017.jpg
1516.468	0.556	1	incongruent	Block2	incongruent/STIM_017.jpg
1519.587	0.921	1	incongruent	Block2	incongruent/STIM_018.jpg
1524.236	0.829	1	incongruent	Block2	incongruent/STIM_018.jpg
1528.129	1.023	1	incongruent	Block2	incongruent/STIM_018.jpg
1532.015	1.02	1	incongruent	Block2	incongruent/STIM_018.jpg
1535.15	0.83	1	incongruent	Block2	incongruent/STIM_018.jpg
1538.989	0.684	1	incongruent	Block2	incongruent/STIM_019.jpg
1542.283	0.816	0	incongruent	Block2	incongruent/STIM_019.jpg
1545.624	0.883	1	incongruent	Block2	incongruent/STIM_019.jpg
1550.054	1.009	1	incongruent	Block2	incongruent/STIM_019.jpg
1554.846	0.641	1	incongruent	Block2	incongruent/STIM_019.jpg
1558.787	0.979	1	incongruent	Block2	incongruent/STIM_020.jpg
1562.505	0.821	1	incongruent	Block2	incongruent/STIM_020.jpg
1566.799	1.146	1	incongruent	Block2	incongruent/STIM_020.jpg
1571.457	0.779	1	incongruent	Block2	incongruent/STIM_020.jpg
1574.674	0.901	1	incongruent	Block2	incongruent/STIM_020.jpg
1578.794	0.76	1	incongruent	Block2	incongruent/STIM_021.jpg
1582.94	0.937	1	incongruent	Block2	incongruent/STIM_021.jpg
1587.863	1.156	1	incongruent	Block2	incongruent/STIM_021.jpg
1591.802	1.032	1	incongruent	Block2	incongruent/STIM_021.jpg
1596.217	1.06	1	incongruent	Block2	incongruent/STIM_021.jpg
1599.583	0.803	1	incongruent	Block2	incongruent/STIM_022.jpg
1604.237	1.147	1	incongruent	Block2	incongruent/STIM_022.jpg
1608.899	0.915	1	incongruent	Block2	incongruent/STIM_022.jpg
1612.977	0.856	1	incongruent	Block2	incongruent/STIM_022.jpg
1617.469	0.909	1	incongruent	Block2	incongruent/STIM_022.jpg
1622.339	1.18	1	incongruent	Block2	incongruent/STIM_023.jpg
1626.062	1.053	1	incongruent	Block2	incongruent/STIM_023.jpg
1629.233	1.113	1	incongruent	Block2	incongruent/STIM_023.jpg
1633.828	0.635	1	incongruent	Block2	incongruent/STIM_023.jpg
1637.946	1.053	1	incongruent	Block2	incongruent/STIM_023.jpg
1641.814	0.97	1	incongruent	Block2	incongruent/STIM_024.jpg
1644.961	0.642	1	incongruent	Block2	incongruent/STIM_024.jpg
1647.807	0.616	1	incongruent	Block2	incongruent/STIM_024.jpg
1652.325	1.019	1	incongruent	Block2	incongruent/STIM_024.jpg
1656.109	0.79	1	incongruent	Block2	incongruent/STIM_024.jpg
1659.956	0.939	1	incongruent	Block2	incongruent/STIM_025.jpg
1663.024	1.034	1	incongruent	Block2	incongruent/STIM_025.jpg
1667.993	0.629	1	incongruent	Block2	incongruent/STIM_025.jpg
1671.755	0.954	1	incongruent	Block2	incongruent/STIM_025.jpg
1676.083	0.734	1	incongruent	Block2	incongruent/STIM_025.jpg
1679.558	0.714	1	incongruent	Block2	incongruent/STIM_026.jpg
1682.529	0.954	1	incongruent	Block2	incongruent/STIM_026.jpg
1685.847	0.762	1	incongruent	Block2	incongruent/STIM_026.jpg
1689.882	0.701	1	incongruent	Block2	incongruent/STIM_026.jpg
1693.839	0.96	1	incongruent	Block2	incongruent/STIM_026.jpg
1697.824	0.67	1	incongruent	Block2	incongruent/STIM_027.jpg
1701.179	0.592	1	incongruent	Block2	incongruent/STIM_027.jpg
1704.776	0.902	1	incongruent	Block2	incongruent/STIM_027.jpg
1707.847	0.991	1	incongruent	Block2	incongruent/STIM_027.jpg
1711.408	0.786	1	incongruent	Block2	incongruent/STIM_027.jpg
1714.338	0.636	1	incongruent	Block2	incongruent/STIM_028.jpg
1718.748	0.997	1	incongruent	Block2	incongruent/STIM_028.jpg
1722.307	0.803	0	incongruent	Block2	incongruent/STIM_028.jpg
1726.022	0.86	1	incongruent	Block2	incongruent/STIM_028.jpg
1729.815	0.599	1	incongruent	Block2	incongruent/STIM_028.jpg
1732.9	1.193	1	incongruent	Block2	incongruent/STIM_029.jpg
1736.413	0.941	1	incongruent	Block2	incongruent/STIM_029.jpg
1740.712	0.593	1	incongruent	Block2	incongruent/STIM_029.jpg
1744.612	0.568	1	incongruent	Block2	incongruent/STIM_029.jpg
1747.523	0.55	1	incongruent	Block2	incongruent/STIM_029.jpg
1750.253	0.698	1	congruent	Block2	congruent/STIM_000.jpg
1754.375	0.832	1	congruent	Block2	congruent/STIM_000.jpg
1758.098	0.741	1	congruent	Block2	congruent/STIM_000.jpg
1762.048	0.877	1	congruent	Block2	congruent/STIM_000.jpg
1766.259	0.722	1	congruent	Block2	congruent/STIM_000.jpg
1769.626	0.862	1	congruent	Block2	congruent/STIM_001.jpg
1773.008	0.53	1	congruent	Block2	congruent/STIM_001.jpg
1776.859	0.68	1	congruent	Block2	congruent/STIM_001.jpg
1781.066	0.829	1	congruent	Block2	congruent/STIM_001.jpg
1784.603	0.873	1	congruent	Block2	congruent/STIM_001.jpg
1788.899	0.668	1	congruent	Block2	congruent/STIM_002.jpg
1792.534	0.914	1	congruent	Block2	congruent/STIM_002.jpg
1797.0	0.806	1	congruent	Block2	congruent/STIM_002.jpg
1800.57	0.683	1	congruent	Block2	congruent/STIM_002.jpg
1804.408	0.756	1	congruent	Block2	congruent/STIM_002.jpg
1808.119	0.841	1	congruent	Block2	congruent/STIM_003.jpg
1812.795	0.919	1	congruent	Block2	congruent/STIM_003.jpg
1815.737	0.844	1	congruent	Block2	congruent/STIM_003.jpg
1820.43	0.724	1	congruent	Block2	congruent/STIM_003.jpg
1824.407	0.831	1	congruent	Block2	congruent/STIM_003.jpg
1828.574	0.832	1	congruent	Block2	congruent/STIM_004.jpg
1831.988	0.53	1	congruent	Block2	congruent/STIM_004.jpg
1835.36	0.85	1	congruent	Block2	congruent/STIM_004.jpg
1838.354	0.694	1	congruent	Block2	congruent/STIM_004.jpg
1842.589	0.65	1	congruent	Block2	congruent/STIM_004.jpg
1846.87	0.802	1	congruent	Block2	congruent/STIM_005.jpg
1851.198	0.523	1	congruent	Block2	congruent/STIM_005.jpg
1855.55	0.547	1	congruent	Block2	congruent/STIM_005.jpg
1858.708	0.608	1	congruent	Block2	congruent/STIM_005.jpg
1862.166	0.601	1	congruent	Block2	congruent/STIM_005.jpg
1865.512	0.921	1	congruent	Block2	congruent/STIM_006.jpg
1868.84	0.862	1	congruent	Block2	congruent/STIM_006.jpg
1873.178	0.754	1	congruent	Block2	congruent/STIM_006.jpg
1877.635	0.753	1	congruent	Block2	congruent/STIM_006.jpg
1881.134	0.814	1	congruent	Block2	congruent/STIM_006.jpg
1885.296	0.675	1	congruent	Block2	congruent/STIM_007.jpg
1888.143	0.728	1	congruent	Block2	congruent/STIM_007.jpg
1892.523	0.675	1	congruent	Block2	congruent/STIM_007.jpg
1895.901	0.838	1	congruent	Block2	congruent/STIM_007.jpg
1900.405	0.86	1	congruent	Block2	congruent/STIM_007.jpg
1905.114	0.88	1	congruent	Block2	congruent/STIM_008.jpg
1909.883	0.728	1	congruent	Block2	congruent/STIM_008.jpg
1914.181	0.866	1	congruent	Block2	congruent/STIM_008.jpg
1917.088	0.566	1	congruent	Block2	congruent/STIM_008.jpg
1921.279	0.767	1	congruent	Block2	congruent/STIM_008.jpg
1924.856	0.57	1	congruent	Block2	congruent/STIM_009.jpg
1927.527	0.644	1	congruent	Block2	congruent/STIM_009.jpg
1931.092	0.69	1	congruent	Block2	congruent/STIM_009.jpg
1934.003	0.911	1	congruent	Block2	congruent/STIM_009.jpg
1937.916	0.787	1	congruent	Block2	congruent/STIM_009.jpg
1942.221	0.797	1	congruent	Block2	congruent/STIM_010.jpg
1946.478	0.813	1	congruent	Block2	congruent/STIM_010.jpg
1950.998	0.702	1	congruent	Block2	congruent/STIM_010.jpg
1953.857	0.755	1	congruent	Block2	congruent/STIM_010.jpg
1957.006	0.556	1	congruent	Block2	congruent/STIM_010.jpg
1960.753	0.695	1	congruent	Block2	congruent/STIM_011.jpg
1964.046	0.893	1	congruent	Block2	congruent/STIM_011.jpg
1966.969	0.712	1	congruent	Block2	congruent/STIM_011.jpg
1969.96	0.586	1	congruent	Block2	congruent/STIM_011.jpg
1973.331	0.55	1	congruent	Block2	congruent/STIM_011.jpg
1976.342	0.591	1	congruent	Block2	congruent/STIM_012.jpg
1979.077	0.524	1	congruent	Block2	congruent/STIM_012.jpg
1982.426	0.89	1	congruent	Block2	congruent/STIM_012.jpg
1985.633	0.634	1	congruent	Block2	congruent/STIM_012.jpg
1989.442	0.721	1	congruent	Block2	congruent/STIM_012.jpg
1993.586	0.576	1	congruent	Block2	congruent/STIM_013.jpg
1996.92	0.724	1	congruent	Block2	congruent/STIM_013.jpg
2001.457	0.873	1	congruent	Block2	congruent/STIM_013.jpg
2005.426	0.673	1	congruent	Block2	congruent/STIM_013.jpg
2008.245	0.701	1	congruent	Block2	congruent/STIM_013.jpg
2011.699	0.751	1	congruent	Block2	congruent/STIM_014.jpg
2016.11	0.837	1	congruent	Block2	congruent/STIM_014.jpg
2020.457	0.9	1	congruent	Block2	congruent/STIM_014.jpg
2023.859	0.582	1	congruent	Block2	congruent/STIM_014.jpg
2027.886	0.906	1	congruent	Block2	congruent/STIM_014.jpg
2031.218	0.556	1	congruent	Block2	congruent/STIM_015.jpg
2034.449	0.611	1	congruent	Block2	congruent/STIM_015.jpg
2037.103	0.763	1	congruent	Block2	congruent/STIM_015.jpg
2040.411	0.895	1	congruent	Block2	congruent/STIM_015.jpg
2043.393	0.668	1	congruent	Block2	congruent/STIM_015.jpg
2047.84	0.72	1	congruent	Block2	congruent/STIM_016.jpg
2050.646	0.916	1	congruent	Block2	congruent/STIM_016.jpg
2055.362	0.617	1	congruent	Block2	congruent/STIM_016.jpg
2058.111	0.862	1	congruent	Block2	congruent/STIM_016.jpg
2062.496	0.825	1	congruent	Block2	congruent/STIM_016.jpg
2066.465	0.643	0	congruent	Block2	congruent/STIM_017.jpg
2069.628	0.793	1	congruent	Block2	congruent/STIM_017.jpg
2073.074	0.53	1	congruent	Block2	congruent/STIM_017.jpg
2075.724	0.899	1	congruent	Block2	congruent/STIM_017.jpg
2079.538	0.831	1	congruent	Block2	congruent/STIM_017.jpg
2083.06	0.892	1	congruent	Block2	congruent/STIM_018.jpg
2087.387	0.888	1	congruent	Block2	congruent/STIM_018.jpg
2090.869	0.758	1	congruent	Block2	congruent/STIM_018.jpg
2094.488	0.638	1	congruent	Block2	congruent/STIM_018.jpg
2097.938	0.912	1	congruent	Block2	congruent/STIM_018.jpg
2101.605	0.609	1	congruent	Block2	congruent/STIM_019.jpg
2105.551	0.862	1	congruent	Block2	congruent/STIM_019.jpg
2109.01	0.614	1	congruent	Block2	congruent/STIM_019.jpg
2111.987	0.557	1	congruent	Block2	congruent/STIM_019.jpg
2114.753	0.836	1	congruent	Block2	congruent/STIM_019.jpg
2118.952	0.815	1	congruent	Block2	congruent/STIM_020.jpg
2123.358	0.545	1	congruent	Block2	congruent/STIM_020.jpg
2126.635	0.728	1	congruent	Block2	congruent/STIM_020.jpg
2131.246	0.523	1	congruent	Block2	congruent/STIM_020.jpg
2135.606	0.738	1	congruent	Block2	congruent/STIM_020.jpg
2138.614	0.908	1	congruent	Block2	congruent/STIM_021.jpg
2142.885	0.843	1	congruent	Block2	congruent/STIM_021.jpg
2146.958	0.918	0	congruent	Block2	congruent/STIM_021.jpg
2151.287	0.872	1	congruent	Block2	congruent/STIM_021.jpg
2155.026	0.852	1	congruent	Block2	congruent/STIM_021.jpg
2158.666	0.732	1	congruent	Block2	congruent/STIM_022.jpg
2162.845	0.794	1	congruent	Block2	congruent/STIM_022.jpg
2167.343	0.678	1	congruent	Block2	congruent/STIM_022.jpg
2170.644	0.521	1	congruent	Block2	congruent/STIM_022.jpg
2174.463	0.785	1	congruent	Block2	congruent/STIM_022.jpg
2177.934	0.666	1	congruent	Block2	congruent/STIM_023.jpg
2182.494	0.888	1	congruent	Block2	congruent/STIM_023.jpg
2185.98	0.741	1	congruent	Block2	congruent/STIM_023.jpg
2190.379	0.644	1	congruent	Block2	congruent/STIM_023.jpg
2194.803	0.604	1	congruent	Block2	congruent/STIM_023.jpg
2199.342	0.566	1	congruent	Block2	congruent/STIM_024.jpg
2202.776	0.566	1	congruent	Block2	congruent/STIM_024.jpg
2205.446	0.74	1	congruent	Block2	congruent/STIM_024.jpg
2210.095	0.72	1	congruent	Block2	congruent/STIM_024.jpg
2214.219	0.644	1	congruent	Block2	congruent/STIM_024.jpg
2217.006	0.807	1	congruent	Block2	congruent/STIM_025.jpg
2220.51	0.644	1	congruent	Block2	congruent/STIM_025.jpg
2223.785	0.604	1	congruent	Block2	congruent/STIM_025.jpg
2226.488	0.731	0	congruent	Block2	congruent/STIM_025.jpg
2230.056	0.612	1	congruent	Block2	congruent/STIM_025.jpg
2232.799	0.592	1	congruent	Block2	congruent/STIM_026.jpg
2236.194	0.629	1	congruent	Block2	congruent/STIM_026.jpg
2240.384	0.655	1	congruent	Block2	congruent/STIM_026.jpg
2243.696	0.878	1	congruent	Block2	congruent/STIM_026.jpg
2246.986	0.7	1	congruent	Block2	congruent/STIM_026.jpg
2250.784	0.641	1	congruent	Block2	congruent/STIM_027.jpg
2254.362	0.667	1	congruent	Block2	congruent/STIM_027.jpg
2258.265	0.713	1	congruent	Block2	congruent/STIM_027.jpg
2261.821	0.891	1	congruent	Block2	congruent/STIM_027.jpg
2266.35	0.776	1	congruent	Block2	congruent/STIM_027.jpg
2270.95	0.601	1	congruent	Block2	congruent/STIM_028.jpg
2274.646	0.723	1	congruent	Block2	congruent/STIM_028.jpg
2277.903	0.815	1	congruent	Block2	congruent/STIM_028.jpg
2282.325	0.561	1	congruent	Block2	congruent/STIM_028.jpg
2286.122	0.787	1	congruent	Block2	congruent/STIM_028.jpg
2289.276	0.933	1	congruent	Block2	congruent/STIM_029.jpg
2293.424	0.647	1	congruent	Block2	congruent/STIM_029.jpg
2297.171	0.737	1	congruent	Block2	congruent/STIM_029.jpg
2301.051	0.875	1	congruent	Block2	congruent/STIM_029.jpg
2304.739	0.661	1	congruent	Block2	congruent/STIM_029.jpg
2308.41	1.049	1	incongruent	Block3	incongruent/STIM_000.jpg
2311.684	0.793	1	incongruent	Block3	incongruent/STIM_000.jpg
2315.485	0.64	1	incongruent	Block3	incongruent/STIM_000.jpg
2319.914	0.986	1	incongruent	Block3	incongruent/STIM_000.jpg
2323.129	1.05	1	incongruent	Block3	incongruent/STIM_000.jpg
2326.911	0.834	1	incongruent	Block3	incongruent/STIM_001.jpg
2331.171	0.839	1	incongruent	Block3	incongruent/STIM_001.jpg
2335.799	0.809	1	incongruent	Block3	incongruent/STIM_001.jpg
2339.842	0.521	1	incongruent	Block3	incongruent/STIM_001.jpg
2344.033	0.575	1	incongruent	Block3	incongruent/STIM_001.jpg
2346.615	0.81	1	incongruent	Block3	incongruent/STIM_002.jpg
2350.592	0.76	1	incongruent	Block3	incongruent/STIM_002.jpg
2354.313	0.98	1	incongruent	Block3	incongruent/STIM_002.jpg
2357.802	0.97	1	incongruent	Block3	incongruent/STIM_002.jpg
2361.981	0.979	1	incongruent	Block3	incongruent/STIM_002.jpg
2366.309	0.664	1	incongruent	Block3	incongruent/STIM_003.jpg
2370.933	0.721	1	incongruent	Block3	incongruent/STIM_003.jpg
2374.353	0.533	1	incongruent	Block3	incongruent/STIM_003.jpg
2377.829	0.632	1	incongruent	Block3	incongruent/STIM_003.jpg
2380.473	0.848	1	incongruent	Block3	incongruent/STIM_003.jpg
2384.52	0.759	1	incongruent	Block3	incongruent/STIM_004.jpg
2389.219	0.653	1	incongruent	Block3	incongruent/STIM_004.jpg
2392.298	0.593	1	incongruent	Block3	incongruent/STIM_004.jpg
2394.919	1.081	0	incongruent	Block3	incongruent/STIM_004.jpg
2398.01	0.548	1	incongruent	Block3	incongruent/STIM_004.jpg
2402.03	0.61	1	incongruent	Block3	incongruent/STIM_005.jpg
2405.943	0.921	1	incongruent	Block3	incongruent/STIM_005.jpg
2409.412	1.047	1	incongruent	Block3	incongruent/STIM_005.jpg
2413.581	0.795	1	incongruent	Block3	incongruent/STIM_005.jpg
2417.938	0.697	1	incongruent	Block3	incongruent/STIM_005.jpg
2422.029	0.89	1	incongruent	Block3	incongruent/STIM_006.jpg
2425.006	0.73	1	incongruent	Block3	incongruent/STIM_006.jpg
2429.335	0.867	1	incongruent	Block3	incongruent/STIM_006.jpg
2433.687	0.702	1	incongruent	Block3	incongruent/STIM_006.jpg
2438.146	0.862	1	incongruent	Block3	incongruent/STIM_006.jpg
2441.766	0.981	0	incongruent	Block3	incongruent/STIM_007.jpg
2446.536	0.602	1	incongruent	Block3	incongruent/STIM_007.jpg
2449.412	0.91	1	incongruent	Block3	incongruent/STIM_007.jpg
2452.403	0.76	1	incongruent	Block3	incongruent/STIM_007.jpg
2456.825	0.92	1	incongruent	Block3	incongruent/STIM_007.jpg
2460.085	0.814	1	incongruent	Block3	incongruent/STIM_008.jpg
2464.381	0.532	1	incongruent	Block3	incongruent/STIM_008.jpg
2467.522	0.595	1	incongruent	Block3	incongruent/STIM_008.jpg
2471.766	0.893	1	incongruent	Block3	incongruent/STIM_008.jpg
2474.799	0.602	1	incongruent	Block3	incongruent/STIM_008.jpg
2479.194	0.819	1	incongruent	Block3	incongruent/STIM_009.jpg
2482.23	1.038	1	incongruent	Block3	incongruent/STIM_009.jpg
2486.305	0.725	1	incongruent	Block3	incongruent/STIM_009.jpg
2489.121	0.92	1	incongruent	Block3	incongruent/STIM_009.jpg
2492.538	0.84	1	incongruent	Block3	incongruent/STIM_009.jpg
2495.682	0.561	1	incongruent	Block3	incongruent/STIM_010.jpg
2498.715	0.805	1	incongruent	Block3	incongruent/STIM_010.jpg
2502.31	0.682	1	incongruent	Block3	incongruent/STIM_010.jpg
2505.764	0.888	1	incongruent	Block3	incongruent/STIM_010.jpg
2509.41	1.086	1	incongruent	Block3	incongruent/STIM_010.jpg
2514.295	0.822	1	incongruent	Block3	incongruent/STIM_011.jpg
2518.655	1.065	1	incongruent	Block3	incongruent/STIM_011.jpg
2522.183	0.547	1	incongruent	Block3	incongruent/STIM_011.jpg
2525.584	0.762	1	incongruent	Block3	incongruent/STIM_011.jpg
2529.071	0.933	1	incongruent	Block3	incongruent/STIM_011.jpg
2533.706	0.642	1	incongruent	Block3	incongruent/STIM_012.jpg
2537.191	1.046	1	incongruent	Block3	incongruent/STIM_012.jpg
2540.312	0.718	1	incongruent	Block3	incongruent/STIM_012.jpg
2544.623	0.895	1	incongruent	Block3	incongruent/STIM_012.jpg
2547.846	0.539	1	incongruent	Block3	incongruent/STIM_012.jpg
2551.589	0.605	1	incongruent	Block3	incongruent/STIM_013.jpg
2554.3	0.739	1	incongruent	Block3	incongruent/STIM_013.jpg
2558.711	0.546	1	incongruent	Block3	incongruent/STIM_013.jpg
2562.105	0.672	1	incongruent	Block3	incongruent/STIM_013.jpg
2566.282	0.969	1	incongruent	Block3	incongruent/STIM_013.jpg
2571.249	0.975	1	incongruent	Block3	incongruent/STIM_014.jpg
2574.299	1.029	1	incongruent	Block3	incongruent/STIM_014.jpg
2577.792	0.71	1	incongruent	Block3	incongruent/STIM_014.jpg
2581.529	0.954	1	incongruent	Block3	incongruent/STIM_014.jpg
2585.31	0.825	1	incongruent	Block3	incongruent/STIM_014.jpg
2588.508	0.714	1	incongruent	Block3	incongruent/STIM_015.jpg
2591.47	0.622	1	incongruent	Block3	incongruent/STIM_015.jpg
2595.034	0.554	1	incongruent	Block3	incongruent/STIM_015.jpg
2599.333	1.063	0	incongruent	Block3	incongruent/STIM_015.jpg
2603.219	0.845	1	incongruent	Block3	incongruent/STIM_015.jpg
2606.317	0.734	1	incongruent	Block3	incongruent/STIM_016.jpg
2610.051	0.518	1	incongruent	Block3	incongruent/STIM_016.jpg
2612.957	0.615	1	incongruent	Block3	incongruent/STIM_016.jpg
2616.156	0.683	1	incongruent	Block3	incongruent/STIM_016.jpg
2620.509	0.895	1	incongruent	Block3	incongruent/STIM_016.jpg
2623.606	0.752	1	incongruent	Block3	incongruent/STIM_017.jpg
2627.878	0.95	1	incongruent	Block3	incongruent/STIM_017.jpg
2630.838	0.544	1	incongruent	Block3	incongruent/STIM_017.jpg
2634.364	0.945	1	incongruent	Block3	incongruent/STIM_017.jpg
2638.376	0.75	1	incongruent	Block3	incongruent/STIM_017.jpg
2642.798	0.531	1	incongruent	Block3	incongruent/STIM_018.jpg
2646.521	0.907	1	incongruent	Block3	incongruent/STIM_018.jpg
2651.002	0.783	1	incongruent	Block3	incongruent/STIM_018.jpg
2655.585	1.036	1	incongruent	Block3	incongruent/STIM_018.jpg
2658.702	1.037	1	incongruent	Block3	incongruent/STIM_018.jpg
2663.377	0.78	1	incongruent	Block3	incongruent/STIM_019.jpg
2667.62	1.073	1	incongruent	Block3	incongruent/STIM_019.jpg
2671.208	0.598	1	incongruent	Block3	incongruent/STIM_019.jpg
2674.708	0.532	1	incongruent	Block3	incongruent/STIM_019.jpg
2677.874	0.615	1	incongruent	Block3	incongruent/STIM_019.jpg
2680.622	0.763	1	incongruent	Block3	incongruent/STIM_020.jpg
2684.788	1.0	1	incongruent	Block3	incongruent/STIM_020.jpg
2688.46	1.075	1	incongruent	Block3	incongruent/STIM_020.jpg
2693.43	0.633	1	incongruent	Block3	incongruent/STIM_020.jpg
2697.706	0.964	1	incongruent	Block3	incongruent/STIM_020.jpg
2702.489	1.066	1	incongruent	Block3	incongruent/STIM_021.jpg
2707.313	0.723	1	incongruent	Block3	incongruent/STIM_021.jpg
2710.934	0.823	1	incongruent	Block3	incongruent/STIM_021.jpg
2715.067	0.964	1	incongruent	Block3	incongruent/STIM_021.jpg
2718.625	0.747	1	incongruent	Block3	incongruent/STIM_021.jpg
2722.102	0.518	1	incongruent	Block3	incongruent/STIM_022.jpg
2726.224	0.904	1	incongruent	Block3	incongruent/STIM_022.jpg
2730.868	0.994	1	incongruent	Block3	incongruent/STIM_022.jpg
2734.287	0.717	1	incongruent	Block3	incongruent/STIM_022.jpg
2737.111	0.939	1	incongruent	Block3	incongruent/STIM_022.jpg
2740.367	1.04	1	incongruent	Block3	incongruent/STIM_023.jpg
2744.891	1.003	1	incongruent	Block3	incongruent/STIM_023.jpg
2748.782	0.591	1	incongruent	Block3	incongruent/STIM_023.jpg
2752.561	0.905	1	incongruent	Block3	incongruent/STIM_023.jpg
2755.486	0.983	1	incongruent	Block3	incongruent/STIM_023.jpg
2759.46	0.87	1	incongruent	Block3	incongruent/STIM_024.jpg
2762.339	1.002	1	incongruent	Block3	incongruent/STIM_024.jpg
2765.767	0.786	1	incongruent	Block3	incongruent/STIM_024.jpg
2770.154	0.756	1	incongruent	Block3	incongruent/STIM_024.jpg
2774.432	0.666	0	incongruent	Block3	incongruent/STIM_024.jpg
2778.832	0.759	1	incongruent	Block3	incongruent/STIM_025.jpg
2782.504	0.609	1	incongruent	Block3	incongruent/STIM_025.jpg
2787.051	0.739	1	incongruent	Block3	incongruent/STIM_025.jpg
2790.471	0.566	1	incongruent	Block3	incongruent/STIM_025.jpg
2793.303	0.775	1	incongruent	Block3	incongruent/STIM_025.jpg
2796.208	1.062	1	incongruent	Block3	incongruent/STIM_026.jpg
2799.556	0.806	1	incongruent	Block3	incongruent/STIM_026.jpg
2803.893	0.92	1	incongruent	Block3	incongruent/STIM_026.jpg
2808.054	1.075	1	incongruent	Block3	incongruent/STIM_026.jpg
2811.468	0.616	1	incongruent	Block3	incongruent/STIM_026.jpg
2815.984	0.547	1	incongruent	Block3	incongruent/STIM_027.jpg
2819.782	1.063	1	incongruent	Block3	incongruent/STIM_027.jpg
2824.709	0.656	1	incongruent	Block3	incongruent/STIM_027.jpg
2827.509	0.644	1	incongruent	Block3	incongruent/STIM_027.jpg
2830.407	0.846	1	incongruent	Block3	incongruent/STIM_027.jpg
2833.875	0.669	1	incongruent	Block3	incongruent/STIM_028.jpg
2836.928	0.966	1	incongruent	Block3	incongruent/STIM_028.jpg
2841.776	0.787	1	incongruent	Block3	incongruent/STIM_028.jpg
2845.597	0.949	1	incongruent	Block3	incongruent/STIM_028.jpg
2849.661	0.632	1	incongruent	Block3	incongruent/STIM_028.jpg
2853.981	1.017	1	incongruent	Block3	incongruent/STIM_029.jpg
2858.392	0.915	1	incongruent	Block3	incongruent/STIM_029.jpg
2863.247	0.842	1	incongruent	Block3	incongruent/STIM_029.jpg
2866.855	1.051	1	incongruent	Block3	incongruent/STIM_029.jpg
2870.302	0.984	1	incongruent	Block3	incongruent/STIM_029.jpg
2873.739	0.815	1	congruent	Block3	congruent/STIM_000.jpg
2878.401	0.622	1	congruent	Block3	congruent/STIM_000.jpg
2882.169	0.575	1	congruent	Block3	congruent/STIM_000.jpg
2886.65	0.638	1	congruent	Block3	congruent/STIM_000.jpg
2889.503	0.794	1	congruent	Block3	congruent/STIM_000.jpg
2893.809	0.529	1	congruent	Block3	congruent/STIM_001.jpg
2897.411	0.861	1	congruent	Block3	congruent/STIM_001.jpg
2901.521	0.913	1	congruent	Block3	congruent/STIM_001.jpg
2905.314	0.915	1	congruent	Block3	congruent/STIM_001.jpg
2908.833	0.815	1	congruent	Block3	congruent/STIM_001.jpg
2912.371	0.752	1	congruent	Block3	congruent/STIM_002.jpg
2916.583	0.801	1	congruent	Block3	congruent/STIM_002.jpg
2920.429	0.921	1	congruent	Block3	congruent/STIM_002.jpg
2924.621	0.914	1	congruent	Block3	congruent/STIM_002.jpg
2927.908	0.817	1	congruent	Block3	congruent/STIM_002.jpg
2932.19	0.734	1	congruent	Block3	congruent/STIM_003.jpg
2935.198	0.648	1	congruent	Block3	congruent/STIM_003.jpg
2938.158	0.682	1	congruent	Block3	congruent/STIM_003.jpg
2942.731	0.89	1	congruent	Block3	congruent/STIM_003.jpg
2947.233	0.781	1	congruent	Block3	congruent/STIM_003.jpg
2951.704	0.601	1	congruent	Block3	congruent/STIM_004.jpg
2956.171	0.828	1	congruent	Block3	congruent/STIM_004.jpg
2960.062	0.569	1	congruent	Block3	congruent/STIM_004.jpg
2963.531	0.612	1	congruent	Block3	congruent/STIM_004.jpg
2967.874	0.619	1	congruent	Block3	congruent/STIM_004.jpg
2971.875	0.887	1	congruent	Block3	congruent/STIM_005.jpg
2974.775	0.579	1	congruent	Block3	congruent/STIM_005.jpg
2978.698	0.634	1	congruent	Block3	congruent/STIM_005.jpg
2982.288	0.545	1	congruent	Block3	congruent/STIM_005.jpg
2985.757	0.893	1	congruent	Block3	congruent/STIM_005.jpg
2990.308	0.875	1	congruent	Block3	congruent/STIM_006.jpg
2994.628	0.749	1	congruent	Block3	congruent/STIM_006.jpg
2998.337	0.862	1	congruent	Block3	congruent/STIM_006.jpg
3001.484	0.584	1	congruent	Block3	congruent/STIM_006.jpg
3004.602	0.696	1	congruent	Block3	congruent/STIM_006.jpg
3009.285	0.591	1	congruent	Block3	congruent/STIM_007.jpg
3012.636	0.89	1	congruent	Block3	congruent/STIM_007.jpg
3016.135	0.747	1	congruent	Block3	congruent/STIM_007.jpg
3019.348	0.644	1	congruent	Block3	congruent/STIM_007.jpg
3022.415	0.56	1	congruent	Block3	congruent/STIM_007.jpg
3026.411	0.568	1	congruent	Block3	congruent/STIM_008.jpg
3029.283	0.705	1	congruent	Block3	congruent/STIM_008.jpg
3033.757	0.753	1	congruent	Block3	congruent/STIM_008.jpg
3036.662	0.538	1	congruent	Block3	congruent/STIM_008.jpg
3040.563	0.893	1	congruent	Block3	congruent/STIM_008.jpg
3043.859	0.555	1	congruent	Block3	congruent/STIM_009.jpg
3047.253	0.592	1	congruent	Block3	congruent/STIM_009.jpg
3051.418	0.913	1	congruent	Block3	congruent/STIM_009.jpg
3055.733	0.556	1	congruent	Block3	congruent/STIM_009.jpg
3058.984	0.619	1	congruent	Block3	congruent/STIM_009.jpg
3062.223	0.744	1	congruent	Block3	congruent/STIM_010.jpg
3065.741	0.527	1	congruent	Block3	congruent/STIM_010.jpg
3068.522	0.598	1	congruent	Block3	congruent/STIM_010.jpg
3071.178	0.76	1	congruent	Block3	congruent/STIM_010.jpg
3075.29	0.818	1	congruent	Block3	congruent/STIM_010.jpg
3078.503	0.768	1	congruent	Block3	congruent/STIM_011.jpg
3083.019	0.656	0	congruent	Block3	congruent/STIM_011.jpg
3087.609	0.73	1	congruent	Block3	congruent/STIM_011.jpg
3090.487	0.883	1	congruent	Block3	congruent/STIM_011.jpg
3094.347	0.595	1	congruent	Block3	congruent/STIM_011.jpg
3098.924	0.795	1	congruent	Block3	congruent/STIM_012.jpg
3101.88	0.88	1	congruent	Block3	congruent/STIM_012.jpg
3105.184	0.703	1	congruent	Block3	congruent/STIM_012.jpg
3108.491	0.85	1	congruent	Block3	congruent/STIM_012.jpg
3112.534	0.696	1	congruent	Block3	congruent/STIM_012.jpg
3116.587	0.59	1	congruent	Block3	congruent/STIM_013.jpg
3120.466	0.75	1	congruent	Block3	congruent/STIM_013.jpg
3123.442	0.549	1	congruent	Block3	congruent/STIM_013.jpg
3127.954	0.793	1	congruent	Block3	congruent/STIM_013.jpg
3132.015	0.88	1	congruent	Block3	congruent/STIM_013.jpg
3135.908	0.554	1	congruent	Block3	congruent/STIM_014.jpg
3139.586	0.658	1	congruent	Block3	congruent/STIM_014.jpg
3143.541	0.754	1	congruent	Block3	congruent/STIM_014.jpg
3148.031	0.836	1	congruent	Block3	congruent/STIM_014.jpg
3152.625	0.764	1	congruent	Block3	congruent/STIM_014.jpg
3156.595	0.898	1	congruent	Block3	congruent/STIM_015.jpg
3160.425	0.768	1	congruent	Block3	congruent/STIM_015.jpg
3165.104	0.829	1	congruent	Block3	congruent/STIM_015.jpg
3168.967	0.763	1	congruent	Block3	congruent/STIM_015.jpg
3173.287	0.626	1	congruent	Block3	congruent/STIM_015.jpg
3176.264	0.782	1	congruent	Block3	congruent/STIM_016.jpg
3180.773	0.58	1	congruent	Block3	congruent/STIM_016.jpg
3183.98	0.678	1	congruent	Block3	congruent/STIM_016.jpg
3187.488	0.795	1	congruent	Block3	congruent/STIM_016.jpg
3191.035	0.776	1	congruent	Block3	congruent/STIM_016.jpg
3194.248	0.7	1	congruent	Block3	congruent/STIM_017.jpg
3198.211	0.599	1	congruent	Block3	congruent/STIM_017.jpg
3201.712	0.724	1	congruent	Block3	congruent/STIM_017.jpg
3204.847	0.621	1	congruent	Block3	congruent/STIM_017.jpg
3208.097	0.801	1	congruent	Block3	congruent/STIM_017.jpg
3212.079	0.596	1	congruent	Block3	congruent/STIM_018.jpg
3215.913	0.85	1	congruent	Block3	congruent/STIM_018.jpg
3219.876	0.658	1	congruent	Block3	congruent/STIM_018.jpg
3223.309	0.616	1	congruent	Block3	congruent/STIM_018.jpg
3227.61	0.599	1	congruent	Block3	congruent/STIM_018.jpg
3231.84	0.695	1	congruent	Block3	congruent/STIM_019.jpg
3234.543	0.593	1	congruent	Block3	congruent/STIM_019.jpg
3238.602	0.925	1	congruent	Block3	congruent/STIM_019.jpg
3242.379	0.678	1	congruent	Block3	congruent/STIM_019.jpg
3246.861	0.888	1	congruent	Block3	congruent/STIM_019.jpg
3250.656	0.572	1	congruent	Block3	congruent/STIM_020.jpg
3254.15	0.523	1	congruent	Block3	congruent/STIM_020.jpg
3256.944	0.885	1	congruent	Block3	congruent/STIM_020.jpg
3260.156	0.718	1	congruent	Block3	congruent/STIM_020.jpg
3263.055	0.907	1	congruent	Block3	congruent/STIM_020.jpg
3266.037	0.883	1	congruent	Block3	congruent/STIM_021.jpg
3269.425	0.693	1	congruent	Block3	congruent/STIM_021.jpg
3273.473	0.589	1	congruent	Block3	congruent/STIM_021.jpg
3277.059	0.933	1	congruent	Block3	congruent/STIM_021.jpg
3280.487	0.832	1	congruent	Block3	congruent/STIM_021.jpg
3285.035	0.788	1	congruent	Block3	congruent/STIM_022.jpg
3288.337	0.931	1	congruent	Block3	congruent/STIM_022.jpg
3291.57	0.786	1	congruent	Block3	congruent/STIM_022.jpg
3296.242	0.671	1	congruent	Block3	congruent/STIM_022.jpg
3300.052	0.918	1	congruent	Block3	congruent/STIM_022.jpg
3303.447	0.7	1	congruent	Block3	congruent/STIM_023.jpg
3307.71	0.769	1	congruent	Block3	congruent/STIM_023.jpg
3311.272	0.696	1	congruent	Block3	congruent/STIM_023.jpg
3315.785	0.668	1	congruent	Block3	congruent/STIM_023.jpg
3319.25	0.915	1	congruent	Block3	congruent/STIM_023.jpg
3322.948	0.67	1	congruent	Block3	congruent/STIM_024.jpg
3326.531	0.824	1	congruent	Block3	congruent/STIM_024.jpg
3330.614	0.572	1	congruent	Block3	congruent/STIM_024.jpg
3333.511	0.649	1	congruent	Block3	congruent/STIM_024.jpg
3336.372	0.732	1	congruent	Block3	congruent/STIM_024.jpg
3340.634	0.841	1	congruent	Block3	congruent/STIM_025.jpg
3344.885	0.588	1	congruent	Block3	congruent/STIM_025.jpg
3347.972	0.8	1	congruent	Block3	congruent/STIM_025.jpg
3352.033	0.534	1	congruent	Block3	congruent/STIM_025.jpg
3354.795	0.613	1	congruent	Block3	congruent/STIM_025.jpg
3357.452	0.693	1	congruent	Block3	congruent/STIM_026.jpg
3360.944	0.832	1	congruent	Block3	congruent/STIM_026.jpg
3365.769	0.638	1	congruent	Block3	congruent/STIM_026.jpg
3369.413	0.906	1	congruent	Block3	congruent/STIM_026.jpg
3373.868	0.868	1	congruent	Block3	congruent/STIM_026.jpg
3377.413	0.535	1	congruent	Block3	congruent/STIM_027.jpg
3380.801	0.69	1	congruent	Block3	congruent/STIM_027.jpg
3383.677	0.637	1	congruent	Block3	congruent/STIM_027.jpg
3387.434	0.558	1	congruent	Block3	congruent/STIM_027.jpg
3390.872	0.674	1	congruent	Block3	congruent/STIM_027.jpg
3393.741	0.678	1	congruent	Block3	congruent/STIM_028.jpg
3397.843	0.67	1	congruent	Block3	congruent/STIM_028.jpg
3400.807	0.824	1	congruent	Block3	congruent/STIM_028.jpg
3404.735	0.614	1	congruent	Block3	congruent/STIM_028.jpg
3408.64	0.766	1	congruent	Block3	congruent/STIM_028.jpg
3411.908	0.644	1	congruent	Block3	congruent/STIM_029.jpg
3416.536	0.924	1	congruent	Block3	congruent/STIM_029.jpg
3420.711	0.886	1	congruent	Block3	congruent/STIM_029.jpg
3425.14	0.703	1	congruent	Block3	congruent/STIM_029.jpg
3428.691	0.806	1	congruent	Block3	congruent/STIM_029.jpg
