onset	duration	accuracy	trial_type	learning_stage	stimulus
0.0	1.937	correct	regulate	Run1	regulate/STIM_000.jpg
4.862	2.495	correct	regulate	Run1	regulate/STIM_000.jpg
11.088	2.408	correct	regulate	Run1	regulate/STIM_000.jpg
15.849	1.656	correct	regulate	Run1	regulate/STIM_000.jpg
20.475	3.33	incorrect	regulate	Run1	regulate/STIM_001.jpg
27.532	2.307	correct	regulate	Run1	regulate/STIM_001.jpg
31.947	1.924	correct	regulate	Run1	regulate/STIM_001.jpg
37.755	2.21	correct	regulate	Run1	regulate/STIM_001.jpg
43.066	3.416	incorrect	regulate	Run1	regulate/STIM_002.jpg
49.522	2.401	correct	regulate	Run1	regulate/STIM_002.jpg
55.675	2.678	correct	regulate	Run1	regulate/STIM_002.jpg
61.421	2.354	correct	regulate	Run1	regulate/STIM_002.jpg
67.635	2.009	incorrect	regulate	Run1	regulate/STIM_003.jpg
72.108	3.272	correct	regulate	Run1	regulate/STIM_003.jpg
77.484	2.902	incorrect	regulate	Run1	regulate/STIM_003.jpg
83.056	1.816	correct	regulate	Run1	regulate/STIM_003.jpg
87.869	1.639	correct	regulate	Run1	regulate/STIM_004.jpg
93.101	1.469	correct	regulate	Run1	regulate/STIM_004.jpg
96.7	2.267	correct	regulate	Run1	regulate/STIM_004.jpg
101.783	2.326	correct	regulate	Run1	regulate/STIM_004.jpg
107.815	2.778	correct	regulate	Run1	regulate/STIM_005.jpg
113.005	1.934	correct	regulate	Run1	regulate/STIM_005.jpg
118.889	2.094	correct	regulate	Run1	regulate/STIM_005.jpg
124.882	2.864	correct	regulate	Run1	regulate/STIM_005.jpg
130.587	1.939	correct	regulate	Run1	regulate/STIM_006.jpg
135.533	1.641	correct	regulate	Run1	regulate/STIM_006.jpg
139.527	2.397	correct	regulate	Run1	regulate/STIM_006.jpg
145.308	2.062	correct	regulate	Run1	regulate/STIM_006.jpg
149.414	3.393	correct	regulate	Run1	regulate/STIM_007.jpg
155.19	3.106	correct	regulate	Run1	regulate/STIM_007.jpg
161.08	1.813	correct	regulate	Run1	regulate/STIM_007.jpg
166.597	2.283	incorrect	regulate	Run1	regulate/STIM_007.jpg
171.117	2.864	correct	regulate	Run1	regulate/STIM_008.jpg
176.99	3.106	incorrect	regulate	Run1	regulate/STIM_008.jpg
183.75	3.21	correct	regulate	Run1	regulate/STIM_008.jpg
190.391	2.591	correct	regulate	Run1	regulate/STIM_008.jpg
195.297	1.742	correct	regulate	Run1	regulate/STIM_009.jpg
199.265	2.053	incorrect	regulate	Run1	regulate/STIM_009.jpg
204.362	2.482	correct	regulate	Run1	regulate/STIM_009.jpg
209.251	2.518	incorrect	regulate	Run1	regulate/STIM_009.jpg
215.119	3.464	correct	regulate	Run1	regulate/STIM_010.jpg
220.697	2.12	correct	regulate	Run1	regulate/STIM_010.jpg
226.41	1.719	correct	regulate	Run1	regulate/STIM_010.jpg
231.766	1.424	correct	regulate	Run1	regulate/STIM_010.jpg
236.422	2.201	correct	regulate	Run1	regulate/STIM_011.jpg
240.665	2.343	correct	regulate	Run1	regulate/STIM_011.jpg
245.14	2.614	correct	regulate	Run1	regulate/STIM_011.jpg
250.222	1.484	incorrect	regulate	Run1	regulate/STIM_011.jpg
254.578	3.051	correct	regulate	Run1	regulate/STIM_012.jpg
259.859	2.576	incorrect	regulate	Run1	regulate/STIM_012.jpg
265.563	2.56	correct	regulate	Run1	regulate/STIM_012.jpg
271.652	1.36	correct	regulate	Run1	regulate/STIM_012.jpg
276.906	1.778	correct	regulate	Run1	regulate/STIM_013.jpg
282.381	2.486	correct	regulate	Run1	regulate/STIM_013.jpg
288.246	3.21	correct	regulate	Run1	regulate/STIM_013.jpg
294.329	1.959	correct	regulate	Run1	regulate/STIM_013.jpg
300.044	3.076	correct	regulate	Run1	regulate/STIM_014.jpg
305.369	1.812	correct	regulate	Run1	regulate/STIM_014.jpg
310.956	2.734	correct	regulate	Run1	regulate/STIM_014.jpg
316.806	2.721	incorrect	regulate	Run1	regulate/STIM_014.jpg
322.474	2.819	correct	regulate	Run1	regulate/STIM_015.jpg
328.698	2.126	correct	regulate	Run1	regulate/STIM_015.jpg
333.969	2.189	incorrect	regulate	Run1	regulate/STIM_015.jpg
339.873	2.869	incorrect	regulate	Run1	regulate/STIM_015.jpg
345.899	3.481	correct	regulate	Run1	regulate/STIM_016.jpg
351.697	2.044	incorrect	regulate	Run1	regulate/STIM_016.jpg
357.6	1.925	correct	regulate	Run1	regulate/STIM_016.jpg
362.805	2.44	incorrect	regulate	Run1	regulate/STIM_016.jpg
368.74	3.448	incorrect	regulate	Run1	regulate/STIM_017.jpg
375.573	2.261	correct	regulate	Run1	regulate/STIM_017.jpg
381.463	1.905	correct	regulate	Run1	regulate/STIM_017.jpg
386.144	1.881	correct	regulate	Run1	regulate/STIM_017.jpg
391.425	3.351	correct	regulate	Run1	regulate/STIM_018.jpg
398.017	2.786	incorrect	regulate	Run1	regulate/STIM_018.jpg
403.636	3.06	correct	regulate	Run1	regulate/STIM_018.jpg
409.011	2.746	correct	regulate	Run1	regulate/STIM_018.jpg
415.493	1.915	correct	regulate	Run1	regulate/STIM_019.jpg
420.873	3.279	correct	regulate	Run1	regulate/STIM_019.jpg
427.681	2.332	correct	regulate	Run1	regulate/STIM_019.jpg
433.411	1.712	correct	regulate	Run1	regulate/STIM_019.jpg
438.264	2.214	incorrect	regulate	Run1	regulate/STIM_020.jpg
442.65	1.838	incorrect	regulate	Run1	regulate/STIM_020.jpg
447.619	2.585	correct	regulate	Run1	regulate/STIM_020.jpg
454.082	2.005	correct	regulate	Run1	regulate/STIM_020.jpg
459.552	3.389	incorrect	regulate	Run1	regulate/STIM_021.jpg
466.059	1.543	correct	regulate	Run1	regulate/STIM_021.jpg
471.107	2.046	correct	regulate	Run1	regulate/STIM_021.jpg
475.24	1.312	correct	regulate	Run1	regulate/STIM_021.jpg
479.509	3.419	incorrect	regulate	Run1	regulate/STIM_022.jpg
484.991	2.01	correct	regulate	Run1	regulate/STIM_022.jpg
490.59	2.468	correct	regulate	Run1	regulate/STIM_022.jpg
496.506	2.422	correct	regulate	Run1	regulate/STIM_022.jpg
502.381	2.554	correct	regulate	Run1	regulate/STIM_023.jpg
508.353	2.619	correct	regulate	Run1	regulate/STIM_023.jpg
513.5	2.943	correct	regulate	Run1	regulate/STIM_023.jpg
518.802	1.374	correct	regulate	Run1	regulate/STIM_023.jpg
522.346	1.678	correct	regulate	Run1	regulate/STIM_024.jpg
527.135	3.368	correct	regulate	Run1	regulate/STIM_024.jpg
534.044	2.249	correct	regulate	Run1	regulate/STIM_024.jpg
539.732	2.744	correct	regulate	Run1	regulate/STIM_024.jpg
546.396	2.542	correct	regulate	Run1	regulate/STIM_025.jpg
551.396	1.811	correct	regulate	Run1	regulate/STIM_025.jpg
555.32	2.253	correct	regulate	Run1	regulate/STIM_025.jpg
560.205	2.301	correct	regulate	Run1	regulate/STIM_025.jpg
564.912	2.393	correct	regulate	Run1	regulate/STIM_026.jpg
569.637	2.322	correct	regulate	Run1	regulate/STIM_026.jpg
575.445	1.606	incorrect	regulate	Run1	regulate/STIM_026.jpg
580.186	2.364	correct	regulate	Run1	regulate/STIM_026.jpg
584.769	3.38	correct	regulate	Run1	regulate/STIM_027.jpg
590.852	2.912	correct	regulate	Run1	regulate/STIM_027.jpg
597.448	1.418	correct	regulate	Run1	regulate/STIM_027.jpg
601.06	2.311	correct	regulate	Run1	regulate/STIM_027.jpg
607.256	2.361	correct	regulate	Run1	regulate/STIM_028.jpg
613.339	1.456	correct	regulate	Run1	regulate/STIM_028.jpg
616.937	1.781	incorrect	regulate	Run1	regulate/STIM_028.jpg
621.407	2.157	correct	regulate	Run1	regulate/STIM_028.jpg
625.979	1.696	incorrect	regulate	Run1	regulate/STIM_029.jpg
631.381	1.699	correct	regulate	Run1	regulate/STIM_029.jpg
636.181	1.998	correct	regulate	Run1	regulate/STIM_029.jpg
641.071	1.823	correct	regulate	Run1	regulate/STIM_029.jpg
645.797	1.243	incorrect	observe	Run1	observe/STIM_000.jpg
650.975	1.08	correct	observe	Run1	observe/STIM_000.jpg
655.497	0.984	correct	observe	Run1	observe/STIM_000.jpg
658.946	0.928	correct	observe	Run1	observe/STIM_000.jpg
662.757	1.226	correct	observe	Run1	observe/STIM_001.jpg
666.471	1.214	correct	observe	Run1	observe/STIM_001.jpg
671.057	1.462	correct	observe	Run1	observe/STIM_001.jpg
676.473	1.604	correct	observe	Run1	observe/STIM_001.jpg
680.89	0.994	correct	observe	Run1	observe/STIM_002.jpg
685.017	1.152	correct	observe	Run1	observe/STIM_002.jpg
690.117	1.243	incorrect	observe	Run1	observe/STIM_002.jpg
694.544	0.953	correct	observe	Run1	observe/STIM_002.jpg
699.291	0.867	correct	observe	Run1	observe/STIM_003.jpg
704.112	0.975	correct	observe	Run1	observe/STIM_003.jpg
707.963	1.12	correct	observe	Run1	observe/STIM_003.jpg
711.483	1.602	incorrect	observe	Run1	observe/STIM_003.jpg
715.734	1.618	correct	observe	Run1	observe/STIM_004.jpg
720.137	1.428	correct	observe	Run1	observe/STIM_004.jpg
725.235	1.514	incorrect	observe	Run1	observe/STIM_004.jpg
729.676	0.982	correct	observe	Run1	observe/STIM_004.jpg
733.843	1.057	correct	observe	Run1	observe/STIM_005.jpg
737.353	1.099	correct	observe	Run1	observe/STIM_005.jpg
740.825	1.515	correct	observe	Run1	observe/STIM_005.jpg
744.698	0.884	incorrect	observe	Run1	observe/STIM_005.jpg
747.687	1.566	correct	observe	Run1	observe/STIM_006.jpg
752.511	0.845	correct	observe	Run1	observe/STIM_006.jpg
756.28	0.823	correct	observe	Run1	observe/STIM_006.jpg
759.208	0.882	incorrect	observe	Run1	observe/STIM_006.jpg
762.347	1.08	correct	observe	Run1	observe/STIM_007.jpg
765.662	1.606	correct	observe	Run1	observe/STIM_007.jpg
769.637	1.357	correct	observe	Run1	observe/STIM_007.jpg
773.176	1.306	correct	observe	Run1	observe/STIM_007.jpg
776.752	0.953	correct	observe	Run1	observe/STIM_008.jpg
779.921	1.416	incorrect	observe	Run1	observe/STIM_008.jpg
785.233	0.974	correct	observe	Run1	observe/STIM_008.jpg
789.167	1.541	correct	observe	Run1	observe/STIM_008.jpg
793.825	0.888	correct	observe	Run1	observe/STIM_009.jpg
797.686	0.864	correct	observe	Run1	observe/STIM_009.jpg
801.192	1.561	incorrect	observe	Run1	observe/STIM_009.jpg
805.408	0.979	correct	observe	Run1	observe/STIM_009.jpg
808.829	1.507	correct	observe	Run1	observe/STIM_010.jpg
812.449	1.601	correct	observe	Run1	observe/STIM_010.jpg
817.956	1.494	correct	observe	Run1	observe/STIM_010.jpg
821.826	1.595	correct	observe	Run1	observe/STIM_010.jpg
825.813	1.218	correct	observe	Run1	observe/STIM_011.jpg
831.002	1.412	incorrect	observe	Run1	observe/STIM_011.jpg
834.524	1.427	correct	observe	Run1	observe/STIM_011.jpg
838.291	1.588	correct	observe	Run1	observe/STIM_011.jpg
842.51	1.119	correct	observe	Run1	observe/STIM_012.jpg
846.735	1.359	correct	observe	Run1	observe/STIM_012.jpg
851.861	1.281	correct	observe	Run1	observe/STIM_012.jpg
856.505	1.367	correct	observe	Run1	observe/STIM_012.jpg
860.063	1.429	correct	observe	Run1	observe/STIM_013.jpg
865.034	1.373	correct	observe	Run1	observe/STIM_013.jpg
870.005	0.943	correct	observe	Run1	observe/STIM_013.jpg
873.599	1.578	correct	observe	Run1	observe/STIM_013.jpg
877.22	1.529	correct	observe	Run1	observe/STIM_014.jpg
881.371	1.283	correct	observe	Run1	observe/STIM_014.jpg
886.017	0.968	correct	observe	Run1	observe/STIM_014.jpg
889.865	1.556	correct	observe	Run1	observe/STIM_014.jpg
895.217	1.499	correct	observe	Run1	observe/STIM_015.jpg
899.05	0.981	correct	observe	Run1	observe/STIM_015.jpg
902.586	1.469	correct	observe	Run1	observe/STIM_015.jpg
906.776	1.045	correct	observe	Run1	observe/STIM_015.jpg
910.941	0.822	correct	observe	Run1	observe/STIM_016.jpg
915.42	1.021	correct	observe	Run1	observe/STIM_016.jpg
919.58	1.252	correct	observe	Run1	observe/STIM_016.jpg
923.021	1.524	correct	observe	Run1	observe/STIM_016.jpg
926.781	0.873	correct	observe	Run1	observe/STIM_017.jpg
930.282	1.38	incorrect	observe	Run1	observe/STIM_017.jpg
935.201	1.121	correct	observe	Run1	observe/STIM_017.jpg
938.317	1.323	correct	observe	Run1	observe/STIM_017.jpg
941.869	0.988	correct	observe	Run1	observe/STIM_018.jpg
946.781	1.112	incorrect	observe	Run1	observe/STIM_018.jpg
951.861	0.844	correct	observe	Run1	observe/STIM_018.jpg
954.922	1.299	correct	observe	Run1	observe/STIM_018.jpg
958.227	1.304	correct	observe	Run1	observe/STIM_019.jpg
961.878	1.318	correct	observe	Run1	observe/STIM_019.jpg
967.092	1.35	correct	observe	Run1	observe/STIM_019.jpg
970.586	1.456	correct	observe	Run1	observe/STIM_019.jpg
975.134	2.201	correct	regulate	Run2	regulate/STIM_000.jpg
980.93	2.76	correct	regulate	Run2	regulate/STIM_000.jpg
985.668	1.685	correct	regulate	Run2	regulate/STIM_000.jpg
990.813	1.94	correct	regulate	Run2	regulate/STIM_000.jpg
996.415	1.853	correct	regulate	Run2	regulate/STIM_001.jpg
1001.893	1.464	incorrect	regulate	Run2	regulate/STIM_001.jpg
1005.784	1.3	correct	regulate	Run2	regulate/STIM_001.jpg
1010.71	2.292	correct	regulate	Run2	regulate/STIM_001.jpg
1015.03	2.97	correct	regulate	Run2	regulate/STIM_002.jpg
1020.009	2.528	correct	regulate	Run2	regulate/STIM_002.jpg
1026.157	1.804	correct	regulate	Run2	regulate/STIM_002.jpg
1031.781	2.011	correct	regulate	Run2	regulate/STIM_002.jpg
1037.023	1.694	correct	regulate	Run2	regulate/STIM_003.jpg
1041.044	1.827	correct	regulate	Run2	regulate/STIM_003.jpg
1046.704	1.67	incorrect	regulate	Run2	regulate/STIM_003.jpg
1050.896	2.389	correct	regulate	Run2	regulate/STIM_003.jpg
1055.873	1.726	incorrect	regulate	Run2	regulate/STIM_004.jpg
1061.262	2.326	correct	regulate	Run2	regulate/STIM_004.jpg
1066.549	1.776	correct	regulate	Run2	regulate/STIM_004.jpg
1070.647	1.674	correct	regulate	Run2	regulate/STIM_004.jpg
1075.065	1.654	correct	regulate	Run2	regulate/STIM_005.jpg
1080.035	2.528	correct	regulate	Run2	regulate/STIM_005.jpg
1085.516	2.335	correct	regulate	Run2	regulate/STIM_005.jpg
1090.925	1.624	correct	regulate	Run2	regulate/STIM_005.jpg
1095.332	2.04	incorrect	regulate	Run2	regulate/STIM_006.jpg
1100.396	2.623	correct	regulate	Run2	regulate/STIM_006.jpg
1105.408	1.239	correct	regulate	Run2	regulate/STIM_006.jpg
1109.475	2.444	correct	regulate	Run2	regulate/STIM_006.jpg
1114.646	2.215	incorrect	regulate	Run2	regulate/STIM_007.jpg
1119.242	1.63	correct	regulate	Run2	regulate/STIM_007.jpg
1123.416	2.576	correct	regulate	Run2	regulate/STIM_007.jpg
1128.426	2.033	correct	regulate	Run2	regulate/STIM_007.jpg
1132.484	2.64	correct	regulate	Run2	regulate/STIM_008.jpg
1137.181	2.722	correct	regulate	Run2	regulate/STIM_008.jpg
1143.071	2.401	correct	regulate	Run2	regulate/STIM_008.jpg
1147.678	1.438	correct	regulate	Run2	regulate/STIM_008.jpg
1151.557	1.52	correct	regulate	Run2	regulate/STIM_009.jpg
1155.348	1.932	correct	regulate	Run2	regulate/STIM_009.jpg
1159.318	1.697	incorrect	regulate	Run2	regulate/STIM_009.jpg
1163.305	2.207	correct	regulate	Run2	regulate/STIM_009.jpg
1168.034	2.456	correct	regulate	Run2	regulate/STIM_010.jpg
1174.041	2.442	correct	regulate	Run2	regulate/STIM_010.jpg
1179.835	1.16	correct	regulate	Run2	regulate/STIM_010.jpg
1184.689	1.244	correct	regulate	Run2	regulate/STIM_010.jpg
1188.949	2.744	correct	regulate	Run2	regulate/STIM_011.jpg
1195.486	2.4	correct	regulate	Run2	regulate/STIM_011.jpg
1201.791	1.593	correct	regulate	Run2	regulate/STIM_011.jpg
1206.769	1.862	correct	regulate	Run2	regulate/STIM_011.jpg
1211.377	2.252	incorrect	regulate	Run2	regulate/STIM_012.jpg
1216.149	1.881	correct	regulate	Run2	regulate/STIM_012.jpg
1221.61	2.295	correct	regulate	Run2	regulate/STIM_012.jpg
1226.993	1.163	correct	regulate	Run2	regulate/STIM_012.jpg
1231.243	1.469	correct	regulate	Run2	regulate/STIM_013.jpg
1236.048	1.902	correct	regulate	Run2	regulate/STIM_013.jpg
1241.197	1.865	correct	regulate	Run2	regulate/STIM_013.jpg
1246.346	1.832	correct	regulate	Run2	regulate/STIM_013.jpg
1251.308	2.504	incorrect	regulate	Run2	regulate/STIM_014.jpg
1257.473	2.847	incorrect	regulate	Run2	regulate/STIM_014.jpg
1262.413	1.733	correct	regulate	Run2	regulate/STIM_014.jpg
1267.965	2.396	correct	regulate	Run2	regulate/STIM_014.jpg
1272.752	2.135	correct	regulate	Run2	regulate/STIM_015.jpg
1278.776	2.429	correct	regulate	Run2	regulate/STIM_015.jpg
1284.733	1.554	correct	regulate	Run2	regulate/STIM_015.jpg
1290.143	2.406	correct	regulate	Run2	regulate/STIM_015.jpg
1295.325	1.704	correct	regulate	Run2	regulate/STIM_016.jpg
1300.896	1.309	correct	regulate	Run2	regulate/STIM_016.jpg
1305.28	1.181	correct	regulate	Run2	regulate/STIM_016.jpg
1310.298	1.734	correct	regulate	Run2	regulate/STIM_016.jpg
1314.772	2.651	correct	regulate	Run2	regulate/STIM_017.jpg
1319.562	1.41	incorrect	regulate	Run2	regulate/STIM_017.jpg
1324.36	1.242	incorrect	regulate	Run2	regulate/STIM_017.jpg
1327.641	2.44	correct	regulate	Run2	regulate/STIM_017.jpg
1332.248	2.732	correct	regulate	Run2	regulate/STIM_018.jpg
1338.339	2.088	incorrect	regulate	Run2	regulate/STIM_018.jpg
1342.572	2.178	correct	regulate	Run2	regulate/STIM_018.jpg
1347.623	2.157	correct	regulate	Run2	regulate/STIM_018.jpg
1353.276	2.819	correct	regulate	Run2	regulate/STIM_019.jpg
1358.065	1.806	correct	regulate	Run2	regulate/STIM_019.jpg
1363.338	2.14	correct	regulate	Run2	regulate/STIM_019.jpg
1368.681	2.192	correct	regulate	Run2	regulate/STIM_019.jpg
1374.827	1.888	correct	regulate	Run2	regulate/STIM_020.jpg
1378.72	1.637	correct	regulate	Run2	regulate/STIM_020.jpg
1382.403	2.244	correct	regulate	Run2	regulate/STIM_020.jpg
1387.471	1.808	correct	regulate	Run2	regulate/STIM_020.jpg
1391.656	1.607	incorrect	regulate	Run2	regulate/STIM_021.jpg
1397.07	2.734	correct	regulate	Run2	regulate/STIM_021.jpg
1402.598	2.201	correct	regulate	Run2	regulate/STIM_021.jpg
1407.505	2.272	correct	regulate	Run2	regulate/STIM_021.jpg
1412.663	1.578	correct	regulate	Run2	regulate/STIM_022.jpg
1417.495	2.285	correct	regulate	Run2	regulate/STIM_022.jpg
1422.103	1.18	correct	regulate	Run2	regulate/STIM_022.jpg
1425.672	1.676	correct	regulate	Run2	regulate/STIM_022.jpg
1430.17	1.725	correct	regulate	Run2	regulate/STIM_023.jpg
1435.453	1.429	correct	regulate	Run2	regulate/STIM_023.jpg
1440.696	1.479	correct	regulate	Run2	regulate/STIM_023.jpg
1444.45	1.518	correct	regulate	Run2	regulate/STIM_023.jpg
1448.693	2.89	correct	regulate	Run2	regulate/STIM_024.jpg
1453.532	2.002	correct	regulate	Run2	regulate/STIM_024.jpg
1459.152	1.62	correct	regulate	Run2	regulate/STIM_024.jpg
1463.598	1.217	correct	regulate	Run2	regulate/STIM_024.jpg
1467.322	1.815	incorrect	regulate	Run2	regulate/STIM_025.jpg
1472.584	2.638	correct	regulate	Run2	regulate/STIM_025.jpg
1477.807	2.224	correct	regulate	Run2	regulate/STIM_025.jpg
1482.262	1.621	correct	regulate	Run2	regulate/STIM_025.jpg
1487.647	1.454	incorrect	regulate	Run2	regulate/STIM_026.jpg
1492.523	2.69	correct	regulate	Run2	regulate/STIM_026.jpg
1498.801	1.993	incorrect	regulate	Run2	regulate/STIM_026.jpg
1504.174	2.268	correct	regulate	Run2	regulate/STIM_026.jpg
1509.995	1.808	correct	regulate	Run2	regulate/STIM_027.jpg
1514.226	2.059	correct	regulate	Run2	regulate/STIM_027.jpg
1519.155	1.239	correct	regulate	Run2	regulate/STIM_027.jpg
1523.36	1.442	correct	regulate	Run2	regulate/STIM_027.jpg
1527.415	2.81	correct	regulate	Run2	regulate/STIM_028.jpg
1533.723	2.449	incorrect	regulate	Run2	regulate/STIM_028.jpg
1540.061	2.573	correct	regulate	Run2	regulate/STIM_028.jpg
1545.371	1.382	correct	regulate	Run2	regulate/STIM_028.jpg
1549.027	2.29	correct	regulate	Run2	regulate/STIM_029.jpg
1554.214	1.231	correct	regulate	Run2	regulate/STIM_029.jpg
1558.867	2.002	correct	regulate	Run2	regulate/STIM_029.jpg
1562.884	2.367	correct	regulate	Run2	regulate/STIM_029.jpg
1568.692	1.617	correct	observe	Run2	observe/STIM_000.jpg
1572.52	1.175	correct	observe	Run2	observe/STIM_000.jpg
1576.152	1.586	correct	observe	Run2	observe/STIM_000.jpg
1581.608	1.36	correct	observe	Run2	observe/STIM_000.jpg
1586.93	1.5	correct	observe	Run2	observe/STIM_001.jpg
1592.385	1.058	correct	observe	Run2	observe/STIM_001.jpg
1596.115	1.262	correct	observe	Run2	observe/STIM_001.jpg
1599.662	1.594	incorrect	observe	Run2	observe/STIM_001.jpg
1603.782	1.368	correct	observe	Run2	observe/STIM_002.jpg
1608.951	1.556	correct	observe	Run2	observe/STIM_002.jpg
1614.188	1.627	correct	observe	Run2	observe/STIM_002.jpg
1618.742	1.414	correct	observe	Run2	observe/STIM_002.jpg
1622.625	1.191	correct	observe	Run2	observe/STIM_003.jpg
1625.841	1.273	correct	observe	Run2	observe/STIM_003.jpg
1630.997	1.315	correct	observe	Run2	observe/STIM_003.jpg
1635.524	1.414	correct	observe	Run2	observe/STIM_003.jpg
1640.48	1.411	correct	observe	Run2	observe/STIM_004.jpg
1644.526	1.185	correct	observe	Run2	observe/STIM_004.jpg
1649.214	1.404	correct	observe	Run2	observe/STIM_004.jpg
1654.361	1.074	correct	observe	Run2	observe/STIM_004.jpg
1659.201	1.475	correct	observe	Run2	observe/STIM_005.jpg
1663.321	1.463	incorrect	observe	Run2	observe/STIM_005.jpg
1667.879	1.457	correct	observe	Run2	observe/STIM_005.jpg
1672.264	0.866	correct	observe	Run2	observe/STIM_005.jpg
1676.331	0.859	correct	observe	Run2	observe/STIM_006.jpg
1679.783	1.154	correct	observe	Run2	observe/STIM_006.jpg
1684.127	1.372	correct	observe	Run2	observe/STIM_006.jpg
1689.317	1.009	correct	observe	Run2	observe/STIM_006.jpg
1692.61	1.367	correct	observe	Run2	observe/STIM_007.jpg
1697.465	1.256	correct	observe	Run2	observe/STIM_007.jpg
1700.818	0.907	correct	observe	Run2	observe/STIM_007.jpg
1704.779	1.168	incorrect	observe	Run2	observe/STIM_007.jpg
1708.288	1.11	correct	observe	Run2	observe/STIM_008.jpg
1713.145	1.227	incorrect	observe	Run2	observe/STIM_008.jpg
1717.588	0.888	incorrect	observe	Run2	observe/STIM_008.jpg
1720.8	1.071	incorrect	observe	Run2	observe/STIM_008.jpg
1725.636	0.873	correct	observe	Run2	observe/STIM_009.jpg
1729.176	1.618	correct	observe	Run2	observe/STIM_009.jpg
1734.336	1.611	correct	observe	Run2	observe/STIM_009.jpg
1739.688	1.063	correct	observe	Run2	observe/STIM_009.jpg
1744.055	1.473	correct	observe	Run2	observe/STIM_010.jpg
1749.058	1.544	correct	observe	Run2	observe/STIM_010.jpg
1754.53	0.859	correct	observe	Run2	observe/STIM_010.jpg
1758.825	1.257	correct	observe	Run2	observe/STIM_010.jpg
1763.107	1.154	correct	observe	Run2	observe/STIM_011.jpg
1766.739	1.592	incorrect	observe	Run2	observe/STIM_011.jpg
1772.186	1.032	incorrect	observe	Run2	observe/STIM_011.jpg
1776.622	1.283	correct	observe	Run2	observe/STIM_011.jpg
1780.696	0.838	correct	observe	Run2	observe/STIM_012.jpg
1784.69	1.264	correct	observe	Run2	observe/STIM_012.jpg
1788.314	0.983	correct	observe	Run2	observe/STIM_012.jpg
1793.112	1.573	correct	observe	Run2	observe/STIM_012.jpg
1797.633	1.226	correct	observe	Run2	observe/STIM_013.jpg
1801.378	1.228	correct	observe	Run2	observe/STIM_013.jpg
1805.154	0.824	correct	observe	Run2	observe/STIM_013.jpg
1809.894	0.994	correct	observe	Run2	observe/STIM_013.jpg
1814.773	1.138	correct	observe	Run2	observe/STIM_014.jpg
1818.271	0.98	correct	observe	Run2	observe/STIM_014.jpg
1821.348	0.85	correct	observe	Run2	observe/STIM_014.jpg
1825.489	0.942	correct	observe	Run2	observe/STIM_014.jpg
1830.002	1.052	correct	observe	Run2	observe/STIM_015.jpg
1833.384	1.527	correct	observe	Run2	observe/STIM_015.jpg
1838.118	1.007	correct	observe	Run2	observe/STIM_015.jpg
1841.586	0.956	correct	observe	Run2	observe/STIM_015.jpg
1845.326	1.297	correct	observe	Run2	observe/STIM_016.jpg
1849.743	0.987	incorrect	observe	Run2	observe/STIM_016.jpg
1854.573	0.873	correct	observe	Run2	observe/STIM_016.jpg
1857.684	1.415	incorrect	observe	Run2	observe/STIM_016.jpg
1862.618	1.366	correct	observe	Run2	observe/STIM_017.jpg
1867.731	1.468	correct	observe	Run2	observe/STIM_017.jpg
1871.571	1.026	correct	observe	Run2	observe/STIM_017.jpg
1875.274	1.086	correct	observe	Run2	observe/STIM_017.jpg
1879.38	1.29	correct	observe	Run2	observe/STIM_018.jpg
1884.338	0.944	correct	observe	Run2	observe/STIM_018.jpg
1888.316	1.023	correct	observe	Run2	observe/STIM_018.jpg
1891.873	1.359	correct	observe	Run2	observe/STIM_018.jpg
1895.42	1.403	correct	observe	Run2	observe/STIM_019.jpg
1899.813	1.07	incorrect	observe	Run2	observe/STIM_019.jpg
1902.863	1.245	correct	observe	Run2	observe/STIM_019.jpg
1907.849	1.586	correct	observe	Run2	observe/STIM_019.jpg
1912.454	2.168	correct	regulate	Run3	regulate/STIM_000.jpg
1916.926	2.279	correct	regulate	Run3	regulate/STIM_000.jpg
1921.488	2.162	correct	regulate	Run3	regulate/STIM_000.jpg
1926.004	2.081	correct	regulate	Run3	regulate/STIM_000.jpg
1931.478	1.821	incorrect	regulate	Run3	regulate/STIM_001.jpg
1936.61	1.142	correct	regulate	Run3	regulate/STIM_001.jpg
1939.851	2.284	correct	regulate	Run3	regulate/STIM_001.jpg
1944.21	2.408	correct	regulate	Run3	regulate/STIM_001.jpg
1949.547	1.781	correct	regulate	Run3	regulate/STIM_002.jpg
1954.496	1.759	correct	regulate	Run3	regulate/STIM_002.jpg
1959.952	2.059	correct	regulate	Run3	regulate/STIM_002.jpg
1964.417	1.194	correct	regulate	Run3	regulate/STIM_002.jpg
1969.531	1.992	correct	regulate	Run3	regulate/STIM_003.jpg
1974.236	1.556	correct	regulate	Run3	regulate/STIM_003.jpg
1978.186	2.268	correct	regulate	Run3	regulate/STIM_003.jpg
1983.458	1.501	correct	regulate	Run3	regulate/STIM_003.jpg
1988.347	1.372	correct	regulate	Run3	regulate/STIM_004.jpg
1992.981	1.089	correct	regulate	Run3	regulate/STIM_004.jpg
1996.578	1.232	correct	regulate	Run3	regulate/STIM_004.jpg
2000.944	1.3	correct	regulate	Run3	regulate/STIM_004.jpg
2004.894	1.39	incorrect	regulate	Run3	regulate/STIM_005.jpg
2009.939	2.007	correct	regulate	Run3	regulate/STIM_005.jpg
2015.721	2.31	incorrect	regulate	Run3	regulate/STIM_005.jpg
2020.595	1.5	correct	regulate	Run3	regulate/STIM_005.jpg
2024.772	1.836	correct	regulate	Run3	regulate/STIM_006.jpg
2028.62	1.166	correct	regulate	Run3	regulate/STIM_006.jpg
2033.061	1.129	correct	regulate	Run3	regulate/STIM_006.jpg
2036.939	1.406	correct	regulate	Run3	regulate/STIM_006.jpg
2042.213	2.019	correct	regulate	Run3	regulate/STIM_007.jpg
2047.313	2.098	correct	regulate	Run3	regulate/STIM_007.jpg
2053.362	2.281	correct	regulate	Run3	regulate/STIM_007.jpg
2057.667	1.623	correct	regulate	Run3	regulate/STIM_007.jpg
2063.235	1.081	incorrect	regulate	Run3	regulate/STIM_008.jpg
2066.792	2.451	correct	regulate	Run3	regulate/STIM_008.jpg
2072.084	2.078	incorrect	regulate	Run3	regulate/STIM_008.jpg
2076.421	1.185	correct	regulate	Run3	regulate/STIM_008.jpg
2080.815	2.058	incorrect	regulate	Run3	regulate/STIM_009.jpg
2085.275	2.176	correct	regulate	Run3	regulate/STIM_009.jpg
2090.787	1.525	correct	regulate	Run3	regulate/STIM_009.jpg
2096.258	1.719	incorrect	regulate	Run3	regulate/STIM_009.jpg
2100.795	1.802	correct	regulate	Run3	regulate/STIM_010.jpg
2105.907	1.437	correct	regulate	Run3	regulate/STIM_010.jpg
2110.029	1.705	correct	regulate	Run3	regulate/STIM_010.jpg
2114.135	1.099	correct	regulate	Run3	regulate/STIM_010.jpg
2118.51	2.32	correct	regulate	Run3	regulate/STIM_011.jpg
2124.574	1.467	correct	regulate	Run3	regulate/STIM_011.jpg
2129.233	1.84	correct	regulate	Run3	regulate/STIM_011.jpg
2133.639	1.081	correct	regulate	Run3	regulate/STIM_011.jpg
2137.292	2.091	correct	regulate	Run3	regulate/STIM_012.jpg
2143.076	1.799	correct	regulate	Run3	regulate/STIM_012.jpg
2147.592	1.596	correct	regulate	Run3	regulate/STIM_012.jpg
2152.719	1.719	correct	regulate	Run3	regulate/STIM_012.jpg
2157.563	2.216	incorrect	regulate	Run3	regulate/STIM_013.jpg
2162.189	1.648	correct	regulate	Run3	regulate/STIM_013.jpg
2166.655	1.862	correct	regulate	Run3	regulate/STIM_013.jpg
2172.251	1.822	correct	regulate	Run3	regulate/STIM_013.jpg
2177.351	1.106	correct	regulate	Run3	regulate/STIM_014.jpg
2182.411	1.978	correct	regulate	Run3	regulate/STIM_014.jpg
2187.045	2.059	correct	regulate	Run3	regulate/STIM_014.jpg
2192.163	2.186	correct	regulate	Run3	regulate/STIM_014.jpg
2196.715	1.171	correct	regulate	Run3	regulate/STIM_015.jpg
2200.479	1.743	correct	regulate	Run3	regulate/STIM_015.jpg
2206.133	2.072	correct	regulate	Run3	regulate/STIM_015.jpg
2212.138	2.432	correct	regulate	Run3	regulate/STIM_015.jpg
2217.823	1.253	correct	regulate	Run3	regulate/STIM_016.jpg
2222.423	1.762	correct	regulate	Run3	regulate/STIM_016.jpg
2226.946	1.316	correct	regulate	Run3	regulate/STIM_016.jpg
2231.846	2.298	correct	regulate	Run3	regulate/STIM_016.jpg
2236.403	1.224	correct	regulate	Run3	regulate/STIM_017.jpg
2240.054	1.409	correct	regulate	Run3	regulate/STIM_017.jpg
2244.577	1.092	correct	regulate	Run3	regulate/STIM_017.jpg
2248.956	2.124	correct	regulate	Run3	regulate/STIM_017.jpg
2254.836	1.611	correct	regulate	Run3	regulate/STIM_018.jpg
2259.7	2.424	correct	regulate	Run3	regulate/STIM_018.jpg
2264.311	1.937	correct	regulate	Run3	regulate/STIM_018.jpg
2269.336	1.719	correct	regulate	Run3	regulate/STIM_018.jpg
2274.046	2.145	correct	regulate	Run3	regulate/STIM_019.jpg
2279.72	2.118	correct	regulate	Run3	regulate/STIM_019.jpg
2284.663	1.903	correct	regulate	Run3	regulate/STIM_019.jpg
2290.419	1.483	correct	regulate	Run3	regulate/STIM_019.jpg
2294.954	2.366	incorrect	regulate	Run3	regulate/STIM_020.jpg
2299.362	1.495	correct	regulate	Run3	regulate/STIM_020.jpg
2304.198	2.021	correct	regulate	Run3	regulate/STIM_020.jpg
2308.428	1.18	correct	regulate	Run3	regulate/STIM_020.jpg
2312.359	1.329	correct	regulate	Run3	regulate/STIM_021.jpg
2316.479	1.078	correct	regulate	Run3	regulate/STIM_021.jpg
2321.069	2.396	incorrect	regulate	Run3	regulate/STIM_021.jpg
2326.515	1.509	correct	regulate	Run3	regulate/STIM_021.jpg
2331.708	1.639	correct	regulate	Run3	regulate/STIM_022.jpg
2336.135	1.706	correct	regulate	Run3	regulate/STIM_022.jpg
2339.96	1.975	correct	regulate	Run3	regulate/STIM_022.jpg
2344.594	2.42	incorrect	regulate	Run3	regulate/STIM_022.jpg
2350.157	1.392	correct	regulate	Run3	regulate/STIM_023.jpg
2354.409	1.439	correct	regulate	Run3	regulate/STIM_023.jpg
2359.045	1.37	correct	regulate	Run3	regulate/STIM_023.jpg
2363.544	1.111	correct	regulate	Run3	regulate/STIM_023.jpg
2368.4	2.261	correct	regulate	Run3	regulate/STIM_024.jpg
2374.413	1.854	correct	regulate	Run3	regulate/STIM_024.jpg
2379.228	1.409	correct	regulate	Run3	regulate/STIM_024.jpg
2383.444	1.108	correct	regulate	Run3	regulate/STIM_024.jpg
2388.148	1.883	correct	regulate	Run3	regulate/STIM_025.jpg
2392.257	2.15	correct	regulate	Run3	regulate/STIM_025.jpg
2396.507	2.219	correct	regulate	Run3	regulate/STIM_025.jpg
2402.637	2.109	incorrect	regulate	Run3	regulate/STIM_025.jpg
2408.107	2.075	correct	regulate	Run3	regulate/STIM_026.jpg
2412.847	1.328	correct	regulate	Run3	regulate/STIM_026.jpg
2416.184	2.383	correct	regulate	Run3	regulate/STIM_026.jpg
2420.893	2.1	correct	regulate	Run3	regulate/STIM_026.jpg
2425.703	1.595	correct	regulate	Run3	regulate/STIM_027.jpg
2430.411	1.737	correct	regulate	Run3	regulate/STIM_027.jpg
2434.878	2.104	correct	regulate	Run3	regulate/STIM_027.jpg
2440.879	1.691	correct	regulate	Run3	regulate/STIM_027.jpg
2445.654	1.932	correct	regulate	Run3	regulate/STIM_028.jpg
2451.368	2.203	correct	regulate	Run3	regulate/STIM_028.jpg
2455.842	2.116	correct	regulate	Run3	regulate/STIM_028.jpg
2461.735	2.428	correct	regulate	Run3	regulate/STIM_028.jpg
2468.048	1.242	correct	regulate	Run3	regulate/STIM_029.jpg
2471.486	1.566	correct	regulate	Run3	regulate/STIM_029.jpg
2475.857	1.652	correct	regulate	Run3	regulate/STIM_029.jpg
2479.694	2.348	correct	regulate	Run3	regulate/STIM_029.jpg
2485.971	0.97	correct	observe	Run3	observe/STIM_000.jpg
2490.892	1.131	correct	observe	Run3	observe/STIM_000.jpg
2495.202	0.939	correct	observe	Run3	observe/STIM_000.jpg
2498.341	0.829	correct	observe	Run3	observe/STIM_000.jpg
2503.05	1.105	correct	observe	Run3	observe/STIM_001.jpg
2506.653	1.31	correct	observe	Run3	observe/STIM_001.jpg
2511.069	1.47	correct	observe	Run3	observe/STIM_001.jpg
2514.988	0.821	correct	observe	Run3	observe/STIM_001.jpg
2518.418	1.031	correct	observe	Run3	observe/STIM_002.jpg
2523.368	1.242	correct	observe	Run3	observe/STIM_002.jpg
2527.505	1.61	correct	observe	Run3	observe/STIM_002.jpg
2532.794	1.479	correct	observe	Run3	observe/STIM_002.jpg
2537.063	1.099	correct	observe	Run3	observe/STIM_003.jpg
2541.747	1.116	correct	observe	Run3	observe/STIM_003.jpg
2546.081	0.879	correct	observe	Run3	observe/STIM_003.jpg
2549.539	1.618	correct	observe	Run3	observe/STIM_003.jpg
2554.697	1.501	correct	observe	Run3	observe/STIM_004.jpg
2558.497	1.245	correct	observe	Run3	observe/STIM_004.jpg
2562.267	1.617	correct	observe	Run3	observe/STIM_004.jpg
2567.701	1.175	correct	observe	Run3	observe/STIM_004.jpg
2571.738	1.012	correct	observe	Run3	observe/STIM_005.jpg
2576.604	1.427	correct	observe	Run3	observe/STIM_005.jpg
2580.67	1.074	correct	observe	Run3	observe/STIM_005.jpg
2584.38	1.408	correct	observe	Run3	observe/STIM_005.jpg
2589.457	1.053	correct	observe	Run3	observe/STIM_006.jpg
2593.138	0.84	correct	observe	Run3	observe/STIM_006.jpg
2597.545	1.422	correct	observe	Run3	observe/STIM_006.jpg
2601.0	1.31	correct	observe	Run3	observe/STIM_006.jpg
2604.516	1.462	correct	observe	Run3	observe/STIM_007.jpg
2609.516	1.491	correct	observe	Run3	observe/STIM_007.jpg
2613.828	1.309	correct	observe	Run3	observe/STIM_007.jpg
2618.185	1.164	correct	observe	Run3	observe/STIM_007.jpg
2622.226	1.512	correct	observe	Run3	observe/STIM_008.jpg
2626.702	1.527	correct	observe	Run3	observe/STIM_008.jpg
2630.375	0.911	incorrect	observe	Run3	observe/STIM_008.jpg
2635.169	0.852	correct	observe	Run3	observe/STIM_008.jpg
2638.437	1.317	correct	observe	Run3	observe/STIM_009.jpg
2642.82	1.494	correct	observe	Run3	observe/STIM_009.jpg
2647.643	0.935	correct	observe	Run3	observe/STIM_009.jpg
2651.043	1.135	correct	observe	Run3	observe/STIM_009.jpg
2654.424	0.956	correct	observe	Run3	observe/STIM_010.jpg
2657.476	0.903	correct	observe	Run3	observe/STIM_010.jpg
2660.898	0.909	incorrect	observe	Run3	observe/STIM_010.jpg
2664.851	0.953	correct	observe	Run3	observe/STIM_010.jpg
2669.234	1.03	correct	observe	Run3	observe/STIM_011.jpg
2672.854	1.605	correct	observe	Run3	observe/STIM_011.jpg
2676.792	1.138	correct	observe	Run3	observe/STIM_011.jpg
2680.117	1.39	correct	observe	Run3	observe/STIM_011.jpg
2684.162	1.306	correct	observe	Run3	observe/STIM_012.jpg
2688.489	1.443	incorrect	observe	Run3	observe/STIM_012.jpg
2693.51	0.842	correct	observe	Run3	observe/STIM_012.jpg
2698.248	0.906	correct	observe	Run3	observe/STIM_012.jpg
2702.791	1.422	correct	observe	Run3	observe/STIM_013.jpg
2707.733	1.251	correct	observe	Run3	observe/STIM_013.jpg
2711.376	1.326	correct	observe	Run3	observe/STIM_013.jpg
2716.203	0.917	correct	observe	Run3	observe/STIM_013.jpg
2719.409	1.51	correct	observe	Run3	observe/STIM_014.jpg
2724.593	1.413	correct	observe	Run3	observe/STIM_014.jpg
2728.951	1.218	correct	observe	Run3	observe/STIM_014.jpg
2733.73	1.123	correct	observe	Run3	observe/STIM_014.jpg
2738.354	1.407	correct	observe	Run3	observe/STIM_015.jpg
2742.097	0.866	correct	observe	Run3	observe/STIM_015.jpg
2745.36	1.112	correct	observe	Run3	observe/STIM_015.jpg
2750.435	0.966	correct	observe	Run3	observe/STIM_015.jpg
2755.36	1.358	correct	observe	Run3	observe/STIM_016.jpg
2759.52	1.221	incorrect	observe	Run3	observe/STIM_016.jpg
2762.921	1.287	correct	observe	Run3	observe/STIM_016.jpg
2767.362	0.997	incorrect	observe	Run3	observe/STIM_016.jpg
2770.527	1.06	correct	observe	Run3	observe/STIM_017.jpg
2773.611	1.026	correct	observe	Run3	observe/STIM_017.jpg
2778.255	1.035	correct	observe	Run3	observe/STIM_017.jpg
2781.472	1.121	correct	observe	Run3	observe/STIM_017.jpg
2786.338	1.123	correct	observe	Run3	observe/STIM_018.jpg
2789.627	1.343	correct	observe	Run3	observe/STIM_018.jpg
2794.589	1.356	correct	observe	Run3	observe/STIM_018.jpg
2798.856	1.323	correct	observe	Run3	observe/STIM_018.jpg
2802.813	1.239	correct	observe	Run3	observe/STIM_019.jpg
2808.01	1.446	correct	observe	Run3	observe/STIM_019.jpg
2812.685	0.916	correct	observe	Run3	observe/STIM_019.jpg
2815.732	0.86	correct	observe	Run3	observe/STIM_019.jpg
