onset	duration	accuracy_binary	trial_type	learning_stage	stimulus
0.0	3.046	1	regulate	Run1	regulate/STIM_000.jpg
6.466	2.288	1	regulate	Run1	regulate/STIM_000.jpg
11.534	2.475	1	regulate	Run1	regulate/STIM_000.jpg
17.482	2.662	1	regulate	Run1	regulate/STIM_000.jpg
23.014	2.65	0	regulate	Run1	regulate/STIM_001.jpg
27.725	1.767	1	regulate	Run1	regulate/STIM_001.jpg
31.646	1.467	1	regulate	Run1	regulate/STIM_001.jpg
36.203	1.614	1	regulate	Run1	regulate/STIM_001.jpg
40.098	2.34	0	regulate	Run1	regulate/STIM_002.jpg
44.69	1.778	1	regulate	Run1	regulate/STIM_002.jpg
48.862	1.644	1	regulate	Run1	regulate/STIM_002.jpg
52.934	2.152	1	regulate	Run1	regulate/STIM_002.jpg
58.046	2.778	0	regulate	Run1	regulate/STIM_003.jpg
64.027	1.628	1	regulate	Run1	regulate/STIM_003.jpg
68.678	2.189	0	regulate	Run1	regulate/STIM_003.jpg
73.586	1.388	1	regulate	Run1	regulate/STIM_003.jpg
77.277	3.202	1	regulate	Run1	regulate/STIM_004.jpg
83.633	2.791	1	regulate	Run1	regulate/STIM_004.jpg
88.496	2.328	1	regulate	Run1	regulate/STIM_004.jpg
94.056	1.286	1	regulate	Run1	regulate/STIM_004.jpg
99.248	1.417	1	regulate	Run1	regulate/STIM_005.jpg
104.284	2.557	0	regulate	Run1	regulate/STIM_005.jpg
109.498	1.56	1	regulate	Run1	regulate/STIM_005.jpg
113.902	1.914	1	regulate	Run1	regulate/STIM_005.jpg
118.423	3.216	1	regulate	Run1	regulate/STIM_006.jpg
125.395	2.7	1	regulate	Run1	regulate/STIM_006.jpg
130.727	1.928	0	regulate	Run1	regulate/STIM_006.jpg
134.759	1.584	1	regulate	Run1	regulate/STIM_006.jpg
138.518	2.163	1	regulate	Run1	regulate/STIM_007.jpg
144.541	1.956	1	regulate	Run1	regulate/STIM_007.jpg
149.089	2.14	1	regulate	Run1	regulate/STIM_007.jpg
153.985	1.497	0	regulate	Run1	regulate/STIM_007.jpg
158.988	3.232	1	regulate	Run1	regulate/STIM_008.jpg
165.836	2.86	0	regulate	Run1	regulate/STIM_008.jpg
171.082	1.506	1	regulate	Run1	regulate/STIM_008.jpg
176.034	1.862	1	regulate	Run1	regulate/STIM_008.jpg
181.201	3.042	0	regulate	Run1	regulate/STIM_009.jpg
187.972	1.695	0	regulate	Run1	regulate/STIM_009.jpg
192.895	2.345	1	regulate	Run1	regulate/STIM_009.jpg
198.121	2.361	0	regulate	Run1	regulate/STIM_009.jpg
203.62	1.667	1	regulate	Run1	regulate/STIM_010.jpg
207.57	2.134	1	regulate	Run1	regulate/STIM_010.jpg
212.278	1.684	1	regulate	Run1	regulate/STIM_010.jpg
216.006	1.212	1	regulate	Run1	regulate/STIM_010.jpg
220.526	3.07	1	regulate	Run1	regulate/STIM_011.jpg
226.265	1.364	0	regulate	Run1	regulate/STIM_011.jpg
229.807	1.928	1	regulate	Run1	regulate/STIM_011.jpg
233.873	2.026	0	regulate	Run1	regulate/STIM_011.jpg
238.858	2.401	1	regulate	Run1	regulate/STIM_012.jpg
243.562	2.73	1	regulate	Run1	regulate/STIM_012.jpg
248.329	1.573	1	regulate	Run1	regulate/STIM_012.jpg
253.203	2.706	1	regulate	Run1	regulate/STIM_012.jpg
258.105	2.093	0	regulate	Run1	regulate/STIM_013.jpg
263.445	1.875	0	regulate	Run1	regulate/STIM_013.jpg
268.725	1.895	1	regulate	Run1	regulate/STIM_013.jpg
274.137	1.438	1	regulate	Run1	regulate/STIM_013.jpg
278.579	1.8	1	regulate	Run1	regulate/STIM_014.jpg
284.237	1.451	0	regulate	Run1	regulate/STIM_014.jpg
288.603	2.526	1	regulate	Run1	regulate/STIM_014.jpg
293.299	1.357	0	regulate	Run1	regulate/STIM_014.jpg
297.135	1.639	1	regulate	Run1	regulate/STIM_015.jpg
301.653	2.163	1	regulate	Run1	regulate/STIM_015.jpg
306.274	2.394	0	regulate	Run1	regulate/STIM_015.jpg
311.105	1.45	0	regulate	Run1	regulate/STIM_015.jpg
315.648	1.579	1	regulate	Run1	regulate/STIM_016.jpg
320.753	3.087	0	regulate	Run1	regulate/STIM_016.jpg
326.519	2.881	1	regulate	Run1	regulate/STIM_016.jpg
331.492	1.415	0	regulate	Run1	regulate/STIM_016.jpg
335.728	1.823	0	regulate	Run1	regulate/STIM_017.jpg
341.495	1.667	1	regulate	Run1	regulate/STIM_017.jpg
346.928	2.293	1	regulate	Run1	regulate/STIM_017.jpg
352.967	1.934	1	regulate	Run1	regulate/STIM_017.jpg
358.822	2.708	1	regulate	Run1	regulate/STIM_018.jpg
364.357	1.424	0	regulate	Run1	regulate/STIM_018.jpg
369.364	2.161	1	regulate	Run1	regulate/STIM_018.jpg
374.745	1.5	1	regulate	Run1	regulate/STIM_018.jpg
378.458	3.254	1	regulate	Run1	regulate/STIM_019.jpg
385.577	2.952	1	regulate	Run1	regulate/STIM_019.jpg
392.462	1.9	0	regulate	Run1	regulate/STIM_019.jpg
397.219	2.709	1	regulate	Run1	regulate/STIM_019.jpg
403.407	2.632	0	regulate	Run1	regulate/STIM_020.jpg
408.628	2.289	0	regulate	Run1	regulate/STIM_020.jpg
414.002	1.35	1	regulate	Run1	regulate/STIM_020.jpg
418.049	2.155	1	regulate	Run1	regulate/STIM_020.jpg
423.434	2.164	0	regulate	Run1	regulate/STIM_021.jpg
428.972	1.935	1	regulate	Run1	regulate/STIM_021.jpg
433.33	1.614	0	regulate	Run1	regulate/STIM_021.jpg
438.681	2.559	1	regulate	Run1	regulate/STIM_021.jpg
444.408	1.937	0	regulate	Run1	regulate/STIM_022.jpg
448.458	2.936	1	regulate	Run1	regulate/STIM_022.jpg
454.25	2.442	1	regulate	Run1	regulate/STIM_022.jpg
459.095	1.488	1	regulate	Run1	regulate/STIM_022.jpg
463.312	1.582	1	regulate	Run1	regulate/STIM_023.jpg
467.919	2.153	1	regulate	Run1	regulate/STIM_023.jpg
473.251	1.286	1	regulate	Run1	regulate/STIM_023.jpg
476.881	1.529	1	regulate	Run1	regulate/STIM_023.jpg
481.845	2.615	1	regulate	Run1	regulate/STIM_024.jpg
487.321	2.727	1	regulate	Run1	regulate/STIM_024.jpg
492.464	1.52	1	regulate	Run1	regulate/STIM_024.jpg
497.788	2.297	1	regulate	Run1	regulate/STIM_024.jpg
503.635	2.959	1	regulate	Run1	regulate/STIM_025.jpg
509.873	1.589	1	regulate	Run1	regulate/STIM_025.jpg
515.402	2.016	1	regulate	Run1	regulate/STIM_025.jpg
519.866	2.579	0	regulate	Run1	regulate/STIM_025.jpg
524.765	2.682	1	regulate	Run1	regulate/STIM_026.jpg
530.986	1.554	1	regulate	Run1	regulate/STIM_026.jpg
534.61	2.753	0	regulate	Run1	regulate/STIM_026.jpg
539.462	2.684	0	regulate	Run1	regulate/STIM_026.jpg
544.748	2.436	1	regulate	Run1	regulate/STIM_027.jpg
550.127	1.881	1	regulate	Run1	regulate/STIM_027.jpg
555.186	1.332	1	regulate	Run1	regulate/STIM_027.jpg
559.118	2.241	1	regulate	Run1	regulate/STIM_027.jpg
563.714	2.269	1	regulate	Run1	regulate/STIM_028.jpg
569.616	1.786	1	regulate	Run1	regulate/STIM_028.jpg
574.678	2.438	0	regulate	Run1	regulate/STIM_028.jpg
579.12	2.687	1	regulate	Run1	regulate/STIM_028.jpg
584.095	1.512	0	regulate	Run1	regulate/STIM_029.jpg
589.113	1.816	1	regulate	Run1	regulate/STIM_029.jpg
593.004	2.185	1	regulate	Run1	regulate/STIM_029.jpg
598.323	2.109	1	regulate	Run1	regulate/STIM_029.jpg
603.149	1.282	0	observe	Run1	observe/STIM_000.jpg
607.962	0.836	1	observe	Run1	observe/STIM_000.jpg
612.154	1.427	1	observe	Run1	observe/STIM_000.jpg
616.498	1.063	1	observe	Run1	observe/STIM_000.jpg
619.813	1.253	1	observe	Run1	observe/STIM_001.jpg
624.195	0.871	1	observe	Run1	observe/STIM_001.jpg
628.605	0.867	0	observe	Run1	observe/STIM_001.jpg
632.934	1.323	1	observe	Run1	observe/STIM_001.jpg
637.744	1.374	1	observe	Run1	observe/STIM_002.jpg
641.624	0.963	1	observe	Run1	observe/STIM_002.jpg
645.619	1.297	0	observe	Run1	observe/STIM_002.jpg
649.527	1.043	1	observe	Run1	observe/STIM_002.jpg
652.649	1.206	0	observe	Run1	observe/STIM_003.jpg
656.388	1.273	1	observe	Run1	observe/STIM_003.jpg
660.243	0.881	1	observe	Run1	observe/STIM_003.jpg
663.128	0.751	0	observe	Run1	observe/STIM_003.jpg
667.796	1.182	1	observe	Run1	observe/STIM_004.jpg
671.745	0.809	1	observe	Run1	observe/STIM_004.jpg
675.16	1.072	0	observe	Run1	observe/STIM_004.jpg
680.072	0.934	1	observe	Run1	observe/STIM_004.jpg
684.073	1.458	1	observe	Run1	observe/STIM_005.jpg
688.723	1.286	1	observe	Run1	observe/STIM_005.jpg
692.251	0.786	0	observe	Run1	observe/STIM_005.jpg
695.922	1.301	0	observe	Run1	observe/STIM_005.jpg
700.937	0.922	1	observe	Run1	observe/STIM_006.jpg
704.402	1.042	1	observe	Run1	observe/STIM_006.jpg
707.767	1.05	1	observe	Run1	observe/STIM_006.jpg
712.084	1.486	0	observe	Run1	observe/STIM_006.jpg
716.584	1.288	1	observe	Run1	observe/STIM_007.jpg
720.256	0.899	1	observe	Run1	observe/STIM_007.jpg
724.686	0.982	1	observe	Run1	observe/STIM_007.jpg
727.85	1.195	1	observe	Run1	observe/STIM_007.jpg
732.372	1.337	1	observe	Run1	observe/STIM_008.jpg
736.906	1.261	0	observe	Run1	observe/STIM_008.jpg
741.97	1.396	1	observe	Run1	observe/STIM_008.jpg
746.694	0.804	1	observe	Run1	observe/STIM_008.jpg
750.877	0.81	1	observe	Run1	observe/STIM_009.jpg
755.557	0.957	1	observe	Run1	observe/STIM_009.jpg
760.342	0.852	0	observe	Run1	observe/STIM_009.jpg
764.262	1.255	1	observe	Run1	observe/STIM_009.jpg
768.57	1.283	1	observe	Run1	observe/STIM_010.jpg
773.188	0.898	1	observe	Run1	observe/STIM_010.jpg
778.047	1.466	1	observe	Run1	observe/STIM_010.jpg
781.524	0.766	1	observe	Run1	observe/STIM_010.jpg
786.021	0.816	1	observe	Run1	observe/STIM_011.jpg
790.465	0.779	0	observe	Run1	observe/STIM_011.jpg
794.466	0.929	1	observe	Run1	observe/STIM_011.jpg
798.964	0.873	1	observe	Run1	observe/STIM_011.jpg
801.942	1.411	1	observe	Run1	observe/STIM_012.jpg
805.82	0.867	1	observe	Run1	observe/STIM_012.jpg
809.215	1.33	1	observe	Run1	observe/STIM_012.jpg
814.358	1.413	1	observe	Run1	observe/STIM_012.jpg
819.686	1.166	1	observe	Run1	observe/STIM_013.jpg
824.16	0.85	1	observe	Run1	observe/STIM_013.jpg
828.616	0.955	1	observe	Run1	observe/STIM_013.jpg
832.208	1.29	1	observe	Run1	observe/STIM_013.jpg
836.634	1.355	1	observe	Run1	observe/STIM_014.jpg
840.421	0.951	1	observe	Run1	observe/STIM_014.jpg
843.712	1.061	1	observe	Run1	observe/STIM_014.jpg
847.23	1.099	1	observe	Run1	observe/STIM_014.jpg
852.208	1.28	1	observe	Run1	observe/STIM_015.jpg
855.732	0.786	1	observe	Run1	observe/STIM_015.jpg
859.621	1.334	1	observe	Run1	observe/STIM_015.jpg
863.456	0.85	1	observe	Run1	observe/STIM_015.jpg
867.156	1.187	1	observe	Run1	observe/STIM_016.jpg
871.299	1.356	1	observe	Run1	observe/STIM_016.jpg
876.003	0.754	1	observe	Run1	observe/STIM_016.jpg
879.196	1.361	1	observe	Run1	observe/STIM_016.jpg
882.775	1.269	1	observe	Run1	observe/STIM_017.jpg
886.145	1.409	0	observe	Run1	observe/STIM_017.jpg
890.766	1.466	1	observe	Run1	observe/STIM_017.jpg
896.181	0.929	1	observe	Run1	observe/STIM_017.jpg
899.89	0.863	1	observe	Run1	observe/STIM_018.jpg
903.128	1.139	0	observe	Run1	observe/STIM_018.jpg
906.289	1.138	1	observe	Run1	observe/STIM_018.jpg
909.557	0.976	1	observe	Run1	observe/STIM_018.jpg
913.741	1.127	0	observe	Run1	observe/STIM_019.jpg
916.889	0.865	1	observe	Run1	observe/STIM_019.jpg
920.381	1.228	1	observe	Run1	observe/STIM_019.jpg
925.036	1.118	0	observe	Run1	observe/STIM_019.jpg
928.813	1.93	1	regulate	Run2	regulate/STIM_000.jpg
933.578	1.264	1	regulate	Run2	regulate/STIM_000.jpg
938.075	2.396	1	regulate	Run2	regulate/STIM_000.jpg
943.161	1.623	1	regulate	Run2	regulate/STIM_000.jpg
948.454	1.455	1	regulate	Run2	regulate/STIM_001.jpg
952.133	1.148	1	regulate	Run2	regulate/STIM_001.jpg
955.729	1.691	1	regulate	Run2	regulate/STIM_001.jpg
960.799	1.196	1	regulate	Run2	regulate/STIM_001.jpg
965.548	2.586	1	regulate	Run2	regulate/STIM_002.jpg
970.271	1.183	1	regulate	Run2	regulate/STIM_002.jpg
975.394	2.407	1	regulate	Run2	regulate/STIM_002.jpg
980.566	2.1	1	regulate	Run2	regulate/STIM_002.jpg
986.468	1.797	1	regulate	Run2	regulate/STIM_003.jpg
992.253	1.377	1	regulate	Run2	regulate/STIM_003.jpg
996.86	1.86	0	regulate	Run2	regulate/STIM_003.jpg
1002.613	2.072	1	regulate	Run2	regulate/STIM_003.jpg
1008.25	2.346	0	regulate	Run2	regulate/STIM_004.jpg
1013.985	2.544	1	regulate	Run2	regulate/STIM_004.jpg
1019.443	1.461	1	regulate	Run2	regulate/STIM_004.jpg
1022.905	1.442	1	regulate	Run2	regulate/STIM_004.jpg
1027.867	1.364	1	regulate	Run2	regulate/STIM_005.jpg
1031.246	1.402	1	regulate	Run2	regulate/STIM_005.jpg
1035.582	2.311	1	regulate	Run2	regulate/STIM_005.jpg
1040.992	1.985	1	regulate	Run2	regulate/STIM_005.jpg
1046.399	1.744	0	regulate	Run2	regulate/STIM_006.jpg
1051.69	1.884	1	regulate	Run2	regulate/STIM_006.jpg
1055.975	1.305	1	regulate	Run2	regulate/STIM_006.jpg
1061.249	1.126	1	regulate	Run2	regulate/STIM_006.jpg
1064.72	1.527	0	regulate	Run2	regulate/STIM_007.jpg
1070.142	1.36	1	regulate	Run2	regulate/STIM_007.jpg
1073.98	1.332	1	regulate	Run2	regulate/STIM_007.jpg
1078.752	1.146	1	regulate	Run2	regulate/STIM_007.jpg
1082.157	1.633	1	regulate	Run2	regulate/STIM_008.jpg
1086.471	1.765	1	regulate	Run2	regulate/STIM_008.jpg
1091.208	1.153	1	regulate	Run2	regulate/STIM_008.jpg
1094.439	2.0	1	regulate	Run2	regulate/STIM_008.jpg
1099.78	1.519	1	regulate	Run2	regulate/STIM_009.jpg
1104.367	2.28	1	regulate	Run2	regulate/STIM_009.jpg
1110.537	1.129	0	regulate	Run2	regulate/STIM_009.jpg
1114.731	1.187	0	regulate	Run2	regulate/STIM_009.jpg
1119.382	2.674	1	regulate	Run2	regulate/STIM_010.jpg
1125.128	1.474	1	regulate	Run2	regulate/STIM_010.jpg
1129.486	1.44	1	regulate	Run2	regulate/STIM_010.jpg
1134.012	2.154	1	regulate	Run2	regulate/STIM_010.jpg
1139.978	2.474	1	regulate	Run2	regulate/STIM_011.jpg
1144.715	2.51	1	regulate	Run2	regulate/STIM_011.jpg
1151.206	1.825	1	regulate	Run2	regulate/STIM_011.jpg
1156.001	1.437	1	regulate	Run2	regulate/STIM_011.jpg
1160.449	1.253	0	regulate	Run2	regulate/STIM_012.jpg
1165.548	1.462	1	regulate	Run2	regulate/STIM_012.jpg
1170.744	2.3	1	regulate	Run2	regulate/STIM_012.jpg
1176.632	1.842	1	regulate	Run2	regulate/STIM_012.jpg
1180.678	1.561	1	regulate	Run2	regulate/STIM_013.jpg
1184.306	1.418	1	regulate	Run2	regulate/STIM_013.jpg
1187.84	2.303	1	regulate	Run2	regulate/STIM_013.jpg
1192.495	2.039	1	regulate	Run2	regulate/STIM_013.jpg
1198.109	2.628	0	regulate	Run2	regulate/STIM_014.jpg
1202.783	1.43	0	regulate	Run2	regulate/STIM_014.jpg
1207.574	2.036	1	regulate	Run2	regulate/STIM_014.jpg
1212.811	1.458	0	regulate	Run2	regulate/STIM_014.jpg
1217.261	2.636	1	regulate	Run2	regulate/STIM_015.jpg
1223.621	1.35	1	regulate	Run2	regulate/STIM_015.jpg
1228.879	1.574	1	regulate	Run2	regulate/STIM_015.jpg
1232.909	1.112	1	regulate	Run2	regulate/STIM_015.jpg
1237.794	1.598	1	regulate	Run2	regulate/STIM_016.jpg
1242.72	2.447	1	regulate	Run2	regulate/STIM_016.jpg
1247.746	1.839	1	regulate	Run2	regulate/STIM_016.jpg
1252.267	2.225	1	regulate	Run2	regulate/STIM_016.jpg
1257.318	1.887	1	regulate	Run2	regulate/STIM_017.jpg
1261.215	2.584	0	regulate	Run2	regulate/STIM_017.jpg
1267.527	1.745	0	regulate	Run2	regulate/STIM_017.jpg
1272.989	2.276	1	regulate	Run2	regulate/STIM_017.jpg
1277.386	2.708	1	regulate	Run2	regulate/STIM_018.jpg
1283.05	1.477	1	regulate	Run2	regulate/STIM_018.jpg
1287.982	1.863	1	regulate	Run2	regulate/STIM_018.jpg
1292.02	1.898	1	regulate	Run2	regulate/STIM_018.jpg
1297.489	2.349	1	regulate	Run2	regulate/STIM_019.jpg
1303.145	2.218	1	regulate	Run2	regulate/STIM_019.jpg
1308.73	2.421	1	regulate	Run2	regulate/STIM_019.jpg
1313.977	1.736	1	regulate	Run2	regulate/STIM_019.jpg
1318.182	2.089	1	regulate	Run2	regulate/STIM_020.jpg
1324.011	1.833	1	regulate	Run2	regulate/STIM_020.jpg
1329.603	1.742	1	regulate	Run2	regulate/STIM_020.jpg
1334.919	1.46	0	regulate	Run2	regulate/STIM_020.jpg
1339.39	1.256	0	regulate	Run2	regulate/STIM_021.jpg
1342.805	1.369	1	regulate	Run2	regulate/STIM_021.jpg
1346.502	1.346	1	regulate	Run2	regulate/STIM_021.jpg
1351.563	1.192	1	regulate	Run2	regulate/STIM_021.jpg
1354.858	2.116	1	regulate	Run2	regulate/STIM_022.jpg
1360.504	2.259	1	regulate	Run2	regulate/STIM_022.jpg
1366.311	2.112	0	regulate	Run2	regulate/STIM_022.jpg
1372.268	1.096	1	regulate	Run2	regulate/STIM_022.jpg
1375.713	1.921	1	regulate	Run2	regulate/STIM_023.jpg
1381.454	1.752	1	regulate	Run2	regulate/STIM_023.jpg
1386.721	1.479	1	regulate	Run2	regulate/STIM_023.jpg
1391.973	1.768	1	regulate	Run2	regulate/STIM_023.jpg
1397.268	1.603	0	regulate	Run2	regulate/STIM_024.jpg
1402.681	1.829	1	regulate	Run2	regulate/STIM_024.jpg
1407.01	2.179	1	regulate	Run2	regulate/STIM_024.jpg
1412.313	1.458	1	regulate	Run2	regulate/STIM_024.jpg
1417.501	2.687	0	regulate	Run2	regulate/STIM_025.jpg
1422.841	2.411	1	regulate	Run2	regulate/STIM_025.jpg
1428.928	1.395	1	regulate	Run2	regulate/STIM_025.jpg
1434.181	1.903	1	regulate	Run2	regulate/STIM_025.jpg
1439.954	1.814	0	regulate	Run2	regulate/STIM_026.jpg
1445.643	1.611	1	regulate	Run2	regulate/STIM_026.jpg
1449.3	2.02	0	regulate	Run2	regulate/STIM_026.jpg
1453.842	1.228	1	regulate	Run2	regulate/STIM_026.jpg
1457.259	2.423	1	regulate	Run2	regulate/STIM_027.jpg
1463.551	2.25	1	regulate	Run2	regulate/STIM_027.jpg
1469.403	2.097	1	regulate	Run2	regulate/STIM_027.jpg
1474.955	1.639	1	regulate	Run2	regulate/STIM_027.jpg
1479.266	1.806	1	regulate	Run2	regulate/STIM_028.jpg
1483.102	1.799	0	regulate	Run2	regulate/STIM_028.jpg
1488.137	1.297	1	regulate	Run2	regulate/STIM_028.jpg
1492.605	1.598	1	regulate	Run2	regulate/STIM_028.jpg
1496.412	1.772	1	regulate	Run2	regulate/STIM_029.jpg
1500.952	2.25	1	regulate	Run2	regulate/STIM_029.jpg
1506.156	2.121	1	regulate	Run2	regulate/STIM_029.jpg
1510.958	1.205	1	regulate	Run2	regulate/STIM_029.jpg
1514.38	1.089	1	observe	Run2	observe/STIM_000.jpg
1518.817	0.916	1	observe	Run2	observe/STIM_000.jpg
1523.7	1.332	1	observe	Run2	observe/STIM_000.jpg
1528.356	0.748	1	observe	Run2	observe/STIM_000.jpg
1531.967	1.187	1	observe	Run2	observe/STIM_001.jpg
1535.525	0.902	1	observe	Run2	observe/STIM_001.jpg
1538.883	1.474	1	observe	Run2	observe/STIM_001.jpg
1542.758	1.141	0	observe	Run2	observe/STIM_001.jpg
1547.492	1.133	0	observe	Run2	observe/STIM_002.jpg
1551.018	0.825	1	observe	Run2	observe/STIM_002.jpg
1554.427	0.848	1	observe	Run2	observe/STIM_002.jpg
1557.496	0.775	1	observe	Run2	observe/STIM_002.jpg
1561.694	0.845	1	observe	Run2	observe/STIM_003.jpg
1566.296	0.924	0	observe	Run2	observe/STIM_003.jpg
1570.737	1.01	0	observe	Run2	observe/STIM_003.jpg
1575.042	1.436	1	observe	Run2	observe/STIM_003.jpg
1580.01	1.434	1	observe	Run2	observe/STIM_004.jpg
1584.617	0.805	1	observe	Run2	observe/STIM_004.jpg
1588.867	0.92	1	observe	Run2	observe/STIM_004.jpg
1592.352	1.073	0	observe	Run2	observe/STIM_004.jpg
1597.238	0.774	1	observe	Run2	observe/STIM_005.jpg
1601.227	0.811	0	observe	Run2	observe/STIM_005.jpg
1605.914	1.173	1	observe	Run2	observe/STIM_005.jpg
1609.699	1.108	1	observe	Run2	observe/STIM_005.jpg
1613.155	1.124	0	observe	Run2	observe/STIM_006.jpg
1616.591	0.944	1	observe	Run2	observe/STIM_006.jpg
1620.648	1.087	1	observe	Run2	observe/STIM_006.jpg
1623.765	0.988	1	observe	Run2	observe/STIM_006.jpg
1627.37	1.037	1	observe	Run2	observe/STIM_007.jpg
1631.831	1.409	1	observe	Run2	observe/STIM_007.jpg
1636.419	1.128	1	observe	Run2	observe/STIM_007.jpg
1640.613	0.782	0	observe	Run2	observe/STIM_007.jpg
1644.42	1.295	1	observe	Run2	observe/STIM_008.jpg
1648.314	0.945	0	observe	Run2	observe/STIM_008.jpg
1652.801	1.335	0	observe	Run2	observe/STIM_008.jpg
1657.073	0.946	0	observe	Run2	observe/STIM_008.jpg
1660.508	1.037	1	observe	Run2	observe/STIM_009.jpg
1664.753	0.956	1	observe	Run2	observe/STIM_009.jpg
1668.824	1.323	1	observe	Run2	observe/STIM_009.jpg
1672.246	0.87	1	observe	Run2	observe/STIM_009.jpg
1676.839	1.334	1	observe	Run2	observe/STIM_010.jpg
1681.002	1.286	1	observe	Run2	observe/STIM_010.jpg
1686.275	0.911	1	observe	Run2	observe/STIM_010.jpg
1690.476	1.227	1	observe	Run2	observe/STIM_010.jpg
1694.813	1.159	1	observe	Run2	observe/STIM_011.jpg
1699.446	0.994	0	observe	Run2	observe/STIM_011.jpg
1704.195	0.975	1	observe	Run2	observe/STIM_011.jpg
1708.954	1.174	1	observe	Run2	observe/STIM_011.jpg
1712.653	1.424	1	observe	Run2	observe/STIM_012.jpg
1717.505	0.747	1	observe	Run2	observe/STIM_012.jpg
1721.599	1.428	1	observe	Run2	observe/STIM_012.jpg
1725.441	1.069	1	observe	Run2	observe/STIM_012.jpg
1729.428	1.412	1	observe	Run2	observe/STIM_013.jpg
1734.765	1.144	0	observe	Run2	observe/STIM_013.jpg
1738.677	1.356	1	observe	Run2	observe/STIM_013.jpg
1742.686	0.936	1	observe	Run2	observe/STIM_013.jpg
1746.908	0.87	1	observe	Run2	observe/STIM_014.jpg
1750.076	1.271	1	observe	Run2	observe/STIM_014.jpg
1754.082	1.445	1	observe	Run2	observe/STIM_014.jpg
1758.996	0.838	1	observe	Run2	observe/STIM_014.jpg
1763.147	0.838	1	observe	Run2	observe/STIM_015.jpg
1766.46	1.456	1	observe	Run2	observe/STIM_015.jpg
1771.588	1.245	1	observe	Run2	observe/STIM_015.jpg
1775.76	1.008	1	observe	Run2	observe/STIM_015.jpg
1780.052	1.377	1	observe	Run2	observe/STIM_016.jpg
1784.357	1.359	0	observe	Run2	observe/STIM_016.jpg
1788.177	1.428	1	observe	Run2	observe/STIM_016.jpg
1791.901	1.162	0	observe	Run2	observe/STIM_016.jpg
1796.773	0.995	1	observe	Run2	observe/STIM_017.jpg
1801.437	1.046	1	observe	Run2	observe/STIM_017.jpg
1804.84	1.022	1	observe	Run2	observe/STIM_017.jpg
1809.789	0.95	1	observe	Run2	observe/STIM_017.jpg
1812.739	1.369	1	observe	Run2	observe/STIM_018.jpg
1817.376	1.24	1	observe	Run2	observe/STIM_018.jpg
1821.456	1.266	1	observe	Run2	observe/STIM_018.jpg
1826.696	1.295	1	observe	Run2	observe/STIM_018.jpg
1830.474	0.769	1	observe	Run2	observe/STIM_019.jpg
1833.427	1.414	0	observe	Run2	observe/STIM_019.jpg
1838.389	1.104	1	observe	Run2	observe/STIM_019.jpg
1843.006	1.065	1	observe	Run2	observe/STIM_019.jpg
1846.713	2.092	1	regulate	Run3	regulate/STIM_000.jpg
1852.26	1.155	1	regulate	Run3	regulate/STIM_000.jpg
1855.45	1.634	1	regulate	Run3	regulate/STIM_000.jpg
1860.535	1.925	1	regulate	Run3	regulate/STIM_000.jpg
1865.761	1.945	1	regulate	Run3	regulate/STIM_001.jpg
1870.126	1.121	1	regulate	Run3	regulate/STIM_001.jpg
1874.234	1.11	1	regulate	Run3	regulate/STIM_001.jpg
1878.269	1.853	0	regulate	Run3	regulate/STIM_001.jpg
1882.472	1.454	1	regulate	Run3	regulate/STIM_002.jpg
1886.561	1.94	1	regulate	Run3	regulate/STIM_002.jpg
1891.28	1.03	0	regulate	Run3	regulate/STIM_002.jpg
1895.929	1.252	1	regulate	Run3	regulate/STIM_002.jpg
1900.696	1.337	1	regulate	Run3	regulate/STIM_003.jpg
1905.792	1.746	1	regulate	Run3	regulate/STIM_003.jpg
1910.798	1.735	1	regulate	Run3	regulate/STIM_003.jpg
1914.908	2.177	1	regulate	Run3	regulate/STIM_003.jpg
1919.581	1.248	1	regulate	Run3	regulate/STIM_004.jpg
1922.919	1.667	1	regulate	Run3	regulate/STIM_004.jpg
1926.6	1.922	1	regulate	Run3	regulate/STIM_004.jpg
1930.524	1.552	1	regulate	Run3	regulate/STIM_004.jpg
1935.947	1.147	0	regulate	Run3	regulate/STIM_005.jpg
1940.689	1.726	1	regulate	Run3	regulate/STIM_005.jpg
1945.998	2.081	0	regulate	Run3	regulate/STIM_005.jpg
1950.16	2.003	1	regulate	Run3	regulate/STIM_005.jpg
1954.283	2.203	1	regulate	Run3	regulate/STIM_006.jpg
1959.685	1.904	1	regulate	Run3	regulate/STIM_006.jpg
1964.289	0.984	1	regulate	Run3	regulate/STIM_006.jpg
1969.076	2.142	1	regulate	Run3	regulate/STIM_006.jpg
1974.956	2.168	1	regulate	Run3	regulate/STIM_007.jpg
1979.734	1.455	1	regulate	Run3	regulate/STIM_007.jpg
1983.475	2.125	0	regulate	Run3	regulate/STIM_007.jpg
1988.627	2.102	1	regulate	Run3	regulate/STIM_007.jpg
1994.198	2.18	0	regulate	Run3	regulate/STIM_008.jpg
1998.972	1.318	1	regulate	Run3	regulate/STIM_008.jpg
2004.127	2.232	1	regulate	Run3	regulate/STIM_008.jpg
2008.495	1.091	1	regulate	Run3	regulate/STIM_008.jpg
2013.572	1.571	0	regulate	Run3	regulate/STIM_009.jpg
2017.923	1.372	1	regulate	Run3	regulate/STIM_009.jpg
2022.77	1.441	1	regulate	Run3	regulate/STIM_009.jpg
2027.58	1.963	0	regulate	Run3	regulate/STIM_009.jpg
2032.946	1.818	1	regulate	Run3	regulate/STIM_010.jpg
2037.345	2.269	1	regulate	Run3	regulate/STIM_010.jpg
2042.864	1.571	1	regulate	Run3	regulate/STIM_010.jpg
2047.623	2.159	1	regulate	Run3	regulate/STIM_010.jpg
2053.671	2.196	1	regulate	Run3	regulate/STIM_011.jpg
2058.309	2.078	1	regulate	Run3	regulate/STIM_011.jpg
2062.787	1.311	1	regulate	Run3	regulate/STIM_011.jpg
2067.22	2.157	1	regulate	Run3	regulate/STIM_011.jpg
2071.911	1.554	1	regulate	Run3	regulate/STIM_012.jpg
2077.203	1.662	1	regulate	Run3	regulate/STIM_012.jpg
2080.983	1.19	1	regulate	Run3	regulate/STIM_012.jpg
2084.248	1.032	1	regulate	Run3	regulate/STIM_012.jpg
2088.028	1.672	0	regulate	Run3	regulate/STIM_013.jpg
2093.382	1.876	1	regulate	Run3	regulate/STIM_013.jpg
2098.248	1.349	1	regulate	Run3	regulate/STIM_013.jpg
2103.416	1.777	1	regulate	Run3	regulate/STIM_013.jpg
2108.242	1.581	1	regulate	Run3	regulate/STIM_014.jpg
2112.659	1.424	1	regulate	Run3	regulate/STIM_014.jpg
2117.692	1.955	1	regulate	Run3	regulate/STIM_014.jpg
2123.587	1.761	1	regulate	Run3	regulate/STIM_014.jpg
2129.235	1.908	1	regulate	Run3	regulate/STIM_015.jpg
2135.02	1.61	1	regulate	Run3	regulate/STIM_015.jpg
2140.115	1.92	1	regulate	Run3	regulate/STIM_015.jpg
2144.681	1.599	1	regulate	Run3	regulate/STIM_015.jpg
2149.526	1.239	1	regulate	Run3	regulate/STIM_016.jpg
2153.887	1.73	1	regulate	Run3	regulate/STIM_016.jpg
2159.39	2.028	1	regulate	Run3	regulate/STIM_016.jpg
2164.612	1.079	1	regulate	Run3	regulate/STIM_016.jpg
2168.269	1.514	1	regulate	Run3	regulate/STIM_017.jpg
2172.473	1.384	1	regulate	Run3	regulate/STIM_017.jpg
2177.049	1.509	0	regulate	Run3	regulate/STIM_017.jpg
2181.831	1.32	1	regulate	Run3	regulate/STIM_017.jpg
2185.332	2.01	1	regulate	Run3	regulate/STIM_018.jpg
2191.046	1.892	1	regulate	Run3	regulate/STIM_018.jpg
2195.099	2.16	1	regulate	Run3	regulate/STIM_018.jpg
2200.483	1.652	1	regulate	Run3	regulate/STIM_018.jpg
2206.099	1.033	1	regulate	Run3	regulate/STIM_019.jpg
2210.457	1.079	1	regulate	Run3	regulate/STIM_019.jpg
2213.931	1.697	1	regulate	Run3	regulate/STIM_019.jpg
2218.975	1.287	1	regulate	Run3	regulate/STIM_019.jpg
2223.576	2.076	0	regulate	Run3	regulate/STIM_020.jpg
2229.064	2.123	1	regulate	Run3	regulate/STIM_020.jpg
2234.437	1.934	1	regulate	Run3	regulate/STIM_020.jpg
2240.367	1.322	1	regulate	Run3	regulate/STIM_020.jpg
2243.854	1.639	1	regulate	Run3	regulate/STIM_021.jpg
2248.214	2.066	1	regulate	Run3	regulate/STIM_021.jpg
2254.066	2.196	0	regulate	Run3	regulate/STIM_021.jpg
2259.585	1.524	1	regulate	Run3	regulate/STIM_021.jpg
2264.451	1.565	1	regulate	Run3	regulate/STIM_022.jpg
2269.894	1.382	1	regulate	Run3	regulate/STIM_022.jpg
2275.173	2.026	1	regulate	Run3	regulate/STIM_022.jpg
2280.998	2.042	0	regulate	Run3	regulate/STIM_022.jpg
2287.032	1.161	1	regulate	Run3	regulate/STIM_023.jpg
2291.511	2.129	1	regulate	Run3	regulate/STIM_023.jpg
2297.016	1.999	1	regulate	Run3	regulate/STIM_023.jpg
2302.575	2.153	1	regulate	Run3	regulate/STIM_023.jpg
2308.097	1.95	1	regulate	Run3	regulate/STIM_024.jpg
2313.463	2.037	1	regulate	Run3	regulate/STIM_024.jpg
2318.251	1.924	1	regulate	Run3	regulate/STIM_024.jpg
2322.481	2.218	1	regulate	Run3	regulate/STIM_024.jpg
2327.268	1.362	1	regulate	Run3	regulate/STIM_025.jpg
2331.855	1.015	1	regulate	Run3	regulate/STIM_025.jpg
2334.974	1.358	1	regulate	Run3	regulate/STIM_025.jpg
2339.142	1.426	0	regulate	Run3	regulate/STIM_025.jpg
2343.745	1.65	1	regulate	Run3	regulate/STIM_026.jpg
2347.796	2.192	0	regulate	Run3	regulate/STIM_026.jpg
2352.305	1.456	1	regulate	Run3	regulate/STIM_026.jpg
2355.954	1.443	1	regulate	Run3	regulate/STIM_026.jpg
2359.975	1.468	1	regulate	Run3	regulate/STIM_027.jpg
2363.791	1.98	1	regulate	Run3	regulate/STIM_027.jpg
2368.361	1.966	1	regulate	Run3	regulate/STIM_027.jpg
2373.551	1.322	1	regulate	Run3	regulate/STIM_027.jpg
2377.432	1.915	1	regulate	Run3	regulate/STIM_028.jpg
2382.962	1.683	1	regulate	Run3	regulate/STIM_028.jpg
2388.247	2.218	1	regulate	Run3	regulate/STIM_028.jpg
2393.113	1.526	1	regulate	Run3	regulate/STIM_028.jpg
2396.828	1.313	1	regulate	Run3	regulate/STIM_029.jpg
2400.969	1.849	1	regulate	Run3	regulate/STIM_029.jpg
2405.469	1.341	1	regulate	Run3	regulate/STIM_029.jpg
2409.844	1.711	1	regulate	Run3	regulate/STIM_029.jpg
2414.732	1.493	1	observe	Run3	observe/STIM_000.jpg
2418.924	1.477	1	observe	Run3	observe/STIM_000.jpg
2422.92	1.128	1	observe	Run3	observe/STIM_000.jpg
2427.43	1.287	1	observe	Run3	observe/STIM_000.jpg
2431.537	1.15	1	observe	Run3	observe/STIM_001.jpg
2435.495	1.431	1	observe	Run3	observe/STIM_001.jpg
2439.487	1.226	1	observe	Run3	observe/STIM_001.jpg
2443.417	1.429	1	observe	Run3	observe/STIM_001.jpg
2447.346	0.991	1	observe	Run3	observe/STIM_002.jpg
2450.899	1.17	1	observe	Run3	observe/STIM_002.jpg
2454.515	1.291	1	observe	Run3	observe/STIM_002.jpg
2459.256	1.487	1	observe	Run3	observe/STIM_002.jpg
2463.769	1.365	1	observe	Run3	observe/STIM_003.jpg
2467.23	1.478	1	observe	Run3	observe/STIM_003.jpg
2471.595	1.222	1	observe	Run3	observe/STIM_003.jpg
2474.883	1.022	0	observe	Run3	observe/STIM_003.jpg
2478.288	1.391	1	observe	Run3	observe/STIM_004.jpg
2482.572	0.816	1	observe	Run3	observe/STIM_004.jpg
2486.815	1.426	1	observe	Run3	observe/STIM_004.jpg
2491.832	1.153	1	observe	Run3	observe/STIM_004.jpg
2496.375	1.38	1	observe	Run3	observe/STIM_005.jpg
2501.467	0.865	1	observe	Run3	observe/STIM_005.jpg
2505.335	1.462	1	observe	Run3	observe/STIM_005.jpg
2510.653	1.076	1	observe	Run3	observe/STIM_005.jpg
2515.337	0.92	1	observe	Run3	observe/STIM_006.jpg
2519.672	1.172	1	observe	Run3	observe/STIM_006.jpg
2523.277	0.794	1	observe	Run3	observe/STIM_006.jpg
2526.075	1.398	1	observe	Run3	observe/STIM_006.jpg
2530.046	0.992	1	observe	Run3	observe/STIM_007.jpg
2534.833	0.843	1	observe	Run3	observe/STIM_007.jpg
2538.519	0.842	1	observe	Run3	observe/STIM_007.jpg
2542.987	1.007	1	observe	Run3	observe/STIM_007.jpg
2547.412	1.248	1	observe	Run3	observe/STIM_008.jpg
2551.693	1.371	1	observe	Run3	observe/STIM_008.jpg
2555.351	1.117	0	observe	Run3	observe/STIM_008.jpg
2558.994	1.004	1	observe	Run3	observe/STIM_008.jpg
2562.568	1.331	1	observe	Run3	observe/STIM_009.jpg
2565.994	0.76	1	observe	Run3	observe/STIM_009.jpg
2570.016	0.891	1	observe	Run3	observe/STIM_009.jpg
2573.147	1.349	1	observe	Run3	observe/STIM_009.jpg
2578.419	0.915	1	observe	Run3	observe/STIM_010.jpg
2581.719	0.971	1	observe	Run3	observe/STIM_010.jpg
2585.747	0.967	0	observe	Run3	observe/STIM_010.jpg
2589.881	0.852	1	observe	Run3	observe/STIM_010.jpg
2594.341	0.792	0	observe	Run3	observe/STIM_011.jpg
2598.704	1.266	1	observe	Run3	observe/STIM_011.jpg
2602.545	1.173	1	observe	Run3	observe/STIM_011.jpg
2606.565	1.037	1	observe	Run3	observe/STIM_011.jpg
2610.422	1.185	1	observe	Run3	observe/STIM_012.jpg
2615.486	0.959	0	observe	Run3	observe/STIM_012.jpg
2619.775	1.378	1	observe	Run3	observe/STIM_012.jpg
2624.097	0.871	1	observe	Run3	observe/STIM_012.jpg
2627.773	1.491	1	observe	Run3	observe/STIM_013.jpg
2632.61	1.283	1	observe	Run3	observe/STIM_013.jpg
2637.076	1.151	1	observe	Run3	observe/STIM_013.jpg
2641.769	0.828	1	observe	Run3	observe/STIM_013.jpg
2645.161	0.983	1	observe	Run3	observe/STIM_014.jpg
2649.952	1.117	0	observe	Run3	observe/STIM_014.jpg
2654.835	1.013	1	observe	Run3	observe/STIM_014.jpg
2659.292	0.898	1	observe	Run3	observe/STIM_014.jpg
2664.079	1.149	1	observe	Run3	observe/STIM_015.jpg
2668.397	1.237	1	observe	Run3	observe/STIM_015.jpg
2672.272	0.986	1	observe	Run3	observe/STIM_015.jpg
2675.566	0.762	1	observe	Run3	observe/STIM_015.jpg
2679.746	1.239	1	observe	Run3	observe/STIM_016.jpg
2684.431	0.778	0	observe	Run3	observe/STIM_016.jpg
2687.721	1.046	1	observe	Run3	observe/STIM_016.jpg
2692.557	1.065	0	observe	Run3	observe/STIM_016.jpg
2696.074	0.866	1	observe	Run3	observe/STIM_017.jpg
2700.928	1.451	1	observe	Run3	observe/STIM_017.jpg
2705.317	1.331	1	observe	Run3	observe/STIM_017.jpg
2708.674	1.263	1	observe	Run3	observe/STIM_017.jpg
2712.462	1.15	1	observe	Run3	observe/STIM_018.jpg
2716.225	1.063	0	observe	Run3	observe/STIM_018.jpg
2720.121	0.838	1	observe	Run3	observe/STIM_018.jpg
2723.562	1.397	1	observe	Run3	observe/STIM_018.jpg
2728.567	1.132	0	observe	Run3	observe/STIM_019.jpg
2733.68	0.95	1	observe	Run3	observe/STIM_019.jpg
2738.002	0.876	1	observe	Run3	observe/STIM_019.jpg
2742.556	1.002	1	observe	Run3	observe/STIM_019.jpg
