onset	duration	response_time_ms	trial_type	learning_stage	stimulus	response_port
0.0	1.937	1936.8	regulate	Run1	regulate/STIM_000.jpg	100
4.862	2.495	2494.7	regulate	Run1	regulate/STIM_000.jpg	100
11.088	2.408	2408.1	regulate	Run1	regulate/STIM_000.jpg	100
15.849	1.656	1655.6	regulate	Run1	regulate/STIM_000.jpg	100
20.475	3.33	3330.0	regulate	Run1	regulate/STIM_001.jpg	99
27.532	2.307	2307.3	regulate	Run1	regulate/STIM_001.jpg	100
31.947	1.924	1924.4	regulate	Run1	regulate/STIM_001.jpg	99
37.755	2.21	2209.6	regulate	Run1	regulate/STIM_001.jpg	99
43.066	3.416	3415.8	regulate	Run1	regulate/STIM_002.jpg	99
49.522	2.401	2400.9	regulate	Run1	regulate/STIM_002.jpg	99
55.675	2.678	2678.4	regulate	Run1	regulate/STIM_002.jpg	100
61.421	2.354	2354.3	regulate	Run1	regulate/STIM_002.jpg	100
67.635	2.009	2009.0	regulate	Run1	regulate/STIM_003.jpg	100
72.108	3.272	3271.8	regulate	Run1	regulate/STIM_003.jpg	100
77.484	2.902	2901.6	regulate	Run1	regulate/STIM_003.jpg	99
83.056	1.816	1815.9	regulate	Run1	regulate/STIM_003.jpg	100
87.869	1.639	1638.8	regulate	Run1	regulate/STIM_004.jpg	99
93.101	1.469	1468.8	regulate	Run1	regulate/STIM_004.jpg	100
96.7	2.267	2267.4	regulate	Run1	regulate/STIM_004.jpg	100
101.783	2.326	2326.3	regulate	Run1	regulate/STIM_004.jpg	99
107.815	2.778	2777.8	regulate	Run1	regulate/STIM_005.jpg	100
113.005	1.934	1934.1	regulate	Run1	regulate/STIM_005.jpg	100
118.889	2.094	2093.9	regulate	Run1	regulate/STIM_005.jpg	99
124.882	2.864	2864.5	regulate	Run1	regulate/STIM_005.jpg	100
130.587	1.939	1938.9	regulate	Run1	regulate/STIM_006.jpg	99
135.533	1.641	1641.3	regulate	Run1	regulate/STIM_006.jpg	99
139.527	2.397	2397.4	regulate	Run1	regulate/STIM_006.jpg	100
145.308	2.062	2061.8	regulate	Run1	regulate/STIM_006.jpg	99
149.414	3.393	3393.3	regulate	Run1	regulate/STIM_007.jpg	100
155.19	3.106	3106.2	regulate	Run1	regulate/STIM_007.jpg	100
161.08	1.813	1813.3	regulate	Run1	regulate/STIM_007.jpg	100
166.597	2.283	2283.0	regulate	Run1	regulate/STIM_007.jpg	99
171.117	2.864	2863.6	regulate	Run1	regulate/STIM_008.jpg	100
176.99	3.106	3105.5	regulate	Run1	regulate/STIM_008.jpg	100
183.75	3.21	3210.3	regulate	Run1	regulate/STIM_008.jpg	100
190.391	2.591	2591.1	regulate	Run1	regulate/STIM_008.jpg	100
195.297	1.742	1741.5	regulate	Run1	regulate/STIM_009.jpg	100
199.265	2.053	2053.1	regulate	Run1	regulate/STIM_009.jpg	99
204.362	2.482	2481.7	regulate	Run1	regulate/STIM_009.jpg	100
209.251	2.518	2517.6	regulate	Run1	regulate/STIM_009.jpg	100
215.119	3.464	3464.4	regulate	Run1	regulate/STIM_010.jpg	100
220.697	2.12	2120.3	regulate	Run1	regulate/STIM_010.jpg	99
226.41	1.719	1718.8	regulate	Run1	regulate/STIM_010.jpg	99
231.766	1.424	1423.9	regulate	Run1	regulate/STIM_010.jpg	99
236.422	2.201	2200.7	regulate	Run1	regulate/STIM_011.jpg	100
240.665	2.343	2343.1	regulate	Run1	regulate/STIM_011.jpg	99
245.14	2.614	2614.3	regulate	Run1	regulate/STIM_011.jpg	100
250.222	1.484	1484.4	regulate	Run1	regulate/STIM_011.jpg	100
254.578	3.051	3050.8	regulate	Run1	regulate/STIM_012.jpg	99
259.859	2.576	2576.1	regulate	Run1	regulate/STIM_012.jpg	99
265.563	2.56	2559.8	regulate	Run1	regulate/STIM_012.jpg	100
271.652	1.36	1360.0	regulate	Run1	regulate/STIM_012.jpg	100
276.906	1.778	1777.6	regulate	Run1	regulate/STIM_013.jpg	99
282.381	2.486	2486.2	regulate	Run1	regulate/STIM_013.jpg	99
288.246	3.21	3210.5	regulate	Run1	regulate/STIM_013.jpg	100
294.329	1.959	1959.2	regulate	Run1	regulate/STIM_013.jpg	100
300.044	3.076	3075.6	regulate	Run1	regulate/STIM_014.jpg	100
305.369	1.812	1812.4	regulate	Run1	regulate/STIM_014.jpg	100
310.956	2.734	2733.7	regulate	Run1	regulate/STIM_014.jpg	99
316.806	2.721	2721.1	regulate	Run1	regulate/STIM_014.jpg	100
322.474	2.819	2819.0	regulate	Run1	regulate/STIM_015.jpg	100
328.698	2.126	2126.5	regulate	Run1	regulate/STIM_015.jpg	99
333.969	2.189	2189.2	regulate	Run1	regulate/STIM_015.jpg	99
339.873	2.869	2869.2	regulate	Run1	regulate/STIM_015.jpg	99
345.899	3.481	3481.2	regulate	Run1	regulate/STIM_016.jpg	99
351.697	2.044	2044.1	regulate	Run1	regulate/STIM_016.jpg	100
357.6	1.925	1925.3	regulate	Run1	regulate/STIM_016.jpg	100
362.805	2.44	2440.2	regulate	Run1	regulate/STIM_016.jpg	100
368.74	3.448	3447.5	regulate	Run1	regulate/STIM_017.jpg	100
375.573	2.261	2261.3	regulate	Run1	regulate/STIM_017.jpg	100
381.463	1.905	1905.0	regulate	Run1	regulate/STIM_017.jpg	100
386.144	1.881	1880.6	regulate	Run1	regulate/STIM_017.jpg	99
391.425	3.351	3351.1	regulate	Run1	regulate/STIM_018.jpg	100
398.017	2.786	2786.3	regulate	Run1	regulate/STIM_018.jpg	99
403.636	3.06	3059.9	regulate	Run1	regulate/STIM_018.jpg	99
409.011	2.746	2746.4	regulate	Run1	regulate/STIM_018.jpg	99
415.493	1.915	1914.7	regulate	Run1	regulate/STIM_019.jpg	100
420.873	3.279	3279.4	regulate	Run1	regulate/STIM_019.jpg	100
427.681	2.332	2332.1	regulate	Run1	regulate/STIM_019.jpg	100
433.411	1.712	1712.1	regulate	Run1	regulate/STIM_019.jpg	100
438.264	2.214	2214.2	regulate	Run1	regulate/STIM_020.jpg	100
442.65	1.838	1838.5	regulate	Run1	regulate/STIM_020.jpg	99
447.619	2.585	2585.1	regulate	Run1	regulate/STIM_020.jpg	100
454.082	2.005	2004.7	regulate	Run1	regulate/STIM_020.jpg	100
459.552	3.389	3389.2	regulate	Run1	regulate/STIM_021.jpg	100
466.059	1.543	1542.9	regulate	Run1	regulate/STIM_021.jpg	99
471.107	2.046	2045.9	regulate	Run1	regulate/STIM_021.jpg	100
475.24	1.312	1312.3	regulate	Run1	regulate/STIM_021.jpg	99
479.509	3.419	3418.9	regulate	Run1	regulate/STIM_022.jpg	100
484.991	2.01	2009.5	regulate	Run1	regulate/STIM_022.jpg	99
490.59	2.468	2468.2	regulate	Run1	regulate/STIM_022.jpg	99
496.506	2.422	2422.5	regulate	Run1	regulate/STIM_022.jpg	100
502.381	2.554	2553.7	regulate	Run1	regulate/STIM_023.jpg	100
508.353	2.619	2619.1	regulate	Run1	regulate/STIM_023.jpg	99
513.5	2.943	2943.0	regulate	Run1	regulate/STIM_023.jpg	100
518.802	1.374	1374.2	regulate	Run1	regulate/STIM_023.jpg	100
522.346	1.678	1677.9	regulate	Run1	regulate/STIM_024.jpg	99
527.135	3.368	3367.7	regulate	Run1	regulate/STIM_024.jpg	99
534.044	2.249	2249.0	regulate	Run1	regulate/STIM_024.jpg	99
539.732	2.744	2744.1	regulate	Run1	regulate/STIM_024.jpg	100
546.396	2.542	2541.8	regulate	Run1	regulate/STIM_025.jpg	99
551.396	1.811	1811.2	regulate	Run1	regulate/STIM_025.jpg	100
555.32	2.253	2252.9	regulate	Run1	regulate/STIM_025.jpg	99
560.205	2.301	2301.3	regulate	Run1	regulate/STIM_025.jpg	100
564.912	2.393	2392.8	regulate	Run1	regulate/STIM_026.jpg	99
569.637	2.322	2321.8	regulate	Run1	regulate/STIM_026.jpg	99
575.445	1.606	1606.5	regulate	Run1	regulate/STIM_026.jpg	100
580.186	2.364	2363.6	regulate	Run1	regulate/STIM_026.jpg	100
584.769	3.38	3380.5	regulate	Run1	regulate/STIM_027.jpg	100
590.852	2.912	2912.5	regulate	Run1	regulate/STIM_027.jpg	100
597.448	1.418	1418.4	regulate	Run1	regulate/STIM_027.jpg	99
601.06	2.311	2310.9	regulate	Run1	regulate/STIM_027.jpg	100
607.256	2.361	2360.9	regulate	Run1	regulate/STIM_028.jpg	100
613.339	1.456	1455.7	regulate	Run1	regulate/STIM_028.jpg	100
616.937	1.781	1781.3	regulate	Run1	regulate/STIM_028.jpg	99
621.407	2.157	2156.8	regulate	Run1	regulate/STIM_028.jpg	99
625.979	1.696	1695.6	regulate	Run1	regulate/STIM_029.jpg	99
631.381	1.699	1699.1	regulate	Run1	regulate/STIM_029.jpg	99
636.181	1.998	1998.5	regulate	Run1	regulate/STIM_029.jpg	99
641.071	1.823	1823.0	regulate	Run1	regulate/STIM_029.jpg	100
645.797	1.243	1243.3	observe	Run1	observe/STIM_000.jpg	99
650.975	1.08	1079.7	observe	Run1	observe/STIM_000.jpg	100
655.497	0.984	984.4	observe	Run1	observe/STIM_000.jpg	99
658.946	0.928	928.3	observe	Run1	observe/STIM_000.jpg	100
662.757	1.226	1226.5	observe	Run1	observe/STIM_001.jpg	100
666.471	1.214	1214.0	observe	Run1	observe/STIM_001.jpg	100
671.057	1.462	1461.6	observe	Run1	observe/STIM_001.jpg	100
676.473	1.604	1604.5	observe	Run1	observe/STIM_001.jpg	100
680.89	0.994	993.5	observe	Run1	observe/STIM_002.jpg	100
685.017	1.152	1152.4	observe	Run1	observe/STIM_002.jpg	99
690.117	1.243	1243.1	observe	Run1	observe/STIM_002.jpg	100
694.544	0.953	953.0	observe	Run1	observe/STIM_002.jpg	100
699.291	0.867	867.3	observe	Run1	observe/STIM_003.jpg	100
704.112	0.975	974.8	observe	Run1	observe/STIM_003.jpg	99
707.963	1.12	1120.4	observe	Run1	observe/STIM_003.jpg	99
711.483	1.602	1601.6	observe	Run1	observe/STIM_003.jpg	99
715.734	1.618	1617.5	observe	Run1	observe/STIM_004.jpg	100
720.137	1.428	1428.0	observe	Run1	observe/STIM_004.jpg	99
725.235	1.514	1514.4	observe	Run1	observe/STIM_004.jpg	99
729.676	0.982	982.4	observe	Run1	observe/STIM_004.jpg	100
733.843	1.057	1057.2	observe	Run1	observe/STIM_005.jpg	100
737.353	1.099	1098.6	observe	Run1	observe/STIM_005.jpg	99
740.825	1.515	1515.4	observe	Run1	observe/STIM_005.jpg	100
744.698	0.884	883.5	observe	Run1	observe/STIM_005.jpg	100
747.687	1.566	1565.9	observe	Run1	observe/STIM_006.jpg	100
752.511	0.845	845.1	observe	Run1	observe/STIM_006.jpg	100
756.28	0.823	822.6	observe	Run1	observe/STIM_006.jpg	100
759.208	0.882	882.4	observe	Run1	observe/STIM_006.jpg	99
762.347	1.08	1080.0	observe	Run1	observe/STIM_007.jpg	100
765.662	1.606	1606.5	observe	Run1	observe/STIM_007.jpg	99
769.637	1.357	1356.8	observe	Run1	observe/STIM_007.jpg	99
773.176	1.306	1306.2	observe	Run1	observe/STIM_007.jpg	99
776.752	0.953	953.4	observe	Run1	observe/STIM_008.jpg	99
779.921	1.416	1416.3	observe	Run1	observe/STIM_008.jpg	100
785.233	0.974	974.0	observe	Run1	observe/STIM_008.jpg	100
789.167	1.541	1540.7	observe	Run1	observe/STIM_008.jpg	99
793.825	0.888	887.6	observe	Run1	observe/STIM_009.jpg	99
797.686	0.864	864.4	observe	Run1	observe/STIM_009.jpg	99
801.192	1.561	1561.4	observe	Run1	observe/STIM_009.jpg	99
805.408	0.979	978.8	observe	Run1	observe/STIM_009.jpg	99
808.829	1.507	1506.7	observe	Run1	observe/STIM_010.jpg	99
812.449	1.601	1600.7	observe	Run1	observe/STIM_010.jpg	99
817.956	1.494	1493.5	observe	Run1	observe/STIM_010.jpg	100
821.826	1.595	1594.9	observe	Run1	observe/STIM_010.jpg	100
825.813	1.218	1218.5	observe	Run1	observe/STIM_011.jpg	100
831.002	1.412	1412.3	observe	Run1	observe/STIM_011.jpg	99
834.524	1.427	1427.0	observe	Run1	observe/STIM_011.jpg	99
838.291	1.588	1588.0	observe	Run1	observe/STIM_011.jpg	99
842.51	1.119	1119.3	observe	Run1	observe/STIM_012.jpg	99
846.735	1.359	1359.4	observe	Run1	observe/STIM_012.jpg	99
851.861	1.281	1280.6	observe	Run1	observe/STIM_012.jpg	99
856.505	1.367	1366.7	observe	Run1	observe/STIM_012.jpg	100
860.063	1.429	1429.4	observe	Run1	observe/STIM_013.jpg	99
865.034	1.373	1373.3	observe	Run1	observe/STIM_013.jpg	100
870.005	0.943	943.2	observe	Run1	observe/STIM_013.jpg	100
873.599	1.578	1577.7	observe	Run1	observe/STIM_013.jpg	100
877.22	1.529	1528.7	observe	Run1	observe/STIM_014.jpg	99
881.371	1.283	1283.3	observe	Run1	observe/STIM_014.jpg	100
886.017	0.968	967.5	observe	Run1	observe/STIM_014.jpg	100
889.865	1.556	1556.0	observe	Run1	observe/STIM_014.jpg	100
895.217	1.499	1498.7	observe	Run1	observe/STIM_015.jpg	100
899.05	0.981	980.6	observe	Run1	observe/STIM_015.jpg	99
902.586	1.469	1468.7	observe	Run1	observe/STIM_015.jpg	100
906.776	1.045	1045.4	observe	Run1	observe/STIM_015.jpg	100
910.941	0.822	822.5	observe	Run1	observe/STIM_016.jpg	99
915.42	1.021	1020.8	observe	Run1	observe/STIM_016.jpg	100
919.58	1.252	1252.1	observe	Run1	observe/STIM_016.jpg	100
923.021	1.524	1524.0	observe	Run1	observe/STIM_016.jpg	100
926.781	0.873	872.9	observe	Run1	observe/STIM_017.jpg	99
930.282	1.38	1379.5	observe	Run1	observe/STIM_017.jpg	100
935.201	1.121	1121.2	observe	Run1	observe/STIM_017.jpg	100
938.317	1.323	1323.1	observe	Run1	observe/STIM_017.jpg	99
941.869	0.988	987.5	observe	Run1	observe/STIM_018.jpg	100
946.781	1.112	1112.2	observe	Run1	observe/STIM_018.jpg	99
951.861	0.844	843.6	observe	Run1	observe/STIM_018.jpg	100
954.922	1.299	1299.3	observe	Run1	observe/STIM_018.jpg	100
958.227	1.304	1304.2	observe	Run1	observe/STIM_019.jpg	99
961.878	1.318	1317.7	observe	Run1	observe/STIM_019.jpg	99
967.092	1.35	1349.8	observe	Run1	observe/STIM_019.jpg	100
970.586	1.456	1456.5	observe	Run1	observe/STIM_019.jpg	99
975.134	2.201	2201.4	regulate	Run2	regulate/STIM_000.jpg	99
980.93	2.76	2759.9	regulate	Run2	regulate/STIM_000.jpg	99
985.668	1.685	1685.0	regulate	Run2	regulate/STIM_000.jpg	99
990.813	1.94	1939.8	regulate	Run2	regulate/STIM_000.jpg	99
996.415	1.853	1852.7	regulate	Run2	regulate/STIM_001.jpg	99
1001.893	1.464	1464.1	regulate	Run2	regulate/STIM_001.jpg	99
1005.784	1.3	1299.8	regulate	Run2	regulate/STIM_001.jpg	99
1010.71	2.292	2291.6	regulate	Run2	regulate/STIM_001.jpg	100
1015.03	2.97	2970.5	regulate	Run2	regulate/STIM_002.jpg	99
1020.009	2.528	2527.6	regulate	Run2	regulate/STIM_002.jpg	100
1026.157	1.804	1804.5	regulate	Run2	regulate/STIM_002.jpg	99
1031.781	2.011	2011.0	regulate	Run2	regulate/STIM_002.jpg	100
1037.023	1.694	1693.7	regulate	Run2	regulate/STIM_003.jpg	100
1041.044	1.827	1827.2	regulate	Run2	regulate/STIM_003.jpg	100
1046.704	1.67	1669.9	regulate	Run2	regulate/STIM_003.jpg	99
1050.896	2.389	2388.7	regulate	Run2	regulate/STIM_003.jpg	100
1055.873	1.726	1726.4	regulate	Run2	regulate/STIM_004.jpg	100
1061.262	2.326	2325.9	regulate	Run2	regulate/STIM_004.jpg	99
1066.549	1.776	1776.3	regulate	Run2	regulate/STIM_004.jpg	100
1070.647	1.674	1674.2	regulate	Run2	regulate/STIM_004.jpg	100
1075.065	1.654	1654.5	regulate	Run2	regulate/STIM_005.jpg	100
1080.035	2.528	2528.2	regulate	Run2	regulate/STIM_005.jpg	100
1085.516	2.335	2334.6	regulate	Run2	regulate/STIM_005.jpg	99
1090.925	1.624	1624.2	regulate	Run2	regulate/STIM_005.jpg	100
1095.332	2.04	2040.1	regulate	Run2	regulate/STIM_006.jpg	100
1100.396	2.623	2622.6	regulate	Run2	regulate/STIM_006.jpg	100
1105.408	1.239	1239.0	regulate	Run2	regulate/STIM_006.jpg	99
1109.475	2.444	2443.9	regulate	Run2	regulate/STIM_006.jpg	100
1114.646	2.215	2215.1	regulate	Run2	regulate/STIM_007.jpg	100
1119.242	1.63	1629.6	regulate	Run2	regulate/STIM_007.jpg	100
1123.416	2.576	2576.2	regulate	Run2	regulate/STIM_007.jpg	100
1128.426	2.033	2033.1	regulate	Run2	regulate/STIM_007.jpg	100
1132.484	2.64	2640.4	regulate	Run2	regulate/STIM_008.jpg	100
1137.181	2.722	2722.4	regulate	Run2	regulate/STIM_008.jpg	99
1143.071	2.401	2400.6	regulate	Run2	regulate/STIM_008.jpg	99
1147.678	1.438	1438.5	regulate	Run2	regulate/STIM_008.jpg	99
1151.557	1.52	1520.2	regulate	Run2	regulate/STIM_009.jpg	100
1155.348	1.932	1932.0	regulate	Run2	regulate/STIM_009.jpg	100
1159.318	1.697	1696.6	regulate	Run2	regulate/STIM_009.jpg	99
1163.305	2.207	2207.3	regulate	Run2	regulate/STIM_009.jpg	100
1168.034	2.456	2455.8	regulate	Run2	regulate/STIM_010.jpg	100
1174.041	2.442	2442.5	regulate	Run2	regulate/STIM_010.jpg	100
1179.835	1.16	1160.1	regulate	Run2	regulate/STIM_010.jpg	100
1184.689	1.244	1243.9	regulate	Run2	regulate/STIM_010.jpg	100
1188.949	2.744	2743.9	regulate	Run2	regulate/STIM_011.jpg	100
1195.486	2.4	2399.8	regulate	Run2	regulate/STIM_011.jpg	99
1201.791	1.593	1592.9	regulate	Run2	regulate/STIM_011.jpg	100
1206.769	1.862	1862.5	regulate	Run2	regulate/STIM_011.jpg	99
1211.377	2.252	2252.1	regulate	Run2	regulate/STIM_012.jpg	99
1216.149	1.881	1881.3	regulate	Run2	regulate/STIM_012.jpg	99
1221.61	2.295	2294.6	regulate	Run2	regulate/STIM_012.jpg	99
1226.993	1.163	1163.0	regulate	Run2	regulate/STIM_012.jpg	100
1231.243	1.469	1468.7	regulate	Run2	regulate/STIM_013.jpg	100
1236.048	1.902	1902.3	regulate	Run2	regulate/STIM_013.jpg	100
1241.197	1.865	1865.4	regulate	Run2	regulate/STIM_013.jpg	99
1246.346	1.832	1831.7	regulate	Run2	regulate/STIM_013.jpg	100
1251.308	2.504	2504.2	regulate	Run2	regulate/STIM_014.jpg	100
1257.473	2.847	2846.6	regulate	Run2	regulate/STIM_014.jpg	99
1262.413	1.733	1733.3	regulate	Run2	regulate/STIM_014.jpg	100
1267.965	2.396	2395.8	regulate	Run2	regulate/STIM_014.jpg	100
1272.752	2.135	2134.8	regulate	Run2	regulate/STIM_015.jpg	99
1278.776	2.429	2428.8	regulate	Run2	regulate/STIM_015.jpg	100
1284.733	1.554	1554.4	regulate	Run2	regulate/STIM_015.jpg	99
1290.143	2.406	2405.7	regulate	Run2	regulate/STIM_015.jpg	99
1295.325	1.704	1703.8	regulate	Run2	regulate/STIM_016.jpg	100
1300.896	1.309	1308.9	regulate	Run2	regulate/STIM_016.jpg	99
1305.28	1.181	1180.8	regulate	Run2	regulate/STIM_016.jpg	99
1310.298	1.734	1734.2	regulate	Run2	regulate/STIM_016.jpg	99
1314.772	2.651	2651.2	regulate	Run2	regulate/STIM_017.jpg	99
1319.562	1.41	1409.5	regulate	Run2	regulate/STIM_017.jpg	99
1324.36	1.242	1242.0	regulate	Run2	regulate/STIM_017.jpg	100
1327.641	2.44	2440.1	regulate	Run2	regulate/STIM_017.jpg	99
1332.248	2.732	2732.2	regulate	Run2	regulate/STIM_018.jpg	100
1338.339	2.088	2088.3	regulate	Run2	regulate/STIM_018.jpg	100
1342.572	2.178	2178.2	regulate	Run2	regulate/STIM_018.jpg	100
1347.623	2.157	2157.2	regulate	Run2	regulate/STIM_018.jpg	100
1353.276	2.819	2818.6	regulate	Run2	regulate/STIM_019.jpg	99
1358.065	1.806	1805.8	regulate	Run2	regulate/STIM_019.jpg	99
1363.338	2.14	2139.7	regulate	Run2	regulate/STIM_019.jpg	100
1368.681	2.192	2191.8	regulate	Run2	regulate/STIM_019.jpg	99
1374.827	1.888	1887.6	regulate	Run2	regulate/STIM_020.jpg	100
1378.72	1.637	1637.0	regulate	Run2	regulate/STIM_020.jpg	99
1382.403	2.244	2243.9	regulate	Run2	regulate/STIM_020.jpg	99
1387.471	1.808	1808.4	regulate	Run2	regulate/STIM_020.jpg	100
1391.656	1.607	1606.9	regulate	Run2	regulate/STIM_021.jpg	100
1397.07	2.734	2733.6	regulate	Run2	regulate/STIM_021.jpg	99
1402.598	2.201	2200.9	regulate	Run2	regulate/STIM_021.jpg	99
1407.505	2.272	2272.1	regulate	Run2	regulate/STIM_021.jpg	99
1412.663	1.578	1578.3	regulate	Run2	regulate/STIM_022.jpg	99
1417.495	2.285	2285.3	regulate	Run2	regulate/STIM_022.jpg	99
1422.103	1.18	1179.7	regulate	Run2	regulate/STIM_022.jpg	100
1425.672	1.676	1675.6	regulate	Run2	regulate/STIM_022.jpg	99
1430.17	1.725	1725.2	regulate	Run2	regulate/STIM_023.jpg	100
1435.453	1.429	1429.2	regulate	Run2	regulate/STIM_023.jpg	100
1440.696	1.479	1478.8	regulate	Run2	regulate/STIM_023.jpg	100
1444.45	1.518	1518.3	regulate	Run2	regulate/STIM_023.jpg	100
1448.693	2.89	2889.6	regulate	Run2	regulate/STIM_024.jpg	99
1453.532	2.002	2002.1	regulate	Run2	regulate/STIM_024.jpg	100
1459.152	1.62	1619.8	regulate	Run2	regulate/STIM_024.jpg	100
1463.598	1.217	1216.6	regulate	Run2	regulate/STIM_024.jpg	100
1467.322	1.815	1815.4	regulate	Run2	regulate/STIM_025.jpg	99
1472.584	2.638	2638.3	regulate	Run2	regulate/STIM_025.jpg	100
1477.807	2.224	2223.8	regulate	Run2	regulate/STIM_025.jpg	100
1482.262	1.621	1621.1	regulate	Run2	regulate/STIM_025.jpg	100
1487.647	1.454	1453.5	regulate	Run2	regulate/STIM_026.jpg	99
1492.523	2.69	2689.5	regulate	Run2	regulate/STIM_026.jpg	99
1498.801	1.993	1993.3	regulate	Run2	regulate/STIM_026.jpg	100
1504.174	2.268	2268.0	regulate	Run2	regulate/STIM_026.jpg	99
1509.995	1.808	1807.7	regulate	Run2	regulate/STIM_027.jpg	100
1514.226	2.059	2059.3	regulate	Run2	regulate/STIM_027.jpg	100
1519.155	1.239	1238.7	regulate	Run2	regulate/STIM_027.jpg	99
1523.36	1.442	1441.6	regulate	Run2	regulate/STIM_027.jpg	100
1527.415	2.81	2810.5	regulate	Run2	regulate/STIM_028.jpg	100
1533.723	2.449	2449.1	regulate	Run2	regulate/STIM_028.jpg	100
1540.061	2.573	2573.1	regulate	Run2	regulate/STIM_028.jpg	99
1545.371	1.382	1381.9	regulate	Run2	regulate/STIM_028.jpg	100
1549.027	2.29	2290.1	regulate	Run2	regulate/STIM_029.jpg	100
1554.214	1.231	1231.0	regulate	Run2	regulate/STIM_029.jpg	100
1558.867	2.002	2001.8	regulate	Run2	regulate/STIM_029.jpg	100
1562.884	2.367	2366.9	regulate	Run2	regulate/STIM_029.jpg	100
1568.692	1.617	1617.1	observe	Run2	observe/STIM_000.jpg	100
1572.52	1.175	1174.6	observe	Run2	observe/STIM_000.jpg	99
1576.152	1.586	1586.1	observe	Run2	observe/STIM_000.jpg	100
1581.608	1.36	1359.7	observe	Run2	observe/STIM_000.jpg	99
1586.93	1.5	1500.3	observe	Run2	observe/STIM_001.jpg	99
1592.385	1.058	1058.0	observe	Run2	observe/STIM_001.jpg	100
1596.115	1.262	1261.8	observe	Run2	observe/STIM_001.jpg	99
1599.662	1.594	1594.0	observe	Run2	observe/STIM_001.jpg	99
1603.782	1.368	1367.9	observe	Run2	observe/STIM_002.jpg	100
1608.951	1.556	1555.7	observe	Run2	observe/STIM_002.jpg	100
1614.188	1.627	1627.3	observe	Run2	observe/STIM_002.jpg	100
1618.742	1.414	1414.0	observe	Run2	observe/STIM_002.jpg	99
1622.625	1.191	1190.7	observe	Run2	observe/STIM_003.jpg	100
1625.841	1.273	1273.1	observe	Run2	observe/STIM_003.jpg	100
1630.997	1.315	1315.2	observe	Run2	observe/STIM_003.jpg	99
1635.524	1.414	1414.5	observe	Run2	observe/STIM_003.jpg	100
1640.48	1.411	1410.8	observe	Run2	observe/STIM_004.jpg	100
1644.526	1.185	1184.6	observe	Run2	observe/STIM_004.jpg	99
1649.214	1.404	1403.5	observe	Run2	observe/STIM_004.jpg	100
1654.361	1.074	1073.8	observe	Run2	observe/STIM_004.jpg	99
1659.201	1.475	1475.0	observe	Run2	observe/STIM_005.jpg	100
1663.321	1.463	1463.3	observe	Run2	observe/STIM_005.jpg	100
1667.879	1.457	1457.2	observe	Run2	observe/STIM_005.jpg	100
1672.264	0.866	865.7	observe	Run2	observe/STIM_005.jpg	100
1676.331	0.859	859.2	observe	Run2	observe/STIM_006.jpg	99
1679.783	1.154	1154.1	observe	Run2	observe/STIM_006.jpg	99
1684.127	1.372	1371.7	observe	Run2	observe/STIM_006.jpg	100
1689.317	1.009	1009.4	observe	Run2	observe/STIM_006.jpg	100
1692.61	1.367	1366.9	observe	Run2	observe/STIM_007.jpg	100
1697.465	1.256	1256.4	observe	Run2	observe/STIM_007.jpg	99
1700.818	0.907	907.1	observe	Run2	observe/STIM_007.jpg	99
1704.779	1.168	1167.9	observe	Run2	observe/STIM_007.jpg	100
1708.288	1.11	1110.4	observe	Run2	observe/STIM_008.jpg	100
1713.145	1.227	1227.4	observe	Run2	observe/STIM_008.jpg	99
1717.588	0.888	888.4	observe	Run2	observe/STIM_008.jpg	100
1720.8	1.071	1070.9	observe	Run2	observe/STIM_008.jpg	99
1725.636	0.873	872.9	observe	Run2	observe/STIM_009.jpg	99
1729.176	1.618	1618.1	observe	Run2	observe/STIM_009.jpg	100
1734.336	1.611	1611.4	observe	Run2	observe/STIM_009.jpg	100
1739.688	1.063	1063.2	observe	Run2	observe/STIM_009.jpg	99
1744.055	1.473	1473.2	observe	Run2	observe/STIM_010.jpg	99
1749.058	1.544	1543.8	observe	Run2	observe/STIM_010.jpg	99
1754.53	0.859	859.1	observe	Run2	observe/STIM_010.jpg	100
1758.825	1.257	1256.7	observe	Run2	observe/STIM_010.jpg	100
1763.107	1.154	1154.4	observe	Run2	observe/STIM_011.jpg	99
1766.739	1.592	1591.5	observe	Run2	observe/STIM_011.jpg	100
1772.186	1.032	1032.1	observe	Run2	observe/STIM_011.jpg	99
1776.622	1.283	1283.3	observe	Run2	observe/STIM_011.jpg	99
1780.696	0.838	837.9	observe	Run2	observe/STIM_012.jpg	100
1784.69	1.264	1264.5	observe	Run2	observe/STIM_012.jpg	100
1788.314	0.983	983.4	observe	Run2	observe/STIM_012.jpg	100
1793.112	1.573	1573.4	observe	Run2	observe/STIM_012.jpg	99
1797.633	1.226	1225.7	observe	Run2	observe/STIM_013.jpg	100
1801.378	1.228	1227.5	observe	Run2	observe/STIM_013.jpg	99
1805.154	0.824	824.2	observe	Run2	observe/STIM_013.jpg	99
1809.894	0.994	993.6	observe	Run2	observe/STIM_013.jpg	100
1814.773	1.138	1138.0	observe	Run2	observe/STIM_014.jpg	99
1818.271	0.98	979.7	observe	Run2	observe/STIM_014.jpg	100
1821.348	0.85	849.8	observe	Run2	observe/STIM_014.jpg	100
1825.489	0.942	942.5	observe	Run2	observe/STIM_014.jpg	99
1830.002	1.052	1052.4	observe	Run2	observe/STIM_015.jpg	99
1833.384	1.527	1526.9	observe	Run2	observe/STIM_015.jpg	99
1838.118	1.007	1007.3	observe	Run2	observe/STIM_015.jpg	99
1841.586	0.956	956.3	observe	Run2	observe/STIM_015.jpg	100
1845.326	1.297	1297.3	observe	Run2	observe/STIM_016.jpg	99
1849.743	0.987	987.2	observe	Run2	observe/STIM_016.jpg	100
1854.573	0.873	873.2	observe	Run2	observe/STIM_016.jpg	100
1857.684	1.415	1414.9	observe	Run2	observe/STIM_016.jpg	99
1862.618	1.366	1365.5	observe	Run2	observe/STIM_017.jpg	99
1867.731	1.468	1468.4	observe	Run2	observe/STIM_017.jpg	100
1871.571	1.026	1026.0	observe	Run2	observe/STIM_017.jpg	100
1875.274	1.086	1086.0	observe	Run2	observe/STIM_017.jpg	100
1879.38	1.29	1290.1	observe	Run2	observe/STIM_018.jpg	99
1884.338	0.944	943.9	observe	Run2	observe/STIM_018.jpg	99
1888.316	1.023	1023.3	observe	Run2	observe/STIM_018.jpg	99
1891.873	1.359	1359.3	observe	Run2	observe/STIM_018.jpg	100
1895.42	1.403	1402.9	observe	Run2	observe/STIM_019.jpg	99
1899.813	1.07	1069.7	observe	Run2	observe/STIM_019.jpg	99
1902.863	1.245	1244.9	observe	Run2	observe/STIM_019.jpg	99
1907.849	1.586	1586.0	observe	Run2	observe/STIM_019.jpg	100
1912.454	2.168	2167.7	regulate	Run3	regulate/STIM_000.jpg	100
1916.926	2.279	2279.3	regulate	Run3	regulate/STIM_000.jpg	100
1921.488	2.162	2162.5	regulate	Run3	regulate/STIM_000.jpg	100
1926.004	2.081	2081.1	regulate	Run3	regulate/STIM_000.jpg	100
1931.478	1.821	1820.6	regulate	Run3	regulate/STIM_001.jpg	100
1936.61	1.142	1142.1	regulate	Run3	regulate/STIM_001.jpg	100
1939.851	2.284	2283.7	regulate	Run3	regulate/STIM_001.jpg	100
1944.21	2.408	2408.2	regulate	Run3	regulate/STIM_001.jpg	100
1949.547	1.781	1780.6	regulate	Run3	regulate/STIM_002.jpg	100
1954.496	1.759	1759.0	regulate	Run3	regulate/STIM_002.jpg	100
1959.952	2.059	2058.8	regulate	Run3	regulate/STIM_002.jpg	100
1964.417	1.194	1193.6	regulate	Run3	regulate/STIM_002.jpg	100
1969.531	1.992	1992.3	regulate	Run3	regulate/STIM_003.jpg	99
1974.236	1.556	1555.6	regulate	Run3	regulate/STIM_003.jpg	100
1978.186	2.268	2268.5	regulate	Run3	regulate/STIM_003.jpg	100
1983.458	1.501	1501.0	regulate	Run3	regulate/STIM_003.jpg	99
1988.347	1.372	1372.1	regulate	Run3	regulate/STIM_004.jpg	100
1992.981	1.089	1088.7	regulate	Run3	regulate/STIM_004.jpg	100
1996.578	1.232	1231.8	regulate	Run3	regulate/STIM_004.jpg	100
2000.944	1.3	1299.6	regulate	Run3	regulate/STIM_004.jpg	100
2004.894	1.39	1390.0	regulate	Run3	regulate/STIM_005.jpg	99
2009.939	2.007	2007.5	regulate	Run3	regulate/STIM_005.jpg	99
2015.721	2.31	2310.5	regulate	Run3	regulate/STIM_005.jpg	99
2020.595	1.5	1499.7	regulate	Run3	regulate/STIM_005.jpg	100
2024.772	1.836	1835.6	regulate	Run3	regulate/STIM_006.jpg	99
2028.62	1.166	1166.2	regulate	Run3	regulate/STIM_006.jpg	100
2033.061	1.129	1128.7	regulate	Run3	regulate/STIM_006.jpg	100
2036.939	1.406	1405.7	regulate	Run3	regulate/STIM_006.jpg	99
2042.213	2.019	2019.1	regulate	Run3	regulate/STIM_007.jpg	100
2047.313	2.098	2098.5	regulate	Run3	regulate/STIM_007.jpg	100
2053.362	2.281	2281.3	regulate	Run3	regulate/STIM_007.jpg	100
2057.667	1.623	1623.2	regulate	Run3	regulate/STIM_007.jpg	100
2063.235	1.081	1081.0	regulate	Run3	regulate/STIM_008.jpg	100
2066.792	2.451	2450.7	regulate	Run3	regulate/STIM_008.jpg	99
2072.084	2.078	2078.2	regulate	Run3	regulate/STIM_008.jpg	99
2076.421	1.185	1184.6	regulate	Run3	regulate/STIM_008.jpg	100
2080.815	2.058	2058.3	regulate	Run3	regulate/STIM_009.jpg	99
2085.275	2.176	2175.7	regulate	Run3	regulate/STIM_009.jpg	100
2090.787	1.525	1525.1	regulate	Run3	regulate/STIM_009.jpg	99
2096.258	1.719	1719.2	regulate	Run3	regulate/STIM_009.jpg	99
2100.795	1.802	1802.5	regulate	Run3	regulate/STIM_010.jpg	99
2105.907	1.437	1436.7	regulate	Run3	regulate/STIM_010.jpg	99
2110.029	1.705	1704.6	regulate	Run3	regulate/STIM_010.jpg	99
2114.135	1.099	1099.1	regulate	Run3	regulate/STIM_010.jpg	99
2118.51	2.32	2319.8	regulate	Run3	regulate/STIM_011.jpg	100
2124.574	1.467	1467.3	regulate	Run3	regulate/STIM_011.jpg	99
2129.233	1.84	1839.7	regulate	Run3	regulate/STIM_011.jpg	100
2133.639	1.081	1080.8	regulate	Run3	regulate/STIM_011.jpg	100
2137.292	2.091	2090.8	regulate	Run3	regulate/STIM_012.jpg	100
2143.076	1.799	1798.9	regulate	Run3	regulate/STIM_012.jpg	100
2147.592	1.596	1596.1	regulate	Run3	regulate/STIM_012.jpg	100
2152.719	1.719	1719.3	regulate	Run3	regulate/STIM_012.jpg	99
2157.563	2.216	2215.6	regulate	Run3	regulate/STIM_013.jpg	100
2162.189	1.648	1648.4	regulate	Run3	regulate/STIM_013.jpg	99
2166.655	1.862	1861.7	regulate	Run3	regulate/STIM_013.jpg	100
2172.251	1.822	1822.2	regulate	Run3	regulate/STIM_013.jpg	100
2177.351	1.106	1105.5	regulate	Run3	regulate/STIM_014.jpg	100
2182.411	1.978	1978.4	regulate	Run3	regulate/STIM_014.jpg	100
2187.045	2.059	2059.3	regulate	Run3	regulate/STIM_014.jpg	99
2192.163	2.186	2186.2	regulate	Run3	regulate/STIM_014.jpg	99
2196.715	1.171	1170.9	regulate	Run3	regulate/STIM_015.jpg	99
2200.479	1.743	1742.9	regulate	Run3	regulate/STIM_015.jpg	99
2206.133	2.072	2072.2	regulate	Run3	regulate/STIM_015.jpg	100
2212.138	2.432	2431.9	regulate	Run3	regulate/STIM_015.jpg	100
2217.823	1.253	1253.3	regulate	Run3	regulate/STIM_016.jpg	100
2222.423	1.762	1761.8	regulate	Run3	regulate/STIM_016.jpg	99
2226.946	1.316	1315.9	regulate	Run3	regulate/STIM_016.jpg	99
2231.846	2.298	2297.7	regulate	Run3	regulate/STIM_016.jpg	100
2236.403	1.224	1224.0	regulate	Run3	regulate/STIM_017.jpg	100
2240.054	1.409	1408.9	regulate	Run3	regulate/STIM_017.jpg	99
2244.577	1.092	1092.0	regulate	Run3	regulate/STIM_017.jpg	99
2248.956	2.124	2124.0	regulate	Run3	regulate/STIM_017.jpg	99
2254.836	1.611	1611.2	regulate	Run3	regulate/STIM_018.jpg	99
2259.7	2.424	2424.2	regulate	Run3	regulate/STIM_018.jpg	99
2264.311	1.937	1936.7	regulate	Run3	regulate/STIM_018.jpg	99
2269.336	1.719	1719.1	regulate	Run3	regulate/STIM_018.jpg	99
2274.046	2.145	2145.3	regulate	Run3	regulate/STIM_019.jpg	100
2279.72	2.118	2118.0	regulate	Run3	regulate/STIM_019.jpg	100
2284.663	1.903	1902.6	regulate	Run3	regulate/STIM_019.jpg	99
2290.419	1.483	1483.3	regulate	Run3	regulate/STIM_019.jpg	100
2294.954	2.366	2366.0	regulate	Run3	regulate/STIM_020.jpg	100
2299.362	1.495	1495.2	regulate	Run3	regulate/STIM_020.jpg	100
2304.198	2.021	2021.0	regulate	Run3	regulate/STIM_020.jpg	99
2308.428	1.18	1179.7	regulate	Run3	regulate/STIM_020.jpg	100
2312.359	1.329	1329.1	regulate	Run3	regulate/STIM_021.jpg	99
2316.479	1.078	1078.1	regulate	Run3	regulate/STIM_021.jpg	100
2321.069	2.396	2396.0	regulate	Run3	regulate/STIM_021.jpg	100
2326.515	1.509	1509.4	regulate	Run3	regulate/STIM_021.jpg	100
2331.708	1.639	1639.2	regulate	Run3	regulate/STIM_022.jpg	99
2336.135	1.706	1705.9	regulate	Run3	regulate/STIM_022.jpg	100
2339.96	1.975	1974.7	regulate	Run3	regulate/STIM_022.jpg	100
2344.594	2.42	2419.9	regulate	Run3	regulate/STIM_022.jpg	99
2350.157	1.392	1391.5	regulate	Run3	regulate/STIM_023.jpg	99
2354.409	1.439	1438.8	regulate	Run3	regulate/STIM_023.jpg	100
2359.045	1.37	1369.9	regulate	Run3	regulate/STIM_023.jpg	99
2363.544	1.111	1110.9	regulate	Run3	regulate/STIM_023.jpg	100
2368.4	2.261	2260.9	regulate	Run3	regulate/STIM_024.jpg	100
2374.413	1.854	1853.9	regulate	Run3	regulate/STIM_024.jpg	99
2379.228	1.409	1409.2	regulate	Run3	regulate/STIM_024.jpg	100
2383.444	1.108	1108.3	regulate	Run3	regulate/STIM_024.jpg	99
2388.148	1.883	1883.0	regulate	Run3	regulate/STIM_025.jpg	99
2392.257	2.15	2149.9	regulate	Run3	regulate/STIM_025.jpg	99
2396.507	2.219	2218.9	regulate	Run3	regulate/STIM_025.jpg	100
2402.637	2.109	2109.0	regulate	Run3	regulate/STIM_025.jpg	100
2408.107	2.075	2075.1	regulate	Run3	regulate/STIM_026.jpg	100
2412.847	1.328	1328.2	regulate	Run3	regulate/STIM_026.jpg	100
2416.184	2.383	2382.6	regulate	Run3	regulate/STIM_026.jpg	100
2420.893	2.1	2099.8	regulate	Run3	regulate/STIM_026.jpg	99
2425.703	1.595	1595.4	regulate	Run3	regulate/STIM_027.jpg	99
2430.411	1.737	1737.0	regulate	Run3	regulate/STIM_027.jpg	100
2434.878	2.104	2103.6	regulate	Run3	regulate/STIM_027.jpg	99
2440.879	1.691	1691.2	regulate	Run3	regulate/STIM_027.jpg	99
2445.654	1.932	1932.3	regulate	Run3	regulate/STIM_028.jpg	99
2451.368	2.203	2203.1	regulate	Run3	regulate/STIM_028.jpg	100
2455.842	2.116	2116.0	regulate	Run3	regulate/STIM_028.jpg	100
2461.735	2.428	2427.6	regulate	Run3	regulate/STIM_028.jpg	100
2468.048	1.242	1241.9	regulate	Run3	regulate/STIM_029.jpg	100
2471.486	1.566	1565.6	regulate	Run3	regulate/STIM_029.jpg	100
2475.857	1.652	1651.5	regulate	Run3	regulate/STIM_029.jpg	100
2479.694	2.348	2348.5	regulate	Run3	regulate/STIM_029.jpg	99
2485.971	0.97	970.2	observe	Run3	observe/STIM_000.jpg	99
2490.892	1.131	1131.1	observe	Run3	observe/STIM_000.jpg	99
2495.202	0.939	939.1	observe	Run3	observe/STIM_000.jpg	99
2498.341	0.829	829.3	observe	Run3	observe/STIM_000.jpg	99
2503.05	1.105	1104.9	observe	Run3	observe/STIM_001.jpg	100
2506.653	1.31	1310.3	observe	Run3	observe/STIM_001.jpg	99
2511.069	1.47	1469.5	observe	Run3	observe/STIM_001.jpg	99
2514.988	0.821	821.1	observe	Run3	observe/STIM_001.jpg	100
2518.418	1.031	1030.8	observe	Run3	observe/STIM_002.jpg	99
2523.368	1.242	1242.5	observe	Run3	observe/STIM_002.jpg	100
2527.505	1.61	1610.2	observe	Run3	observe/STIM_002.jpg	99
2532.794	1.479	1479.3	observe	Run3	observe/STIM_002.jpg	100
2537.063	1.099	1099.1	observe	Run3	observe/STIM_003.jpg	100
2541.747	1.116	1115.7	observe	Run3	observe/STIM_003.jpg	99
2546.081	0.879	878.7	observe	Run3	observe/STIM_003.jpg	99
2549.539	1.618	1618.5	observe	Run3	observe/STIM_003.jpg	99
2554.697	1.501	1501.2	observe	Run3	observe/STIM_004.jpg	99
2558.497	1.245	1245.0	observe	Run3	observe/STIM_004.jpg	100
2562.267	1.617	1617.3	observe	Run3	observe/STIM_004.jpg	100
2567.701	1.175	1174.6	observe	Run3	observe/STIM_004.jpg	100
2571.738	1.012	1012.3	observe	Run3	observe/STIM_005.jpg	100
2576.604	1.427	1427.0	observe	Run3	observe/STIM_005.jpg	99
2580.67	1.074	1074.5	observe	Run3	observe/STIM_005.jpg	100
2584.38	1.408	1407.5	observe	Run3	observe/STIM_005.jpg	100
2589.457	1.053	1052.7	observe	Run3	observe/STIM_006.jpg	99
2593.138	0.84	839.5	observe	Run3	observe/STIM_006.jpg	99
2597.545	1.422	1422.5	observe	Run3	observe/STIM_006.jpg	100
2601.0	1.31	1310.2	observe	Run3	observe/STIM_006.jpg	99
2604.516	1.462	1462.4	observe	Run3	observe/STIM_007.jpg	100
2609.516	1.491	1490.8	observe	Run3	observe/STIM_007.jpg	99
2613.828	1.309	1309.4	observe	Run3	observe/STIM_007.jpg	100
2618.185	1.164	1163.5	observe	Run3	observe/STIM_007.jpg	99
2622.226	1.512	1512.0	observe	Run3	observe/STIM_008.jpg	99
2626.702	1.527	1527.4	observe	Run3	observe/STIM_008.jpg	100
2630.375	0.911	911.4	observe	Run3	observe/STIM_008.jpg	99
2635.169	0.852	852.4	observe	Run3	observe/STIM_008.jpg	100
2638.437	1.317	1317.2	observe	Run3	observe/STIM_009.jpg	100
2642.82	1.494	1494.2	observe	Run3	observe/STIM_009.jpg	99
2647.643	0.935	934.7	observe	Run3	observe/STIM_009.jpg	100
2651.043	1.135	1135.2	observe	Run3	observe/STIM_009.jpg	100
2654.424	0.956	955.5	observe	Run3	observe/STIM_010.jpg	100
2657.476	0.903	903.1	observe	Run3	observe/STIM_010.jpg	99
2660.898	0.909	909.0	observe	Run3	observe/STIM_010.jpg	99
2664.851	0.953	953.0	observe	Run3	observe/STIM_010.jpg	99
2669.234	1.03	1030.3	observe	Run3	observe/STIM_011.jpg	100
2672.854	1.605	1605.3	observe	Run3	observe/STIM_011.jpg	100
2676.792	1.138	1138.2	observe	Run3	observe/STIM_011.jpg	100
2680.117	1.39	1390.0	observe	Run3	observe/STIM_011.jpg	100
2684.162	1.306	1305.7	observe	Run3	observe/STIM_012.jpg	99
2688.489	1.443	1443.0	observe	Run3	observe/STIM_012.jpg	100
2693.51	0.842	842.0	observe	Run3	observe/STIM_012.jpg	100
2698.248	0.906	905.6	observe	Run3	observe/STIM_012.jpg	99
2702.791	1.422	1422.2	observe	Run3	observe/STIM_013.jpg	99
2707.733	1.251	1250.9	observe	Run3	observe/STIM_013.jpg	100
2711.376	1.326	1326.2	observe	Run3	observe/STIM_013.jpg	99
2716.203	0.917	917.3	observe	Run3	observe/STIM_013.jpg	100
2719.409	1.51	1509.8	observe	Run3	observe/STIM_014.jpg	100
2724.593	1.413	1413.4	observe	Run3	observe/STIM_014.jpg	100
2728.951	1.218	1218.5	observe	Run3	observe/STIM_014.jpg	99
2733.73	1.123	1122.7	observe	Run3	observe/STIM_014.jpg	100
2738.354	1.407	1406.8	observe	Run3	observe/STIM_015.jpg	100
2742.097	0.866	865.7	observe	Run3	observe/STIM_015.jpg	99
2745.36	1.112	1111.9	observe	Run3	observe/STIM_015.jpg	100
2750.435	0.966	966.0	observe	Run3	observe/STIM_015.jpg	99
2755.36	1.358	1358.3	observe	Run3	observe/STIM_016.jpg	99
2759.52	1.221	1220.9	observe	Run3	observe/STIM_016.jpg	100
2762.921	1.287	1286.7	observe	Run3	observe/STIM_016.jpg	99
2767.362	0.997	997.0	observe	Run3	observe/STIM_016.jpg	99
2770.527	1.06	1060.2	observe	Run3	observe/STIM_017.jpg	99
2773.611	1.026	1026.1	observe	Run3	observe/STIM_017.jpg	100
2778.255	1.035	1034.7	observe	Run3	observe/STIM_017.jpg	99
2781.472	1.121	1120.9	observe	Run3	observe/STIM_017.jpg	100
2786.338	1.123	1123.2	observe	Run3	observe/STIM_018.jpg	99
2789.627	1.343	1343.1	observe	Run3	observe/STIM_018.jpg	100
2794.589	1.356	1356.4	observe	Run3	observe/STIM_018.jpg	99
2798.856	1.323	1322.6	observe	Run3	observe/STIM_018.jpg	99
2802.813	1.239	1238.8	observe	Run3	observe/STIM_019.jpg	100
2808.01	1.446	1445.7	observe	Run3	observe/STIM_019.jpg	99
2812.685	0.916	915.5	observe	Run3	observe/STIM_019.jpg	100
2815.732	0.86	859.6	observe	Run3	observe/STIM_019.jpg	100
