onset	duration	accuracy_binary	trial_type	learning_stage	stimulus
0.0	1.233	0	generate	Run1	generate/STIM_000.jpg
4.788	2.588	1	generate	Run1	generate/STIM_000.jpg
11.394	1.628	1	generate	Run1	generate/STIM_000.jpg
16.715	2.281	1	generate	Run1	generate/STIM_000.jpg
22.799	1.491	1	generate	Run1	generate/STIM_000.jpg
27.655	2.191	1	generate	Run1	generate/STIM_001.jpg
32.89	1.952	1	generate	Run1	generate/STIM_001.jpg
37.671	1.711	0	generate	Run1	generate/STIM_001.jpg
42.736	1.987	1	generate	Run1	generate/STIM_001.jpg
47.556	1.597	1	generate	Run1	generate/STIM_001.jpg
51.87	2.747	1	generate	Run1	generate/STIM_002.jpg
57.262	1.396	1	generate	Run1	generate/STIM_002.jpg
61.416	2.243	1	generate	Run1	generate/STIM_002.jpg
66.8	1.383	1	generate	Run1	generate/STIM_002.jpg
71.251	1.789	1	generate	Run1	generate/STIM_002.jpg
75.794	1.484	1	generate	Run1	generate/STIM_003.jpg
79.596	1.112	1	generate	Run1	generate/STIM_003.jpg
84.105	2.014	0	generate	Run1	generate/STIM_003.jpg
89.652	1.653	1	generate	Run1	generate/STIM_003.jpg
94.47	1.832	0	generate	Run1	generate/STIM_003.jpg
99.02	1.655	1	generate	Run1	generate/STIM_004.jpg
103.995	1.566	1	generate	Run1	generate/STIM_004.jpg
107.845	2.312	1	generate	Run1	generate/STIM_004.jpg
113.927	1.291	1	generate	Run1	generate/STIM_004.jpg
118.193	2.01	0	generate	Run1	generate/STIM_004.jpg
123.038	2.132	0	generate	Run1	generate/STIM_005.jpg
129.34	1.53	1	generate	Run1	generate/STIM_005.jpg
133.248	1.548	1	generate	Run1	generate/STIM_005.jpg
138.53	1.618	1	generate	Run1	generate/STIM_005.jpg
142.691	1.861	1	generate	Run1	generate/STIM_005.jpg
147.88	2.32	1	generate	Run1	generate/STIM_006.jpg
154.378	1.801	1	generate	Run1	generate/STIM_006.jpg
160.199	2.4	1	generate	Run1	generate/STIM_006.jpg
166.331	1.609	1	generate	Run1	generate/STIM_006.jpg
170.82	1.015	1	generate	Run1	generate/STIM_006.jpg
175.603	1.265	1	generate	Run1	generate/STIM_007.jpg
179.488	1.849	1	generate	Run1	generate/STIM_007.jpg
183.895	1.808	0	generate	Run1	generate/STIM_007.jpg
189.178	2.27	1	generate	Run1	generate/STIM_007.jpg
194.907	1.465	1	generate	Run1	generate/STIM_007.jpg
199.787	2.398	1	generate	Run1	generate/STIM_008.jpg
205.597	1.792	0	generate	Run1	generate/STIM_008.jpg
211.363	2.424	1	generate	Run1	generate/STIM_008.jpg
216.368	2.31	1	generate	Run1	generate/STIM_008.jpg
222.444	1.218	0	generate	Run1	generate/STIM_008.jpg
227.435	1.947	1	generate	Run1	generate/STIM_009.jpg
232.854	2.168	1	generate	Run1	generate/STIM_009.jpg
237.921	1.381	1	generate	Run1	generate/STIM_009.jpg
243.032	1.696	1	generate	Run1	generate/STIM_009.jpg
247.885	1.84	1	generate	Run1	generate/STIM_009.jpg
252.206	2.189	1	generate	Run1	generate/STIM_010.jpg
257.489	2.304	1	generate	Run1	generate/STIM_010.jpg
262.318	1.36	1	generate	Run1	generate/STIM_010.jpg
267.057	1.63	1	generate	Run1	generate/STIM_010.jpg
271.495	1.45	1	generate	Run1	generate/STIM_010.jpg
276.064	2.063	1	generate	Run1	generate/STIM_011.jpg
280.993	2.548	1	generate	Run1	generate/STIM_011.jpg
286.029	1.887	1	generate	Run1	generate/STIM_011.jpg
291.304	1.998	1	generate	Run1	generate/STIM_011.jpg
295.632	1.295	1	generate	Run1	generate/STIM_011.jpg
300.934	2.515	0	generate	Run1	generate/STIM_012.jpg
307.547	2.428	1	generate	Run1	generate/STIM_012.jpg
313.83	1.596	1	generate	Run1	generate/STIM_012.jpg
317.708	1.385	1	generate	Run1	generate/STIM_012.jpg
323.043	1.756	1	generate	Run1	generate/STIM_012.jpg
328.859	1.953	0	generate	Run1	generate/STIM_013.jpg
334.124	1.861	1	generate	Run1	generate/STIM_013.jpg
339.232	1.681	1	generate	Run1	generate/STIM_013.jpg
344.171	1.363	0	generate	Run1	generate/STIM_013.jpg
348.834	1.586	1	generate	Run1	generate/STIM_013.jpg
353.478	1.543	1	generate	Run1	generate/STIM_014.jpg
359.057	1.344	1	generate	Run1	generate/STIM_014.jpg
362.793	1.364	1	generate	Run1	generate/STIM_014.jpg
366.513	0.958	1	generate	Run1	generate/STIM_014.jpg
369.843	1.982	0	generate	Run1	generate/STIM_014.jpg
374.784	1.249	0	generate	Run1	generate/STIM_015.jpg
378.759	1.664	1	generate	Run1	generate/STIM_015.jpg
383.079	1.023	1	generate	Run1	generate/STIM_015.jpg
388.021	1.482	1	generate	Run1	generate/STIM_015.jpg
393.369	1.749	1	generate	Run1	generate/STIM_015.jpg
398.704	2.001	0	generate	Run1	generate/STIM_016.jpg
403.667	1.216	1	generate	Run1	generate/STIM_016.jpg
408.552	1.32	1	generate	Run1	generate/STIM_016.jpg
412.256	1.866	1	generate	Run1	generate/STIM_016.jpg
416.715	0.934	1	generate	Run1	generate/STIM_016.jpg
420.789	2.142	1	generate	Run1	generate/STIM_017.jpg
425.135	1.954	1	generate	Run1	generate/STIM_017.jpg
430.722	1.26	1	generate	Run1	generate/STIM_017.jpg
434.621	1.409	1	generate	Run1	generate/STIM_017.jpg
439.881	1.064	0	generate	Run1	generate/STIM_017.jpg
443.687	1.681	1	generate	Run1	generate/STIM_018.jpg
448.386	1.555	1	generate	Run1	generate/STIM_018.jpg
452.6	1.941	1	generate	Run1	generate/STIM_018.jpg
457.943	1.133	0	generate	Run1	generate/STIM_018.jpg
462.516	1.241	0	generate	Run1	generate/STIM_018.jpg
466.565	1.205	0	generate	Run1	generate/STIM_019.jpg
470.314	1.089	0	generate	Run1	generate/STIM_019.jpg
474.717	1.589	1	generate	Run1	generate/STIM_019.jpg
478.841	1.904	1	generate	Run1	generate/STIM_019.jpg
483.036	0.987	1	generate	Run1	generate/STIM_019.jpg
487.358	2.716	1	generate	Run1	generate/STIM_020.jpg
493.343	2.252	0	generate	Run1	generate/STIM_020.jpg
499.676	1.504	1	generate	Run1	generate/STIM_020.jpg
504.697	2.157	1	generate	Run1	generate/STIM_020.jpg
510.912	1.667	1	generate	Run1	generate/STIM_020.jpg
516.478	2.319	1	generate	Run1	generate/STIM_021.jpg
522.948	1.945	1	generate	Run1	generate/STIM_021.jpg
528.375	2.367	1	generate	Run1	generate/STIM_021.jpg
534.876	1.009	1	generate	Run1	generate/STIM_021.jpg
538.877	0.89	0	generate	Run1	generate/STIM_021.jpg
543.84	1.684	1	generate	Run1	generate/STIM_022.jpg
548.891	2.141	1	generate	Run1	generate/STIM_022.jpg
554.781	2.358	1	generate	Run1	generate/STIM_022.jpg
560.068	1.584	0	generate	Run1	generate/STIM_022.jpg
565.607	1.471	0	generate	Run1	generate/STIM_022.jpg
569.659	1.681	1	generate	Run1	generate/STIM_023.jpg
574.936	1.088	0	generate	Run1	generate/STIM_023.jpg
578.157	2.149	1	generate	Run1	generate/STIM_023.jpg
582.548	1.101	1	generate	Run1	generate/STIM_023.jpg
587.548	0.926	1	generate	Run1	generate/STIM_023.jpg
591.292	2.746	1	generate	Run1	generate/STIM_024.jpg
598.213	2.282	0	generate	Run1	generate/STIM_024.jpg
604.661	1.642	0	generate	Run1	generate/STIM_024.jpg
608.464	1.514	1	generate	Run1	generate/STIM_024.jpg
612.282	2.141	1	generate	Run1	generate/STIM_024.jpg
617.528	0.918	0	repeat	Run1	repeat/STIM_000.jpg
620.719	0.532	1	repeat	Run1	repeat/STIM_000.jpg
623.649	0.531	1	repeat	Run1	repeat/STIM_000.jpg
628.012	0.595	1	repeat	Run1	repeat/STIM_000.jpg
631.459	0.833	1	repeat	Run1	repeat/STIM_000.jpg
634.562	0.817	1	repeat	Run1	repeat/STIM_001.jpg
637.725	0.879	1	repeat	Run1	repeat/STIM_001.jpg
640.996	0.67	1	repeat	Run1	repeat/STIM_001.jpg
644.568	0.908	1	repeat	Run1	repeat/STIM_001.jpg
649.106	0.64	1	repeat	Run1	repeat/STIM_001.jpg
651.955	0.871	1	repeat	Run1	repeat/STIM_002.jpg
655.893	0.863	1	repeat	Run1	repeat/STIM_002.jpg
659.255	0.762	1	repeat	Run1	repeat/STIM_002.jpg
664.02	0.859	1	repeat	Run1	repeat/STIM_002.jpg
668.642	0.633	1	repeat	Run1	repeat/STIM_002.jpg
671.475	0.555	1	repeat	Run1	repeat/STIM_003.jpg
674.283	0.47	1	repeat	Run1	repeat/STIM_003.jpg
676.982	0.696	1	repeat	Run1	repeat/STIM_003.jpg
679.84	0.486	1	repeat	Run1	repeat/STIM_003.jpg
683.51	0.651	1	repeat	Run1	repeat/STIM_003.jpg
687.328	0.853	1	repeat	Run1	repeat/STIM_004.jpg
690.904	0.617	1	repeat	Run1	repeat/STIM_004.jpg
695.121	0.534	1	repeat	Run1	repeat/STIM_004.jpg
698.964	0.517	1	repeat	Run1	repeat/STIM_004.jpg
702.122	0.638	1	repeat	Run1	repeat/STIM_004.jpg
706.579	0.501	1	repeat	Run1	repeat/STIM_005.jpg
710.294	0.652	1	repeat	Run1	repeat/STIM_005.jpg
713.892	0.554	1	repeat	Run1	repeat/STIM_005.jpg
717.703	0.758	1	repeat	Run1	repeat/STIM_005.jpg
721.554	0.765	1	repeat	Run1	repeat/STIM_005.jpg
725.874	0.651	1	repeat	Run1	repeat/STIM_006.jpg
728.861	0.664	1	repeat	Run1	repeat/STIM_006.jpg
731.604	0.814	1	repeat	Run1	repeat/STIM_006.jpg
736.036	0.516	1	repeat	Run1	repeat/STIM_006.jpg
740.035	0.79	1	repeat	Run1	repeat/STIM_006.jpg
743.607	0.59	1	repeat	Run1	repeat/STIM_007.jpg
746.669	0.536	1	repeat	Run1	repeat/STIM_007.jpg
750.522	0.855	1	repeat	Run1	repeat/STIM_007.jpg
753.582	0.623	1	repeat	Run1	repeat/STIM_007.jpg
756.519	0.564	0	repeat	Run1	repeat/STIM_007.jpg
760.717	0.466	1	repeat	Run1	repeat/STIM_008.jpg
763.559	0.647	1	repeat	Run1	repeat/STIM_008.jpg
766.499	0.835	1	repeat	Run1	repeat/STIM_008.jpg
770.911	0.903	1	repeat	Run1	repeat/STIM_008.jpg
775.499	0.673	1	repeat	Run1	repeat/STIM_008.jpg
779.291	0.732	1	repeat	Run1	repeat/STIM_009.jpg
783.734	0.758	1	repeat	Run1	repeat/STIM_009.jpg
788.343	0.575	1	repeat	Run1	repeat/STIM_009.jpg
792.959	0.843	1	repeat	Run1	repeat/STIM_009.jpg
796.963	0.898	1	repeat	Run1	repeat/STIM_009.jpg
801.056	0.553	0	repeat	Run1	repeat/STIM_010.jpg
804.425	0.681	1	repeat	Run1	repeat/STIM_010.jpg
807.213	0.793	1	repeat	Run1	repeat/STIM_010.jpg
811.342	0.679	0	repeat	Run1	repeat/STIM_010.jpg
814.139	0.912	1	repeat	Run1	repeat/STIM_010.jpg
818.249	0.667	1	repeat	Run1	repeat/STIM_011.jpg
821.054	0.611	1	repeat	Run1	repeat/STIM_011.jpg
825.197	0.741	1	repeat	Run1	repeat/STIM_011.jpg
828.408	0.515	1	repeat	Run1	repeat/STIM_011.jpg
831.082	0.71	1	repeat	Run1	repeat/STIM_011.jpg
835.012	0.668	1	repeat	Run1	repeat/STIM_012.jpg
838.131	0.814	1	repeat	Run1	repeat/STIM_012.jpg
841.648	0.762	1	repeat	Run1	repeat/STIM_012.jpg
846.154	0.597	1	repeat	Run1	repeat/STIM_012.jpg
850.092	0.891	1	repeat	Run1	repeat/STIM_012.jpg
854.307	0.728	1	repeat	Run1	repeat/STIM_013.jpg
857.164	0.598	1	repeat	Run1	repeat/STIM_013.jpg
860.046	0.691	1	repeat	Run1	repeat/STIM_013.jpg
863.642	0.674	1	repeat	Run1	repeat/STIM_013.jpg
866.944	0.473	1	repeat	Run1	repeat/STIM_013.jpg
870.144	0.728	1	repeat	Run1	repeat/STIM_014.jpg
874.061	0.78	1	repeat	Run1	repeat/STIM_014.jpg
878.178	0.872	1	repeat	Run1	repeat/STIM_014.jpg
881.26	0.546	1	repeat	Run1	repeat/STIM_014.jpg
884.617	0.761	1	repeat	Run1	repeat/STIM_014.jpg
888.61	1.01	1	generate	Run2	generate/STIM_000.jpg
892.442	1.968	1	generate	Run2	generate/STIM_000.jpg
898.045	1.929	1	generate	Run2	generate/STIM_000.jpg
903.496	1.231	1	generate	Run2	generate/STIM_000.jpg
907.815	1.882	0	generate	Run2	generate/STIM_000.jpg
912.044	1.627	0	generate	Run2	generate/STIM_001.jpg
917.186	1.594	1	generate	Run2	generate/STIM_001.jpg
921.641	1.141	1	generate	Run2	generate/STIM_001.jpg
926.263	0.893	1	generate	Run2	generate/STIM_001.jpg
931.16	1.713	0	generate	Run2	generate/STIM_001.jpg
936.975	1.704	0	generate	Run2	generate/STIM_002.jpg
942.227	1.908	1	generate	Run2	generate/STIM_002.jpg
947.889	1.167	1	generate	Run2	generate/STIM_002.jpg
952.764	1.566	1	generate	Run2	generate/STIM_002.jpg
958.2	1.267	1	generate	Run2	generate/STIM_002.jpg
962.625	1.91	1	generate	Run2	generate/STIM_003.jpg
967.723	1.033	1	generate	Run2	generate/STIM_003.jpg
972.542	0.828	1	generate	Run2	generate/STIM_003.jpg
977.039	1.789	1	generate	Run2	generate/STIM_003.jpg
982.501	0.849	1	generate	Run2	generate/STIM_003.jpg
986.11	1.651	1	generate	Run2	generate/STIM_004.jpg
991.874	1.358	1	generate	Run2	generate/STIM_004.jpg
996.821	1.397	1	generate	Run2	generate/STIM_004.jpg
1001.1	1.916	1	generate	Run2	generate/STIM_004.jpg
1006.502	0.954	1	generate	Run2	generate/STIM_004.jpg
1010.807	1.137	1	generate	Run2	generate/STIM_005.jpg
1014.661	1.498	1	generate	Run2	generate/STIM_005.jpg
1019.076	0.892	1	generate	Run2	generate/STIM_005.jpg
1022.901	1.706	1	generate	Run2	generate/STIM_005.jpg
1027.187	0.928	1	generate	Run2	generate/STIM_005.jpg
1030.989	1.014	1	generate	Run2	generate/STIM_006.jpg
1034.767	2.076	1	generate	Run2	generate/STIM_006.jpg
1040.764	1.105	1	generate	Run2	generate/STIM_006.jpg
1045.662	1.725	1	generate	Run2	generate/STIM_006.jpg
1050.558	1.068	1	generate	Run2	generate/STIM_006.jpg
1053.842	1.434	1	generate	Run2	generate/STIM_007.jpg
1057.713	2.158	1	generate	Run2	generate/STIM_007.jpg
1063.194	1.625	1	generate	Run2	generate/STIM_007.jpg
1068.221	1.865	1	generate	Run2	generate/STIM_007.jpg
1072.893	1.088	1	generate	Run2	generate/STIM_007.jpg
1076.632	2.168	1	generate	Run2	generate/STIM_008.jpg
1081.794	1.183	1	generate	Run2	generate/STIM_008.jpg
1085.546	1.831	1	generate	Run2	generate/STIM_008.jpg
1090.925	1.515	1	generate	Run2	generate/STIM_008.jpg
1094.956	1.177	1	generate	Run2	generate/STIM_008.jpg
1099.587	1.487	1	generate	Run2	generate/STIM_009.jpg
1103.842	1.513	1	generate	Run2	generate/STIM_009.jpg
1107.495	1.014	1	generate	Run2	generate/STIM_009.jpg
1110.903	1.301	1	generate	Run2	generate/STIM_009.jpg
1115.948	0.827	0	generate	Run2	generate/STIM_009.jpg
1120.752	1.252	1	generate	Run2	generate/STIM_010.jpg
1125.144	2.011	1	generate	Run2	generate/STIM_010.jpg
1130.768	1.105	0	generate	Run2	generate/STIM_010.jpg
1135.336	0.942	1	generate	Run2	generate/STIM_010.jpg
1139.024	1.798	1	generate	Run2	generate/STIM_010.jpg
1144.551	2.126	1	generate	Run2	generate/STIM_011.jpg
1149.716	2.117	1	generate	Run2	generate/STIM_011.jpg
1154.506	1.106	0	generate	Run2	generate/STIM_011.jpg
1159.653	1.335	1	generate	Run2	generate/STIM_011.jpg
1163.435	1.17	1	generate	Run2	generate/STIM_011.jpg
1166.902	0.965	0	generate	Run2	generate/STIM_012.jpg
1170.618	1.568	1	generate	Run2	generate/STIM_012.jpg
1175.597	1.703	1	generate	Run2	generate/STIM_012.jpg
1179.912	1.292	1	generate	Run2	generate/STIM_012.jpg
1183.737	0.941	1	generate	Run2	generate/STIM_012.jpg
1188.711	1.59	1	generate	Run2	generate/STIM_013.jpg
1193.425	1.6	1	generate	Run2	generate/STIM_013.jpg
1198.903	1.998	0	generate	Run2	generate/STIM_013.jpg
1203.596	1.429	1	generate	Run2	generate/STIM_013.jpg
1208.744	1.729	1	generate	Run2	generate/STIM_013.jpg
1212.833	2.131	0	generate	Run2	generate/STIM_014.jpg
1217.644	1.038	0	generate	Run2	generate/STIM_014.jpg
1221.62	0.965	1	generate	Run2	generate/STIM_014.jpg
1225.846	0.974	0	generate	Run2	generate/STIM_014.jpg
1229.9	1.781	1	generate	Run2	generate/STIM_014.jpg
1235.81	1.741	1	generate	Run2	generate/STIM_015.jpg
1241.663	1.565	0	generate	Run2	generate/STIM_015.jpg
1246.902	1.87	1	generate	Run2	generate/STIM_015.jpg
1251.3	0.862	1	generate	Run2	generate/STIM_015.jpg
1254.936	1.351	1	generate	Run2	generate/STIM_015.jpg
1259.429	1.334	0	generate	Run2	generate/STIM_016.jpg
1264.826	1.924	1	generate	Run2	generate/STIM_016.jpg
1269.249	0.876	1	generate	Run2	generate/STIM_016.jpg
1273.89	0.776	1	generate	Run2	generate/STIM_016.jpg
1277.664	1.514	1	generate	Run2	generate/STIM_016.jpg
1282.983	1.913	1	generate	Run2	generate/STIM_017.jpg
1288.93	2.181	1	generate	Run2	generate/STIM_017.jpg
1293.781	0.856	0	generate	Run2	generate/STIM_017.jpg
1297.186	1.041	1	generate	Run2	generate/STIM_017.jpg
1301.892	1.102	1	generate	Run2	generate/STIM_017.jpg
1305.755	1.03	1	generate	Run2	generate/STIM_018.jpg
1308.912	2.025	1	generate	Run2	generate/STIM_018.jpg
1314.068	0.917	1	generate	Run2	generate/STIM_018.jpg
1317.659	1.487	1	generate	Run2	generate/STIM_018.jpg
1322.705	0.904	1	generate	Run2	generate/STIM_018.jpg
1327.409	1.506	1	generate	Run2	generate/STIM_019.jpg
1331.745	1.476	1	generate	Run2	generate/STIM_019.jpg
1336.338	0.928	1	generate	Run2	generate/STIM_019.jpg
1339.803	0.937	1	generate	Run2	generate/STIM_019.jpg
1343.902	1.388	1	generate	Run2	generate/STIM_019.jpg
1348.387	1.63	1	generate	Run2	generate/STIM_020.jpg
1353.959	1.338	1	generate	Run2	generate/STIM_020.jpg
1358.611	1.504	0	generate	Run2	generate/STIM_020.jpg
1362.329	1.628	1	generate	Run2	generate/STIM_020.jpg
1367.986	0.942	1	generate	Run2	generate/STIM_020.jpg
1372.348	1.788	1	generate	Run2	generate/STIM_021.jpg
1377.419	1.78	1	generate	Run2	generate/STIM_021.jpg
1382.695	1.684	1	generate	Run2	generate/STIM_021.jpg
1388.493	1.518	1	generate	Run2	generate/STIM_021.jpg
1394.096	1.293	1	generate	Run2	generate/STIM_021.jpg
1397.578	1.128	1	generate	Run2	generate/STIM_022.jpg
1402.795	1.412	1	generate	Run2	generate/STIM_022.jpg
1407.554	1.93	1	generate	Run2	generate/STIM_022.jpg
1411.941	0.877	1	generate	Run2	generate/STIM_022.jpg
1415.451	1.35	1	generate	Run2	generate/STIM_022.jpg
1420.649	1.249	1	generate	Run2	generate/STIM_023.jpg
1425.257	1.714	1	generate	Run2	generate/STIM_023.jpg
1429.938	1.817	0	generate	Run2	generate/STIM_023.jpg
1435.238	1.769	1	generate	Run2	generate/STIM_023.jpg
1440.454	1.594	0	generate	Run2	generate/STIM_023.jpg
1445.711	1.918	1	generate	Run2	generate/STIM_024.jpg
1449.901	1.898	1	generate	Run2	generate/STIM_024.jpg
1454.933	0.866	1	generate	Run2	generate/STIM_024.jpg
1458.62	0.98	1	generate	Run2	generate/STIM_024.jpg
1462.001	1.561	1	generate	Run2	generate/STIM_024.jpg
1465.752	0.836	1	repeat	Run2	repeat/STIM_000.jpg
1470.489	0.588	1	repeat	Run2	repeat/STIM_000.jpg
1474.71	0.503	1	repeat	Run2	repeat/STIM_000.jpg
1479.23	0.888	1	repeat	Run2	repeat/STIM_000.jpg
1482.715	0.791	1	repeat	Run2	repeat/STIM_000.jpg
1487.055	0.527	1	repeat	Run2	repeat/STIM_001.jpg
1491.139	0.907	1	repeat	Run2	repeat/STIM_001.jpg
1496.079	0.682	1	repeat	Run2	repeat/STIM_001.jpg
1499.815	0.897	1	repeat	Run2	repeat/STIM_001.jpg
1503.464	0.529	1	repeat	Run2	repeat/STIM_001.jpg
1506.425	0.567	1	repeat	Run2	repeat/STIM_002.jpg
1510.313	0.505	1	repeat	Run2	repeat/STIM_002.jpg
1514.609	0.738	1	repeat	Run2	repeat/STIM_002.jpg
1518.976	0.595	1	repeat	Run2	repeat/STIM_002.jpg
1523.434	0.805	1	repeat	Run2	repeat/STIM_002.jpg
1528.006	0.579	1	repeat	Run2	repeat/STIM_003.jpg
1530.921	0.807	1	repeat	Run2	repeat/STIM_003.jpg
1535.657	0.768	1	repeat	Run2	repeat/STIM_003.jpg
1539.334	0.854	1	repeat	Run2	repeat/STIM_003.jpg
1542.36	0.819	1	repeat	Run2	repeat/STIM_003.jpg
1545.371	0.722	1	repeat	Run2	repeat/STIM_004.jpg
1548.789	0.902	1	repeat	Run2	repeat/STIM_004.jpg
1552.567	0.672	1	repeat	Run2	repeat/STIM_004.jpg
1556.357	0.626	1	repeat	Run2	repeat/STIM_004.jpg
1559.261	0.632	1	repeat	Run2	repeat/STIM_004.jpg
1562.768	0.888	1	repeat	Run2	repeat/STIM_005.jpg
1566.984	0.751	1	repeat	Run2	repeat/STIM_005.jpg
1571.2	0.632	1	repeat	Run2	repeat/STIM_005.jpg
1575.396	0.851	1	repeat	Run2	repeat/STIM_005.jpg
1578.446	0.611	1	repeat	Run2	repeat/STIM_005.jpg
1582.226	0.586	1	repeat	Run2	repeat/STIM_006.jpg
1585.573	0.51	0	repeat	Run2	repeat/STIM_006.jpg
1588.708	0.66	1	repeat	Run2	repeat/STIM_006.jpg
1593.126	0.864	1	repeat	Run2	repeat/STIM_006.jpg
1597.594	0.852	1	repeat	Run2	repeat/STIM_006.jpg
1602.266	0.806	1	repeat	Run2	repeat/STIM_007.jpg
1605.689	0.463	1	repeat	Run2	repeat/STIM_007.jpg
1609.403	0.537	1	repeat	Run2	repeat/STIM_007.jpg
1613.22	0.723	1	repeat	Run2	repeat/STIM_007.jpg
1617.722	0.868	1	repeat	Run2	repeat/STIM_007.jpg
1622.643	0.791	1	repeat	Run2	repeat/STIM_008.jpg
1626.139	0.649	1	repeat	Run2	repeat/STIM_008.jpg
1629.258	0.606	1	repeat	Run2	repeat/STIM_008.jpg
1633.885	0.619	1	repeat	Run2	repeat/STIM_008.jpg
1637.198	0.84	1	repeat	Run2	repeat/STIM_008.jpg
1641.171	0.598	1	repeat	Run2	repeat/STIM_009.jpg
1645.0	0.848	1	repeat	Run2	repeat/STIM_009.jpg
1649.849	0.893	1	repeat	Run2	repeat/STIM_009.jpg
1653.486	0.617	1	repeat	Run2	repeat/STIM_009.jpg
1656.171	0.503	1	repeat	Run2	repeat/STIM_009.jpg
1660.161	0.825	1	repeat	Run2	repeat/STIM_010.jpg
1664.335	0.893	1	repeat	Run2	repeat/STIM_010.jpg
1667.64	0.598	1	repeat	Run2	repeat/STIM_010.jpg
1670.981	0.551	1	repeat	Run2	repeat/STIM_010.jpg
1674.66	0.694	1	repeat	Run2	repeat/STIM_010.jpg
1677.821	0.806	1	repeat	Run2	repeat/STIM_011.jpg
1681.912	0.708	1	repeat	Run2	repeat/STIM_011.jpg
1686.68	0.705	1	repeat	Run2	repeat/STIM_011.jpg
1689.573	0.742	1	repeat	Run2	repeat/STIM_011.jpg
1693.172	0.783	1	repeat	Run2	repeat/STIM_011.jpg
1697.803	0.867	1	repeat	Run2	repeat/STIM_012.jpg
1702.206	0.665	1	repeat	Run2	repeat/STIM_012.jpg
1706.561	0.673	1	repeat	Run2	repeat/STIM_012.jpg
1710.914	0.822	1	repeat	Run2	repeat/STIM_012.jpg
1715.229	0.599	1	repeat	Run2	repeat/STIM_012.jpg
1719.132	0.505	1	repeat	Run2	repeat/STIM_013.jpg
1722.589	0.757	1	repeat	Run2	repeat/STIM_013.jpg
1725.423	0.656	1	repeat	Run2	repeat/STIM_013.jpg
1729.216	0.826	0	repeat	Run2	repeat/STIM_013.jpg
1733.634	0.834	1	repeat	Run2	repeat/STIM_013.jpg
1738.244	0.464	1	repeat	Run2	repeat/STIM_014.jpg
1741.595	0.601	1	repeat	Run2	repeat/STIM_014.jpg
1744.609	0.573	1	repeat	Run2	repeat/STIM_014.jpg
1748.777	0.549	1	repeat	Run2	repeat/STIM_014.jpg
1752.414	0.681	1	repeat	Run2	repeat/STIM_014.jpg
1755.611	1.88	1	generate	Run3	generate/STIM_000.jpg
1760.843	0.868	1	generate	Run3	generate/STIM_000.jpg
1765.135	0.792	0	generate	Run3	generate/STIM_000.jpg
1768.517	0.889	1	generate	Run3	generate/STIM_000.jpg
1772.723	0.93	1	generate	Run3	generate/STIM_000.jpg
1777.698	1.581	0	generate	Run3	generate/STIM_001.jpg
1782.389	1.213	1	generate	Run3	generate/STIM_001.jpg
1787.015	1.046	1	generate	Run3	generate/STIM_001.jpg
1791.429	1.561	1	generate	Run3	generate/STIM_001.jpg
1796.63	1.04	1	generate	Run3	generate/STIM_001.jpg
1800.555	1.616	1	generate	Run3	generate/STIM_002.jpg
1804.63	1.922	1	generate	Run3	generate/STIM_002.jpg
1808.865	1.524	1	generate	Run3	generate/STIM_002.jpg
1814.482	1.258	0	generate	Run3	generate/STIM_002.jpg
1818.617	1.317	1	generate	Run3	generate/STIM_002.jpg
1822.102	1.624	1	generate	Run3	generate/STIM_003.jpg
1826.138	1.666	1	generate	Run3	generate/STIM_003.jpg
1830.834	0.96	1	generate	Run3	generate/STIM_003.jpg
1835.254	1.038	1	generate	Run3	generate/STIM_003.jpg
1838.935	1.712	1	generate	Run3	generate/STIM_003.jpg
1843.356	0.948	1	generate	Run3	generate/STIM_004.jpg
1846.418	1.296	1	generate	Run3	generate/STIM_004.jpg
1850.056	0.965	1	generate	Run3	generate/STIM_004.jpg
1853.805	1.513	1	generate	Run3	generate/STIM_004.jpg
1857.871	1.52	1	generate	Run3	generate/STIM_004.jpg
1861.824	1.115	1	generate	Run3	generate/STIM_005.jpg
1865.966	1.806	1	generate	Run3	generate/STIM_005.jpg
1871.175	1.821	1	generate	Run3	generate/STIM_005.jpg
1875.343	1.654	1	generate	Run3	generate/STIM_005.jpg
1879.426	0.988	1	generate	Run3	generate/STIM_005.jpg
1883.049	1.526	1	generate	Run3	generate/STIM_006.jpg
1888.259	1.253	1	generate	Run3	generate/STIM_006.jpg
1892.608	1.736	1	generate	Run3	generate/STIM_006.jpg
1897.499	1.708	1	generate	Run3	generate/STIM_006.jpg
1903.304	1.134	1	generate	Run3	generate/STIM_006.jpg
1908.332	0.953	1	generate	Run3	generate/STIM_007.jpg
1913.096	1.345	1	generate	Run3	generate/STIM_007.jpg
1918.356	1.177	1	generate	Run3	generate/STIM_007.jpg
1922.735	1.351	0	generate	Run3	generate/STIM_007.jpg
1927.185	0.911	1	generate	Run3	generate/STIM_007.jpg
1931.201	1.23	1	generate	Run3	generate/STIM_008.jpg
1935.925	1.409	1	generate	Run3	generate/STIM_008.jpg
1940.553	1.148	1	generate	Run3	generate/STIM_008.jpg
1945.356	0.894	1	generate	Run3	generate/STIM_008.jpg
1949.895	1.062	1	generate	Run3	generate/STIM_008.jpg
1954.697	0.788	1	generate	Run3	generate/STIM_009.jpg
1958.864	1.069	1	generate	Run3	generate/STIM_009.jpg
1962.283	0.953	0	generate	Run3	generate/STIM_009.jpg
1965.933	1.563	1	generate	Run3	generate/STIM_009.jpg
1970.468	1.01	1	generate	Run3	generate/STIM_009.jpg
1974.171	1.808	1	generate	Run3	generate/STIM_010.jpg
1979.471	1.342	1	generate	Run3	generate/STIM_010.jpg
1984.26	1.013	1	generate	Run3	generate/STIM_010.jpg
1987.594	1.077	1	generate	Run3	generate/STIM_010.jpg
1991.962	1.099	1	generate	Run3	generate/STIM_010.jpg
1995.92	1.543	1	generate	Run3	generate/STIM_011.jpg
2000.546	1.496	1	generate	Run3	generate/STIM_011.jpg
2005.12	1.587	1	generate	Run3	generate/STIM_011.jpg
2009.091	1.749	1	generate	Run3	generate/STIM_011.jpg
2014.318	1.554	1	generate	Run3	generate/STIM_011.jpg
2018.922	0.894	1	generate	Run3	generate/STIM_012.jpg
2023.149	1.927	1	generate	Run3	generate/STIM_012.jpg
2028.451	1.693	1	generate	Run3	generate/STIM_012.jpg
2032.897	1.674	1	generate	Run3	generate/STIM_012.jpg
2037.351	1.802	1	generate	Run3	generate/STIM_012.jpg
2041.527	1.866	0	generate	Run3	generate/STIM_013.jpg
2045.952	0.924	1	generate	Run3	generate/STIM_013.jpg
2049.878	1.224	1	generate	Run3	generate/STIM_013.jpg
2054.014	1.728	1	generate	Run3	generate/STIM_013.jpg
2059.087	1.61	1	generate	Run3	generate/STIM_013.jpg
2062.998	1.758	0	generate	Run3	generate/STIM_014.jpg
2067.243	1.396	1	generate	Run3	generate/STIM_014.jpg
2072.258	1.792	1	generate	Run3	generate/STIM_014.jpg
2076.76	0.819	1	generate	Run3	generate/STIM_014.jpg
2080.121	1.82	1	generate	Run3	generate/STIM_014.jpg
2084.131	0.984	1	generate	Run3	generate/STIM_015.jpg
2088.079	1.244	1	generate	Run3	generate/STIM_015.jpg
2092.064	1.02	1	generate	Run3	generate/STIM_015.jpg
2095.721	1.028	1	generate	Run3	generate/STIM_015.jpg
2099.776	1.211	1	generate	Run3	generate/STIM_015.jpg
2103.171	1.529	1	generate	Run3	generate/STIM_016.jpg
2107.602	0.86	1	generate	Run3	generate/STIM_016.jpg
2111.338	0.786	1	generate	Run3	generate/STIM_016.jpg
2115.148	1.374	1	generate	Run3	generate/STIM_016.jpg
2119.86	1.794	1	generate	Run3	generate/STIM_016.jpg
2124.065	1.085	1	generate	Run3	generate/STIM_017.jpg
2127.915	1.455	1	generate	Run3	generate/STIM_017.jpg
2133.01	1.767	1	generate	Run3	generate/STIM_017.jpg
2138.325	1.128	1	generate	Run3	generate/STIM_017.jpg
2143.27	1.803	1	generate	Run3	generate/STIM_017.jpg
2147.96	1.144	1	generate	Run3	generate/STIM_018.jpg
2152.504	1.922	1	generate	Run3	generate/STIM_018.jpg
2157.478	0.833	1	generate	Run3	generate/STIM_018.jpg
2161.221	0.838	1	generate	Run3	generate/STIM_018.jpg
2165.683	1.382	1	generate	Run3	generate/STIM_018.jpg
2169.427	1.527	1	generate	Run3	generate/STIM_019.jpg
2174.898	0.875	0	generate	Run3	generate/STIM_019.jpg
2179.615	1.59	1	generate	Run3	generate/STIM_019.jpg
2184.371	1.522	0	generate	Run3	generate/STIM_019.jpg
2189.885	1.588	1	generate	Run3	generate/STIM_019.jpg
2195.373	1.6	1	generate	Run3	generate/STIM_020.jpg
2199.721	1.296	1	generate	Run3	generate/STIM_020.jpg
2204.328	1.032	1	generate	Run3	generate/STIM_020.jpg
2208.188	1.573	1	generate	Run3	generate/STIM_020.jpg
2213.52	1.149	0	generate	Run3	generate/STIM_020.jpg
2217.141	1.377	1	generate	Run3	generate/STIM_021.jpg
2220.782	0.833	1	generate	Run3	generate/STIM_021.jpg
2225.284	1.169	1	generate	Run3	generate/STIM_021.jpg
2230.462	1.757	0	generate	Run3	generate/STIM_021.jpg
2235.495	1.517	1	generate	Run3	generate/STIM_021.jpg
2239.73	0.798	1	generate	Run3	generate/STIM_022.jpg
2243.07	0.979	1	generate	Run3	generate/STIM_022.jpg
2247.262	1.522	1	generate	Run3	generate/STIM_022.jpg
2251.281	0.869	1	generate	Run3	generate/STIM_022.jpg
2254.529	0.897	1	generate	Run3	generate/STIM_022.jpg
2258.477	1.49	1	generate	Run3	generate/STIM_023.jpg
2263.905	0.894	1	generate	Run3	generate/STIM_023.jpg
2267.609	1.179	1	generate	Run3	generate/STIM_023.jpg
2270.949	1.306	1	generate	Run3	generate/STIM_023.jpg
2274.617	1.514	1	generate	Run3	generate/STIM_023.jpg
2278.99	1.23	1	generate	Run3	generate/STIM_024.jpg
2283.915	1.573	1	generate	Run3	generate/STIM_024.jpg
2289.626	1.087	1	generate	Run3	generate/STIM_024.jpg
2293.153	1.016	1	generate	Run3	generate/STIM_024.jpg
2297.942	1.83	1	generate	Run3	generate/STIM_024.jpg
2303.143	0.902	1	repeat	Run3	repeat/STIM_000.jpg
2307.725	0.912	1	repeat	Run3	repeat/STIM_000.jpg
2311.488	0.533	1	repeat	Run3	repeat/STIM_000.jpg
2314.297	0.476	1	repeat	Run3	repeat/STIM_000.jpg
2317.055	0.749	1	repeat	Run3	repeat/STIM_000.jpg
2320.786	0.899	1	repeat	Run3	repeat/STIM_001.jpg
2324.201	0.572	1	repeat	Run3	repeat/STIM_001.jpg
2328.786	0.618	1	repeat	Run3	repeat/STIM_001.jpg
2333.282	0.831	1	repeat	Run3	repeat/STIM_001.jpg
2337.328	0.679	1	repeat	Run3	repeat/STIM_001.jpg
2340.803	0.775	1	repeat	Run3	repeat/STIM_002.jpg
2344.632	0.661	1	repeat	Run3	repeat/STIM_002.jpg
2347.571	0.708	1	repeat	Run3	repeat/STIM_002.jpg
2351.57	0.875	1	repeat	Run3	repeat/STIM_002.jpg
2355.58	0.476	1	repeat	Run3	repeat/STIM_002.jpg
2358.56	0.639	1	repeat	Run3	repeat/STIM_003.jpg
2362.166	0.913	1	repeat	Run3	repeat/STIM_003.jpg
2365.19	0.698	0	repeat	Run3	repeat/STIM_003.jpg
2369.544	0.527	1	repeat	Run3	repeat/STIM_003.jpg
2372.577	0.636	1	repeat	Run3	repeat/STIM_003.jpg
2376.559	0.482	1	repeat	Run3	repeat/STIM_004.jpg
2380.499	0.724	1	repeat	Run3	repeat/STIM_004.jpg
2384.703	0.469	1	repeat	Run3	repeat/STIM_004.jpg
2388.498	0.7	1	repeat	Run3	repeat/STIM_004.jpg
2392.048	0.772	1	repeat	Run3	repeat/STIM_004.jpg
2396.19	0.53	1	repeat	Run3	repeat/STIM_005.jpg
2399.274	0.803	1	repeat	Run3	repeat/STIM_005.jpg
2402.445	0.695	1	repeat	Run3	repeat/STIM_005.jpg
2405.669	0.657	1	repeat	Run3	repeat/STIM_005.jpg
2409.024	0.81	1	repeat	Run3	repeat/STIM_005.jpg
2412.293	0.707	1	repeat	Run3	repeat/STIM_006.jpg
2415.985	0.869	1	repeat	Run3	repeat/STIM_006.jpg
2420.814	0.729	1	repeat	Run3	repeat/STIM_006.jpg
2425.302	0.598	1	repeat	Run3	repeat/STIM_006.jpg
2428.895	0.602	1	repeat	Run3	repeat/STIM_006.jpg
2432.906	0.651	1	repeat	Run3	repeat/STIM_007.jpg
2437.295	0.744	1	repeat	Run3	repeat/STIM_007.jpg
2441.679	0.716	1	repeat	Run3	repeat/STIM_007.jpg
2445.738	0.511	1	repeat	Run3	repeat/STIM_007.jpg
2448.31	0.9	1	repeat	Run3	repeat/STIM_007.jpg
2451.802	0.585	1	repeat	Run3	repeat/STIM_008.jpg
2456.305	0.536	1	repeat	Run3	repeat/STIM_008.jpg
2459.328	0.685	1	repeat	Run3	repeat/STIM_008.jpg
2462.603	0.509	1	repeat	Run3	repeat/STIM_008.jpg
2466.564	0.482	1	repeat	Run3	repeat/STIM_008.jpg
2470.373	0.81	1	repeat	Run3	repeat/STIM_009.jpg
2475.141	0.848	1	repeat	Run3	repeat/STIM_009.jpg
2479.565	0.79	1	repeat	Run3	repeat/STIM_009.jpg
2482.724	0.619	1	repeat	Run3	repeat/STIM_009.jpg
2486.7	0.911	1	repeat	Run3	repeat/STIM_009.jpg
2490.715	0.77	1	repeat	Run3	repeat/STIM_010.jpg
2495.317	0.731	1	repeat	Run3	repeat/STIM_010.jpg
2498.815	0.752	1	repeat	Run3	repeat/STIM_010.jpg
2503.62	0.564	0	repeat	Run3	repeat/STIM_010.jpg
2506.266	0.809	1	repeat	Run3	repeat/STIM_010.jpg
2510.97	0.762	1	repeat	Run3	repeat/STIM_011.jpg
2514.878	0.618	1	repeat	Run3	repeat/STIM_011.jpg
2518.808	0.495	1	repeat	Run3	repeat/STIM_011.jpg
2522.644	0.91	1	repeat	Run3	repeat/STIM_011.jpg
2525.843	0.462	1	repeat	Run3	repeat/STIM_011.jpg
2528.741	0.675	1	repeat	Run3	repeat/STIM_012.jpg
2532.792	0.724	1	repeat	Run3	repeat/STIM_012.jpg
2536.746	0.884	1	repeat	Run3	repeat/STIM_012.jpg
2541.001	0.898	1	repeat	Run3	repeat/STIM_012.jpg
2545.625	0.761	1	repeat	Run3	repeat/STIM_012.jpg
2549.358	0.797	1	repeat	Run3	repeat/STIM_013.jpg
2552.773	0.862	1	repeat	Run3	repeat/STIM_013.jpg
2555.854	0.776	1	repeat	Run3	repeat/STIM_013.jpg
2559.507	0.595	1	repeat	Run3	repeat/STIM_013.jpg
2563.037	0.538	1	repeat	Run3	repeat/STIM_013.jpg
2566.603	0.591	1	repeat	Run3	repeat/STIM_014.jpg
2571.098	0.664	1	repeat	Run3	repeat/STIM_014.jpg
2574.824	0.86	1	repeat	Run3	repeat/STIM_014.jpg
2579.356	0.486	1	repeat	Run3	repeat/STIM_014.jpg
2582.328	0.546	1	repeat	Run3	repeat/STIM_014.jpg
2586.515	1.03	1	generate	Run4	generate/STIM_000.jpg
2591.32	1.8	1	generate	Run4	generate/STIM_000.jpg
2595.328	1.662	1	generate	Run4	generate/STIM_000.jpg
2599.932	1.759	1	generate	Run4	generate/STIM_000.jpg
2604.684	1.352	1	generate	Run4	generate/STIM_000.jpg
2609.218	1.154	1	generate	Run4	generate/STIM_001.jpg
2613.538	1.152	1	generate	Run4	generate/STIM_001.jpg
2618.412	1.783	1	generate	Run4	generate/STIM_001.jpg
2622.648	1.888	1	generate	Run4	generate/STIM_001.jpg
2626.747	1.29	1	generate	Run4	generate/STIM_001.jpg
2630.209	0.975	1	generate	Run4	generate/STIM_002.jpg
2635.214	1.137	0	generate	Run4	generate/STIM_002.jpg
2639.68	1.392	1	generate	Run4	generate/STIM_002.jpg
2644.343	1.847	1	generate	Run4	generate/STIM_002.jpg
2648.373	0.92	1	generate	Run4	generate/STIM_002.jpg
2652.078	1.059	1	generate	Run4	generate/STIM_003.jpg
2655.433	1.868	1	generate	Run4	generate/STIM_003.jpg
2661.048	1.502	1	generate	Run4	generate/STIM_003.jpg
2666.649	1.788	1	generate	Run4	generate/STIM_003.jpg
2670.628	1.137	1	generate	Run4	generate/STIM_003.jpg
2675.6	1.494	1	generate	Run4	generate/STIM_004.jpg
2680.854	1.253	1	generate	Run4	generate/STIM_004.jpg
2685.702	1.302	1	generate	Run4	generate/STIM_004.jpg
2689.878	1.613	1	generate	Run4	generate/STIM_004.jpg
2695.17	1.094	1	generate	Run4	generate/STIM_004.jpg
2698.533	1.364	1	generate	Run4	generate/STIM_005.jpg
2702.939	1.016	1	generate	Run4	generate/STIM_005.jpg
2707.986	0.849	1	generate	Run4	generate/STIM_005.jpg
2711.54	1.488	1	generate	Run4	generate/STIM_005.jpg
2715.75	1.569	1	generate	Run4	generate/STIM_005.jpg
2719.681	1.056	1	generate	Run4	generate/STIM_006.jpg
2723.54	0.805	1	generate	Run4	generate/STIM_006.jpg
2727.402	1.059	1	generate	Run4	generate/STIM_006.jpg
2731.907	1.111	1	generate	Run4	generate/STIM_006.jpg
2736.005	1.741	1	generate	Run4	generate/STIM_006.jpg
2740.589	0.801	1	generate	Run4	generate/STIM_007.jpg
2743.587	1.662	1	generate	Run4	generate/STIM_007.jpg
2749.136	1.61	1	generate	Run4	generate/STIM_007.jpg
2754.64	0.889	1	generate	Run4	generate/STIM_007.jpg
2758.233	1.602	1	generate	Run4	generate/STIM_007.jpg
2763.731	1.011	1	generate	Run4	generate/STIM_008.jpg
2767.405	1.54	1	generate	Run4	generate/STIM_008.jpg
2771.215	0.88	1	generate	Run4	generate/STIM_008.jpg
2776.141	1.165	1	generate	Run4	generate/STIM_008.jpg
2781.043	1.456	1	generate	Run4	generate/STIM_008.jpg
2784.776	1.487	1	generate	Run4	generate/STIM_009.jpg
2788.735	1.569	1	generate	Run4	generate/STIM_009.jpg
2793.516	1.251	1	generate	Run4	generate/STIM_009.jpg
2798.331	0.878	1	generate	Run4	generate/STIM_009.jpg
2801.339	1.536	1	generate	Run4	generate/STIM_009.jpg
2805.554	1.414	1	generate	Run4	generate/STIM_010.jpg
2810.604	1.001	1	generate	Run4	generate/STIM_010.jpg
2814.338	1.187	1	generate	Run4	generate/STIM_010.jpg
2817.692	1.66	1	generate	Run4	generate/STIM_010.jpg
2822.183	1.666	1	generate	Run4	generate/STIM_010.jpg
2826.339	0.803	1	generate	Run4	generate/STIM_011.jpg
2829.377	0.841	1	generate	Run4	generate/STIM_011.jpg
2832.769	1.614	1	generate	Run4	generate/STIM_011.jpg
2836.691	1.912	1	generate	Run4	generate/STIM_011.jpg
2842.229	1.348	1	generate	Run4	generate/STIM_011.jpg
2846.78	1.018	1	generate	Run4	generate/STIM_012.jpg
2850.141	1.916	1	generate	Run4	generate/STIM_012.jpg
2855.751	1.842	1	generate	Run4	generate/STIM_012.jpg
2859.877	1.486	1	generate	Run4	generate/STIM_012.jpg
2864.525	1.638	1	generate	Run4	generate/STIM_012.jpg
2869.571	1.069	1	generate	Run4	generate/STIM_013.jpg
2874.667	1.542	1	generate	Run4	generate/STIM_013.jpg
2879.457	1.826	1	generate	Run4	generate/STIM_013.jpg
2885.128	1.102	1	generate	Run4	generate/STIM_013.jpg
2888.585	1.213	1	generate	Run4	generate/STIM_013.jpg
2893.671	1.74	1	generate	Run4	generate/STIM_014.jpg
2897.878	1.879	1	generate	Run4	generate/STIM_014.jpg
2903.706	1.558	1	generate	Run4	generate/STIM_014.jpg
2909.082	1.481	1	generate	Run4	generate/STIM_014.jpg
2913.11	1.031	1	generate	Run4	generate/STIM_014.jpg
2917.01	1.74	1	generate	Run4	generate/STIM_015.jpg
2921.12	1.875	1	generate	Run4	generate/STIM_015.jpg
2925.474	1.824	1	generate	Run4	generate/STIM_015.jpg
2930.22	1.848	1	generate	Run4	generate/STIM_015.jpg
2935.086	0.92	1	generate	Run4	generate/STIM_015.jpg
2939.341	1.436	1	generate	Run4	generate/STIM_016.jpg
2944.267	1.202	1	generate	Run4	generate/STIM_016.jpg
2948.098	1.477	1	generate	Run4	generate/STIM_016.jpg
2952.639	0.842	1	generate	Run4	generate/STIM_016.jpg
2955.885	1.117	1	generate	Run4	generate/STIM_016.jpg
2960.503	1.098	1	generate	Run4	generate/STIM_017.jpg
2964.806	1.141	1	generate	Run4	generate/STIM_017.jpg
2968.222	1.007	1	generate	Run4	generate/STIM_017.jpg
2973.226	1.718	1	generate	Run4	generate/STIM_017.jpg
2978.21	1.054	1	generate	Run4	generate/STIM_017.jpg
2983.161	1.633	1	generate	Run4	generate/STIM_018.jpg
2988.027	1.698	1	generate	Run4	generate/STIM_018.jpg
2993.331	1.779	1	generate	Run4	generate/STIM_018.jpg
2997.629	1.33	1	generate	Run4	generate/STIM_018.jpg
3002.489	1.106	1	generate	Run4	generate/STIM_018.jpg
3005.962	0.95	1	generate	Run4	generate/STIM_019.jpg
3009.218	0.868	1	generate	Run4	generate/STIM_019.jpg
3014.128	1.588	1	generate	Run4	generate/STIM_019.jpg
3019.411	1.862	1	generate	Run4	generate/STIM_019.jpg
3024.893	1.197	1	generate	Run4	generate/STIM_019.jpg
3030.049	1.644	1	generate	Run4	generate/STIM_020.jpg
3034.967	1.582	1	generate	Run4	generate/STIM_020.jpg
3040.041	0.813	1	generate	Run4	generate/STIM_020.jpg
3043.646	1.408	1	generate	Run4	generate/STIM_020.jpg
3047.742	1.925	0	generate	Run4	generate/STIM_020.jpg
3053.059	1.525	1	generate	Run4	generate/STIM_021.jpg
3057.46	1.128	1	generate	Run4	generate/STIM_021.jpg
3061.783	0.962	1	generate	Run4	generate/STIM_021.jpg
3066.706	1.45	1	generate	Run4	generate/STIM_021.jpg
3071.67	1.663	0	generate	Run4	generate/STIM_021.jpg
3076.206	1.802	1	generate	Run4	generate/STIM_022.jpg
3081.346	1.305	1	generate	Run4	generate/STIM_022.jpg
3085.862	1.287	1	generate	Run4	generate/STIM_022.jpg
3090.341	1.775	1	generate	Run4	generate/STIM_022.jpg
3095.452	1.155	1	generate	Run4	generate/STIM_022.jpg
3099.499	1.845	1	generate	Run4	generate/STIM_023.jpg
3103.973	0.819	1	generate	Run4	generate/STIM_023.jpg
3108.751	1.675	1	generate	Run4	generate/STIM_023.jpg
3114.394	1.646	1	generate	Run4	generate/STIM_023.jpg
3118.987	0.942	1	generate	Run4	generate/STIM_023.jpg
3123.874	1.055	1	generate	Run4	generate/STIM_024.jpg
3128.181	1.382	1	generate	Run4	generate/STIM_024.jpg
3132.166	1.92	1	generate	Run4	generate/STIM_024.jpg
3138.218	1.362	1	generate	Run4	generate/STIM_024.jpg
3142.447	1.195	1	generate	Run4	generate/STIM_024.jpg
3147.658	0.803	1	repeat	Run4	repeat/STIM_000.jpg
3152.204	0.843	1	repeat	Run4	repeat/STIM_000.jpg
3155.525	0.568	1	repeat	Run4	repeat/STIM_000.jpg
3158.829	0.471	1	repeat	Run4	repeat/STIM_000.jpg
3161.861	0.874	1	repeat	Run4	repeat/STIM_000.jpg
3165.641	0.718	1	repeat	Run4	repeat/STIM_001.jpg
3168.675	0.731	1	repeat	Run4	repeat/STIM_001.jpg
3172.85	0.502	1	repeat	Run4	repeat/STIM_001.jpg
3176.504	0.729	1	repeat	Run4	repeat/STIM_001.jpg
3180.748	0.564	1	repeat	Run4	repeat/STIM_001.jpg
3183.577	0.719	1	repeat	Run4	repeat/STIM_002.jpg
3187.057	0.557	0	repeat	Run4	repeat/STIM_002.jpg
3190.794	0.852	1	repeat	Run4	repeat/STIM_002.jpg
3194.958	0.876	1	repeat	Run4	repeat/STIM_002.jpg
3198.817	0.765	1	repeat	Run4	repeat/STIM_002.jpg
3201.951	0.657	1	repeat	Run4	repeat/STIM_003.jpg
3205.231	0.689	1	repeat	Run4	repeat/STIM_003.jpg
3209.459	0.808	1	repeat	Run4	repeat/STIM_003.jpg
3212.724	0.825	1	repeat	Run4	repeat/STIM_003.jpg
3217.376	0.464	1	repeat	Run4	repeat/STIM_003.jpg
3221.61	0.916	1	repeat	Run4	repeat/STIM_004.jpg
3225.933	0.709	1	repeat	Run4	repeat/STIM_004.jpg
3229.637	0.772	1	repeat	Run4	repeat/STIM_004.jpg
3234.171	0.914	1	repeat	Run4	repeat/STIM_004.jpg
3238.602	0.795	1	repeat	Run4	repeat/STIM_004.jpg
3241.759	0.682	1	repeat	Run4	repeat/STIM_005.jpg
3245.11	0.666	1	repeat	Run4	repeat/STIM_005.jpg
3249.177	0.601	1	repeat	Run4	repeat/STIM_005.jpg
3253.076	0.694	1	repeat	Run4	repeat/STIM_005.jpg
3256.48	0.53	1	repeat	Run4	repeat/STIM_005.jpg
3260.418	0.551	1	repeat	Run4	repeat/STIM_006.jpg
3263.958	0.723	1	repeat	Run4	repeat/STIM_006.jpg
3266.757	0.72	1	repeat	Run4	repeat/STIM_006.jpg
3271.29	0.894	1	repeat	Run4	repeat/STIM_006.jpg
3275.485	0.914	1	repeat	Run4	repeat/STIM_006.jpg
3278.725	0.51	1	repeat	Run4	repeat/STIM_007.jpg
3282.095	0.751	1	repeat	Run4	repeat/STIM_007.jpg
3285.476	0.474	1	repeat	Run4	repeat/STIM_007.jpg
3288.674	0.622	1	repeat	Run4	repeat/STIM_007.jpg
3291.896	0.883	1	repeat	Run4	repeat/STIM_007.jpg
3295.323	0.734	1	repeat	Run4	repeat/STIM_008.jpg
3300.048	0.565	1	repeat	Run4	repeat/STIM_008.jpg
3303.573	0.712	1	repeat	Run4	repeat/STIM_008.jpg
3306.667	0.735	1	repeat	Run4	repeat/STIM_008.jpg
3310.226	0.731	1	repeat	Run4	repeat/STIM_008.jpg
3314.619	0.465	0	repeat	Run4	repeat/STIM_009.jpg
3318.837	0.604	1	repeat	Run4	repeat/STIM_009.jpg
3321.651	0.696	1	repeat	Run4	repeat/STIM_009.jpg
3325.735	0.84	1	repeat	Run4	repeat/STIM_009.jpg
3328.657	0.877	1	repeat	Run4	repeat/STIM_009.jpg
3331.844	0.648	1	repeat	Run4	repeat/STIM_010.jpg
3334.813	0.534	1	repeat	Run4	repeat/STIM_010.jpg
3337.437	0.558	1	repeat	Run4	repeat/STIM_010.jpg
3341.077	0.8	1	repeat	Run4	repeat/STIM_010.jpg
3345.212	0.571	1	repeat	Run4	repeat/STIM_010.jpg
3348.581	0.705	1	repeat	Run4	repeat/STIM_011.jpg
3351.957	0.475	1	repeat	Run4	repeat/STIM_011.jpg
3355.226	0.812	1	repeat	Run4	repeat/STIM_011.jpg
3359.93	0.464	1	repeat	Run4	repeat/STIM_011.jpg
3364.119	0.562	1	repeat	Run4	repeat/STIM_011.jpg
3368.217	0.799	1	repeat	Run4	repeat/STIM_012.jpg
3371.8	0.873	1	repeat	Run4	repeat/STIM_012.jpg
3376.492	0.76	1	repeat	Run4	repeat/STIM_012.jpg
3380.915	0.614	1	repeat	Run4	repeat/STIM_012.jpg
3384.613	0.487	1	repeat	Run4	repeat/STIM_012.jpg
3388.726	0.636	1	repeat	Run4	repeat/STIM_013.jpg
3391.79	0.518	1	repeat	Run4	repeat/STIM_013.jpg
3394.659	0.874	1	repeat	Run4	repeat/STIM_013.jpg
3397.672	0.74	1	repeat	Run4	repeat/STIM_013.jpg
3402.097	0.575	1	repeat	Run4	repeat/STIM_013.jpg
3406.21	0.65	1	repeat	Run4	repeat/STIM_014.jpg
3409.849	0.888	1	repeat	Run4	repeat/STIM_014.jpg
3414.363	0.886	1	repeat	Run4	repeat/STIM_014.jpg
3418.768	0.6	1	repeat	Run4	repeat/STIM_014.jpg
3423.416	0.511	1	repeat	Run4	repeat/STIM_014.jpg
