onset	duration	response_time_ms	trial_type	learning_stage	stimulus	response_port
0.0	0.718	718.3	2back	Block1	2back/STIM_000.jpg	99
4.653	0.593	593.2	2back	Block1	2back/STIM_000.jpg	100
7.421	0.881	880.8	2back	Block1	2back/STIM_000.jpg	100
10.569	0.695	695.0	2back	Block1	2back/STIM_001.jpg	100
13.59	0.938	938.3	2back	Block1	2back/STIM_001.jpg	99
17.848	0.992	991.6	2back	Block1	2back/STIM_001.jpg	100
22.194	0.56	559.6	2back	Block1	2back/STIM_002.jpg	100
25.1	1.047	1047.4	2back	Block1	2back/STIM_002.jpg	99
29.509	0.886	885.8	2back	Block1	2back/STIM_002.jpg	100
33.877	0.713	712.7	2back	Block1	2back/STIM_003.jpg	99
37.062	0.687	686.7	2back	Block1	2back/STIM_003.jpg	100
41.784	0.579	579.3	2back	Block1	2back/STIM_003.jpg	100
44.703	0.806	806.0	2back	Block1	2back/STIM_004.jpg	100
49.258	0.538	538.1	2back	Block1	2back/STIM_004.jpg	100
52.372	0.599	599.3	2back	Block1	2back/STIM_004.jpg	99
55.69	1.154	1153.5	2back	Block1	2back/STIM_005.jpg	99
60.454	0.587	587.2	2back	Block1	2back/STIM_005.jpg	100
63.575	0.492	491.7	2back	Block1	2back/STIM_005.jpg	100
66.644	0.945	945.4	2back	Block1	2back/STIM_006.jpg	99
70.213	0.931	931.2	2back	Block1	2back/STIM_006.jpg	99
74.809	0.613	613.2	2back	Block1	2back/STIM_006.jpg	99
79.492	0.996	996.4	2back	Block1	2back/STIM_007.jpg	100
82.878	0.619	619.1	2back	Block1	2back/STIM_007.jpg	99
86.797	0.926	925.6	2back	Block1	2back/STIM_007.jpg	99
90.813	0.622	621.7	2back	Block1	2back/STIM_008.jpg	99
94.711	0.698	697.7	2back	Block1	2back/STIM_008.jpg	100
97.559	0.482	482.5	2back	Block1	2back/STIM_008.jpg	100
100.961	0.833	833.0	2back	Block1	2back/STIM_009.jpg	100
105.164	0.78	779.8	2back	Block1	2back/STIM_009.jpg	100
108.901	0.744	743.5	2back	Block1	2back/STIM_009.jpg	99
112.208	0.596	595.8	2back	Block1	2back/STIM_010.jpg	100
115.004	0.958	958.4	2back	Block1	2back/STIM_010.jpg	100
119.737	1.082	1082.2	2back	Block1	2back/STIM_010.jpg	99
123.273	0.603	603.1	2back	Block1	2back/STIM_011.jpg	99
126.601	0.806	806.4	2back	Block1	2back/STIM_011.jpg	99
131.514	1.086	1086.1	2back	Block1	2back/STIM_011.jpg	99
136.535	0.995	995.4	2back	Block1	2back/STIM_012.jpg	99
141.421	1.075	1075.4	2back	Block1	2back/STIM_012.jpg	100
145.75	0.86	860.3	2back	Block1	2back/STIM_012.jpg	100
149.376	0.793	792.7	2back	Block1	2back/STIM_013.jpg	99
153.412	0.824	824.1	2back	Block1	2back/STIM_013.jpg	100
156.735	0.897	897.2	2back	Block1	2back/STIM_013.jpg	99
160.426	1.106	1105.6	2back	Block1	2back/STIM_014.jpg	100
164.158	0.925	925.4	2back	Block1	2back/STIM_014.jpg	99
169.029	1.038	1038.1	2back	Block1	2back/STIM_014.jpg	99
172.578	0.997	996.7	2back	Block1	2back/STIM_015.jpg	100
176.39	0.825	825.2	2back	Block1	2back/STIM_015.jpg	99
179.673	0.521	521.4	2back	Block1	2back/STIM_015.jpg	100
182.814	0.7	700.3	2back	Block1	2back/STIM_016.jpg	100
187.041	1.061	1060.7	2back	Block1	2back/STIM_016.jpg	100
192.031	1.078	1077.7	2back	Block1	2back/STIM_016.jpg	100
196.383	1.033	1032.6	2back	Block1	2back/STIM_017.jpg	100
199.66	0.769	769.2	2back	Block1	2back/STIM_017.jpg	100
203.681	0.689	688.6	2back	Block1	2back/STIM_017.jpg	99
206.787	1.04	1039.9	2back	Block1	2back/STIM_018.jpg	100
210.009	0.658	658.1	2back	Block1	2back/STIM_018.jpg	99
213.942	0.592	592.2	2back	Block1	2back/STIM_018.jpg	100
218.229	0.684	684.3	2back	Block1	2back/STIM_019.jpg	100
221.675	0.642	642.3	2back	Block1	2back/STIM_019.jpg	100
225.188	0.659	659.4	2back	Block1	2back/STIM_019.jpg	99
228.513	1.15	1150.5	2back	Block1	2back/STIM_020.jpg	100
232.942	0.707	706.9	2back	Block1	2back/STIM_020.jpg	99
237.729	1.049	1048.9	2back	Block1	2back/STIM_020.jpg	100
242.133	0.7	699.6	2back	Block1	2back/STIM_021.jpg	100
246.892	0.874	873.5	2back	Block1	2back/STIM_021.jpg	100
250.511	1.05	1049.7	2back	Block1	2back/STIM_021.jpg	99
255.258	1.052	1051.9	2back	Block1	2back/STIM_022.jpg	100
259.028	0.514	513.5	2back	Block1	2back/STIM_022.jpg	100
263.408	1.017	1017.3	2back	Block1	2back/STIM_022.jpg	100
268.101	0.88	880.1	2back	Block1	2back/STIM_023.jpg	100
272.551	1.136	1136.3	2back	Block1	2back/STIM_023.jpg	100
276.115	0.518	518.3	2back	Block1	2back/STIM_023.jpg	100
279.95	0.887	886.9	2back	Block1	2back/STIM_024.jpg	100
284.725	0.639	638.6	2back	Block1	2back/STIM_024.jpg	99
289.397	0.848	847.9	2back	Block1	2back/STIM_024.jpg	100
292.71	0.874	873.7	2back	Block1	2back/STIM_025.jpg	99
295.919	0.533	533.2	2back	Block1	2back/STIM_025.jpg	100
298.558	0.854	853.6	2back	Block1	2back/STIM_025.jpg	100
302.536	0.738	737.7	2back	Block1	2back/STIM_026.jpg	99
305.542	0.899	899.1	2back	Block1	2back/STIM_026.jpg	100
310.185	0.542	542.2	2back	Block1	2back/STIM_026.jpg	99
312.974	0.668	668.1	2back	Block1	2back/STIM_027.jpg	99
316.099	1.144	1144.4	2back	Block1	2back/STIM_027.jpg	99
320.974	0.904	903.8	2back	Block1	2back/STIM_027.jpg	100
325.228	0.72	719.6	2back	Block1	2back/STIM_028.jpg	100
328.443	0.534	534.0	2back	Block1	2back/STIM_028.jpg	99
331.382	0.542	541.9	2back	Block1	2back/STIM_028.jpg	100
334.459	0.916	915.7	2back	Block1	2back/STIM_029.jpg	100
337.821	0.77	770.0	2back	Block1	2back/STIM_029.jpg	100
341.624	0.613	613.2	2back	Block1	2back/STIM_029.jpg	100
345.945	0.524	523.9	2back	Block1	2back/STIM_030.jpg	100
348.921	0.957	956.9	2back	Block1	2back/STIM_030.jpg	100
352.894	0.942	941.5	2back	Block1	2back/STIM_030.jpg	100
356.356	0.811	810.7	2back	Block1	2back/STIM_031.jpg	99
359.948	0.78	780.4	2back	Block1	2back/STIM_031.jpg	99
364.419	0.564	563.5	2back	Block1	2back/STIM_031.jpg	100
367.515	0.72	720.1	2back	Block1	2back/STIM_032.jpg	99
370.976	1.019	1018.6	2back	Block1	2back/STIM_032.jpg	100
374.277	0.708	707.8	2back	Block1	2back/STIM_032.jpg	100
378.286	0.768	768.3	2back	Block1	2back/STIM_033.jpg	100
381.569	0.588	587.8	2back	Block1	2back/STIM_033.jpg	100
385.952	0.723	722.7	2back	Block1	2back/STIM_033.jpg	100
390.024	1.049	1049.0	2back	Block1	2back/STIM_034.jpg	100
394.718	0.538	538.1	2back	Block1	2back/STIM_034.jpg	99
397.681	0.624	623.9	2back	Block1	2back/STIM_034.jpg	100
401.941	0.586	586.5	2back	Block1	2back/STIM_035.jpg	100
405.368	0.698	697.7	2back	Block1	2back/STIM_035.jpg	99
409.155	0.633	632.7	2back	Block1	2back/STIM_035.jpg	100
413.677	0.668	668.1	2back	Block1	2back/STIM_036.jpg	99
416.927	0.833	833.4	2back	Block1	2back/STIM_036.jpg	100
420.58	0.607	606.6	2back	Block1	2back/STIM_036.jpg	99
423.884	0.627	627.1	2back	Block1	2back/STIM_037.jpg	99
428.486	0.776	776.3	2back	Block1	2back/STIM_037.jpg	99
431.869	0.78	779.7	2back	Block1	2back/STIM_037.jpg	100
436.015	0.757	757.2	2back	Block1	2back/STIM_038.jpg	100
439.244	0.7	699.9	2back	Block1	2back/STIM_038.jpg	99
442.689	1.048	1047.5	2back	Block1	2back/STIM_038.jpg	99
447.406	0.816	816.3	2back	Block1	2back/STIM_039.jpg	100
451.047	0.958	958.1	2back	Block1	2back/STIM_039.jpg	100
455.632	0.825	825.0	2back	Block1	2back/STIM_039.jpg	100
458.687	0.504	504.0	0back	Block1	0back/STIM_000.jpg	100
462.497	0.349	349.1	0back	Block1	0back/STIM_000.jpg	100
465.144	0.431	430.6	0back	Block1	0back/STIM_000.jpg	99
468.722	0.374	373.9	0back	Block1	0back/STIM_001.jpg	99
471.696	0.437	436.9	0back	Block1	0back/STIM_001.jpg	99
475.008	0.531	531.0	0back	Block1	0back/STIM_001.jpg	99
479.511	0.526	526.2	0back	Block1	0back/STIM_002.jpg	100
482.154	0.536	535.5	0back	Block1	0back/STIM_002.jpg	99
485.369	0.439	438.9	0back	Block1	0back/STIM_002.jpg	100
489.28	0.453	453.1	0back	Block1	0back/STIM_003.jpg	100
492.696	0.513	512.6	0back	Block1	0back/STIM_003.jpg	100
496.243	0.671	671.3	0back	Block1	0back/STIM_003.jpg	99
499.245	0.662	662.0	0back	Block1	0back/STIM_004.jpg	100
502.732	0.445	445.3	0back	Block1	0back/STIM_004.jpg	99
506.601	0.591	591.3	0back	Block1	0back/STIM_004.jpg	100
510.887	0.506	506.1	0back	Block1	0back/STIM_005.jpg	100
513.762	0.642	641.8	0back	Block1	0back/STIM_005.jpg	99
517.174	0.662	662.5	0back	Block1	0back/STIM_005.jpg	99
520.87	0.637	636.6	0back	Block1	0back/STIM_006.jpg	100
524.115	0.373	373.0	0back	Block1	0back/STIM_006.jpg	99
526.678	0.355	355.0	0back	Block1	0back/STIM_006.jpg	99
529.96	0.584	584.2	0back	Block1	0back/STIM_007.jpg	99
533.405	0.356	355.7	0back	Block1	0back/STIM_007.jpg	99
537.298	0.581	581.4	0back	Block1	0back/STIM_007.jpg	99
541.459	0.53	529.6	0back	Block1	0back/STIM_008.jpg	99
545.107	0.477	476.9	0back	Block1	0back/STIM_008.jpg	99
548.454	0.356	356.1	0back	Block1	0back/STIM_008.jpg	99
552.283	0.527	526.8	0back	Block1	0back/STIM_009.jpg	100
554.92	0.368	367.8	0back	Block1	0back/STIM_009.jpg	100
559.189	0.414	414.2	0back	Block1	0back/STIM_009.jpg	99
562.31	0.446	446.5	0back	Block1	0back/STIM_010.jpg	99
566.413	0.594	593.7	0back	Block1	0back/STIM_010.jpg	99
570.628	0.439	438.8	0back	Block1	0back/STIM_010.jpg	99
574.335	0.536	536.5	0back	Block1	0back/STIM_011.jpg	100
577.704	0.363	363.3	0back	Block1	0back/STIM_011.jpg	100
581.721	0.58	580.2	0back	Block1	0back/STIM_011.jpg	99
585.767	0.632	632.5	0back	Block1	0back/STIM_012.jpg	99
589.946	0.655	655.1	0back	Block1	0back/STIM_012.jpg	100
594.173	0.622	621.6	0back	Block1	0back/STIM_012.jpg	99
597.593	0.593	592.6	0back	Block1	0back/STIM_013.jpg	99
601.242	0.396	395.7	0back	Block1	0back/STIM_013.jpg	100
604.089	0.521	521.1	0back	Block1	0back/STIM_013.jpg	99
606.754	0.591	590.9	0back	Block1	0back/STIM_014.jpg	100
610.361	0.507	507.2	0back	Block1	0back/STIM_014.jpg	100
613.488	0.379	379.3	0back	Block1	0back/STIM_014.jpg	100
617.5	0.443	442.8	0back	Block1	0back/STIM_015.jpg	99
621.68	0.474	474.2	0back	Block1	0back/STIM_015.jpg	100
625.123	0.436	435.6	0back	Block1	0back/STIM_015.jpg	100
627.705	0.615	615.3	0back	Block1	0back/STIM_016.jpg	100
631.862	0.633	632.6	0back	Block1	0back/STIM_016.jpg	100
635.069	0.36	359.9	0back	Block1	0back/STIM_016.jpg	99
638.099	0.496	496.4	0back	Block1	0back/STIM_017.jpg	100
642.616	0.546	545.5	0back	Block1	0back/STIM_017.jpg	100
646.803	0.49	489.5	0back	Block1	0back/STIM_017.jpg	100
649.85	0.474	474.5	0back	Block1	0back/STIM_018.jpg	99
652.456	0.606	606.0	0back	Block1	0back/STIM_018.jpg	99
655.309	0.476	476.3	0back	Block1	0back/STIM_018.jpg	100
659.671	0.549	548.6	0back	Block1	0back/STIM_019.jpg	100
663.862	0.585	585.0	0back	Block1	0back/STIM_019.jpg	99
668.051	0.583	582.6	0back	Block1	0back/STIM_019.jpg	100
671.204	0.987	986.9	2back	Block2	2back/STIM_000.jpg	100
676.295	0.905	904.6	2back	Block2	2back/STIM_000.jpg	100
679.971	0.505	505.4	2back	Block2	2back/STIM_000.jpg	99
684.063	0.722	722.5	2back	Block2	2back/STIM_001.jpg	100
687.32	0.446	446.0	2back	Block2	2back/STIM_001.jpg	100
691.058	0.629	628.6	2back	Block2	2back/STIM_001.jpg	99
694.378	0.703	703.3	2back	Block2	2back/STIM_002.jpg	100
697.421	0.511	511.0	2back	Block2	2back/STIM_002.jpg	100
700.191	0.902	901.5	2back	Block2	2back/STIM_002.jpg	99
704.94	1.002	1001.8	2back	Block2	2back/STIM_003.jpg	99
708.378	0.855	854.9	2back	Block2	2back/STIM_003.jpg	99
712.484	0.482	481.8	2back	Block2	2back/STIM_003.jpg	100
716.126	0.45	449.7	2back	Block2	2back/STIM_004.jpg	99
719.212	0.78	779.8	2back	Block2	2back/STIM_004.jpg	99
723.793	0.836	836.5	2back	Block2	2back/STIM_004.jpg	100
728.141	0.473	472.9	2back	Block2	2back/STIM_005.jpg	100
732.623	0.505	505.0	2back	Block2	2back/STIM_005.jpg	99
735.308	0.4	400.4	2back	Block2	2back/STIM_005.jpg	99
739.613	0.639	639.4	2back	Block2	2back/STIM_006.jpg	100
743.789	0.963	963.1	2back	Block2	2back/STIM_006.jpg	99
748.832	0.406	406.4	2back	Block2	2back/STIM_006.jpg	100
752.761	0.704	703.5	2back	Block2	2back/STIM_007.jpg	99
756.642	0.738	738.3	2back	Block2	2back/STIM_007.jpg	99
759.616	0.542	542.0	2back	Block2	2back/STIM_007.jpg	99
762.977	0.513	512.9	2back	Block2	2back/STIM_008.jpg	100
767.091	0.843	842.7	2back	Block2	2back/STIM_008.jpg	100
771.396	0.54	540.1	2back	Block2	2back/STIM_008.jpg	99
774.945	0.511	511.2	2back	Block2	2back/STIM_009.jpg	99
778.966	0.472	471.9	2back	Block2	2back/STIM_009.jpg	100
782.227	0.613	613.4	2back	Block2	2back/STIM_009.jpg	99
786.0	0.969	968.6	2back	Block2	2back/STIM_010.jpg	100
790.862	0.674	673.7	2back	Block2	2back/STIM_010.jpg	99
794.134	0.402	402.5	2back	Block2	2back/STIM_010.jpg	99
798.583	0.861	860.6	2back	Block2	2back/STIM_011.jpg	99
801.582	0.608	608.4	2back	Block2	2back/STIM_011.jpg	99
806.022	0.783	783.0	2back	Block2	2back/STIM_011.jpg	100
810.109	0.99	990.2	2back	Block2	2back/STIM_012.jpg	100
814.217	0.815	815.2	2back	Block2	2back/STIM_012.jpg	100
818.259	0.787	786.9	2back	Block2	2back/STIM_012.jpg	100
822.78	0.855	855.4	2back	Block2	2back/STIM_013.jpg	100
827.717	0.831	830.7	2back	Block2	2back/STIM_013.jpg	99
830.76	0.812	811.8	2back	Block2	2back/STIM_013.jpg	99
834.363	0.502	502.0	2back	Block2	2back/STIM_014.jpg	99
837.519	0.827	827.1	2back	Block2	2back/STIM_014.jpg	100
840.684	0.532	532.0	2back	Block2	2back/STIM_014.jpg	100
843.911	0.465	465.4	2back	Block2	2back/STIM_015.jpg	99
848.368	0.904	903.6	2back	Block2	2back/STIM_015.jpg	99
852.237	0.574	573.7	2back	Block2	2back/STIM_015.jpg	99
856.096	0.619	619.1	2back	Block2	2back/STIM_016.jpg	100
859.066	0.49	490.2	2back	Block2	2back/STIM_016.jpg	99
861.941	0.844	844.2	2back	Block2	2back/STIM_016.jpg	99
866.308	0.514	513.6	2back	Block2	2back/STIM_017.jpg	100
869.859	0.61	609.9	2back	Block2	2back/STIM_017.jpg	99
873.036	0.865	865.0	2back	Block2	2back/STIM_017.jpg	99
877.02	0.982	981.9	2back	Block2	2back/STIM_018.jpg	99
881.565	0.683	682.8	2back	Block2	2back/STIM_018.jpg	100
885.921	0.621	621.0	2back	Block2	2back/STIM_018.jpg	100
889.498	0.585	584.9	2back	Block2	2back/STIM_019.jpg	99
893.685	0.602	601.9	2back	Block2	2back/STIM_019.jpg	100
897.332	0.665	665.1	2back	Block2	2back/STIM_019.jpg	100
901.403	0.715	715.2	2back	Block2	2back/STIM_020.jpg	100
904.841	0.651	650.7	2back	Block2	2back/STIM_020.jpg	100
909.336	0.775	775.1	2back	Block2	2back/STIM_020.jpg	99
913.444	0.587	587.0	2back	Block2	2back/STIM_021.jpg	99
916.893	0.893	892.8	2back	Block2	2back/STIM_021.jpg	99
921.477	0.731	730.6	2back	Block2	2back/STIM_021.jpg	99
925.677	0.762	762.4	2back	Block2	2back/STIM_022.jpg	100
929.656	0.946	946.0	2back	Block2	2back/STIM_022.jpg	99
933.56	0.813	812.9	2back	Block2	2back/STIM_022.jpg	100
936.696	0.751	751.4	2back	Block2	2back/STIM_023.jpg	99
939.987	0.878	877.6	2back	Block2	2back/STIM_023.jpg	100
943.329	0.463	463.1	2back	Block2	2back/STIM_023.jpg	99
946.897	1.002	1001.7	2back	Block2	2back/STIM_024.jpg	100
951.406	0.862	861.9	2back	Block2	2back/STIM_024.jpg	100
956.202	0.707	707.2	2back	Block2	2back/STIM_024.jpg	99
959.099	0.852	852.3	2back	Block2	2back/STIM_025.jpg	99
963.464	0.962	962.2	2back	Block2	2back/STIM_025.jpg	99
966.924	0.592	592.0	2back	Block2	2back/STIM_025.jpg	99
971.598	0.496	496.2	2back	Block2	2back/STIM_026.jpg	99
975.681	0.85	850.1	2back	Block2	2back/STIM_026.jpg	99
980.657	0.571	570.8	2back	Block2	2back/STIM_026.jpg	99
985.312	0.892	891.6	2back	Block2	2back/STIM_027.jpg	99
988.941	0.694	693.8	2back	Block2	2back/STIM_027.jpg	100
993.303	0.793	793.3	2back	Block2	2back/STIM_027.jpg	99
997.647	0.539	539.1	2back	Block2	2back/STIM_028.jpg	100
1000.706	0.761	761.2	2back	Block2	2back/STIM_028.jpg	99
1003.695	0.519	519.3	2back	Block2	2back/STIM_028.jpg	100
1006.868	0.52	520.3	2back	Block2	2back/STIM_029.jpg	100
1011.197	0.579	578.7	2back	Block2	2back/STIM_029.jpg	99
1015.208	0.874	874.3	2back	Block2	2back/STIM_029.jpg	99
1019.823	0.539	538.6	2back	Block2	2back/STIM_030.jpg	100
1023.415	0.927	926.6	2back	Block2	2back/STIM_030.jpg	100
1027.799	0.528	527.5	2back	Block2	2back/STIM_030.jpg	99
1030.771	0.656	656.0	2back	Block2	2back/STIM_031.jpg	100
1035.363	0.799	798.8	2back	Block2	2back/STIM_031.jpg	100
1039.492	0.702	701.7	2back	Block2	2back/STIM_031.jpg	99
1044.198	0.808	807.9	2back	Block2	2back/STIM_032.jpg	99
1047.893	0.5	499.7	2back	Block2	2back/STIM_032.jpg	99
1051.445	0.489	488.8	2back	Block2	2back/STIM_032.jpg	100
1055.485	0.843	842.9	2back	Block2	2back/STIM_033.jpg	100
1059.954	0.683	683.1	2back	Block2	2back/STIM_033.jpg	99
1062.934	0.437	437.0	2back	Block2	2back/STIM_033.jpg	100
1067.282	0.898	897.7	2back	Block2	2back/STIM_034.jpg	100
1072.111	0.744	743.8	2back	Block2	2back/STIM_034.jpg	99
1076.1	0.587	587.2	2back	Block2	2back/STIM_034.jpg	99
1079.002	0.623	623.4	2back	Block2	2back/STIM_035.jpg	100
1083.476	0.749	748.7	2back	Block2	2back/STIM_035.jpg	99
1086.749	0.486	486.0	2back	Block2	2back/STIM_035.jpg	100
1090.6	0.848	847.9	2back	Block2	2back/STIM_036.jpg	99
1093.914	0.619	619.1	2back	Block2	2back/STIM_036.jpg	99
1097.437	0.478	478.2	2back	Block2	2back/STIM_036.jpg	100
1101.428	0.985	984.6	2back	Block2	2back/STIM_037.jpg	100
1105.325	0.56	560.5	2back	Block2	2back/STIM_037.jpg	100
1108.481	0.622	622.3	2back	Block2	2back/STIM_037.jpg	100
1111.657	0.838	838.4	2back	Block2	2back/STIM_038.jpg	100
1115.712	0.942	941.9	2back	Block2	2back/STIM_038.jpg	100
1119.711	0.837	836.9	2back	Block2	2back/STIM_038.jpg	99
1123.655	0.676	676.0	2back	Block2	2back/STIM_039.jpg	99
1127.565	0.416	415.5	2back	Block2	2back/STIM_039.jpg	100
1130.7	0.672	672.3	2back	Block2	2back/STIM_039.jpg	100
1135.418	0.561	561.0	0back	Block2	0back/STIM_000.jpg	100
1138.977	0.667	666.7	0back	Block2	0back/STIM_000.jpg	99
1143.087	0.418	418.2	0back	Block2	0back/STIM_000.jpg	100
1146.095	0.382	382.5	0back	Block2	0back/STIM_001.jpg	99
1149.466	0.378	378.2	0back	Block2	0back/STIM_001.jpg	99
1152.151	0.346	345.5	0back	Block2	0back/STIM_001.jpg	100
1155.322	0.594	594.3	0back	Block2	0back/STIM_002.jpg	99
1159.714	0.442	442.2	0back	Block2	0back/STIM_002.jpg	99
1163.962	0.45	450.0	0back	Block2	0back/STIM_002.jpg	99
1167.857	0.436	436.1	0back	Block2	0back/STIM_003.jpg	99
1171.195	0.626	625.5	0back	Block2	0back/STIM_003.jpg	99
1174.515	0.391	390.9	0back	Block2	0back/STIM_003.jpg	99
1178.443	0.552	552.2	0back	Block2	0back/STIM_004.jpg	99
1181.879	0.416	416.3	0back	Block2	0back/STIM_004.jpg	100
1185.072	0.596	595.6	0back	Block2	0back/STIM_004.jpg	99
1189.346	0.605	604.6	0back	Block2	0back/STIM_005.jpg	100
1192.94	0.582	581.8	0back	Block2	0back/STIM_005.jpg	99
1196.533	0.597	597.0	0back	Block2	0back/STIM_005.jpg	100
1200.466	0.596	595.8	0back	Block2	0back/STIM_006.jpg	99
1205.022	0.576	575.9	0back	Block2	0back/STIM_006.jpg	100
1209.011	0.45	449.9	0back	Block2	0back/STIM_006.jpg	100
1213.22	0.564	564.3	0back	Block2	0back/STIM_007.jpg	100
1215.901	0.445	445.2	0back	Block2	0back/STIM_007.jpg	100
1220.154	0.624	623.9	0back	Block2	0back/STIM_007.jpg	100
1223.185	0.589	588.7	0back	Block2	0back/STIM_008.jpg	100
1226.868	0.406	405.5	0back	Block2	0back/STIM_008.jpg	100
1229.55	0.424	424.5	0back	Block2	0back/STIM_008.jpg	100
1232.746	0.511	511.0	0back	Block2	0back/STIM_009.jpg	100
1235.405	0.4	400.5	0back	Block2	0back/STIM_009.jpg	99
1239.397	0.456	455.9	0back	Block2	0back/STIM_009.jpg	100
1243.82	0.425	425.1	0back	Block2	0back/STIM_010.jpg	100
1247.013	0.54	539.6	0back	Block2	0back/STIM_010.jpg	99
1250.625	0.57	569.8	0back	Block2	0back/STIM_010.jpg	100
1254.914	0.62	620.2	0back	Block2	0back/STIM_011.jpg	99
1257.855	0.426	426.3	0back	Block2	0back/STIM_011.jpg	100
1261.12	0.456	456.4	0back	Block2	0back/STIM_011.jpg	99
1264.958	0.44	440.1	0back	Block2	0back/STIM_012.jpg	99
1269.266	0.487	487.1	0back	Block2	0back/STIM_012.jpg	100
1272.811	0.455	454.8	0back	Block2	0back/STIM_012.jpg	99
1275.985	0.393	393.4	0back	Block2	0back/STIM_013.jpg	99
1279.535	0.56	559.7	0back	Block2	0back/STIM_013.jpg	99
1284.09	0.373	373.0	0back	Block2	0back/STIM_013.jpg	100
1288.404	0.507	507.3	0back	Block2	0back/STIM_014.jpg	100
1292.386	0.39	390.4	0back	Block2	0back/STIM_014.jpg	100
1296.644	0.361	361.4	0back	Block2	0back/STIM_014.jpg	99
1299.132	0.466	466.4	0back	Block2	0back/STIM_015.jpg	100
1303.493	0.536	536.4	0back	Block2	0back/STIM_015.jpg	99
1307.214	0.568	567.9	0back	Block2	0back/STIM_015.jpg	100
1310.247	0.594	593.5	0back	Block2	0back/STIM_016.jpg	99
1312.99	0.596	595.7	0back	Block2	0back/STIM_016.jpg	99
1316.756	0.362	362.2	0back	Block2	0back/STIM_016.jpg	99
1319.32	0.461	460.7	0back	Block2	0back/STIM_017.jpg	99
1322.064	0.628	627.8	0back	Block2	0back/STIM_017.jpg	99
1325.951	0.679	678.7	0back	Block2	0back/STIM_017.jpg	99
1330.128	0.472	472.5	0back	Block2	0back/STIM_018.jpg	100
1333.275	0.488	488.1	0back	Block2	0back/STIM_018.jpg	99
1336.803	0.677	677.2	0back	Block2	0back/STIM_018.jpg	99
1339.75	0.35	350.1	0back	Block2	0back/STIM_019.jpg	99
1342.504	0.421	421.2	0back	Block2	0back/STIM_019.jpg	99
1346.734	0.567	567.4	0back	Block2	0back/STIM_019.jpg	99
1350.87	0.773	773.4	2back	Block3	2back/STIM_000.jpg	100
1354.32	0.672	672.2	2back	Block3	2back/STIM_000.jpg	99
1357.797	0.832	832.0	2back	Block3	2back/STIM_000.jpg	99
1361.296	0.795	794.8	2back	Block3	2back/STIM_001.jpg	99
1365.765	0.74	739.8	2back	Block3	2back/STIM_001.jpg	100
1370.456	0.626	626.3	2back	Block3	2back/STIM_001.jpg	99
1375.094	0.463	463.4	2back	Block3	2back/STIM_002.jpg	99
1378.054	0.373	372.6	2back	Block3	2back/STIM_002.jpg	99
1381.798	0.76	759.6	2back	Block3	2back/STIM_002.jpg	100
1386.097	0.629	628.8	2back	Block3	2back/STIM_003.jpg	99
1390.49	0.381	381.4	2back	Block3	2back/STIM_003.jpg	100
1393.884	0.405	404.9	2back	Block3	2back/STIM_003.jpg	100
1398.025	0.822	821.7	2back	Block3	2back/STIM_004.jpg	99
1402.398	0.837	836.7	2back	Block3	2back/STIM_004.jpg	100
1406.031	0.841	841.1	2back	Block3	2back/STIM_004.jpg	100
1409.492	0.721	721.2	2back	Block3	2back/STIM_005.jpg	99
1413.634	0.501	501.5	2back	Block3	2back/STIM_005.jpg	100
1417.14	0.772	771.8	2back	Block3	2back/STIM_005.jpg	99
1421.063	0.365	365.3	2back	Block3	2back/STIM_006.jpg	100
1424.438	0.58	579.5	2back	Block3	2back/STIM_006.jpg	100
1428.382	0.512	512.3	2back	Block3	2back/STIM_006.jpg	99
1432.488	0.422	421.6	2back	Block3	2back/STIM_007.jpg	100
1435.546	0.43	429.5	2back	Block3	2back/STIM_007.jpg	99
1439.321	0.674	673.5	2back	Block3	2back/STIM_007.jpg	100
1442.211	0.73	729.6	2back	Block3	2back/STIM_008.jpg	99
1446.332	0.738	738.5	2back	Block3	2back/STIM_008.jpg	100
1450.05	0.44	440.3	2back	Block3	2back/STIM_008.jpg	99
1453.896	0.832	832.2	2back	Block3	2back/STIM_009.jpg	100
1457.536	0.747	747.1	2back	Block3	2back/STIM_009.jpg	99
1462.238	0.765	765.1	2back	Block3	2back/STIM_009.jpg	99
1465.308	0.413	413.1	2back	Block3	2back/STIM_010.jpg	100
1468.234	0.756	756.0	2back	Block3	2back/STIM_010.jpg	99
1472.169	0.375	375.4	2back	Block3	2back/STIM_010.jpg	99
1476.391	0.556	556.0	2back	Block3	2back/STIM_011.jpg	99
1480.717	0.758	758.2	2back	Block3	2back/STIM_011.jpg	99
1484.317	0.492	491.6	2back	Block3	2back/STIM_011.jpg	99
1487.846	0.843	842.9	2back	Block3	2back/STIM_012.jpg	99
1490.901	0.767	766.6	2back	Block3	2back/STIM_012.jpg	99
1495.159	0.663	662.6	2back	Block3	2back/STIM_012.jpg	99
1498.252	0.444	443.8	2back	Block3	2back/STIM_013.jpg	100
1502.546	0.744	743.6	2back	Block3	2back/STIM_013.jpg	100
1507.248	0.503	503.0	2back	Block3	2back/STIM_013.jpg	100
1510.444	0.587	586.7	2back	Block3	2back/STIM_014.jpg	99
1514.644	0.608	608.3	2back	Block3	2back/STIM_014.jpg	100
1519.038	0.395	394.7	2back	Block3	2back/STIM_014.jpg	100
1522.849	0.785	784.7	2back	Block3	2back/STIM_015.jpg	100
1527.681	0.394	393.7	2back	Block3	2back/STIM_015.jpg	99
1532.032	0.665	665.3	2back	Block3	2back/STIM_015.jpg	99
1534.842	0.626	626.1	2back	Block3	2back/STIM_016.jpg	100
1538.302	0.812	811.6	2back	Block3	2back/STIM_016.jpg	100
1542.008	0.494	493.5	2back	Block3	2back/STIM_016.jpg	99
1545.254	0.791	791.0	2back	Block3	2back/STIM_017.jpg	100
1548.446	0.823	822.8	2back	Block3	2back/STIM_017.jpg	99
1551.666	0.49	490.1	2back	Block3	2back/STIM_017.jpg	100
1554.803	0.624	624.0	2back	Block3	2back/STIM_018.jpg	99
1557.934	0.497	496.7	2back	Block3	2back/STIM_018.jpg	99
1561.5	0.488	487.7	2back	Block3	2back/STIM_018.jpg	100
1565.919	0.572	572.2	2back	Block3	2back/STIM_019.jpg	100
1570.311	0.45	450.5	2back	Block3	2back/STIM_019.jpg	100
1574.62	0.488	487.5	2back	Block3	2back/STIM_019.jpg	100
1578.579	0.661	661.0	2back	Block3	2back/STIM_020.jpg	100
1582.336	0.429	429.2	2back	Block3	2back/STIM_020.jpg	99
1586.586	0.779	779.3	2back	Block3	2back/STIM_020.jpg	99
1589.746	0.807	807.2	2back	Block3	2back/STIM_021.jpg	100
1594.024	0.615	615.2	2back	Block3	2back/STIM_021.jpg	99
1596.901	0.437	436.7	2back	Block3	2back/STIM_021.jpg	99
1600.621	0.701	700.8	2back	Block3	2back/STIM_022.jpg	99
1603.906	0.444	443.5	2back	Block3	2back/STIM_022.jpg	99
1607.594	0.663	662.6	2back	Block3	2back/STIM_022.jpg	99
1612.312	0.822	821.9	2back	Block3	2back/STIM_023.jpg	100
1615.707	0.709	708.9	2back	Block3	2back/STIM_023.jpg	100
1619.122	0.827	827.2	2back	Block3	2back/STIM_023.jpg	99
1623.053	0.558	558.0	2back	Block3	2back/STIM_024.jpg	100
1626.046	0.712	712.0	2back	Block3	2back/STIM_024.jpg	99
1629.66	0.577	577.2	2back	Block3	2back/STIM_024.jpg	99
1632.468	0.602	602.2	2back	Block3	2back/STIM_025.jpg	100
1636.156	0.549	548.6	2back	Block3	2back/STIM_025.jpg	100
1639.365	0.532	532.4	2back	Block3	2back/STIM_025.jpg	99
1642.391	0.678	677.5	2back	Block3	2back/STIM_026.jpg	99
1645.481	0.498	498.2	2back	Block3	2back/STIM_026.jpg	99
1650.034	0.702	702.0	2back	Block3	2back/STIM_026.jpg	100
1654.79	0.518	517.7	2back	Block3	2back/STIM_027.jpg	99
1658.31	0.491	490.6	2back	Block3	2back/STIM_027.jpg	100
1660.904	0.721	720.8	2back	Block3	2back/STIM_027.jpg	99
1665.55	0.547	547.3	2back	Block3	2back/STIM_028.jpg	100
1669.593	0.509	509.5	2back	Block3	2back/STIM_028.jpg	100
1673.88	0.84	839.5	2back	Block3	2back/STIM_028.jpg	100
1678.109	0.644	643.7	2back	Block3	2back/STIM_029.jpg	99
1681.775	0.481	480.7	2back	Block3	2back/STIM_029.jpg	99
1684.844	0.379	378.7	2back	Block3	2back/STIM_029.jpg	100
1688.565	0.563	562.9	2back	Block3	2back/STIM_030.jpg	100
1692.597	0.447	447.2	2back	Block3	2back/STIM_030.jpg	100
1695.575	0.508	508.5	2back	Block3	2back/STIM_030.jpg	99
1699.192	0.62	619.8	2back	Block3	2back/STIM_031.jpg	100
1702.731	0.679	679.2	2back	Block3	2back/STIM_031.jpg	100
1705.916	0.48	480.4	2back	Block3	2back/STIM_031.jpg	99
1708.643	0.8	799.9	2back	Block3	2back/STIM_032.jpg	99
1711.705	0.551	551.2	2back	Block3	2back/STIM_032.jpg	100
1714.556	0.492	492.1	2back	Block3	2back/STIM_032.jpg	100
1718.317	0.718	718.3	2back	Block3	2back/STIM_033.jpg	99
1721.555	0.585	585.2	2back	Block3	2back/STIM_033.jpg	100
1725.651	0.424	424.1	2back	Block3	2back/STIM_033.jpg	99
1729.857	0.58	579.6	2back	Block3	2back/STIM_034.jpg	100
1733.679	0.844	844.3	2back	Block3	2back/STIM_034.jpg	99
1737.306	0.364	363.7	2back	Block3	2back/STIM_034.jpg	99
1739.756	0.723	722.8	2back	Block3	2back/STIM_035.jpg	99
1743.07	0.58	579.8	2back	Block3	2back/STIM_035.jpg	99
1746.596	0.546	545.9	2back	Block3	2back/STIM_035.jpg	99
1750.033	0.582	582.4	2back	Block3	2back/STIM_036.jpg	99
1754.244	0.518	518.0	2back	Block3	2back/STIM_036.jpg	99
1757.424	0.606	605.6	2back	Block3	2back/STIM_036.jpg	99
1761.308	0.592	592.3	2back	Block3	2back/STIM_037.jpg	99
1765.809	0.399	398.7	2back	Block3	2back/STIM_037.jpg	100
1770.147	0.531	531.4	2back	Block3	2back/STIM_037.jpg	99
1773.478	0.713	712.6	2back	Block3	2back/STIM_038.jpg	100
1778.062	0.737	737.3	2back	Block3	2back/STIM_038.jpg	100
1782.513	0.407	406.9	2back	Block3	2back/STIM_038.jpg	100
1785.343	0.364	363.9	2back	Block3	2back/STIM_039.jpg	100
1789.041	0.761	761.1	2back	Block3	2back/STIM_039.jpg	99
1792.6	0.482	481.7	2back	Block3	2back/STIM_039.jpg	99
1796.177	0.459	459.2	0back	Block3	0back/STIM_000.jpg	100
1800.311	0.452	452.0	0back	Block3	0back/STIM_000.jpg	100
1803.658	0.558	558.4	0back	Block3	0back/STIM_000.jpg	99
1807.603	0.659	659.0	0back	Block3	0back/STIM_001.jpg	100
1812.353	0.57	569.6	0back	Block3	0back/STIM_001.jpg	100
1815.505	0.638	637.5	0back	Block3	0back/STIM_001.jpg	100
1819.061	0.357	357.0	0back	Block3	0back/STIM_002.jpg	99
1822.802	0.55	550.2	0back	Block3	0back/STIM_002.jpg	99
1826.895	0.595	595.1	0back	Block3	0back/STIM_002.jpg	100
1830.745	0.356	356.1	0back	Block3	0back/STIM_003.jpg	99
1833.943	0.556	556.0	0back	Block3	0back/STIM_003.jpg	100
1836.601	0.462	461.5	0back	Block3	0back/STIM_003.jpg	99
1840.237	0.555	555.3	0back	Block3	0back/STIM_004.jpg	100
1843.333	0.436	435.7	0back	Block3	0back/STIM_004.jpg	100
1847.751	0.475	474.9	0back	Block3	0back/STIM_004.jpg	100
1851.664	0.356	355.7	0back	Block3	0back/STIM_005.jpg	99
1854.327	0.624	624.5	0back	Block3	0back/STIM_005.jpg	99
1858.974	0.687	687.1	0back	Block3	0back/STIM_005.jpg	99
1863.156	0.59	590.4	0back	Block3	0back/STIM_006.jpg	99
1867.584	0.622	621.9	0back	Block3	0back/STIM_006.jpg	100
1872.144	0.48	480.1	0back	Block3	0back/STIM_006.jpg	100
1876.342	0.356	356.0	0back	Block3	0back/STIM_007.jpg	99
1878.9	0.648	648.2	0back	Block3	0back/STIM_007.jpg	100
1882.159	0.576	576.1	0back	Block3	0back/STIM_007.jpg	100
1884.834	0.499	499.0	0back	Block3	0back/STIM_008.jpg	100
1887.748	0.573	573.0	0back	Block3	0back/STIM_008.jpg	99
1890.95	0.533	533.1	0back	Block3	0back/STIM_008.jpg	99
1894.83	0.405	405.3	0back	Block3	0back/STIM_009.jpg	100
1898.844	0.364	364.4	0back	Block3	0back/STIM_009.jpg	100
1902.97	0.498	497.8	0back	Block3	0back/STIM_009.jpg	100
1905.753	0.55	549.6	0back	Block3	0back/STIM_010.jpg	100
1908.879	0.513	513.3	0back	Block3	0back/STIM_010.jpg	100
1913.26	0.397	397.3	0back	Block3	0back/STIM_010.jpg	99
1916.686	0.41	410.2	0back	Block3	0back/STIM_011.jpg	100
1919.198	0.36	360.4	0back	Block3	0back/STIM_011.jpg	99
1923.124	0.564	564.2	0back	Block3	0back/STIM_011.jpg	100
1926.295	0.507	507.4	0back	Block3	0back/STIM_012.jpg	100
1928.957	0.392	391.6	0back	Block3	0back/STIM_012.jpg	99
1933.015	0.516	515.7	0back	Block3	0back/STIM_012.jpg	99
1936.013	0.51	510.0	0back	Block3	0back/STIM_013.jpg	99
1939.968	0.643	642.8	0back	Block3	0back/STIM_013.jpg	99
1944.26	0.464	463.5	0back	Block3	0back/STIM_013.jpg	100
1948.722	0.35	349.8	0back	Block3	0back/STIM_014.jpg	99
1951.334	0.682	681.8	0back	Block3	0back/STIM_014.jpg	99
1955.156	0.546	545.6	0back	Block3	0back/STIM_014.jpg	100
1957.959	0.422	422.3	0back	Block3	0back/STIM_015.jpg	100
1960.818	0.458	457.7	0back	Block3	0back/STIM_015.jpg	100
1964.349	0.597	597.0	0back	Block3	0back/STIM_015.jpg	99
1968.96	0.615	614.9	0back	Block3	0back/STIM_016.jpg	100
1972.965	0.392	392.0	0back	Block3	0back/STIM_016.jpg	99
1975.816	0.615	614.8	0back	Block3	0back/STIM_016.jpg	100
1979.084	0.404	403.9	0back	Block3	0back/STIM_017.jpg	99
1983.4	0.349	348.6	0back	Block3	0back/STIM_017.jpg	99
1987.363	0.391	391.4	0back	Block3	0back/STIM_017.jpg	100
1990.205	0.455	454.7	0back	Block3	0back/STIM_018.jpg	100
1992.856	0.683	682.9	0back	Block3	0back/STIM_018.jpg	100
1997.207	0.566	565.8	0back	Block3	0back/STIM_018.jpg	99
2000.606	0.448	448.1	0back	Block3	0back/STIM_019.jpg	100
2004.163	0.428	428.0	0back	Block3	0back/STIM_019.jpg	100
2007.458	0.542	542.0	0back	Block3	0back/STIM_019.jpg	100
2011.073	0.608	608.2	2back	Block4	2back/STIM_000.jpg	100
2014.152	0.811	810.7	2back	Block4	2back/STIM_000.jpg	99
2018.791	0.474	473.5	2back	Block4	2back/STIM_000.jpg	100
2022.016	0.639	638.6	2back	Block4	2back/STIM_001.jpg	99
2025.598	0.646	646.3	2back	Block4	2back/STIM_001.jpg	100
2029.644	0.578	578.3	2back	Block4	2back/STIM_001.jpg	100
2034.174	0.692	691.7	2back	Block4	2back/STIM_002.jpg	99
2038.793	0.695	694.9	2back	Block4	2back/STIM_002.jpg	100
2043.346	0.562	561.9	2back	Block4	2back/STIM_002.jpg	99
2047.679	0.636	636.5	2back	Block4	2back/STIM_003.jpg	99
2051.218	0.811	810.8	2back	Block4	2back/STIM_003.jpg	100
2055.085	0.571	571.2	2back	Block4	2back/STIM_003.jpg	100
2059.512	0.711	711.2	2back	Block4	2back/STIM_004.jpg	100
2063.266	0.379	378.7	2back	Block4	2back/STIM_004.jpg	99
2066.252	0.574	574.0	2back	Block4	2back/STIM_004.jpg	100
2070.621	0.48	479.9	2back	Block4	2back/STIM_005.jpg	100
2073.841	0.411	411.1	2back	Block4	2back/STIM_005.jpg	99
2076.604	0.402	402.4	2back	Block4	2back/STIM_005.jpg	100
2079.217	0.802	801.9	2back	Block4	2back/STIM_006.jpg	99
2084.111	0.382	381.9	2back	Block4	2back/STIM_006.jpg	99
2087.849	0.497	497.1	2back	Block4	2back/STIM_006.jpg	99
2091.429	0.763	763.2	2back	Block4	2back/STIM_007.jpg	100
2094.493	0.528	527.5	2back	Block4	2back/STIM_007.jpg	99
2098.018	0.661	660.7	2back	Block4	2back/STIM_007.jpg	100
2102.55	0.679	679.0	2back	Block4	2back/STIM_008.jpg	100
2106.635	0.817	817.0	2back	Block4	2back/STIM_008.jpg	99
2109.647	0.826	826.1	2back	Block4	2back/STIM_008.jpg	100
2113.44	0.705	705.3	2back	Block4	2back/STIM_009.jpg	99
2116.895	0.363	363.4	2back	Block4	2back/STIM_009.jpg	99
2119.772	0.762	762.5	2back	Block4	2back/STIM_009.jpg	99
2123.606	0.626	626.1	2back	Block4	2back/STIM_010.jpg	100
2127.638	0.737	737.3	2back	Block4	2back/STIM_010.jpg	99
2132.466	0.376	376.4	2back	Block4	2back/STIM_010.jpg	99
2135.238	0.675	674.6	2back	Block4	2back/STIM_011.jpg	100
2139.172	0.53	530.4	2back	Block4	2back/STIM_011.jpg	100
2142.493	0.474	474.4	2back	Block4	2back/STIM_011.jpg	100
2146.07	0.684	684.5	2back	Block4	2back/STIM_012.jpg	100
2150.771	0.674	674.1	2back	Block4	2back/STIM_012.jpg	100
2154.141	0.641	640.9	2back	Block4	2back/STIM_012.jpg	100
2156.968	0.53	530.4	2back	Block4	2back/STIM_013.jpg	100
2159.963	0.642	642.5	2back	Block4	2back/STIM_013.jpg	99
2164.563	0.826	826.4	2back	Block4	2back/STIM_013.jpg	100
2168.801	0.509	509.0	2back	Block4	2back/STIM_014.jpg	99
2172.629	0.528	527.6	2back	Block4	2back/STIM_014.jpg	100
2175.767	0.76	759.6	2back	Block4	2back/STIM_014.jpg	100
2180.1	0.53	530.5	2back	Block4	2back/STIM_015.jpg	99
2182.733	0.608	608.1	2back	Block4	2back/STIM_015.jpg	99
2186.657	0.373	373.3	2back	Block4	2back/STIM_015.jpg	99
2189.178	0.455	455.4	2back	Block4	2back/STIM_016.jpg	99
2193.531	0.439	438.8	2back	Block4	2back/STIM_016.jpg	99
2196.371	0.727	727.3	2back	Block4	2back/STIM_016.jpg	100
2200.322	0.565	565.1	2back	Block4	2back/STIM_017.jpg	99
2204.436	0.639	639.3	2back	Block4	2back/STIM_017.jpg	99
2207.442	0.419	419.3	2back	Block4	2back/STIM_017.jpg	99
2210.782	0.655	654.9	2back	Block4	2back/STIM_018.jpg	99
2214.418	0.513	513.0	2back	Block4	2back/STIM_018.jpg	100
2217.174	0.788	787.6	2back	Block4	2back/STIM_018.jpg	99
2220.796	0.796	795.5	2back	Block4	2back/STIM_019.jpg	99
2224.051	0.664	664.0	2back	Block4	2back/STIM_019.jpg	99
2227.803	0.381	381.0	2back	Block4	2back/STIM_019.jpg	100
2231.569	0.788	787.6	2back	Block4	2back/STIM_020.jpg	100
2236.117	0.73	730.3	2back	Block4	2back/STIM_020.jpg	99
2240.422	0.623	623.2	2back	Block4	2back/STIM_020.jpg	100
2243.391	0.843	842.9	2back	Block4	2back/STIM_021.jpg	99
2247.987	0.387	387.4	2back	Block4	2back/STIM_021.jpg	99
2250.806	0.479	478.9	2back	Block4	2back/STIM_021.jpg	99
2254.928	0.642	641.5	2back	Block4	2back/STIM_022.jpg	100
2258.404	0.592	592.3	2back	Block4	2back/STIM_022.jpg	100
2262.062	0.542	542.1	2back	Block4	2back/STIM_022.jpg	99
2265.555	0.443	442.8	2back	Block4	2back/STIM_023.jpg	99
2268.578	0.773	772.7	2back	Block4	2back/STIM_023.jpg	99
2272.877	0.589	589.4	2back	Block4	2back/STIM_023.jpg	100
2276.53	0.718	717.5	2back	Block4	2back/STIM_024.jpg	99
2280.782	0.7	700.5	2back	Block4	2back/STIM_024.jpg	99
2284.32	0.644	644.0	2back	Block4	2back/STIM_024.jpg	99
2288.763	0.443	443.0	2back	Block4	2back/STIM_025.jpg	99
2292.42	0.41	410.2	2back	Block4	2back/STIM_025.jpg	99
2295.407	0.471	471.1	2back	Block4	2back/STIM_025.jpg	100
2298.193	0.46	459.8	2back	Block4	2back/STIM_026.jpg	99
2300.811	0.514	514.0	2back	Block4	2back/STIM_026.jpg	99
2305.092	0.799	798.6	2back	Block4	2back/STIM_026.jpg	99
2309.585	0.489	488.9	2back	Block4	2back/STIM_027.jpg	100
2313.287	0.464	464.2	2back	Block4	2back/STIM_027.jpg	100
2316.241	0.679	678.8	2back	Block4	2back/STIM_027.jpg	100
2320.872	0.804	803.6	2back	Block4	2back/STIM_028.jpg	99
2325.518	0.753	753.0	2back	Block4	2back/STIM_028.jpg	100
2328.647	0.72	720.2	2back	Block4	2back/STIM_028.jpg	99
2332.09	0.43	430.5	2back	Block4	2back/STIM_029.jpg	99
2335.841	0.815	814.9	2back	Block4	2back/STIM_029.jpg	100
2340.592	0.509	509.5	2back	Block4	2back/STIM_029.jpg	100
2345.145	0.495	495.2	2back	Block4	2back/STIM_030.jpg	100
2347.968	0.46	459.8	2back	Block4	2back/STIM_030.jpg	99
2351.196	0.716	716.0	2back	Block4	2back/STIM_030.jpg	99
2354.158	0.714	714.0	2back	Block4	2back/STIM_031.jpg	99
2357.576	0.495	494.7	2back	Block4	2back/STIM_031.jpg	100
2360.52	0.496	495.9	2back	Block4	2back/STIM_031.jpg	99
2364.982	0.366	365.7	2back	Block4	2back/STIM_032.jpg	100
2368.446	0.842	842.0	2back	Block4	2back/STIM_032.jpg	100
2372.426	0.679	678.6	2back	Block4	2back/STIM_032.jpg	100
2377.053	0.673	672.6	2back	Block4	2back/STIM_033.jpg	99
2381.107	0.658	657.6	2back	Block4	2back/STIM_033.jpg	100
2384.661	0.505	504.9	2back	Block4	2back/STIM_033.jpg	99
2388.058	0.369	369.2	2back	Block4	2back/STIM_034.jpg	100
2392.385	0.67	670.3	2back	Block4	2back/STIM_034.jpg	100
2395.792	0.436	436.4	2back	Block4	2back/STIM_034.jpg	100
2398.5	0.527	527.1	2back	Block4	2back/STIM_035.jpg	99
2402.779	0.605	604.8	2back	Block4	2back/STIM_035.jpg	99
2407.298	0.815	815.2	2back	Block4	2back/STIM_035.jpg	99
2411.997	0.375	374.7	2back	Block4	2back/STIM_036.jpg	99
2414.748	0.418	417.7	2back	Block4	2back/STIM_036.jpg	100
2418.385	0.589	588.6	2back	Block4	2back/STIM_036.jpg	100
2421.187	0.596	596.2	2back	Block4	2back/STIM_037.jpg	100
2425.252	0.428	427.8	2back	Block4	2back/STIM_037.jpg	100
2428.847	0.679	679.4	2back	Block4	2back/STIM_037.jpg	99
2431.921	0.657	656.8	2back	Block4	2back/STIM_038.jpg	99
2435.27	0.434	433.9	2back	Block4	2back/STIM_038.jpg	99
2439.142	0.551	550.8	2back	Block4	2back/STIM_038.jpg	100
2443.502	0.812	812.5	2back	Block4	2back/STIM_039.jpg	99
2446.825	0.744	743.6	2back	Block4	2back/STIM_039.jpg	100
2450.524	0.579	578.7	2back	Block4	2back/STIM_039.jpg	99
2453.648	0.689	688.9	0back	Block4	0back/STIM_000.jpg	99
2457.79	0.612	612.1	0back	Block4	0back/STIM_000.jpg	99
2462.109	0.562	562.5	0back	Block4	0back/STIM_000.jpg	100
2465.983	0.442	442.2	0back	Block4	0back/STIM_001.jpg	100
2468.534	0.357	356.8	0back	Block4	0back/STIM_001.jpg	100
2471.354	0.614	614.4	0back	Block4	0back/STIM_001.jpg	99
2476.007	0.364	363.9	0back	Block4	0back/STIM_002.jpg	99
2479.462	0.556	556.2	0back	Block4	0back/STIM_002.jpg	100
2483.04	0.383	383.4	0back	Block4	0back/STIM_002.jpg	99
2485.659	0.419	419.3	0back	Block4	0back/STIM_003.jpg	100
2489.06	0.62	620.1	0back	Block4	0back/STIM_003.jpg	100
2493.112	0.371	371.0	0back	Block4	0back/STIM_003.jpg	99
2497.111	0.474	474.5	0back	Block4	0back/STIM_004.jpg	99
2500.836	0.472	472.5	0back	Block4	0back/STIM_004.jpg	99
2503.43	0.648	647.6	0back	Block4	0back/STIM_004.jpg	99
2506.429	0.658	657.7	0back	Block4	0back/STIM_005.jpg	100
2510.328	0.643	642.8	0back	Block4	0back/STIM_005.jpg	99
2514.188	0.649	648.6	0back	Block4	0back/STIM_005.jpg	100
2518.311	0.535	535.4	0back	Block4	0back/STIM_006.jpg	100
2521.969	0.51	510.4	0back	Block4	0back/STIM_006.jpg	100
2525.41	0.573	573.3	0back	Block4	0back/STIM_006.jpg	100
2528.08	0.406	406.4	0back	Block4	0back/STIM_007.jpg	100
2530.589	0.481	480.6	0back	Block4	0back/STIM_007.jpg	99
2534.467	0.466	466.3	0back	Block4	0back/STIM_007.jpg	99
2537.141	0.522	522.1	0back	Block4	0back/STIM_008.jpg	99
2540.299	0.545	544.9	0back	Block4	0back/STIM_008.jpg	100
2544.914	0.687	686.7	0back	Block4	0back/STIM_008.jpg	99
2548.746	0.549	548.6	0back	Block4	0back/STIM_009.jpg	100
2551.919	0.629	628.6	0back	Block4	0back/STIM_009.jpg	99
2555.016	0.416	416.4	0back	Block4	0back/STIM_009.jpg	100
2557.621	0.622	621.6	0back	Block4	0back/STIM_010.jpg	100
2562.05	0.654	654.0	0back	Block4	0back/STIM_010.jpg	100
2566.092	0.577	576.9	0back	Block4	0back/STIM_010.jpg	100
2570.112	0.544	544.3	0back	Block4	0back/STIM_011.jpg	99
2574.286	0.349	348.9	0back	Block4	0back/STIM_011.jpg	99
2578.431	0.628	627.6	0back	Block4	0back/STIM_011.jpg	100
2582.745	0.542	541.5	0back	Block4	0back/STIM_012.jpg	100
2585.791	0.479	478.8	0back	Block4	0back/STIM_012.jpg	99
2589.985	0.585	585.4	0back	Block4	0back/STIM_012.jpg	100
2594.454	0.602	602.4	0back	Block4	0back/STIM_013.jpg	99
2599.144	0.6	600.0	0back	Block4	0back/STIM_013.jpg	99
2602.063	0.603	602.9	0back	Block4	0back/STIM_013.jpg	100
2604.963	0.664	663.6	0back	Block4	0back/STIM_014.jpg	100
2608.564	0.597	597.2	0back	Block4	0back/STIM_014.jpg	99
2611.939	0.443	443.4	0back	Block4	0back/STIM_014.jpg	100
2614.912	0.6	600.5	0back	Block4	0back/STIM_015.jpg	100
2618.655	0.393	393.2	0back	Block4	0back/STIM_015.jpg	99
2621.486	0.664	663.8	0back	Block4	0back/STIM_015.jpg	100
2624.698	0.364	363.7	0back	Block4	0back/STIM_016.jpg	100
2627.169	0.649	648.8	0back	Block4	0back/STIM_016.jpg	100
2630.269	0.397	397.0	0back	Block4	0back/STIM_016.jpg	100
2633.678	0.658	658.3	0back	Block4	0back/STIM_017.jpg	100
2636.54	0.366	365.9	0back	Block4	0back/STIM_017.jpg	99
2640.828	0.479	478.7	0back	Block4	0back/STIM_017.jpg	99
2643.794	0.464	463.6	0back	Block4	0back/STIM_018.jpg	100
2646.746	0.429	428.9	0back	Block4	0back/STIM_018.jpg	100
2650.771	0.517	516.6	0back	Block4	0back/STIM_018.jpg	99
2654.968	0.417	416.8	0back	Block4	0back/STIM_019.jpg	100
2658.013	0.454	453.6	0back	Block4	0back/STIM_019.jpg	100
2660.582	0.557	556.7	0back	Block4	0back/STIM_019.jpg	100
