onset	duration	accuracy	trial_type	learning_stage	stimulus
0.0	0.718	correct	2back	Block1	2back/STIM_000.jpg
4.653	0.593	correct	2back	Block1	2back/STIM_000.jpg
7.421	0.881	correct	2back	Block1	2back/STIM_000.jpg
10.569	0.695	correct	2back	Block1	2back/STIM_001.jpg
13.59	0.938	correct	2back	Block1	2back/STIM_001.jpg
17.848	0.992	correct	2back	Block1	2back/STIM_001.jpg
22.194	0.56	correct	2back	Block1	2back/STIM_002.jpg
25.1	1.047	correct	2back	Block1	2back/STIM_002.jpg
29.509	0.886	correct	2back	Block1	2back/STIM_002.jpg
33.877	0.713	correct	2back	Block1	2back/STIM_003.jpg
37.062	0.687	correct	2back	Block1	2back/STIM_003.jpg
41.784	0.579	correct	2back	Block1	2back/STIM_003.jpg
44.703	0.806	correct	2back	Block1	2back/STIM_004.jpg
49.258	0.538	correct	2back	Block1	2back/STIM_004.jpg
52.372	0.599	correct	2back	Block1	2back/STIM_004.jpg
55.69	1.154	correct	2back	Block1	2back/STIM_005.jpg
60.454	0.587	correct	2back	Block1	2back/STIM_005.jpg
63.575	0.492	correct	2back	Block1	2back/STIM_005.jpg
66.644	0.945	correct	2back	Block1	2back/STIM_006.jpg
70.213	0.931	correct	2back	Block1	2back/STIM_006.jpg
74.809	0.613	correct	2back	Block1	2back/STIM_006.jpg
79.492	0.996	incorrect	2back	Block1	2back/STIM_007.jpg
82.878	0.619	correct	2back	Block1	2back/STIM_007.jpg
86.797	0.926	correct	2back	Block1	2back/STIM_007.jpg
90.813	0.622	correct	2back	Block1	2back/STIM_008.jpg
94.711	0.698	correct	2back	Block1	2back/STIM_008.jpg
97.559	0.482	correct	2back	Block1	2back/STIM_008.jpg
100.961	0.833	correct	2back	Block1	2back/STIM_009.jpg
105.164	0.78	correct	2back	Block1	2back/STIM_009.jpg
108.901	0.744	incorrect	2back	Block1	2back/STIM_009.jpg
112.208	0.596	correct	2back	Block1	2back/STIM_010.jpg
115.004	0.958	correct	2back	Block1	2back/STIM_010.jpg
119.737	1.082	correct	2back	Block1	2back/STIM_010.jpg
123.273	0.603	incorrect	2back	Block1	2back/STIM_011.jpg
126.601	0.806	correct	2back	Block1	2back/STIM_011.jpg
131.514	1.086	correct	2back	Block1	2back/STIM_011.jpg
136.535	0.995	correct	2back	Block1	2back/STIM_012.jpg
141.421	1.075	incorrect	2back	Block1	2back/STIM_012.jpg
145.75	0.86	correct	2back	Block1	2back/STIM_012.jpg
149.376	0.793	correct	2back	Block1	2back/STIM_013.jpg
153.412	0.824	correct	2back	Block1	2back/STIM_013.jpg
156.735	0.897	incorrect	2back	Block1	2back/STIM_013.jpg
160.426	1.106	incorrect	2back	Block1	2back/STIM_014.jpg
164.158	0.925	correct	2back	Block1	2back/STIM_014.jpg
169.029	1.038	correct	2back	Block1	2back/STIM_014.jpg
172.578	0.997	correct	2back	Block1	2back/STIM_015.jpg
176.39	0.825	correct	2back	Block1	2back/STIM_015.jpg
179.673	0.521	correct	2back	Block1	2back/STIM_015.jpg
182.814	0.7	correct	2back	Block1	2back/STIM_016.jpg
187.041	1.061	incorrect	2back	Block1	2back/STIM_016.jpg
192.031	1.078	correct	2back	Block1	2back/STIM_016.jpg
196.383	1.033	correct	2back	Block1	2back/STIM_017.jpg
199.66	0.769	correct	2back	Block1	2back/STIM_017.jpg
203.681	0.689	incorrect	2back	Block1	2back/STIM_017.jpg
206.787	1.04	correct	2back	Block1	2back/STIM_018.jpg
210.009	0.658	correct	2back	Block1	2back/STIM_018.jpg
213.942	0.592	correct	2back	Block1	2back/STIM_018.jpg
218.229	0.684	correct	2back	Block1	2back/STIM_019.jpg
221.675	0.642	correct	2back	Block1	2back/STIM_019.jpg
225.188	0.659	correct	2back	Block1	2back/STIM_019.jpg
228.513	1.15	correct	2back	Block1	2back/STIM_020.jpg
232.942	0.707	correct	2back	Block1	2back/STIM_020.jpg
237.729	1.049	correct	2back	Block1	2back/STIM_020.jpg
242.133	0.7	correct	2back	Block1	2back/STIM_021.jpg
246.892	0.874	incorrect	2back	Block1	2back/STIM_021.jpg
250.511	1.05	correct	2back	Block1	2back/STIM_021.jpg
255.258	1.052	incorrect	2back	Block1	2back/STIM_022.jpg
259.028	0.514	correct	2back	Block1	2back/STIM_022.jpg
263.408	1.017	correct	2back	Block1	2back/STIM_022.jpg
268.101	0.88	correct	2back	Block1	2back/STIM_023.jpg
272.551	1.136	correct	2back	Block1	2back/STIM_023.jpg
276.115	0.518	correct	2back	Block1	2back/STIM_023.jpg
279.95	0.887	correct	2back	Block1	2back/STIM_024.jpg
284.725	0.639	correct	2back	Block1	2back/STIM_024.jpg
289.397	0.848	correct	2back	Block1	2back/STIM_024.jpg
292.71	0.874	incorrect	2back	Block1	2back/STIM_025.jpg
295.919	0.533	correct	2back	Block1	2back/STIM_025.jpg
298.558	0.854	correct	2back	Block1	2back/STIM_025.jpg
302.536	0.738	correct	2back	Block1	2back/STIM_026.jpg
305.542	0.899	correct	2back	Block1	2back/STIM_026.jpg
310.185	0.542	incorrect	2back	Block1	2back/STIM_026.jpg
312.974	0.668	correct	2back	Block1	2back/STIM_027.jpg
316.099	1.144	correct	2back	Block1	2back/STIM_027.jpg
320.974	0.904	correct	2back	Block1	2back/STIM_027.jpg
325.228	0.72	correct	2back	Block1	2back/STIM_028.jpg
328.443	0.534	correct	2back	Block1	2back/STIM_028.jpg
331.382	0.542	correct	2back	Block1	2back/STIM_028.jpg
334.459	0.916	correct	2back	Block1	2back/STIM_029.jpg
337.821	0.77	correct	2back	Block1	2back/STIM_029.jpg
341.624	0.613	correct	2back	Block1	2back/STIM_029.jpg
345.945	0.524	correct	2back	Block1	2back/STIM_030.jpg
348.921	0.957	correct	2back	Block1	2back/STIM_030.jpg
352.894	0.942	correct	2back	Block1	2back/STIM_030.jpg
356.356	0.811	correct	2back	Block1	2back/STIM_031.jpg
359.948	0.78	correct	2back	Block1	2back/STIM_031.jpg
364.419	0.564	correct	2back	Block1	2back/STIM_031.jpg
367.515	0.72	correct	2back	Block1	2back/STIM_032.jpg
370.976	1.019	correct	2back	Block1	2back/STIM_032.jpg
374.277	0.708	correct	2back	Block1	2back/STIM_032.jpg
378.286	0.768	correct	2back	Block1	2back/STIM_033.jpg
381.569	0.588	incorrect	2back	Block1	2back/STIM_033.jpg
385.952	0.723	incorrect	2back	Block1	2back/STIM_033.jpg
390.024	1.049	correct	2back	Block1	2back/STIM_034.jpg
394.718	0.538	correct	2back	Block1	2back/STIM_034.jpg
397.681	0.624	correct	2back	Block1	2back/STIM_034.jpg
401.941	0.586	correct	2back	Block1	2back/STIM_035.jpg
405.368	0.698	incorrect	2back	Block1	2back/STIM_035.jpg
409.155	0.633	incorrect	2back	Block1	2back/STIM_035.jpg
413.677	0.668	correct	2back	Block1	2back/STIM_036.jpg
416.927	0.833	correct	2back	Block1	2back/STIM_036.jpg
420.58	0.607	correct	2back	Block1	2back/STIM_036.jpg
423.884	0.627	correct	2back	Block1	2back/STIM_037.jpg
428.486	0.776	incorrect	2back	Block1	2back/STIM_037.jpg
431.869	0.78	correct	2back	Block1	2back/STIM_037.jpg
436.015	0.757	incorrect	2back	Block1	2back/STIM_038.jpg
439.244	0.7	correct	2back	Block1	2back/STIM_038.jpg
442.689	1.048	incorrect	2back	Block1	2back/STIM_038.jpg
447.406	0.816	correct	2back	Block1	2back/STIM_039.jpg
451.047	0.958	incorrect	2back	Block1	2back/STIM_039.jpg
455.632	0.825	correct	2back	Block1	2back/STIM_039.jpg
458.687	0.504	incorrect	0back	Block1	0back/STIM_000.jpg
462.497	0.349	correct	0back	Block1	0back/STIM_000.jpg
465.144	0.431	correct	0back	Block1	0back/STIM_000.jpg
468.722	0.374	correct	0back	Block1	0back/STIM_001.jpg
471.696	0.437	correct	0back	Block1	0back/STIM_001.jpg
475.008	0.531	correct	0back	Block1	0back/STIM_001.jpg
479.511	0.526	correct	0back	Block1	0back/STIM_002.jpg
482.154	0.536	correct	0back	Block1	0back/STIM_002.jpg
485.369	0.439	correct	0back	Block1	0back/STIM_002.jpg
489.28	0.453	correct	0back	Block1	0back/STIM_003.jpg
492.696	0.513	correct	0back	Block1	0back/STIM_003.jpg
496.243	0.671	correct	0back	Block1	0back/STIM_003.jpg
499.245	0.662	correct	0back	Block1	0back/STIM_004.jpg
502.732	0.445	correct	0back	Block1	0back/STIM_004.jpg
506.601	0.591	correct	0back	Block1	0back/STIM_004.jpg
510.887	0.506	correct	0back	Block1	0back/STIM_005.jpg
513.762	0.642	correct	0back	Block1	0back/STIM_005.jpg
517.174	0.662	incorrect	0back	Block1	0back/STIM_005.jpg
520.87	0.637	correct	0back	Block1	0back/STIM_006.jpg
524.115	0.373	correct	0back	Block1	0back/STIM_006.jpg
526.678	0.355	correct	0back	Block1	0back/STIM_006.jpg
529.96	0.584	correct	0back	Block1	0back/STIM_007.jpg
533.405	0.356	correct	0back	Block1	0back/STIM_007.jpg
537.298	0.581	correct	0back	Block1	0back/STIM_007.jpg
541.459	0.53	correct	0back	Block1	0back/STIM_008.jpg
545.107	0.477	correct	0back	Block1	0back/STIM_008.jpg
548.454	0.356	correct	0back	Block1	0back/STIM_008.jpg
552.283	0.527	correct	0back	Block1	0back/STIM_009.jpg
554.92	0.368	correct	0back	Block1	0back/STIM_009.jpg
559.189	0.414	correct	0back	Block1	0back/STIM_009.jpg
562.31	0.446	correct	0back	Block1	0back/STIM_010.jpg
566.413	0.594	correct	0back	Block1	0back/STIM_010.jpg
570.628	0.439	correct	0back	Block1	0back/STIM_010.jpg
574.335	0.536	correct	0back	Block1	0back/STIM_011.jpg
577.704	0.363	correct	0back	Block1	0back/STIM_011.jpg
581.721	0.58	correct	0back	Block1	0back/STIM_011.jpg
585.767	0.632	correct	0back	Block1	0back/STIM_012.jpg
589.946	0.655	correct	0back	Block1	0back/STIM_012.jpg
594.173	0.622	correct	0back	Block1	0back/STIM_012.jpg
597.593	0.593	correct	0back	Block1	0back/STIM_013.jpg
601.242	0.396	correct	0back	Block1	0back/STIM_013.jpg
604.089	0.521	correct	0back	Block1	0back/STIM_013.jpg
606.754	0.591	correct	0back	Block1	0back/STIM_014.jpg
610.361	0.507	correct	0back	Block1	0back/STIM_014.jpg
613.488	0.379	correct	0back	Block1	0back/STIM_014.jpg
617.5	0.443	correct	0back	Block1	0back/STIM_015.jpg
621.68	0.474	correct	0back	Block1	0back/STIM_015.jpg
625.123	0.436	correct	0back	Block1	0back/STIM_015.jpg
627.705	0.615	correct	0back	Block1	0back/STIM_016.jpg
631.862	0.633	correct	0back	Block1	0back/STIM_016.jpg
635.069	0.36	correct	0back	Block1	0back/STIM_016.jpg
638.099	0.496	correct	0back	Block1	0back/STIM_017.jpg
642.616	0.546	correct	0back	Block1	0back/STIM_017.jpg
646.803	0.49	correct	0back	Block1	0back/STIM_017.jpg
649.85	0.474	correct	0back	Block1	0back/STIM_018.jpg
652.456	0.606	correct	0back	Block1	0back/STIM_018.jpg
655.309	0.476	correct	0back	Block1	0back/STIM_018.jpg
659.671	0.549	correct	0back	Block1	0back/STIM_019.jpg
663.862	0.585	correct	0back	Block1	0back/STIM_019.jpg
668.051	0.583	correct	0back	Block1	0back/STIM_019.jpg
671.204	0.987	correct	2back	Block2	2back/STIM_000.jpg
676.295	0.905	correct	2back	Block2	2back/STIM_000.jpg
679.971	0.505	correct	2back	Block2	2back/STIM_000.jpg
684.063	0.722	incorrect	2back	Block2	2back/STIM_001.jpg
687.32	0.446	correct	2back	Block2	2back/STIM_001.jpg
691.058	0.629	correct	2back	Block2	2back/STIM_001.jpg
694.378	0.703	correct	2back	Block2	2back/STIM_002.jpg
697.421	0.511	correct	2back	Block2	2back/STIM_002.jpg
700.191	0.902	correct	2back	Block2	2back/STIM_002.jpg
704.94	1.002	correct	2back	Block2	2back/STIM_003.jpg
708.378	0.855	correct	2back	Block2	2back/STIM_003.jpg
712.484	0.482	correct	2back	Block2	2back/STIM_003.jpg
716.126	0.45	correct	2back	Block2	2back/STIM_004.jpg
719.212	0.78	correct	2back	Block2	2back/STIM_004.jpg
723.793	0.836	correct	2back	Block2	2back/STIM_004.jpg
728.141	0.473	incorrect	2back	Block2	2back/STIM_005.jpg
732.623	0.505	correct	2back	Block2	2back/STIM_005.jpg
735.308	0.4	correct	2back	Block2	2back/STIM_005.jpg
739.613	0.639	correct	2back	Block2	2back/STIM_006.jpg
743.789	0.963	correct	2back	Block2	2back/STIM_006.jpg
748.832	0.406	correct	2back	Block2	2back/STIM_006.jpg
752.761	0.704	correct	2back	Block2	2back/STIM_007.jpg
756.642	0.738	correct	2back	Block2	2back/STIM_007.jpg
759.616	0.542	correct	2back	Block2	2back/STIM_007.jpg
762.977	0.513	correct	2back	Block2	2back/STIM_008.jpg
767.091	0.843	correct	2back	Block2	2back/STIM_008.jpg
771.396	0.54	correct	2back	Block2	2back/STIM_008.jpg
774.945	0.511	correct	2back	Block2	2back/STIM_009.jpg
778.966	0.472	correct	2back	Block2	2back/STIM_009.jpg
782.227	0.613	correct	2back	Block2	2back/STIM_009.jpg
786.0	0.969	incorrect	2back	Block2	2back/STIM_010.jpg
790.862	0.674	correct	2back	Block2	2back/STIM_010.jpg
794.134	0.402	correct	2back	Block2	2back/STIM_010.jpg
798.583	0.861	correct	2back	Block2	2back/STIM_011.jpg
801.582	0.608	correct	2back	Block2	2back/STIM_011.jpg
806.022	0.783	correct	2back	Block2	2back/STIM_011.jpg
810.109	0.99	correct	2back	Block2	2back/STIM_012.jpg
814.217	0.815	correct	2back	Block2	2back/STIM_012.jpg
818.259	0.787	correct	2back	Block2	2back/STIM_012.jpg
822.78	0.855	correct	2back	Block2	2back/STIM_013.jpg
827.717	0.831	correct	2back	Block2	2back/STIM_013.jpg
830.76	0.812	correct	2back	Block2	2back/STIM_013.jpg
834.363	0.502	correct	2back	Block2	2back/STIM_014.jpg
837.519	0.827	correct	2back	Block2	2back/STIM_014.jpg
840.684	0.532	correct	2back	Block2	2back/STIM_014.jpg
843.911	0.465	correct	2back	Block2	2back/STIM_015.jpg
848.368	0.904	correct	2back	Block2	2back/STIM_015.jpg
852.237	0.574	correct	2back	Block2	2back/STIM_015.jpg
856.096	0.619	correct	2back	Block2	2back/STIM_016.jpg
859.066	0.49	correct	2back	Block2	2back/STIM_016.jpg
861.941	0.844	correct	2back	Block2	2back/STIM_016.jpg
866.308	0.514	incorrect	2back	Block2	2back/STIM_017.jpg
869.859	0.61	correct	2back	Block2	2back/STIM_017.jpg
873.036	0.865	correct	2back	Block2	2back/STIM_017.jpg
877.02	0.982	correct	2back	Block2	2back/STIM_018.jpg
881.565	0.683	correct	2back	Block2	2back/STIM_018.jpg
885.921	0.621	correct	2back	Block2	2back/STIM_018.jpg
889.498	0.585	correct	2back	Block2	2back/STIM_019.jpg
893.685	0.602	correct	2back	Block2	2back/STIM_019.jpg
897.332	0.665	correct	2back	Block2	2back/STIM_019.jpg
901.403	0.715	correct	2back	Block2	2back/STIM_020.jpg
904.841	0.651	correct	2back	Block2	2back/STIM_020.jpg
909.336	0.775	correct	2back	Block2	2back/STIM_020.jpg
913.444	0.587	correct	2back	Block2	2back/STIM_021.jpg
916.893	0.893	correct	2back	Block2	2back/STIM_021.jpg
921.477	0.731	correct	2back	Block2	2back/STIM_021.jpg
925.677	0.762	correct	2back	Block2	2back/STIM_022.jpg
929.656	0.946	correct	2back	Block2	2back/STIM_022.jpg
933.56	0.813	correct	2back	Block2	2back/STIM_022.jpg
936.696	0.751	incorrect	2back	Block2	2back/STIM_023.jpg
939.987	0.878	correct	2back	Block2	2back/STIM_023.jpg
943.329	0.463	incorrect	2back	Block2	2back/STIM_023.jpg
946.897	1.002	correct	2back	Block2	2back/STIM_024.jpg
951.406	0.862	incorrect	2back	Block2	2back/STIM_024.jpg
956.202	0.707	correct	2back	Block2	2back/STIM_024.jpg
959.099	0.852	incorrect	2back	Block2	2back/STIM_025.jpg
963.464	0.962	correct	2back	Block2	2back/STIM_025.jpg
966.924	0.592	correct	2back	Block2	2back/STIM_025.jpg
971.598	0.496	correct	2back	Block2	2back/STIM_026.jpg
975.681	0.85	correct	2back	Block2	2back/STIM_026.jpg
980.657	0.571	correct	2back	Block2	2back/STIM_026.jpg
985.312	0.892	correct	2back	Block2	2back/STIM_027.jpg
988.941	0.694	correct	2back	Block2	2back/STIM_027.jpg
993.303	0.793	correct	2back	Block2	2back/STIM_027.jpg
997.647	0.539	correct	2back	Block2	2back/STIM_028.jpg
1000.706	0.761	correct	2back	Block2	2back/STIM_028.jpg
1003.695	0.519	correct	2back	Block2	2back/STIM_028.jpg
1006.868	0.52	incorrect	2back	Block2	2back/STIM_029.jpg
1011.197	0.579	correct	2back	Block2	2back/STIM_029.jpg
1015.208	0.874	correct	2back	Block2	2back/STIM_029.jpg
1019.823	0.539	correct	2back	Block2	2back/STIM_030.jpg
1023.415	0.927	correct	2back	Block2	2back/STIM_030.jpg
1027.799	0.528	incorrect	2back	Block2	2back/STIM_030.jpg
1030.771	0.656	correct	2back	Block2	2back/STIM_031.jpg
1035.363	0.799	correct	2back	Block2	2back/STIM_031.jpg
1039.492	0.702	correct	2back	Block2	2back/STIM_031.jpg
1044.198	0.808	incorrect	2back	Block2	2back/STIM_032.jpg
1047.893	0.5	correct	2back	Block2	2back/STIM_032.jpg
1051.445	0.489	correct	2back	Block2	2back/STIM_032.jpg
1055.485	0.843	correct	2back	Block2	2back/STIM_033.jpg
1059.954	0.683	correct	2back	Block2	2back/STIM_033.jpg
1062.934	0.437	correct	2back	Block2	2back/STIM_033.jpg
1067.282	0.898	correct	2back	Block2	2back/STIM_034.jpg
1072.111	0.744	correct	2back	Block2	2back/STIM_034.jpg
1076.1	0.587	correct	2back	Block2	2back/STIM_034.jpg
1079.002	0.623	correct	2back	Block2	2back/STIM_035.jpg
1083.476	0.749	correct	2back	Block2	2back/STIM_035.jpg
1086.749	0.486	correct	2back	Block2	2back/STIM_035.jpg
1090.6	0.848	incorrect	2back	Block2	2back/STIM_036.jpg
1093.914	0.619	correct	2back	Block2	2back/STIM_036.jpg
1097.437	0.478	correct	2back	Block2	2back/STIM_036.jpg
1101.428	0.985	incorrect	2back	Block2	2back/STIM_037.jpg
1105.325	0.56	correct	2back	Block2	2back/STIM_037.jpg
1108.481	0.622	correct	2back	Block2	2back/STIM_037.jpg
1111.657	0.838	correct	2back	Block2	2back/STIM_038.jpg
1115.712	0.942	correct	2back	Block2	2back/STIM_038.jpg
1119.711	0.837	incorrect	2back	Block2	2back/STIM_038.jpg
1123.655	0.676	correct	2back	Block2	2back/STIM_039.jpg
1127.565	0.416	correct	2back	Block2	2back/STIM_039.jpg
1130.7	0.672	correct	2back	Block2	2back/STIM_039.jpg
1135.418	0.561	correct	0back	Block2	0back/STIM_000.jpg
1138.977	0.667	correct	0back	Block2	0back/STIM_000.jpg
1143.087	0.418	correct	0back	Block2	0back/STIM_000.jpg
1146.095	0.382	correct	0back	Block2	0back/STIM_001.jpg
1149.466	0.378	correct	0back	Block2	0back/STIM_001.jpg
1152.151	0.346	correct	0back	Block2	0back/STIM_001.jpg
1155.322	0.594	correct	0back	Block2	0back/STIM_002.jpg
1159.714	0.442	correct	0back	Block2	0back/STIM_002.jpg
1163.962	0.45	correct	0back	Block2	0back/STIM_002.jpg
1167.857	0.436	correct	0back	Block2	0back/STIM_003.jpg
1171.195	0.626	correct	0back	Block2	0back/STIM_003.jpg
1174.515	0.391	correct	0back	Block2	0back/STIM_003.jpg
1178.443	0.552	correct	0back	Block2	0back/STIM_004.jpg
1181.879	0.416	correct	0back	Block2	0back/STIM_004.jpg
1185.072	0.596	correct	0back	Block2	0back/STIM_004.jpg
1189.346	0.605	correct	0back	Block2	0back/STIM_005.jpg
1192.94	0.582	correct	0back	Block2	0back/STIM_005.jpg
1196.533	0.597	correct	0back	Block2	0back/STIM_005.jpg
1200.466	0.596	correct	0back	Block2	0back/STIM_006.jpg
1205.022	0.576	correct	0back	Block2	0back/STIM_006.jpg
1209.011	0.45	correct	0back	Block2	0back/STIM_006.jpg
1213.22	0.564	correct	0back	Block2	0back/STIM_007.jpg
1215.901	0.445	correct	0back	Block2	0back/STIM_007.jpg
1220.154	0.624	correct	0back	Block2	0back/STIM_007.jpg
1223.185	0.589	correct	0back	Block2	0back/STIM_008.jpg
1226.868	0.406	correct	0back	Block2	0back/STIM_008.jpg
1229.55	0.424	correct	0back	Block2	0back/STIM_008.jpg
1232.746	0.511	correct	0back	Block2	0back/STIM_009.jpg
1235.405	0.4	correct	0back	Block2	0back/STIM_009.jpg
1239.397	0.456	correct	0back	Block2	0back/STIM_009.jpg
1243.82	0.425	correct	0back	Block2	0back/STIM_010.jpg
1247.013	0.54	correct	0back	Block2	0back/STIM_010.jpg
1250.625	0.57	correct	0back	Block2	0back/STIM_010.jpg
1254.914	0.62	correct	0back	Block2	0back/STIM_011.jpg
1257.855	0.426	correct	0back	Block2	0back/STIM_011.jpg
1261.12	0.456	correct	0back	Block2	0back/STIM_011.jpg
1264.958	0.44	correct	0back	Block2	0back/STIM_012.jpg
1269.266	0.487	correct	0back	Block2	0back/STIM_012.jpg
1272.811	0.455	correct	0back	Block2	0back/STIM_012.jpg
1275.985	0.393	correct	0back	Block2	0back/STIM_013.jpg
1279.535	0.56	correct	0back	Block2	0back/STIM_013.jpg
1284.09	0.373	correct	0back	Block2	0back/STIM_013.jpg
1288.404	0.507	correct	0back	Block2	0back/STIM_014.jpg
1292.386	0.39	correct	0back	Block2	0back/STIM_014.jpg
1296.644	0.361	correct	0back	Block2	0back/STIM_014.jpg
1299.132	0.466	correct	0back	Block2	0back/STIM_015.jpg
1303.493	0.536	correct	0back	Block2	0back/STIM_015.jpg
1307.214	0.568	correct	0back	Block2	0back/STIM_015.jpg
1310.247	0.594	correct	0back	Block2	0back/STIM_016.jpg
1312.99	0.596	correct	0back	Block2	0back/STIM_016.jpg
1316.756	0.362	correct	0back	Block2	0back/STIM_016.jpg
1319.32	0.461	correct	0back	Block2	0back/STIM_017.jpg
1322.064	0.628	correct	0back	Block2	0back/STIM_017.jpg
1325.951	0.679	correct	0back	Block2	0back/STIM_017.jpg
1330.128	0.472	correct	0back	Block2	0back/STIM_018.jpg
1333.275	0.488	correct	0back	Block2	0back/STIM_018.jpg
1336.803	0.677	correct	0back	Block2	0back/STIM_018.jpg
1339.75	0.35	correct	0back	Block2	0back/STIM_019.jpg
1342.504	0.421	correct	0back	Block2	0back/STIM_019.jpg
1346.734	0.567	incorrect	0back	Block2	0back/STIM_019.jpg
1350.87	0.773	correct	2back	Block3	2back/STIM_000.jpg
1354.32	0.672	correct	2back	Block3	2back/STIM_000.jpg
1357.797	0.832	correct	2back	Block3	2back/STIM_000.jpg
1361.296	0.795	correct	2back	Block3	2back/STIM_001.jpg
1365.765	0.74	correct	2back	Block3	2back/STIM_001.jpg
1370.456	0.626	correct	2back	Block3	2back/STIM_001.jpg
1375.094	0.463	incorrect	2back	Block3	2back/STIM_002.jpg
1378.054	0.373	correct	2back	Block3	2back/STIM_002.jpg
1381.798	0.76	correct	2back	Block3	2back/STIM_002.jpg
1386.097	0.629	correct	2back	Block3	2back/STIM_003.jpg
1390.49	0.381	correct	2back	Block3	2back/STIM_003.jpg
1393.884	0.405	incorrect	2back	Block3	2back/STIM_003.jpg
1398.025	0.822	correct	2back	Block3	2back/STIM_004.jpg
1402.398	0.837	correct	2back	Block3	2back/STIM_004.jpg
1406.031	0.841	correct	2back	Block3	2back/STIM_004.jpg
1409.492	0.721	correct	2back	Block3	2back/STIM_005.jpg
1413.634	0.501	correct	2back	Block3	2back/STIM_005.jpg
1417.14	0.772	incorrect	2back	Block3	2back/STIM_005.jpg
1421.063	0.365	correct	2back	Block3	2back/STIM_006.jpg
1424.438	0.58	correct	2back	Block3	2back/STIM_006.jpg
1428.382	0.512	correct	2back	Block3	2back/STIM_006.jpg
1432.488	0.422	correct	2back	Block3	2back/STIM_007.jpg
1435.546	0.43	correct	2back	Block3	2back/STIM_007.jpg
1439.321	0.674	correct	2back	Block3	2back/STIM_007.jpg
1442.211	0.73	correct	2back	Block3	2back/STIM_008.jpg
1446.332	0.738	correct	2back	Block3	2back/STIM_008.jpg
1450.05	0.44	correct	2back	Block3	2back/STIM_008.jpg
1453.896	0.832	correct	2back	Block3	2back/STIM_009.jpg
1457.536	0.747	correct	2back	Block3	2back/STIM_009.jpg
1462.238	0.765	correct	2back	Block3	2back/STIM_009.jpg
1465.308	0.413	correct	2back	Block3	2back/STIM_010.jpg
1468.234	0.756	correct	2back	Block3	2back/STIM_010.jpg
1472.169	0.375	correct	2back	Block3	2back/STIM_010.jpg
1476.391	0.556	correct	2back	Block3	2back/STIM_011.jpg
1480.717	0.758	correct	2back	Block3	2back/STIM_011.jpg
1484.317	0.492	correct	2back	Block3	2back/STIM_011.jpg
1487.846	0.843	correct	2back	Block3	2back/STIM_012.jpg
1490.901	0.767	correct	2back	Block3	2back/STIM_012.jpg
1495.159	0.663	correct	2back	Block3	2back/STIM_012.jpg
1498.252	0.444	correct	2back	Block3	2back/STIM_013.jpg
1502.546	0.744	correct	2back	Block3	2back/STIM_013.jpg
1507.248	0.503	correct	2back	Block3	2back/STIM_013.jpg
1510.444	0.587	incorrect	2back	Block3	2back/STIM_014.jpg
1514.644	0.608	correct	2back	Block3	2back/STIM_014.jpg
1519.038	0.395	incorrect	2back	Block3	2back/STIM_014.jpg
1522.849	0.785	correct	2back	Block3	2back/STIM_015.jpg
1527.681	0.394	correct	2back	Block3	2back/STIM_015.jpg
1532.032	0.665	correct	2back	Block3	2back/STIM_015.jpg
1534.842	0.626	correct	2back	Block3	2back/STIM_016.jpg
1538.302	0.812	correct	2back	Block3	2back/STIM_016.jpg
1542.008	0.494	correct	2back	Block3	2back/STIM_016.jpg
1545.254	0.791	correct	2back	Block3	2back/STIM_017.jpg
1548.446	0.823	correct	2back	Block3	2back/STIM_017.jpg
1551.666	0.49	correct	2back	Block3	2back/STIM_017.jpg
1554.803	0.624	correct	2back	Block3	2back/STIM_018.jpg
1557.934	0.497	correct	2back	Block3	2back/STIM_018.jpg
1561.5	0.488	correct	2back	Block3	2back/STIM_018.jpg
1565.919	0.572	correct	2back	Block3	2back/STIM_019.jpg
1570.311	0.45	correct	2back	Block3	2back/STIM_019.jpg
1574.62	0.488	correct	2back	Block3	2back/STIM_019.jpg
1578.579	0.661	correct	2back	Block3	2back/STIM_020.jpg
1582.336	0.429	correct	2back	Block3	2back/STIM_020.jpg
1586.586	0.779	correct	2back	Block3	2back/STIM_020.jpg
1589.746	0.807	correct	2back	Block3	2back/STIM_021.jpg
1594.024	0.615	correct	2back	Block3	2back/STIM_021.jpg
1596.901	0.437	correct	2back	Block3	2back/STIM_021.jpg
1600.621	0.701	correct	2back	Block3	2back/STIM_022.jpg
1603.906	0.444	correct	2back	Block3	2back/STIM_022.jpg
1607.594	0.663	correct	2back	Block3	2back/STIM_022.jpg
1612.312	0.822	correct	2back	Block3	2back/STIM_023.jpg
1615.707	0.709	correct	2back	Block3	2back/STIM_023.jpg
1619.122	0.827	correct	2back	Block3	2back/STIM_023.jpg
1623.053	0.558	correct	2back	Block3	2back/STIM_024.jpg
1626.046	0.712	correct	2back	Block3	2back/STIM_024.jpg
1629.66	0.577	correct	2back	Block3	2back/STIM_024.jpg
1632.468	0.602	correct	2back	Block3	2back/STIM_025.jpg
1636.156	0.549	correct	2back	Block3	2back/STIM_025.jpg
1639.365	0.532	correct	2back	Block3	2back/STIM_025.jpg
1642.391	0.678	correct	2back	Block3	2back/STIM_026.jpg
1645.481	0.498	correct	2back	Block3	2back/STIM_026.jpg
1650.034	0.702	correct	2back	Block3	2back/STIM_026.jpg
1654.79	0.518	correct	2back	Block3	2back/STIM_027.jpg
1658.31	0.491	correct	2back	Block3	2back/STIM_027.jpg
1660.904	0.721	correct	2back	Block3	2back/STIM_027.jpg
1665.55	0.547	correct	2back	Block3	2back/STIM_028.jpg
1669.593	0.509	correct	2back	Block3	2back/STIM_028.jpg
1673.88	0.84	incorrect	2back	Block3	2back/STIM_028.jpg
1678.109	0.644	correct	2back	Block3	2back/STIM_029.jpg
1681.775	0.481	correct	2back	Block3	2back/STIM_029.jpg
1684.844	0.379	correct	2back	Block3	2back/STIM_029.jpg
1688.565	0.563	correct	2back	Block3	2back/STIM_030.jpg
1692.597	0.447	correct	2back	Block3	2back/STIM_030.jpg
1695.575	0.508	correct	2back	Block3	2back/STIM_030.jpg
1699.192	0.62	correct	2back	Block3	2back/STIM_031.jpg
1702.731	0.679	correct	2back	Block3	2back/STIM_031.jpg
1705.916	0.48	correct	2back	Block3	2back/STIM_031.jpg
1708.643	0.8	correct	2back	Block3	2back/STIM_032.jpg
1711.705	0.551	correct	2back	Block3	2back/STIM_032.jpg
1714.556	0.492	correct	2back	Block3	2back/STIM_032.jpg
1718.317	0.718	correct	2back	Block3	2back/STIM_033.jpg
1721.555	0.585	correct	2back	Block3	2back/STIM_033.jpg
1725.651	0.424	correct	2back	Block3	2back/STIM_033.jpg
1729.857	0.58	correct	2back	Block3	2back/STIM_034.jpg
1733.679	0.844	correct	2back	Block3	2back/STIM_034.jpg
1737.306	0.364	correct	2back	Block3	2back/STIM_034.jpg
1739.756	0.723	correct	2back	Block3	2back/STIM_035.jpg
1743.07	0.58	correct	2back	Block3	2back/STIM_035.jpg
1746.596	0.546	correct	2back	Block3	2back/STIM_035.jpg
1750.033	0.582	correct	2back	Block3	2back/STIM_036.jpg
1754.244	0.518	correct	2back	Block3	2back/STIM_036.jpg
1757.424	0.606	correct	2back	Block3	2back/STIM_036.jpg
1761.308	0.592	correct	2back	Block3	2back/STIM_037.jpg
1765.809	0.399	correct	2back	Block3	2back/STIM_037.jpg
1770.147	0.531	correct	2back	Block3	2back/STIM_037.jpg
1773.478	0.713	correct	2back	Block3	2back/STIM_038.jpg
1778.062	0.737	correct	2back	Block3	2back/STIM_038.jpg
1782.513	0.407	correct	2back	Block3	2back/STIM_038.jpg
1785.343	0.364	correct	2back	Block3	2back/STIM_039.jpg
1789.041	0.761	correct	2back	Block3	2back/STIM_039.jpg
1792.6	0.482	correct	2back	Block3	2back/STIM_039.jpg
1796.177	0.459	incorrect	0back	Block3	0back/STIM_000.jpg
1800.311	0.452	correct	0back	Block3	0back/STIM_000.jpg
1803.658	0.558	correct	0back	Block3	0back/STIM_000.jpg
1807.603	0.659	correct	0back	Block3	0back/STIM_001.jpg
1812.353	0.57	correct	0back	Block3	0back/STIM_001.jpg
1815.505	0.638	correct	0back	Block3	0back/STIM_001.jpg
1819.061	0.357	incorrect	0back	Block3	0back/STIM_002.jpg
1822.802	0.55	correct	0back	Block3	0back/STIM_002.jpg
1826.895	0.595	correct	0back	Block3	0back/STIM_002.jpg
1830.745	0.356	correct	0back	Block3	0back/STIM_003.jpg
1833.943	0.556	correct	0back	Block3	0back/STIM_003.jpg
1836.601	0.462	correct	0back	Block3	0back/STIM_003.jpg
1840.237	0.555	correct	0back	Block3	0back/STIM_004.jpg
1843.333	0.436	correct	0back	Block3	0back/STIM_004.jpg
1847.751	0.475	correct	0back	Block3	0back/STIM_004.jpg
1851.664	0.356	correct	0back	Block3	0back/STIM_005.jpg
1854.327	0.624	correct	0back	Block3	0back/STIM_005.jpg
1858.974	0.687	correct	0back	Block3	0back/STIM_005.jpg
1863.156	0.59	correct	0back	Block3	0back/STIM_006.jpg
1867.584	0.622	correct	0back	Block3	0back/STIM_006.jpg
1872.144	0.48	correct	0back	Block3	0back/STIM_006.jpg
1876.342	0.356	correct	0back	Block3	0back/STIM_007.jpg
1878.9	0.648	correct	0back	Block3	0back/STIM_007.jpg
1882.159	0.576	correct	0back	Block3	0back/STIM_007.jpg
1884.834	0.499	correct	0back	Block3	0back/STIM_008.jpg
1887.748	0.573	incorrect	0back	Block3	0back/STIM_008.jpg
1890.95	0.533	correct	0back	Block3	0back/STIM_008.jpg
1894.83	0.405	correct	0back	Block3	0back/STIM_009.jpg
1898.844	0.364	correct	0back	Block3	0back/STIM_009.jpg
1902.97	0.498	correct	0back	Block3	0back/STIM_009.jpg
1905.753	0.55	correct	0back	Block3	0back/STIM_010.jpg
1908.879	0.513	correct	0back	Block3	0back/STIM_010.jpg
1913.26	0.397	correct	0back	Block3	0back/STIM_010.jpg
1916.686	0.41	correct	0back	Block3	0back/STIM_011.jpg
1919.198	0.36	correct	0back	Block3	0back/STIM_011.jpg
1923.124	0.564	correct	0back	Block3	0back/STIM_011.jpg
1926.295	0.507	correct	0back	Block3	0back/STIM_012.jpg
1928.957	0.392	correct	0back	Block3	0back/STIM_012.jpg
1933.015	0.516	correct	0back	Block3	0back/STIM_012.jpg
1936.013	0.51	correct	0back	Block3	0back/STIM_013.jpg
1939.968	0.643	correct	0back	Block3	0back/STIM_013.jpg
1944.26	0.464	correct	0back	Block3	0back/STIM_013.jpg
1948.722	0.35	correct	0back	Block3	0back/STIM_014.jpg
1951.334	0.682	correct	0back	Block3	0back/STIM_014.jpg
1955.156	0.546	correct	0back	Block3	0back/STIM_014.jpg
1957.959	0.422	correct	0back	Block3	0back/STIM_015.jpg
1960.818	0.458	correct	0back	Block3	0back/STIM_015.jpg
1964.349	0.597	correct	0back	Block3	0back/STIM_015.jpg
1968.96	0.615	correct	0back	Block3	0back/STIM_016.jpg
1972.965	0.392	correct	0back	Block3	0back/STIM_016.jpg
1975.816	0.615	correct	0back	Block3	0back/STIM_016.jpg
1979.084	0.404	correct	0back	Block3	0back/STIM_017.jpg
1983.4	0.349	incorrect	0back	Block3	0back/STIM_017.jpg
1987.363	0.391	correct	0back	Block3	0back/STIM_017.jpg
1990.205	0.455	correct	0back	Block3	0back/STIM_018.jpg
1992.856	0.683	correct	0back	Block3	0back/STIM_018.jpg
1997.207	0.566	correct	0back	Block3	0back/STIM_018.jpg
2000.606	0.448	correct	0back	Block3	0back/STIM_019.jpg
2004.163	0.428	correct	0back	Block3	0back/STIM_019.jpg
2007.458	0.542	correct	0back	Block3	0back/STIM_019.jpg
2011.073	0.608	correct	2back	Block4	2back/STIM_000.jpg
2014.152	0.811	correct	2back	Block4	2back/STIM_000.jpg
2018.791	0.474	correct	2back	Block4	2back/STIM_000.jpg
2022.016	0.639	correct	2back	Block4	2back/STIM_001.jpg
2025.598	0.646	incorrect	2back	Block4	2back/STIM_001.jpg
2029.644	0.578	correct	2back	Block4	2back/STIM_001.jpg
2034.174	0.692	correct	2back	Block4	2back/STIM_002.jpg
2038.793	0.695	correct	2back	Block4	2back/STIM_002.jpg
2043.346	0.562	correct	2back	Block4	2back/STIM_002.jpg
2047.679	0.636	correct	2back	Block4	2back/STIM_003.jpg
2051.218	0.811	correct	2back	Block4	2back/STIM_003.jpg
2055.085	0.571	correct	2back	Block4	2back/STIM_003.jpg
2059.512	0.711	correct	2back	Block4	2back/STIM_004.jpg
2063.266	0.379	correct	2back	Block4	2back/STIM_004.jpg
2066.252	0.574	correct	2back	Block4	2back/STIM_004.jpg
2070.621	0.48	correct	2back	Block4	2back/STIM_005.jpg
2073.841	0.411	correct	2back	Block4	2back/STIM_005.jpg
2076.604	0.402	correct	2back	Block4	2back/STIM_005.jpg
2079.217	0.802	correct	2back	Block4	2back/STIM_006.jpg
2084.111	0.382	correct	2back	Block4	2back/STIM_006.jpg
2087.849	0.497	correct	2back	Block4	2back/STIM_006.jpg
2091.429	0.763	incorrect	2back	Block4	2back/STIM_007.jpg
2094.493	0.528	correct	2back	Block4	2back/STIM_007.jpg
2098.018	0.661	correct	2back	Block4	2back/STIM_007.jpg
2102.55	0.679	correct	2back	Block4	2back/STIM_008.jpg
2106.635	0.817	correct	2back	Block4	2back/STIM_008.jpg
2109.647	0.826	correct	2back	Block4	2back/STIM_008.jpg
2113.44	0.705	correct	2back	Block4	2back/STIM_009.jpg
2116.895	0.363	correct	2back	Block4	2back/STIM_009.jpg
2119.772	0.762	correct	2back	Block4	2back/STIM_009.jpg
2123.606	0.626	correct	2back	Block4	2back/STIM_010.jpg
2127.638	0.737	correct	2back	Block4	2back/STIM_010.jpg
2132.466	0.376	correct	2back	Block4	2back/STIM_010.jpg
2135.238	0.675	correct	2back	Block4	2back/STIM_011.jpg
2139.172	0.53	correct	2back	Block4	2back/STIM_011.jpg
2142.493	0.474	correct	2back	Block4	2back/STIM_011.jpg
2146.07	0.684	correct	2back	Block4	2back/STIM_012.jpg
2150.771	0.674	correct	2back	Block4	2back/STIM_012.jpg
2154.141	0.641	correct	2back	Block4	2back/STIM_012.jpg
2156.968	0.53	correct	2back	Block4	2back/STIM_013.jpg
2159.963	0.642	correct	2back	Block4	2back/STIM_013.jpg
2164.563	0.826	correct	2back	Block4	2back/STIM_013.jpg
2168.801	0.509	correct	2back	Block4	2back/STIM_014.jpg
2172.629	0.528	correct	2back	Block4	2back/STIM_014.jpg
2175.767	0.76	correct	2back	Block4	2back/STIM_014.jpg
2180.1	0.53	correct	2back	Block4	2back/STIM_015.jpg
2182.733	0.608	correct	2back	Block4	2back/STIM_015.jpg
2186.657	0.373	incorrect	2back	Block4	2back/STIM_015.jpg
2189.178	0.455	correct	2back	Block4	2back/STIM_016.jpg
2193.531	0.439	correct	2back	Block4	2back/STIM_016.jpg
2196.371	0.727	correct	2back	Block4	2back/STIM_016.jpg
2200.322	0.565	correct	2back	Block4	2back/STIM_017.jpg
2204.436	0.639	correct	2back	Block4	2back/STIM_017.jpg
2207.442	0.419	correct	2back	Block4	2back/STIM_017.jpg
2210.782	0.655	correct	2back	Block4	2back/STIM_018.jpg
2214.418	0.513	correct	2back	Block4	2back/STIM_018.jpg
2217.174	0.788	correct	2back	Block4	2back/STIM_018.jpg
2220.796	0.796	correct	2back	Block4	2back/STIM_019.jpg
2224.051	0.664	correct	2back	Block4	2back/STIM_019.jpg
2227.803	0.381	correct	2back	Block4	2back/STIM_019.jpg
2231.569	0.788	correct	2back	Block4	2back/STIM_020.jpg
2236.117	0.73	correct	2back	Block4	2back/STIM_020.jpg
2240.422	0.623	correct	2back	Block4	2back/STIM_020.jpg
2243.391	0.843	correct	2back	Block4	2back/STIM_021.jpg
2247.987	0.387	correct	2back	Block4	2back/STIM_021.jpg
2250.806	0.479	correct	2back	Block4	2back/STIM_021.jpg
2254.928	0.642	correct	2back	Block4	2back/STIM_022.jpg
2258.404	0.592	correct	2back	Block4	2back/STIM_022.jpg
2262.062	0.542	correct	2back	Block4	2back/STIM_022.jpg
2265.555	0.443	correct	2back	Block4	2back/STIM_023.jpg
2268.578	0.773	correct	2back	Block4	2back/STIM_023.jpg
2272.877	0.589	correct	2back	Block4	2back/STIM_023.jpg
2276.53	0.718	correct	2back	Block4	2back/STIM_024.jpg
2280.782	0.7	correct	2back	Block4	2back/STIM_024.jpg
2284.32	0.644	correct	2back	Block4	2back/STIM_024.jpg
2288.763	0.443	correct	2back	Block4	2back/STIM_025.jpg
2292.42	0.41	correct	2back	Block4	2back/STIM_025.jpg
2295.407	0.471	correct	2back	Block4	2back/STIM_025.jpg
2298.193	0.46	correct	2back	Block4	2back/STIM_026.jpg
2300.811	0.514	correct	2back	Block4	2back/STIM_026.jpg
2305.092	0.799	correct	2back	Block4	2back/STIM_026.jpg
2309.585	0.489	correct	2back	Block4	2back/STIM_027.jpg
2313.287	0.464	correct	2back	Block4	2back/STIM_027.jpg
2316.241	0.679	correct	2back	Block4	2back/STIM_027.jpg
2320.872	0.804	correct	2back	Block4	2back/STIM_028.jpg
2325.518	0.753	correct	2back	Block4	2back/STIM_028.jpg
2328.647	0.72	correct	2back	Block4	2back/STIM_028.jpg
2332.09	0.43	correct	2back	Block4	2back/STIM_029.jpg
2335.841	0.815	correct	2back	Block4	2back/STIM_029.jpg
2340.592	0.509	correct	2back	Block4	2back/STIM_029.jpg
2345.145	0.495	correct	2back	Block4	2back/STIM_030.jpg
2347.968	0.46	correct	2back	Block4	2back/STIM_030.jpg
2351.196	0.716	correct	2back	Block4	2back/STIM_030.jpg
2354.158	0.714	correct	2back	Block4	2back/STIM_031.jpg
2357.576	0.495	correct	2back	Block4	2back/STIM_031.jpg
2360.52	0.496	correct	2back	Block4	2back/STIM_031.jpg
2364.982	0.366	correct	2back	Block4	2back/STIM_032.jpg
2368.446	0.842	correct	2back	Block4	2back/STIM_032.jpg
2372.426	0.679	correct	2back	Block4	2back/STIM_032.jpg
2377.053	0.673	correct	2back	Block4	2back/STIM_033.jpg
2381.107	0.658	correct	2back	Block4	2back/STIM_033.jpg
2384.661	0.505	correct	2back	Block4	2back/STIM_033.jpg
2388.058	0.369	correct	2back	Block4	2back/STIM_034.jpg
2392.385	0.67	correct	2back	Block4	2back/STIM_034.jpg
2395.792	0.436	correct	2back	Block4	2back/STIM_034.jpg
2398.5	0.527	correct	2back	Block4	2back/STIM_035.jpg
2402.779	0.605	correct	2back	Block4	2back/STIM_035.jpg
2407.298	0.815	correct	2back	Block4	2back/STIM_035.jpg
2411.997	0.375	correct	2back	Block4	2back/STIM_036.jpg
2414.748	0.418	correct	2back	Block4	2back/STIM_036.jpg
2418.385	0.589	correct	2back	Block4	2back/STIM_036.jpg
2421.187	0.596	correct	2back	Block4	2back/STIM_037.jpg
2425.252	0.428	correct	2back	Block4	2back/STIM_037.jpg
2428.847	0.679	correct	2back	Block4	2back/STIM_037.jpg
2431.921	0.657	correct	2back	Block4	2back/STIM_038.jpg
2435.27	0.434	correct	2back	Block4	2back/STIM_038.jpg
2439.142	0.551	correct	2back	Block4	2back/STIM_038.jpg
2443.502	0.812	correct	2back	Block4	2back/STIM_039.jpg
2446.825	0.744	correct	2back	Block4	2back/STIM_039.jpg
2450.524	0.579	correct	2back	Block4	2back/STIM_039.jpg
2453.648	0.689	correct	0back	Block4	0back/STIM_000.jpg
2457.79	0.612	correct	0back	Block4	0back/STIM_000.jpg
2462.109	0.562	correct	0back	Block4	0back/STIM_000.jpg
2465.983	0.442	correct	0back	Block4	0back/STIM_001.jpg
2468.534	0.357	correct	0back	Block4	0back/STIM_001.jpg
2471.354	0.614	correct	0back	Block4	0back/STIM_001.jpg
2476.007	0.364	correct	0back	Block4	0back/STIM_002.jpg
2479.462	0.556	correct	0back	Block4	0back/STIM_002.jpg
2483.04	0.383	correct	0back	Block4	0back/STIM_002.jpg
2485.659	0.419	correct	0back	Block4	0back/STIM_003.jpg
2489.06	0.62	correct	0back	Block4	0back/STIM_003.jpg
2493.112	0.371	correct	0back	Block4	0back/STIM_003.jpg
2497.111	0.474	correct	0back	Block4	0back/STIM_004.jpg
2500.836	0.472	correct	0back	Block4	0back/STIM_004.jpg
2503.43	0.648	correct	0back	Block4	0back/STIM_004.jpg
2506.429	0.658	correct	0back	Block4	0back/STIM_005.jpg
2510.328	0.643	correct	0back	Block4	0back/STIM_005.jpg
2514.188	0.649	correct	0back	Block4	0back/STIM_005.jpg
2518.311	0.535	incorrect	0back	Block4	0back/STIM_006.jpg
2521.969	0.51	incorrect	0back	Block4	0back/STIM_006.jpg
2525.41	0.573	correct	0back	Block4	0back/STIM_006.jpg
2528.08	0.406	correct	0back	Block4	0back/STIM_007.jpg
2530.589	0.481	correct	0back	Block4	0back/STIM_007.jpg
2534.467	0.466	correct	0back	Block4	0back/STIM_007.jpg
2537.141	0.522	correct	0back	Block4	0back/STIM_008.jpg
2540.299	0.545	correct	0back	Block4	0back/STIM_008.jpg
2544.914	0.687	incorrect	0back	Block4	0back/STIM_008.jpg
2548.746	0.549	correct	0back	Block4	0back/STIM_009.jpg
2551.919	0.629	correct	0back	Block4	0back/STIM_009.jpg
2555.016	0.416	correct	0back	Block4	0back/STIM_009.jpg
2557.621	0.622	correct	0back	Block4	0back/STIM_010.jpg
2562.05	0.654	correct	0back	Block4	0back/STIM_010.jpg
2566.092	0.577	correct	0back	Block4	0back/STIM_010.jpg
2570.112	0.544	correct	0back	Block4	0back/STIM_011.jpg
2574.286	0.349	correct	0back	Block4	0back/STIM_011.jpg
2578.431	0.628	correct	0back	Block4	0back/STIM_011.jpg
2582.745	0.542	correct	0back	Block4	0back/STIM_012.jpg
2585.791	0.479	correct	0back	Block4	0back/STIM_012.jpg
2589.985	0.585	correct	0back	Block4	0back/STIM_012.jpg
2594.454	0.602	correct	0back	Block4	0back/STIM_013.jpg
2599.144	0.6	correct	0back	Block4	0back/STIM_013.jpg
2602.063	0.603	correct	0back	Block4	0back/STIM_013.jpg
2604.963	0.664	correct	0back	Block4	0back/STIM_014.jpg
2608.564	0.597	correct	0back	Block4	0back/STIM_014.jpg
2611.939	0.443	correct	0back	Block4	0back/STIM_014.jpg
2614.912	0.6	correct	0back	Block4	0back/STIM_015.jpg
2618.655	0.393	correct	0back	Block4	0back/STIM_015.jpg
2621.486	0.664	correct	0back	Block4	0back/STIM_015.jpg
2624.698	0.364	correct	0back	Block4	0back/STIM_016.jpg
2627.169	0.649	correct	0back	Block4	0back/STIM_016.jpg
2630.269	0.397	correct	0back	Block4	0back/STIM_016.jpg
2633.678	0.658	incorrect	0back	Block4	0back/STIM_017.jpg
2636.54	0.366	correct	0back	Block4	0back/STIM_017.jpg
2640.828	0.479	correct	0back	Block4	0back/STIM_017.jpg
2643.794	0.464	correct	0back	Block4	0back/STIM_018.jpg
2646.746	0.429	correct	0back	Block4	0back/STIM_018.jpg
2650.771	0.517	correct	0back	Block4	0back/STIM_018.jpg
2654.968	0.417	correct	0back	Block4	0back/STIM_019.jpg
2658.013	0.454	correct	0back	Block4	0back/STIM_019.jpg
2660.582	0.557	correct	0back	Block4	0back/STIM_019.jpg
