onset	duration	accuracy	trial_type	learning_stage	stimulus
0.0	0.533	incorrect	2back	Block1	2back/STIM_000.jpg
3.21	1.097	incorrect	2back	Block1	2back/STIM_000.jpg
7.233	0.646	correct	2back	Block1	2back/STIM_000.jpg
11.253	0.541	incorrect	2back	Block1	2back/STIM_001.jpg
13.848	1.104	correct	2back	Block1	2back/STIM_001.jpg
17.245	0.519	correct	2back	Block1	2back/STIM_001.jpg
20.646	1.17	correct	2back	Block1	2back/STIM_002.jpg
25.03	1.115	correct	2back	Block1	2back/STIM_002.jpg
29.408	0.692	correct	2back	Block1	2back/STIM_002.jpg
33.816	0.866	incorrect	2back	Block1	2back/STIM_003.jpg
38.628	0.711	incorrect	2back	Block1	2back/STIM_003.jpg
43.165	0.549	correct	2back	Block1	2back/STIM_003.jpg
47.411	1.184	correct	2back	Block1	2back/STIM_004.jpg
51.523	0.864	incorrect	2back	Block1	2back/STIM_004.jpg
54.683	0.579	incorrect	2back	Block1	2back/STIM_004.jpg
58.085	0.985	correct	2back	Block1	2back/STIM_005.jpg
62.757	0.639	incorrect	2back	Block1	2back/STIM_005.jpg
66.309	1.027	correct	2back	Block1	2back/STIM_005.jpg
70.566	0.806	correct	2back	Block1	2back/STIM_006.jpg
75.319	0.495	correct	2back	Block1	2back/STIM_006.jpg
78.159	0.53	correct	2back	Block1	2back/STIM_006.jpg
80.957	0.686	incorrect	2back	Block1	2back/STIM_007.jpg
83.662	0.711	correct	2back	Block1	2back/STIM_007.jpg
86.62	1.041	incorrect	2back	Block1	2back/STIM_007.jpg
91.545	0.741	incorrect	2back	Block1	2back/STIM_008.jpg
95.911	0.894	incorrect	2back	Block1	2back/STIM_008.jpg
100.0	0.742	incorrect	2back	Block1	2back/STIM_008.jpg
104.027	0.609	incorrect	2back	Block1	2back/STIM_009.jpg
107.073	0.929	correct	2back	Block1	2back/STIM_009.jpg
111.664	0.567	incorrect	2back	Block1	2back/STIM_009.jpg
114.782	1.105	correct	2back	Block1	2back/STIM_010.jpg
119.333	1.08	correct	2back	Block1	2back/STIM_010.jpg
122.547	0.898	incorrect	2back	Block1	2back/STIM_010.jpg
125.544	1.023	incorrect	2back	Block1	2back/STIM_011.jpg
130.306	0.636	correct	2back	Block1	2back/STIM_011.jpg
134.667	0.969	correct	2back	Block1	2back/STIM_011.jpg
139.001	0.785	correct	2back	Block1	2back/STIM_012.jpg
142.595	1.066	incorrect	2back	Block1	2back/STIM_012.jpg
147.62	0.793	incorrect	2back	Block1	2back/STIM_012.jpg
151.295	0.575	correct	2back	Block1	2back/STIM_013.jpg
155.026	0.608	incorrect	2back	Block1	2back/STIM_013.jpg
159.283	0.552	incorrect	2back	Block1	2back/STIM_013.jpg
163.429	0.895	incorrect	2back	Block1	2back/STIM_014.jpg
168.106	1.071	correct	2back	Block1	2back/STIM_014.jpg
173.045	0.792	correct	2back	Block1	2back/STIM_014.jpg
176.743	1.038	correct	2back	Block1	2back/STIM_015.jpg
181.705	0.884	correct	2back	Block1	2back/STIM_015.jpg
185.525	0.618	correct	2back	Block1	2back/STIM_015.jpg
188.173	0.818	incorrect	2back	Block1	2back/STIM_016.jpg
191.167	0.556	incorrect	2back	Block1	2back/STIM_016.jpg
195.066	0.646	incorrect	2back	Block1	2back/STIM_016.jpg
198.366	1.065	correct	2back	Block1	2back/STIM_017.jpg
201.919	0.504	correct	2back	Block1	2back/STIM_017.jpg
205.92	0.688	incorrect	2back	Block1	2back/STIM_017.jpg
208.832	0.91	correct	2back	Block1	2back/STIM_018.jpg
213.312	1.077	incorrect	2back	Block1	2back/STIM_018.jpg
216.488	1.05	incorrect	2back	Block1	2back/STIM_018.jpg
219.99	0.73	incorrect	2back	Block1	2back/STIM_019.jpg
224.164	0.634	incorrect	2back	Block1	2back/STIM_019.jpg
227.142	0.874	incorrect	2back	Block1	2back/STIM_019.jpg
231.468	1.158	correct	2back	Block1	2back/STIM_020.jpg
236.423	0.882	correct	2back	Block1	2back/STIM_020.jpg
240.996	0.755	correct	2back	Block1	2back/STIM_020.jpg
244.934	0.757	incorrect	2back	Block1	2back/STIM_021.jpg
248.011	0.799	incorrect	2back	Block1	2back/STIM_021.jpg
252.341	0.839	incorrect	2back	Block1	2back/STIM_021.jpg
255.223	0.914	incorrect	2back	Block1	2back/STIM_022.jpg
258.352	0.487	correct	2back	Block1	2back/STIM_022.jpg
261.507	1.025	correct	2back	Block1	2back/STIM_022.jpg
264.627	0.729	correct	2back	Block1	2back/STIM_023.jpg
268.702	0.73	correct	2back	Block1	2back/STIM_023.jpg
272.4	0.984	incorrect	2back	Block1	2back/STIM_023.jpg
275.592	0.692	correct	2back	Block1	2back/STIM_024.jpg
279.686	0.747	correct	2back	Block1	2back/STIM_024.jpg
284.288	0.627	incorrect	2back	Block1	2back/STIM_024.jpg
287.056	0.885	incorrect	2back	Block1	2back/STIM_025.jpg
291.476	0.726	incorrect	2back	Block1	2back/STIM_025.jpg
294.68	0.538	correct	2back	Block1	2back/STIM_025.jpg
298.469	0.874	correct	2back	Block1	2back/STIM_026.jpg
302.844	0.667	correct	2back	Block1	2back/STIM_026.jpg
305.876	0.629	incorrect	2back	Block1	2back/STIM_026.jpg
309.423	0.675	correct	2back	Block1	2back/STIM_027.jpg
314.091	0.773	correct	2back	Block1	2back/STIM_027.jpg
318.609	0.623	correct	2back	Block1	2back/STIM_027.jpg
321.33	0.733	correct	2back	Block1	2back/STIM_028.jpg
325.502	0.757	incorrect	2back	Block1	2back/STIM_028.jpg
328.596	0.479	correct	2back	Block1	2back/STIM_028.jpg
332.279	0.972	incorrect	2back	Block1	2back/STIM_029.jpg
336.173	1.051	incorrect	2back	Block1	2back/STIM_029.jpg
340.074	0.73	incorrect	2back	Block1	2back/STIM_029.jpg
344.023	0.62	incorrect	2back	Block1	2back/STIM_030.jpg
346.9	0.838	correct	2back	Block1	2back/STIM_030.jpg
351.692	0.578	incorrect	2back	Block1	2back/STIM_030.jpg
355.887	0.69	correct	2back	Block1	2back/STIM_031.jpg
358.961	0.55	correct	2back	Block1	2back/STIM_031.jpg
362.034	0.598	incorrect	2back	Block1	2back/STIM_031.jpg
364.931	0.538	incorrect	2back	Block1	2back/STIM_032.jpg
367.814	0.574	incorrect	2back	Block1	2back/STIM_032.jpg
371.184	0.839	correct	2back	Block1	2back/STIM_032.jpg
374.526	0.557	incorrect	2back	Block1	2back/STIM_033.jpg
378.613	0.754	incorrect	2back	Block1	2back/STIM_033.jpg
381.539	0.682	incorrect	2back	Block1	2back/STIM_033.jpg
385.721	1.094	correct	2back	Block1	2back/STIM_034.jpg
389.764	0.956	correct	2back	Block1	2back/STIM_034.jpg
394.343	0.766	correct	2back	Block1	2back/STIM_034.jpg
399.064	1.039	incorrect	2back	Block1	2back/STIM_035.jpg
404.024	0.487	incorrect	2back	Block1	2back/STIM_035.jpg
407.097	0.573	incorrect	2back	Block1	2back/STIM_035.jpg
410.17	1.071	correct	2back	Block1	2back/STIM_036.jpg
413.988	0.836	incorrect	2back	Block1	2back/STIM_036.jpg
417.337	0.879	correct	2back	Block1	2back/STIM_036.jpg
420.928	0.658	correct	2back	Block1	2back/STIM_037.jpg
425.066	0.573	incorrect	2back	Block1	2back/STIM_037.jpg
429.526	0.719	correct	2back	Block1	2back/STIM_037.jpg
433.521	0.546	incorrect	2back	Block1	2back/STIM_038.jpg
436.471	1.07	incorrect	2back	Block1	2back/STIM_038.jpg
441.007	0.761	incorrect	2back	Block1	2back/STIM_038.jpg
444.157	0.845	correct	2back	Block1	2back/STIM_039.jpg
447.209	1.06	incorrect	2back	Block1	2back/STIM_039.jpg
451.516	0.811	correct	2back	Block1	2back/STIM_039.jpg
454.659	0.544	incorrect	0back	Block1	0back/STIM_000.jpg
458.587	0.524	correct	0back	Block1	0back/STIM_000.jpg
463.003	0.466	incorrect	0back	Block1	0back/STIM_000.jpg
465.666	0.423	incorrect	0back	Block1	0back/STIM_001.jpg
469.439	0.612	correct	0back	Block1	0back/STIM_001.jpg
473.208	0.462	correct	0back	Block1	0back/STIM_001.jpg
476.511	0.659	correct	0back	Block1	0back/STIM_002.jpg
481.021	0.372	incorrect	0back	Block1	0back/STIM_002.jpg
485.044	0.438	correct	0back	Block1	0back/STIM_002.jpg
488.249	0.357	incorrect	0back	Block1	0back/STIM_003.jpg
492.167	0.558	incorrect	0back	Block1	0back/STIM_003.jpg
495.088	0.669	correct	0back	Block1	0back/STIM_003.jpg
498.768	0.581	correct	0back	Block1	0back/STIM_004.jpg
502.389	0.599	incorrect	0back	Block1	0back/STIM_004.jpg
505.653	0.591	correct	0back	Block1	0back/STIM_004.jpg
509.652	0.639	correct	0back	Block1	0back/STIM_005.jpg
513.795	0.437	correct	0back	Block1	0back/STIM_005.jpg
516.874	0.61	incorrect	0back	Block1	0back/STIM_005.jpg
520.431	0.584	correct	0back	Block1	0back/STIM_006.jpg
524.029	0.474	correct	0back	Block1	0back/STIM_006.jpg
526.759	0.35	incorrect	0back	Block1	0back/STIM_006.jpg
529.268	0.604	correct	0back	Block1	0back/STIM_007.jpg
533.153	0.428	correct	0back	Block1	0back/STIM_007.jpg
535.597	0.546	correct	0back	Block1	0back/STIM_007.jpg
540.034	0.426	incorrect	0back	Block1	0back/STIM_008.jpg
542.688	0.584	correct	0back	Block1	0back/STIM_008.jpg
546.979	0.632	incorrect	0back	Block1	0back/STIM_008.jpg
550.236	0.572	correct	0back	Block1	0back/STIM_009.jpg
553.004	0.523	incorrect	0back	Block1	0back/STIM_009.jpg
556.743	0.502	correct	0back	Block1	0back/STIM_009.jpg
560.511	0.654	correct	0back	Block1	0back/STIM_010.jpg
563.254	0.497	correct	0back	Block1	0back/STIM_010.jpg
566.418	0.543	correct	0back	Block1	0back/STIM_010.jpg
569.63	0.486	correct	0back	Block1	0back/STIM_011.jpg
573.69	0.467	correct	0back	Block1	0back/STIM_011.jpg
576.838	0.39	correct	0back	Block1	0back/STIM_011.jpg
580.641	0.655	correct	0back	Block1	0back/STIM_012.jpg
583.355	0.436	incorrect	0back	Block1	0back/STIM_012.jpg
587.009	0.481	incorrect	0back	Block1	0back/STIM_012.jpg
591.143	0.493	correct	0back	Block1	0back/STIM_013.jpg
595.161	0.499	correct	0back	Block1	0back/STIM_013.jpg
598.972	0.548	incorrect	0back	Block1	0back/STIM_013.jpg
602.857	0.38	correct	0back	Block1	0back/STIM_014.jpg
605.606	0.626	incorrect	0back	Block1	0back/STIM_014.jpg
608.962	0.551	incorrect	0back	Block1	0back/STIM_014.jpg
612.344	0.568	correct	0back	Block1	0back/STIM_015.jpg
614.936	0.489	correct	0back	Block1	0back/STIM_015.jpg
618.467	0.578	incorrect	0back	Block1	0back/STIM_015.jpg
621.784	0.469	incorrect	0back	Block1	0back/STIM_016.jpg
625.452	0.428	correct	0back	Block1	0back/STIM_016.jpg
628.943	0.592	incorrect	0back	Block1	0back/STIM_016.jpg
632.226	0.396	incorrect	0back	Block1	0back/STIM_017.jpg
635.414	0.478	correct	0back	Block1	0back/STIM_017.jpg
639.782	0.472	correct	0back	Block1	0back/STIM_017.jpg
642.715	0.55	correct	0back	Block1	0back/STIM_018.jpg
645.984	0.566	incorrect	0back	Block1	0back/STIM_018.jpg
649.78	0.35	correct	0back	Block1	0back/STIM_018.jpg
653.841	0.386	correct	0back	Block1	0back/STIM_019.jpg
656.478	0.632	incorrect	0back	Block1	0back/STIM_019.jpg
660.905	0.62	incorrect	0back	Block1	0back/STIM_019.jpg
663.875	0.617	correct	2back	Block2	2back/STIM_000.jpg
668.353	0.722	incorrect	2back	Block2	2back/STIM_000.jpg
671.372	0.68	correct	2back	Block2	2back/STIM_000.jpg
675.713	1.001	incorrect	2back	Block2	2back/STIM_001.jpg
680.378	0.856	correct	2back	Block2	2back/STIM_001.jpg
684.054	0.649	correct	2back	Block2	2back/STIM_001.jpg
687.767	0.771	correct	2back	Block2	2back/STIM_002.jpg
690.609	0.793	correct	2back	Block2	2back/STIM_002.jpg
694.326	0.727	incorrect	2back	Block2	2back/STIM_002.jpg
698.911	0.897	correct	2back	Block2	2back/STIM_003.jpg
703.356	0.528	correct	2back	Block2	2back/STIM_003.jpg
706.188	0.689	correct	2back	Block2	2back/STIM_003.jpg
709.201	0.983	correct	2back	Block2	2back/STIM_004.jpg
713.195	0.739	incorrect	2back	Block2	2back/STIM_004.jpg
716.575	0.56	correct	2back	Block2	2back/STIM_004.jpg
721.093	0.888	incorrect	2back	Block2	2back/STIM_005.jpg
724.198	0.41	incorrect	2back	Block2	2back/STIM_005.jpg
727.427	0.389	correct	2back	Block2	2back/STIM_005.jpg
729.918	0.447	correct	2back	Block2	2back/STIM_006.jpg
733.631	0.788	correct	2back	Block2	2back/STIM_006.jpg
737.741	0.833	correct	2back	Block2	2back/STIM_006.jpg
742.18	0.895	incorrect	2back	Block2	2back/STIM_007.jpg
745.913	0.836	correct	2back	Block2	2back/STIM_007.jpg
749.301	0.416	incorrect	2back	Block2	2back/STIM_007.jpg
752.652	0.479	correct	2back	Block2	2back/STIM_008.jpg
755.151	0.486	correct	2back	Block2	2back/STIM_008.jpg
759.271	0.674	incorrect	2back	Block2	2back/STIM_008.jpg
762.989	0.987	correct	2back	Block2	2back/STIM_009.jpg
766.776	0.851	incorrect	2back	Block2	2back/STIM_009.jpg
769.723	0.715	correct	2back	Block2	2back/STIM_009.jpg
772.44	0.806	incorrect	2back	Block2	2back/STIM_010.jpg
775.634	0.511	correct	2back	Block2	2back/STIM_010.jpg
780.12	0.81	correct	2back	Block2	2back/STIM_010.jpg
783.025	0.53	incorrect	2back	Block2	2back/STIM_011.jpg
787.1	0.763	correct	2back	Block2	2back/STIM_011.jpg
790.4	0.841	correct	2back	Block2	2back/STIM_011.jpg
794.061	0.601	correct	2back	Block2	2back/STIM_012.jpg
797.493	0.659	correct	2back	Block2	2back/STIM_012.jpg
801.228	0.685	correct	2back	Block2	2back/STIM_012.jpg
805.461	0.575	correct	2back	Block2	2back/STIM_013.jpg
808.23	0.629	incorrect	2back	Block2	2back/STIM_013.jpg
812.534	0.776	incorrect	2back	Block2	2back/STIM_013.jpg
816.152	0.539	incorrect	2back	Block2	2back/STIM_014.jpg
819.338	0.835	correct	2back	Block2	2back/STIM_014.jpg
822.729	0.595	incorrect	2back	Block2	2back/STIM_014.jpg
825.937	0.694	incorrect	2back	Block2	2back/STIM_015.jpg
829.861	0.553	incorrect	2back	Block2	2back/STIM_015.jpg
832.567	0.536	incorrect	2back	Block2	2back/STIM_015.jpg
836.436	0.601	correct	2back	Block2	2back/STIM_016.jpg
839.344	0.738	correct	2back	Block2	2back/STIM_016.jpg
843.145	0.678	incorrect	2back	Block2	2back/STIM_016.jpg
847.748	0.753	incorrect	2back	Block2	2back/STIM_017.jpg
852.493	0.731	correct	2back	Block2	2back/STIM_017.jpg
855.785	0.513	correct	2back	Block2	2back/STIM_017.jpg
859.693	0.465	incorrect	2back	Block2	2back/STIM_018.jpg
862.415	0.455	incorrect	2back	Block2	2back/STIM_018.jpg
865.235	0.703	incorrect	2back	Block2	2back/STIM_018.jpg
869.72	0.696	incorrect	2back	Block2	2back/STIM_019.jpg
873.327	0.919	correct	2back	Block2	2back/STIM_019.jpg
877.092	0.71	correct	2back	Block2	2back/STIM_019.jpg
881.192	0.755	incorrect	2back	Block2	2back/STIM_020.jpg
884.234	0.548	incorrect	2back	Block2	2back/STIM_020.jpg
888.342	0.581	incorrect	2back	Block2	2back/STIM_020.jpg
891.53	0.578	incorrect	2back	Block2	2back/STIM_021.jpg
895.254	0.715	incorrect	2back	Block2	2back/STIM_021.jpg
898.591	0.623	incorrect	2back	Block2	2back/STIM_021.jpg
903.059	0.454	incorrect	2back	Block2	2back/STIM_022.jpg
906.413	0.476	correct	2back	Block2	2back/STIM_022.jpg
909.308	0.798	incorrect	2back	Block2	2back/STIM_022.jpg
913.635	0.7	incorrect	2back	Block2	2back/STIM_023.jpg
918.168	0.771	correct	2back	Block2	2back/STIM_023.jpg
921.476	0.692	incorrect	2back	Block2	2back/STIM_023.jpg
925.885	0.45	incorrect	2back	Block2	2back/STIM_024.jpg
928.61	0.604	incorrect	2back	Block2	2back/STIM_024.jpg
932.778	0.811	correct	2back	Block2	2back/STIM_024.jpg
936.178	0.723	incorrect	2back	Block2	2back/STIM_025.jpg
940.718	0.782	correct	2back	Block2	2back/STIM_025.jpg
945.291	0.756	incorrect	2back	Block2	2back/STIM_025.jpg
949.675	0.933	incorrect	2back	Block2	2back/STIM_026.jpg
954.369	0.835	correct	2back	Block2	2back/STIM_026.jpg
957.426	0.464	correct	2back	Block2	2back/STIM_026.jpg
961.643	0.871	correct	2back	Block2	2back/STIM_027.jpg
964.944	0.726	correct	2back	Block2	2back/STIM_027.jpg
968.797	0.407	incorrect	2back	Block2	2back/STIM_027.jpg
972.79	0.901	incorrect	2back	Block2	2back/STIM_028.jpg
976.549	0.888	correct	2back	Block2	2back/STIM_028.jpg
981.398	0.855	incorrect	2back	Block2	2back/STIM_028.jpg
986.126	0.534	incorrect	2back	Block2	2back/STIM_029.jpg
989.633	0.64	correct	2back	Block2	2back/STIM_029.jpg
992.365	0.398	correct	2back	Block2	2back/STIM_029.jpg
995.895	0.755	correct	2back	Block2	2back/STIM_030.jpg
1000.236	0.567	incorrect	2back	Block2	2back/STIM_030.jpg
1003.379	0.604	incorrect	2back	Block2	2back/STIM_030.jpg
1007.578	0.701	correct	2back	Block2	2back/STIM_031.jpg
1010.904	0.865	incorrect	2back	Block2	2back/STIM_031.jpg
1015.62	0.559	correct	2back	Block2	2back/STIM_031.jpg
1019.241	0.78	incorrect	2back	Block2	2back/STIM_032.jpg
1022.916	0.932	incorrect	2back	Block2	2back/STIM_032.jpg
1026.247	0.752	correct	2back	Block2	2back/STIM_032.jpg
1030.008	0.791	incorrect	2back	Block2	2back/STIM_033.jpg
1033.656	0.62	incorrect	2back	Block2	2back/STIM_033.jpg
1037.072	0.633	correct	2back	Block2	2back/STIM_033.jpg
1039.797	0.967	incorrect	2back	Block2	2back/STIM_034.jpg
1043.641	0.448	correct	2back	Block2	2back/STIM_034.jpg
1046.35	0.647	correct	2back	Block2	2back/STIM_034.jpg
1050.802	0.708	incorrect	2back	Block2	2back/STIM_035.jpg
1053.788	0.875	correct	2back	Block2	2back/STIM_035.jpg
1057.017	0.615	correct	2back	Block2	2back/STIM_035.jpg
1061.27	0.738	incorrect	2back	Block2	2back/STIM_036.jpg
1064.708	0.65	correct	2back	Block2	2back/STIM_036.jpg
1068.312	0.441	correct	2back	Block2	2back/STIM_036.jpg
1071.468	0.842	incorrect	2back	Block2	2back/STIM_037.jpg
1076.247	0.581	correct	2back	Block2	2back/STIM_037.jpg
1079.663	0.506	incorrect	2back	Block2	2back/STIM_037.jpg
1082.566	0.984	correct	2back	Block2	2back/STIM_038.jpg
1085.732	0.743	incorrect	2back	Block2	2back/STIM_038.jpg
1088.952	0.713	incorrect	2back	Block2	2back/STIM_038.jpg
1093.051	0.795	correct	2back	Block2	2back/STIM_039.jpg
1097.452	0.56	correct	2back	Block2	2back/STIM_039.jpg
1100.739	0.53	incorrect	2back	Block2	2back/STIM_039.jpg
1103.844	0.463	correct	0back	Block2	0back/STIM_000.jpg
1107.094	0.624	correct	0back	Block2	0back/STIM_000.jpg
1110.289	0.611	correct	0back	Block2	0back/STIM_000.jpg
1113.261	0.466	incorrect	0back	Block2	0back/STIM_001.jpg
1117.387	0.384	incorrect	0back	Block2	0back/STIM_001.jpg
1120.232	0.624	correct	0back	Block2	0back/STIM_001.jpg
1124.511	0.415	correct	0back	Block2	0back/STIM_002.jpg
1128.013	0.414	correct	0back	Block2	0back/STIM_002.jpg
1131.72	0.542	correct	0back	Block2	0back/STIM_002.jpg
1134.876	0.606	correct	0back	Block2	0back/STIM_003.jpg
1138.0	0.359	correct	0back	Block2	0back/STIM_003.jpg
1140.564	0.618	incorrect	0back	Block2	0back/STIM_003.jpg
1144.898	0.492	incorrect	0back	Block2	0back/STIM_004.jpg
1148.627	0.449	correct	0back	Block2	0back/STIM_004.jpg
1152.272	0.362	correct	0back	Block2	0back/STIM_004.jpg
1155.851	0.638	incorrect	0back	Block2	0back/STIM_005.jpg
1160.096	0.426	correct	0back	Block2	0back/STIM_005.jpg
1164.165	0.621	incorrect	0back	Block2	0back/STIM_005.jpg
1166.982	0.56	incorrect	0back	Block2	0back/STIM_006.jpg
1170.024	0.41	correct	0back	Block2	0back/STIM_006.jpg
1174.299	0.488	correct	0back	Block2	0back/STIM_006.jpg
1177.281	0.632	incorrect	0back	Block2	0back/STIM_007.jpg
1180.858	0.62	incorrect	0back	Block2	0back/STIM_007.jpg
1184.997	0.371	incorrect	0back	Block2	0back/STIM_007.jpg
1188.58	0.547	correct	0back	Block2	0back/STIM_008.jpg
1191.983	0.515	correct	0back	Block2	0back/STIM_008.jpg
1196.266	0.341	correct	0back	Block2	0back/STIM_008.jpg
1199.05	0.386	correct	0back	Block2	0back/STIM_009.jpg
1202.265	0.667	correct	0back	Block2	0back/STIM_009.jpg
1206.758	0.51	incorrect	0back	Block2	0back/STIM_009.jpg
1211.106	0.344	incorrect	0back	Block2	0back/STIM_010.jpg
1213.773	0.609	correct	0back	Block2	0back/STIM_010.jpg
1217.894	0.552	correct	0back	Block2	0back/STIM_010.jpg
1221.358	0.595	correct	0back	Block2	0back/STIM_011.jpg
1225.913	0.37	incorrect	0back	Block2	0back/STIM_011.jpg
1229.75	0.343	correct	0back	Block2	0back/STIM_011.jpg
1234.006	0.494	correct	0back	Block2	0back/STIM_012.jpg
1237.667	0.38	correct	0back	Block2	0back/STIM_012.jpg
1242.007	0.373	correct	0back	Block2	0back/STIM_012.jpg
1245.761	0.556	correct	0back	Block2	0back/STIM_013.jpg
1249.811	0.648	correct	0back	Block2	0back/STIM_013.jpg
1253.54	0.589	correct	0back	Block2	0back/STIM_013.jpg
1257.356	0.343	correct	0back	Block2	0back/STIM_014.jpg
1261.348	0.441	correct	0back	Block2	0back/STIM_014.jpg
1264.843	0.362	correct	0back	Block2	0back/STIM_014.jpg
1267.431	0.527	incorrect	0back	Block2	0back/STIM_015.jpg
1270.843	0.592	incorrect	0back	Block2	0back/STIM_015.jpg
1274.795	0.638	correct	0back	Block2	0back/STIM_015.jpg
1278.495	0.607	correct	0back	Block2	0back/STIM_016.jpg
1281.692	0.473	correct	0back	Block2	0back/STIM_016.jpg
1285.44	0.655	incorrect	0back	Block2	0back/STIM_016.jpg
1288.463	0.559	correct	0back	Block2	0back/STIM_017.jpg
1291.026	0.348	incorrect	0back	Block2	0back/STIM_017.jpg
1294.575	0.426	correct	0back	Block2	0back/STIM_017.jpg
1297.833	0.5	correct	0back	Block2	0back/STIM_018.jpg
1300.515	0.385	incorrect	0back	Block2	0back/STIM_018.jpg
1303.489	0.461	incorrect	0back	Block2	0back/STIM_018.jpg
1306.596	0.535	incorrect	0back	Block2	0back/STIM_019.jpg
1309.291	0.432	incorrect	0back	Block2	0back/STIM_019.jpg
1312.921	0.535	incorrect	0back	Block2	0back/STIM_019.jpg
1316.741	0.644	correct	2back	Block3	2back/STIM_000.jpg
1320.343	0.586	correct	2back	Block3	2back/STIM_000.jpg
1324.558	0.709	correct	2back	Block3	2back/STIM_000.jpg
1328.578	0.424	incorrect	2back	Block3	2back/STIM_001.jpg
1332.378	0.701	correct	2back	Block3	2back/STIM_001.jpg
1336.044	0.376	correct	2back	Block3	2back/STIM_001.jpg
1340.283	0.587	incorrect	2back	Block3	2back/STIM_002.jpg
1342.91	0.711	correct	2back	Block3	2back/STIM_002.jpg
1346.679	0.527	correct	2back	Block3	2back/STIM_002.jpg
1350.924	0.423	correct	2back	Block3	2back/STIM_003.jpg
1354.962	0.767	correct	2back	Block3	2back/STIM_003.jpg
1359.229	0.577	incorrect	2back	Block3	2back/STIM_003.jpg
1363.746	0.462	correct	2back	Block3	2back/STIM_004.jpg
1367.109	0.486	incorrect	2back	Block3	2back/STIM_004.jpg
1371.046	0.454	correct	2back	Block3	2back/STIM_004.jpg
1374.661	0.685	incorrect	2back	Block3	2back/STIM_005.jpg
1377.402	0.465	correct	2back	Block3	2back/STIM_005.jpg
1380.412	0.386	incorrect	2back	Block3	2back/STIM_005.jpg
1383.739	0.658	correct	2back	Block3	2back/STIM_006.jpg
1387.362	0.385	correct	2back	Block3	2back/STIM_006.jpg
1389.812	0.513	correct	2back	Block3	2back/STIM_006.jpg
1393.421	0.589	incorrect	2back	Block3	2back/STIM_007.jpg
1396.852	0.636	correct	2back	Block3	2back/STIM_007.jpg
1400.887	0.398	correct	2back	Block3	2back/STIM_007.jpg
1405.236	0.711	correct	2back	Block3	2back/STIM_008.jpg
1409.847	0.457	correct	2back	Block3	2back/STIM_008.jpg
1413.232	0.78	correct	2back	Block3	2back/STIM_008.jpg
1417.402	0.737	incorrect	2back	Block3	2back/STIM_009.jpg
1421.362	0.376	incorrect	2back	Block3	2back/STIM_009.jpg
1424.556	0.68	correct	2back	Block3	2back/STIM_009.jpg
1429.114	0.812	correct	2back	Block3	2back/STIM_010.jpg
1432.784	0.464	correct	2back	Block3	2back/STIM_010.jpg
1435.87	0.74	correct	2back	Block3	2back/STIM_010.jpg
1439.44	0.439	correct	2back	Block3	2back/STIM_011.jpg
1443.668	0.711	correct	2back	Block3	2back/STIM_011.jpg
1448.21	0.476	correct	2back	Block3	2back/STIM_011.jpg
1452.218	0.781	correct	2back	Block3	2back/STIM_012.jpg
1456.279	0.455	correct	2back	Block3	2back/STIM_012.jpg
1458.807	0.693	correct	2back	Block3	2back/STIM_012.jpg
1463.109	0.453	incorrect	2back	Block3	2back/STIM_013.jpg
1466.897	0.749	correct	2back	Block3	2back/STIM_013.jpg
1471.373	0.69	correct	2back	Block3	2back/STIM_013.jpg
1475.874	0.659	incorrect	2back	Block3	2back/STIM_014.jpg
1479.61	0.686	incorrect	2back	Block3	2back/STIM_014.jpg
1483.77	0.564	incorrect	2back	Block3	2back/STIM_014.jpg
1486.708	0.642	correct	2back	Block3	2back/STIM_015.jpg
1490.781	0.766	correct	2back	Block3	2back/STIM_015.jpg
1494.743	0.377	correct	2back	Block3	2back/STIM_015.jpg
1498.879	0.596	correct	2back	Block3	2back/STIM_016.jpg
1501.838	0.468	correct	2back	Block3	2back/STIM_016.jpg
1506.178	0.378	incorrect	2back	Block3	2back/STIM_016.jpg
1508.755	0.408	correct	2back	Block3	2back/STIM_017.jpg
1511.627	0.382	incorrect	2back	Block3	2back/STIM_017.jpg
1515.356	0.485	correct	2back	Block3	2back/STIM_017.jpg
1519.77	0.624	incorrect	2back	Block3	2back/STIM_018.jpg
1523.809	0.413	correct	2back	Block3	2back/STIM_018.jpg
1527.087	0.769	correct	2back	Block3	2back/STIM_018.jpg
1530.74	0.576	incorrect	2back	Block3	2back/STIM_019.jpg
1535.282	0.495	correct	2back	Block3	2back/STIM_019.jpg
1538.92	0.48	correct	2back	Block3	2back/STIM_019.jpg
1542.341	0.784	correct	2back	Block3	2back/STIM_020.jpg
1546.261	0.505	incorrect	2back	Block3	2back/STIM_020.jpg
1549.89	0.488	correct	2back	Block3	2back/STIM_020.jpg
1553.57	0.411	correct	2back	Block3	2back/STIM_021.jpg
1556.767	0.721	correct	2back	Block3	2back/STIM_021.jpg
1559.955	0.45	incorrect	2back	Block3	2back/STIM_021.jpg
1562.919	0.399	incorrect	2back	Block3	2back/STIM_022.jpg
1565.345	0.481	correct	2back	Block3	2back/STIM_022.jpg
1569.473	0.619	correct	2back	Block3	2back/STIM_022.jpg
1574.04	0.709	incorrect	2back	Block3	2back/STIM_023.jpg
1577.302	0.746	correct	2back	Block3	2back/STIM_023.jpg
1580.538	0.725	correct	2back	Block3	2back/STIM_023.jpg
1585.192	0.791	correct	2back	Block3	2back/STIM_024.jpg
1589.458	0.805	correct	2back	Block3	2back/STIM_024.jpg
1593.657	0.694	incorrect	2back	Block3	2back/STIM_024.jpg
1597.265	0.83	incorrect	2back	Block3	2back/STIM_025.jpg
1601.535	0.427	correct	2back	Block3	2back/STIM_025.jpg
1605.55	0.516	correct	2back	Block3	2back/STIM_025.jpg
1609.189	0.455	correct	2back	Block3	2back/STIM_026.jpg
1612.217	0.501	correct	2back	Block3	2back/STIM_026.jpg
1614.779	0.691	incorrect	2back	Block3	2back/STIM_026.jpg
1617.529	0.75	incorrect	2back	Block3	2back/STIM_027.jpg
1621.142	0.709	incorrect	2back	Block3	2back/STIM_027.jpg
1625.376	0.642	correct	2back	Block3	2back/STIM_027.jpg
1629.701	0.525	correct	2back	Block3	2back/STIM_028.jpg
1633.126	0.604	incorrect	2back	Block3	2back/STIM_028.jpg
1637.727	0.759	incorrect	2back	Block3	2back/STIM_028.jpg
1640.616	0.809	correct	2back	Block3	2back/STIM_029.jpg
1645.229	0.68	correct	2back	Block3	2back/STIM_029.jpg
1649.441	0.629	correct	2back	Block3	2back/STIM_029.jpg
1652.885	0.815	correct	2back	Block3	2back/STIM_030.jpg
1656.314	0.607	correct	2back	Block3	2back/STIM_030.jpg
1659.73	0.658	correct	2back	Block3	2back/STIM_030.jpg
1664.011	0.536	correct	2back	Block3	2back/STIM_031.jpg
1668.36	0.502	correct	2back	Block3	2back/STIM_031.jpg
1671.231	0.615	correct	2back	Block3	2back/STIM_031.jpg
1675.245	0.514	correct	2back	Block3	2back/STIM_032.jpg
1678.286	0.589	correct	2back	Block3	2back/STIM_032.jpg
1680.927	0.363	correct	2back	Block3	2back/STIM_032.jpg
1684.009	0.745	correct	2back	Block3	2back/STIM_033.jpg
1687.917	0.812	correct	2back	Block3	2back/STIM_033.jpg
1690.764	0.799	correct	2back	Block3	2back/STIM_033.jpg
1693.658	0.515	correct	2back	Block3	2back/STIM_034.jpg
1697.878	0.783	correct	2back	Block3	2back/STIM_034.jpg
1700.969	0.783	incorrect	2back	Block3	2back/STIM_034.jpg
1704.044	0.593	correct	2back	Block3	2back/STIM_035.jpg
1707.474	0.814	correct	2back	Block3	2back/STIM_035.jpg
1711.172	0.392	correct	2back	Block3	2back/STIM_035.jpg
1713.671	0.471	correct	2back	Block3	2back/STIM_036.jpg
1718.085	0.591	correct	2back	Block3	2back/STIM_036.jpg
1721.04	0.366	correct	2back	Block3	2back/STIM_036.jpg
1724.082	0.68	incorrect	2back	Block3	2back/STIM_037.jpg
1727.018	0.725	correct	2back	Block3	2back/STIM_037.jpg
1731.362	0.577	correct	2back	Block3	2back/STIM_037.jpg
1734.824	0.696	correct	2back	Block3	2back/STIM_038.jpg
1738.62	0.577	correct	2back	Block3	2back/STIM_038.jpg
1741.445	0.607	incorrect	2back	Block3	2back/STIM_038.jpg
1744.866	0.719	incorrect	2back	Block3	2back/STIM_039.jpg
1748.65	0.511	incorrect	2back	Block3	2back/STIM_039.jpg
1751.519	0.655	correct	2back	Block3	2back/STIM_039.jpg
1754.579	0.675	incorrect	0back	Block3	0back/STIM_000.jpg
1759.077	0.449	incorrect	0back	Block3	0back/STIM_000.jpg
1763.458	0.562	correct	0back	Block3	0back/STIM_000.jpg
1766.355	0.608	correct	0back	Block3	0back/STIM_001.jpg
1770.873	0.456	incorrect	0back	Block3	0back/STIM_001.jpg
1774.95	0.39	correct	0back	Block3	0back/STIM_001.jpg
1779.051	0.411	incorrect	0back	Block3	0back/STIM_002.jpg
1783.272	0.458	correct	0back	Block3	0back/STIM_002.jpg
1785.93	0.436	correct	0back	Block3	0back/STIM_002.jpg
1789.62	0.612	correct	0back	Block3	0back/STIM_003.jpg
1793.336	0.576	incorrect	0back	Block3	0back/STIM_003.jpg
1797.112	0.618	incorrect	0back	Block3	0back/STIM_003.jpg
1799.84	0.435	correct	0back	Block3	0back/STIM_004.jpg
1803.088	0.37	incorrect	0back	Block3	0back/STIM_004.jpg
1806.349	0.403	correct	0back	Block3	0back/STIM_004.jpg
1808.766	0.578	correct	0back	Block3	0back/STIM_005.jpg
1812.678	0.447	incorrect	0back	Block3	0back/STIM_005.jpg
1816.1	0.62	correct	0back	Block3	0back/STIM_005.jpg
1819.719	0.551	correct	0back	Block3	0back/STIM_006.jpg
1822.866	0.607	incorrect	0back	Block3	0back/STIM_006.jpg
1826.833	0.404	correct	0back	Block3	0back/STIM_006.jpg
1830.035	0.594	incorrect	0back	Block3	0back/STIM_007.jpg
1834.298	0.574	correct	0back	Block3	0back/STIM_007.jpg
1838.84	0.57	incorrect	0back	Block3	0back/STIM_007.jpg
1842.949	0.484	incorrect	0back	Block3	0back/STIM_008.jpg
1845.622	0.395	incorrect	0back	Block3	0back/STIM_008.jpg
1848.211	0.523	incorrect	0back	Block3	0back/STIM_008.jpg
1851.729	0.657	correct	0back	Block3	0back/STIM_009.jpg
1854.513	0.539	correct	0back	Block3	0back/STIM_009.jpg
1858.026	0.432	incorrect	0back	Block3	0back/STIM_009.jpg
1860.86	0.341	correct	0back	Block3	0back/STIM_010.jpg
1864.053	0.517	incorrect	0back	Block3	0back/STIM_010.jpg
1867.347	0.615	correct	0back	Block3	0back/STIM_010.jpg
1871.828	0.431	incorrect	0back	Block3	0back/STIM_011.jpg
1874.83	0.502	correct	0back	Block3	0back/STIM_011.jpg
1879.204	0.658	correct	0back	Block3	0back/STIM_011.jpg
1883.106	0.58	correct	0back	Block3	0back/STIM_012.jpg
1885.702	0.423	incorrect	0back	Block3	0back/STIM_012.jpg
1889.247	0.585	correct	0back	Block3	0back/STIM_012.jpg
1893.779	0.666	correct	0back	Block3	0back/STIM_013.jpg
1898.222	0.567	correct	0back	Block3	0back/STIM_013.jpg
1902.011	0.422	correct	0back	Block3	0back/STIM_013.jpg
1905.386	0.656	correct	0back	Block3	0back/STIM_014.jpg
1909.286	0.442	correct	0back	Block3	0back/STIM_014.jpg
1912.936	0.417	correct	0back	Block3	0back/STIM_014.jpg
1917.021	0.343	correct	0back	Block3	0back/STIM_015.jpg
1919.45	0.672	correct	0back	Block3	0back/STIM_015.jpg
1923.913	0.624	correct	0back	Block3	0back/STIM_015.jpg
1928.369	0.539	incorrect	0back	Block3	0back/STIM_016.jpg
1931.746	0.488	correct	0back	Block3	0back/STIM_016.jpg
1935.261	0.511	incorrect	0back	Block3	0back/STIM_016.jpg
1939.104	0.674	correct	0back	Block3	0back/STIM_017.jpg
1943.292	0.671	incorrect	0back	Block3	0back/STIM_017.jpg
1947.682	0.625	incorrect	0back	Block3	0back/STIM_017.jpg
1952.284	0.597	correct	0back	Block3	0back/STIM_018.jpg
1955.211	0.355	incorrect	0back	Block3	0back/STIM_018.jpg
1958.315	0.357	correct	0back	Block3	0back/STIM_018.jpg
1960.76	0.435	correct	0back	Block3	0back/STIM_019.jpg
1964.652	0.395	correct	0back	Block3	0back/STIM_019.jpg
1967.925	0.431	correct	0back	Block3	0back/STIM_019.jpg
1970.794	0.579	incorrect	2back	Block4	2back/STIM_000.jpg
1974.013	0.672	correct	2back	Block4	2back/STIM_000.jpg
1977.746	0.752	incorrect	2back	Block4	2back/STIM_000.jpg
1981.395	0.773	correct	2back	Block4	2back/STIM_001.jpg
1985.844	0.612	incorrect	2back	Block4	2back/STIM_001.jpg
1990.355	0.565	correct	2back	Block4	2back/STIM_001.jpg
1994.131	0.441	correct	2back	Block4	2back/STIM_002.jpg
1997.273	0.657	incorrect	2back	Block4	2back/STIM_002.jpg
2001.549	0.477	correct	2back	Block4	2back/STIM_002.jpg
2005.611	0.444	correct	2back	Block4	2back/STIM_003.jpg
2009.378	0.463	correct	2back	Block4	2back/STIM_003.jpg
2013.155	0.456	correct	2back	Block4	2back/STIM_003.jpg
2015.738	0.423	correct	2back	Block4	2back/STIM_004.jpg
2018.529	0.607	incorrect	2back	Block4	2back/STIM_004.jpg
2023.135	0.51	correct	2back	Block4	2back/STIM_004.jpg
2026.281	0.827	incorrect	2back	Block4	2back/STIM_005.jpg
2030.003	0.816	correct	2back	Block4	2back/STIM_005.jpg
2033.508	0.759	correct	2back	Block4	2back/STIM_005.jpg
2036.716	0.627	incorrect	2back	Block4	2back/STIM_006.jpg
2039.45	0.682	correct	2back	Block4	2back/STIM_006.jpg
2042.144	0.468	correct	2back	Block4	2back/STIM_006.jpg
2045.263	0.531	incorrect	2back	Block4	2back/STIM_007.jpg
2048.287	0.362	correct	2back	Block4	2back/STIM_007.jpg
2051.998	0.46	incorrect	2back	Block4	2back/STIM_007.jpg
2056.237	0.53	correct	2back	Block4	2back/STIM_008.jpg
2059.267	0.773	correct	2back	Block4	2back/STIM_008.jpg
2062.275	0.714	correct	2back	Block4	2back/STIM_008.jpg
2066.431	0.741	correct	2back	Block4	2back/STIM_009.jpg
2070.375	0.449	correct	2back	Block4	2back/STIM_009.jpg
2074.345	0.533	correct	2back	Block4	2back/STIM_009.jpg
2078.377	0.776	correct	2back	Block4	2back/STIM_010.jpg
2081.608	0.439	correct	2back	Block4	2back/STIM_010.jpg
2084.367	0.668	correct	2back	Block4	2back/STIM_010.jpg
2087.287	0.512	correct	2back	Block4	2back/STIM_011.jpg
2089.926	0.554	incorrect	2back	Block4	2back/STIM_011.jpg
2093.13	0.535	correct	2back	Block4	2back/STIM_011.jpg
2095.725	0.439	correct	2back	Block4	2back/STIM_012.jpg
2098.647	0.621	correct	2back	Block4	2back/STIM_012.jpg
2102.225	0.74	correct	2back	Block4	2back/STIM_012.jpg
2105.028	0.737	correct	2back	Block4	2back/STIM_013.jpg
2109.032	0.608	incorrect	2back	Block4	2back/STIM_013.jpg
2113.375	0.375	correct	2back	Block4	2back/STIM_013.jpg
2116.897	0.642	incorrect	2back	Block4	2back/STIM_014.jpg
2120.817	0.362	correct	2back	Block4	2back/STIM_014.jpg
2123.299	0.566	correct	2back	Block4	2back/STIM_014.jpg
2126.471	0.817	correct	2back	Block4	2back/STIM_015.jpg
2129.894	0.455	correct	2back	Block4	2back/STIM_015.jpg
2133.404	0.614	incorrect	2back	Block4	2back/STIM_015.jpg
2136.63	0.492	correct	2back	Block4	2back/STIM_016.jpg
2139.399	0.576	correct	2back	Block4	2back/STIM_016.jpg
2143.601	0.732	incorrect	2back	Block4	2back/STIM_016.jpg
2146.628	0.405	correct	2back	Block4	2back/STIM_017.jpg
2150.264	0.409	incorrect	2back	Block4	2back/STIM_017.jpg
2153.629	0.424	incorrect	2back	Block4	2back/STIM_017.jpg
2156.757	0.646	correct	2back	Block4	2back/STIM_018.jpg
2160.332	0.382	correct	2back	Block4	2back/STIM_018.jpg
2163.676	0.405	incorrect	2back	Block4	2back/STIM_018.jpg
2166.25	0.61	incorrect	2back	Block4	2back/STIM_019.jpg
2169.297	0.367	incorrect	2back	Block4	2back/STIM_019.jpg
2173.152	0.434	incorrect	2back	Block4	2back/STIM_019.jpg
2175.962	0.612	correct	2back	Block4	2back/STIM_020.jpg
2178.815	0.643	correct	2back	Block4	2back/STIM_020.jpg
2182.675	0.804	correct	2back	Block4	2back/STIM_020.jpg
2185.79	0.551	incorrect	2back	Block4	2back/STIM_021.jpg
2189.574	0.547	correct	2back	Block4	2back/STIM_021.jpg
2193.123	0.498	correct	2back	Block4	2back/STIM_021.jpg
2196.054	0.513	incorrect	2back	Block4	2back/STIM_022.jpg
2200.421	0.434	correct	2back	Block4	2back/STIM_022.jpg
2202.869	0.65	incorrect	2back	Block4	2back/STIM_022.jpg
2205.751	0.721	correct	2back	Block4	2back/STIM_023.jpg
2209.19	0.795	correct	2back	Block4	2back/STIM_023.jpg
2213.878	0.415	correct	2back	Block4	2back/STIM_023.jpg
2218.109	0.546	correct	2back	Block4	2back/STIM_024.jpg
2221.497	0.788	correct	2back	Block4	2back/STIM_024.jpg
2224.9	0.739	correct	2back	Block4	2back/STIM_024.jpg
2228.533	0.779	incorrect	2back	Block4	2back/STIM_025.jpg
2232.959	0.371	correct	2back	Block4	2back/STIM_025.jpg
2235.616	0.702	correct	2back	Block4	2back/STIM_025.jpg
2239.196	0.673	incorrect	2back	Block4	2back/STIM_026.jpg
2243.435	0.537	incorrect	2back	Block4	2back/STIM_026.jpg
2247.928	0.464	incorrect	2back	Block4	2back/STIM_026.jpg
2252.205	0.72	correct	2back	Block4	2back/STIM_027.jpg
2256.692	0.488	incorrect	2back	Block4	2back/STIM_027.jpg
2259.42	0.77	correct	2back	Block4	2back/STIM_027.jpg
2263.487	0.465	correct	2back	Block4	2back/STIM_028.jpg
2267.021	0.629	correct	2back	Block4	2back/STIM_028.jpg
2269.889	0.368	correct	2back	Block4	2back/STIM_028.jpg
2272.589	0.439	correct	2back	Block4	2back/STIM_029.jpg
2276.441	0.742	incorrect	2back	Block4	2back/STIM_029.jpg
2280.864	0.721	correct	2back	Block4	2back/STIM_029.jpg
2283.59	0.452	correct	2back	Block4	2back/STIM_030.jpg
2287.793	0.653	correct	2back	Block4	2back/STIM_030.jpg
2292.165	0.581	incorrect	2back	Block4	2back/STIM_030.jpg
2295.581	0.374	correct	2back	Block4	2back/STIM_031.jpg
2299.173	0.543	correct	2back	Block4	2back/STIM_031.jpg
2302.567	0.826	correct	2back	Block4	2back/STIM_031.jpg
2306.128	0.413	correct	2back	Block4	2back/STIM_032.jpg
2308.921	0.592	correct	2back	Block4	2back/STIM_032.jpg
2312.177	0.711	incorrect	2back	Block4	2back/STIM_032.jpg
2315.692	0.766	correct	2back	Block4	2back/STIM_033.jpg
2318.529	0.531	correct	2back	Block4	2back/STIM_033.jpg
2321.641	0.776	correct	2back	Block4	2back/STIM_033.jpg
2325.892	0.726	correct	2back	Block4	2back/STIM_034.jpg
2329.893	0.721	correct	2back	Block4	2back/STIM_034.jpg
2334.033	0.644	correct	2back	Block4	2back/STIM_034.jpg
2337.121	0.559	correct	2back	Block4	2back/STIM_035.jpg
2340.175	0.53	correct	2back	Block4	2back/STIM_035.jpg
2343.645	0.59	correct	2back	Block4	2back/STIM_035.jpg
2346.66	0.422	correct	2back	Block4	2back/STIM_036.jpg
2350.379	0.45	correct	2back	Block4	2back/STIM_036.jpg
2353.956	0.758	correct	2back	Block4	2back/STIM_036.jpg
2357.951	0.412	correct	2back	Block4	2back/STIM_037.jpg
2362.269	0.477	correct	2back	Block4	2back/STIM_037.jpg
2366.288	0.785	incorrect	2back	Block4	2back/STIM_037.jpg
2371.05	0.522	correct	2back	Block4	2back/STIM_038.jpg
2373.775	0.393	correct	2back	Block4	2back/STIM_038.jpg
2376.489	0.761	correct	2back	Block4	2back/STIM_038.jpg
2381.104	0.582	correct	2back	Block4	2back/STIM_039.jpg
2384.686	0.538	correct	2back	Block4	2back/STIM_039.jpg
2388.327	0.708	correct	2back	Block4	2back/STIM_039.jpg
2392.766	0.354	correct	0back	Block4	0back/STIM_000.jpg
2395.411	0.525	correct	0back	Block4	0back/STIM_000.jpg
2399.641	0.499	correct	0back	Block4	0back/STIM_000.jpg
2402.518	0.528	correct	0back	Block4	0back/STIM_001.jpg
2406.565	0.563	incorrect	0back	Block4	0back/STIM_001.jpg
2410.859	0.553	correct	0back	Block4	0back/STIM_001.jpg
2413.851	0.442	correct	0back	Block4	0back/STIM_002.jpg
2417.216	0.345	incorrect	0back	Block4	0back/STIM_002.jpg
2420.014	0.624	incorrect	0back	Block4	0back/STIM_002.jpg
2423.907	0.457	correct	0back	Block4	0back/STIM_003.jpg
2428.325	0.637	correct	0back	Block4	0back/STIM_003.jpg
2432.078	0.483	correct	0back	Block4	0back/STIM_003.jpg
2436.14	0.563	correct	0back	Block4	0back/STIM_004.jpg
2440.383	0.435	incorrect	0back	Block4	0back/STIM_004.jpg
2444.808	0.679	correct	0back	Block4	0back/STIM_004.jpg
2448.463	0.528	incorrect	0back	Block4	0back/STIM_005.jpg
2452.841	0.405	correct	0back	Block4	0back/STIM_005.jpg
2455.404	0.636	incorrect	0back	Block4	0back/STIM_005.jpg
2458.119	0.543	incorrect	0back	Block4	0back/STIM_006.jpg
2461.22	0.343	incorrect	0back	Block4	0back/STIM_006.jpg
2464.899	0.559	correct	0back	Block4	0back/STIM_006.jpg
2467.621	0.392	correct	0back	Block4	0back/STIM_007.jpg
2470.103	0.481	correct	0back	Block4	0back/STIM_007.jpg
2473.183	0.602	correct	0back	Block4	0back/STIM_007.jpg
2475.948	0.536	incorrect	0back	Block4	0back/STIM_008.jpg
2478.636	0.667	incorrect	0back	Block4	0back/STIM_008.jpg
2482.712	0.491	incorrect	0back	Block4	0back/STIM_008.jpg
2486.932	0.668	correct	0back	Block4	0back/STIM_009.jpg
2491.337	0.512	correct	0back	Block4	0back/STIM_009.jpg
2493.854	0.522	incorrect	0back	Block4	0back/STIM_009.jpg
2497.402	0.42	incorrect	0back	Block4	0back/STIM_010.jpg
2500.488	0.507	incorrect	0back	Block4	0back/STIM_010.jpg
2503.436	0.487	correct	0back	Block4	0back/STIM_010.jpg
2506.223	0.396	incorrect	0back	Block4	0back/STIM_011.jpg
2508.924	0.513	correct	0back	Block4	0back/STIM_011.jpg
2513.164	0.601	correct	0back	Block4	0back/STIM_011.jpg
2517.445	0.488	correct	0back	Block4	0back/STIM_012.jpg
2520.461	0.568	correct	0back	Block4	0back/STIM_012.jpg
2523.314	0.595	incorrect	0back	Block4	0back/STIM_012.jpg
2526.539	0.564	correct	0back	Block4	0back/STIM_013.jpg
2529.18	0.42	correct	0back	Block4	0back/STIM_013.jpg
2533.09	0.532	incorrect	0back	Block4	0back/STIM_013.jpg
2535.759	0.53	incorrect	0back	Block4	0back/STIM_014.jpg
2538.513	0.488	correct	0back	Block4	0back/STIM_014.jpg
2541.328	0.509	incorrect	0back	Block4	0back/STIM_014.jpg
2545.793	0.544	correct	0back	Block4	0back/STIM_015.jpg
2548.805	0.581	correct	0back	Block4	0back/STIM_015.jpg
2551.516	0.479	correct	0back	Block4	0back/STIM_015.jpg
2554.358	0.634	correct	0back	Block4	0back/STIM_016.jpg
2558.664	0.397	correct	0back	Block4	0back/STIM_016.jpg
2562.324	0.403	correct	0back	Block4	0back/STIM_016.jpg
2565.301	0.61	incorrect	0back	Block4	0back/STIM_017.jpg
2569.152	0.646	correct	0back	Block4	0back/STIM_017.jpg
2573.298	0.665	correct	0back	Block4	0back/STIM_017.jpg
2577.145	0.614	correct	0back	Block4	0back/STIM_018.jpg
2580.176	0.385	incorrect	0back	Block4	0back/STIM_018.jpg
2582.619	0.35	incorrect	0back	Block4	0back/STIM_018.jpg
2585.99	0.474	incorrect	0back	Block4	0back/STIM_019.jpg
2590.286	0.524	correct	0back	Block4	0back/STIM_019.jpg
2594.7	0.506	correct	0back	Block4	0back/STIM_019.jpg
