onset	duration	accuracy_binary	trial_type	learning_stage	stimulus
0.0	0.862	1	study	Phase1	study/STIM_000.jpg
3.124	0.764	0	study	Phase1	study/STIM_000.jpg
7.134	0.754	0	study	Phase1	study/STIM_000.jpg
11.318	1.552	1	study	Phase1	study/STIM_001.jpg
15.52	1.49	1	study	Phase1	study/STIM_001.jpg
19.203	0.799	1	study	Phase1	study/STIM_001.jpg
22.866	1.666	1	study	Phase1	study/STIM_002.jpg
27.256	1.09	1	study	Phase1	study/STIM_002.jpg
30.711	0.818	0	study	Phase1	study/STIM_002.jpg
34.597	1.007	1	study	Phase1	study/STIM_003.jpg
38.414	1.279	1	study	Phase1	study/STIM_003.jpg
43.656	0.815	1	study	Phase1	study/STIM_003.jpg
48.013	1.58	1	study	Phase1	study/STIM_004.jpg
53.219	1.142	1	study	Phase1	study/STIM_004.jpg
57.998	1.134	1	study	Phase1	study/STIM_004.jpg
61.574	0.87	0	study	Phase1	study/STIM_005.jpg
65.312	0.88	1	study	Phase1	study/STIM_005.jpg
70.031	1.008	1	study	Phase1	study/STIM_005.jpg
73.291	1.538	1	study	Phase1	study/STIM_006.jpg
77.898	1.208	1	study	Phase1	study/STIM_006.jpg
82.003	0.855	1	study	Phase1	study/STIM_006.jpg
85.495	1.088	1	study	Phase1	study/STIM_007.jpg
89.973	1.298	1	study	Phase1	study/STIM_007.jpg
94.667	1.591	1	study	Phase1	study/STIM_007.jpg
99.174	1.417	1	study	Phase1	study/STIM_008.jpg
103.145	0.973	1	study	Phase1	study/STIM_008.jpg
106.881	0.75	1	study	Phase1	study/STIM_008.jpg
110.018	0.82	1	study	Phase1	study/STIM_009.jpg
113.371	0.738	0	study	Phase1	study/STIM_009.jpg
117.702	1.557	1	study	Phase1	study/STIM_009.jpg
122.326	0.954	1	study	Phase1	study/STIM_010.jpg
125.596	1.378	1	study	Phase1	study/STIM_010.jpg
130.139	0.864	1	study	Phase1	study/STIM_010.jpg
134.063	1.55	1	study	Phase1	study/STIM_011.jpg
138.32	0.733	1	study	Phase1	study/STIM_011.jpg
141.442	1.124	1	study	Phase1	study/STIM_011.jpg
144.83	1.19	1	study	Phase1	study/STIM_012.jpg
148.913	0.81	1	study	Phase1	study/STIM_012.jpg
153.67	0.72	1	study	Phase1	study/STIM_012.jpg
158.332	1.321	1	study	Phase1	study/STIM_013.jpg
162.367	1.276	1	study	Phase1	study/STIM_013.jpg
166.841	0.945	1	study	Phase1	study/STIM_013.jpg
169.929	1.15	0	study	Phase1	study/STIM_014.jpg
173.587	1.178	1	study	Phase1	study/STIM_014.jpg
177.811	1.181	1	study	Phase1	study/STIM_014.jpg
181.174	1.493	1	study	Phase1	study/STIM_015.jpg
185.395	1.535	1	study	Phase1	study/STIM_015.jpg
189.468	1.384	1	study	Phase1	study/STIM_015.jpg
194.676	1.523	1	study	Phase1	study/STIM_016.jpg
198.785	0.733	1	study	Phase1	study/STIM_016.jpg
202.668	0.874	1	study	Phase1	study/STIM_016.jpg
207.433	0.96	1	study	Phase1	study/STIM_017.jpg
212.31	1.066	1	study	Phase1	study/STIM_017.jpg
216.829	1.401	1	study	Phase1	study/STIM_017.jpg
221.589	1.541	1	study	Phase1	study/STIM_018.jpg
226.837	1.304	1	study	Phase1	study/STIM_018.jpg
230.536	1.46	1	study	Phase1	study/STIM_018.jpg
235.492	0.722	1	study	Phase1	study/STIM_019.jpg
239.727	1.051	1	study	Phase1	study/STIM_019.jpg
243.884	0.941	1	study	Phase1	study/STIM_019.jpg
247.221	1.051	1	study	Phase1	study/STIM_020.jpg
252.072	1.158	0	study	Phase1	study/STIM_020.jpg
256.474	1.159	1	study	Phase1	study/STIM_020.jpg
261.658	1.003	1	study	Phase1	study/STIM_021.jpg
265.495	0.814	1	study	Phase1	study/STIM_021.jpg
268.518	0.714	1	study	Phase1	study/STIM_021.jpg
271.541	0.746	0	study	Phase1	study/STIM_022.jpg
275.58	1.478	0	study	Phase1	study/STIM_022.jpg
279.375	0.996	0	study	Phase1	study/STIM_022.jpg
283.536	0.992	1	study	Phase1	study/STIM_023.jpg
288.321	1.241	1	study	Phase1	study/STIM_023.jpg
292.916	1.408	1	study	Phase1	study/STIM_023.jpg
296.671	1.674	1	study	Phase1	study/STIM_024.jpg
300.647	0.908	1	study	Phase1	study/STIM_024.jpg
305.464	1.123	1	study	Phase1	study/STIM_024.jpg
309.015	0.743	1	study	Phase1	study/STIM_025.jpg
313.755	1.375	1	study	Phase1	study/STIM_025.jpg
317.259	1.261	0	study	Phase1	study/STIM_025.jpg
322.609	1.168	1	study	Phase1	study/STIM_026.jpg
326.364	1.362	1	study	Phase1	study/STIM_026.jpg
331.267	1.235	1	study	Phase1	study/STIM_026.jpg
334.562	1.318	0	study	Phase1	study/STIM_027.jpg
339.565	1.408	1	study	Phase1	study/STIM_027.jpg
343.72	0.788	1	study	Phase1	study/STIM_027.jpg
347.963	0.806	1	study	Phase1	study/STIM_028.jpg
352.762	0.796	1	study	Phase1	study/STIM_028.jpg
357.1	1.0	0	study	Phase1	study/STIM_028.jpg
361.37	1.15	1	study	Phase1	study/STIM_029.jpg
366.279	1.657	1	study	Phase1	study/STIM_029.jpg
370.161	0.726	0	study	Phase1	study/STIM_029.jpg
374.882	0.597	0	test	Phase1	test/STIM_000.jpg
379.363	0.944	1	test	Phase1	test/STIM_000.jpg
383.101	0.654	1	test	Phase1	test/STIM_000.jpg
386.898	0.911	1	test	Phase1	test/STIM_001.jpg
391.135	1.022	1	test	Phase1	test/STIM_001.jpg
395.757	1.023	1	test	Phase1	test/STIM_001.jpg
400.114	1.094	1	test	Phase1	test/STIM_002.jpg
403.705	0.866	1	test	Phase1	test/STIM_002.jpg
406.838	0.964	1	test	Phase1	test/STIM_002.jpg
411.519	1.168	1	test	Phase1	test/STIM_003.jpg
414.858	1.032	1	test	Phase1	test/STIM_003.jpg
418.505	1.03	1	test	Phase1	test/STIM_003.jpg
423.395	0.588	1	test	Phase1	test/STIM_004.jpg
427.695	0.867	0	test	Phase1	test/STIM_004.jpg
431.996	1.235	1	test	Phase1	test/STIM_004.jpg
436.907	0.77	1	test	Phase1	test/STIM_005.jpg
440.771	1.048	1	test	Phase1	test/STIM_005.jpg
444.459	0.979	1	test	Phase1	test/STIM_005.jpg
449.291	0.717	1	test	Phase1	test/STIM_006.jpg
453.033	0.676	1	test	Phase1	test/STIM_006.jpg
455.862	1.033	0	test	Phase1	test/STIM_006.jpg
460.377	0.869	1	test	Phase1	test/STIM_007.jpg
464.036	1.254	1	test	Phase1	test/STIM_007.jpg
469.082	0.73	1	test	Phase1	test/STIM_007.jpg
472.506	0.617	0	test	Phase1	test/STIM_008.jpg
475.932	0.634	1	test	Phase1	test/STIM_008.jpg
479.44	0.76	1	test	Phase1	test/STIM_008.jpg
483.448	0.712	1	test	Phase1	test/STIM_009.jpg
486.172	1.154	1	test	Phase1	test/STIM_009.jpg
490.592	0.946	1	test	Phase1	test/STIM_009.jpg
494.819	0.892	1	test	Phase1	test/STIM_010.jpg
498.407	0.825	1	test	Phase1	test/STIM_010.jpg
501.409	1.142	1	test	Phase1	test/STIM_010.jpg
506.544	0.699	0	test	Phase1	test/STIM_011.jpg
509.65	1.135	1	test	Phase1	test/STIM_011.jpg
514.006	1.136	1	test	Phase1	test/STIM_011.jpg
518.605	0.598	1	test	Phase1	test/STIM_012.jpg
522.292	1.182	1	test	Phase1	test/STIM_012.jpg
525.757	1.018	1	test	Phase1	test/STIM_012.jpg
530.338	1.113	1	test	Phase1	test/STIM_013.jpg
534.699	1.008	1	test	Phase1	test/STIM_013.jpg
539.54	0.998	1	test	Phase1	test/STIM_013.jpg
542.919	0.987	0	test	Phase1	test/STIM_014.jpg
546.852	0.909	1	test	Phase1	test/STIM_014.jpg
551.429	0.636	1	test	Phase1	test/STIM_014.jpg
554.758	1.165	1	test	Phase1	test/STIM_015.jpg
558.798	1.119	1	test	Phase1	test/STIM_015.jpg
562.562	1.059	1	test	Phase1	test/STIM_015.jpg
566.801	0.804	1	test	Phase1	test/STIM_016.jpg
570.971	0.809	0	test	Phase1	test/STIM_016.jpg
574.439	0.718	1	test	Phase1	test/STIM_016.jpg
579.137	0.584	1	test	Phase1	test/STIM_017.jpg
581.778	0.938	1	test	Phase1	test/STIM_017.jpg
586.807	0.763	1	test	Phase1	test/STIM_017.jpg
590.16	0.648	1	test	Phase1	test/STIM_018.jpg
594.703	0.512	1	test	Phase1	test/STIM_018.jpg
598.624	0.893	1	test	Phase1	test/STIM_018.jpg
602.988	1.0	1	test	Phase1	test/STIM_019.jpg
606.354	0.951	1	test	Phase1	test/STIM_019.jpg
611.306	0.739	1	test	Phase1	test/STIM_019.jpg
614.985	0.745	1	test	Phase1	test/STIM_020.jpg
618.966	1.196	1	test	Phase1	test/STIM_020.jpg
623.267	0.891	1	test	Phase1	test/STIM_020.jpg
627.189	0.789	0	test	Phase1	test/STIM_021.jpg
631.173	0.641	1	test	Phase1	test/STIM_021.jpg
635.743	1.175	1	test	Phase1	test/STIM_021.jpg
639.443	1.128	1	test	Phase1	test/STIM_022.jpg
644.148	1.07	1	test	Phase1	test/STIM_022.jpg
647.388	0.851	0	test	Phase1	test/STIM_022.jpg
651.156	0.943	1	test	Phase1	test/STIM_023.jpg
655.614	0.87	1	test	Phase1	test/STIM_023.jpg
659.713	1.024	1	test	Phase1	test/STIM_023.jpg
663.897	1.191	0	test	Phase1	test/STIM_024.jpg
667.499	0.85	1	test	Phase1	test/STIM_024.jpg
670.708	0.735	1	test	Phase1	test/STIM_024.jpg
674.532	0.922	1	test	Phase1	test/STIM_025.jpg
679.397	0.658	1	test	Phase1	test/STIM_025.jpg
683.876	1.142	1	test	Phase1	test/STIM_025.jpg
688.754	0.712	1	test	Phase1	test/STIM_026.jpg
693.449	0.934	1	test	Phase1	test/STIM_026.jpg
696.9	0.918	1	test	Phase1	test/STIM_026.jpg
700.571	0.804	1	test	Phase1	test/STIM_027.jpg
704.866	1.09	0	test	Phase1	test/STIM_027.jpg
709.159	1.114	1	test	Phase1	test/STIM_027.jpg
712.899	0.876	1	test	Phase1	test/STIM_028.jpg
716.637	0.923	1	test	Phase1	test/STIM_028.jpg
719.744	0.539	0	test	Phase1	test/STIM_028.jpg
724.198	0.81	1	test	Phase1	test/STIM_029.jpg
727.112	0.859	1	test	Phase1	test/STIM_029.jpg
730.507	0.92	1	test	Phase1	test/STIM_029.jpg
734.629	1.292	1	study	Phase2	study/STIM_000.jpg
739.77	0.953	1	study	Phase2	study/STIM_000.jpg
743.944	0.597	1	study	Phase2	study/STIM_000.jpg
747.812	0.885	1	study	Phase2	study/STIM_001.jpg
751.237	0.811	1	study	Phase2	study/STIM_001.jpg
755.998	1.27	1	study	Phase2	study/STIM_001.jpg
761.274	0.999	1	study	Phase2	study/STIM_002.jpg
765.181	0.929	1	study	Phase2	study/STIM_002.jpg
769.656	1.274	1	study	Phase2	study/STIM_002.jpg
774.543	0.941	1	study	Phase2	study/STIM_003.jpg
777.547	1.008	1	study	Phase2	study/STIM_003.jpg
781.501	0.707	1	study	Phase2	study/STIM_003.jpg
785.623	1.438	1	study	Phase2	study/STIM_004.jpg
790.964	1.306	1	study	Phase2	study/STIM_004.jpg
795.584	0.994	1	study	Phase2	study/STIM_004.jpg
799.52	0.99	1	study	Phase2	study/STIM_005.jpg
804.434	0.808	1	study	Phase2	study/STIM_005.jpg
808.386	1.134	1	study	Phase2	study/STIM_005.jpg
812.265	0.779	1	study	Phase2	study/STIM_006.jpg
815.274	0.754	1	study	Phase2	study/STIM_006.jpg
819.12	1.12	1	study	Phase2	study/STIM_006.jpg
822.467	0.93	0	study	Phase2	study/STIM_007.jpg
825.433	1.03	1	study	Phase2	study/STIM_007.jpg
828.957	1.253	1	study	Phase2	study/STIM_007.jpg
832.422	1.422	1	study	Phase2	study/STIM_008.jpg
836.209	0.726	0	study	Phase2	study/STIM_008.jpg
839.946	0.905	1	study	Phase2	study/STIM_008.jpg
843.218	0.816	1	study	Phase2	study/STIM_009.jpg
847.09	0.958	1	study	Phase2	study/STIM_009.jpg
851.063	1.238	1	study	Phase2	study/STIM_009.jpg
855.731	0.844	1	study	Phase2	study/STIM_010.jpg
859.735	1.137	1	study	Phase2	study/STIM_010.jpg
862.95	0.662	1	study	Phase2	study/STIM_010.jpg
865.799	1.18	1	study	Phase2	study/STIM_011.jpg
870.94	1.179	1	study	Phase2	study/STIM_011.jpg
874.747	1.043	0	study	Phase2	study/STIM_011.jpg
878.752	0.917	1	study	Phase2	study/STIM_012.jpg
882.268	0.8	1	study	Phase2	study/STIM_012.jpg
885.828	0.74	0	study	Phase2	study/STIM_012.jpg
890.184	0.838	1	study	Phase2	study/STIM_013.jpg
894.477	0.883	1	study	Phase2	study/STIM_013.jpg
897.309	1.111	1	study	Phase2	study/STIM_013.jpg
901.588	1.094	1	study	Phase2	study/STIM_014.jpg
906.15	1.158	1	study	Phase2	study/STIM_014.jpg
910.97	1.067	1	study	Phase2	study/STIM_014.jpg
914.068	1.386	1	study	Phase2	study/STIM_015.jpg
917.568	1.241	1	study	Phase2	study/STIM_015.jpg
921.534	1.016	1	study	Phase2	study/STIM_015.jpg
925.183	1.315	1	study	Phase2	study/STIM_016.jpg
929.007	0.67	1	study	Phase2	study/STIM_016.jpg
933.381	1.16	1	study	Phase2	study/STIM_016.jpg
936.839	0.943	1	study	Phase2	study/STIM_017.jpg
941.285	0.709	1	study	Phase2	study/STIM_017.jpg
944.955	1.09	1	study	Phase2	study/STIM_017.jpg
949.498	0.603	1	study	Phase2	study/STIM_018.jpg
953.274	0.693	1	study	Phase2	study/STIM_018.jpg
957.5	0.954	1	study	Phase2	study/STIM_018.jpg
961.129	1.399	1	study	Phase2	study/STIM_019.jpg
964.806	1.118	1	study	Phase2	study/STIM_019.jpg
968.758	1.009	1	study	Phase2	study/STIM_019.jpg
973.201	0.68	1	study	Phase2	study/STIM_020.jpg
976.833	0.918	1	study	Phase2	study/STIM_020.jpg
980.092	0.859	1	study	Phase2	study/STIM_020.jpg
984.911	1.322	1	study	Phase2	study/STIM_021.jpg
988.934	0.987	1	study	Phase2	study/STIM_021.jpg
993.184	1.166	1	study	Phase2	study/STIM_021.jpg
997.784	0.816	1	study	Phase2	study/STIM_022.jpg
1001.456	0.72	1	study	Phase2	study/STIM_022.jpg
1004.707	1.103	1	study	Phase2	study/STIM_022.jpg
1008.655	1.051	1	study	Phase2	study/STIM_023.jpg
1013.592	0.844	0	study	Phase2	study/STIM_023.jpg
1017.28	0.854	1	study	Phase2	study/STIM_023.jpg
1022.156	0.769	1	study	Phase2	study/STIM_024.jpg
1026.447	0.723	1	study	Phase2	study/STIM_024.jpg
1030.029	1.205	1	study	Phase2	study/STIM_024.jpg
1035.103	1.332	1	study	Phase2	study/STIM_025.jpg
1039.015	0.856	1	study	Phase2	study/STIM_025.jpg
1042.254	0.953	1	study	Phase2	study/STIM_025.jpg
1045.389	1.068	0	study	Phase2	study/STIM_026.jpg
1049.524	1.029	1	study	Phase2	study/STIM_026.jpg
1053.016	0.802	0	study	Phase2	study/STIM_026.jpg
1056.905	0.942	1	study	Phase2	study/STIM_027.jpg
1060.428	1.104	1	study	Phase2	study/STIM_027.jpg
1064.914	1.085	1	study	Phase2	study/STIM_027.jpg
1069.396	0.618	1	study	Phase2	study/STIM_028.jpg
1072.482	1.047	1	study	Phase2	study/STIM_028.jpg
1075.587	0.656	1	study	Phase2	study/STIM_028.jpg
1079.384	1.29	1	study	Phase2	study/STIM_029.jpg
1084.576	0.907	1	study	Phase2	study/STIM_029.jpg
1087.679	1.152	1	study	Phase2	study/STIM_029.jpg
1092.732	1.036	1	test	Phase2	test/STIM_000.jpg
1096.536	0.644	1	test	Phase2	test/STIM_000.jpg
1100.281	1.154	1	test	Phase2	test/STIM_000.jpg
1104.402	0.602	1	test	Phase2	test/STIM_001.jpg
1108.919	1.038	1	test	Phase2	test/STIM_001.jpg
1112.025	1.156	1	test	Phase2	test/STIM_001.jpg
1115.455	0.896	0	test	Phase2	test/STIM_002.jpg
1119.264	0.81	0	test	Phase2	test/STIM_002.jpg
1124.002	0.684	1	test	Phase2	test/STIM_002.jpg
1128.345	1.143	1	test	Phase2	test/STIM_003.jpg
1132.63	0.952	1	test	Phase2	test/STIM_003.jpg
1137.254	1.036	1	test	Phase2	test/STIM_003.jpg
1142.117	0.748	1	test	Phase2	test/STIM_004.jpg
1145.267	0.707	1	test	Phase2	test/STIM_004.jpg
1149.259	0.704	1	test	Phase2	test/STIM_004.jpg
1152.701	0.967	1	test	Phase2	test/STIM_005.jpg
1155.999	0.774	1	test	Phase2	test/STIM_005.jpg
1159.163	1.243	1	test	Phase2	test/STIM_005.jpg
1163.592	1.151	1	test	Phase2	test/STIM_006.jpg
1167.685	0.95	1	test	Phase2	test/STIM_006.jpg
1172.049	1.02	1	test	Phase2	test/STIM_006.jpg
1176.614	0.78	1	test	Phase2	test/STIM_007.jpg
1180.215	1.098	1	test	Phase2	test/STIM_007.jpg
1183.672	0.66	1	test	Phase2	test/STIM_007.jpg
1187.63	0.759	1	test	Phase2	test/STIM_008.jpg
1191.686	0.906	1	test	Phase2	test/STIM_008.jpg
1195.467	0.704	1	test	Phase2	test/STIM_008.jpg
1198.201	0.74	1	test	Phase2	test/STIM_009.jpg
1201.425	0.8	0	test	Phase2	test/STIM_009.jpg
1205.043	0.886	1	test	Phase2	test/STIM_009.jpg
1208.455	0.743	1	test	Phase2	test/STIM_010.jpg
1212.7	0.8	0	test	Phase2	test/STIM_010.jpg
1216.764	1.067	1	test	Phase2	test/STIM_010.jpg
1221.866	0.72	1	test	Phase2	test/STIM_011.jpg
1224.806	0.936	1	test	Phase2	test/STIM_011.jpg
1229.222	0.81	1	test	Phase2	test/STIM_011.jpg
1233.012	1.034	1	test	Phase2	test/STIM_012.jpg
1237.318	1.03	1	test	Phase2	test/STIM_012.jpg
1242.218	1.127	1	test	Phase2	test/STIM_012.jpg
1246.071	0.832	1	test	Phase2	test/STIM_013.jpg
1249.556	1.174	0	test	Phase2	test/STIM_013.jpg
1254.005	0.584	1	test	Phase2	test/STIM_013.jpg
1258.311	1.195	1	test	Phase2	test/STIM_014.jpg
1262.548	0.51	1	test	Phase2	test/STIM_014.jpg
1266.036	0.987	1	test	Phase2	test/STIM_014.jpg
1270.744	0.58	0	test	Phase2	test/STIM_015.jpg
1273.89	1.091	1	test	Phase2	test/STIM_015.jpg
1278.126	0.995	1	test	Phase2	test/STIM_015.jpg
1282.196	0.86	0	test	Phase2	test/STIM_016.jpg
1287.16	1.079	1	test	Phase2	test/STIM_016.jpg
1290.576	1.018	1	test	Phase2	test/STIM_016.jpg
1294.707	0.834	1	test	Phase2	test/STIM_017.jpg
1299.285	0.886	1	test	Phase2	test/STIM_017.jpg
1303.392	1.26	1	test	Phase2	test/STIM_017.jpg
1306.733	0.836	1	test	Phase2	test/STIM_018.jpg
1311.352	1.03	1	test	Phase2	test/STIM_018.jpg
1314.93	0.641	1	test	Phase2	test/STIM_018.jpg
1318.725	0.906	1	test	Phase2	test/STIM_019.jpg
1322.846	0.645	1	test	Phase2	test/STIM_019.jpg
1326.723	0.666	1	test	Phase2	test/STIM_019.jpg
1331.022	0.626	1	test	Phase2	test/STIM_020.jpg
1334.164	0.758	1	test	Phase2	test/STIM_020.jpg
1337.718	0.513	1	test	Phase2	test/STIM_020.jpg
1341.576	0.815	0	test	Phase2	test/STIM_021.jpg
1345.478	0.641	1	test	Phase2	test/STIM_021.jpg
1349.588	0.742	1	test	Phase2	test/STIM_021.jpg
1353.519	1.03	1	test	Phase2	test/STIM_022.jpg
1357.955	0.92	1	test	Phase2	test/STIM_022.jpg
1362.153	0.902	1	test	Phase2	test/STIM_022.jpg
1365.866	0.798	1	test	Phase2	test/STIM_023.jpg
1370.525	0.866	1	test	Phase2	test/STIM_023.jpg
1374.981	0.638	1	test	Phase2	test/STIM_023.jpg
1378.697	0.924	1	test	Phase2	test/STIM_024.jpg
1383.349	0.647	1	test	Phase2	test/STIM_024.jpg
1386.537	1.037	1	test	Phase2	test/STIM_024.jpg
1389.944	0.748	1	test	Phase2	test/STIM_025.jpg
1393.496	0.572	1	test	Phase2	test/STIM_025.jpg
1397.452	0.898	1	test	Phase2	test/STIM_025.jpg
1401.05	0.798	1	test	Phase2	test/STIM_026.jpg
1405.057	1.168	1	test	Phase2	test/STIM_026.jpg
1409.78	0.909	1	test	Phase2	test/STIM_026.jpg
1413.408	0.652	1	test	Phase2	test/STIM_027.jpg
1416.169	1.068	1	test	Phase2	test/STIM_027.jpg
1420.086	0.713	1	test	Phase2	test/STIM_027.jpg
1423.523	1.08	0	test	Phase2	test/STIM_028.jpg
1428.117	0.922	1	test	Phase2	test/STIM_028.jpg
1432.909	1.03	1	test	Phase2	test/STIM_028.jpg
1436.904	0.785	1	test	Phase2	test/STIM_029.jpg
1440.642	0.993	1	test	Phase2	test/STIM_029.jpg
1445.005	1.072	1	test	Phase2	test/STIM_029.jpg
1448.941	0.961	1	study	Phase3	study/STIM_000.jpg
1453.469	0.692	1	study	Phase3	study/STIM_000.jpg
1456.333	1.122	1	study	Phase3	study/STIM_000.jpg
1460.878	0.836	1	study	Phase3	study/STIM_001.jpg
1465.239	1.095	1	study	Phase3	study/STIM_001.jpg
1469.012	1.187	1	study	Phase3	study/STIM_001.jpg
1472.767	0.812	1	study	Phase3	study/STIM_002.jpg
1476.504	0.655	1	study	Phase3	study/STIM_002.jpg
1479.748	0.645	1	study	Phase3	study/STIM_002.jpg
1483.369	0.909	1	study	Phase3	study/STIM_003.jpg
1487.145	0.66	1	study	Phase3	study/STIM_003.jpg
1491.061	0.746	1	study	Phase3	study/STIM_003.jpg
1495.27	1.008	1	study	Phase3	study/STIM_004.jpg
1498.958	1.118	1	study	Phase3	study/STIM_004.jpg
1502.533	0.753	1	study	Phase3	study/STIM_004.jpg
1505.783	0.637	1	study	Phase3	study/STIM_005.jpg
1509.338	0.756	1	study	Phase3	study/STIM_005.jpg
1514.059	1.213	1	study	Phase3	study/STIM_005.jpg
1517.98	1.064	0	study	Phase3	study/STIM_006.jpg
1521.942	0.919	1	study	Phase3	study/STIM_006.jpg
1525.634	0.859	1	study	Phase3	study/STIM_006.jpg
1529.042	0.938	1	study	Phase3	study/STIM_007.jpg
1533.133	0.518	1	study	Phase3	study/STIM_007.jpg
1537.479	0.742	1	study	Phase3	study/STIM_007.jpg
1540.743	1.18	1	study	Phase3	study/STIM_008.jpg
1544.732	1.102	1	study	Phase3	study/STIM_008.jpg
1549.403	0.639	1	study	Phase3	study/STIM_008.jpg
1553.992	1.017	1	study	Phase3	study/STIM_009.jpg
1558.173	0.534	0	study	Phase3	study/STIM_009.jpg
1561.666	0.724	1	study	Phase3	study/STIM_009.jpg
1564.795	0.605	1	study	Phase3	study/STIM_010.jpg
1569.117	1.057	1	study	Phase3	study/STIM_010.jpg
1573.484	1.123	1	study	Phase3	study/STIM_010.jpg
1578.569	0.796	1	study	Phase3	study/STIM_011.jpg
1582.878	0.877	1	study	Phase3	study/STIM_011.jpg
1587.151	0.518	1	study	Phase3	study/STIM_011.jpg
1590.79	0.626	1	study	Phase3	study/STIM_012.jpg
1593.533	0.653	1	study	Phase3	study/STIM_012.jpg
1597.435	0.787	1	study	Phase3	study/STIM_012.jpg
1600.515	0.816	1	study	Phase3	study/STIM_013.jpg
1604.071	0.518	1	study	Phase3	study/STIM_013.jpg
1608.293	0.694	1	study	Phase3	study/STIM_013.jpg
1612.578	1.07	1	study	Phase3	study/STIM_014.jpg
1616.965	1.16	1	study	Phase3	study/STIM_014.jpg
1620.516	0.884	1	study	Phase3	study/STIM_014.jpg
1625.149	0.829	1	study	Phase3	study/STIM_015.jpg
1629.886	0.772	1	study	Phase3	study/STIM_015.jpg
1633.654	1.192	1	study	Phase3	study/STIM_015.jpg
1637.931	0.543	1	study	Phase3	study/STIM_016.jpg
1640.989	1.006	1	study	Phase3	study/STIM_016.jpg
1644.12	0.979	1	study	Phase3	study/STIM_016.jpg
1648.963	1.102	1	study	Phase3	study/STIM_017.jpg
1652.755	0.766	1	study	Phase3	study/STIM_017.jpg
1657.468	0.723	1	study	Phase3	study/STIM_017.jpg
1661.28	1.118	1	study	Phase3	study/STIM_018.jpg
1665.035	0.646	1	study	Phase3	study/STIM_018.jpg
1668.102	0.938	1	study	Phase3	study/STIM_018.jpg
1671.904	0.491	1	study	Phase3	study/STIM_019.jpg
1675.173	1.148	1	study	Phase3	study/STIM_019.jpg
1678.816	1.241	1	study	Phase3	study/STIM_019.jpg
1682.504	0.649	1	study	Phase3	study/STIM_020.jpg
1686.269	0.55	1	study	Phase3	study/STIM_020.jpg
1689.979	0.889	1	study	Phase3	study/STIM_020.jpg
1693.466	0.79	1	study	Phase3	study/STIM_021.jpg
1698.16	0.915	1	study	Phase3	study/STIM_021.jpg
1702.936	0.976	1	study	Phase3	study/STIM_021.jpg
1706.426	0.662	1	study	Phase3	study/STIM_022.jpg
1709.958	0.877	1	study	Phase3	study/STIM_022.jpg
1714.792	0.83	1	study	Phase3	study/STIM_022.jpg
1719.109	0.716	1	study	Phase3	study/STIM_023.jpg
1721.875	0.808	1	study	Phase3	study/STIM_023.jpg
1724.805	0.994	1	study	Phase3	study/STIM_023.jpg
1729.133	0.64	1	study	Phase3	study/STIM_024.jpg
1732.116	0.756	1	study	Phase3	study/STIM_024.jpg
1735.591	1.088	1	study	Phase3	study/STIM_024.jpg
1738.923	0.927	1	study	Phase3	study/STIM_025.jpg
1742.38	0.956	1	study	Phase3	study/STIM_025.jpg
1746.644	0.571	1	study	Phase3	study/STIM_025.jpg
1751.011	0.95	1	study	Phase3	study/STIM_026.jpg
1753.972	0.642	1	study	Phase3	study/STIM_026.jpg
1758.573	0.996	1	study	Phase3	study/STIM_026.jpg
1762.54	0.898	1	study	Phase3	study/STIM_027.jpg
1765.819	0.965	1	study	Phase3	study/STIM_027.jpg
1770.722	1.018	1	study	Phase3	study/STIM_027.jpg
1774.339	0.774	1	study	Phase3	study/STIM_028.jpg
1778.351	0.816	1	study	Phase3	study/STIM_028.jpg
1782.011	0.986	1	study	Phase3	study/STIM_028.jpg
1785.685	0.788	1	study	Phase3	study/STIM_029.jpg
1789.251	0.682	1	study	Phase3	study/STIM_029.jpg
1792.251	0.888	1	study	Phase3	study/STIM_029.jpg
1797.174	0.602	1	test	Phase3	test/STIM_000.jpg
1800.196	1.023	1	test	Phase3	test/STIM_000.jpg
1803.859	0.639	1	test	Phase3	test/STIM_000.jpg
1807.24	0.884	0	test	Phase3	test/STIM_001.jpg
1811.353	1.037	1	test	Phase3	test/STIM_001.jpg
1814.527	1.032	1	test	Phase3	test/STIM_001.jpg
1819.55	0.657	1	test	Phase3	test/STIM_002.jpg
1823.084	0.861	1	test	Phase3	test/STIM_002.jpg
1826.749	0.752	1	test	Phase3	test/STIM_002.jpg
1830.896	0.754	1	test	Phase3	test/STIM_003.jpg
1834.556	1.058	0	test	Phase3	test/STIM_003.jpg
1837.729	0.823	1	test	Phase3	test/STIM_003.jpg
1841.724	0.852	0	test	Phase3	test/STIM_004.jpg
1844.689	1.152	1	test	Phase3	test/STIM_004.jpg
1849.275	0.868	1	test	Phase3	test/STIM_004.jpg
1853.498	1.118	1	test	Phase3	test/STIM_005.jpg
1858.633	0.691	1	test	Phase3	test/STIM_005.jpg
1861.947	0.999	1	test	Phase3	test/STIM_005.jpg
1864.99	1.127	0	test	Phase3	test/STIM_006.jpg
1869.146	0.92	0	test	Phase3	test/STIM_006.jpg
1873.766	1.031	1	test	Phase3	test/STIM_006.jpg
1877.394	0.963	1	test	Phase3	test/STIM_007.jpg
1880.968	1.096	1	test	Phase3	test/STIM_007.jpg
1885.039	0.792	1	test	Phase3	test/STIM_007.jpg
1889.777	0.528	1	test	Phase3	test/STIM_008.jpg
1894.254	1.169	1	test	Phase3	test/STIM_008.jpg
1899.46	1.113	1	test	Phase3	test/STIM_008.jpg
1903.647	1.026	1	test	Phase3	test/STIM_009.jpg
1908.119	1.26	1	test	Phase3	test/STIM_009.jpg
1911.461	1.148	1	test	Phase3	test/STIM_009.jpg
1916.459	1.114	1	test	Phase3	test/STIM_010.jpg
1921.051	0.678	1	test	Phase3	test/STIM_010.jpg
1925.662	0.804	1	test	Phase3	test/STIM_010.jpg
1928.784	0.93	1	test	Phase3	test/STIM_011.jpg
1933.196	1.184	1	test	Phase3	test/STIM_011.jpg
1937.589	0.605	1	test	Phase3	test/STIM_011.jpg
1940.479	1.095	1	test	Phase3	test/STIM_012.jpg
1944.17	1.22	1	test	Phase3	test/STIM_012.jpg
1949.197	0.604	1	test	Phase3	test/STIM_012.jpg
1953.633	0.819	1	test	Phase3	test/STIM_013.jpg
1957.494	0.826	1	test	Phase3	test/STIM_013.jpg
1960.549	0.812	0	test	Phase3	test/STIM_013.jpg
1963.466	1.08	1	test	Phase3	test/STIM_014.jpg
1967.222	1.005	1	test	Phase3	test/STIM_014.jpg
1971.915	1.151	1	test	Phase3	test/STIM_014.jpg
1976.435	0.739	1	test	Phase3	test/STIM_015.jpg
1979.825	0.807	1	test	Phase3	test/STIM_015.jpg
1983.915	0.615	1	test	Phase3	test/STIM_015.jpg
1986.785	0.854	0	test	Phase3	test/STIM_016.jpg
1989.65	0.686	1	test	Phase3	test/STIM_016.jpg
1993.079	0.964	1	test	Phase3	test/STIM_016.jpg
1996.987	1.036	0	test	Phase3	test/STIM_017.jpg
2001.508	1.007	1	test	Phase3	test/STIM_017.jpg
2005.225	1.004	1	test	Phase3	test/STIM_017.jpg
2009.263	0.884	1	test	Phase3	test/STIM_018.jpg
2013.108	0.606	1	test	Phase3	test/STIM_018.jpg
2016.239	0.719	1	test	Phase3	test/STIM_018.jpg
2019.43	0.676	1	test	Phase3	test/STIM_019.jpg
2022.309	0.66	1	test	Phase3	test/STIM_019.jpg
2025.636	0.964	1	test	Phase3	test/STIM_019.jpg
2029.495	1.081	1	test	Phase3	test/STIM_020.jpg
2034.136	0.857	1	test	Phase3	test/STIM_020.jpg
2038.395	0.733	1	test	Phase3	test/STIM_020.jpg
2041.565	0.838	1	test	Phase3	test/STIM_021.jpg
2044.46	0.896	1	test	Phase3	test/STIM_021.jpg
2047.845	0.68	0	test	Phase3	test/STIM_021.jpg
2051.129	0.732	1	test	Phase3	test/STIM_022.jpg
2054.16	0.996	1	test	Phase3	test/STIM_022.jpg
2058.147	0.772	1	test	Phase3	test/STIM_022.jpg
2062.233	0.761	1	test	Phase3	test/STIM_023.jpg
2065.292	1.176	1	test	Phase3	test/STIM_023.jpg
2070.461	1.116	1	test	Phase3	test/STIM_023.jpg
2075.43	0.655	1	test	Phase3	test/STIM_024.jpg
2079.702	0.867	1	test	Phase3	test/STIM_024.jpg
2084.554	0.744	1	test	Phase3	test/STIM_024.jpg
2089.222	0.724	1	test	Phase3	test/STIM_025.jpg
2092.86	0.621	1	test	Phase3	test/STIM_025.jpg
2096.854	0.72	0	test	Phase3	test/STIM_025.jpg
2100.967	1.207	1	test	Phase3	test/STIM_026.jpg
2105.042	0.867	1	test	Phase3	test/STIM_026.jpg
2108.982	0.6	1	test	Phase3	test/STIM_026.jpg
2112.775	0.873	1	test	Phase3	test/STIM_027.jpg
2116.255	0.71	1	test	Phase3	test/STIM_027.jpg
2119.378	0.606	1	test	Phase3	test/STIM_027.jpg
2123.008	0.978	1	test	Phase3	test/STIM_028.jpg
2126.442	0.642	1	test	Phase3	test/STIM_028.jpg
2130.099	0.84	1	test	Phase3	test/STIM_028.jpg
2134.295	0.738	1	test	Phase3	test/STIM_029.jpg
2137.648	0.96	1	test	Phase3	test/STIM_029.jpg
2140.778	1.095	1	test	Phase3	test/STIM_029.jpg
