onset	duration	accuracy_binary	trial_type	learning_stage	stimulus
0.0	1.505	1	study	Phase1	study/STIM_000.jpg
4.179	1.129	1	study	Phase1	study/STIM_000.jpg
7.951	0.915	1	study	Phase1	study/STIM_000.jpg
12.295	1.819	1	study	Phase1	study/STIM_001.jpg
17.757	1.485	1	study	Phase1	study/STIM_001.jpg
22.747	1.163	1	study	Phase1	study/STIM_001.jpg
26.522	0.817	1	study	Phase1	study/STIM_002.jpg
30.148	1.481	1	study	Phase1	study/STIM_002.jpg
35.555	1.054	1	study	Phase1	study/STIM_002.jpg
40.208	0.845	1	study	Phase1	study/STIM_003.jpg
43.784	0.806	1	study	Phase1	study/STIM_003.jpg
47.76	0.963	1	study	Phase1	study/STIM_003.jpg
51.944	0.993	1	study	Phase1	study/STIM_004.jpg
55.935	1.23	1	study	Phase1	study/STIM_004.jpg
59.441	1.182	1	study	Phase1	study/STIM_004.jpg
63.944	0.819	1	study	Phase1	study/STIM_005.jpg
68.652	1.454	1	study	Phase1	study/STIM_005.jpg
72.828	1.053	1	study	Phase1	study/STIM_005.jpg
77.351	1.772	1	study	Phase1	study/STIM_006.jpg
81.423	1.378	1	study	Phase1	study/STIM_006.jpg
85.392	1.313	1	study	Phase1	study/STIM_006.jpg
90.504	1.141	0	study	Phase1	study/STIM_007.jpg
94.937	1.688	1	study	Phase1	study/STIM_007.jpg
99.54	1.523	1	study	Phase1	study/STIM_007.jpg
104.425	1.209	1	study	Phase1	study/STIM_008.jpg
108.01	0.858	1	study	Phase1	study/STIM_008.jpg
111.231	0.789	1	study	Phase1	study/STIM_008.jpg
115.112	1.391	1	study	Phase1	study/STIM_009.jpg
118.787	0.793	1	study	Phase1	study/STIM_009.jpg
123.466	1.219	1	study	Phase1	study/STIM_009.jpg
127.507	1.477	1	study	Phase1	study/STIM_010.jpg
132.577	1.024	1	study	Phase1	study/STIM_010.jpg
137.471	0.97	1	study	Phase1	study/STIM_010.jpg
141.171	1.293	1	study	Phase1	study/STIM_011.jpg
144.798	0.871	1	study	Phase1	study/STIM_011.jpg
149.593	0.794	1	study	Phase1	study/STIM_011.jpg
153.492	1.326	1	study	Phase1	study/STIM_012.jpg
158.292	1.543	1	study	Phase1	study/STIM_012.jpg
161.911	1.546	1	study	Phase1	study/STIM_012.jpg
167.399	1.356	1	study	Phase1	study/STIM_013.jpg
172.001	0.937	1	study	Phase1	study/STIM_013.jpg
176.75	0.927	1	study	Phase1	study/STIM_013.jpg
180.696	1.466	1	study	Phase1	study/STIM_014.jpg
185.076	1.158	1	study	Phase1	study/STIM_014.jpg
189.914	1.562	1	study	Phase1	study/STIM_014.jpg
195.049	1.687	1	study	Phase1	study/STIM_015.jpg
199.418	1.434	1	study	Phase1	study/STIM_015.jpg
204.185	0.923	1	study	Phase1	study/STIM_015.jpg
208.628	1.542	1	study	Phase1	study/STIM_016.jpg
213.489	0.794	1	study	Phase1	study/STIM_016.jpg
218.197	0.996	1	study	Phase1	study/STIM_016.jpg
222.042	1.737	1	study	Phase1	study/STIM_017.jpg
227.042	1.004	1	study	Phase1	study/STIM_017.jpg
231.56	0.794	1	study	Phase1	study/STIM_017.jpg
235.465	1.648	1	study	Phase1	study/STIM_018.jpg
240.196	1.366	1	study	Phase1	study/STIM_018.jpg
245.04	1.088	1	study	Phase1	study/STIM_018.jpg
248.903	0.914	1	study	Phase1	study/STIM_019.jpg
252.73	0.906	1	study	Phase1	study/STIM_019.jpg
257.086	1.452	1	study	Phase1	study/STIM_019.jpg
260.657	1.746	1	study	Phase1	study/STIM_020.jpg
264.79	0.892	1	study	Phase1	study/STIM_020.jpg
269.224	1.209	1	study	Phase1	study/STIM_020.jpg
273.401	1.131	1	study	Phase1	study/STIM_021.jpg
277.579	1.706	1	study	Phase1	study/STIM_021.jpg
282.55	1.208	1	study	Phase1	study/STIM_021.jpg
287.019	1.152	1	study	Phase1	study/STIM_022.jpg
290.645	1.128	1	study	Phase1	study/STIM_022.jpg
295.031	1.344	1	study	Phase1	study/STIM_022.jpg
299.011	1.722	1	study	Phase1	study/STIM_023.jpg
303.11	0.841	1	study	Phase1	study/STIM_023.jpg
306.498	0.915	1	study	Phase1	study/STIM_023.jpg
310.651	1.444	1	study	Phase1	study/STIM_024.jpg
316.078	1.604	0	study	Phase1	study/STIM_024.jpg
321.2	1.253	1	study	Phase1	study/STIM_024.jpg
324.552	1.627	1	study	Phase1	study/STIM_025.jpg
329.322	1.098	1	study	Phase1	study/STIM_025.jpg
333.846	1.582	0	study	Phase1	study/STIM_025.jpg
338.595	1.462	1	study	Phase1	study/STIM_026.jpg
342.75	0.98	1	study	Phase1	study/STIM_026.jpg
346.817	1.021	1	study	Phase1	study/STIM_026.jpg
351.157	1.167	1	study	Phase1	study/STIM_027.jpg
355.942	1.16	1	study	Phase1	study/STIM_027.jpg
360.523	0.891	1	study	Phase1	study/STIM_027.jpg
365.066	1.582	0	study	Phase1	study/STIM_028.jpg
368.921	0.947	1	study	Phase1	study/STIM_028.jpg
373.749	1.512	1	study	Phase1	study/STIM_028.jpg
378.617	1.063	1	study	Phase1	study/STIM_029.jpg
382.265	1.198	1	study	Phase1	study/STIM_029.jpg
386.111	1.373	1	study	Phase1	study/STIM_029.jpg
390.454	1.242	1	test	Phase1	test/STIM_000.jpg
395.267	0.884	1	test	Phase1	test/STIM_000.jpg
398.612	1.022	1	test	Phase1	test/STIM_000.jpg
402.038	0.855	1	test	Phase1	test/STIM_001.jpg
405.726	0.819	1	test	Phase1	test/STIM_001.jpg
409.127	0.825	1	test	Phase1	test/STIM_001.jpg
412.906	1.092	1	test	Phase1	test/STIM_002.jpg
417.884	0.718	1	test	Phase1	test/STIM_002.jpg
421.767	1.228	1	test	Phase1	test/STIM_002.jpg
426.515	1.034	1	test	Phase1	test/STIM_003.jpg
430.103	1.039	1	test	Phase1	test/STIM_003.jpg
433.51	1.259	1	test	Phase1	test/STIM_003.jpg
436.78	1.224	1	test	Phase1	test/STIM_004.jpg
441.056	0.93	1	test	Phase1	test/STIM_004.jpg
444.0	1.209	1	test	Phase1	test/STIM_004.jpg
448.491	0.84	1	test	Phase1	test/STIM_005.jpg
452.948	0.739	1	test	Phase1	test/STIM_005.jpg
457.484	1.252	1	test	Phase1	test/STIM_005.jpg
461.773	1.157	1	test	Phase1	test/STIM_006.jpg
465.85	0.812	1	test	Phase1	test/STIM_006.jpg
468.738	0.989	1	test	Phase1	test/STIM_006.jpg
472.102	0.697	1	test	Phase1	test/STIM_007.jpg
476.597	0.978	1	test	Phase1	test/STIM_007.jpg
479.684	0.98	1	test	Phase1	test/STIM_007.jpg
482.965	1.31	1	test	Phase1	test/STIM_008.jpg
488.262	0.867	1	test	Phase1	test/STIM_008.jpg
491.786	1.144	1	test	Phase1	test/STIM_008.jpg
495.24	0.71	1	test	Phase1	test/STIM_009.jpg
499.547	1.085	1	test	Phase1	test/STIM_009.jpg
504.179	1.215	1	test	Phase1	test/STIM_009.jpg
507.797	0.925	1	test	Phase1	test/STIM_010.jpg
511.645	0.957	1	test	Phase1	test/STIM_010.jpg
516.071	1.003	1	test	Phase1	test/STIM_010.jpg
520.905	0.617	1	test	Phase1	test/STIM_011.jpg
525.414	0.965	1	test	Phase1	test/STIM_011.jpg
529.444	0.893	1	test	Phase1	test/STIM_011.jpg
533.87	0.87	1	test	Phase1	test/STIM_012.jpg
536.906	1.0	1	test	Phase1	test/STIM_012.jpg
541.076	1.236	1	test	Phase1	test/STIM_012.jpg
545.295	0.672	0	test	Phase1	test/STIM_013.jpg
548.854	0.988	1	test	Phase1	test/STIM_013.jpg
553.836	1.16	1	test	Phase1	test/STIM_013.jpg
558.136	1.051	1	test	Phase1	test/STIM_014.jpg
562.723	0.859	1	test	Phase1	test/STIM_014.jpg
566.186	1.021	1	test	Phase1	test/STIM_014.jpg
569.75	1.291	1	test	Phase1	test/STIM_015.jpg
573.924	0.738	1	test	Phase1	test/STIM_015.jpg
577.106	0.635	1	test	Phase1	test/STIM_015.jpg
580.568	0.982	1	test	Phase1	test/STIM_016.jpg
583.736	0.68	1	test	Phase1	test/STIM_016.jpg
587.016	1.011	1	test	Phase1	test/STIM_016.jpg
591.811	0.827	1	test	Phase1	test/STIM_017.jpg
596.291	1.314	1	test	Phase1	test/STIM_017.jpg
600.49	0.719	1	test	Phase1	test/STIM_017.jpg
604.982	0.928	1	test	Phase1	test/STIM_018.jpg
608.902	1.236	1	test	Phase1	test/STIM_018.jpg
612.31	1.146	1	test	Phase1	test/STIM_018.jpg
617.002	1.286	1	test	Phase1	test/STIM_019.jpg
620.537	0.649	1	test	Phase1	test/STIM_019.jpg
624.606	0.736	1	test	Phase1	test/STIM_019.jpg
627.373	1.06	1	test	Phase1	test/STIM_020.jpg
631.716	0.657	1	test	Phase1	test/STIM_020.jpg
635.085	0.881	1	test	Phase1	test/STIM_020.jpg
638.301	0.803	1	test	Phase1	test/STIM_021.jpg
642.487	1.026	1	test	Phase1	test/STIM_021.jpg
647.509	0.884	1	test	Phase1	test/STIM_021.jpg
651.865	1.069	1	test	Phase1	test/STIM_022.jpg
656.245	1.123	1	test	Phase1	test/STIM_022.jpg
660.541	1.098	1	test	Phase1	test/STIM_022.jpg
663.831	1.133	1	test	Phase1	test/STIM_023.jpg
667.164	1.087	1	test	Phase1	test/STIM_023.jpg
671.327	0.81	1	test	Phase1	test/STIM_023.jpg
674.639	0.923	1	test	Phase1	test/STIM_024.jpg
677.859	0.839	1	test	Phase1	test/STIM_024.jpg
682.518	0.991	1	test	Phase1	test/STIM_024.jpg
686.672	0.763	1	test	Phase1	test/STIM_025.jpg
690.926	0.78	1	test	Phase1	test/STIM_025.jpg
695.003	0.84	1	test	Phase1	test/STIM_025.jpg
699.405	0.8	1	test	Phase1	test/STIM_026.jpg
704.075	0.699	1	test	Phase1	test/STIM_026.jpg
708.659	0.755	1	test	Phase1	test/STIM_026.jpg
713.151	0.811	1	test	Phase1	test/STIM_027.jpg
716.416	1.264	1	test	Phase1	test/STIM_027.jpg
720.874	0.933	1	test	Phase1	test/STIM_027.jpg
725.658	1.144	1	test	Phase1	test/STIM_028.jpg
730.697	1.276	1	test	Phase1	test/STIM_028.jpg
735.943	0.744	1	test	Phase1	test/STIM_028.jpg
738.991	1.103	1	test	Phase1	test/STIM_029.jpg
743.166	1.154	1	test	Phase1	test/STIM_029.jpg
747.586	0.655	1	test	Phase1	test/STIM_029.jpg
751.51	1.187	1	study	Phase2	study/STIM_000.jpg
755.722	1.208	1	study	Phase2	study/STIM_000.jpg
759.077	1.128	1	study	Phase2	study/STIM_000.jpg
763.544	1.424	1	study	Phase2	study/STIM_001.jpg
768.844	1.448	0	study	Phase2	study/STIM_001.jpg
773.01	0.719	1	study	Phase2	study/STIM_001.jpg
776.022	0.818	1	study	Phase2	study/STIM_002.jpg
779.96	0.89	1	study	Phase2	study/STIM_002.jpg
784.264	1.018	1	study	Phase2	study/STIM_002.jpg
788.636	1.324	1	study	Phase2	study/STIM_003.jpg
792.35	1.218	1	study	Phase2	study/STIM_003.jpg
797.268	1.087	1	study	Phase2	study/STIM_003.jpg
800.992	1.335	1	study	Phase2	study/STIM_004.jpg
804.772	0.939	1	study	Phase2	study/STIM_004.jpg
808.375	0.63	1	study	Phase2	study/STIM_004.jpg
812.339	1.529	1	study	Phase2	study/STIM_005.jpg
817.075	1.06	1	study	Phase2	study/STIM_005.jpg
820.732	0.781	1	study	Phase2	study/STIM_005.jpg
823.619	0.953	1	study	Phase2	study/STIM_006.jpg
826.677	1.1	1	study	Phase2	study/STIM_006.jpg
830.85	0.664	1	study	Phase2	study/STIM_006.jpg
833.736	1.254	1	study	Phase2	study/STIM_007.jpg
837.223	0.705	1	study	Phase2	study/STIM_007.jpg
840.535	0.809	1	study	Phase2	study/STIM_007.jpg
843.978	1.526	1	study	Phase2	study/STIM_008.jpg
848.707	1.302	1	study	Phase2	study/STIM_008.jpg
852.232	0.833	1	study	Phase2	study/STIM_008.jpg
856.832	0.891	1	study	Phase2	study/STIM_009.jpg
861.42	0.984	1	study	Phase2	study/STIM_009.jpg
865.5	0.744	1	study	Phase2	study/STIM_009.jpg
869.086	0.94	1	study	Phase2	study/STIM_010.jpg
872.038	0.98	1	study	Phase2	study/STIM_010.jpg
875.127	0.672	1	study	Phase2	study/STIM_010.jpg
878.809	0.936	1	study	Phase2	study/STIM_011.jpg
882.225	1.237	1	study	Phase2	study/STIM_011.jpg
885.547	0.812	1	study	Phase2	study/STIM_011.jpg
888.523	0.989	1	study	Phase2	study/STIM_012.jpg
892.773	1.418	1	study	Phase2	study/STIM_012.jpg
897.345	0.955	1	study	Phase2	study/STIM_012.jpg
901.772	0.73	1	study	Phase2	study/STIM_013.jpg
905.443	1.165	1	study	Phase2	study/STIM_013.jpg
909.957	1.05	1	study	Phase2	study/STIM_013.jpg
914.172	1.484	1	study	Phase2	study/STIM_014.jpg
919.238	0.661	1	study	Phase2	study/STIM_014.jpg
923.798	1.142	1	study	Phase2	study/STIM_014.jpg
927.609	0.851	1	study	Phase2	study/STIM_015.jpg
931.657	1.167	1	study	Phase2	study/STIM_015.jpg
935.715	1.043	1	study	Phase2	study/STIM_015.jpg
939.856	1.194	1	study	Phase2	study/STIM_016.jpg
943.888	0.963	1	study	Phase2	study/STIM_016.jpg
948.417	1.097	1	study	Phase2	study/STIM_016.jpg
952.309	1.135	1	study	Phase2	study/STIM_017.jpg
956.123	1.076	1	study	Phase2	study/STIM_017.jpg
960.135	0.954	1	study	Phase2	study/STIM_017.jpg
964.603	1.057	1	study	Phase2	study/STIM_018.jpg
967.793	0.916	1	study	Phase2	study/STIM_018.jpg
972.388	1.187	1	study	Phase2	study/STIM_018.jpg
976.004	1.303	1	study	Phase2	study/STIM_019.jpg
981.044	0.813	1	study	Phase2	study/STIM_019.jpg
985.779	1.005	1	study	Phase2	study/STIM_019.jpg
989.487	1.41	1	study	Phase2	study/STIM_020.jpg
993.61	0.751	1	study	Phase2	study/STIM_020.jpg
998.208	1.341	1	study	Phase2	study/STIM_020.jpg
1002.495	1.362	1	study	Phase2	study/STIM_021.jpg
1006.953	1.307	1	study	Phase2	study/STIM_021.jpg
1010.299	1.329	1	study	Phase2	study/STIM_021.jpg
1015.071	1.428	1	study	Phase2	study/STIM_022.jpg
1020.045	1.138	1	study	Phase2	study/STIM_022.jpg
1023.607	1.257	1	study	Phase2	study/STIM_022.jpg
1028.806	0.796	1	study	Phase2	study/STIM_023.jpg
1032.972	1.347	1	study	Phase2	study/STIM_023.jpg
1037.23	1.164	1	study	Phase2	study/STIM_023.jpg
1041.719	0.698	1	study	Phase2	study/STIM_024.jpg
1045.932	1.04	1	study	Phase2	study/STIM_024.jpg
1049.936	0.658	1	study	Phase2	study/STIM_024.jpg
1052.909	0.881	1	study	Phase2	study/STIM_025.jpg
1056.533	0.739	1	study	Phase2	study/STIM_025.jpg
1060.086	1.251	1	study	Phase2	study/STIM_025.jpg
1064.986	1.098	1	study	Phase2	study/STIM_026.jpg
1068.914	1.21	1	study	Phase2	study/STIM_026.jpg
1073.373	1.139	1	study	Phase2	study/STIM_026.jpg
1078.4	1.418	1	study	Phase2	study/STIM_027.jpg
1083.777	1.223	1	study	Phase2	study/STIM_027.jpg
1087.047	0.976	1	study	Phase2	study/STIM_027.jpg
1090.58	0.764	1	study	Phase2	study/STIM_028.jpg
1094.236	0.687	1	study	Phase2	study/STIM_028.jpg
1097.138	0.934	1	study	Phase2	study/STIM_028.jpg
1102.013	0.722	1	study	Phase2	study/STIM_029.jpg
1105.039	0.911	0	study	Phase2	study/STIM_029.jpg
1109.94	0.635	1	study	Phase2	study/STIM_029.jpg
1113.791	1.16	1	test	Phase2	test/STIM_000.jpg
1117.413	1.036	1	test	Phase2	test/STIM_000.jpg
1122.146	0.933	0	test	Phase2	test/STIM_000.jpg
1125.345	1.016	1	test	Phase2	test/STIM_001.jpg
1128.577	0.948	1	test	Phase2	test/STIM_001.jpg
1131.766	0.766	0	test	Phase2	test/STIM_001.jpg
1136.149	0.996	1	test	Phase2	test/STIM_002.jpg
1140.183	1.072	1	test	Phase2	test/STIM_002.jpg
1145.231	1.056	1	test	Phase2	test/STIM_002.jpg
1149.225	1.054	1	test	Phase2	test/STIM_003.jpg
1152.298	1.215	1	test	Phase2	test/STIM_003.jpg
1156.456	0.866	1	test	Phase2	test/STIM_003.jpg
1160.773	1.109	1	test	Phase2	test/STIM_004.jpg
1165.832	0.889	1	test	Phase2	test/STIM_004.jpg
1169.707	0.72	1	test	Phase2	test/STIM_004.jpg
1173.59	0.761	1	test	Phase2	test/STIM_005.jpg
1177.589	0.634	1	test	Phase2	test/STIM_005.jpg
1182.005	0.882	1	test	Phase2	test/STIM_005.jpg
1185.946	0.758	1	test	Phase2	test/STIM_006.jpg
1188.909	1.185	1	test	Phase2	test/STIM_006.jpg
1194.022	1.102	1	test	Phase2	test/STIM_006.jpg
1198.077	0.988	1	test	Phase2	test/STIM_007.jpg
1201.93	1.033	1	test	Phase2	test/STIM_007.jpg
1205.452	1.001	1	test	Phase2	test/STIM_007.jpg
1209.324	0.918	1	test	Phase2	test/STIM_008.jpg
1213.638	0.614	1	test	Phase2	test/STIM_008.jpg
1216.26	1.033	1	test	Phase2	test/STIM_008.jpg
1221.173	0.95	1	test	Phase2	test/STIM_009.jpg
1225.83	0.778	1	test	Phase2	test/STIM_009.jpg
1230.335	0.993	1	test	Phase2	test/STIM_009.jpg
1234.066	0.884	1	test	Phase2	test/STIM_010.jpg
1237.041	0.906	1	test	Phase2	test/STIM_010.jpg
1241.52	0.988	1	test	Phase2	test/STIM_010.jpg
1245.395	1.074	1	test	Phase2	test/STIM_011.jpg
1248.945	1.191	1	test	Phase2	test/STIM_011.jpg
1254.028	1.146	1	test	Phase2	test/STIM_011.jpg
1258.732	0.943	1	test	Phase2	test/STIM_012.jpg
1261.77	1.226	1	test	Phase2	test/STIM_012.jpg
1266.366	0.719	1	test	Phase2	test/STIM_012.jpg
1270.734	0.954	1	test	Phase2	test/STIM_013.jpg
1274.73	1.003	1	test	Phase2	test/STIM_013.jpg
1279.668	0.872	1	test	Phase2	test/STIM_013.jpg
1283.147	1.159	1	test	Phase2	test/STIM_014.jpg
1286.394	0.673	1	test	Phase2	test/STIM_014.jpg
1289.617	0.675	1	test	Phase2	test/STIM_014.jpg
1294.047	0.871	1	test	Phase2	test/STIM_015.jpg
1298.72	0.731	1	test	Phase2	test/STIM_015.jpg
1303.266	0.748	1	test	Phase2	test/STIM_015.jpg
1306.744	0.765	1	test	Phase2	test/STIM_016.jpg
1310.445	1.088	1	test	Phase2	test/STIM_016.jpg
1314.819	0.635	1	test	Phase2	test/STIM_016.jpg
1318.769	0.86	1	test	Phase2	test/STIM_017.jpg
1323.551	0.637	1	test	Phase2	test/STIM_017.jpg
1326.526	1.263	1	test	Phase2	test/STIM_017.jpg
1330.928	0.951	1	test	Phase2	test/STIM_018.jpg
1335.715	0.776	1	test	Phase2	test/STIM_018.jpg
1339.326	1.212	1	test	Phase2	test/STIM_018.jpg
1343.785	0.86	1	test	Phase2	test/STIM_019.jpg
1347.324	1.306	1	test	Phase2	test/STIM_019.jpg
1351.11	0.936	1	test	Phase2	test/STIM_019.jpg
1355.52	1.19	1	test	Phase2	test/STIM_020.jpg
1360.651	0.935	1	test	Phase2	test/STIM_020.jpg
1363.836	1.212	1	test	Phase2	test/STIM_020.jpg
1368.112	0.955	1	test	Phase2	test/STIM_021.jpg
1372.469	0.924	1	test	Phase2	test/STIM_021.jpg
1377.165	0.628	1	test	Phase2	test/STIM_021.jpg
1380.846	1.208	1	test	Phase2	test/STIM_022.jpg
1384.355	1.124	1	test	Phase2	test/STIM_022.jpg
1388.597	1.101	1	test	Phase2	test/STIM_022.jpg
1393.096	1.052	0	test	Phase2	test/STIM_023.jpg
1396.329	1.219	1	test	Phase2	test/STIM_023.jpg
1399.559	1.209	1	test	Phase2	test/STIM_023.jpg
1403.434	0.904	1	test	Phase2	test/STIM_024.jpg
1406.523	1.199	1	test	Phase2	test/STIM_024.jpg
1411.628	0.676	1	test	Phase2	test/STIM_024.jpg
1415.439	1.128	1	test	Phase2	test/STIM_025.jpg
1419.889	0.935	1	test	Phase2	test/STIM_025.jpg
1424.193	1.283	1	test	Phase2	test/STIM_025.jpg
1428.63	0.76	1	test	Phase2	test/STIM_026.jpg
1432.114	0.816	0	test	Phase2	test/STIM_026.jpg
1436.602	0.838	1	test	Phase2	test/STIM_026.jpg
1440.909	0.924	1	test	Phase2	test/STIM_027.jpg
1445.372	1.01	1	test	Phase2	test/STIM_027.jpg
1448.585	0.611	1	test	Phase2	test/STIM_027.jpg
1451.731	1.082	1	test	Phase2	test/STIM_028.jpg
1456.45	0.698	1	test	Phase2	test/STIM_028.jpg
1460.6	0.845	1	test	Phase2	test/STIM_028.jpg
1465.097	0.818	1	test	Phase2	test/STIM_029.jpg
1468.072	0.986	1	test	Phase2	test/STIM_029.jpg
1472.514	0.735	1	test	Phase2	test/STIM_029.jpg
1475.504	1.148	1	study	Phase3	study/STIM_000.jpg
1480.097	1.073	0	study	Phase3	study/STIM_000.jpg
1484.303	0.923	1	study	Phase3	study/STIM_000.jpg
1489.1	0.627	1	study	Phase3	study/STIM_001.jpg
1493.451	0.66	1	study	Phase3	study/STIM_001.jpg
1497.515	0.96	1	study	Phase3	study/STIM_001.jpg
1501.111	1.06	1	study	Phase3	study/STIM_002.jpg
1505.091	1.18	1	study	Phase3	study/STIM_002.jpg
1509.328	0.916	1	study	Phase3	study/STIM_002.jpg
1513.439	0.581	1	study	Phase3	study/STIM_003.jpg
1516.991	0.937	1	study	Phase3	study/STIM_003.jpg
1520.343	1.03	1	study	Phase3	study/STIM_003.jpg
1523.985	1.161	1	study	Phase3	study/STIM_004.jpg
1528.082	1.046	1	study	Phase3	study/STIM_004.jpg
1531.753	0.967	1	study	Phase3	study/STIM_004.jpg
1534.94	0.735	1	study	Phase3	study/STIM_005.jpg
1539.642	0.737	1	study	Phase3	study/STIM_005.jpg
1543.236	0.975	1	study	Phase3	study/STIM_005.jpg
1547.666	1.191	1	study	Phase3	study/STIM_006.jpg
1551.224	1.27	1	study	Phase3	study/STIM_006.jpg
1555.222	1.207	1	study	Phase3	study/STIM_006.jpg
1559.304	1.191	1	study	Phase3	study/STIM_007.jpg
1564.148	0.867	1	study	Phase3	study/STIM_007.jpg
1567.749	1.093	1	study	Phase3	study/STIM_007.jpg
1571.652	1.137	1	study	Phase3	study/STIM_008.jpg
1576.645	0.932	1	study	Phase3	study/STIM_008.jpg
1580.388	1.029	1	study	Phase3	study/STIM_008.jpg
1585.154	1.178	1	study	Phase3	study/STIM_009.jpg
1589.563	1.125	1	study	Phase3	study/STIM_009.jpg
1594.471	1.162	0	study	Phase3	study/STIM_009.jpg
1599.13	1.144	1	study	Phase3	study/STIM_010.jpg
1602.98	1.126	1	study	Phase3	study/STIM_010.jpg
1606.572	0.604	1	study	Phase3	study/STIM_010.jpg
1609.609	1.224	1	study	Phase3	study/STIM_011.jpg
1614.329	1.187	1	study	Phase3	study/STIM_011.jpg
1618.349	0.922	1	study	Phase3	study/STIM_011.jpg
1621.566	0.721	1	study	Phase3	study/STIM_012.jpg
1625.102	0.691	1	study	Phase3	study/STIM_012.jpg
1629.495	1.036	1	study	Phase3	study/STIM_012.jpg
1634.154	0.599	1	study	Phase3	study/STIM_013.jpg
1637.146	0.816	1	study	Phase3	study/STIM_013.jpg
1640.173	0.693	1	study	Phase3	study/STIM_013.jpg
1644.067	0.907	1	study	Phase3	study/STIM_014.jpg
1648.601	0.648	1	study	Phase3	study/STIM_014.jpg
1653.114	0.986	1	study	Phase3	study/STIM_014.jpg
1657.841	1.053	1	study	Phase3	study/STIM_015.jpg
1661.46	1.172	1	study	Phase3	study/STIM_015.jpg
1665.363	1.198	1	study	Phase3	study/STIM_015.jpg
1668.677	1.228	1	study	Phase3	study/STIM_016.jpg
1672.316	0.599	1	study	Phase3	study/STIM_016.jpg
1676.434	0.608	1	study	Phase3	study/STIM_016.jpg
1679.282	1.104	1	study	Phase3	study/STIM_017.jpg
1682.49	1.16	1	study	Phase3	study/STIM_017.jpg
1687.196	1.05	1	study	Phase3	study/STIM_017.jpg
1691.643	0.58	1	study	Phase3	study/STIM_018.jpg
1695.779	1.113	1	study	Phase3	study/STIM_018.jpg
1700.113	1.24	1	study	Phase3	study/STIM_018.jpg
1704.355	0.71	1	study	Phase3	study/STIM_019.jpg
1708.449	0.898	1	study	Phase3	study/STIM_019.jpg
1711.598	0.651	1	study	Phase3	study/STIM_019.jpg
1714.567	1.182	1	study	Phase3	study/STIM_020.jpg
1719.463	1.003	1	study	Phase3	study/STIM_020.jpg
1724.248	0.859	1	study	Phase3	study/STIM_020.jpg
1728.047	0.964	1	study	Phase3	study/STIM_021.jpg
1731.329	1.127	1	study	Phase3	study/STIM_021.jpg
1734.916	0.962	1	study	Phase3	study/STIM_021.jpg
1737.893	0.766	1	study	Phase3	study/STIM_022.jpg
1742.349	1.138	1	study	Phase3	study/STIM_022.jpg
1746.413	0.786	1	study	Phase3	study/STIM_022.jpg
1750.28	0.925	1	study	Phase3	study/STIM_023.jpg
1753.449	0.662	1	study	Phase3	study/STIM_023.jpg
1756.151	0.714	1	study	Phase3	study/STIM_023.jpg
1758.997	0.595	1	study	Phase3	study/STIM_024.jpg
1761.895	0.972	1	study	Phase3	study/STIM_024.jpg
1765.285	1.28	1	study	Phase3	study/STIM_024.jpg
1769.847	1.192	1	study	Phase3	study/STIM_025.jpg
1773.86	1.264	1	study	Phase3	study/STIM_025.jpg
1778.291	1.063	1	study	Phase3	study/STIM_025.jpg
1782.203	0.987	1	study	Phase3	study/STIM_026.jpg
1786.727	0.748	1	study	Phase3	study/STIM_026.jpg
1789.78	0.724	1	study	Phase3	study/STIM_026.jpg
1793.03	1.136	1	study	Phase3	study/STIM_027.jpg
1796.681	0.622	1	study	Phase3	study/STIM_027.jpg
1800.808	1.173	1	study	Phase3	study/STIM_027.jpg
1804.309	0.623	1	study	Phase3	study/STIM_028.jpg
1808.891	0.691	1	study	Phase3	study/STIM_028.jpg
1813.153	1.008	1	study	Phase3	study/STIM_028.jpg
1817.056	1.069	1	study	Phase3	study/STIM_029.jpg
1820.974	0.736	1	study	Phase3	study/STIM_029.jpg
1824.04	0.95	1	study	Phase3	study/STIM_029.jpg
1828.267	1.051	1	test	Phase3	test/STIM_000.jpg
1833.07	0.87	1	test	Phase3	test/STIM_000.jpg
1837.334	1.03	1	test	Phase3	test/STIM_000.jpg
1841.674	0.912	1	test	Phase3	test/STIM_001.jpg
1845.566	0.988	1	test	Phase3	test/STIM_001.jpg
1849.199	1.125	1	test	Phase3	test/STIM_001.jpg
1854.061	1.147	1	test	Phase3	test/STIM_002.jpg
1857.661	0.886	1	test	Phase3	test/STIM_002.jpg
1860.611	0.943	1	test	Phase3	test/STIM_002.jpg
1865.304	0.905	1	test	Phase3	test/STIM_003.jpg
1868.925	0.845	1	test	Phase3	test/STIM_003.jpg
1873.126	1.297	1	test	Phase3	test/STIM_003.jpg
1877.711	0.799	1	test	Phase3	test/STIM_004.jpg
1881.593	0.931	1	test	Phase3	test/STIM_004.jpg
1886.284	0.673	1	test	Phase3	test/STIM_004.jpg
1889.882	0.848	1	test	Phase3	test/STIM_005.jpg
1894.36	1.032	1	test	Phase3	test/STIM_005.jpg
1898.021	0.89	1	test	Phase3	test/STIM_005.jpg
1902.834	1.137	1	test	Phase3	test/STIM_006.jpg
1907.359	1.028	1	test	Phase3	test/STIM_006.jpg
1912.315	1.145	1	test	Phase3	test/STIM_006.jpg
1915.838	1.306	1	test	Phase3	test/STIM_007.jpg
1921.032	1.118	1	test	Phase3	test/STIM_007.jpg
1925.228	1.246	1	test	Phase3	test/STIM_007.jpg
1930.207	1.047	1	test	Phase3	test/STIM_008.jpg
1934.001	0.632	1	test	Phase3	test/STIM_008.jpg
1938.426	1.143	1	test	Phase3	test/STIM_008.jpg
1941.796	0.649	0	test	Phase3	test/STIM_009.jpg
1945.696	0.725	1	test	Phase3	test/STIM_009.jpg
1950.419	1.171	1	test	Phase3	test/STIM_009.jpg
1955.218	1.14	1	test	Phase3	test/STIM_010.jpg
1960.21	1.24	1	test	Phase3	test/STIM_010.jpg
1964.466	0.772	1	test	Phase3	test/STIM_010.jpg
1968.102	1.023	1	test	Phase3	test/STIM_011.jpg
1971.552	1.312	1	test	Phase3	test/STIM_011.jpg
1976.496	1.201	1	test	Phase3	test/STIM_011.jpg
1981.662	0.936	1	test	Phase3	test/STIM_012.jpg
1985.329	1.043	1	test	Phase3	test/STIM_012.jpg
1990.199	0.983	1	test	Phase3	test/STIM_012.jpg
1994.639	0.935	1	test	Phase3	test/STIM_013.jpg
1999.183	1.209	1	test	Phase3	test/STIM_013.jpg
2003.535	0.628	1	test	Phase3	test/STIM_013.jpg
2006.413	1.231	1	test	Phase3	test/STIM_014.jpg
2009.978	1.177	1	test	Phase3	test/STIM_014.jpg
2013.944	1.014	1	test	Phase3	test/STIM_014.jpg
2017.316	0.899	0	test	Phase3	test/STIM_015.jpg
2021.654	0.732	1	test	Phase3	test/STIM_015.jpg
2025.507	1.283	1	test	Phase3	test/STIM_015.jpg
2030.651	0.758	1	test	Phase3	test/STIM_016.jpg
2033.59	1.314	1	test	Phase3	test/STIM_016.jpg
2037.03	0.763	0	test	Phase3	test/STIM_016.jpg
2040.84	1.058	1	test	Phase3	test/STIM_017.jpg
2045.367	0.858	1	test	Phase3	test/STIM_017.jpg
2048.293	0.842	1	test	Phase3	test/STIM_017.jpg
2052.452	1.184	1	test	Phase3	test/STIM_018.jpg
2056.623	0.777	1	test	Phase3	test/STIM_018.jpg
2060.695	1.093	1	test	Phase3	test/STIM_018.jpg
2064.351	0.753	1	test	Phase3	test/STIM_019.jpg
2068.948	0.762	1	test	Phase3	test/STIM_019.jpg
2072.768	1.067	1	test	Phase3	test/STIM_019.jpg
2076.381	1.102	1	test	Phase3	test/STIM_020.jpg
2080.789	0.824	1	test	Phase3	test/STIM_020.jpg
2083.867	1.204	1	test	Phase3	test/STIM_020.jpg
2087.732	0.815	1	test	Phase3	test/STIM_021.jpg
2091.747	1.179	1	test	Phase3	test/STIM_021.jpg
2096.798	0.645	1	test	Phase3	test/STIM_021.jpg
2100.267	1.233	1	test	Phase3	test/STIM_022.jpg
2104.641	1.08	1	test	Phase3	test/STIM_022.jpg
2108.885	0.646	1	test	Phase3	test/STIM_022.jpg
2112.288	0.864	1	test	Phase3	test/STIM_023.jpg
2116.787	1.238	1	test	Phase3	test/STIM_023.jpg
2120.818	0.795	1	test	Phase3	test/STIM_023.jpg
2124.957	0.845	1	test	Phase3	test/STIM_024.jpg
2128.545	1.005	1	test	Phase3	test/STIM_024.jpg
2133.473	1.132	1	test	Phase3	test/STIM_024.jpg
2137.219	0.646	1	test	Phase3	test/STIM_025.jpg
2140.438	1.121	1	test	Phase3	test/STIM_025.jpg
2143.65	1.029	1	test	Phase3	test/STIM_025.jpg
2147.936	1.294	1	test	Phase3	test/STIM_026.jpg
2152.149	0.963	1	test	Phase3	test/STIM_026.jpg
2155.873	1.31	1	test	Phase3	test/STIM_026.jpg
2159.619	0.684	1	test	Phase3	test/STIM_027.jpg
2162.382	1.103	1	test	Phase3	test/STIM_027.jpg
2166.961	1.167	1	test	Phase3	test/STIM_027.jpg
2170.362	0.743	1	test	Phase3	test/STIM_028.jpg
2173.364	0.676	1	test	Phase3	test/STIM_028.jpg
2177.49	1.211	1	test	Phase3	test/STIM_028.jpg
2181.585	1.308	1	test	Phase3	test/STIM_029.jpg
2186.633	0.839	1	test	Phase3	test/STIM_029.jpg
2189.918	1.138	1	test	Phase3	test/STIM_029.jpg
