onset	duration	response_time_ms	trial_type	learning_stage	stimulus	response_port
0.0	1.596	1595.7	study	Phase1	study/STIM_000.jpg	99
4.349	0.843	843.2	study	Phase1	study/STIM_000.jpg	100
7.925	1.015	1015.2	study	Phase1	study/STIM_000.jpg	99
11.3	1.78	1780.1	study	Phase1	study/STIM_001.jpg	100
15.561	1.412	1412.5	study	Phase1	study/STIM_001.jpg	100
19.44	1.565	1564.7	study	Phase1	study/STIM_001.jpg	100
24.216	1.163	1163.1	study	Phase1	study/STIM_002.jpg	99
28.592	1.589	1588.8	study	Phase1	study/STIM_002.jpg	100
32.166	0.942	941.9	study	Phase1	study/STIM_002.jpg	99
35.719	1.147	1147.0	study	Phase1	study/STIM_003.jpg	99
39.388	1.564	1563.9	study	Phase1	study/STIM_003.jpg	99
44.123	1.153	1153.4	study	Phase1	study/STIM_003.jpg	100
47.779	1.334	1333.7	study	Phase1	study/STIM_004.jpg	99
51.772	0.817	816.8	study	Phase1	study/STIM_004.jpg	100
54.657	1.542	1541.7	study	Phase1	study/STIM_004.jpg	99
59.858	1.479	1479.4	study	Phase1	study/STIM_005.jpg	99
63.592	1.028	1028.4	study	Phase1	study/STIM_005.jpg	100
67.621	1.212	1211.8	study	Phase1	study/STIM_005.jpg	99
71.754	1.424	1424.2	study	Phase1	study/STIM_006.jpg	100
77.093	1.586	1586.3	study	Phase1	study/STIM_006.jpg	100
81.768	1.253	1252.9	study	Phase1	study/STIM_006.jpg	100
85.868	1.032	1032.4	study	Phase1	study/STIM_007.jpg	99
90.763	1.315	1315.1	study	Phase1	study/STIM_007.jpg	100
95.391	1.658	1658.3	study	Phase1	study/STIM_007.jpg	100
100.376	1.664	1663.9	study	Phase1	study/STIM_008.jpg	99
105.415	1.664	1664.0	study	Phase1	study/STIM_008.jpg	100
109.168	0.862	861.6	study	Phase1	study/STIM_008.jpg	100
112.249	1.656	1656.4	study	Phase1	study/STIM_009.jpg	100
116.538	1.71	1710.0	study	Phase1	study/STIM_009.jpg	99
120.551	1.366	1365.7	study	Phase1	study/STIM_009.jpg	100
123.923	1.81	1809.5	study	Phase1	study/STIM_010.jpg	100
128.916	1.735	1734.8	study	Phase1	study/STIM_010.jpg	99
133.335	0.776	776.1	study	Phase1	study/STIM_010.jpg	100
136.796	1.803	1803.2	study	Phase1	study/STIM_011.jpg	99
140.599	1.739	1739.3	study	Phase1	study/STIM_011.jpg	99
145.848	0.845	845.0	study	Phase1	study/STIM_011.jpg	100
149.684	1.54	1540.3	study	Phase1	study/STIM_012.jpg	99
154.934	1.694	1693.5	study	Phase1	study/STIM_012.jpg	99
160.024	0.859	859.2	study	Phase1	study/STIM_012.jpg	99
164.502	1.164	1164.1	study	Phase1	study/STIM_013.jpg	99
168.461	1.08	1080.0	study	Phase1	study/STIM_013.jpg	99
172.398	1.421	1420.7	study	Phase1	study/STIM_013.jpg	99
176.19	1.332	1332.0	study	Phase1	study/STIM_014.jpg	99
180.908	1.284	1283.6	study	Phase1	study/STIM_014.jpg	99
185.695	1.479	1479.3	study	Phase1	study/STIM_014.jpg	100
189.797	1.56	1560.3	study	Phase1	study/STIM_015.jpg	99
194.408	1.41	1409.9	study	Phase1	study/STIM_015.jpg	100
199.382	1.647	1646.6	study	Phase1	study/STIM_015.jpg	100
203.873	1.292	1292.5	study	Phase1	study/STIM_016.jpg	99
207.455	1.001	1000.6	study	Phase1	study/STIM_016.jpg	100
211.958	0.868	868.1	study	Phase1	study/STIM_016.jpg	99
215.232	1.124	1124.4	study	Phase1	study/STIM_017.jpg	99
219.528	1.627	1626.9	study	Phase1	study/STIM_017.jpg	99
224.111	1.29	1289.6	study	Phase1	study/STIM_017.jpg	100
228.403	1.168	1168.5	study	Phase1	study/STIM_018.jpg	100
231.976	1.715	1715.0	study	Phase1	study/STIM_018.jpg	100
236.257	1.424	1424.5	study	Phase1	study/STIM_018.jpg	100
240.655	0.846	846.1	study	Phase1	study/STIM_019.jpg	99
245.394	1.621	1621.1	study	Phase1	study/STIM_019.jpg	99
250.627	1.058	1057.5	study	Phase1	study/STIM_019.jpg	100
254.258	0.911	911.1	study	Phase1	study/STIM_020.jpg	100
257.38	1.306	1305.5	study	Phase1	study/STIM_020.jpg	99
262.168	1.428	1428.0	study	Phase1	study/STIM_020.jpg	100
265.689	1.699	1698.8	study	Phase1	study/STIM_021.jpg	99
269.786	1.07	1069.5	study	Phase1	study/STIM_021.jpg	100
272.842	1.477	1476.7	study	Phase1	study/STIM_021.jpg	99
276.783	1.662	1661.6	study	Phase1	study/STIM_022.jpg	99
280.438	1.367	1366.8	study	Phase1	study/STIM_022.jpg	100
284.072	1.21	1210.0	study	Phase1	study/STIM_022.jpg	100
287.406	1.34	1339.6	study	Phase1	study/STIM_023.jpg	99
291.148	1.498	1498.5	study	Phase1	study/STIM_023.jpg	99
295.713	1.017	1017.3	study	Phase1	study/STIM_023.jpg	100
300.493	1.506	1505.9	study	Phase1	study/STIM_024.jpg	99
305.736	1.141	1141.4	study	Phase1	study/STIM_024.jpg	100
309.853	0.927	926.9	study	Phase1	study/STIM_024.jpg	99
313.693	1.223	1222.9	study	Phase1	study/STIM_025.jpg	99
318.493	1.706	1705.8	study	Phase1	study/STIM_025.jpg	99
322.481	1.431	1430.6	study	Phase1	study/STIM_025.jpg	100
325.955	1.316	1315.8	study	Phase1	study/STIM_026.jpg	99
329.488	1.368	1367.8	study	Phase1	study/STIM_026.jpg	99
333.241	1.132	1132.0	study	Phase1	study/STIM_026.jpg	99
338.009	1.61	1609.7	study	Phase1	study/STIM_027.jpg	100
342.938	1.38	1379.8	study	Phase1	study/STIM_027.jpg	100
347.024	1.211	1210.7	study	Phase1	study/STIM_027.jpg	99
351.347	1.829	1829.1	study	Phase1	study/STIM_028.jpg	99
356.015	0.974	973.5	study	Phase1	study/STIM_028.jpg	100
360.545	1.498	1498.0	study	Phase1	study/STIM_028.jpg	99
365.914	1.713	1712.7	study	Phase1	study/STIM_029.jpg	99
370.339	1.262	1262.2	study	Phase1	study/STIM_029.jpg	99
374.365	0.854	853.8	study	Phase1	study/STIM_029.jpg	99
378.361	0.712	712.2	test	Phase1	test/STIM_000.jpg	99
381.217	1.279	1279.4	test	Phase1	test/STIM_000.jpg	100
385.902	1.077	1077.4	test	Phase1	test/STIM_000.jpg	99
390.083	0.866	865.5	test	Phase1	test/STIM_001.jpg	100
394.819	0.931	931.1	test	Phase1	test/STIM_001.jpg	100
399.174	1.085	1085.1	test	Phase1	test/STIM_001.jpg	100
403.364	1.14	1140.2	test	Phase1	test/STIM_002.jpg	100
406.569	1.329	1329.0	test	Phase1	test/STIM_002.jpg	99
411.272	1.298	1298.4	test	Phase1	test/STIM_002.jpg	99
414.998	0.874	874.4	test	Phase1	test/STIM_003.jpg	100
419.025	1.047	1047.0	test	Phase1	test/STIM_003.jpg	100
423.766	0.679	678.9	test	Phase1	test/STIM_003.jpg	100
427.116	0.624	624.3	test	Phase1	test/STIM_004.jpg	99
430.443	0.991	991.4	test	Phase1	test/STIM_004.jpg	99
434.239	1.043	1043.0	test	Phase1	test/STIM_004.jpg	100
438.79	0.905	904.9	test	Phase1	test/STIM_005.jpg	99
441.748	0.674	673.9	test	Phase1	test/STIM_005.jpg	99
446.018	0.63	629.8	test	Phase1	test/STIM_005.jpg	100
449.86	1.19	1189.6	test	Phase1	test/STIM_006.jpg	100
453.323	0.87	870.5	test	Phase1	test/STIM_006.jpg	99
457.681	1.197	1197.4	test	Phase1	test/STIM_006.jpg	99
461.803	1.091	1090.6	test	Phase1	test/STIM_007.jpg	100
466.843	0.735	735.2	test	Phase1	test/STIM_007.jpg	99
469.871	0.816	816.0	test	Phase1	test/STIM_007.jpg	100
474.125	0.704	704.0	test	Phase1	test/STIM_008.jpg	100
477.22	1.312	1312.3	test	Phase1	test/STIM_008.jpg	99
480.508	0.764	764.1	test	Phase1	test/STIM_008.jpg	100
483.748	1.014	1014.1	test	Phase1	test/STIM_009.jpg	99
487.564	0.739	738.9	test	Phase1	test/STIM_009.jpg	99
491.423	1.066	1065.5	test	Phase1	test/STIM_009.jpg	100
495.261	0.769	769.1	test	Phase1	test/STIM_010.jpg	100
498.128	1.196	1195.7	test	Phase1	test/STIM_010.jpg	99
502.625	0.954	954.4	test	Phase1	test/STIM_010.jpg	100
507.019	0.738	738.2	test	Phase1	test/STIM_011.jpg	100
510.174	0.736	736.0	test	Phase1	test/STIM_011.jpg	99
513.12	1.119	1119.4	test	Phase1	test/STIM_011.jpg	100
517.564	1.123	1122.6	test	Phase1	test/STIM_012.jpg	100
522.438	0.807	806.6	test	Phase1	test/STIM_012.jpg	99
525.659	0.992	991.5	test	Phase1	test/STIM_012.jpg	99
528.755	0.678	677.9	test	Phase1	test/STIM_013.jpg	100
531.428	1.11	1109.5	test	Phase1	test/STIM_013.jpg	100
535.299	1.122	1122.4	test	Phase1	test/STIM_013.jpg	100
539.453	1.286	1285.6	test	Phase1	test/STIM_014.jpg	99
543.242	0.691	690.6	test	Phase1	test/STIM_014.jpg	100
547.457	1.315	1314.9	test	Phase1	test/STIM_014.jpg	99
550.828	0.714	713.8	test	Phase1	test/STIM_015.jpg	100
554.166	0.806	806.2	test	Phase1	test/STIM_015.jpg	99
557.194	0.865	865.0	test	Phase1	test/STIM_015.jpg	99
561.987	0.819	819.1	test	Phase1	test/STIM_016.jpg	100
566.055	0.626	626.5	test	Phase1	test/STIM_016.jpg	99
569.575	0.747	746.7	test	Phase1	test/STIM_016.jpg	100
574.302	1.216	1216.2	test	Phase1	test/STIM_017.jpg	99
579.341	1.203	1202.9	test	Phase1	test/STIM_017.jpg	99
583.975	0.895	895.4	test	Phase1	test/STIM_017.jpg	99
588.596	0.762	761.7	test	Phase1	test/STIM_018.jpg	100
593.201	1.116	1116.3	test	Phase1	test/STIM_018.jpg	99
596.533	1.03	1030.2	test	Phase1	test/STIM_018.jpg	100
601.125	0.919	919.3	test	Phase1	test/STIM_019.jpg	99
605.598	1.292	1291.6	test	Phase1	test/STIM_019.jpg	99
609.133	1.052	1051.8	test	Phase1	test/STIM_019.jpg	100
613.383	0.739	738.7	test	Phase1	test/STIM_020.jpg	100
617.355	0.935	935.0	test	Phase1	test/STIM_020.jpg	100
621.017	0.726	725.8	test	Phase1	test/STIM_020.jpg	100
625.653	1.246	1245.8	test	Phase1	test/STIM_021.jpg	99
629.354	0.961	961.2	test	Phase1	test/STIM_021.jpg	99
634.146	1.054	1054.4	test	Phase1	test/STIM_021.jpg	99
638.567	0.688	687.5	test	Phase1	test/STIM_022.jpg	100
641.637	0.878	877.6	test	Phase1	test/STIM_022.jpg	99
646.453	0.837	837.3	test	Phase1	test/STIM_022.jpg	99
650.241	0.972	971.7	test	Phase1	test/STIM_023.jpg	99
654.824	1.325	1325.3	test	Phase1	test/STIM_023.jpg	100
658.717	0.871	871.4	test	Phase1	test/STIM_023.jpg	100
662.941	0.679	679.2	test	Phase1	test/STIM_024.jpg	99
666.01	0.979	978.8	test	Phase1	test/STIM_024.jpg	99
670.127	0.95	949.7	test	Phase1	test/STIM_024.jpg	100
674.352	0.913	913.1	test	Phase1	test/STIM_025.jpg	99
678.545	0.656	655.7	test	Phase1	test/STIM_025.jpg	100
681.576	0.642	642.3	test	Phase1	test/STIM_025.jpg	100
684.538	0.926	925.8	test	Phase1	test/STIM_026.jpg	100
689.034	1.05	1050.4	test	Phase1	test/STIM_026.jpg	100
692.132	0.828	828.2	test	Phase1	test/STIM_026.jpg	99
695.482	1.041	1040.8	test	Phase1	test/STIM_027.jpg	99
699.108	1.024	1024.5	test	Phase1	test/STIM_027.jpg	100
703.562	0.631	630.8	test	Phase1	test/STIM_027.jpg	99
707.918	1.031	1030.7	test	Phase1	test/STIM_028.jpg	100
712.128	0.88	879.8	test	Phase1	test/STIM_028.jpg	99
716.609	0.957	956.9	test	Phase1	test/STIM_028.jpg	100
721.431	0.733	733.0	test	Phase1	test/STIM_029.jpg	99
724.341	0.704	703.9	test	Phase1	test/STIM_029.jpg	100
728.425	1.096	1096.4	test	Phase1	test/STIM_029.jpg	100
732.647	1.126	1125.5	study	Phase2	study/STIM_000.jpg	99
737.495	0.937	937.1	study	Phase2	study/STIM_000.jpg	100
740.96	0.736	735.5	study	Phase2	study/STIM_000.jpg	100
744.676	1.503	1502.8	study	Phase2	study/STIM_001.jpg	100
749.303	0.834	834.1	study	Phase2	study/STIM_001.jpg	100
753.047	1.178	1178.3	study	Phase2	study/STIM_001.jpg	100
756.867	1.514	1513.5	study	Phase2	study/STIM_002.jpg	100
762.218	0.845	844.6	study	Phase2	study/STIM_002.jpg	100
765.71	1.192	1191.5	study	Phase2	study/STIM_002.jpg	100
770.697	1.1	1100.3	study	Phase2	study/STIM_003.jpg	100
774.996	1.234	1234.0	study	Phase2	study/STIM_003.jpg	99
779.898	0.659	659.4	study	Phase2	study/STIM_003.jpg	100
783.592	0.731	730.9	study	Phase2	study/STIM_004.jpg	100
787.518	0.752	752.3	study	Phase2	study/STIM_004.jpg	100
792.151	0.751	751.0	study	Phase2	study/STIM_004.jpg	99
796.067	1.087	1086.6	study	Phase2	study/STIM_005.jpg	99
800.732	1.451	1451.0	study	Phase2	study/STIM_005.jpg	100
805.643	1.081	1081.3	study	Phase2	study/STIM_005.jpg	100
808.828	0.832	831.6	study	Phase2	study/STIM_006.jpg	99
812.939	0.718	717.7	study	Phase2	study/STIM_006.jpg	100
815.666	1.203	1203.2	study	Phase2	study/STIM_006.jpg	100
819.881	1.194	1193.9	study	Phase2	study/STIM_007.jpg	99
824.86	1.305	1305.3	study	Phase2	study/STIM_007.jpg	99
828.349	0.862	861.6	study	Phase2	study/STIM_007.jpg	100
832.412	1.311	1310.9	study	Phase2	study/STIM_008.jpg	100
836.009	1.2	1200.1	study	Phase2	study/STIM_008.jpg	100
839.919	0.916	916.3	study	Phase2	study/STIM_008.jpg	99
844.211	0.789	788.9	study	Phase2	study/STIM_009.jpg	99
848.329	1.456	1455.6	study	Phase2	study/STIM_009.jpg	99
852.246	0.665	665.3	study	Phase2	study/STIM_009.jpg	100
855.708	0.856	856.3	study	Phase2	study/STIM_010.jpg	99
858.865	0.944	943.7	study	Phase2	study/STIM_010.jpg	99
863.155	1.081	1081.0	study	Phase2	study/STIM_010.jpg	99
866.461	1.298	1298.2	study	Phase2	study/STIM_011.jpg	99
870.001	1.071	1070.6	study	Phase2	study/STIM_011.jpg	99
874.048	0.622	621.9	study	Phase2	study/STIM_011.jpg	100
877.279	0.769	769.1	study	Phase2	study/STIM_012.jpg	100
880.81	1.02	1019.5	study	Phase2	study/STIM_012.jpg	99
883.972	0.968	967.9	study	Phase2	study/STIM_012.jpg	100
888.724	1.362	1361.6	study	Phase2	study/STIM_013.jpg	99
892.385	0.692	692.4	study	Phase2	study/STIM_013.jpg	100
896.022	0.784	783.5	study	Phase2	study/STIM_013.jpg	100
898.851	1.443	1443.1	study	Phase2	study/STIM_014.jpg	100
904.198	1.436	1436.5	study	Phase2	study/STIM_014.jpg	100
907.917	0.785	785.3	study	Phase2	study/STIM_014.jpg	99
911.536	1.194	1193.6	study	Phase2	study/STIM_015.jpg	100
914.853	1.156	1155.9	study	Phase2	study/STIM_015.jpg	99
919.635	0.646	645.7	study	Phase2	study/STIM_015.jpg	100
923.106	1.193	1193.2	study	Phase2	study/STIM_016.jpg	99
928.137	0.97	969.7	study	Phase2	study/STIM_016.jpg	100
931.57	1.214	1214.4	study	Phase2	study/STIM_016.jpg	99
934.967	1.106	1106.4	study	Phase2	study/STIM_017.jpg	100
938.119	0.706	706.4	study	Phase2	study/STIM_017.jpg	100
942.279	1.304	1303.7	study	Phase2	study/STIM_017.jpg	100
946.359	1.089	1089.3	study	Phase2	study/STIM_018.jpg	100
951.37	0.967	967.1	study	Phase2	study/STIM_018.jpg	100
954.893	1.352	1352.3	study	Phase2	study/STIM_018.jpg	99
958.845	0.967	967.1	study	Phase2	study/STIM_019.jpg	99
963.056	1.249	1249.1	study	Phase2	study/STIM_019.jpg	99
968.021	1.185	1185.4	study	Phase2	study/STIM_019.jpg	100
972.585	1.366	1366.5	study	Phase2	study/STIM_020.jpg	100
976.715	0.759	758.7	study	Phase2	study/STIM_020.jpg	99
980.556	1.343	1342.9	study	Phase2	study/STIM_020.jpg	100
985.381	0.906	906.2	study	Phase2	study/STIM_021.jpg	100
989.455	1.01	1010.3	study	Phase2	study/STIM_021.jpg	100
992.845	1.164	1163.6	study	Phase2	study/STIM_021.jpg	99
997.761	1.217	1216.7	study	Phase2	study/STIM_022.jpg	99
1002.315	1.376	1375.8	study	Phase2	study/STIM_022.jpg	99
1007.028	0.837	837.1	study	Phase2	study/STIM_022.jpg	100
1010.875	1.142	1142.4	study	Phase2	study/STIM_023.jpg	100
1014.379	1.085	1085.1	study	Phase2	study/STIM_023.jpg	99
1017.802	0.741	740.8	study	Phase2	study/STIM_023.jpg	100
1021.906	1.119	1118.9	study	Phase2	study/STIM_024.jpg	100
1025.944	1.34	1339.8	study	Phase2	study/STIM_024.jpg	100
1029.457	1.236	1236.4	study	Phase2	study/STIM_024.jpg	100
1033.989	1.345	1345.3	study	Phase2	study/STIM_025.jpg	99
1037.898	0.872	872.0	study	Phase2	study/STIM_025.jpg	100
1041.358	1.347	1346.7	study	Phase2	study/STIM_025.jpg	100
1045.154	0.974	973.5	study	Phase2	study/STIM_026.jpg	99
1048.259	0.788	788.3	study	Phase2	study/STIM_026.jpg	99
1052.222	0.78	780.0	study	Phase2	study/STIM_026.jpg	100
1054.996	1.221	1220.8	study	Phase2	study/STIM_027.jpg	99
1059.473	1.052	1051.7	study	Phase2	study/STIM_027.jpg	100
1062.677	0.62	620.0	study	Phase2	study/STIM_027.jpg	99
1066.895	1.442	1442.4	study	Phase2	study/STIM_028.jpg	100
1072.078	1.362	1362.0	study	Phase2	study/STIM_028.jpg	100
1076.133	1.25	1250.2	study	Phase2	study/STIM_028.jpg	100
1080.16	1.287	1287.0	study	Phase2	study/STIM_029.jpg	100
1084.417	0.801	800.9	study	Phase2	study/STIM_029.jpg	99
1087.803	0.966	966.2	study	Phase2	study/STIM_029.jpg	99
1092.17	1.004	1003.8	test	Phase2	test/STIM_000.jpg	100
1095.577	1.049	1048.8	test	Phase2	test/STIM_000.jpg	99
1100.169	1.325	1325.2	test	Phase2	test/STIM_000.jpg	100
1103.493	0.974	973.5	test	Phase2	test/STIM_001.jpg	100
1106.94	1.157	1156.6	test	Phase2	test/STIM_001.jpg	99
1110.852	1.294	1294.2	test	Phase2	test/STIM_001.jpg	100
1115.566	1.009	1008.9	test	Phase2	test/STIM_002.jpg	100
1119.186	1.243	1243.4	test	Phase2	test/STIM_002.jpg	99
1123.018	0.642	642.0	test	Phase2	test/STIM_002.jpg	100
1126.351	0.769	769.3	test	Phase2	test/STIM_003.jpg	99
1130.208	1.324	1323.7	test	Phase2	test/STIM_003.jpg	100
1134.604	0.772	772.3	test	Phase2	test/STIM_003.jpg	99
1138.015	1.213	1213.4	test	Phase2	test/STIM_004.jpg	100
1142.679	0.629	629.4	test	Phase2	test/STIM_004.jpg	100
1146.135	1.285	1285.2	test	Phase2	test/STIM_004.jpg	100
1150.818	1.02	1019.6	test	Phase2	test/STIM_005.jpg	99
1155.211	1.011	1010.9	test	Phase2	test/STIM_005.jpg	99
1158.271	1.29	1289.7	test	Phase2	test/STIM_005.jpg	99
1162.588	1.232	1231.5	test	Phase2	test/STIM_006.jpg	100
1166.629	1.217	1216.9	test	Phase2	test/STIM_006.jpg	99
1170.755	0.781	781.2	test	Phase2	test/STIM_006.jpg	100
1175.307	0.878	877.8	test	Phase2	test/STIM_007.jpg	100
1178.914	1.005	1004.8	test	Phase2	test/STIM_007.jpg	100
1183.381	1.179	1178.6	test	Phase2	test/STIM_007.jpg	99
1188.25	0.869	869.4	test	Phase2	test/STIM_008.jpg	99
1192.399	0.942	941.6	test	Phase2	test/STIM_008.jpg	99
1196.463	1.217	1217.1	test	Phase2	test/STIM_008.jpg	100
1200.716	0.849	848.7	test	Phase2	test/STIM_009.jpg	99
1203.658	1.256	1256.0	test	Phase2	test/STIM_009.jpg	100
1208.382	0.854	854.2	test	Phase2	test/STIM_009.jpg	100
1211.597	1.299	1298.9	test	Phase2	test/STIM_010.jpg	100
1215.639	0.855	854.6	test	Phase2	test/STIM_010.jpg	100
1219.476	0.736	735.9	test	Phase2	test/STIM_010.jpg	100
1222.667	0.627	626.9	test	Phase2	test/STIM_011.jpg	99
1226.0	0.786	785.9	test	Phase2	test/STIM_011.jpg	100
1229.674	1.238	1238.2	test	Phase2	test/STIM_011.jpg	100
1232.892	1.139	1138.9	test	Phase2	test/STIM_012.jpg	100
1237.1	1.174	1174.0	test	Phase2	test/STIM_012.jpg	99
1240.999	1.288	1288.3	test	Phase2	test/STIM_012.jpg	100
1244.469	1.239	1238.7	test	Phase2	test/STIM_013.jpg	100
1248.424	1.002	1002.0	test	Phase2	test/STIM_013.jpg	99
1253.17	0.951	950.9	test	Phase2	test/STIM_013.jpg	99
1256.335	1.056	1055.5	test	Phase2	test/STIM_014.jpg	99
1259.955	1.257	1257.2	test	Phase2	test/STIM_014.jpg	99
1264.977	1.119	1118.9	test	Phase2	test/STIM_014.jpg	100
1269.467	0.922	921.8	test	Phase2	test/STIM_015.jpg	99
1273.835	0.828	828.4	test	Phase2	test/STIM_015.jpg	99
1277.138	1.156	1156.2	test	Phase2	test/STIM_015.jpg	99
1280.82	0.85	849.7	test	Phase2	test/STIM_016.jpg	100
1284.173	1.049	1049.3	test	Phase2	test/STIM_016.jpg	100
1287.439	0.726	725.7	test	Phase2	test/STIM_016.jpg	99
1290.484	1.313	1313.3	test	Phase2	test/STIM_017.jpg	100
1294.124	0.919	918.6	test	Phase2	test/STIM_017.jpg	100
1298.39	1.236	1236.5	test	Phase2	test/STIM_017.jpg	100
1302.455	0.9	900.3	test	Phase2	test/STIM_018.jpg	99
1305.405	1.04	1039.6	test	Phase2	test/STIM_018.jpg	99
1309.991	1.232	1232.3	test	Phase2	test/STIM_018.jpg	99
1314.408	1.255	1255.0	test	Phase2	test/STIM_019.jpg	99
1319.388	0.661	660.9	test	Phase2	test/STIM_019.jpg	99
1322.201	0.878	878.5	test	Phase2	test/STIM_019.jpg	99
1325.172	1.236	1235.8	test	Phase2	test/STIM_020.jpg	100
1329.964	1.265	1264.9	test	Phase2	test/STIM_020.jpg	99
1334.926	1.3	1299.5	test	Phase2	test/STIM_020.jpg	99
1340.188	0.629	629.3	test	Phase2	test/STIM_021.jpg	99
1342.965	1.148	1148.1	test	Phase2	test/STIM_021.jpg	100
1346.671	1.072	1072.2	test	Phase2	test/STIM_021.jpg	100
1349.99	0.989	988.6	test	Phase2	test/STIM_022.jpg	99
1354.127	1.001	1000.7	test	Phase2	test/STIM_022.jpg	99
1358.831	0.617	617.3	test	Phase2	test/STIM_022.jpg	100
1363.26	1.001	1001.4	test	Phase2	test/STIM_023.jpg	99
1367.244	1.178	1178.0	test	Phase2	test/STIM_023.jpg	99
1371.87	1.238	1238.2	test	Phase2	test/STIM_023.jpg	99
1375.816	1.038	1038.1	test	Phase2	test/STIM_024.jpg	99
1380.644	0.998	997.9	test	Phase2	test/STIM_024.jpg	99
1385.364	0.78	780.5	test	Phase2	test/STIM_024.jpg	99
1388.65	1.031	1031.3	test	Phase2	test/STIM_025.jpg	99
1392.68	0.682	681.6	test	Phase2	test/STIM_025.jpg	100
1396.515	0.666	665.6	test	Phase2	test/STIM_025.jpg	99
1399.687	0.701	700.9	test	Phase2	test/STIM_026.jpg	99
1403.565	1.218	1217.6	test	Phase2	test/STIM_026.jpg	99
1407.26	0.651	650.7	test	Phase2	test/STIM_026.jpg	100
1411.747	0.718	718.3	test	Phase2	test/STIM_027.jpg	100
1416.037	1.28	1280.5	test	Phase2	test/STIM_027.jpg	99
1419.751	0.744	743.5	test	Phase2	test/STIM_027.jpg	99
1423.387	1.071	1070.6	test	Phase2	test/STIM_028.jpg	100
1427.087	1.062	1062.0	test	Phase2	test/STIM_028.jpg	99
1431.9	1.238	1238.3	test	Phase2	test/STIM_028.jpg	99
1435.595	1.312	1311.8	test	Phase2	test/STIM_029.jpg	99
1438.91	0.951	951.4	test	Phase2	test/STIM_029.jpg	100
1442.103	0.616	615.6	test	Phase2	test/STIM_029.jpg	100
1445.209	0.792	792.3	study	Phase3	study/STIM_000.jpg	100
1447.998	1.142	1142.1	study	Phase3	study/STIM_000.jpg	100
1451.878	0.624	623.8	study	Phase3	study/STIM_000.jpg	99
1456.339	0.952	951.9	study	Phase3	study/STIM_001.jpg	100
1460.574	0.625	625.0	study	Phase3	study/STIM_001.jpg	99
1464.125	0.752	752.2	study	Phase3	study/STIM_001.jpg	99
1468.477	0.772	772.1	study	Phase3	study/STIM_002.jpg	99
1471.988	0.981	981.3	study	Phase3	study/STIM_002.jpg	100
1476.245	0.748	748.3	study	Phase3	study/STIM_002.jpg	100
1479.507	1.05	1050.4	study	Phase3	study/STIM_003.jpg	100
1484.295	0.901	901.4	study	Phase3	study/STIM_003.jpg	99
1487.346	1.132	1131.5	study	Phase3	study/STIM_003.jpg	99
1491.271	0.798	798.4	study	Phase3	study/STIM_004.jpg	99
1494.232	1.031	1031.0	study	Phase3	study/STIM_004.jpg	100
1498.57	0.99	990.0	study	Phase3	study/STIM_004.jpg	99
1502.62	0.822	821.7	study	Phase3	study/STIM_005.jpg	100
1506.465	1.271	1270.8	study	Phase3	study/STIM_005.jpg	100
1511.599	0.574	574.4	study	Phase3	study/STIM_005.jpg	100
1515.414	0.795	794.7	study	Phase3	study/STIM_006.jpg	99
1519.62	1.021	1020.6	study	Phase3	study/STIM_006.jpg	99
1524.01	1.133	1133.3	study	Phase3	study/STIM_006.jpg	100
1528.74	1.253	1252.9	study	Phase3	study/STIM_007.jpg	100
1533.776	0.77	769.8	study	Phase3	study/STIM_007.jpg	100
1538.412	1.018	1018.3	study	Phase3	study/STIM_007.jpg	100
1542.405	1.215	1214.9	study	Phase3	study/STIM_008.jpg	100
1547.287	1.143	1143.1	study	Phase3	study/STIM_008.jpg	99
1550.929	0.93	929.7	study	Phase3	study/STIM_008.jpg	99
1554.905	0.587	587.4	study	Phase3	study/STIM_009.jpg	100
1559.426	1.006	1006.2	study	Phase3	study/STIM_009.jpg	100
1563.425	1.074	1074.2	study	Phase3	study/STIM_009.jpg	99
1567.478	1.057	1057.0	study	Phase3	study/STIM_010.jpg	100
1571.386	1.112	1111.7	study	Phase3	study/STIM_010.jpg	100
1576.283	0.892	891.8	study	Phase3	study/STIM_010.jpg	100
1579.252	0.916	916.0	study	Phase3	study/STIM_011.jpg	100
1582.659	0.997	997.1	study	Phase3	study/STIM_011.jpg	100
1586.065	1.02	1019.9	study	Phase3	study/STIM_011.jpg	100
1589.466	0.705	704.8	study	Phase3	study/STIM_012.jpg	100
1592.393	0.785	784.6	study	Phase3	study/STIM_012.jpg	99
1596.841	1.08	1080.0	study	Phase3	study/STIM_012.jpg	100
1600.425	0.982	982.2	study	Phase3	study/STIM_013.jpg	99
1604.721	0.707	706.6	study	Phase3	study/STIM_013.jpg	100
1607.807	1.236	1235.9	study	Phase3	study/STIM_013.jpg	100
1611.794	1.232	1231.9	study	Phase3	study/STIM_014.jpg	99
1616.005	1.066	1066.1	study	Phase3	study/STIM_014.jpg	100
1619.661	0.968	967.7	study	Phase3	study/STIM_014.jpg	99
1623.8	0.903	902.8	study	Phase3	study/STIM_015.jpg	100
1628.306	1.138	1138.2	study	Phase3	study/STIM_015.jpg	99
1633.289	0.585	584.9	study	Phase3	study/STIM_015.jpg	99
1637.675	1.073	1072.7	study	Phase3	study/STIM_016.jpg	100
1641.035	0.991	991.0	study	Phase3	study/STIM_016.jpg	100
1644.426	0.808	808.2	study	Phase3	study/STIM_016.jpg	99
1647.934	1.023	1023.3	study	Phase3	study/STIM_017.jpg	100
1651.945	0.861	860.7	study	Phase3	study/STIM_017.jpg	99
1655.269	0.97	970.3	study	Phase3	study/STIM_017.jpg	100
1659.602	1.172	1171.9	study	Phase3	study/STIM_018.jpg	100
1664.454	1.246	1246.4	study	Phase3	study/STIM_018.jpg	99
1668.928	0.766	765.6	study	Phase3	study/STIM_018.jpg	99
1673.314	0.608	607.9	study	Phase3	study/STIM_019.jpg	100
1677.609	0.995	994.9	study	Phase3	study/STIM_019.jpg	99
1680.734	1.097	1097.3	study	Phase3	study/STIM_019.jpg	99
1685.001	1.232	1231.6	study	Phase3	study/STIM_020.jpg	99
1689.743	1.147	1147.2	study	Phase3	study/STIM_020.jpg	100
1694.693	0.709	709.0	study	Phase3	study/STIM_020.jpg	99
1699.127	1.066	1066.0	study	Phase3	study/STIM_021.jpg	100
1702.343	0.851	850.7	study	Phase3	study/STIM_021.jpg	99
1705.383	1.18	1180.4	study	Phase3	study/STIM_021.jpg	99
1709.844	1.026	1026.5	study	Phase3	study/STIM_022.jpg	100
1712.955	0.68	680.4	study	Phase3	study/STIM_022.jpg	100
1717.517	1.238	1237.5	study	Phase3	study/STIM_022.jpg	99
1722.475	0.741	741.4	study	Phase3	study/STIM_023.jpg	99
1726.716	1.263	1263.0	study	Phase3	study/STIM_023.jpg	100
1731.412	1.101	1100.9	study	Phase3	study/STIM_023.jpg	99
1736.436	0.748	748.4	study	Phase3	study/STIM_024.jpg	100
1740.791	1.016	1015.5	study	Phase3	study/STIM_024.jpg	99
1744.301	1.177	1176.9	study	Phase3	study/STIM_024.jpg	99
1749.375	0.858	858.2	study	Phase3	study/STIM_025.jpg	100
1753.936	1.266	1266.5	study	Phase3	study/STIM_025.jpg	99
1758.162	0.632	631.7	study	Phase3	study/STIM_025.jpg	99
1762.243	0.744	744.3	study	Phase3	study/STIM_026.jpg	99
1766.249	0.856	855.6	study	Phase3	study/STIM_026.jpg	100
1770.026	0.94	940.4	study	Phase3	study/STIM_026.jpg	100
1774.1	0.623	623.2	study	Phase3	study/STIM_027.jpg	99
1778.131	1.098	1098.1	study	Phase3	study/STIM_027.jpg	100
1781.572	0.612	612.4	study	Phase3	study/STIM_027.jpg	99
1785.188	1.219	1218.6	study	Phase3	study/STIM_028.jpg	99
1789.19	0.874	874.3	study	Phase3	study/STIM_028.jpg	100
1792.435	0.621	621.1	study	Phase3	study/STIM_028.jpg	99
1796.266	1.189	1189.0	study	Phase3	study/STIM_029.jpg	99
1799.929	0.807	807.4	study	Phase3	study/STIM_029.jpg	99
1804.672	0.961	961.3	study	Phase3	study/STIM_029.jpg	99
1808.334	1.236	1235.6	test	Phase3	test/STIM_000.jpg	100
1812.647	1.134	1134.4	test	Phase3	test/STIM_000.jpg	100
1816.142	0.728	728.4	test	Phase3	test/STIM_000.jpg	100
1819.225	0.948	947.9	test	Phase3	test/STIM_001.jpg	100
1822.985	0.984	983.8	test	Phase3	test/STIM_001.jpg	100
1826.626	0.924	923.7	test	Phase3	test/STIM_001.jpg	99
1830.102	0.953	953.0	test	Phase3	test/STIM_002.jpg	99
1834.767	0.952	951.8	test	Phase3	test/STIM_002.jpg	99
1839.519	0.856	855.5	test	Phase3	test/STIM_002.jpg	99
1843.852	0.65	650.3	test	Phase3	test/STIM_003.jpg	99
1847.632	1.237	1236.7	test	Phase3	test/STIM_003.jpg	99
1852.325	1.141	1141.3	test	Phase3	test/STIM_003.jpg	100
1856.561	0.666	665.8	test	Phase3	test/STIM_004.jpg	100
1860.559	0.725	725.4	test	Phase3	test/STIM_004.jpg	99
1863.277	0.804	803.9	test	Phase3	test/STIM_004.jpg	99
1867.428	0.956	956.5	test	Phase3	test/STIM_005.jpg	100
1870.535	1.122	1121.6	test	Phase3	test/STIM_005.jpg	99
1874.473	0.822	821.7	test	Phase3	test/STIM_005.jpg	100
1878.853	1.274	1273.6	test	Phase3	test/STIM_006.jpg	99
1883.153	1.073	1073.4	test	Phase3	test/STIM_006.jpg	99
1886.563	0.66	659.5	test	Phase3	test/STIM_006.jpg	99
1889.618	0.964	963.7	test	Phase3	test/STIM_007.jpg	99
1894.243	0.833	832.8	test	Phase3	test/STIM_007.jpg	100
1897.064	1.22	1220.3	test	Phase3	test/STIM_007.jpg	99
1900.457	0.622	621.9	test	Phase3	test/STIM_008.jpg	100
1904.345	1.013	1013.4	test	Phase3	test/STIM_008.jpg	99
1908.882	0.825	824.9	test	Phase3	test/STIM_008.jpg	99
1911.843	1.021	1020.6	test	Phase3	test/STIM_009.jpg	100
1915.407	1.281	1281.0	test	Phase3	test/STIM_009.jpg	100
1919.126	1.09	1090.0	test	Phase3	test/STIM_009.jpg	99
1922.434	0.681	681.1	test	Phase3	test/STIM_010.jpg	99
1926.695	1.249	1249.1	test	Phase3	test/STIM_010.jpg	99
1930.954	1.11	1110.5	test	Phase3	test/STIM_010.jpg	100
1934.686	0.729	728.8	test	Phase3	test/STIM_011.jpg	100
1938.792	1.191	1191.3	test	Phase3	test/STIM_011.jpg	100
1943.131	0.654	653.5	test	Phase3	test/STIM_011.jpg	99
1947.103	1.114	1114.1	test	Phase3	test/STIM_012.jpg	99
1951.182	0.829	828.9	test	Phase3	test/STIM_012.jpg	100
1955.546	0.711	711.4	test	Phase3	test/STIM_012.jpg	99
1958.683	0.834	834.4	test	Phase3	test/STIM_013.jpg	100
1963.428	0.829	829.3	test	Phase3	test/STIM_013.jpg	99
1967.514	0.741	741.2	test	Phase3	test/STIM_013.jpg	99
1972.002	1.017	1017.4	test	Phase3	test/STIM_014.jpg	100
1975.569	0.776	775.9	test	Phase3	test/STIM_014.jpg	100
1978.981	1.089	1088.6	test	Phase3	test/STIM_014.jpg	99
1982.931	0.845	844.6	test	Phase3	test/STIM_015.jpg	99
1986.928	1.213	1212.6	test	Phase3	test/STIM_015.jpg	100
1990.449	1.222	1221.9	test	Phase3	test/STIM_015.jpg	100
1994.301	1.05	1049.5	test	Phase3	test/STIM_016.jpg	100
1997.379	1.2	1199.6	test	Phase3	test/STIM_016.jpg	100
2001.238	1.043	1043.1	test	Phase3	test/STIM_016.jpg	99
2005.748	0.96	959.5	test	Phase3	test/STIM_017.jpg	100
2009.999	0.689	688.7	test	Phase3	test/STIM_017.jpg	99
2013.693	0.886	886.0	test	Phase3	test/STIM_017.jpg	100
2017.834	0.734	734.2	test	Phase3	test/STIM_018.jpg	100
2020.894	1.168	1167.9	test	Phase3	test/STIM_018.jpg	100
2025.914	0.947	946.8	test	Phase3	test/STIM_018.jpg	99
2030.193	0.817	817.3	test	Phase3	test/STIM_019.jpg	99
2034.703	0.715	714.8	test	Phase3	test/STIM_019.jpg	99
2038.977	0.757	757.4	test	Phase3	test/STIM_019.jpg	99
2042.38	0.899	898.9	test	Phase3	test/STIM_020.jpg	100
2046.546	0.97	969.8	test	Phase3	test/STIM_020.jpg	100
2050.89	1.159	1158.9	test	Phase3	test/STIM_020.jpg	99
2055.447	1.014	1014.4	test	Phase3	test/STIM_021.jpg	99
2060.002	1.316	1316.3	test	Phase3	test/STIM_021.jpg	99
2064.865	1.274	1273.9	test	Phase3	test/STIM_021.jpg	99
2068.835	1.184	1184.5	test	Phase3	test/STIM_022.jpg	100
2073.869	0.654	654.5	test	Phase3	test/STIM_022.jpg	100
2077.681	0.917	916.6	test	Phase3	test/STIM_022.jpg	99
2082.176	0.98	979.8	test	Phase3	test/STIM_023.jpg	100
2086.078	0.843	842.9	test	Phase3	test/STIM_023.jpg	99
2090.685	0.794	794.3	test	Phase3	test/STIM_023.jpg	99
2094.181	0.709	709.2	test	Phase3	test/STIM_024.jpg	99
2097.832	1.022	1022.1	test	Phase3	test/STIM_024.jpg	100
2102.136	0.986	986.5	test	Phase3	test/STIM_024.jpg	100
2105.308	1.12	1120.2	test	Phase3	test/STIM_025.jpg	100
2108.814	0.628	628.1	test	Phase3	test/STIM_025.jpg	99
2111.8	0.74	740.5	test	Phase3	test/STIM_025.jpg	100
2115.957	0.976	975.8	test	Phase3	test/STIM_026.jpg	100
2119.117	0.854	854.0	test	Phase3	test/STIM_026.jpg	99
2123.947	0.981	980.8	test	Phase3	test/STIM_026.jpg	100
2127.32	0.869	868.9	test	Phase3	test/STIM_027.jpg	100
2131.517	1.038	1038.1	test	Phase3	test/STIM_027.jpg	99
2136.206	0.755	755.4	test	Phase3	test/STIM_027.jpg	100
2140.62	0.946	946.0	test	Phase3	test/STIM_028.jpg	100
2145.218	1.293	1292.9	test	Phase3	test/STIM_028.jpg	99
2150.105	1.005	1005.2	test	Phase3	test/STIM_028.jpg	100
2154.998	1.201	1201.0	test	Phase3	test/STIM_029.jpg	100
2159.054	1.29	1290.5	test	Phase3	test/STIM_029.jpg	100
2163.755	0.687	686.8	test	Phase3	test/STIM_029.jpg	100
