onset	duration	accuracy	trial_type	learning_stage	stimulus
0.0	1.596	correct	study	Phase1	study/STIM_000.jpg
4.349	0.843	correct	study	Phase1	study/STIM_000.jpg
7.925	1.015	correct	study	Phase1	study/STIM_000.jpg
11.3	1.78	correct	study	Phase1	study/STIM_001.jpg
15.561	1.412	correct	study	Phase1	study/STIM_001.jpg
19.44	1.565	correct	study	Phase1	study/STIM_001.jpg
24.216	1.163	correct	study	Phase1	study/STIM_002.jpg
28.592	1.589	correct	study	Phase1	study/STIM_002.jpg
32.166	0.942	correct	study	Phase1	study/STIM_002.jpg
35.719	1.147	correct	study	Phase1	study/STIM_003.jpg
39.388	1.564	correct	study	Phase1	study/STIM_003.jpg
44.123	1.153	correct	study	Phase1	study/STIM_003.jpg
47.779	1.334	correct	study	Phase1	study/STIM_004.jpg
51.772	0.817	correct	study	Phase1	study/STIM_004.jpg
54.657	1.542	incorrect	study	Phase1	study/STIM_004.jpg
59.858	1.479	correct	study	Phase1	study/STIM_005.jpg
63.592	1.028	correct	study	Phase1	study/STIM_005.jpg
67.621	1.212	correct	study	Phase1	study/STIM_005.jpg
71.754	1.424	correct	study	Phase1	study/STIM_006.jpg
77.093	1.586	correct	study	Phase1	study/STIM_006.jpg
81.768	1.253	correct	study	Phase1	study/STIM_006.jpg
85.868	1.032	incorrect	study	Phase1	study/STIM_007.jpg
90.763	1.315	correct	study	Phase1	study/STIM_007.jpg
95.391	1.658	incorrect	study	Phase1	study/STIM_007.jpg
100.376	1.664	correct	study	Phase1	study/STIM_008.jpg
105.415	1.664	correct	study	Phase1	study/STIM_008.jpg
109.168	0.862	incorrect	study	Phase1	study/STIM_008.jpg
112.249	1.656	correct	study	Phase1	study/STIM_009.jpg
116.538	1.71	correct	study	Phase1	study/STIM_009.jpg
120.551	1.366	correct	study	Phase1	study/STIM_009.jpg
123.923	1.81	correct	study	Phase1	study/STIM_010.jpg
128.916	1.735	correct	study	Phase1	study/STIM_010.jpg
133.335	0.776	correct	study	Phase1	study/STIM_010.jpg
136.796	1.803	correct	study	Phase1	study/STIM_011.jpg
140.599	1.739	incorrect	study	Phase1	study/STIM_011.jpg
145.848	0.845	correct	study	Phase1	study/STIM_011.jpg
149.684	1.54	correct	study	Phase1	study/STIM_012.jpg
154.934	1.694	correct	study	Phase1	study/STIM_012.jpg
160.024	0.859	correct	study	Phase1	study/STIM_012.jpg
164.502	1.164	correct	study	Phase1	study/STIM_013.jpg
168.461	1.08	correct	study	Phase1	study/STIM_013.jpg
172.398	1.421	correct	study	Phase1	study/STIM_013.jpg
176.19	1.332	incorrect	study	Phase1	study/STIM_014.jpg
180.908	1.284	correct	study	Phase1	study/STIM_014.jpg
185.695	1.479	correct	study	Phase1	study/STIM_014.jpg
189.797	1.56	correct	study	Phase1	study/STIM_015.jpg
194.408	1.41	correct	study	Phase1	study/STIM_015.jpg
199.382	1.647	correct	study	Phase1	study/STIM_015.jpg
203.873	1.292	correct	study	Phase1	study/STIM_016.jpg
207.455	1.001	correct	study	Phase1	study/STIM_016.jpg
211.958	0.868	correct	study	Phase1	study/STIM_016.jpg
215.232	1.124	correct	study	Phase1	study/STIM_017.jpg
219.528	1.627	correct	study	Phase1	study/STIM_017.jpg
224.111	1.29	correct	study	Phase1	study/STIM_017.jpg
228.403	1.168	correct	study	Phase1	study/STIM_018.jpg
231.976	1.715	correct	study	Phase1	study/STIM_018.jpg
236.257	1.424	correct	study	Phase1	study/STIM_018.jpg
240.655	0.846	correct	study	Phase1	study/STIM_019.jpg
245.394	1.621	incorrect	study	Phase1	study/STIM_019.jpg
250.627	1.058	correct	study	Phase1	study/STIM_019.jpg
254.258	0.911	correct	study	Phase1	study/STIM_020.jpg
257.38	1.306	correct	study	Phase1	study/STIM_020.jpg
262.168	1.428	correct	study	Phase1	study/STIM_020.jpg
265.689	1.699	correct	study	Phase1	study/STIM_021.jpg
269.786	1.07	correct	study	Phase1	study/STIM_021.jpg
272.842	1.477	correct	study	Phase1	study/STIM_021.jpg
276.783	1.662	correct	study	Phase1	study/STIM_022.jpg
280.438	1.367	correct	study	Phase1	study/STIM_022.jpg
284.072	1.21	correct	study	Phase1	study/STIM_022.jpg
287.406	1.34	correct	study	Phase1	study/STIM_023.jpg
291.148	1.498	correct	study	Phase1	study/STIM_023.jpg
295.713	1.017	incorrect	study	Phase1	study/STIM_023.jpg
300.493	1.506	incorrect	study	Phase1	study/STIM_024.jpg
305.736	1.141	incorrect	study	Phase1	study/STIM_024.jpg
309.853	0.927	correct	study	Phase1	study/STIM_024.jpg
313.693	1.223	correct	study	Phase1	study/STIM_025.jpg
318.493	1.706	correct	study	Phase1	study/STIM_025.jpg
322.481	1.431	incorrect	study	Phase1	study/STIM_025.jpg
325.955	1.316	correct	study	Phase1	study/STIM_026.jpg
329.488	1.368	correct	study	Phase1	study/STIM_026.jpg
333.241	1.132	correct	study	Phase1	study/STIM_026.jpg
338.009	1.61	correct	study	Phase1	study/STIM_027.jpg
342.938	1.38	correct	study	Phase1	study/STIM_027.jpg
347.024	1.211	correct	study	Phase1	study/STIM_027.jpg
351.347	1.829	incorrect	study	Phase1	study/STIM_028.jpg
356.015	0.974	correct	study	Phase1	study/STIM_028.jpg
360.545	1.498	correct	study	Phase1	study/STIM_028.jpg
365.914	1.713	correct	study	Phase1	study/STIM_029.jpg
370.339	1.262	correct	study	Phase1	study/STIM_029.jpg
374.365	0.854	correct	study	Phase1	study/STIM_029.jpg
378.361	0.712	correct	test	Phase1	test/STIM_000.jpg
381.217	1.279	incorrect	test	Phase1	test/STIM_000.jpg
385.902	1.077	correct	test	Phase1	test/STIM_000.jpg
390.083	0.866	correct	test	Phase1	test/STIM_001.jpg
394.819	0.931	correct	test	Phase1	test/STIM_001.jpg
399.174	1.085	correct	test	Phase1	test/STIM_001.jpg
403.364	1.14	correct	test	Phase1	test/STIM_002.jpg
406.569	1.329	correct	test	Phase1	test/STIM_002.jpg
411.272	1.298	correct	test	Phase1	test/STIM_002.jpg
414.998	0.874	correct	test	Phase1	test/STIM_003.jpg
419.025	1.047	correct	test	Phase1	test/STIM_003.jpg
423.766	0.679	correct	test	Phase1	test/STIM_003.jpg
427.116	0.624	correct	test	Phase1	test/STIM_004.jpg
430.443	0.991	correct	test	Phase1	test/STIM_004.jpg
434.239	1.043	correct	test	Phase1	test/STIM_004.jpg
438.79	0.905	incorrect	test	Phase1	test/STIM_005.jpg
441.748	0.674	correct	test	Phase1	test/STIM_005.jpg
446.018	0.63	correct	test	Phase1	test/STIM_005.jpg
449.86	1.19	correct	test	Phase1	test/STIM_006.jpg
453.323	0.87	correct	test	Phase1	test/STIM_006.jpg
457.681	1.197	correct	test	Phase1	test/STIM_006.jpg
461.803	1.091	correct	test	Phase1	test/STIM_007.jpg
466.843	0.735	correct	test	Phase1	test/STIM_007.jpg
469.871	0.816	correct	test	Phase1	test/STIM_007.jpg
474.125	0.704	correct	test	Phase1	test/STIM_008.jpg
477.22	1.312	correct	test	Phase1	test/STIM_008.jpg
480.508	0.764	correct	test	Phase1	test/STIM_008.jpg
483.748	1.014	correct	test	Phase1	test/STIM_009.jpg
487.564	0.739	correct	test	Phase1	test/STIM_009.jpg
491.423	1.066	correct	test	Phase1	test/STIM_009.jpg
495.261	0.769	correct	test	Phase1	test/STIM_010.jpg
498.128	1.196	correct	test	Phase1	test/STIM_010.jpg
502.625	0.954	correct	test	Phase1	test/STIM_010.jpg
507.019	0.738	correct	test	Phase1	test/STIM_011.jpg
510.174	0.736	correct	test	Phase1	test/STIM_011.jpg
513.12	1.119	correct	test	Phase1	test/STIM_011.jpg
517.564	1.123	correct	test	Phase1	test/STIM_012.jpg
522.438	0.807	correct	test	Phase1	test/STIM_012.jpg
525.659	0.992	correct	test	Phase1	test/STIM_012.jpg
528.755	0.678	incorrect	test	Phase1	test/STIM_013.jpg
531.428	1.11	correct	test	Phase1	test/STIM_013.jpg
535.299	1.122	correct	test	Phase1	test/STIM_013.jpg
539.453	1.286	correct	test	Phase1	test/STIM_014.jpg
543.242	0.691	correct	test	Phase1	test/STIM_014.jpg
547.457	1.315	correct	test	Phase1	test/STIM_014.jpg
550.828	0.714	correct	test	Phase1	test/STIM_015.jpg
554.166	0.806	correct	test	Phase1	test/STIM_015.jpg
557.194	0.865	correct	test	Phase1	test/STIM_015.jpg
561.987	0.819	correct	test	Phase1	test/STIM_016.jpg
566.055	0.626	correct	test	Phase1	test/STIM_016.jpg
569.575	0.747	correct	test	Phase1	test/STIM_016.jpg
574.302	1.216	correct	test	Phase1	test/STIM_017.jpg
579.341	1.203	correct	test	Phase1	test/STIM_017.jpg
583.975	0.895	incorrect	test	Phase1	test/STIM_017.jpg
588.596	0.762	correct	test	Phase1	test/STIM_018.jpg
593.201	1.116	correct	test	Phase1	test/STIM_018.jpg
596.533	1.03	correct	test	Phase1	test/STIM_018.jpg
601.125	0.919	correct	test	Phase1	test/STIM_019.jpg
605.598	1.292	correct	test	Phase1	test/STIM_019.jpg
609.133	1.052	incorrect	test	Phase1	test/STIM_019.jpg
613.383	0.739	correct	test	Phase1	test/STIM_020.jpg
617.355	0.935	correct	test	Phase1	test/STIM_020.jpg
621.017	0.726	correct	test	Phase1	test/STIM_020.jpg
625.653	1.246	incorrect	test	Phase1	test/STIM_021.jpg
629.354	0.961	correct	test	Phase1	test/STIM_021.jpg
634.146	1.054	correct	test	Phase1	test/STIM_021.jpg
638.567	0.688	correct	test	Phase1	test/STIM_022.jpg
641.637	0.878	correct	test	Phase1	test/STIM_022.jpg
646.453	0.837	correct	test	Phase1	test/STIM_022.jpg
650.241	0.972	correct	test	Phase1	test/STIM_023.jpg
654.824	1.325	correct	test	Phase1	test/STIM_023.jpg
658.717	0.871	correct	test	Phase1	test/STIM_023.jpg
662.941	0.679	correct	test	Phase1	test/STIM_024.jpg
666.01	0.979	correct	test	Phase1	test/STIM_024.jpg
670.127	0.95	correct	test	Phase1	test/STIM_024.jpg
674.352	0.913	correct	test	Phase1	test/STIM_025.jpg
678.545	0.656	correct	test	Phase1	test/STIM_025.jpg
681.576	0.642	correct	test	Phase1	test/STIM_025.jpg
684.538	0.926	correct	test	Phase1	test/STIM_026.jpg
689.034	1.05	incorrect	test	Phase1	test/STIM_026.jpg
692.132	0.828	correct	test	Phase1	test/STIM_026.jpg
695.482	1.041	correct	test	Phase1	test/STIM_027.jpg
699.108	1.024	correct	test	Phase1	test/STIM_027.jpg
703.562	0.631	incorrect	test	Phase1	test/STIM_027.jpg
707.918	1.031	correct	test	Phase1	test/STIM_028.jpg
712.128	0.88	incorrect	test	Phase1	test/STIM_028.jpg
716.609	0.957	correct	test	Phase1	test/STIM_028.jpg
721.431	0.733	correct	test	Phase1	test/STIM_029.jpg
724.341	0.704	correct	test	Phase1	test/STIM_029.jpg
728.425	1.096	correct	test	Phase1	test/STIM_029.jpg
732.647	1.126	correct	study	Phase2	study/STIM_000.jpg
737.495	0.937	correct	study	Phase2	study/STIM_000.jpg
740.96	0.736	incorrect	study	Phase2	study/STIM_000.jpg
744.676	1.503	correct	study	Phase2	study/STIM_001.jpg
749.303	0.834	incorrect	study	Phase2	study/STIM_001.jpg
753.047	1.178	correct	study	Phase2	study/STIM_001.jpg
756.867	1.514	incorrect	study	Phase2	study/STIM_002.jpg
762.218	0.845	correct	study	Phase2	study/STIM_002.jpg
765.71	1.192	correct	study	Phase2	study/STIM_002.jpg
770.697	1.1	correct	study	Phase2	study/STIM_003.jpg
774.996	1.234	correct	study	Phase2	study/STIM_003.jpg
779.898	0.659	correct	study	Phase2	study/STIM_003.jpg
783.592	0.731	incorrect	study	Phase2	study/STIM_004.jpg
787.518	0.752	correct	study	Phase2	study/STIM_004.jpg
792.151	0.751	correct	study	Phase2	study/STIM_004.jpg
796.067	1.087	correct	study	Phase2	study/STIM_005.jpg
800.732	1.451	correct	study	Phase2	study/STIM_005.jpg
805.643	1.081	correct	study	Phase2	study/STIM_005.jpg
808.828	0.832	correct	study	Phase2	study/STIM_006.jpg
812.939	0.718	correct	study	Phase2	study/STIM_006.jpg
815.666	1.203	correct	study	Phase2	study/STIM_006.jpg
819.881	1.194	correct	study	Phase2	study/STIM_007.jpg
824.86	1.305	correct	study	Phase2	study/STIM_007.jpg
828.349	0.862	correct	study	Phase2	study/STIM_007.jpg
832.412	1.311	correct	study	Phase2	study/STIM_008.jpg
836.009	1.2	correct	study	Phase2	study/STIM_008.jpg
839.919	0.916	correct	study	Phase2	study/STIM_008.jpg
844.211	0.789	correct	study	Phase2	study/STIM_009.jpg
848.329	1.456	correct	study	Phase2	study/STIM_009.jpg
852.246	0.665	correct	study	Phase2	study/STIM_009.jpg
855.708	0.856	correct	study	Phase2	study/STIM_010.jpg
858.865	0.944	correct	study	Phase2	study/STIM_010.jpg
863.155	1.081	correct	study	Phase2	study/STIM_010.jpg
866.461	1.298	correct	study	Phase2	study/STIM_011.jpg
870.001	1.071	correct	study	Phase2	study/STIM_011.jpg
874.048	0.622	correct	study	Phase2	study/STIM_011.jpg
877.279	0.769	correct	study	Phase2	study/STIM_012.jpg
880.81	1.02	incorrect	study	Phase2	study/STIM_012.jpg
883.972	0.968	correct	study	Phase2	study/STIM_012.jpg
888.724	1.362	correct	study	Phase2	study/STIM_013.jpg
892.385	0.692	incorrect	study	Phase2	study/STIM_013.jpg
896.022	0.784	correct	study	Phase2	study/STIM_013.jpg
898.851	1.443	correct	study	Phase2	study/STIM_014.jpg
904.198	1.436	correct	study	Phase2	study/STIM_014.jpg
907.917	0.785	correct	study	Phase2	study/STIM_014.jpg
911.536	1.194	correct	study	Phase2	study/STIM_015.jpg
914.853	1.156	correct	study	Phase2	study/STIM_015.jpg
919.635	0.646	correct	study	Phase2	study/STIM_015.jpg
923.106	1.193	correct	study	Phase2	study/STIM_016.jpg
928.137	0.97	correct	study	Phase2	study/STIM_016.jpg
931.57	1.214	correct	study	Phase2	study/STIM_016.jpg
934.967	1.106	correct	study	Phase2	study/STIM_017.jpg
938.119	0.706	correct	study	Phase2	study/STIM_017.jpg
942.279	1.304	correct	study	Phase2	study/STIM_017.jpg
946.359	1.089	correct	study	Phase2	study/STIM_018.jpg
951.37	0.967	correct	study	Phase2	study/STIM_018.jpg
954.893	1.352	correct	study	Phase2	study/STIM_018.jpg
958.845	0.967	correct	study	Phase2	study/STIM_019.jpg
963.056	1.249	correct	study	Phase2	study/STIM_019.jpg
968.021	1.185	correct	study	Phase2	study/STIM_019.jpg
972.585	1.366	correct	study	Phase2	study/STIM_020.jpg
976.715	0.759	correct	study	Phase2	study/STIM_020.jpg
980.556	1.343	correct	study	Phase2	study/STIM_020.jpg
985.381	0.906	correct	study	Phase2	study/STIM_021.jpg
989.455	1.01	correct	study	Phase2	study/STIM_021.jpg
992.845	1.164	correct	study	Phase2	study/STIM_021.jpg
997.761	1.217	incorrect	study	Phase2	study/STIM_022.jpg
1002.315	1.376	correct	study	Phase2	study/STIM_022.jpg
1007.028	0.837	correct	study	Phase2	study/STIM_022.jpg
1010.875	1.142	correct	study	Phase2	study/STIM_023.jpg
1014.379	1.085	correct	study	Phase2	study/STIM_023.jpg
1017.802	0.741	correct	study	Phase2	study/STIM_023.jpg
1021.906	1.119	incorrect	study	Phase2	study/STIM_024.jpg
1025.944	1.34	correct	study	Phase2	study/STIM_024.jpg
1029.457	1.236	correct	study	Phase2	study/STIM_024.jpg
1033.989	1.345	correct	study	Phase2	study/STIM_025.jpg
1037.898	0.872	correct	study	Phase2	study/STIM_025.jpg
1041.358	1.347	correct	study	Phase2	study/STIM_025.jpg
1045.154	0.974	correct	study	Phase2	study/STIM_026.jpg
1048.259	0.788	correct	study	Phase2	study/STIM_026.jpg
1052.222	0.78	correct	study	Phase2	study/STIM_026.jpg
1054.996	1.221	incorrect	study	Phase2	study/STIM_027.jpg
1059.473	1.052	correct	study	Phase2	study/STIM_027.jpg
1062.677	0.62	correct	study	Phase2	study/STIM_027.jpg
1066.895	1.442	correct	study	Phase2	study/STIM_028.jpg
1072.078	1.362	correct	study	Phase2	study/STIM_028.jpg
1076.133	1.25	correct	study	Phase2	study/STIM_028.jpg
1080.16	1.287	correct	study	Phase2	study/STIM_029.jpg
1084.417	0.801	incorrect	study	Phase2	study/STIM_029.jpg
1087.803	0.966	correct	study	Phase2	study/STIM_029.jpg
1092.17	1.004	correct	test	Phase2	test/STIM_000.jpg
1095.577	1.049	correct	test	Phase2	test/STIM_000.jpg
1100.169	1.325	incorrect	test	Phase2	test/STIM_000.jpg
1103.493	0.974	correct	test	Phase2	test/STIM_001.jpg
1106.94	1.157	correct	test	Phase2	test/STIM_001.jpg
1110.852	1.294	incorrect	test	Phase2	test/STIM_001.jpg
1115.566	1.009	correct	test	Phase2	test/STIM_002.jpg
1119.186	1.243	correct	test	Phase2	test/STIM_002.jpg
1123.018	0.642	correct	test	Phase2	test/STIM_002.jpg
1126.351	0.769	incorrect	test	Phase2	test/STIM_003.jpg
1130.208	1.324	correct	test	Phase2	test/STIM_003.jpg
1134.604	0.772	correct	test	Phase2	test/STIM_003.jpg
1138.015	1.213	correct	test	Phase2	test/STIM_004.jpg
1142.679	0.629	incorrect	test	Phase2	test/STIM_004.jpg
1146.135	1.285	correct	test	Phase2	test/STIM_004.jpg
1150.818	1.02	correct	test	Phase2	test/STIM_005.jpg
1155.211	1.011	correct	test	Phase2	test/STIM_005.jpg
1158.271	1.29	correct	test	Phase2	test/STIM_005.jpg
1162.588	1.232	correct	test	Phase2	test/STIM_006.jpg
1166.629	1.217	correct	test	Phase2	test/STIM_006.jpg
1170.755	0.781	correct	test	Phase2	test/STIM_006.jpg
1175.307	0.878	correct	test	Phase2	test/STIM_007.jpg
1178.914	1.005	correct	test	Phase2	test/STIM_007.jpg
1183.381	1.179	incorrect	test	Phase2	test/STIM_007.jpg
1188.25	0.869	correct	test	Phase2	test/STIM_008.jpg
1192.399	0.942	correct	test	Phase2	test/STIM_008.jpg
1196.463	1.217	correct	test	Phase2	test/STIM_008.jpg
1200.716	0.849	correct	test	Phase2	test/STIM_009.jpg
1203.658	1.256	correct	test	Phase2	test/STIM_009.jpg
1208.382	0.854	correct	test	Phase2	test/STIM_009.jpg
1211.597	1.299	correct	test	Phase2	test/STIM_010.jpg
1215.639	0.855	incorrect	test	Phase2	test/STIM_010.jpg
1219.476	0.736	correct	test	Phase2	test/STIM_010.jpg
1222.667	0.627	correct	test	Phase2	test/STIM_011.jpg
1226.0	0.786	correct	test	Phase2	test/STIM_011.jpg
1229.674	1.238	correct	test	Phase2	test/STIM_011.jpg
1232.892	1.139	correct	test	Phase2	test/STIM_012.jpg
1237.1	1.174	correct	test	Phase2	test/STIM_012.jpg
1240.999	1.288	correct	test	Phase2	test/STIM_012.jpg
1244.469	1.239	correct	test	Phase2	test/STIM_013.jpg
1248.424	1.002	incorrect	test	Phase2	test/STIM_013.jpg
1253.17	0.951	correct	test	Phase2	test/STIM_013.jpg
1256.335	1.056	correct	test	Phase2	test/STIM_014.jpg
1259.955	1.257	correct	test	Phase2	test/STIM_014.jpg
1264.977	1.119	correct	test	Phase2	test/STIM_014.jpg
1269.467	0.922	correct	test	Phase2	test/STIM_015.jpg
1273.835	0.828	correct	test	Phase2	test/STIM_015.jpg
1277.138	1.156	correct	test	Phase2	test/STIM_015.jpg
1280.82	0.85	correct	test	Phase2	test/STIM_016.jpg
1284.173	1.049	correct	test	Phase2	test/STIM_016.jpg
1287.439	0.726	incorrect	test	Phase2	test/STIM_016.jpg
1290.484	1.313	correct	test	Phase2	test/STIM_017.jpg
1294.124	0.919	correct	test	Phase2	test/STIM_017.jpg
1298.39	1.236	correct	test	Phase2	test/STIM_017.jpg
1302.455	0.9	correct	test	Phase2	test/STIM_018.jpg
1305.405	1.04	correct	test	Phase2	test/STIM_018.jpg
1309.991	1.232	correct	test	Phase2	test/STIM_018.jpg
1314.408	1.255	correct	test	Phase2	test/STIM_019.jpg
1319.388	0.661	correct	test	Phase2	test/STIM_019.jpg
1322.201	0.878	correct	test	Phase2	test/STIM_019.jpg
1325.172	1.236	correct	test	Phase2	test/STIM_020.jpg
1329.964	1.265	correct	test	Phase2	test/STIM_020.jpg
1334.926	1.3	incorrect	test	Phase2	test/STIM_020.jpg
1340.188	0.629	correct	test	Phase2	test/STIM_021.jpg
1342.965	1.148	correct	test	Phase2	test/STIM_021.jpg
1346.671	1.072	correct	test	Phase2	test/STIM_021.jpg
1349.99	0.989	correct	test	Phase2	test/STIM_022.jpg
1354.127	1.001	correct	test	Phase2	test/STIM_022.jpg
1358.831	0.617	correct	test	Phase2	test/STIM_022.jpg
1363.26	1.001	incorrect	test	Phase2	test/STIM_023.jpg
1367.244	1.178	correct	test	Phase2	test/STIM_023.jpg
1371.87	1.238	correct	test	Phase2	test/STIM_023.jpg
1375.816	1.038	correct	test	Phase2	test/STIM_024.jpg
1380.644	0.998	correct	test	Phase2	test/STIM_024.jpg
1385.364	0.78	correct	test	Phase2	test/STIM_024.jpg
1388.65	1.031	correct	test	Phase2	test/STIM_025.jpg
1392.68	0.682	correct	test	Phase2	test/STIM_025.jpg
1396.515	0.666	correct	test	Phase2	test/STIM_025.jpg
1399.687	0.701	correct	test	Phase2	test/STIM_026.jpg
1403.565	1.218	incorrect	test	Phase2	test/STIM_026.jpg
1407.26	0.651	incorrect	test	Phase2	test/STIM_026.jpg
1411.747	0.718	correct	test	Phase2	test/STIM_027.jpg
1416.037	1.28	correct	test	Phase2	test/STIM_027.jpg
1419.751	0.744	correct	test	Phase2	test/STIM_027.jpg
1423.387	1.071	correct	test	Phase2	test/STIM_028.jpg
1427.087	1.062	correct	test	Phase2	test/STIM_028.jpg
1431.9	1.238	correct	test	Phase2	test/STIM_028.jpg
1435.595	1.312	correct	test	Phase2	test/STIM_029.jpg
1438.91	0.951	correct	test	Phase2	test/STIM_029.jpg
1442.103	0.616	correct	test	Phase2	test/STIM_029.jpg
1445.209	0.792	correct	study	Phase3	study/STIM_000.jpg
1447.998	1.142	incorrect	study	Phase3	study/STIM_000.jpg
1451.878	0.624	correct	study	Phase3	study/STIM_000.jpg
1456.339	0.952	correct	study	Phase3	study/STIM_001.jpg
1460.574	0.625	correct	study	Phase3	study/STIM_001.jpg
1464.125	0.752	correct	study	Phase3	study/STIM_001.jpg
1468.477	0.772	correct	study	Phase3	study/STIM_002.jpg
1471.988	0.981	correct	study	Phase3	study/STIM_002.jpg
1476.245	0.748	correct	study	Phase3	study/STIM_002.jpg
1479.507	1.05	correct	study	Phase3	study/STIM_003.jpg
1484.295	0.901	correct	study	Phase3	study/STIM_003.jpg
1487.346	1.132	correct	study	Phase3	study/STIM_003.jpg
1491.271	0.798	correct	study	Phase3	study/STIM_004.jpg
1494.232	1.031	correct	study	Phase3	study/STIM_004.jpg
1498.57	0.99	correct	study	Phase3	study/STIM_004.jpg
1502.62	0.822	correct	study	Phase3	study/STIM_005.jpg
1506.465	1.271	correct	study	Phase3	study/STIM_005.jpg
1511.599	0.574	correct	study	Phase3	study/STIM_005.jpg
1515.414	0.795	correct	study	Phase3	study/STIM_006.jpg
1519.62	1.021	correct	study	Phase3	study/STIM_006.jpg
1524.01	1.133	correct	study	Phase3	study/STIM_006.jpg
1528.74	1.253	correct	study	Phase3	study/STIM_007.jpg
1533.776	0.77	correct	study	Phase3	study/STIM_007.jpg
1538.412	1.018	correct	study	Phase3	study/STIM_007.jpg
1542.405	1.215	correct	study	Phase3	study/STIM_008.jpg
1547.287	1.143	correct	study	Phase3	study/STIM_008.jpg
1550.929	0.93	correct	study	Phase3	study/STIM_008.jpg
1554.905	0.587	correct	study	Phase3	study/STIM_009.jpg
1559.426	1.006	correct	study	Phase3	study/STIM_009.jpg
1563.425	1.074	incorrect	study	Phase3	study/STIM_009.jpg
1567.478	1.057	correct	study	Phase3	study/STIM_010.jpg
1571.386	1.112	correct	study	Phase3	study/STIM_010.jpg
1576.283	0.892	correct	study	Phase3	study/STIM_010.jpg
1579.252	0.916	correct	study	Phase3	study/STIM_011.jpg
1582.659	0.997	correct	study	Phase3	study/STIM_011.jpg
1586.065	1.02	correct	study	Phase3	study/STIM_011.jpg
1589.466	0.705	correct	study	Phase3	study/STIM_012.jpg
1592.393	0.785	correct	study	Phase3	study/STIM_012.jpg
1596.841	1.08	correct	study	Phase3	study/STIM_012.jpg
1600.425	0.982	correct	study	Phase3	study/STIM_013.jpg
1604.721	0.707	correct	study	Phase3	study/STIM_013.jpg
1607.807	1.236	correct	study	Phase3	study/STIM_013.jpg
1611.794	1.232	correct	study	Phase3	study/STIM_014.jpg
1616.005	1.066	correct	study	Phase3	study/STIM_014.jpg
1619.661	0.968	correct	study	Phase3	study/STIM_014.jpg
1623.8	0.903	correct	study	Phase3	study/STIM_015.jpg
1628.306	1.138	correct	study	Phase3	study/STIM_015.jpg
1633.289	0.585	correct	study	Phase3	study/STIM_015.jpg
1637.675	1.073	correct	study	Phase3	study/STIM_016.jpg
1641.035	0.991	correct	study	Phase3	study/STIM_016.jpg
1644.426	0.808	correct	study	Phase3	study/STIM_016.jpg
1647.934	1.023	correct	study	Phase3	study/STIM_017.jpg
1651.945	0.861	correct	study	Phase3	study/STIM_017.jpg
1655.269	0.97	correct	study	Phase3	study/STIM_017.jpg
1659.602	1.172	correct	study	Phase3	study/STIM_018.jpg
1664.454	1.246	correct	study	Phase3	study/STIM_018.jpg
1668.928	0.766	correct	study	Phase3	study/STIM_018.jpg
1673.314	0.608	correct	study	Phase3	study/STIM_019.jpg
1677.609	0.995	correct	study	Phase3	study/STIM_019.jpg
1680.734	1.097	correct	study	Phase3	study/STIM_019.jpg
1685.001	1.232	correct	study	Phase3	study/STIM_020.jpg
1689.743	1.147	correct	study	Phase3	study/STIM_020.jpg
1694.693	0.709	correct	study	Phase3	study/STIM_020.jpg
1699.127	1.066	incorrect	study	Phase3	study/STIM_021.jpg
1702.343	0.851	correct	study	Phase3	study/STIM_021.jpg
1705.383	1.18	correct	study	Phase3	study/STIM_021.jpg
1709.844	1.026	correct	study	Phase3	study/STIM_022.jpg
1712.955	0.68	correct	study	Phase3	study/STIM_022.jpg
1717.517	1.238	correct	study	Phase3	study/STIM_022.jpg
1722.475	0.741	correct	study	Phase3	study/STIM_023.jpg
1726.716	1.263	correct	study	Phase3	study/STIM_023.jpg
1731.412	1.101	correct	study	Phase3	study/STIM_023.jpg
1736.436	0.748	correct	study	Phase3	study/STIM_024.jpg
1740.791	1.016	correct	study	Phase3	study/STIM_024.jpg
1744.301	1.177	correct	study	Phase3	study/STIM_024.jpg
1749.375	0.858	correct	study	Phase3	study/STIM_025.jpg
1753.936	1.266	correct	study	Phase3	study/STIM_025.jpg
1758.162	0.632	correct	study	Phase3	study/STIM_025.jpg
1762.243	0.744	correct	study	Phase3	study/STIM_026.jpg
1766.249	0.856	correct	study	Phase3	study/STIM_026.jpg
1770.026	0.94	correct	study	Phase3	study/STIM_026.jpg
1774.1	0.623	correct	study	Phase3	study/STIM_027.jpg
1778.131	1.098	correct	study	Phase3	study/STIM_027.jpg
1781.572	0.612	correct	study	Phase3	study/STIM_027.jpg
1785.188	1.219	correct	study	Phase3	study/STIM_028.jpg
1789.19	0.874	correct	study	Phase3	study/STIM_028.jpg
1792.435	0.621	correct	study	Phase3	study/STIM_028.jpg
1796.266	1.189	correct	study	Phase3	study/STIM_029.jpg
1799.929	0.807	correct	study	Phase3	study/STIM_029.jpg
1804.672	0.961	correct	study	Phase3	study/STIM_029.jpg
1808.334	1.236	correct	test	Phase3	test/STIM_000.jpg
1812.647	1.134	correct	test	Phase3	test/STIM_000.jpg
1816.142	0.728	correct	test	Phase3	test/STIM_000.jpg
1819.225	0.948	correct	test	Phase3	test/STIM_001.jpg
1822.985	0.984	correct	test	Phase3	test/STIM_001.jpg
1826.626	0.924	correct	test	Phase3	test/STIM_001.jpg
1830.102	0.953	correct	test	Phase3	test/STIM_002.jpg
1834.767	0.952	correct	test	Phase3	test/STIM_002.jpg
1839.519	0.856	correct	test	Phase3	test/STIM_002.jpg
1843.852	0.65	correct	test	Phase3	test/STIM_003.jpg
1847.632	1.237	correct	test	Phase3	test/STIM_003.jpg
1852.325	1.141	correct	test	Phase3	test/STIM_003.jpg
1856.561	0.666	correct	test	Phase3	test/STIM_004.jpg
1860.559	0.725	correct	test	Phase3	test/STIM_004.jpg
1863.277	0.804	correct	test	Phase3	test/STIM_004.jpg
1867.428	0.956	correct	test	Phase3	test/STIM_005.jpg
1870.535	1.122	correct	test	Phase3	test/STIM_005.jpg
1874.473	0.822	correct	test	Phase3	test/STIM_005.jpg
1878.853	1.274	correct	test	Phase3	test/STIM_006.jpg
1883.153	1.073	incorrect	test	Phase3	test/STIM_006.jpg
1886.563	0.66	incorrect	test	Phase3	test/STIM_006.jpg
1889.618	0.964	correct	test	Phase3	test/STIM_007.jpg
1894.243	0.833	correct	test	Phase3	test/STIM_007.jpg
1897.064	1.22	correct	test	Phase3	test/STIM_007.jpg
1900.457	0.622	correct	test	Phase3	test/STIM_008.jpg
1904.345	1.013	correct	test	Phase3	test/STIM_008.jpg
1908.882	0.825	correct	test	Phase3	test/STIM_008.jpg
1911.843	1.021	incorrect	test	Phase3	test/STIM_009.jpg
1915.407	1.281	correct	test	Phase3	test/STIM_009.jpg
1919.126	1.09	correct	test	Phase3	test/STIM_009.jpg
1922.434	0.681	correct	test	Phase3	test/STIM_010.jpg
1926.695	1.249	correct	test	Phase3	test/STIM_010.jpg
1930.954	1.11	correct	test	Phase3	test/STIM_010.jpg
1934.686	0.729	correct	test	Phase3	test/STIM_011.jpg
1938.792	1.191	correct	test	Phase3	test/STIM_011.jpg
1943.131	0.654	correct	test	Phase3	test/STIM_011.jpg
1947.103	1.114	correct	test	Phase3	test/STIM_012.jpg
1951.182	0.829	correct	test	Phase3	test/STIM_012.jpg
1955.546	0.711	correct	test	Phase3	test/STIM_012.jpg
1958.683	0.834	correct	test	Phase3	test/STIM_013.jpg
1963.428	0.829	correct	test	Phase3	test/STIM_013.jpg
1967.514	0.741	correct	test	Phase3	test/STIM_013.jpg
1972.002	1.017	correct	test	Phase3	test/STIM_014.jpg
1975.569	0.776	correct	test	Phase3	test/STIM_014.jpg
1978.981	1.089	correct	test	Phase3	test/STIM_014.jpg
1982.931	0.845	incorrect	test	Phase3	test/STIM_015.jpg
1986.928	1.213	correct	test	Phase3	test/STIM_015.jpg
1990.449	1.222	correct	test	Phase3	test/STIM_015.jpg
1994.301	1.05	correct	test	Phase3	test/STIM_016.jpg
1997.379	1.2	correct	test	Phase3	test/STIM_016.jpg
2001.238	1.043	incorrect	test	Phase3	test/STIM_016.jpg
2005.748	0.96	correct	test	Phase3	test/STIM_017.jpg
2009.999	0.689	incorrect	test	Phase3	test/STIM_017.jpg
2013.693	0.886	correct	test	Phase3	test/STIM_017.jpg
2017.834	0.734	correct	test	Phase3	test/STIM_018.jpg
2020.894	1.168	correct	test	Phase3	test/STIM_018.jpg
2025.914	0.947	correct	test	Phase3	test/STIM_018.jpg
2030.193	0.817	incorrect	test	Phase3	test/STIM_019.jpg
2034.703	0.715	correct	test	Phase3	test/STIM_019.jpg
2038.977	0.757	correct	test	Phase3	test/STIM_019.jpg
2042.38	0.899	correct	test	Phase3	test/STIM_020.jpg
2046.546	0.97	correct	test	Phase3	test/STIM_020.jpg
2050.89	1.159	correct	test	Phase3	test/STIM_020.jpg
2055.447	1.014	correct	test	Phase3	test/STIM_021.jpg
2060.002	1.316	correct	test	Phase3	test/STIM_021.jpg
2064.865	1.274	incorrect	test	Phase3	test/STIM_021.jpg
2068.835	1.184	correct	test	Phase3	test/STIM_022.jpg
2073.869	0.654	correct	test	Phase3	test/STIM_022.jpg
2077.681	0.917	correct	test	Phase3	test/STIM_022.jpg
2082.176	0.98	correct	test	Phase3	test/STIM_023.jpg
2086.078	0.843	correct	test	Phase3	test/STIM_023.jpg
2090.685	0.794	correct	test	Phase3	test/STIM_023.jpg
2094.181	0.709	incorrect	test	Phase3	test/STIM_024.jpg
2097.832	1.022	correct	test	Phase3	test/STIM_024.jpg
2102.136	0.986	correct	test	Phase3	test/STIM_024.jpg
2105.308	1.12	correct	test	Phase3	test/STIM_025.jpg
2108.814	0.628	correct	test	Phase3	test/STIM_025.jpg
2111.8	0.74	incorrect	test	Phase3	test/STIM_025.jpg
2115.957	0.976	correct	test	Phase3	test/STIM_026.jpg
2119.117	0.854	correct	test	Phase3	test/STIM_026.jpg
2123.947	0.981	correct	test	Phase3	test/STIM_026.jpg
2127.32	0.869	correct	test	Phase3	test/STIM_027.jpg
2131.517	1.038	correct	test	Phase3	test/STIM_027.jpg
2136.206	0.755	correct	test	Phase3	test/STIM_027.jpg
2140.62	0.946	correct	test	Phase3	test/STIM_028.jpg
2145.218	1.293	correct	test	Phase3	test/STIM_028.jpg
2150.105	1.005	correct	test	Phase3	test/STIM_028.jpg
2154.998	1.201	correct	test	Phase3	test/STIM_029.jpg
2159.054	1.29	correct	test	Phase3	test/STIM_029.jpg
2163.755	0.687	correct	test	Phase3	test/STIM_029.jpg
