onset	duration	response_time_ms	trial_type	learning_stage	stimulus	response_port
0.0	1.505	1504.7	study	Phase1	study/STIM_000.jpg	99
4.179	1.129	1128.9	study	Phase1	study/STIM_000.jpg	100
7.951	0.915	915.3	study	Phase1	study/STIM_000.jpg	99
12.295	1.819	1819.1	study	Phase1	study/STIM_001.jpg	100
17.757	1.485	1485.3	study	Phase1	study/STIM_001.jpg	100
22.747	1.163	1163.4	study	Phase1	study/STIM_001.jpg	100
26.522	0.817	817.0	study	Phase1	study/STIM_002.jpg	99
30.148	1.481	1481.3	study	Phase1	study/STIM_002.jpg	100
35.555	1.054	1054.3	study	Phase1	study/STIM_002.jpg	99
40.208	0.845	845.0	study	Phase1	study/STIM_003.jpg	99
43.784	0.806	805.8	study	Phase1	study/STIM_003.jpg	99
47.76	0.963	963.2	study	Phase1	study/STIM_003.jpg	100
51.944	0.993	992.6	study	Phase1	study/STIM_004.jpg	99
55.935	1.23	1230.2	study	Phase1	study/STIM_004.jpg	100
59.441	1.182	1181.7	study	Phase1	study/STIM_004.jpg	99
63.944	0.819	819.2	study	Phase1	study/STIM_005.jpg	99
68.652	1.454	1453.8	study	Phase1	study/STIM_005.jpg	100
72.828	1.053	1053.2	study	Phase1	study/STIM_005.jpg	99
77.351	1.772	1771.8	study	Phase1	study/STIM_006.jpg	100
81.423	1.378	1377.9	study	Phase1	study/STIM_006.jpg	100
85.392	1.313	1313.3	study	Phase1	study/STIM_006.jpg	100
90.504	1.141	1140.6	study	Phase1	study/STIM_007.jpg	99
94.937	1.688	1687.9	study	Phase1	study/STIM_007.jpg	100
99.54	1.523	1523.1	study	Phase1	study/STIM_007.jpg	100
104.425	1.209	1208.9	study	Phase1	study/STIM_008.jpg	99
108.01	0.858	858.4	study	Phase1	study/STIM_008.jpg	100
111.231	0.789	789.2	study	Phase1	study/STIM_008.jpg	100
115.112	1.391	1391.1	study	Phase1	study/STIM_009.jpg	100
118.787	0.793	793.2	study	Phase1	study/STIM_009.jpg	99
123.466	1.219	1219.1	study	Phase1	study/STIM_009.jpg	100
127.507	1.477	1477.0	study	Phase1	study/STIM_010.jpg	100
132.577	1.024	1024.1	study	Phase1	study/STIM_010.jpg	99
137.471	0.97	970.5	study	Phase1	study/STIM_010.jpg	100
141.171	1.293	1292.9	study	Phase1	study/STIM_011.jpg	99
144.798	0.871	871.4	study	Phase1	study/STIM_011.jpg	99
149.593	0.794	794.5	study	Phase1	study/STIM_011.jpg	100
153.492	1.326	1326.3	study	Phase1	study/STIM_012.jpg	99
158.292	1.543	1543.3	study	Phase1	study/STIM_012.jpg	99
161.911	1.546	1546.2	study	Phase1	study/STIM_012.jpg	99
167.399	1.356	1355.5	study	Phase1	study/STIM_013.jpg	99
172.001	0.937	937.4	study	Phase1	study/STIM_013.jpg	99
176.75	0.927	926.6	study	Phase1	study/STIM_013.jpg	99
180.696	1.466	1465.8	study	Phase1	study/STIM_014.jpg	99
185.076	1.158	1158.5	study	Phase1	study/STIM_014.jpg	99
189.914	1.562	1561.5	study	Phase1	study/STIM_014.jpg	100
195.049	1.687	1687.3	study	Phase1	study/STIM_015.jpg	99
199.418	1.434	1433.5	study	Phase1	study/STIM_015.jpg	100
204.185	0.923	922.6	study	Phase1	study/STIM_015.jpg	100
208.628	1.542	1542.4	study	Phase1	study/STIM_016.jpg	99
213.489	0.794	794.3	study	Phase1	study/STIM_016.jpg	100
218.197	0.996	996.5	study	Phase1	study/STIM_016.jpg	99
222.042	1.737	1736.7	study	Phase1	study/STIM_017.jpg	99
227.042	1.004	1004.5	study	Phase1	study/STIM_017.jpg	99
231.56	0.794	794.2	study	Phase1	study/STIM_017.jpg	100
235.465	1.648	1647.7	study	Phase1	study/STIM_018.jpg	100
240.196	1.366	1366.4	study	Phase1	study/STIM_018.jpg	100
245.04	1.088	1088.4	study	Phase1	study/STIM_018.jpg	100
248.903	0.914	913.6	study	Phase1	study/STIM_019.jpg	99
252.73	0.906	906.3	study	Phase1	study/STIM_019.jpg	99
257.086	1.452	1451.8	study	Phase1	study/STIM_019.jpg	100
260.657	1.746	1746.5	study	Phase1	study/STIM_020.jpg	100
264.79	0.892	891.9	study	Phase1	study/STIM_020.jpg	99
269.224	1.209	1209.3	study	Phase1	study/STIM_020.jpg	100
273.401	1.131	1130.6	study	Phase1	study/STIM_021.jpg	99
277.579	1.706	1705.7	study	Phase1	study/STIM_021.jpg	100
282.55	1.208	1208.5	study	Phase1	study/STIM_021.jpg	99
287.019	1.152	1152.3	study	Phase1	study/STIM_022.jpg	99
290.645	1.128	1128.2	study	Phase1	study/STIM_022.jpg	100
295.031	1.344	1344.3	study	Phase1	study/STIM_022.jpg	100
299.011	1.722	1721.5	study	Phase1	study/STIM_023.jpg	99
303.11	0.841	840.7	study	Phase1	study/STIM_023.jpg	99
306.498	0.915	914.6	study	Phase1	study/STIM_023.jpg	100
310.651	1.444	1443.5	study	Phase1	study/STIM_024.jpg	99
316.078	1.604	1604.1	study	Phase1	study/STIM_024.jpg	100
321.2	1.253	1253.4	study	Phase1	study/STIM_024.jpg	99
324.552	1.627	1626.9	study	Phase1	study/STIM_025.jpg	99
329.322	1.098	1097.9	study	Phase1	study/STIM_025.jpg	99
333.846	1.582	1581.5	study	Phase1	study/STIM_025.jpg	100
338.595	1.462	1462.1	study	Phase1	study/STIM_026.jpg	99
342.75	0.98	980.5	study	Phase1	study/STIM_026.jpg	99
346.817	1.021	1020.9	study	Phase1	study/STIM_026.jpg	99
351.157	1.167	1166.9	study	Phase1	study/STIM_027.jpg	100
355.942	1.16	1159.8	study	Phase1	study/STIM_027.jpg	100
360.523	0.891	891.4	study	Phase1	study/STIM_027.jpg	99
365.066	1.582	1582.2	study	Phase1	study/STIM_028.jpg	99
368.921	0.947	947.4	study	Phase1	study/STIM_028.jpg	100
373.749	1.512	1511.7	study	Phase1	study/STIM_028.jpg	99
378.617	1.063	1063.4	study	Phase1	study/STIM_029.jpg	99
382.265	1.198	1198.1	study	Phase1	study/STIM_029.jpg	99
386.111	1.373	1373.4	study	Phase1	study/STIM_029.jpg	99
390.454	1.242	1242.2	test	Phase1	test/STIM_000.jpg	99
395.267	0.884	883.6	test	Phase1	test/STIM_000.jpg	100
398.612	1.022	1022.4	test	Phase1	test/STIM_000.jpg	99
402.038	0.855	854.6	test	Phase1	test/STIM_001.jpg	100
405.726	0.819	819.0	test	Phase1	test/STIM_001.jpg	100
409.127	0.825	825.2	test	Phase1	test/STIM_001.jpg	100
412.906	1.092	1092.3	test	Phase1	test/STIM_002.jpg	100
417.884	0.718	718.0	test	Phase1	test/STIM_002.jpg	99
421.767	1.228	1227.5	test	Phase1	test/STIM_002.jpg	99
426.515	1.034	1034.2	test	Phase1	test/STIM_003.jpg	100
430.103	1.039	1039.4	test	Phase1	test/STIM_003.jpg	100
433.51	1.259	1259.1	test	Phase1	test/STIM_003.jpg	100
436.78	1.224	1224.3	test	Phase1	test/STIM_004.jpg	99
441.056	0.93	929.8	test	Phase1	test/STIM_004.jpg	99
444.0	1.209	1208.6	test	Phase1	test/STIM_004.jpg	100
448.491	0.84	840.3	test	Phase1	test/STIM_005.jpg	99
452.948	0.739	739.3	test	Phase1	test/STIM_005.jpg	99
457.484	1.252	1251.7	test	Phase1	test/STIM_005.jpg	100
461.773	1.157	1156.8	test	Phase1	test/STIM_006.jpg	100
465.85	0.812	812.3	test	Phase1	test/STIM_006.jpg	99
468.738	0.989	988.6	test	Phase1	test/STIM_006.jpg	99
472.102	0.697	696.9	test	Phase1	test/STIM_007.jpg	100
476.597	0.978	977.9	test	Phase1	test/STIM_007.jpg	99
479.684	0.98	980.3	test	Phase1	test/STIM_007.jpg	100
482.965	1.31	1310.5	test	Phase1	test/STIM_008.jpg	100
488.262	0.867	866.8	test	Phase1	test/STIM_008.jpg	99
491.786	1.144	1143.6	test	Phase1	test/STIM_008.jpg	100
495.24	0.71	710.1	test	Phase1	test/STIM_009.jpg	99
499.547	1.085	1084.9	test	Phase1	test/STIM_009.jpg	99
504.179	1.215	1215.3	test	Phase1	test/STIM_009.jpg	100
507.797	0.925	924.7	test	Phase1	test/STIM_010.jpg	100
511.645	0.957	957.4	test	Phase1	test/STIM_010.jpg	99
516.071	1.003	1003.3	test	Phase1	test/STIM_010.jpg	100
520.905	0.617	616.6	test	Phase1	test/STIM_011.jpg	100
525.414	0.965	964.9	test	Phase1	test/STIM_011.jpg	99
529.444	0.893	893.1	test	Phase1	test/STIM_011.jpg	100
533.87	0.87	869.7	test	Phase1	test/STIM_012.jpg	100
536.906	1.0	1000.1	test	Phase1	test/STIM_012.jpg	99
541.076	1.236	1235.7	test	Phase1	test/STIM_012.jpg	99
545.295	0.672	672.5	test	Phase1	test/STIM_013.jpg	100
548.854	0.988	987.8	test	Phase1	test/STIM_013.jpg	100
553.836	1.16	1159.8	test	Phase1	test/STIM_013.jpg	100
558.136	1.051	1050.7	test	Phase1	test/STIM_014.jpg	99
562.723	0.859	859.2	test	Phase1	test/STIM_014.jpg	100
566.186	1.021	1021.0	test	Phase1	test/STIM_014.jpg	99
569.75	1.291	1291.1	test	Phase1	test/STIM_015.jpg	100
573.924	0.738	738.3	test	Phase1	test/STIM_015.jpg	99
577.106	0.635	635.0	test	Phase1	test/STIM_015.jpg	99
580.568	0.982	982.4	test	Phase1	test/STIM_016.jpg	100
583.736	0.68	679.6	test	Phase1	test/STIM_016.jpg	99
587.016	1.011	1010.8	test	Phase1	test/STIM_016.jpg	100
591.811	0.827	827.0	test	Phase1	test/STIM_017.jpg	99
596.291	1.314	1313.6	test	Phase1	test/STIM_017.jpg	99
600.49	0.719	718.9	test	Phase1	test/STIM_017.jpg	99
604.982	0.928	928.2	test	Phase1	test/STIM_018.jpg	100
608.902	1.236	1236.5	test	Phase1	test/STIM_018.jpg	99
612.31	1.146	1145.7	test	Phase1	test/STIM_018.jpg	100
617.002	1.286	1285.5	test	Phase1	test/STIM_019.jpg	99
620.537	0.649	649.2	test	Phase1	test/STIM_019.jpg	99
624.606	0.736	735.7	test	Phase1	test/STIM_019.jpg	100
627.373	1.06	1059.6	test	Phase1	test/STIM_020.jpg	100
631.716	0.657	656.8	test	Phase1	test/STIM_020.jpg	100
635.085	0.881	881.1	test	Phase1	test/STIM_020.jpg	100
638.301	0.803	803.3	test	Phase1	test/STIM_021.jpg	99
642.487	1.026	1025.8	test	Phase1	test/STIM_021.jpg	99
647.509	0.884	884.2	test	Phase1	test/STIM_021.jpg	99
651.865	1.069	1069.0	test	Phase1	test/STIM_022.jpg	100
656.245	1.123	1122.6	test	Phase1	test/STIM_022.jpg	99
660.541	1.098	1097.5	test	Phase1	test/STIM_022.jpg	99
663.831	1.133	1133.3	test	Phase1	test/STIM_023.jpg	99
667.164	1.087	1087.2	test	Phase1	test/STIM_023.jpg	100
671.327	0.81	810.3	test	Phase1	test/STIM_023.jpg	100
674.639	0.923	922.6	test	Phase1	test/STIM_024.jpg	99
677.859	0.839	838.8	test	Phase1	test/STIM_024.jpg	99
682.518	0.991	991.3	test	Phase1	test/STIM_024.jpg	100
686.672	0.763	763.0	test	Phase1	test/STIM_025.jpg	99
690.926	0.78	780.2	test	Phase1	test/STIM_025.jpg	100
695.003	0.84	840.1	test	Phase1	test/STIM_025.jpg	100
699.405	0.8	800.3	test	Phase1	test/STIM_026.jpg	100
704.075	0.699	698.6	test	Phase1	test/STIM_026.jpg	100
708.659	0.755	755.1	test	Phase1	test/STIM_026.jpg	99
713.151	0.811	811.2	test	Phase1	test/STIM_027.jpg	99
716.416	1.264	1263.6	test	Phase1	test/STIM_027.jpg	100
720.874	0.933	932.9	test	Phase1	test/STIM_027.jpg	99
725.658	1.144	1144.0	test	Phase1	test/STIM_028.jpg	100
730.697	1.276	1276.0	test	Phase1	test/STIM_028.jpg	99
735.943	0.744	743.6	test	Phase1	test/STIM_028.jpg	100
738.991	1.103	1102.7	test	Phase1	test/STIM_029.jpg	99
743.166	1.154	1153.5	test	Phase1	test/STIM_029.jpg	100
747.586	0.655	655.2	test	Phase1	test/STIM_029.jpg	100
751.51	1.187	1186.8	study	Phase2	study/STIM_000.jpg	99
755.722	1.208	1207.7	study	Phase2	study/STIM_000.jpg	100
759.077	1.128	1127.5	study	Phase2	study/STIM_000.jpg	100
763.544	1.424	1424.2	study	Phase2	study/STIM_001.jpg	100
768.844	1.448	1448.3	study	Phase2	study/STIM_001.jpg	100
773.01	0.719	719.4	study	Phase2	study/STIM_001.jpg	100
776.022	0.818	818.0	study	Phase2	study/STIM_002.jpg	100
779.96	0.89	889.6	study	Phase2	study/STIM_002.jpg	100
784.264	1.018	1018.2	study	Phase2	study/STIM_002.jpg	100
788.636	1.324	1323.5	study	Phase2	study/STIM_003.jpg	100
792.35	1.218	1218.2	study	Phase2	study/STIM_003.jpg	99
797.268	1.087	1086.8	study	Phase2	study/STIM_003.jpg	100
800.992	1.335	1334.6	study	Phase2	study/STIM_004.jpg	100
804.772	0.939	939.4	study	Phase2	study/STIM_004.jpg	100
808.375	0.63	630.3	study	Phase2	study/STIM_004.jpg	99
812.339	1.529	1529.4	study	Phase2	study/STIM_005.jpg	99
817.075	1.06	1060.1	study	Phase2	study/STIM_005.jpg	100
820.732	0.781	780.7	study	Phase2	study/STIM_005.jpg	100
823.619	0.953	952.7	study	Phase2	study/STIM_006.jpg	99
826.677	1.1	1099.5	study	Phase2	study/STIM_006.jpg	100
830.85	0.664	664.1	study	Phase2	study/STIM_006.jpg	100
833.736	1.254	1253.6	study	Phase2	study/STIM_007.jpg	99
837.223	0.705	705.3	study	Phase2	study/STIM_007.jpg	99
840.535	0.809	809.1	study	Phase2	study/STIM_007.jpg	100
843.978	1.526	1526.2	study	Phase2	study/STIM_008.jpg	100
848.707	1.302	1302.2	study	Phase2	study/STIM_008.jpg	100
852.232	0.833	833.3	study	Phase2	study/STIM_008.jpg	99
856.832	0.891	891.4	study	Phase2	study/STIM_009.jpg	99
861.42	0.984	983.8	study	Phase2	study/STIM_009.jpg	99
865.5	0.744	744.4	study	Phase2	study/STIM_009.jpg	100
869.086	0.94	940.4	study	Phase2	study/STIM_010.jpg	99
872.038	0.98	980.3	study	Phase2	study/STIM_010.jpg	99
875.127	0.672	671.6	study	Phase2	study/STIM_010.jpg	99
878.809	0.936	936.0	study	Phase2	study/STIM_011.jpg	99
882.225	1.237	1236.9	study	Phase2	study/STIM_011.jpg	99
885.547	0.812	812.1	study	Phase2	study/STIM_011.jpg	100
888.523	0.989	989.4	study	Phase2	study/STIM_012.jpg	100
892.773	1.418	1418.0	study	Phase2	study/STIM_012.jpg	99
897.345	0.955	955.2	study	Phase2	study/STIM_012.jpg	100
901.772	0.73	729.8	study	Phase2	study/STIM_013.jpg	99
905.443	1.165	1164.9	study	Phase2	study/STIM_013.jpg	100
909.957	1.05	1050.0	study	Phase2	study/STIM_013.jpg	100
914.172	1.484	1483.9	study	Phase2	study/STIM_014.jpg	100
919.238	0.661	660.7	study	Phase2	study/STIM_014.jpg	100
923.798	1.142	1142.5	study	Phase2	study/STIM_014.jpg	99
927.609	0.851	851.0	study	Phase2	study/STIM_015.jpg	100
931.657	1.167	1167.1	study	Phase2	study/STIM_015.jpg	99
935.715	1.043	1042.6	study	Phase2	study/STIM_015.jpg	100
939.856	1.194	1193.5	study	Phase2	study/STIM_016.jpg	99
943.888	0.963	963.3	study	Phase2	study/STIM_016.jpg	100
948.417	1.097	1096.6	study	Phase2	study/STIM_016.jpg	99
952.309	1.135	1134.8	study	Phase2	study/STIM_017.jpg	100
956.123	1.076	1076.0	study	Phase2	study/STIM_017.jpg	100
960.135	0.954	954.5	study	Phase2	study/STIM_017.jpg	100
964.603	1.057	1056.8	study	Phase2	study/STIM_018.jpg	100
967.793	0.916	916.2	study	Phase2	study/STIM_018.jpg	100
972.388	1.187	1186.6	study	Phase2	study/STIM_018.jpg	99
976.004	1.303	1303.4	study	Phase2	study/STIM_019.jpg	99
981.044	0.813	813.3	study	Phase2	study/STIM_019.jpg	99
985.779	1.005	1004.6	study	Phase2	study/STIM_019.jpg	100
989.487	1.41	1410.2	study	Phase2	study/STIM_020.jpg	100
993.61	0.751	751.3	study	Phase2	study/STIM_020.jpg	99
998.208	1.341	1340.7	study	Phase2	study/STIM_020.jpg	100
1002.495	1.362	1361.6	study	Phase2	study/STIM_021.jpg	100
1006.953	1.307	1306.9	study	Phase2	study/STIM_021.jpg	100
1010.299	1.329	1329.4	study	Phase2	study/STIM_021.jpg	99
1015.071	1.428	1428.2	study	Phase2	study/STIM_022.jpg	99
1020.045	1.138	1138.0	study	Phase2	study/STIM_022.jpg	99
1023.607	1.257	1256.7	study	Phase2	study/STIM_022.jpg	100
1028.806	0.796	795.7	study	Phase2	study/STIM_023.jpg	100
1032.972	1.347	1346.8	study	Phase2	study/STIM_023.jpg	99
1037.23	1.164	1164.0	study	Phase2	study/STIM_023.jpg	100
1041.719	0.698	698.5	study	Phase2	study/STIM_024.jpg	100
1045.932	1.04	1039.5	study	Phase2	study/STIM_024.jpg	100
1049.936	0.658	658.1	study	Phase2	study/STIM_024.jpg	100
1052.909	0.881	881.3	study	Phase2	study/STIM_025.jpg	99
1056.533	0.739	738.7	study	Phase2	study/STIM_025.jpg	100
1060.086	1.251	1250.9	study	Phase2	study/STIM_025.jpg	100
1064.986	1.098	1097.6	study	Phase2	study/STIM_026.jpg	99
1068.914	1.21	1210.2	study	Phase2	study/STIM_026.jpg	99
1073.373	1.139	1139.4	study	Phase2	study/STIM_026.jpg	100
1078.4	1.418	1418.2	study	Phase2	study/STIM_027.jpg	99
1083.777	1.223	1223.4	study	Phase2	study/STIM_027.jpg	100
1087.047	0.976	975.9	study	Phase2	study/STIM_027.jpg	99
1090.58	0.764	763.6	study	Phase2	study/STIM_028.jpg	100
1094.236	0.687	686.8	study	Phase2	study/STIM_028.jpg	100
1097.138	0.934	934.1	study	Phase2	study/STIM_028.jpg	100
1102.013	0.722	721.6	study	Phase2	study/STIM_029.jpg	100
1105.039	0.911	910.7	study	Phase2	study/STIM_029.jpg	99
1109.94	0.635	634.9	study	Phase2	study/STIM_029.jpg	99
1113.791	1.16	1160.0	test	Phase2	test/STIM_000.jpg	100
1117.413	1.036	1036.0	test	Phase2	test/STIM_000.jpg	99
1122.146	0.933	933.1	test	Phase2	test/STIM_000.jpg	100
1125.345	1.016	1016.0	test	Phase2	test/STIM_001.jpg	100
1128.577	0.948	947.9	test	Phase2	test/STIM_001.jpg	99
1131.766	0.766	766.2	test	Phase2	test/STIM_001.jpg	100
1136.149	0.996	995.9	test	Phase2	test/STIM_002.jpg	100
1140.183	1.072	1072.3	test	Phase2	test/STIM_002.jpg	99
1145.231	1.056	1056.5	test	Phase2	test/STIM_002.jpg	100
1149.225	1.054	1054.1	test	Phase2	test/STIM_003.jpg	99
1152.298	1.215	1215.3	test	Phase2	test/STIM_003.jpg	100
1156.456	0.866	866.5	test	Phase2	test/STIM_003.jpg	99
1160.773	1.109	1109.1	test	Phase2	test/STIM_004.jpg	100
1165.832	0.889	888.7	test	Phase2	test/STIM_004.jpg	100
1169.707	0.72	720.2	test	Phase2	test/STIM_004.jpg	100
1173.59	0.761	760.7	test	Phase2	test/STIM_005.jpg	99
1177.589	0.634	634.5	test	Phase2	test/STIM_005.jpg	99
1182.005	0.882	881.5	test	Phase2	test/STIM_005.jpg	99
1185.946	0.758	758.3	test	Phase2	test/STIM_006.jpg	100
1188.909	1.185	1185.2	test	Phase2	test/STIM_006.jpg	99
1194.022	1.102	1101.6	test	Phase2	test/STIM_006.jpg	100
1198.077	0.988	988.5	test	Phase2	test/STIM_007.jpg	100
1201.93	1.033	1032.8	test	Phase2	test/STIM_007.jpg	100
1205.452	1.001	1000.8	test	Phase2	test/STIM_007.jpg	99
1209.324	0.918	918.3	test	Phase2	test/STIM_008.jpg	99
1213.638	0.614	614.1	test	Phase2	test/STIM_008.jpg	99
1216.26	1.033	1032.8	test	Phase2	test/STIM_008.jpg	100
1221.173	0.95	950.5	test	Phase2	test/STIM_009.jpg	99
1225.83	0.778	777.9	test	Phase2	test/STIM_009.jpg	100
1230.335	0.993	993.1	test	Phase2	test/STIM_009.jpg	100
1234.066	0.884	883.7	test	Phase2	test/STIM_010.jpg	100
1237.041	0.906	906.0	test	Phase2	test/STIM_010.jpg	100
1241.52	0.988	987.6	test	Phase2	test/STIM_010.jpg	100
1245.395	1.074	1073.6	test	Phase2	test/STIM_011.jpg	99
1248.945	1.191	1190.8	test	Phase2	test/STIM_011.jpg	100
1254.028	1.146	1146.3	test	Phase2	test/STIM_011.jpg	100
1258.732	0.943	943.3	test	Phase2	test/STIM_012.jpg	100
1261.77	1.226	1226.5	test	Phase2	test/STIM_012.jpg	99
1266.366	0.719	719.2	test	Phase2	test/STIM_012.jpg	100
1270.734	0.954	953.5	test	Phase2	test/STIM_013.jpg	100
1274.73	1.003	1003.4	test	Phase2	test/STIM_013.jpg	99
1279.668	0.872	871.9	test	Phase2	test/STIM_013.jpg	99
1283.147	1.159	1159.0	test	Phase2	test/STIM_014.jpg	99
1286.394	0.673	673.2	test	Phase2	test/STIM_014.jpg	99
1289.617	0.675	675.4	test	Phase2	test/STIM_014.jpg	100
1294.047	0.871	871.0	test	Phase2	test/STIM_015.jpg	99
1298.72	0.731	730.8	test	Phase2	test/STIM_015.jpg	99
1303.266	0.748	747.9	test	Phase2	test/STIM_015.jpg	99
1306.744	0.765	765.1	test	Phase2	test/STIM_016.jpg	100
1310.445	1.088	1087.7	test	Phase2	test/STIM_016.jpg	100
1314.819	0.635	635.4	test	Phase2	test/STIM_016.jpg	99
1318.769	0.86	860.0	test	Phase2	test/STIM_017.jpg	100
1323.551	0.637	636.9	test	Phase2	test/STIM_017.jpg	100
1326.526	1.263	1263.3	test	Phase2	test/STIM_017.jpg	100
1330.928	0.951	951.3	test	Phase2	test/STIM_018.jpg	99
1335.715	0.776	775.7	test	Phase2	test/STIM_018.jpg	99
1339.326	1.212	1212.4	test	Phase2	test/STIM_018.jpg	99
1343.785	0.86	860.1	test	Phase2	test/STIM_019.jpg	99
1347.324	1.306	1306.5	test	Phase2	test/STIM_019.jpg	99
1351.11	0.936	935.8	test	Phase2	test/STIM_019.jpg	99
1355.52	1.19	1190.2	test	Phase2	test/STIM_020.jpg	100
1360.651	0.935	934.9	test	Phase2	test/STIM_020.jpg	99
1363.836	1.212	1212.5	test	Phase2	test/STIM_020.jpg	99
1368.112	0.955	955.2	test	Phase2	test/STIM_021.jpg	99
1372.469	0.924	924.3	test	Phase2	test/STIM_021.jpg	100
1377.165	0.628	627.8	test	Phase2	test/STIM_021.jpg	100
1380.846	1.208	1207.5	test	Phase2	test/STIM_022.jpg	99
1384.355	1.124	1124.4	test	Phase2	test/STIM_022.jpg	99
1388.597	1.101	1100.6	test	Phase2	test/STIM_022.jpg	100
1393.096	1.052	1051.9	test	Phase2	test/STIM_023.jpg	99
1396.329	1.219	1219.2	test	Phase2	test/STIM_023.jpg	99
1399.559	1.209	1208.9	test	Phase2	test/STIM_023.jpg	99
1403.434	0.904	904.5	test	Phase2	test/STIM_024.jpg	99
1406.523	1.199	1198.8	test	Phase2	test/STIM_024.jpg	99
1411.628	0.676	675.6	test	Phase2	test/STIM_024.jpg	99
1415.439	1.128	1127.8	test	Phase2	test/STIM_025.jpg	99
1419.889	0.935	935.4	test	Phase2	test/STIM_025.jpg	100
1424.193	1.283	1282.8	test	Phase2	test/STIM_025.jpg	99
1428.63	0.76	760.5	test	Phase2	test/STIM_026.jpg	99
1432.114	0.816	816.1	test	Phase2	test/STIM_026.jpg	99
1436.602	0.838	837.9	test	Phase2	test/STIM_026.jpg	100
1440.909	0.924	924.3	test	Phase2	test/STIM_027.jpg	100
1445.372	1.01	1009.7	test	Phase2	test/STIM_027.jpg	99
1448.585	0.611	611.2	test	Phase2	test/STIM_027.jpg	99
1451.731	1.082	1082.3	test	Phase2	test/STIM_028.jpg	100
1456.45	0.698	697.5	test	Phase2	test/STIM_028.jpg	99
1460.6	0.845	844.8	test	Phase2	test/STIM_028.jpg	99
1465.097	0.818	817.7	test	Phase2	test/STIM_029.jpg	99
1468.072	0.986	985.8	test	Phase2	test/STIM_029.jpg	100
1472.514	0.735	734.7	test	Phase2	test/STIM_029.jpg	100
1475.504	1.148	1147.6	study	Phase3	study/STIM_000.jpg	100
1480.097	1.073	1073.1	study	Phase3	study/STIM_000.jpg	100
1484.303	0.923	923.3	study	Phase3	study/STIM_000.jpg	99
1489.1	0.627	626.9	study	Phase3	study/STIM_001.jpg	100
1493.451	0.66	659.5	study	Phase3	study/STIM_001.jpg	99
1497.515	0.96	960.2	study	Phase3	study/STIM_001.jpg	99
1501.111	1.06	1060.1	study	Phase3	study/STIM_002.jpg	99
1505.091	1.18	1180.0	study	Phase3	study/STIM_002.jpg	100
1509.328	0.916	915.6	study	Phase3	study/STIM_002.jpg	100
1513.439	0.581	580.7	study	Phase3	study/STIM_003.jpg	100
1516.991	0.937	937.0	study	Phase3	study/STIM_003.jpg	99
1520.343	1.03	1030.3	study	Phase3	study/STIM_003.jpg	99
1523.985	1.161	1161.1	study	Phase3	study/STIM_004.jpg	99
1528.082	1.046	1045.6	study	Phase3	study/STIM_004.jpg	100
1531.753	0.967	967.4	study	Phase3	study/STIM_004.jpg	99
1534.94	0.735	735.0	study	Phase3	study/STIM_005.jpg	100
1539.642	0.737	737.3	study	Phase3	study/STIM_005.jpg	100
1543.236	0.975	975.0	study	Phase3	study/STIM_005.jpg	100
1547.666	1.191	1191.1	study	Phase3	study/STIM_006.jpg	99
1551.224	1.27	1270.4	study	Phase3	study/STIM_006.jpg	99
1555.222	1.207	1206.6	study	Phase3	study/STIM_006.jpg	100
1559.304	1.191	1191.4	study	Phase3	study/STIM_007.jpg	100
1564.148	0.867	867.0	study	Phase3	study/STIM_007.jpg	100
1567.749	1.093	1092.9	study	Phase3	study/STIM_007.jpg	100
1571.652	1.137	1136.7	study	Phase3	study/STIM_008.jpg	100
1576.645	0.932	931.7	study	Phase3	study/STIM_008.jpg	99
1580.388	1.029	1029.4	study	Phase3	study/STIM_008.jpg	99
1585.154	1.178	1177.8	study	Phase3	study/STIM_009.jpg	100
1589.563	1.125	1125.3	study	Phase3	study/STIM_009.jpg	100
1594.471	1.162	1161.9	study	Phase3	study/STIM_009.jpg	99
1599.13	1.144	1144.4	study	Phase3	study/STIM_010.jpg	100
1602.98	1.126	1126.2	study	Phase3	study/STIM_010.jpg	100
1606.572	0.604	603.9	study	Phase3	study/STIM_010.jpg	100
1609.609	1.224	1224.4	study	Phase3	study/STIM_011.jpg	100
1614.329	1.187	1186.8	study	Phase3	study/STIM_011.jpg	100
1618.349	0.922	922.2	study	Phase3	study/STIM_011.jpg	100
1621.566	0.721	720.6	study	Phase3	study/STIM_012.jpg	100
1625.102	0.691	690.8	study	Phase3	study/STIM_012.jpg	99
1629.495	1.036	1035.5	study	Phase3	study/STIM_012.jpg	100
1634.154	0.599	598.9	study	Phase3	study/STIM_013.jpg	99
1637.146	0.816	815.8	study	Phase3	study/STIM_013.jpg	100
1640.173	0.693	693.2	study	Phase3	study/STIM_013.jpg	100
1644.067	0.907	907.0	study	Phase3	study/STIM_014.jpg	99
1648.601	0.648	648.1	study	Phase3	study/STIM_014.jpg	100
1653.114	0.986	986.4	study	Phase3	study/STIM_014.jpg	99
1657.841	1.053	1053.3	study	Phase3	study/STIM_015.jpg	100
1661.46	1.172	1171.5	study	Phase3	study/STIM_015.jpg	99
1665.363	1.198	1198.3	study	Phase3	study/STIM_015.jpg	99
1668.677	1.228	1228.5	study	Phase3	study/STIM_016.jpg	100
1672.316	0.599	599.3	study	Phase3	study/STIM_016.jpg	100
1676.434	0.608	607.6	study	Phase3	study/STIM_016.jpg	99
1679.282	1.104	1104.5	study	Phase3	study/STIM_017.jpg	100
1682.49	1.16	1160.1	study	Phase3	study/STIM_017.jpg	99
1687.196	1.05	1049.8	study	Phase3	study/STIM_017.jpg	100
1691.643	0.58	580.1	study	Phase3	study/STIM_018.jpg	100
1695.779	1.113	1112.8	study	Phase3	study/STIM_018.jpg	99
1700.113	1.24	1240.4	study	Phase3	study/STIM_018.jpg	99
1704.355	0.71	710.0	study	Phase3	study/STIM_019.jpg	100
1708.449	0.898	897.6	study	Phase3	study/STIM_019.jpg	99
1711.598	0.651	651.0	study	Phase3	study/STIM_019.jpg	99
1714.567	1.182	1182.4	study	Phase3	study/STIM_020.jpg	99
1719.463	1.003	1003.0	study	Phase3	study/STIM_020.jpg	100
1724.248	0.859	858.8	study	Phase3	study/STIM_020.jpg	99
1728.047	0.964	963.8	study	Phase3	study/STIM_021.jpg	100
1731.329	1.127	1127.3	study	Phase3	study/STIM_021.jpg	99
1734.916	0.962	962.0	study	Phase3	study/STIM_021.jpg	99
1737.893	0.766	765.5	study	Phase3	study/STIM_022.jpg	100
1742.349	1.138	1138.4	study	Phase3	study/STIM_022.jpg	100
1746.413	0.786	786.4	study	Phase3	study/STIM_022.jpg	99
1750.28	0.925	925.1	study	Phase3	study/STIM_023.jpg	99
1753.449	0.662	662.3	study	Phase3	study/STIM_023.jpg	100
1756.151	0.714	713.7	study	Phase3	study/STIM_023.jpg	99
1758.997	0.595	595.4	study	Phase3	study/STIM_024.jpg	100
1761.895	0.972	972.4	study	Phase3	study/STIM_024.jpg	99
1765.285	1.28	1280.5	study	Phase3	study/STIM_024.jpg	99
1769.847	1.192	1191.9	study	Phase3	study/STIM_025.jpg	100
1773.86	1.264	1264.5	study	Phase3	study/STIM_025.jpg	99
1778.291	1.063	1063.1	study	Phase3	study/STIM_025.jpg	99
1782.203	0.987	987.0	study	Phase3	study/STIM_026.jpg	99
1786.727	0.748	748.3	study	Phase3	study/STIM_026.jpg	100
1789.78	0.724	724.3	study	Phase3	study/STIM_026.jpg	100
1793.03	1.136	1135.8	study	Phase3	study/STIM_027.jpg	99
1796.681	0.622	621.6	study	Phase3	study/STIM_027.jpg	100
1800.808	1.173	1172.6	study	Phase3	study/STIM_027.jpg	99
1804.309	0.623	623.3	study	Phase3	study/STIM_028.jpg	99
1808.891	0.691	690.8	study	Phase3	study/STIM_028.jpg	100
1813.153	1.008	1007.7	study	Phase3	study/STIM_028.jpg	99
1817.056	1.069	1069.2	study	Phase3	study/STIM_029.jpg	99
1820.974	0.736	736.3	study	Phase3	study/STIM_029.jpg	99
1824.04	0.95	949.7	study	Phase3	study/STIM_029.jpg	99
1828.267	1.051	1050.8	test	Phase3	test/STIM_000.jpg	100
1833.07	0.87	870.4	test	Phase3	test/STIM_000.jpg	100
1837.334	1.03	1030.5	test	Phase3	test/STIM_000.jpg	100
1841.674	0.912	912.4	test	Phase3	test/STIM_001.jpg	100
1845.566	0.988	987.7	test	Phase3	test/STIM_001.jpg	100
1849.199	1.125	1124.7	test	Phase3	test/STIM_001.jpg	99
1854.061	1.147	1147.4	test	Phase3	test/STIM_002.jpg	99
1857.661	0.886	886.4	test	Phase3	test/STIM_002.jpg	99
1860.611	0.943	943.4	test	Phase3	test/STIM_002.jpg	99
1865.304	0.905	904.9	test	Phase3	test/STIM_003.jpg	99
1868.925	0.845	845.0	test	Phase3	test/STIM_003.jpg	99
1873.126	1.297	1296.7	test	Phase3	test/STIM_003.jpg	100
1877.711	0.799	799.2	test	Phase3	test/STIM_004.jpg	100
1881.593	0.931	930.7	test	Phase3	test/STIM_004.jpg	99
1886.284	0.673	673.3	test	Phase3	test/STIM_004.jpg	99
1889.882	0.848	847.7	test	Phase3	test/STIM_005.jpg	100
1894.36	1.032	1031.7	test	Phase3	test/STIM_005.jpg	99
1898.021	0.89	890.0	test	Phase3	test/STIM_005.jpg	100
1902.834	1.137	1137.0	test	Phase3	test/STIM_006.jpg	99
1907.359	1.028	1028.3	test	Phase3	test/STIM_006.jpg	99
1912.315	1.145	1144.9	test	Phase3	test/STIM_006.jpg	99
1915.838	1.306	1305.9	test	Phase3	test/STIM_007.jpg	99
1921.032	1.118	1118.3	test	Phase3	test/STIM_007.jpg	100
1925.228	1.246	1245.8	test	Phase3	test/STIM_007.jpg	99
1930.207	1.047	1046.9	test	Phase3	test/STIM_008.jpg	100
1934.001	0.632	631.7	test	Phase3	test/STIM_008.jpg	99
1938.426	1.143	1143.2	test	Phase3	test/STIM_008.jpg	99
1941.796	0.649	649.0	test	Phase3	test/STIM_009.jpg	100
1945.696	0.725	724.6	test	Phase3	test/STIM_009.jpg	100
1950.419	1.171	1171.3	test	Phase3	test/STIM_009.jpg	99
1955.218	1.14	1140.1	test	Phase3	test/STIM_010.jpg	99
1960.21	1.24	1239.7	test	Phase3	test/STIM_010.jpg	99
1964.466	0.772	772.4	test	Phase3	test/STIM_010.jpg	100
1968.102	1.023	1022.7	test	Phase3	test/STIM_011.jpg	100
1971.552	1.312	1311.7	test	Phase3	test/STIM_011.jpg	100
1976.496	1.201	1201.0	test	Phase3	test/STIM_011.jpg	99
1981.662	0.936	935.6	test	Phase3	test/STIM_012.jpg	99
1985.329	1.043	1042.8	test	Phase3	test/STIM_012.jpg	100
1990.199	0.983	983.2	test	Phase3	test/STIM_012.jpg	99
1994.639	0.935	934.8	test	Phase3	test/STIM_013.jpg	100
1999.183	1.209	1209.1	test	Phase3	test/STIM_013.jpg	99
2003.535	0.628	628.1	test	Phase3	test/STIM_013.jpg	99
2006.413	1.231	1230.8	test	Phase3	test/STIM_014.jpg	100
2009.978	1.177	1176.8	test	Phase3	test/STIM_014.jpg	100
2013.944	1.014	1013.8	test	Phase3	test/STIM_014.jpg	99
2017.316	0.899	899.4	test	Phase3	test/STIM_015.jpg	99
2021.654	0.732	732.3	test	Phase3	test/STIM_015.jpg	100
2025.507	1.283	1283.1	test	Phase3	test/STIM_015.jpg	100
2030.651	0.758	758.5	test	Phase3	test/STIM_016.jpg	100
2033.59	1.314	1314.1	test	Phase3	test/STIM_016.jpg	100
2037.03	0.763	762.7	test	Phase3	test/STIM_016.jpg	99
2040.84	1.058	1058.2	test	Phase3	test/STIM_017.jpg	100
2045.367	0.858	858.3	test	Phase3	test/STIM_017.jpg	99
2048.293	0.842	841.5	test	Phase3	test/STIM_017.jpg	100
2052.452	1.184	1184.4	test	Phase3	test/STIM_018.jpg	100
2056.623	0.777	776.6	test	Phase3	test/STIM_018.jpg	100
2060.695	1.093	1092.9	test	Phase3	test/STIM_018.jpg	99
2064.351	0.753	752.9	test	Phase3	test/STIM_019.jpg	99
2068.948	0.762	761.8	test	Phase3	test/STIM_019.jpg	99
2072.768	1.067	1067.1	test	Phase3	test/STIM_019.jpg	99
2076.381	1.102	1102.5	test	Phase3	test/STIM_020.jpg	100
2080.789	0.824	823.8	test	Phase3	test/STIM_020.jpg	100
2083.867	1.204	1204.1	test	Phase3	test/STIM_020.jpg	99
2087.732	0.815	815.0	test	Phase3	test/STIM_021.jpg	99
2091.747	1.179	1178.9	test	Phase3	test/STIM_021.jpg	99
2096.798	0.645	645.4	test	Phase3	test/STIM_021.jpg	99
2100.267	1.233	1233.2	test	Phase3	test/STIM_022.jpg	100
2104.641	1.08	1079.8	test	Phase3	test/STIM_022.jpg	100
2108.885	0.646	646.5	test	Phase3	test/STIM_022.jpg	99
2112.288	0.864	863.5	test	Phase3	test/STIM_023.jpg	100
2116.787	1.238	1238.1	test	Phase3	test/STIM_023.jpg	99
2120.818	0.795	794.8	test	Phase3	test/STIM_023.jpg	99
2124.957	0.845	845.3	test	Phase3	test/STIM_024.jpg	99
2128.545	1.005	1005.2	test	Phase3	test/STIM_024.jpg	100
2133.473	1.132	1131.8	test	Phase3	test/STIM_024.jpg	100
2137.219	0.646	646.0	test	Phase3	test/STIM_025.jpg	100
2140.438	1.121	1121.4	test	Phase3	test/STIM_025.jpg	99
2143.65	1.029	1029.0	test	Phase3	test/STIM_025.jpg	100
2147.936	1.294	1294.1	test	Phase3	test/STIM_026.jpg	100
2152.149	0.963	963.0	test	Phase3	test/STIM_026.jpg	99
2155.873	1.31	1310.4	test	Phase3	test/STIM_026.jpg	100
2159.619	0.684	684.1	test	Phase3	test/STIM_027.jpg	100
2162.382	1.103	1103.1	test	Phase3	test/STIM_027.jpg	99
2166.961	1.167	1167.2	test	Phase3	test/STIM_027.jpg	100
2170.362	0.743	742.7	test	Phase3	test/STIM_028.jpg	100
2173.364	0.676	676.3	test	Phase3	test/STIM_028.jpg	99
2177.49	1.211	1210.7	test	Phase3	test/STIM_028.jpg	100
2181.585	1.308	1307.9	test	Phase3	test/STIM_029.jpg	100
2186.633	0.839	839.1	test	Phase3	test/STIM_029.jpg	100
2189.918	1.138	1137.8	test	Phase3	test/STIM_029.jpg	100
