onset	duration	accuracy	trial_type	learning_stage	stimulus
0.0	2.263	correct	navigation	Trial1	navigation/STIM_000.jpg
5.071	3.765	correct	navigation	Trial1	navigation/STIM_000.jpg
11.605	1.846	incorrect	navigation	Trial1	navigation/STIM_000.jpg
16.981	1.942	correct	navigation	Trial1	navigation/STIM_000.jpg
21.736	2.779	correct	navigation	Trial1	navigation/STIM_000.jpg
28.427	2.621	correct	navigation	Trial1	navigation/STIM_000.jpg
34.646	2.006	incorrect	navigation	Trial1	navigation/STIM_001.jpg
39.687	2.726	correct	navigation	Trial1	navigation/STIM_001.jpg
45.081	2.472	correct	navigation	Trial1	navigation/STIM_001.jpg
50.289	1.74	correct	navigation	Trial1	navigation/STIM_001.jpg
54.417	2.069	correct	navigation	Trial1	navigation/STIM_001.jpg
60.459	2.355	correct	navigation	Trial1	navigation/STIM_001.jpg
67.082	2.714	correct	navigation	Trial1	navigation/STIM_002.jpg
73.908	2.161	correct	navigation	Trial1	navigation/STIM_002.jpg
80.327	3.215	correct	navigation	Trial1	navigation/STIM_002.jpg
86.842	2.088	incorrect	navigation	Trial1	navigation/STIM_002.jpg
92.238	2.664	incorrect	navigation	Trial1	navigation/STIM_002.jpg
97.962	2.087	correct	navigation	Trial1	navigation/STIM_002.jpg
104.25	2.67	correct	navigation	Trial1	navigation/STIM_003.jpg
110.055	3.274	correct	navigation	Trial1	navigation/STIM_003.jpg
116.806	3.213	correct	navigation	Trial1	navigation/STIM_003.jpg
123.161	1.64	incorrect	navigation	Trial1	navigation/STIM_003.jpg
128.636	2.988	correct	navigation	Trial1	navigation/STIM_003.jpg
135.604	2.799	incorrect	navigation	Trial1	navigation/STIM_003.jpg
141.24	2.197	correct	navigation	Trial1	navigation/STIM_004.jpg
145.937	3.849	correct	navigation	Trial1	navigation/STIM_004.jpg
153.049	1.567	incorrect	navigation	Trial1	navigation/STIM_004.jpg
158.748	3.313	correct	navigation	Trial1	navigation/STIM_004.jpg
165.134	3.215	correct	navigation	Trial1	navigation/STIM_004.jpg
172.514	2.744	correct	navigation	Trial1	navigation/STIM_004.jpg
177.84	3.968	correct	navigation	Trial1	navigation/STIM_005.jpg
184.56	3.716	correct	navigation	Trial1	navigation/STIM_005.jpg
192.68	1.709	correct	navigation	Trial1	navigation/STIM_005.jpg
198.272	2.096	correct	navigation	Trial1	navigation/STIM_005.jpg
204.7	3.386	correct	navigation	Trial1	navigation/STIM_005.jpg
212.263	2.382	incorrect	navigation	Trial1	navigation/STIM_005.jpg
218.067	3.72	incorrect	navigation	Trial1	navigation/STIM_006.jpg
224.86	4.009	correct	navigation	Trial1	navigation/STIM_006.jpg
232.209	2.868	incorrect	navigation	Trial1	navigation/STIM_006.jpg
238.882	1.952	correct	navigation	Trial1	navigation/STIM_006.jpg
244.127	2.718	correct	navigation	Trial1	navigation/STIM_006.jpg
250.757	2.67	incorrect	navigation	Trial1	navigation/STIM_006.jpg
256.587	3.033	correct	navigation	Trial1	navigation/STIM_007.jpg
264.076	3.532	correct	navigation	Trial1	navigation/STIM_007.jpg
270.792	2.567	correct	navigation	Trial1	navigation/STIM_007.jpg
277.295	3.038	correct	navigation	Trial1	navigation/STIM_007.jpg
284.643	2.847	correct	navigation	Trial1	navigation/STIM_007.jpg
291.688	2.528	incorrect	navigation	Trial1	navigation/STIM_007.jpg
297.959	3.608	incorrect	navigation	Trial1	navigation/STIM_008.jpg
306.012	3.641	correct	navigation	Trial1	navigation/STIM_008.jpg
313.403	3.141	correct	navigation	Trial1	navigation/STIM_008.jpg
319.775	1.854	correct	navigation	Trial1	navigation/STIM_008.jpg
325.421	3.031	correct	navigation	Trial1	navigation/STIM_008.jpg
331.065	2.815	correct	navigation	Trial1	navigation/STIM_008.jpg
336.608	4.05	incorrect	navigation	Trial1	navigation/STIM_009.jpg
345.27	2.351	correct	navigation	Trial1	navigation/STIM_009.jpg
350.391	3.735	correct	navigation	Trial1	navigation/STIM_009.jpg
358.534	2.822	correct	navigation	Trial1	navigation/STIM_009.jpg
364.275	1.576	correct	navigation	Trial1	navigation/STIM_009.jpg
368.639	1.563	correct	navigation	Trial1	navigation/STIM_009.jpg
374.187	3.638	incorrect	navigation	Trial1	navigation/STIM_010.jpg
382.037	2.387	incorrect	navigation	Trial1	navigation/STIM_010.jpg
386.977	3.675	correct	navigation	Trial1	navigation/STIM_010.jpg
393.352	2.168	incorrect	navigation	Trial1	navigation/STIM_010.jpg
398.271	2.788	correct	navigation	Trial1	navigation/STIM_010.jpg
404.983	2.935	incorrect	navigation	Trial1	navigation/STIM_010.jpg
411.606	2.362	incorrect	navigation	Trial1	navigation/STIM_011.jpg
416.392	2.96	correct	navigation	Trial1	navigation/STIM_011.jpg
422.798	2.224	incorrect	navigation	Trial1	navigation/STIM_011.jpg
429.117	3.28	correct	navigation	Trial1	navigation/STIM_011.jpg
436.804	1.406	incorrect	navigation	Trial1	navigation/STIM_011.jpg
442.084	3.12	correct	navigation	Trial1	navigation/STIM_011.jpg
448.532	0.983	correct	pointing	Trial1	pointing/STIM_000.jpg
452.469	1.09	incorrect	pointing	Trial1	pointing/STIM_000.jpg
456.717	0.931	correct	pointing	Trial1	pointing/STIM_000.jpg
460.496	0.936	correct	pointing	Trial1	pointing/STIM_000.jpg
463.617	0.767	correct	pointing	Trial1	pointing/STIM_000.jpg
467.35	1.152	correct	pointing	Trial1	pointing/STIM_000.jpg
470.961	1.066	correct	pointing	Trial1	pointing/STIM_001.jpg
474.699	0.73	correct	pointing	Trial1	pointing/STIM_001.jpg
479.094	0.92	correct	pointing	Trial1	pointing/STIM_001.jpg
483.377	0.757	correct	pointing	Trial1	pointing/STIM_001.jpg
486.712	0.937	correct	pointing	Trial1	pointing/STIM_001.jpg
491.619	0.795	incorrect	pointing	Trial1	pointing/STIM_001.jpg
495.55	1.099	correct	pointing	Trial1	pointing/STIM_002.jpg
500.595	1.191	correct	pointing	Trial1	pointing/STIM_002.jpg
505.684	1.158	correct	pointing	Trial1	pointing/STIM_002.jpg
509.156	1.047	correct	pointing	Trial1	pointing/STIM_002.jpg
512.609	0.708	correct	pointing	Trial1	pointing/STIM_002.jpg
515.844	1.112	incorrect	pointing	Trial1	pointing/STIM_002.jpg
521.122	1.13	incorrect	pointing	Trial1	pointing/STIM_003.jpg
525.02	0.827	correct	pointing	Trial1	pointing/STIM_003.jpg
528.194	1.124	incorrect	pointing	Trial1	pointing/STIM_003.jpg
533.418	1.086	correct	pointing	Trial1	pointing/STIM_003.jpg
538.45	1.056	correct	pointing	Trial1	pointing/STIM_003.jpg
543.029	0.726	correct	pointing	Trial1	pointing/STIM_003.jpg
546.361	0.912	correct	pointing	Trial1	pointing/STIM_004.jpg
549.553	0.787	correct	pointing	Trial1	pointing/STIM_004.jpg
554.396	0.976	correct	pointing	Trial1	pointing/STIM_004.jpg
557.735	1.029	correct	pointing	Trial1	pointing/STIM_004.jpg
562.621	0.739	correct	pointing	Trial1	pointing/STIM_004.jpg
566.378	1.018	correct	pointing	Trial1	pointing/STIM_004.jpg
569.879	1.12	correct	pointing	Trial1	pointing/STIM_005.jpg
575.028	1.024	correct	pointing	Trial1	pointing/STIM_005.jpg
579.692	1.177	correct	pointing	Trial1	pointing/STIM_005.jpg
583.859	1.198	correct	pointing	Trial1	pointing/STIM_005.jpg
587.361	1.127	correct	pointing	Trial1	pointing/STIM_005.jpg
591.595	1.184	correct	pointing	Trial1	pointing/STIM_005.jpg
595.831	0.927	incorrect	pointing	Trial1	pointing/STIM_006.jpg
600.387	0.928	correct	pointing	Trial1	pointing/STIM_006.jpg
605.182	1.095	correct	pointing	Trial1	pointing/STIM_006.jpg
609.846	1.079	correct	pointing	Trial1	pointing/STIM_006.jpg
613.883	1.19	correct	pointing	Trial1	pointing/STIM_006.jpg
618.512	0.965	incorrect	pointing	Trial1	pointing/STIM_006.jpg
622.3	0.893	correct	pointing	Trial1	pointing/STIM_007.jpg
626.47	1.267	correct	pointing	Trial1	pointing/STIM_007.jpg
631.527	0.807	correct	pointing	Trial1	pointing/STIM_007.jpg
635.124	1.057	correct	pointing	Trial1	pointing/STIM_007.jpg
638.978	0.913	correct	pointing	Trial1	pointing/STIM_007.jpg
642.166	1.261	correct	pointing	Trial1	pointing/STIM_007.jpg
647.048	1.181	correct	pointing	Trial1	pointing/STIM_008.jpg
651.862	0.859	correct	pointing	Trial1	pointing/STIM_008.jpg
656.424	1.262	correct	pointing	Trial1	pointing/STIM_008.jpg
660.631	0.948	correct	pointing	Trial1	pointing/STIM_008.jpg
664.571	0.834	correct	pointing	Trial1	pointing/STIM_008.jpg
668.838	1.123	correct	pointing	Trial1	pointing/STIM_008.jpg
672.551	0.816	correct	pointing	Trial1	pointing/STIM_009.jpg
676.776	0.993	correct	pointing	Trial1	pointing/STIM_009.jpg
681.665	1.228	correct	pointing	Trial1	pointing/STIM_009.jpg
685.215	0.87	correct	pointing	Trial1	pointing/STIM_009.jpg
689.33	0.81	incorrect	pointing	Trial1	pointing/STIM_009.jpg
693.05	1.248	correct	pointing	Trial1	pointing/STIM_009.jpg
697.235	0.974	correct	pointing	Trial1	pointing/STIM_010.jpg
700.754	1.174	correct	pointing	Trial1	pointing/STIM_010.jpg
705.382	1.006	correct	pointing	Trial1	pointing/STIM_010.jpg
709.405	1.043	incorrect	pointing	Trial1	pointing/STIM_010.jpg
714.313	1.115	correct	pointing	Trial1	pointing/STIM_010.jpg
719.436	1.245	correct	pointing	Trial1	pointing/STIM_010.jpg
723.608	0.775	correct	pointing	Trial1	pointing/STIM_011.jpg
727.4	0.966	correct	pointing	Trial1	pointing/STIM_011.jpg
731.736	1.198	incorrect	pointing	Trial1	pointing/STIM_011.jpg
736.645	0.808	correct	pointing	Trial1	pointing/STIM_011.jpg
739.843	0.887	correct	pointing	Trial1	pointing/STIM_011.jpg
743.489	1.259	correct	pointing	Trial1	pointing/STIM_011.jpg
748.626	2.086	incorrect	navigation	Trial2	navigation/STIM_000.jpg
754.8	1.701	correct	navigation	Trial2	navigation/STIM_000.jpg
758.816	1.637	correct	navigation	Trial2	navigation/STIM_000.jpg
764.636	2.729	correct	navigation	Trial2	navigation/STIM_000.jpg
769.928	2.012	incorrect	navigation	Trial2	navigation/STIM_000.jpg
775.922	1.496	correct	navigation	Trial2	navigation/STIM_000.jpg
781.423	2.038	incorrect	navigation	Trial2	navigation/STIM_001.jpg
787.53	3.238	correct	navigation	Trial2	navigation/STIM_001.jpg
794.4	2.956	correct	navigation	Trial2	navigation/STIM_001.jpg
801.697	1.253	correct	navigation	Trial2	navigation/STIM_001.jpg
806.058	1.527	correct	navigation	Trial2	navigation/STIM_001.jpg
810.529	1.485	correct	navigation	Trial2	navigation/STIM_001.jpg
815.152	3.381	correct	navigation	Trial2	navigation/STIM_002.jpg
822.359	2.415	incorrect	navigation	Trial2	navigation/STIM_002.jpg
828.454	2.166	incorrect	navigation	Trial2	navigation/STIM_002.jpg
834.8	2.606	correct	navigation	Trial2	navigation/STIM_002.jpg
841.012	2.049	correct	navigation	Trial2	navigation/STIM_002.jpg
846.675	1.937	correct	navigation	Trial2	navigation/STIM_002.jpg
851.935	2.22	correct	navigation	Trial2	navigation/STIM_003.jpg
856.693	2.144	incorrect	navigation	Trial2	navigation/STIM_003.jpg
861.31	2.814	incorrect	navigation	Trial2	navigation/STIM_003.jpg
866.851	1.988	correct	navigation	Trial2	navigation/STIM_003.jpg
872.062	2.717	correct	navigation	Trial2	navigation/STIM_003.jpg
877.364	2.34	incorrect	navigation	Trial2	navigation/STIM_003.jpg
883.25	1.665	incorrect	navigation	Trial2	navigation/STIM_004.jpg
888.44	2.796	correct	navigation	Trial2	navigation/STIM_004.jpg
895.144	1.873	correct	navigation	Trial2	navigation/STIM_004.jpg
900.093	2.846	correct	navigation	Trial2	navigation/STIM_004.jpg
905.534	1.661	correct	navigation	Trial2	navigation/STIM_004.jpg
910.47	1.363	correct	navigation	Trial2	navigation/STIM_004.jpg
914.819	1.586	correct	navigation	Trial2	navigation/STIM_005.jpg
920.118	1.63	correct	navigation	Trial2	navigation/STIM_005.jpg
925.575	2.518	incorrect	navigation	Trial2	navigation/STIM_005.jpg
932.236	1.944	correct	navigation	Trial2	navigation/STIM_005.jpg
936.65	1.601	incorrect	navigation	Trial2	navigation/STIM_005.jpg
942.43	2.736	incorrect	navigation	Trial2	navigation/STIM_005.jpg
949.103	2.454	incorrect	navigation	Trial2	navigation/STIM_006.jpg
954.069	2.69	correct	navigation	Trial2	navigation/STIM_006.jpg
960.435	2.218	correct	navigation	Trial2	navigation/STIM_006.jpg
965.938	2.512	correct	navigation	Trial2	navigation/STIM_006.jpg
971.883	1.819	correct	navigation	Trial2	navigation/STIM_006.jpg
976.421	1.445	incorrect	navigation	Trial2	navigation/STIM_006.jpg
981.641	3.133	incorrect	navigation	Trial2	navigation/STIM_007.jpg
988.531	2.953	correct	navigation	Trial2	navigation/STIM_007.jpg
995.215	2.626	incorrect	navigation	Trial2	navigation/STIM_007.jpg
1001.926	2.518	correct	navigation	Trial2	navigation/STIM_007.jpg
1007.868	1.243	correct	navigation	Trial2	navigation/STIM_007.jpg
1011.67	1.522	correct	navigation	Trial2	navigation/STIM_007.jpg
1016.097	2.846	incorrect	navigation	Trial2	navigation/STIM_008.jpg
1023.031	2.496	correct	navigation	Trial2	navigation/STIM_008.jpg
1028.423	1.284	correct	navigation	Trial2	navigation/STIM_008.jpg
1032.154	1.561	correct	navigation	Trial2	navigation/STIM_008.jpg
1037.552	2.138	correct	navigation	Trial2	navigation/STIM_008.jpg
1042.885	1.816	correct	navigation	Trial2	navigation/STIM_008.jpg
1047.743	1.733	correct	navigation	Trial2	navigation/STIM_009.jpg
1052.606	2.811	correct	navigation	Trial2	navigation/STIM_009.jpg
1059.481	1.694	correct	navigation	Trial2	navigation/STIM_009.jpg
1064.769	1.727	incorrect	navigation	Trial2	navigation/STIM_009.jpg
1069.927	1.368	correct	navigation	Trial2	navigation/STIM_009.jpg
1073.793	1.854	incorrect	navigation	Trial2	navigation/STIM_009.jpg
1078.391	3.502	correct	navigation	Trial2	navigation/STIM_010.jpg
1085.915	2.266	correct	navigation	Trial2	navigation/STIM_010.jpg
1090.678	2.207	correct	navigation	Trial2	navigation/STIM_010.jpg
1097.186	2.26	correct	navigation	Trial2	navigation/STIM_010.jpg
1103.765	2.353	correct	navigation	Trial2	navigation/STIM_010.jpg
1110.027	1.888	correct	navigation	Trial2	navigation/STIM_010.jpg
1115.914	2.69	correct	navigation	Trial2	navigation/STIM_011.jpg
1121.482	3.39	correct	navigation	Trial2	navigation/STIM_011.jpg
1128.19	2.036	correct	navigation	Trial2	navigation/STIM_011.jpg
1132.63	2.488	correct	navigation	Trial2	navigation/STIM_011.jpg
1139.205	1.518	correct	navigation	Trial2	navigation/STIM_011.jpg
1143.365	2.064	correct	navigation	Trial2	navigation/STIM_011.jpg
1148.126	0.855	correct	pointing	Trial2	pointing/STIM_000.jpg
1152.699	1.207	correct	pointing	Trial2	pointing/STIM_000.jpg
1156.541	0.764	correct	pointing	Trial2	pointing/STIM_000.jpg
1160.046	1.196	correct	pointing	Trial2	pointing/STIM_000.jpg
1165.408	1.218	correct	pointing	Trial2	pointing/STIM_000.jpg
1169.595	0.972	correct	pointing	Trial2	pointing/STIM_000.jpg
1174.105	0.983	correct	pointing	Trial2	pointing/STIM_001.jpg
1177.28	1.21	correct	pointing	Trial2	pointing/STIM_001.jpg
1182.263	1.127	incorrect	pointing	Trial2	pointing/STIM_001.jpg
1185.92	1.271	correct	pointing	Trial2	pointing/STIM_001.jpg
1189.492	0.892	correct	pointing	Trial2	pointing/STIM_001.jpg
1192.96	1.183	correct	pointing	Trial2	pointing/STIM_001.jpg
1197.209	0.862	correct	pointing	Trial2	pointing/STIM_002.jpg
1200.786	1.031	correct	pointing	Trial2	pointing/STIM_002.jpg
1204.65	0.887	correct	pointing	Trial2	pointing/STIM_002.jpg
1208.921	1.155	correct	pointing	Trial2	pointing/STIM_002.jpg
1213.68	1.21	incorrect	pointing	Trial2	pointing/STIM_002.jpg
1218.583	1.024	correct	pointing	Trial2	pointing/STIM_002.jpg
1222.097	1.226	correct	pointing	Trial2	pointing/STIM_003.jpg
1226.62	0.693	correct	pointing	Trial2	pointing/STIM_003.jpg
1229.654	0.919	correct	pointing	Trial2	pointing/STIM_003.jpg
1232.992	0.832	correct	pointing	Trial2	pointing/STIM_003.jpg
1237.552	0.822	correct	pointing	Trial2	pointing/STIM_003.jpg
1241.727	0.949	correct	pointing	Trial2	pointing/STIM_003.jpg
1245.674	0.762	incorrect	pointing	Trial2	pointing/STIM_004.jpg
1249.346	0.955	correct	pointing	Trial2	pointing/STIM_004.jpg
1252.698	0.729	correct	pointing	Trial2	pointing/STIM_004.jpg
1256.556	0.717	correct	pointing	Trial2	pointing/STIM_004.jpg
1260.416	0.865	correct	pointing	Trial2	pointing/STIM_004.jpg
1264.226	1.178	correct	pointing	Trial2	pointing/STIM_004.jpg
1268.658	1.263	correct	pointing	Trial2	pointing/STIM_005.jpg
1272.431	1.0	correct	pointing	Trial2	pointing/STIM_005.jpg
1276.471	1.205	correct	pointing	Trial2	pointing/STIM_005.jpg
1281.358	1.095	correct	pointing	Trial2	pointing/STIM_005.jpg
1286.446	1.017	correct	pointing	Trial2	pointing/STIM_005.jpg
1290.175	1.182	correct	pointing	Trial2	pointing/STIM_005.jpg
1293.878	0.903	correct	pointing	Trial2	pointing/STIM_006.jpg
1298.206	1.166	correct	pointing	Trial2	pointing/STIM_006.jpg
1301.694	1.032	correct	pointing	Trial2	pointing/STIM_006.jpg
1306.045	0.752	correct	pointing	Trial2	pointing/STIM_006.jpg
1309.945	0.686	incorrect	pointing	Trial2	pointing/STIM_006.jpg
1313.178	0.719	correct	pointing	Trial2	pointing/STIM_006.jpg
1317.103	1.247	correct	pointing	Trial2	pointing/STIM_007.jpg
1322.214	1.045	correct	pointing	Trial2	pointing/STIM_007.jpg
1326.927	0.828	correct	pointing	Trial2	pointing/STIM_007.jpg
1330.216	0.86	correct	pointing	Trial2	pointing/STIM_007.jpg
1334.701	0.966	correct	pointing	Trial2	pointing/STIM_007.jpg
1339.321	0.789	correct	pointing	Trial2	pointing/STIM_007.jpg
1343.365	0.699	correct	pointing	Trial2	pointing/STIM_008.jpg
1347.014	1.145	correct	pointing	Trial2	pointing/STIM_008.jpg
1350.962	0.882	incorrect	pointing	Trial2	pointing/STIM_008.jpg
1355.92	1.218	correct	pointing	Trial2	pointing/STIM_008.jpg
1360.404	1.273	correct	pointing	Trial2	pointing/STIM_008.jpg
1363.95	0.798	correct	pointing	Trial2	pointing/STIM_008.jpg
1367.295	0.976	correct	pointing	Trial2	pointing/STIM_009.jpg
1370.773	1.076	correct	pointing	Trial2	pointing/STIM_009.jpg
1375.158	0.999	correct	pointing	Trial2	pointing/STIM_009.jpg
1378.905	0.961	correct	pointing	Trial2	pointing/STIM_009.jpg
1383.663	0.848	incorrect	pointing	Trial2	pointing/STIM_009.jpg
1386.827	0.748	correct	pointing	Trial2	pointing/STIM_009.jpg
1389.71	1.279	correct	pointing	Trial2	pointing/STIM_010.jpg
1395.187	0.806	correct	pointing	Trial2	pointing/STIM_010.jpg
1399.079	1.127	correct	pointing	Trial2	pointing/STIM_010.jpg
1402.762	0.79	correct	pointing	Trial2	pointing/STIM_010.jpg
1406.594	0.876	correct	pointing	Trial2	pointing/STIM_010.jpg
1410.935	0.897	correct	pointing	Trial2	pointing/STIM_010.jpg
1415.373	0.697	correct	pointing	Trial2	pointing/STIM_011.jpg
1419.904	1.173	correct	pointing	Trial2	pointing/STIM_011.jpg
1425.148	1.172	correct	pointing	Trial2	pointing/STIM_011.jpg
1430.407	0.795	correct	pointing	Trial2	pointing/STIM_011.jpg
1434.787	1.0	correct	pointing	Trial2	pointing/STIM_011.jpg
1439.834	1.011	correct	pointing	Trial2	pointing/STIM_011.jpg
1444.877	1.505	correct	navigation	Trial3	navigation/STIM_000.jpg
1450.442	1.373	correct	navigation	Trial3	navigation/STIM_000.jpg
1454.569	2.922	correct	navigation	Trial3	navigation/STIM_000.jpg
1461.495	1.622	correct	navigation	Trial3	navigation/STIM_000.jpg
1466.588	2.156	correct	navigation	Trial3	navigation/STIM_000.jpg
1471.975	2.064	correct	navigation	Trial3	navigation/STIM_000.jpg
1477.765	2.309	correct	navigation	Trial3	navigation/STIM_001.jpg
1483.834	1.525	correct	navigation	Trial3	navigation/STIM_001.jpg
1488.485	2.51	correct	navigation	Trial3	navigation/STIM_001.jpg
1494.187	2.694	correct	navigation	Trial3	navigation/STIM_001.jpg
1500.949	1.758	correct	navigation	Trial3	navigation/STIM_001.jpg
1505.79	2.121	incorrect	navigation	Trial3	navigation/STIM_001.jpg
1510.603	2.688	correct	navigation	Trial3	navigation/STIM_002.jpg
1517.093	2.281	correct	navigation	Trial3	navigation/STIM_002.jpg
1521.821	1.668	correct	navigation	Trial3	navigation/STIM_002.jpg
1527.531	2.338	correct	navigation	Trial3	navigation/STIM_002.jpg
1532.749	1.642	correct	navigation	Trial3	navigation/STIM_002.jpg
1537.21	2.292	correct	navigation	Trial3	navigation/STIM_002.jpg
1542.943	2.467	correct	navigation	Trial3	navigation/STIM_003.jpg
1549.012	1.511	correct	navigation	Trial3	navigation/STIM_003.jpg
1553.35	2.726	correct	navigation	Trial3	navigation/STIM_003.jpg
1559.877	2.006	incorrect	navigation	Trial3	navigation/STIM_003.jpg
1565.751	2.422	correct	navigation	Trial3	navigation/STIM_003.jpg
1571.21	1.357	correct	navigation	Trial3	navigation/STIM_003.jpg
1576.087	1.495	correct	navigation	Trial3	navigation/STIM_004.jpg
1580.145	1.874	correct	navigation	Trial3	navigation/STIM_004.jpg
1586.145	2.63	incorrect	navigation	Trial3	navigation/STIM_004.jpg
1593.141	1.677	incorrect	navigation	Trial3	navigation/STIM_004.jpg
1597.474	1.841	correct	navigation	Trial3	navigation/STIM_004.jpg
1601.885	2.898	correct	navigation	Trial3	navigation/STIM_004.jpg
1607.554	1.897	correct	navigation	Trial3	navigation/STIM_005.jpg
1613.159	2.387	correct	navigation	Trial3	navigation/STIM_005.jpg
1619.594	2.091	correct	navigation	Trial3	navigation/STIM_005.jpg
1624.216	2.702	correct	navigation	Trial3	navigation/STIM_005.jpg
1630.605	2.279	correct	navigation	Trial3	navigation/STIM_005.jpg
1636.156	1.571	correct	navigation	Trial3	navigation/STIM_005.jpg
1640.94	2.8	incorrect	navigation	Trial3	navigation/STIM_006.jpg
1647.226	1.896	correct	navigation	Trial3	navigation/STIM_006.jpg
1651.731	1.479	correct	navigation	Trial3	navigation/STIM_006.jpg
1656.933	1.574	correct	navigation	Trial3	navigation/STIM_006.jpg
1661.203	2.71	correct	navigation	Trial3	navigation/STIM_006.jpg
1668.045	1.577	incorrect	navigation	Trial3	navigation/STIM_006.jpg
1672.48	2.887	correct	navigation	Trial3	navigation/STIM_007.jpg
1679.063	1.226	correct	navigation	Trial3	navigation/STIM_007.jpg
1684.263	1.612	correct	navigation	Trial3	navigation/STIM_007.jpg
1689.465	1.241	correct	navigation	Trial3	navigation/STIM_007.jpg
1693.188	1.759	correct	navigation	Trial3	navigation/STIM_007.jpg
1698.187	2.619	correct	navigation	Trial3	navigation/STIM_007.jpg
1704.698	1.382	correct	navigation	Trial3	navigation/STIM_008.jpg
1710.151	1.656	correct	navigation	Trial3	navigation/STIM_008.jpg
1714.953	2.46	incorrect	navigation	Trial3	navigation/STIM_008.jpg
1721.433	2.38	correct	navigation	Trial3	navigation/STIM_008.jpg
1727.5	1.957	correct	navigation	Trial3	navigation/STIM_008.jpg
1732.763	1.67	correct	navigation	Trial3	navigation/STIM_008.jpg
1737.603	1.305	correct	navigation	Trial3	navigation/STIM_009.jpg
1742.434	2.161	correct	navigation	Trial3	navigation/STIM_009.jpg
1747.541	1.393	correct	navigation	Trial3	navigation/STIM_009.jpg
1752.625	2.555	correct	navigation	Trial3	navigation/STIM_009.jpg
1757.756	2.19	correct	navigation	Trial3	navigation/STIM_009.jpg
1763.335	2.43	correct	navigation	Trial3	navigation/STIM_009.jpg
1768.954	2.698	correct	navigation	Trial3	navigation/STIM_010.jpg
1775.872	2.798	correct	navigation	Trial3	navigation/STIM_010.jpg
1781.936	2.227	correct	navigation	Trial3	navigation/STIM_010.jpg
1787.076	1.768	correct	navigation	Trial3	navigation/STIM_010.jpg
1792.096	2.868	incorrect	navigation	Trial3	navigation/STIM_010.jpg
1797.707	1.616	correct	navigation	Trial3	navigation/STIM_010.jpg
1802.893	2.871	correct	navigation	Trial3	navigation/STIM_011.jpg
1809.813	1.463	incorrect	navigation	Trial3	navigation/STIM_011.jpg
1813.544	2.086	correct	navigation	Trial3	navigation/STIM_011.jpg
1819.622	2.9	correct	navigation	Trial3	navigation/STIM_011.jpg
1826.63	2.298	correct	navigation	Trial3	navigation/STIM_011.jpg
1831.469	1.554	correct	navigation	Trial3	navigation/STIM_011.jpg
1836.707	0.974	correct	pointing	Trial3	pointing/STIM_000.jpg
1840.734	0.931	correct	pointing	Trial3	pointing/STIM_000.jpg
1844.926	1.086	correct	pointing	Trial3	pointing/STIM_000.jpg
1849.598	0.96	correct	pointing	Trial3	pointing/STIM_000.jpg
1854.102	1.231	correct	pointing	Trial3	pointing/STIM_000.jpg
1858.082	1.034	correct	pointing	Trial3	pointing/STIM_000.jpg
1861.527	1.161	correct	pointing	Trial3	pointing/STIM_001.jpg
1866.331	0.776	correct	pointing	Trial3	pointing/STIM_001.jpg
1870.186	0.838	correct	pointing	Trial3	pointing/STIM_001.jpg
1875.074	0.734	correct	pointing	Trial3	pointing/STIM_001.jpg
1878.136	0.776	correct	pointing	Trial3	pointing/STIM_001.jpg
1881.599	1.246	correct	pointing	Trial3	pointing/STIM_001.jpg
1885.263	1.153	correct	pointing	Trial3	pointing/STIM_002.jpg
1889.763	0.808	correct	pointing	Trial3	pointing/STIM_002.jpg
1893.587	0.959	correct	pointing	Trial3	pointing/STIM_002.jpg
1897.162	0.777	correct	pointing	Trial3	pointing/STIM_002.jpg
1900.112	1.075	correct	pointing	Trial3	pointing/STIM_002.jpg
1903.898	0.737	correct	pointing	Trial3	pointing/STIM_002.jpg
1907.311	1.063	correct	pointing	Trial3	pointing/STIM_003.jpg
1912.546	1.004	correct	pointing	Trial3	pointing/STIM_003.jpg
1917.257	1.058	correct	pointing	Trial3	pointing/STIM_003.jpg
1921.653	0.733	correct	pointing	Trial3	pointing/STIM_003.jpg
1924.771	1.089	correct	pointing	Trial3	pointing/STIM_003.jpg
1929.996	0.943	correct	pointing	Trial3	pointing/STIM_003.jpg
1935.031	1.054	correct	pointing	Trial3	pointing/STIM_004.jpg
1939.958	1.166	correct	pointing	Trial3	pointing/STIM_004.jpg
1944.177	0.925	correct	pointing	Trial3	pointing/STIM_004.jpg
1948.338	0.979	correct	pointing	Trial3	pointing/STIM_004.jpg
1951.933	1.256	correct	pointing	Trial3	pointing/STIM_004.jpg
1955.451	1.22	correct	pointing	Trial3	pointing/STIM_004.jpg
1958.982	1.128	correct	pointing	Trial3	pointing/STIM_005.jpg
1962.736	1.176	correct	pointing	Trial3	pointing/STIM_005.jpg
1967.681	1.168	correct	pointing	Trial3	pointing/STIM_005.jpg
1971.754	0.988	correct	pointing	Trial3	pointing/STIM_005.jpg
1976.149	0.892	correct	pointing	Trial3	pointing/STIM_005.jpg
1979.358	0.69	correct	pointing	Trial3	pointing/STIM_005.jpg
1983.049	1.031	correct	pointing	Trial3	pointing/STIM_006.jpg
1987.025	0.954	incorrect	pointing	Trial3	pointing/STIM_006.jpg
1990.582	0.926	correct	pointing	Trial3	pointing/STIM_006.jpg
1994.438	1.013	correct	pointing	Trial3	pointing/STIM_006.jpg
1999.034	0.821	correct	pointing	Trial3	pointing/STIM_006.jpg
2003.585	1.214	correct	pointing	Trial3	pointing/STIM_006.jpg
2008.293	0.768	correct	pointing	Trial3	pointing/STIM_007.jpg
2012.825	1.004	correct	pointing	Trial3	pointing/STIM_007.jpg
2017.0	1.009	correct	pointing	Trial3	pointing/STIM_007.jpg
2021.878	0.89	correct	pointing	Trial3	pointing/STIM_007.jpg
2026.295	0.86	incorrect	pointing	Trial3	pointing/STIM_007.jpg
2030.659	1.044	correct	pointing	Trial3	pointing/STIM_007.jpg
2035.14	0.881	correct	pointing	Trial3	pointing/STIM_008.jpg
2040.127	0.985	correct	pointing	Trial3	pointing/STIM_008.jpg
2043.898	0.742	correct	pointing	Trial3	pointing/STIM_008.jpg
2047.825	0.828	correct	pointing	Trial3	pointing/STIM_008.jpg
2052.099	1.232	incorrect	pointing	Trial3	pointing/STIM_008.jpg
2056.583	1.282	correct	pointing	Trial3	pointing/STIM_008.jpg
2060.95	1.004	correct	pointing	Trial3	pointing/STIM_009.jpg
2065.311	1.207	correct	pointing	Trial3	pointing/STIM_009.jpg
2069.573	0.885	correct	pointing	Trial3	pointing/STIM_009.jpg
2074.462	1.267	correct	pointing	Trial3	pointing/STIM_009.jpg
2078.698	0.96	correct	pointing	Trial3	pointing/STIM_009.jpg
2082.504	0.935	correct	pointing	Trial3	pointing/STIM_009.jpg
2086.544	1.015	correct	pointing	Trial3	pointing/STIM_010.jpg
2090.627	1.206	correct	pointing	Trial3	pointing/STIM_010.jpg
2094.742	0.756	correct	pointing	Trial3	pointing/STIM_010.jpg
2098.802	0.809	correct	pointing	Trial3	pointing/STIM_010.jpg
2102.541	1.234	incorrect	pointing	Trial3	pointing/STIM_010.jpg
2107.751	1.011	correct	pointing	Trial3	pointing/STIM_010.jpg
2112.729	1.13	correct	pointing	Trial3	pointing/STIM_011.jpg
2116.569	1.25	incorrect	pointing	Trial3	pointing/STIM_011.jpg
2121.792	1.281	correct	pointing	Trial3	pointing/STIM_011.jpg
2125.316	0.973	correct	pointing	Trial3	pointing/STIM_011.jpg
2129.96	1.133	correct	pointing	Trial3	pointing/STIM_011.jpg
2134.743	0.918	correct	pointing	Trial3	pointing/STIM_011.jpg
