onset	duration	response_time_ms	trial_type	learning_stage	stimulus	response_port
0.0	2.263	2263.4	navigation	Trial1	navigation/STIM_000.jpg	99
5.071	3.765	3765.1	navigation	Trial1	navigation/STIM_000.jpg	100
11.605	1.846	1846.3	navigation	Trial1	navigation/STIM_000.jpg	99
16.981	1.942	1941.6	navigation	Trial1	navigation/STIM_000.jpg	100
21.736	2.779	2778.7	navigation	Trial1	navigation/STIM_000.jpg	99
28.427	2.621	2620.7	navigation	Trial1	navigation/STIM_000.jpg	99
34.646	2.006	2006.0	navigation	Trial1	navigation/STIM_001.jpg	100
39.687	2.726	2725.5	navigation	Trial1	navigation/STIM_001.jpg	99
45.081	2.472	2472.4	navigation	Trial1	navigation/STIM_001.jpg	99
50.289	1.74	1739.8	navigation	Trial1	navigation/STIM_001.jpg	99
54.417	2.069	2069.4	navigation	Trial1	navigation/STIM_001.jpg	99
60.459	2.355	2355.0	navigation	Trial1	navigation/STIM_001.jpg	99
67.082	2.714	2714.2	navigation	Trial1	navigation/STIM_002.jpg	99
73.908	2.161	2161.2	navigation	Trial1	navigation/STIM_002.jpg	100
80.327	3.215	3215.0	navigation	Trial1	navigation/STIM_002.jpg	99
86.842	2.088	2088.1	navigation	Trial1	navigation/STIM_002.jpg	99
92.238	2.664	2664.5	navigation	Trial1	navigation/STIM_002.jpg	100
97.962	2.087	2086.6	navigation	Trial1	navigation/STIM_002.jpg	100
104.25	2.67	2669.7	navigation	Trial1	navigation/STIM_003.jpg	100
110.055	3.274	3273.5	navigation	Trial1	navigation/STIM_003.jpg	99
116.806	3.213	3213.3	navigation	Trial1	navigation/STIM_003.jpg	99
123.161	1.64	1640.4	navigation	Trial1	navigation/STIM_003.jpg	99
128.636	2.988	2988.4	navigation	Trial1	navigation/STIM_003.jpg	100
135.604	2.799	2799.0	navigation	Trial1	navigation/STIM_003.jpg	99
141.24	2.197	2196.8	navigation	Trial1	navigation/STIM_004.jpg	99
145.937	3.849	3848.8	navigation	Trial1	navigation/STIM_004.jpg	100
153.049	1.567	1566.6	navigation	Trial1	navigation/STIM_004.jpg	100
158.748	3.313	3313.3	navigation	Trial1	navigation/STIM_004.jpg	99
165.134	3.215	3215.3	navigation	Trial1	navigation/STIM_004.jpg	99
172.514	2.744	2744.4	navigation	Trial1	navigation/STIM_004.jpg	100
177.84	3.968	3967.9	navigation	Trial1	navigation/STIM_005.jpg	100
184.56	3.716	3716.5	navigation	Trial1	navigation/STIM_005.jpg	100
192.68	1.709	1708.6	navigation	Trial1	navigation/STIM_005.jpg	100
198.272	2.096	2096.4	navigation	Trial1	navigation/STIM_005.jpg	100
204.7	3.386	3386.0	navigation	Trial1	navigation/STIM_005.jpg	99
212.263	2.382	2382.2	navigation	Trial1	navigation/STIM_005.jpg	99
218.067	3.72	3720.1	navigation	Trial1	navigation/STIM_006.jpg	99
224.86	4.009	4008.8	navigation	Trial1	navigation/STIM_006.jpg	99
232.209	2.868	2868.2	navigation	Trial1	navigation/STIM_006.jpg	99
238.882	1.952	1951.5	navigation	Trial1	navigation/STIM_006.jpg	100
244.127	2.718	2718.4	navigation	Trial1	navigation/STIM_006.jpg	99
250.757	2.67	2669.7	navigation	Trial1	navigation/STIM_006.jpg	100
256.587	3.033	3033.2	navigation	Trial1	navigation/STIM_007.jpg	100
264.076	3.532	3532.3	navigation	Trial1	navigation/STIM_007.jpg	100
270.792	2.567	2567.4	navigation	Trial1	navigation/STIM_007.jpg	100
277.295	3.038	3038.5	navigation	Trial1	navigation/STIM_007.jpg	99
284.643	2.847	2847.4	navigation	Trial1	navigation/STIM_007.jpg	99
291.688	2.528	2528.1	navigation	Trial1	navigation/STIM_007.jpg	100
297.959	3.608	3608.1	navigation	Trial1	navigation/STIM_008.jpg	99
306.012	3.641	3640.9	navigation	Trial1	navigation/STIM_008.jpg	100
313.403	3.141	3141.3	navigation	Trial1	navigation/STIM_008.jpg	100
319.775	1.854	1854.1	navigation	Trial1	navigation/STIM_008.jpg	100
325.421	3.031	3030.9	navigation	Trial1	navigation/STIM_008.jpg	99
331.065	2.815	2815.4	navigation	Trial1	navigation/STIM_008.jpg	100
336.608	4.05	4050.4	navigation	Trial1	navigation/STIM_009.jpg	100
345.27	2.351	2350.8	navigation	Trial1	navigation/STIM_009.jpg	99
350.391	3.735	3735.1	navigation	Trial1	navigation/STIM_009.jpg	99
358.534	2.822	2822.4	navigation	Trial1	navigation/STIM_009.jpg	99
364.275	1.576	1575.8	navigation	Trial1	navigation/STIM_009.jpg	99
368.639	1.563	1562.9	navigation	Trial1	navigation/STIM_009.jpg	99
374.187	3.638	3637.7	navigation	Trial1	navigation/STIM_010.jpg	99
382.037	2.387	2386.9	navigation	Trial1	navigation/STIM_010.jpg	100
386.977	3.675	3674.7	navigation	Trial1	navigation/STIM_010.jpg	100
393.352	2.168	2168.5	navigation	Trial1	navigation/STIM_010.jpg	99
398.271	2.788	2787.9	navigation	Trial1	navigation/STIM_010.jpg	99
404.983	2.935	2935.0	navigation	Trial1	navigation/STIM_010.jpg	99
411.606	2.362	2361.5	navigation	Trial1	navigation/STIM_011.jpg	100
416.392	2.96	2959.9	navigation	Trial1	navigation/STIM_011.jpg	100
422.798	2.224	2224.3	navigation	Trial1	navigation/STIM_011.jpg	99
429.117	3.28	3279.6	navigation	Trial1	navigation/STIM_011.jpg	99
436.804	1.406	1405.6	navigation	Trial1	navigation/STIM_011.jpg	100
442.084	3.12	3120.1	navigation	Trial1	navigation/STIM_011.jpg	100
448.532	0.983	982.9	pointing	Trial1	pointing/STIM_000.jpg	100
452.469	1.09	1090.2	pointing	Trial1	pointing/STIM_000.jpg	99
456.717	0.931	930.8	pointing	Trial1	pointing/STIM_000.jpg	100
460.496	0.936	935.5	pointing	Trial1	pointing/STIM_000.jpg	99
463.617	0.767	766.6	pointing	Trial1	pointing/STIM_000.jpg	99
467.35	1.152	1151.7	pointing	Trial1	pointing/STIM_000.jpg	100
470.961	1.066	1066.1	pointing	Trial1	pointing/STIM_001.jpg	99
474.699	0.73	729.7	pointing	Trial1	pointing/STIM_001.jpg	100
479.094	0.92	919.6	pointing	Trial1	pointing/STIM_001.jpg	99
483.377	0.757	756.6	pointing	Trial1	pointing/STIM_001.jpg	99
486.712	0.937	936.7	pointing	Trial1	pointing/STIM_001.jpg	100
491.619	0.795	795.2	pointing	Trial1	pointing/STIM_001.jpg	99
495.55	1.099	1099.1	pointing	Trial1	pointing/STIM_002.jpg	100
500.595	1.191	1191.2	pointing	Trial1	pointing/STIM_002.jpg	99
505.684	1.158	1158.5	pointing	Trial1	pointing/STIM_002.jpg	99
509.156	1.047	1046.7	pointing	Trial1	pointing/STIM_002.jpg	99
512.609	0.708	707.9	pointing	Trial1	pointing/STIM_002.jpg	100
515.844	1.112	1112.3	pointing	Trial1	pointing/STIM_002.jpg	99
521.122	1.13	1129.8	pointing	Trial1	pointing/STIM_003.jpg	100
525.02	0.827	826.6	pointing	Trial1	pointing/STIM_003.jpg	100
528.194	1.124	1123.6	pointing	Trial1	pointing/STIM_003.jpg	99
533.418	1.086	1086.5	pointing	Trial1	pointing/STIM_003.jpg	99
538.45	1.056	1056.3	pointing	Trial1	pointing/STIM_003.jpg	100
543.029	0.726	726.1	pointing	Trial1	pointing/STIM_003.jpg	100
546.361	0.912	911.6	pointing	Trial1	pointing/STIM_004.jpg	100
549.553	0.787	787.2	pointing	Trial1	pointing/STIM_004.jpg	100
554.396	0.976	976.4	pointing	Trial1	pointing/STIM_004.jpg	99
557.735	1.029	1028.6	pointing	Trial1	pointing/STIM_004.jpg	99
562.621	0.739	738.9	pointing	Trial1	pointing/STIM_004.jpg	99
566.378	1.018	1018.5	pointing	Trial1	pointing/STIM_004.jpg	99
569.879	1.12	1119.9	pointing	Trial1	pointing/STIM_005.jpg	100
575.028	1.024	1023.7	pointing	Trial1	pointing/STIM_005.jpg	99
579.692	1.177	1177.3	pointing	Trial1	pointing/STIM_005.jpg	100
583.859	1.198	1197.5	pointing	Trial1	pointing/STIM_005.jpg	100
587.361	1.127	1126.9	pointing	Trial1	pointing/STIM_005.jpg	100
591.595	1.184	1183.5	pointing	Trial1	pointing/STIM_005.jpg	99
595.831	0.927	927.4	pointing	Trial1	pointing/STIM_006.jpg	99
600.387	0.928	928.1	pointing	Trial1	pointing/STIM_006.jpg	99
605.182	1.095	1095.4	pointing	Trial1	pointing/STIM_006.jpg	99
609.846	1.079	1078.8	pointing	Trial1	pointing/STIM_006.jpg	100
613.883	1.19	1190.2	pointing	Trial1	pointing/STIM_006.jpg	99
618.512	0.965	964.6	pointing	Trial1	pointing/STIM_006.jpg	99
622.3	0.893	893.4	pointing	Trial1	pointing/STIM_007.jpg	100
626.47	1.267	1267.2	pointing	Trial1	pointing/STIM_007.jpg	100
631.527	0.807	807.1	pointing	Trial1	pointing/STIM_007.jpg	100
635.124	1.057	1056.7	pointing	Trial1	pointing/STIM_007.jpg	100
638.978	0.913	913.1	pointing	Trial1	pointing/STIM_007.jpg	100
642.166	1.261	1261.0	pointing	Trial1	pointing/STIM_007.jpg	99
647.048	1.181	1181.3	pointing	Trial1	pointing/STIM_008.jpg	99
651.862	0.859	859.2	pointing	Trial1	pointing/STIM_008.jpg	100
656.424	1.262	1262.4	pointing	Trial1	pointing/STIM_008.jpg	100
660.631	0.948	948.3	pointing	Trial1	pointing/STIM_008.jpg	100
664.571	0.834	833.6	pointing	Trial1	pointing/STIM_008.jpg	100
668.838	1.123	1122.6	pointing	Trial1	pointing/STIM_008.jpg	100
672.551	0.816	816.2	pointing	Trial1	pointing/STIM_009.jpg	99
676.776	0.993	993.0	pointing	Trial1	pointing/STIM_009.jpg	99
681.665	1.228	1228.3	pointing	Trial1	pointing/STIM_009.jpg	99
685.215	0.87	870.4	pointing	Trial1	pointing/STIM_009.jpg	100
689.33	0.81	809.9	pointing	Trial1	pointing/STIM_009.jpg	100
693.05	1.248	1247.9	pointing	Trial1	pointing/STIM_009.jpg	100
697.235	0.974	974.4	pointing	Trial1	pointing/STIM_010.jpg	99
700.754	1.174	1174.0	pointing	Trial1	pointing/STIM_010.jpg	99
705.382	1.006	1005.9	pointing	Trial1	pointing/STIM_010.jpg	99
709.405	1.043	1042.6	pointing	Trial1	pointing/STIM_010.jpg	99
714.313	1.115	1115.1	pointing	Trial1	pointing/STIM_010.jpg	100
719.436	1.245	1245.3	pointing	Trial1	pointing/STIM_010.jpg	99
723.608	0.775	775.2	pointing	Trial1	pointing/STIM_011.jpg	100
727.4	0.966	965.9	pointing	Trial1	pointing/STIM_011.jpg	99
731.736	1.198	1198.2	pointing	Trial1	pointing/STIM_011.jpg	99
736.645	0.808	807.6	pointing	Trial1	pointing/STIM_011.jpg	100
739.843	0.887	886.9	pointing	Trial1	pointing/STIM_011.jpg	99
743.489	1.259	1259.4	pointing	Trial1	pointing/STIM_011.jpg	99
748.626	2.086	2086.4	navigation	Trial2	navigation/STIM_000.jpg	99
754.8	1.701	1700.8	navigation	Trial2	navigation/STIM_000.jpg	100
758.816	1.637	1636.8	navigation	Trial2	navigation/STIM_000.jpg	100
764.636	2.729	2728.9	navigation	Trial2	navigation/STIM_000.jpg	100
769.928	2.012	2011.7	navigation	Trial2	navigation/STIM_000.jpg	100
775.922	1.496	1496.1	navigation	Trial2	navigation/STIM_000.jpg	99
781.423	2.038	2037.9	navigation	Trial2	navigation/STIM_001.jpg	100
787.53	3.238	3238.2	navigation	Trial2	navigation/STIM_001.jpg	99
794.4	2.956	2956.3	navigation	Trial2	navigation/STIM_001.jpg	99
801.697	1.253	1252.8	navigation	Trial2	navigation/STIM_001.jpg	100
806.058	1.527	1526.9	navigation	Trial2	navigation/STIM_001.jpg	100
810.529	1.485	1485.3	navigation	Trial2	navigation/STIM_001.jpg	99
815.152	3.381	3380.9	navigation	Trial2	navigation/STIM_002.jpg	100
822.359	2.415	2414.8	navigation	Trial2	navigation/STIM_002.jpg	100
828.454	2.166	2165.5	navigation	Trial2	navigation/STIM_002.jpg	99
834.8	2.606	2606.2	navigation	Trial2	navigation/STIM_002.jpg	100
841.012	2.049	2049.4	navigation	Trial2	navigation/STIM_002.jpg	100
846.675	1.937	1937.4	navigation	Trial2	navigation/STIM_002.jpg	99
851.935	2.22	2220.0	navigation	Trial2	navigation/STIM_003.jpg	100
856.693	2.144	2144.2	navigation	Trial2	navigation/STIM_003.jpg	100
861.31	2.814	2814.3	navigation	Trial2	navigation/STIM_003.jpg	100
866.851	1.988	1987.9	navigation	Trial2	navigation/STIM_003.jpg	100
872.062	2.717	2716.8	navigation	Trial2	navigation/STIM_003.jpg	100
877.364	2.34	2340.2	navigation	Trial2	navigation/STIM_003.jpg	100
883.25	1.665	1665.3	navigation	Trial2	navigation/STIM_004.jpg	100
888.44	2.796	2796.2	navigation	Trial2	navigation/STIM_004.jpg	99
895.144	1.873	1872.6	navigation	Trial2	navigation/STIM_004.jpg	100
900.093	2.846	2846.3	navigation	Trial2	navigation/STIM_004.jpg	100
905.534	1.661	1661.2	navigation	Trial2	navigation/STIM_004.jpg	100
910.47	1.363	1363.1	navigation	Trial2	navigation/STIM_004.jpg	99
914.819	1.586	1586.0	navigation	Trial2	navigation/STIM_005.jpg	99
920.118	1.63	1630.5	navigation	Trial2	navigation/STIM_005.jpg	100
925.575	2.518	2518.1	navigation	Trial2	navigation/STIM_005.jpg	100
932.236	1.944	1944.2	navigation	Trial2	navigation/STIM_005.jpg	99
936.65	1.601	1601.0	navigation	Trial2	navigation/STIM_005.jpg	99
942.43	2.736	2736.3	navigation	Trial2	navigation/STIM_005.jpg	100
949.103	2.454	2454.5	navigation	Trial2	navigation/STIM_006.jpg	100
954.069	2.69	2689.6	navigation	Trial2	navigation/STIM_006.jpg	100
960.435	2.218	2218.5	navigation	Trial2	navigation/STIM_006.jpg	99
965.938	2.512	2511.9	navigation	Trial2	navigation/STIM_006.jpg	99
971.883	1.819	1819.2	navigation	Trial2	navigation/STIM_006.jpg	99
976.421	1.445	1445.4	navigation	Trial2	navigation/STIM_006.jpg	100
981.641	3.133	3133.2	navigation	Trial2	navigation/STIM_007.jpg	100
988.531	2.953	2953.4	navigation	Trial2	navigation/STIM_007.jpg	99
995.215	2.626	2626.0	navigation	Trial2	navigation/STIM_007.jpg	99
1001.926	2.518	2518.4	navigation	Trial2	navigation/STIM_007.jpg	99
1007.868	1.243	1243.0	navigation	Trial2	navigation/STIM_007.jpg	99
1011.67	1.522	1522.1	navigation	Trial2	navigation/STIM_007.jpg	100
1016.097	2.846	2846.4	navigation	Trial2	navigation/STIM_008.jpg	99
1023.031	2.496	2496.1	navigation	Trial2	navigation/STIM_008.jpg	100
1028.423	1.284	1284.4	navigation	Trial2	navigation/STIM_008.jpg	100
1032.154	1.561	1560.8	navigation	Trial2	navigation/STIM_008.jpg	99
1037.552	2.138	2137.5	navigation	Trial2	navigation/STIM_008.jpg	99
1042.885	1.816	1816.4	navigation	Trial2	navigation/STIM_008.jpg	100
1047.743	1.733	1733.0	navigation	Trial2	navigation/STIM_009.jpg	99
1052.606	2.811	2811.4	navigation	Trial2	navigation/STIM_009.jpg	100
1059.481	1.694	1693.5	navigation	Trial2	navigation/STIM_009.jpg	99
1064.769	1.727	1727.2	navigation	Trial2	navigation/STIM_009.jpg	99
1069.927	1.368	1367.6	navigation	Trial2	navigation/STIM_009.jpg	100
1073.793	1.854	1854.3	navigation	Trial2	navigation/STIM_009.jpg	100
1078.391	3.502	3502.1	navigation	Trial2	navigation/STIM_010.jpg	99
1085.915	2.266	2265.5	navigation	Trial2	navigation/STIM_010.jpg	100
1090.678	2.207	2207.0	navigation	Trial2	navigation/STIM_010.jpg	99
1097.186	2.26	2259.7	navigation	Trial2	navigation/STIM_010.jpg	99
1103.765	2.353	2352.9	navigation	Trial2	navigation/STIM_010.jpg	99
1110.027	1.888	1887.6	navigation	Trial2	navigation/STIM_010.jpg	99
1115.914	2.69	2690.2	navigation	Trial2	navigation/STIM_011.jpg	99
1121.482	3.39	3389.9	navigation	Trial2	navigation/STIM_011.jpg	100
1128.19	2.036	2035.7	navigation	Trial2	navigation/STIM_011.jpg	99
1132.63	2.488	2488.3	navigation	Trial2	navigation/STIM_011.jpg	99
1139.205	1.518	1517.7	navigation	Trial2	navigation/STIM_011.jpg	100
1143.365	2.064	2063.6	navigation	Trial2	navigation/STIM_011.jpg	99
1148.126	0.855	854.7	pointing	Trial2	pointing/STIM_000.jpg	99
1152.699	1.207	1207.2	pointing	Trial2	pointing/STIM_000.jpg	100
1156.541	0.764	763.8	pointing	Trial2	pointing/STIM_000.jpg	99
1160.046	1.196	1195.7	pointing	Trial2	pointing/STIM_000.jpg	99
1165.408	1.218	1218.1	pointing	Trial2	pointing/STIM_000.jpg	99
1169.595	0.972	971.6	pointing	Trial2	pointing/STIM_000.jpg	100
1174.105	0.983	983.1	pointing	Trial2	pointing/STIM_001.jpg	100
1177.28	1.21	1209.9	pointing	Trial2	pointing/STIM_001.jpg	99
1182.263	1.127	1126.9	pointing	Trial2	pointing/STIM_001.jpg	100
1185.92	1.271	1270.6	pointing	Trial2	pointing/STIM_001.jpg	100
1189.492	0.892	892.2	pointing	Trial2	pointing/STIM_001.jpg	99
1192.96	1.183	1183.3	pointing	Trial2	pointing/STIM_001.jpg	99
1197.209	0.862	862.0	pointing	Trial2	pointing/STIM_002.jpg	99
1200.786	1.031	1031.1	pointing	Trial2	pointing/STIM_002.jpg	99
1204.65	0.887	886.9	pointing	Trial2	pointing/STIM_002.jpg	99
1208.921	1.155	1154.8	pointing	Trial2	pointing/STIM_002.jpg	100
1213.68	1.21	1210.2	pointing	Trial2	pointing/STIM_002.jpg	100
1218.583	1.024	1023.5	pointing	Trial2	pointing/STIM_002.jpg	99
1222.097	1.226	1225.5	pointing	Trial2	pointing/STIM_003.jpg	100
1226.62	0.693	692.6	pointing	Trial2	pointing/STIM_003.jpg	99
1229.654	0.919	919.3	pointing	Trial2	pointing/STIM_003.jpg	99
1232.992	0.832	831.5	pointing	Trial2	pointing/STIM_003.jpg	100
1237.552	0.822	822.0	pointing	Trial2	pointing/STIM_003.jpg	99
1241.727	0.949	949.3	pointing	Trial2	pointing/STIM_003.jpg	99
1245.674	0.762	762.5	pointing	Trial2	pointing/STIM_004.jpg	99
1249.346	0.955	954.7	pointing	Trial2	pointing/STIM_004.jpg	99
1252.698	0.729	729.0	pointing	Trial2	pointing/STIM_004.jpg	99
1256.556	0.717	717.0	pointing	Trial2	pointing/STIM_004.jpg	99
1260.416	0.865	864.7	pointing	Trial2	pointing/STIM_004.jpg	99
1264.226	1.178	1177.9	pointing	Trial2	pointing/STIM_004.jpg	99
1268.658	1.263	1263.0	pointing	Trial2	pointing/STIM_005.jpg	99
1272.431	1.0	1000.2	pointing	Trial2	pointing/STIM_005.jpg	99
1276.471	1.205	1205.4	pointing	Trial2	pointing/STIM_005.jpg	99
1281.358	1.095	1095.4	pointing	Trial2	pointing/STIM_005.jpg	99
1286.446	1.017	1016.7	pointing	Trial2	pointing/STIM_005.jpg	99
1290.175	1.182	1182.3	pointing	Trial2	pointing/STIM_005.jpg	100
1293.878	0.903	902.8	pointing	Trial2	pointing/STIM_006.jpg	100
1298.206	1.166	1165.6	pointing	Trial2	pointing/STIM_006.jpg	99
1301.694	1.032	1032.4	pointing	Trial2	pointing/STIM_006.jpg	100
1306.045	0.752	751.9	pointing	Trial2	pointing/STIM_006.jpg	100
1309.945	0.686	686.2	pointing	Trial2	pointing/STIM_006.jpg	99
1313.178	0.719	719.0	pointing	Trial2	pointing/STIM_006.jpg	99
1317.103	1.247	1247.1	pointing	Trial2	pointing/STIM_007.jpg	99
1322.214	1.045	1044.9	pointing	Trial2	pointing/STIM_007.jpg	100
1326.927	0.828	828.5	pointing	Trial2	pointing/STIM_007.jpg	100
1330.216	0.86	860.0	pointing	Trial2	pointing/STIM_007.jpg	100
1334.701	0.966	965.7	pointing	Trial2	pointing/STIM_007.jpg	99
1339.321	0.789	789.2	pointing	Trial2	pointing/STIM_007.jpg	100
1343.365	0.699	698.6	pointing	Trial2	pointing/STIM_008.jpg	100
1347.014	1.145	1144.6	pointing	Trial2	pointing/STIM_008.jpg	100
1350.962	0.882	881.6	pointing	Trial2	pointing/STIM_008.jpg	99
1355.92	1.218	1217.9	pointing	Trial2	pointing/STIM_008.jpg	99
1360.404	1.273	1273.1	pointing	Trial2	pointing/STIM_008.jpg	100
1363.95	0.798	797.6	pointing	Trial2	pointing/STIM_008.jpg	99
1367.295	0.976	976.4	pointing	Trial2	pointing/STIM_009.jpg	100
1370.773	1.076	1076.4	pointing	Trial2	pointing/STIM_009.jpg	100
1375.158	0.999	999.4	pointing	Trial2	pointing/STIM_009.jpg	100
1378.905	0.961	961.1	pointing	Trial2	pointing/STIM_009.jpg	99
1383.663	0.848	848.1	pointing	Trial2	pointing/STIM_009.jpg	99
1386.827	0.748	748.3	pointing	Trial2	pointing/STIM_009.jpg	99
1389.71	1.279	1279.3	pointing	Trial2	pointing/STIM_010.jpg	99
1395.187	0.806	805.9	pointing	Trial2	pointing/STIM_010.jpg	100
1399.079	1.127	1127.2	pointing	Trial2	pointing/STIM_010.jpg	99
1402.762	0.79	790.1	pointing	Trial2	pointing/STIM_010.jpg	99
1406.594	0.876	875.8	pointing	Trial2	pointing/STIM_010.jpg	99
1410.935	0.897	897.4	pointing	Trial2	pointing/STIM_010.jpg	99
1415.373	0.697	697.2	pointing	Trial2	pointing/STIM_011.jpg	99
1419.904	1.173	1172.7	pointing	Trial2	pointing/STIM_011.jpg	99
1425.148	1.172	1171.7	pointing	Trial2	pointing/STIM_011.jpg	100
1430.407	0.795	795.4	pointing	Trial2	pointing/STIM_011.jpg	99
1434.787	1.0	999.6	pointing	Trial2	pointing/STIM_011.jpg	100
1439.834	1.011	1011.4	pointing	Trial2	pointing/STIM_011.jpg	100
1444.877	1.505	1505.1	navigation	Trial3	navigation/STIM_000.jpg	99
1450.442	1.373	1373.3	navigation	Trial3	navigation/STIM_000.jpg	99
1454.569	2.922	2921.6	navigation	Trial3	navigation/STIM_000.jpg	100
1461.495	1.622	1622.0	navigation	Trial3	navigation/STIM_000.jpg	99
1466.588	2.156	2155.7	navigation	Trial3	navigation/STIM_000.jpg	99
1471.975	2.064	2064.3	navigation	Trial3	navigation/STIM_000.jpg	100
1477.765	2.309	2308.9	navigation	Trial3	navigation/STIM_001.jpg	99
1483.834	1.525	1525.3	navigation	Trial3	navigation/STIM_001.jpg	100
1488.485	2.51	2510.0	navigation	Trial3	navigation/STIM_001.jpg	99
1494.187	2.694	2693.8	navigation	Trial3	navigation/STIM_001.jpg	99
1500.949	1.758	1758.2	navigation	Trial3	navigation/STIM_001.jpg	99
1505.79	2.121	2121.2	navigation	Trial3	navigation/STIM_001.jpg	100
1510.603	2.688	2687.9	navigation	Trial3	navigation/STIM_002.jpg	99
1517.093	2.281	2281.2	navigation	Trial3	navigation/STIM_002.jpg	99
1521.821	1.668	1668.0	navigation	Trial3	navigation/STIM_002.jpg	99
1527.531	2.338	2338.5	navigation	Trial3	navigation/STIM_002.jpg	99
1532.749	1.642	1642.2	navigation	Trial3	navigation/STIM_002.jpg	99
1537.21	2.292	2291.6	navigation	Trial3	navigation/STIM_002.jpg	99
1542.943	2.467	2467.1	navigation	Trial3	navigation/STIM_003.jpg	100
1549.012	1.511	1510.6	navigation	Trial3	navigation/STIM_003.jpg	100
1553.35	2.726	2726.5	navigation	Trial3	navigation/STIM_003.jpg	100
1559.877	2.006	2006.3	navigation	Trial3	navigation/STIM_003.jpg	99
1565.751	2.422	2421.9	navigation	Trial3	navigation/STIM_003.jpg	100
1571.21	1.357	1357.0	navigation	Trial3	navigation/STIM_003.jpg	99
1576.087	1.495	1494.7	navigation	Trial3	navigation/STIM_004.jpg	100
1580.145	1.874	1874.1	navigation	Trial3	navigation/STIM_004.jpg	100
1586.145	2.63	2629.6	navigation	Trial3	navigation/STIM_004.jpg	100
1593.141	1.677	1677.0	navigation	Trial3	navigation/STIM_004.jpg	100
1597.474	1.841	1841.0	navigation	Trial3	navigation/STIM_004.jpg	99
1601.885	2.898	2898.2	navigation	Trial3	navigation/STIM_004.jpg	99
1607.554	1.897	1896.8	navigation	Trial3	navigation/STIM_005.jpg	99
1613.159	2.387	2387.2	navigation	Trial3	navigation/STIM_005.jpg	99
1619.594	2.091	2090.9	navigation	Trial3	navigation/STIM_005.jpg	100
1624.216	2.702	2702.0	navigation	Trial3	navigation/STIM_005.jpg	99
1630.605	2.279	2279.4	navigation	Trial3	navigation/STIM_005.jpg	99
1636.156	1.571	1571.1	navigation	Trial3	navigation/STIM_005.jpg	100
1640.94	2.8	2800.5	navigation	Trial3	navigation/STIM_006.jpg	100
1647.226	1.896	1896.0	navigation	Trial3	navigation/STIM_006.jpg	99
1651.731	1.479	1479.1	navigation	Trial3	navigation/STIM_006.jpg	100
1656.933	1.574	1573.9	navigation	Trial3	navigation/STIM_006.jpg	99
1661.203	2.71	2709.8	navigation	Trial3	navigation/STIM_006.jpg	99
1668.045	1.577	1576.9	navigation	Trial3	navigation/STIM_006.jpg	100
1672.48	2.887	2887.3	navigation	Trial3	navigation/STIM_007.jpg	99
1679.063	1.226	1226.3	navigation	Trial3	navigation/STIM_007.jpg	99
1684.263	1.612	1612.2	navigation	Trial3	navigation/STIM_007.jpg	99
1689.465	1.241	1241.3	navigation	Trial3	navigation/STIM_007.jpg	100
1693.188	1.759	1758.9	navigation	Trial3	navigation/STIM_007.jpg	99
1698.187	2.619	2619.1	navigation	Trial3	navigation/STIM_007.jpg	99
1704.698	1.382	1382.2	navigation	Trial3	navigation/STIM_008.jpg	100
1710.151	1.656	1655.6	navigation	Trial3	navigation/STIM_008.jpg	100
1714.953	2.46	2460.5	navigation	Trial3	navigation/STIM_008.jpg	100
1721.433	2.38	2379.7	navigation	Trial3	navigation/STIM_008.jpg	99
1727.5	1.957	1956.9	navigation	Trial3	navigation/STIM_008.jpg	99
1732.763	1.67	1669.5	navigation	Trial3	navigation/STIM_008.jpg	100
1737.603	1.305	1305.1	navigation	Trial3	navigation/STIM_009.jpg	99
1742.434	2.161	2160.9	navigation	Trial3	navigation/STIM_009.jpg	100
1747.541	1.393	1393.3	navigation	Trial3	navigation/STIM_009.jpg	99
1752.625	2.555	2554.6	navigation	Trial3	navigation/STIM_009.jpg	100
1757.756	2.19	2189.8	navigation	Trial3	navigation/STIM_009.jpg	100
1763.335	2.43	2430.5	navigation	Trial3	navigation/STIM_009.jpg	99
1768.954	2.698	2698.5	navigation	Trial3	navigation/STIM_010.jpg	99
1775.872	2.798	2797.9	navigation	Trial3	navigation/STIM_010.jpg	99
1781.936	2.227	2227.2	navigation	Trial3	navigation/STIM_010.jpg	100
1787.076	1.768	1768.2	navigation	Trial3	navigation/STIM_010.jpg	99
1792.096	2.868	2867.7	navigation	Trial3	navigation/STIM_010.jpg	99
1797.707	1.616	1616.0	navigation	Trial3	navigation/STIM_010.jpg	99
1802.893	2.871	2870.8	navigation	Trial3	navigation/STIM_011.jpg	99
1809.813	1.463	1462.9	navigation	Trial3	navigation/STIM_011.jpg	99
1813.544	2.086	2085.9	navigation	Trial3	navigation/STIM_011.jpg	100
1819.622	2.9	2900.5	navigation	Trial3	navigation/STIM_011.jpg	99
1826.63	2.298	2297.6	navigation	Trial3	navigation/STIM_011.jpg	100
1831.469	1.554	1553.7	navigation	Trial3	navigation/STIM_011.jpg	100
1836.707	0.974	973.5	pointing	Trial3	pointing/STIM_000.jpg	99
1840.734	0.931	930.7	pointing	Trial3	pointing/STIM_000.jpg	99
1844.926	1.086	1085.5	pointing	Trial3	pointing/STIM_000.jpg	100
1849.598	0.96	960.3	pointing	Trial3	pointing/STIM_000.jpg	99
1854.102	1.231	1231.0	pointing	Trial3	pointing/STIM_000.jpg	99
1858.082	1.034	1034.1	pointing	Trial3	pointing/STIM_000.jpg	99
1861.527	1.161	1160.6	pointing	Trial3	pointing/STIM_001.jpg	99
1866.331	0.776	776.4	pointing	Trial3	pointing/STIM_001.jpg	100
1870.186	0.838	838.3	pointing	Trial3	pointing/STIM_001.jpg	100
1875.074	0.734	733.8	pointing	Trial3	pointing/STIM_001.jpg	100
1878.136	0.776	776.2	pointing	Trial3	pointing/STIM_001.jpg	99
1881.599	1.246	1246.1	pointing	Trial3	pointing/STIM_001.jpg	100
1885.263	1.153	1152.7	pointing	Trial3	pointing/STIM_002.jpg	99
1889.763	0.808	807.9	pointing	Trial3	pointing/STIM_002.jpg	100
1893.587	0.959	959.0	pointing	Trial3	pointing/STIM_002.jpg	99
1897.162	0.777	777.1	pointing	Trial3	pointing/STIM_002.jpg	99
1900.112	1.075	1074.7	pointing	Trial3	pointing/STIM_002.jpg	99
1903.898	0.737	737.1	pointing	Trial3	pointing/STIM_002.jpg	100
1907.311	1.063	1063.0	pointing	Trial3	pointing/STIM_003.jpg	99
1912.546	1.004	1003.7	pointing	Trial3	pointing/STIM_003.jpg	100
1917.257	1.058	1058.1	pointing	Trial3	pointing/STIM_003.jpg	99
1921.653	0.733	733.2	pointing	Trial3	pointing/STIM_003.jpg	100
1924.771	1.089	1089.0	pointing	Trial3	pointing/STIM_003.jpg	99
1929.996	0.943	943.2	pointing	Trial3	pointing/STIM_003.jpg	100
1935.031	1.054	1054.4	pointing	Trial3	pointing/STIM_004.jpg	99
1939.958	1.166	1165.8	pointing	Trial3	pointing/STIM_004.jpg	100
1944.177	0.925	925.4	pointing	Trial3	pointing/STIM_004.jpg	100
1948.338	0.979	979.2	pointing	Trial3	pointing/STIM_004.jpg	99
1951.933	1.256	1255.7	pointing	Trial3	pointing/STIM_004.jpg	99
1955.451	1.22	1219.5	pointing	Trial3	pointing/STIM_004.jpg	99
1958.982	1.128	1127.6	pointing	Trial3	pointing/STIM_005.jpg	100
1962.736	1.176	1176.2	pointing	Trial3	pointing/STIM_005.jpg	99
1967.681	1.168	1168.1	pointing	Trial3	pointing/STIM_005.jpg	99
1971.754	0.988	988.2	pointing	Trial3	pointing/STIM_005.jpg	100
1976.149	0.892	891.7	pointing	Trial3	pointing/STIM_005.jpg	100
1979.358	0.69	690.5	pointing	Trial3	pointing/STIM_005.jpg	99
1983.049	1.031	1031.0	pointing	Trial3	pointing/STIM_006.jpg	99
1987.025	0.954	954.1	pointing	Trial3	pointing/STIM_006.jpg	99
1990.582	0.926	925.7	pointing	Trial3	pointing/STIM_006.jpg	99
1994.438	1.013	1012.7	pointing	Trial3	pointing/STIM_006.jpg	99
1999.034	0.821	820.9	pointing	Trial3	pointing/STIM_006.jpg	99
2003.585	1.214	1213.8	pointing	Trial3	pointing/STIM_006.jpg	99
2008.293	0.768	768.2	pointing	Trial3	pointing/STIM_007.jpg	99
2012.825	1.004	1003.6	pointing	Trial3	pointing/STIM_007.jpg	99
2017.0	1.009	1009.1	pointing	Trial3	pointing/STIM_007.jpg	99
2021.878	0.89	889.8	pointing	Trial3	pointing/STIM_007.jpg	99
2026.295	0.86	860.5	pointing	Trial3	pointing/STIM_007.jpg	100
2030.659	1.044	1043.7	pointing	Trial3	pointing/STIM_007.jpg	100
2035.14	0.881	881.2	pointing	Trial3	pointing/STIM_008.jpg	99
2040.127	0.985	984.7	pointing	Trial3	pointing/STIM_008.jpg	99
2043.898	0.742	741.9	pointing	Trial3	pointing/STIM_008.jpg	99
2047.825	0.828	827.6	pointing	Trial3	pointing/STIM_008.jpg	99
2052.099	1.232	1231.8	pointing	Trial3	pointing/STIM_008.jpg	100
2056.583	1.282	1281.6	pointing	Trial3	pointing/STIM_008.jpg	99
2060.95	1.004	1004.5	pointing	Trial3	pointing/STIM_009.jpg	100
2065.311	1.207	1207.0	pointing	Trial3	pointing/STIM_009.jpg	100
2069.573	0.885	884.6	pointing	Trial3	pointing/STIM_009.jpg	100
2074.462	1.267	1267.1	pointing	Trial3	pointing/STIM_009.jpg	100
2078.698	0.96	960.4	pointing	Trial3	pointing/STIM_009.jpg	100
2082.504	0.935	935.0	pointing	Trial3	pointing/STIM_009.jpg	99
2086.544	1.015	1015.1	pointing	Trial3	pointing/STIM_010.jpg	99
2090.627	1.206	1206.2	pointing	Trial3	pointing/STIM_010.jpg	99
2094.742	0.756	755.7	pointing	Trial3	pointing/STIM_010.jpg	100
2098.802	0.809	808.6	pointing	Trial3	pointing/STIM_010.jpg	99
2102.541	1.234	1234.5	pointing	Trial3	pointing/STIM_010.jpg	100
2107.751	1.011	1011.0	pointing	Trial3	pointing/STIM_010.jpg	99
2112.729	1.13	1130.3	pointing	Trial3	pointing/STIM_011.jpg	99
2116.569	1.25	1249.7	pointing	Trial3	pointing/STIM_011.jpg	100
2121.792	1.281	1280.7	pointing	Trial3	pointing/STIM_011.jpg	99
2125.316	0.973	973.3	pointing	Trial3	pointing/STIM_011.jpg	100
2129.96	1.133	1133.2	pointing	Trial3	pointing/STIM_011.jpg	100
2134.743	0.918	918.5	pointing	Trial3	pointing/STIM_011.jpg	99
