onset	duration	response_time_ms	trial_type	learning_stage	stimulus	response_port
0.0	0.909	909.4	incongruent	Block1	incongruent/STIM_000.jpg	100
3.439	1.061	1061.0	incongruent	Block1	incongruent/STIM_000.jpg	99
6.836	0.633	633.1	incongruent	Block1	incongruent/STIM_000.jpg	100
9.942	0.82	820.1	incongruent	Block1	incongruent/STIM_000.jpg	100
13.274	0.784	784.5	incongruent	Block1	incongruent/STIM_000.jpg	99
18.006	0.975	975.1	incongruent	Block1	incongruent/STIM_001.jpg	99
21.441	0.81	809.5	incongruent	Block1	incongruent/STIM_001.jpg	99
25.689	0.56	560.2	incongruent	Block1	incongruent/STIM_001.jpg	99
29.298	0.654	654.3	incongruent	Block1	incongruent/STIM_001.jpg	99
33.87	0.626	625.8	incongruent	Block1	incongruent/STIM_001.jpg	99
38.452	1.066	1066.0	incongruent	Block1	incongruent/STIM_002.jpg	99
43.171	1.077	1077.2	incongruent	Block1	incongruent/STIM_002.jpg	99
48.234	0.953	952.7	incongruent	Block1	incongruent/STIM_002.jpg	100
52.404	0.525	525.2	incongruent	Block1	incongruent/STIM_002.jpg	99
56.013	0.734	734.2	incongruent	Block1	incongruent/STIM_002.jpg	99
59.791	0.659	658.6	incongruent	Block1	incongruent/STIM_003.jpg	99
62.69	1.038	1038.1	incongruent	Block1	incongruent/STIM_003.jpg	99
66.42	0.892	892.4	incongruent	Block1	incongruent/STIM_003.jpg	99
70.619	0.619	619.0	incongruent	Block1	incongruent/STIM_003.jpg	99
73.64	0.731	731.2	incongruent	Block1	incongruent/STIM_003.jpg	100
77.905	0.795	794.9	incongruent	Block1	incongruent/STIM_004.jpg	100
81.638	0.514	513.6	incongruent	Block1	incongruent/STIM_004.jpg	99
84.608	0.487	486.6	incongruent	Block1	incongruent/STIM_004.jpg	99
88.751	0.481	481.0	incongruent	Block1	incongruent/STIM_004.jpg	100
91.327	0.546	545.6	incongruent	Block1	incongruent/STIM_004.jpg	100
94.685	0.884	883.6	incongruent	Block1	incongruent/STIM_005.jpg	99
99.383	0.6	599.8	incongruent	Block1	incongruent/STIM_005.jpg	100
102.345	0.712	712.5	incongruent	Block1	incongruent/STIM_005.jpg	100
106.155	0.757	757.3	incongruent	Block1	incongruent/STIM_005.jpg	99
108.943	0.631	631.3	incongruent	Block1	incongruent/STIM_005.jpg	100
112.395	0.831	830.9	incongruent	Block1	incongruent/STIM_006.jpg	99
115.348	0.625	625.3	incongruent	Block1	incongruent/STIM_006.jpg	99
118.575	0.948	948.1	incongruent	Block1	incongruent/STIM_006.jpg	99
123.306	0.757	756.6	incongruent	Block1	incongruent/STIM_006.jpg	99
127.054	0.633	633.0	incongruent	Block1	incongruent/STIM_006.jpg	100
129.716	0.707	707.0	incongruent	Block1	incongruent/STIM_007.jpg	99
132.968	0.916	915.8	incongruent	Block1	incongruent/STIM_007.jpg	99
137.807	0.825	825.3	incongruent	Block1	incongruent/STIM_007.jpg	100
142.02	0.933	932.9	incongruent	Block1	incongruent/STIM_007.jpg	99
145.317	0.481	481.1	incongruent	Block1	incongruent/STIM_007.jpg	99
149.472	0.783	783.4	incongruent	Block1	incongruent/STIM_008.jpg	99
152.654	1.055	1055.0	incongruent	Block1	incongruent/STIM_008.jpg	100
157.453	0.922	922.1	incongruent	Block1	incongruent/STIM_008.jpg	99
161.862	0.56	559.5	incongruent	Block1	incongruent/STIM_008.jpg	99
165.665	0.825	824.6	incongruent	Block1	incongruent/STIM_008.jpg	99
169.252	0.998	997.8	incongruent	Block1	incongruent/STIM_009.jpg	100
173.345	0.954	954.4	incongruent	Block1	incongruent/STIM_009.jpg	99
178.041	0.938	937.8	incongruent	Block1	incongruent/STIM_009.jpg	100
181.321	0.627	627.1	incongruent	Block1	incongruent/STIM_009.jpg	100
184.425	0.686	685.6	incongruent	Block1	incongruent/STIM_009.jpg	99
187.866	0.791	791.2	incongruent	Block1	incongruent/STIM_010.jpg	99
192.139	1.05	1050.0	incongruent	Block1	incongruent/STIM_010.jpg	100
196.796	0.718	718.2	incongruent	Block1	incongruent/STIM_010.jpg	100
200.108	0.575	575.1	incongruent	Block1	incongruent/STIM_010.jpg	100
202.829	0.734	734.0	incongruent	Block1	incongruent/STIM_010.jpg	99
206.821	0.718	717.5	incongruent	Block1	incongruent/STIM_011.jpg	99
209.989	0.754	753.6	incongruent	Block1	incongruent/STIM_011.jpg	100
214.72	0.894	893.7	incongruent	Block1	incongruent/STIM_011.jpg	99
219.494	0.469	469.0	incongruent	Block1	incongruent/STIM_011.jpg	100
222.691	0.876	876.0	incongruent	Block1	incongruent/STIM_011.jpg	100
226.122	1.097	1097.3	incongruent	Block1	incongruent/STIM_012.jpg	99
230.959	0.727	727.1	incongruent	Block1	incongruent/STIM_012.jpg	100
234.383	0.809	808.6	incongruent	Block1	incongruent/STIM_012.jpg	100
237.51	0.872	871.7	incongruent	Block1	incongruent/STIM_012.jpg	99
241.274	0.626	625.6	incongruent	Block1	incongruent/STIM_012.jpg	99
245.565	1.064	1063.5	incongruent	Block1	incongruent/STIM_013.jpg	100
250.197	1.001	1001.3	incongruent	Block1	incongruent/STIM_013.jpg	100
253.918	0.741	741.2	incongruent	Block1	incongruent/STIM_013.jpg	99
257.758	0.637	637.0	incongruent	Block1	incongruent/STIM_013.jpg	100
262.064	0.83	830.1	incongruent	Block1	incongruent/STIM_013.jpg	100
266.182	1.07	1069.8	incongruent	Block1	incongruent/STIM_014.jpg	99
270.65	0.692	691.8	incongruent	Block1	incongruent/STIM_014.jpg	99
274.201	0.567	567.4	incongruent	Block1	incongruent/STIM_014.jpg	100
277.955	0.687	686.8	incongruent	Block1	incongruent/STIM_014.jpg	100
280.987	0.863	863.4	incongruent	Block1	incongruent/STIM_014.jpg	100
285.481	0.906	905.6	incongruent	Block1	incongruent/STIM_015.jpg	100
288.407	0.577	576.6	incongruent	Block1	incongruent/STIM_015.jpg	99
292.285	0.953	953.3	incongruent	Block1	incongruent/STIM_015.jpg	100
296.31	0.687	686.7	incongruent	Block1	incongruent/STIM_015.jpg	99
299.406	0.428	428.4	incongruent	Block1	incongruent/STIM_015.jpg	99
303.221	0.755	755.1	incongruent	Block1	incongruent/STIM_016.jpg	99
306.248	0.758	758.0	incongruent	Block1	incongruent/STIM_016.jpg	100
309.651	0.765	765.0	incongruent	Block1	incongruent/STIM_016.jpg	99
313.703	0.863	863.4	incongruent	Block1	incongruent/STIM_016.jpg	99
316.652	0.806	806.3	incongruent	Block1	incongruent/STIM_016.jpg	100
320.677	0.546	546.3	incongruent	Block1	incongruent/STIM_017.jpg	100
324.544	0.644	643.5	incongruent	Block1	incongruent/STIM_017.jpg	100
327.263	0.754	753.5	incongruent	Block1	incongruent/STIM_017.jpg	99
331.185	0.683	683.2	incongruent	Block1	incongruent/STIM_017.jpg	99
334.133	0.847	847.4	incongruent	Block1	incongruent/STIM_017.jpg	99
338.319	0.941	941.1	incongruent	Block1	incongruent/STIM_018.jpg	99
342.831	0.539	538.8	incongruent	Block1	incongruent/STIM_018.jpg	99
347.347	0.893	893.1	incongruent	Block1	incongruent/STIM_018.jpg	99
351.404	0.528	528.2	incongruent	Block1	incongruent/STIM_018.jpg	99
354.398	0.675	675.1	incongruent	Block1	incongruent/STIM_018.jpg	100
357.347	1.137	1136.8	incongruent	Block1	incongruent/STIM_019.jpg	99
360.997	0.625	624.7	incongruent	Block1	incongruent/STIM_019.jpg	99
365.445	0.704	704.2	incongruent	Block1	incongruent/STIM_019.jpg	100
370.004	0.876	875.6	incongruent	Block1	incongruent/STIM_019.jpg	99
374.745	0.818	818.4	incongruent	Block1	incongruent/STIM_019.jpg	100
378.605	1.041	1040.6	incongruent	Block1	incongruent/STIM_020.jpg	100
383.591	0.887	886.8	incongruent	Block1	incongruent/STIM_020.jpg	99
387.679	1.022	1021.8	incongruent	Block1	incongruent/STIM_020.jpg	100
390.771	0.476	475.7	incongruent	Block1	incongruent/STIM_020.jpg	99
393.747	0.47	469.8	incongruent	Block1	incongruent/STIM_020.jpg	100
398.192	0.75	750.5	incongruent	Block1	incongruent/STIM_021.jpg	100
401.424	1.06	1060.0	incongruent	Block1	incongruent/STIM_021.jpg	100
405.666	0.583	582.8	incongruent	Block1	incongruent/STIM_021.jpg	99
409.706	0.884	884.1	incongruent	Block1	incongruent/STIM_021.jpg	100
413.028	0.813	812.6	incongruent	Block1	incongruent/STIM_021.jpg	99
416.249	0.831	831.1	incongruent	Block1	incongruent/STIM_022.jpg	100
420.669	0.83	830.0	incongruent	Block1	incongruent/STIM_022.jpg	100
425.251	0.684	684.0	incongruent	Block1	incongruent/STIM_022.jpg	99
428.111	0.802	802.2	incongruent	Block1	incongruent/STIM_022.jpg	100
431.485	0.494	493.7	incongruent	Block1	incongruent/STIM_022.jpg	99
434.549	1.117	1116.6	incongruent	Block1	incongruent/STIM_023.jpg	100
437.984	0.555	555.3	incongruent	Block1	incongruent/STIM_023.jpg	100
441.584	0.724	724.4	incongruent	Block1	incongruent/STIM_023.jpg	99
444.922	0.512	511.6	incongruent	Block1	incongruent/STIM_023.jpg	99
448.923	0.825	825.1	incongruent	Block1	incongruent/STIM_023.jpg	99
451.992	1.056	1056.0	incongruent	Block1	incongruent/STIM_024.jpg	100
456.953	0.533	532.9	incongruent	Block1	incongruent/STIM_024.jpg	100
460.695	0.644	644.1	incongruent	Block1	incongruent/STIM_024.jpg	99
464.091	0.492	492.2	incongruent	Block1	incongruent/STIM_024.jpg	100
467.621	0.782	781.8	incongruent	Block1	incongruent/STIM_024.jpg	100
471.505	1.071	1071.0	incongruent	Block1	incongruent/STIM_025.jpg	99
475.792	0.63	629.5	incongruent	Block1	incongruent/STIM_025.jpg	100
479.141	0.866	865.7	incongruent	Block1	incongruent/STIM_025.jpg	99
483.78	0.897	897.4	incongruent	Block1	incongruent/STIM_025.jpg	100
486.86	0.851	851.2	incongruent	Block1	incongruent/STIM_025.jpg	100
490.988	0.575	574.8	incongruent	Block1	incongruent/STIM_026.jpg	100
495.495	0.638	637.7	incongruent	Block1	incongruent/STIM_026.jpg	100
498.467	0.863	863.0	incongruent	Block1	incongruent/STIM_026.jpg	99
502.659	0.643	643.2	incongruent	Block1	incongruent/STIM_026.jpg	100
506.3	0.879	878.8	incongruent	Block1	incongruent/STIM_026.jpg	99
510.917	0.615	614.9	incongruent	Block1	incongruent/STIM_027.jpg	99
515.37	0.887	887.4	incongruent	Block1	incongruent/STIM_027.jpg	99
518.377	0.656	655.7	incongruent	Block1	incongruent/STIM_027.jpg	99
522.766	0.816	816.1	incongruent	Block1	incongruent/STIM_027.jpg	99
527.508	0.588	588.0	incongruent	Block1	incongruent/STIM_027.jpg	100
531.405	0.872	872.5	incongruent	Block1	incongruent/STIM_028.jpg	100
535.24	1.038	1037.9	incongruent	Block1	incongruent/STIM_028.jpg	99
539.136	0.561	561.1	incongruent	Block1	incongruent/STIM_028.jpg	99
542.344	0.737	736.6	incongruent	Block1	incongruent/STIM_028.jpg	100
546.852	0.626	625.9	incongruent	Block1	incongruent/STIM_028.jpg	100
551.423	1.019	1019.0	incongruent	Block1	incongruent/STIM_029.jpg	99
555.896	0.535	535.4	incongruent	Block1	incongruent/STIM_029.jpg	99
559.83	0.558	558.5	incongruent	Block1	incongruent/STIM_029.jpg	100
563.815	0.803	802.6	incongruent	Block1	incongruent/STIM_029.jpg	100
568.177	0.444	443.6	incongruent	Block1	incongruent/STIM_029.jpg	99
570.91	0.575	574.7	congruent	Block1	congruent/STIM_000.jpg	100
573.578	0.638	638.1	congruent	Block1	congruent/STIM_000.jpg	99
578.184	0.563	563.1	congruent	Block1	congruent/STIM_000.jpg	99
581.356	0.557	557.2	congruent	Block1	congruent/STIM_000.jpg	100
585.717	0.645	644.6	congruent	Block1	congruent/STIM_000.jpg	100
590.338	0.403	402.8	congruent	Block1	congruent/STIM_001.jpg	100
594.516	0.566	565.5	congruent	Block1	congruent/STIM_001.jpg	99
598.067	0.445	445.2	congruent	Block1	congruent/STIM_001.jpg	99
601.53	0.645	645.4	congruent	Block1	congruent/STIM_001.jpg	99
605.758	0.508	508.1	congruent	Block1	congruent/STIM_001.jpg	99
609.417	0.471	470.7	congruent	Block1	congruent/STIM_002.jpg	99
612.217	0.464	464.5	congruent	Block1	congruent/STIM_002.jpg	100
615.046	0.591	590.6	congruent	Block1	congruent/STIM_002.jpg	100
618.153	0.661	661.1	congruent	Block1	congruent/STIM_002.jpg	99
622.188	0.461	460.7	congruent	Block1	congruent/STIM_002.jpg	99
625.675	0.454	453.5	congruent	Block1	congruent/STIM_003.jpg	100
629.153	0.546	545.7	congruent	Block1	congruent/STIM_003.jpg	100
632.751	0.59	589.6	congruent	Block1	congruent/STIM_003.jpg	100
635.963	0.386	385.8	congruent	Block1	congruent/STIM_003.jpg	100
638.775	0.474	474.2	congruent	Block1	congruent/STIM_003.jpg	100
641.668	0.414	413.9	congruent	Block1	congruent/STIM_004.jpg	100
645.485	0.541	541.3	congruent	Block1	congruent/STIM_004.jpg	99
649.118	0.486	486.1	congruent	Block1	congruent/STIM_004.jpg	99
652.367	0.615	614.8	congruent	Block1	congruent/STIM_004.jpg	100
656.409	0.386	385.7	congruent	Block1	congruent/STIM_004.jpg	99
659.723	0.672	672.0	congruent	Block1	congruent/STIM_005.jpg	100
662.459	0.642	642.0	congruent	Block1	congruent/STIM_005.jpg	99
665.327	0.623	622.6	congruent	Block1	congruent/STIM_005.jpg	100
668.545	0.599	599.2	congruent	Block1	congruent/STIM_005.jpg	99
671.995	0.532	532.3	congruent	Block1	congruent/STIM_005.jpg	100
674.967	0.456	456.5	congruent	Block1	congruent/STIM_006.jpg	99
677.879	0.682	681.9	congruent	Block1	congruent/STIM_006.jpg	100
681.557	0.646	646.1	congruent	Block1	congruent/STIM_006.jpg	100
685.217	0.541	541.2	congruent	Block1	congruent/STIM_006.jpg	100
689.392	0.49	490.0	congruent	Block1	congruent/STIM_006.jpg	100
693.816	0.438	438.4	congruent	Block1	congruent/STIM_007.jpg	100
697.714	0.542	541.6	congruent	Block1	congruent/STIM_007.jpg	100
701.776	0.398	397.6	congruent	Block1	congruent/STIM_007.jpg	100
704.917	0.506	506.2	congruent	Block1	congruent/STIM_007.jpg	100
708.071	0.539	539.0	congruent	Block1	congruent/STIM_007.jpg	100
711.633	0.49	490.4	congruent	Block1	congruent/STIM_008.jpg	99
715.334	0.535	535.3	congruent	Block1	congruent/STIM_008.jpg	100
719.026	0.577	577.0	congruent	Block1	congruent/STIM_008.jpg	100
722.882	0.395	394.8	congruent	Block1	congruent/STIM_008.jpg	100
726.465	0.46	459.6	congruent	Block1	congruent/STIM_008.jpg	100
729.719	0.526	526.3	congruent	Block1	congruent/STIM_009.jpg	99
734.205	0.469	469.3	congruent	Block1	congruent/STIM_009.jpg	99
737.851	0.456	456.1	congruent	Block1	congruent/STIM_009.jpg	100
742.029	0.669	668.9	congruent	Block1	congruent/STIM_009.jpg	99
744.776	0.414	413.5	congruent	Block1	congruent/STIM_009.jpg	100
747.597	0.509	509.4	congruent	Block1	congruent/STIM_010.jpg	99
751.147	0.592	592.2	congruent	Block1	congruent/STIM_010.jpg	99
755.296	0.552	551.8	congruent	Block1	congruent/STIM_010.jpg	99
758.488	0.652	651.6	congruent	Block1	congruent/STIM_010.jpg	100
761.632	0.578	577.5	congruent	Block1	congruent/STIM_010.jpg	99
765.607	0.5	499.6	congruent	Block1	congruent/STIM_011.jpg	100
769.47	0.532	531.9	congruent	Block1	congruent/STIM_011.jpg	100
772.173	0.657	656.9	congruent	Block1	congruent/STIM_011.jpg	100
775.348	0.529	529.4	congruent	Block1	congruent/STIM_011.jpg	99
778.978	0.434	434.1	congruent	Block1	congruent/STIM_011.jpg	100
782.515	0.393	392.7	congruent	Block1	congruent/STIM_012.jpg	99
785.271	0.598	597.5	congruent	Block1	congruent/STIM_012.jpg	100
789.674	0.652	652.1	congruent	Block1	congruent/STIM_012.jpg	99
792.639	0.575	575.3	congruent	Block1	congruent/STIM_012.jpg	99
797.05	0.675	675.0	congruent	Block1	congruent/STIM_012.jpg	100
800.431	0.57	570.3	congruent	Block1	congruent/STIM_013.jpg	99
803.044	0.567	567.0	congruent	Block1	congruent/STIM_013.jpg	100
805.611	0.543	543.1	congruent	Block1	congruent/STIM_013.jpg	99
809.836	0.526	526.1	congruent	Block1	congruent/STIM_013.jpg	100
813.632	0.519	519.1	congruent	Block1	congruent/STIM_013.jpg	99
817.767	0.588	588.0	congruent	Block1	congruent/STIM_014.jpg	100
822.097	0.527	526.9	congruent	Block1	congruent/STIM_014.jpg	99
825.955	0.458	458.5	congruent	Block1	congruent/STIM_014.jpg	99
829.465	0.468	468.1	congruent	Block1	congruent/STIM_014.jpg	100
832.861	0.398	397.6	congruent	Block1	congruent/STIM_014.jpg	99
835.83	0.599	599.3	congruent	Block1	congruent/STIM_015.jpg	99
838.588	0.388	387.8	congruent	Block1	congruent/STIM_015.jpg	100
841.931	0.434	434.3	congruent	Block1	congruent/STIM_015.jpg	99
845.326	0.412	411.8	congruent	Block1	congruent/STIM_015.jpg	99
849.283	0.59	589.6	congruent	Block1	congruent/STIM_015.jpg	100
852.736	0.542	542.4	congruent	Block1	congruent/STIM_016.jpg	99
857.193	0.682	682.4	congruent	Block1	congruent/STIM_016.jpg	99
860.922	0.432	432.3	congruent	Block1	congruent/STIM_016.jpg	99
864.803	0.429	429.0	congruent	Block1	congruent/STIM_016.jpg	100
868.095	0.47	469.5	congruent	Block1	congruent/STIM_016.jpg	99
872.047	0.422	422.0	congruent	Block1	congruent/STIM_017.jpg	100
874.835	0.548	547.8	congruent	Block1	congruent/STIM_017.jpg	99
878.517	0.62	620.1	congruent	Block1	congruent/STIM_017.jpg	99
882.307	0.608	608.3	congruent	Block1	congruent/STIM_017.jpg	99
885.896	0.586	586.2	congruent	Block1	congruent/STIM_017.jpg	100
890.368	0.591	590.7	congruent	Block1	congruent/STIM_018.jpg	99
894.396	0.653	653.3	congruent	Block1	congruent/STIM_018.jpg	100
898.969	0.423	422.9	congruent	Block1	congruent/STIM_018.jpg	100
902.891	0.393	392.7	congruent	Block1	congruent/STIM_018.jpg	100
906.017	0.559	559.0	congruent	Block1	congruent/STIM_018.jpg	99
908.791	0.435	434.9	congruent	Block1	congruent/STIM_019.jpg	100
912.965	0.465	465.0	congruent	Block1	congruent/STIM_019.jpg	99
915.977	0.406	405.8	congruent	Block1	congruent/STIM_019.jpg	100
919.696	0.477	477.3	congruent	Block1	congruent/STIM_019.jpg	100
923.247	0.596	595.6	congruent	Block1	congruent/STIM_019.jpg	100
927.202	0.397	396.7	congruent	Block1	congruent/STIM_020.jpg	99
930.618	0.657	657.2	congruent	Block1	congruent/STIM_020.jpg	100
934.741	0.557	556.6	congruent	Block1	congruent/STIM_020.jpg	99
937.442	0.404	404.5	congruent	Block1	congruent/STIM_020.jpg	100
940.054	0.608	607.6	congruent	Block1	congruent/STIM_020.jpg	100
943.897	0.672	671.9	congruent	Block1	congruent/STIM_021.jpg	99
948.299	0.429	428.7	congruent	Block1	congruent/STIM_021.jpg	99
951.108	0.562	561.9	congruent	Block1	congruent/STIM_021.jpg	99
954.471	0.553	553.1	congruent	Block1	congruent/STIM_021.jpg	100
958.464	0.549	549.3	congruent	Block1	congruent/STIM_021.jpg	99
962.838	0.454	453.7	congruent	Block1	congruent/STIM_022.jpg	100
965.858	0.664	663.7	congruent	Block1	congruent/STIM_022.jpg	100
969.979	0.499	498.7	congruent	Block1	congruent/STIM_022.jpg	100
972.635	0.496	496.4	congruent	Block1	congruent/STIM_022.jpg	100
975.693	0.434	433.5	congruent	Block1	congruent/STIM_022.jpg	99
978.691	0.549	548.7	congruent	Block1	congruent/STIM_023.jpg	100
982.171	0.677	676.6	congruent	Block1	congruent/STIM_023.jpg	100
986.027	0.631	631.1	congruent	Block1	congruent/STIM_023.jpg	99
989.992	0.528	527.5	congruent	Block1	congruent/STIM_023.jpg	100
992.555	0.671	670.7	congruent	Block1	congruent/STIM_023.jpg	100
995.765	0.569	569.0	congruent	Block1	congruent/STIM_024.jpg	99
999.146	0.626	626.3	congruent	Block1	congruent/STIM_024.jpg	100
1002.951	0.537	536.8	congruent	Block1	congruent/STIM_024.jpg	100
1005.856	0.566	565.6	congruent	Block1	congruent/STIM_024.jpg	100
1009.648	0.648	648.5	congruent	Block1	congruent/STIM_024.jpg	100
1014.189	0.412	412.0	congruent	Block1	congruent/STIM_025.jpg	100
1017.76	0.58	579.5	congruent	Block1	congruent/STIM_025.jpg	99
1021.958	0.515	515.1	congruent	Block1	congruent/STIM_025.jpg	99
1024.895	0.446	445.7	congruent	Block1	congruent/STIM_025.jpg	99
1028.902	0.675	675.1	congruent	Block1	congruent/STIM_025.jpg	99
1032.108	0.484	484.0	congruent	Block1	congruent/STIM_026.jpg	99
1036.177	0.548	548.2	congruent	Block1	congruent/STIM_026.jpg	100
1038.885	0.564	563.5	congruent	Block1	congruent/STIM_026.jpg	99
1041.884	0.567	567.4	congruent	Block1	congruent/STIM_026.jpg	100
1046.419	0.512	512.0	congruent	Block1	congruent/STIM_026.jpg	100
1050.898	0.657	656.7	congruent	Block1	congruent/STIM_027.jpg	99
1053.928	0.548	547.5	congruent	Block1	congruent/STIM_027.jpg	100
1056.691	0.418	417.8	congruent	Block1	congruent/STIM_027.jpg	100
1059.286	0.42	419.9	congruent	Block1	congruent/STIM_027.jpg	100
1063.192	0.572	572.5	congruent	Block1	congruent/STIM_027.jpg	99
1067.491	0.46	459.7	congruent	Block1	congruent/STIM_028.jpg	100
1071.405	0.573	573.4	congruent	Block1	congruent/STIM_028.jpg	99
1075.611	0.58	580.4	congruent	Block1	congruent/STIM_028.jpg	99
1079.018	0.683	682.7	congruent	Block1	congruent/STIM_028.jpg	100
1083.218	0.539	539.1	congruent	Block1	congruent/STIM_028.jpg	100
1087.332	0.516	516.0	congruent	Block1	congruent/STIM_029.jpg	100
1091.059	0.521	521.3	congruent	Block1	congruent/STIM_029.jpg	100
1094.36	0.45	449.9	congruent	Block1	congruent/STIM_029.jpg	100
1096.877	0.439	439.3	congruent	Block1	congruent/STIM_029.jpg	100
1100.11	0.56	560.0	congruent	Block1	congruent/STIM_029.jpg	99
1103.347	0.454	453.9	incongruent	Block2	incongruent/STIM_000.jpg	100
1106.22	0.823	822.6	incongruent	Block2	incongruent/STIM_000.jpg	100
1109.874	0.804	804.2	incongruent	Block2	incongruent/STIM_000.jpg	100
1114.075	0.432	431.9	incongruent	Block2	incongruent/STIM_000.jpg	99
1118.392	0.61	610.5	incongruent	Block2	incongruent/STIM_000.jpg	100
1122.445	0.883	883.2	incongruent	Block2	incongruent/STIM_001.jpg	99
1125.405	0.736	736.5	incongruent	Block2	incongruent/STIM_001.jpg	99
1128.491	0.805	805.0	incongruent	Block2	incongruent/STIM_001.jpg	99
1132.479	0.748	747.8	incongruent	Block2	incongruent/STIM_001.jpg	99
1135.883	0.727	726.9	incongruent	Block2	incongruent/STIM_001.jpg	99
1140.424	0.574	573.6	incongruent	Block2	incongruent/STIM_002.jpg	99
1143.238	0.586	585.8	incongruent	Block2	incongruent/STIM_002.jpg	99
1147.015	0.57	569.6	incongruent	Block2	incongruent/STIM_002.jpg	99
1150.276	0.426	425.9	incongruent	Block2	incongruent/STIM_002.jpg	100
1154.613	0.642	642.0	incongruent	Block2	incongruent/STIM_002.jpg	99
1159.032	0.803	803.3	incongruent	Block2	incongruent/STIM_003.jpg	100
1163.172	0.67	670.2	incongruent	Block2	incongruent/STIM_003.jpg	99
1166.274	0.638	637.8	incongruent	Block2	incongruent/STIM_003.jpg	100
1170.426	0.461	460.7	incongruent	Block2	incongruent/STIM_003.jpg	99
1174.159	0.568	567.7	incongruent	Block2	incongruent/STIM_003.jpg	99
1178.499	0.641	641.2	incongruent	Block2	incongruent/STIM_004.jpg	99
1182.18	0.471	471.4	incongruent	Block2	incongruent/STIM_004.jpg	99
1186.497	0.609	609.2	incongruent	Block2	incongruent/STIM_004.jpg	100
1189.232	0.628	628.2	incongruent	Block2	incongruent/STIM_004.jpg	99
1193.811	0.554	554.0	incongruent	Block2	incongruent/STIM_004.jpg	100
1196.863	0.784	784.0	incongruent	Block2	incongruent/STIM_005.jpg	99
1200.548	0.804	804.4	incongruent	Block2	incongruent/STIM_005.jpg	99
1203.921	0.609	609.3	incongruent	Block2	incongruent/STIM_005.jpg	100
1208.32	0.673	672.8	incongruent	Block2	incongruent/STIM_005.jpg	100
1212.101	0.561	561.3	incongruent	Block2	incongruent/STIM_005.jpg	99
1216.126	0.538	538.4	incongruent	Block2	incongruent/STIM_006.jpg	99
1220.478	0.728	727.5	incongruent	Block2	incongruent/STIM_006.jpg	100
1224.302	0.763	763.4	incongruent	Block2	incongruent/STIM_006.jpg	99
1228.084	0.712	712.3	incongruent	Block2	incongruent/STIM_006.jpg	100
1231.339	0.376	375.8	incongruent	Block2	incongruent/STIM_006.jpg	100
1235.564	0.605	605.2	incongruent	Block2	incongruent/STIM_007.jpg	99
1239.836	0.622	621.9	incongruent	Block2	incongruent/STIM_007.jpg	99
1243.52	0.535	535.2	incongruent	Block2	incongruent/STIM_007.jpg	100
1246.405	0.695	694.8	incongruent	Block2	incongruent/STIM_007.jpg	99
1250.749	0.436	436.2	incongruent	Block2	incongruent/STIM_007.jpg	99
1255.18	0.961	960.9	incongruent	Block2	incongruent/STIM_008.jpg	99
1259.734	0.883	883.0	incongruent	Block2	incongruent/STIM_008.jpg	99
1263.792	0.729	729.1	incongruent	Block2	incongruent/STIM_008.jpg	99
1268.187	0.523	522.6	incongruent	Block2	incongruent/STIM_008.jpg	99
1271.035	0.463	462.6	incongruent	Block2	incongruent/STIM_008.jpg	100
1274.132	0.792	791.6	incongruent	Block2	incongruent/STIM_009.jpg	99
1278.179	0.62	620.1	incongruent	Block2	incongruent/STIM_009.jpg	99
1281.643	0.723	722.8	incongruent	Block2	incongruent/STIM_009.jpg	100
1285.513	0.566	565.5	incongruent	Block2	incongruent/STIM_009.jpg	99
1289.396	0.478	477.5	incongruent	Block2	incongruent/STIM_009.jpg	100
1293.389	0.775	775.0	incongruent	Block2	incongruent/STIM_010.jpg	99
1297.613	0.765	764.9	incongruent	Block2	incongruent/STIM_010.jpg	100
1300.729	0.584	584.4	incongruent	Block2	incongruent/STIM_010.jpg	100
1303.648	0.697	696.8	incongruent	Block2	incongruent/STIM_010.jpg	100
1306.676	0.45	449.5	incongruent	Block2	incongruent/STIM_010.jpg	100
1310.71	0.772	771.9	incongruent	Block2	incongruent/STIM_011.jpg	100
1315.381	0.805	805.2	incongruent	Block2	incongruent/STIM_011.jpg	100
1318.999	0.445	444.6	incongruent	Block2	incongruent/STIM_011.jpg	100
1322.212	0.673	672.6	incongruent	Block2	incongruent/STIM_011.jpg	99
1325.099	0.449	449.2	incongruent	Block2	incongruent/STIM_011.jpg	100
1327.964	0.598	597.5	incongruent	Block2	incongruent/STIM_012.jpg	100
1331.587	0.638	637.6	incongruent	Block2	incongruent/STIM_012.jpg	99
1335.576	0.749	748.9	incongruent	Block2	incongruent/STIM_012.jpg	99
1340.223	0.526	525.6	incongruent	Block2	incongruent/STIM_012.jpg	100
1343.938	0.617	617.2	incongruent	Block2	incongruent/STIM_012.jpg	99
1348.343	0.971	971.0	incongruent	Block2	incongruent/STIM_013.jpg	99
1351.398	0.54	539.9	incongruent	Block2	incongruent/STIM_013.jpg	99
1355.018	0.504	504.4	incongruent	Block2	incongruent/STIM_013.jpg	99
1359.324	0.526	525.9	incongruent	Block2	incongruent/STIM_013.jpg	99
1363.516	0.442	441.6	incongruent	Block2	incongruent/STIM_013.jpg	100
1366.101	0.705	705.0	incongruent	Block2	incongruent/STIM_014.jpg	99
1370.56	0.883	882.7	incongruent	Block2	incongruent/STIM_014.jpg	100
1374.671	0.514	514.4	incongruent	Block2	incongruent/STIM_014.jpg	100
1377.735	0.741	741.1	incongruent	Block2	incongruent/STIM_014.jpg	100
1382.457	0.376	375.8	incongruent	Block2	incongruent/STIM_014.jpg	99
1385.486	0.51	510.0	incongruent	Block2	incongruent/STIM_015.jpg	100
1389.38	0.658	657.9	incongruent	Block2	incongruent/STIM_015.jpg	99
1393.267	0.751	750.8	incongruent	Block2	incongruent/STIM_015.jpg	99
1397.408	0.552	552.0	incongruent	Block2	incongruent/STIM_015.jpg	99
1400.952	0.696	695.8	incongruent	Block2	incongruent/STIM_015.jpg	100
1405.554	0.694	693.5	incongruent	Block2	incongruent/STIM_016.jpg	100
1408.408	0.793	793.1	incongruent	Block2	incongruent/STIM_016.jpg	99
1411.812	0.568	568.4	incongruent	Block2	incongruent/STIM_016.jpg	100
1415.047	0.709	709.4	incongruent	Block2	incongruent/STIM_016.jpg	100
1417.938	0.419	419.3	incongruent	Block2	incongruent/STIM_016.jpg	99
1422.32	0.762	762.5	incongruent	Block2	incongruent/STIM_017.jpg	100
1426.801	0.636	635.9	incongruent	Block2	incongruent/STIM_017.jpg	99
1431.072	0.66	660.5	incongruent	Block2	incongruent/STIM_017.jpg	100
1434.838	0.718	718.1	incongruent	Block2	incongruent/STIM_017.jpg	100
1437.965	0.388	388.1	incongruent	Block2	incongruent/STIM_017.jpg	99
1441.537	0.463	462.7	incongruent	Block2	incongruent/STIM_018.jpg	100
1444.146	0.582	581.7	incongruent	Block2	incongruent/STIM_018.jpg	99
1447.083	0.839	838.8	incongruent	Block2	incongruent/STIM_018.jpg	99
1450.732	0.459	458.6	incongruent	Block2	incongruent/STIM_018.jpg	99
1453.391	0.53	529.9	incongruent	Block2	incongruent/STIM_018.jpg	99
1456.925	0.959	959.0	incongruent	Block2	incongruent/STIM_019.jpg	100
1460.017	0.68	680.1	incongruent	Block2	incongruent/STIM_019.jpg	100
1463.77	0.449	449.3	incongruent	Block2	incongruent/STIM_019.jpg	100
1467.381	0.62	620.1	incongruent	Block2	incongruent/STIM_019.jpg	99
1470.52	0.792	792.5	incongruent	Block2	incongruent/STIM_019.jpg	100
1473.605	0.677	676.7	incongruent	Block2	incongruent/STIM_020.jpg	99
1477.861	0.521	520.6	incongruent	Block2	incongruent/STIM_020.jpg	100
1482.008	0.624	624.1	incongruent	Block2	incongruent/STIM_020.jpg	100
1485.042	0.521	520.7	incongruent	Block2	incongruent/STIM_020.jpg	100
1488.775	0.663	662.6	incongruent	Block2	incongruent/STIM_020.jpg	99
1491.471	0.536	536.4	incongruent	Block2	incongruent/STIM_021.jpg	100
1494.381	0.666	666.5	incongruent	Block2	incongruent/STIM_021.jpg	100
1498.115	0.834	834.1	incongruent	Block2	incongruent/STIM_021.jpg	99
1501.398	0.732	732.4	incongruent	Block2	incongruent/STIM_021.jpg	100
1505.201	0.441	441.4	incongruent	Block2	incongruent/STIM_021.jpg	99
1508.624	0.508	507.8	incongruent	Block2	incongruent/STIM_022.jpg	100
1512.636	0.688	688.3	incongruent	Block2	incongruent/STIM_022.jpg	100
1517.017	0.448	448.5	incongruent	Block2	incongruent/STIM_022.jpg	99
1520.552	0.562	562.5	incongruent	Block2	incongruent/STIM_022.jpg	100
1523.433	0.581	580.9	incongruent	Block2	incongruent/STIM_022.jpg	99
1527.72	0.677	677.3	incongruent	Block2	incongruent/STIM_023.jpg	100
1530.628	0.506	506.4	incongruent	Block2	incongruent/STIM_023.jpg	99
1534.993	0.408	408.0	incongruent	Block2	incongruent/STIM_023.jpg	100
1539.015	0.758	757.6	incongruent	Block2	incongruent/STIM_023.jpg	100
1542.689	0.39	390.3	incongruent	Block2	incongruent/STIM_023.jpg	100
1545.716	0.914	913.9	incongruent	Block2	incongruent/STIM_024.jpg	99
1549.807	0.629	629.0	incongruent	Block2	incongruent/STIM_024.jpg	99
1552.476	0.512	512.5	incongruent	Block2	incongruent/STIM_024.jpg	100
1556.388	0.791	791.4	incongruent	Block2	incongruent/STIM_024.jpg	100
1559.785	0.707	706.9	incongruent	Block2	incongruent/STIM_024.jpg	99
1563.505	0.88	879.6	incongruent	Block2	incongruent/STIM_025.jpg	100
1567.154	0.612	612.1	incongruent	Block2	incongruent/STIM_025.jpg	99
1570.096	0.79	789.6	incongruent	Block2	incongruent/STIM_025.jpg	99
1573.499	0.662	662.2	incongruent	Block2	incongruent/STIM_025.jpg	100
1576.842	0.647	646.9	incongruent	Block2	incongruent/STIM_025.jpg	99
1580.268	0.766	765.5	incongruent	Block2	incongruent/STIM_026.jpg	100
1584.23	0.465	464.8	incongruent	Block2	incongruent/STIM_026.jpg	99
1587.348	0.418	418.4	incongruent	Block2	incongruent/STIM_026.jpg	100
1590.37	0.743	743.3	incongruent	Block2	incongruent/STIM_026.jpg	100
1593.127	0.475	475.4	incongruent	Block2	incongruent/STIM_026.jpg	100
1595.955	0.621	620.8	incongruent	Block2	incongruent/STIM_027.jpg	100
1599.373	0.457	456.6	incongruent	Block2	incongruent/STIM_027.jpg	99
1602.318	0.796	796.0	incongruent	Block2	incongruent/STIM_027.jpg	99
1606.907	0.506	506.5	incongruent	Block2	incongruent/STIM_027.jpg	99
1610.358	0.546	545.7	incongruent	Block2	incongruent/STIM_027.jpg	99
1613.825	0.458	457.8	incongruent	Block2	incongruent/STIM_028.jpg	99
1616.538	0.854	853.5	incongruent	Block2	incongruent/STIM_028.jpg	100
1620.075	0.658	658.4	incongruent	Block2	incongruent/STIM_028.jpg	99
1624.683	0.466	465.5	incongruent	Block2	incongruent/STIM_028.jpg	100
1627.303	0.537	537.4	incongruent	Block2	incongruent/STIM_028.jpg	99
1630.388	0.492	492.1	incongruent	Block2	incongruent/STIM_029.jpg	100
1633.299	0.599	598.9	incongruent	Block2	incongruent/STIM_029.jpg	100
1636.227	0.835	834.6	incongruent	Block2	incongruent/STIM_029.jpg	100
1639.744	0.433	432.9	incongruent	Block2	incongruent/STIM_029.jpg	100
1643.994	0.609	609.4	incongruent	Block2	incongruent/STIM_029.jpg	99
1646.928	0.573	573.1	congruent	Block2	congruent/STIM_000.jpg	100
1649.628	0.685	685.1	congruent	Block2	congruent/STIM_000.jpg	99
1653.481	0.414	414.1	congruent	Block2	congruent/STIM_000.jpg	99
1657.826	0.531	530.6	congruent	Block2	congruent/STIM_000.jpg	99
1661.842	0.6	599.6	congruent	Block2	congruent/STIM_000.jpg	100
1665.338	0.532	532.5	congruent	Block2	congruent/STIM_001.jpg	99
1668.634	0.422	422.4	congruent	Block2	congruent/STIM_001.jpg	99
1672.807	0.411	411.0	congruent	Block2	congruent/STIM_001.jpg	100
1676.598	0.451	451.1	congruent	Block2	congruent/STIM_001.jpg	99
1679.082	0.684	683.5	congruent	Block2	congruent/STIM_001.jpg	99
1683.289	0.553	553.3	congruent	Block2	congruent/STIM_002.jpg	99
1686.725	0.664	663.7	congruent	Block2	congruent/STIM_002.jpg	100
1689.61	0.547	547.0	congruent	Block2	congruent/STIM_002.jpg	100
1693.868	0.65	650.5	congruent	Block2	congruent/STIM_002.jpg	100
1696.52	0.584	583.6	congruent	Block2	congruent/STIM_002.jpg	99
1700.496	0.384	383.7	congruent	Block2	congruent/STIM_003.jpg	99
1704.518	0.601	600.7	congruent	Block2	congruent/STIM_003.jpg	99
1708.974	0.448	448.2	congruent	Block2	congruent/STIM_003.jpg	99
1711.46	0.583	582.9	congruent	Block2	congruent/STIM_003.jpg	99
1715.706	0.396	396.2	congruent	Block2	congruent/STIM_003.jpg	99
1719.058	0.498	498.3	congruent	Block2	congruent/STIM_004.jpg	99
1723.121	0.599	599.4	congruent	Block2	congruent/STIM_004.jpg	99
1725.777	0.568	567.6	congruent	Block2	congruent/STIM_004.jpg	99
1730.233	0.475	475.1	congruent	Block2	congruent/STIM_004.jpg	99
1733.822	0.645	644.6	congruent	Block2	congruent/STIM_004.jpg	99
1737.626	0.535	535.0	congruent	Block2	congruent/STIM_005.jpg	99
1740.448	0.685	684.8	congruent	Block2	congruent/STIM_005.jpg	99
1743.321	0.448	448.4	congruent	Block2	congruent/STIM_005.jpg	99
1747.491	0.434	434.1	congruent	Block2	congruent/STIM_005.jpg	99
1750.704	0.656	655.6	congruent	Block2	congruent/STIM_005.jpg	99
1753.436	0.444	444.2	congruent	Block2	congruent/STIM_006.jpg	100
1757.817	0.51	510.3	congruent	Block2	congruent/STIM_006.jpg	100
1761.616	0.553	553.0	congruent	Block2	congruent/STIM_006.jpg	99
1765.459	0.565	564.8	congruent	Block2	congruent/STIM_006.jpg	99
1768.096	0.425	425.2	congruent	Block2	congruent/STIM_006.jpg	100
1770.9	0.444	443.8	congruent	Block2	congruent/STIM_007.jpg	100
1774.691	0.423	423.2	congruent	Block2	congruent/STIM_007.jpg	99
1778.955	0.428	428.2	congruent	Block2	congruent/STIM_007.jpg	100
1782.517	0.556	556.4	congruent	Block2	congruent/STIM_007.jpg	100
1785.774	0.436	435.5	congruent	Block2	congruent/STIM_007.jpg	100
1789.5	0.673	673.2	congruent	Block2	congruent/STIM_008.jpg	100
1793.702	0.384	384.3	congruent	Block2	congruent/STIM_008.jpg	99
1797.824	0.405	404.8	congruent	Block2	congruent/STIM_008.jpg	100
1800.461	0.411	411.3	congruent	Block2	congruent/STIM_008.jpg	99
1804.776	0.535	535.0	congruent	Block2	congruent/STIM_008.jpg	100
1807.446	0.614	614.0	congruent	Block2	congruent/STIM_009.jpg	100
1811.788	0.435	434.8	congruent	Block2	congruent/STIM_009.jpg	99
1815.75	0.681	680.6	congruent	Block2	congruent/STIM_009.jpg	100
1820.403	0.636	635.7	congruent	Block2	congruent/STIM_009.jpg	99
1823.911	0.625	624.9	congruent	Block2	congruent/STIM_009.jpg	99
1828.205	0.506	506.3	congruent	Block2	congruent/STIM_010.jpg	100
1832.248	0.428	428.2	congruent	Block2	congruent/STIM_010.jpg	100
1835.525	0.612	612.3	congruent	Block2	congruent/STIM_010.jpg	99
1838.801	0.509	509.4	congruent	Block2	congruent/STIM_010.jpg	99
1842.303	0.443	443.2	congruent	Block2	congruent/STIM_010.jpg	99
1845.308	0.571	571.0	congruent	Block2	congruent/STIM_011.jpg	99
1848.588	0.612	611.7	congruent	Block2	congruent/STIM_011.jpg	99
1852.329	0.397	397.4	congruent	Block2	congruent/STIM_011.jpg	99
1855.029	0.553	552.6	congruent	Block2	congruent/STIM_011.jpg	100
1858.856	0.386	386.5	congruent	Block2	congruent/STIM_011.jpg	100
1862.098	0.586	586.1	congruent	Block2	congruent/STIM_012.jpg	99
1865.492	0.67	669.5	congruent	Block2	congruent/STIM_012.jpg	100
1868.264	0.481	480.8	congruent	Block2	congruent/STIM_012.jpg	99
1872.065	0.622	621.7	congruent	Block2	congruent/STIM_012.jpg	99
1875.811	0.411	411.0	congruent	Block2	congruent/STIM_012.jpg	99
1879.048	0.442	442.4	congruent	Block2	congruent/STIM_013.jpg	99
1882.329	0.497	496.7	congruent	Block2	congruent/STIM_013.jpg	100
1886.206	0.563	563.4	congruent	Block2	congruent/STIM_013.jpg	100
1889.316	0.392	392.4	congruent	Block2	congruent/STIM_013.jpg	99
1892.112	0.625	625.1	congruent	Block2	congruent/STIM_013.jpg	100
1894.75	0.681	680.7	congruent	Block2	congruent/STIM_014.jpg	100
1899.096	0.515	514.7	congruent	Block2	congruent/STIM_014.jpg	100
1902.739	0.584	584.4	congruent	Block2	congruent/STIM_014.jpg	100
1905.616	0.537	537.4	congruent	Block2	congruent/STIM_014.jpg	99
1909.704	0.506	505.9	congruent	Block2	congruent/STIM_014.jpg	99
1913.491	0.685	685.3	congruent	Block2	congruent/STIM_015.jpg	99
1917.618	0.523	523.4	congruent	Block2	congruent/STIM_015.jpg	99
1921.505	0.576	576.2	congruent	Block2	congruent/STIM_015.jpg	100
1925.32	0.453	453.1	congruent	Block2	congruent/STIM_015.jpg	99
1929.449	0.551	550.8	congruent	Block2	congruent/STIM_015.jpg	99
1932.056	0.474	474.2	congruent	Block2	congruent/STIM_016.jpg	99
1936.443	0.484	483.7	congruent	Block2	congruent/STIM_016.jpg	99
1940.614	0.569	568.9	congruent	Block2	congruent/STIM_016.jpg	99
1943.755	0.621	620.7	congruent	Block2	congruent/STIM_016.jpg	100
1947.239	0.427	426.7	congruent	Block2	congruent/STIM_016.jpg	100
1950.033	0.68	680.4	congruent	Block2	congruent/STIM_017.jpg	99
1953.122	0.661	660.7	congruent	Block2	congruent/STIM_017.jpg	99
1956.277	0.626	625.5	congruent	Block2	congruent/STIM_017.jpg	99
1960.641	0.393	393.1	congruent	Block2	congruent/STIM_017.jpg	100
1963.455	0.442	441.9	congruent	Block2	congruent/STIM_017.jpg	99
1966.016	0.563	562.9	congruent	Block2	congruent/STIM_018.jpg	100
1968.65	0.505	504.6	congruent	Block2	congruent/STIM_018.jpg	99
1971.567	0.386	385.9	congruent	Block2	congruent/STIM_018.jpg	100
1975.597	0.435	434.7	congruent	Block2	congruent/STIM_018.jpg	99
1978.665	0.491	490.9	congruent	Block2	congruent/STIM_018.jpg	100
1983.127	0.5	500.5	congruent	Block2	congruent/STIM_019.jpg	100
1987.063	0.618	617.9	congruent	Block2	congruent/STIM_019.jpg	100
1990.788	0.582	581.6	congruent	Block2	congruent/STIM_019.jpg	100
1994.515	0.652	652.1	congruent	Block2	congruent/STIM_019.jpg	99
1998.287	0.586	586.3	congruent	Block2	congruent/STIM_019.jpg	99
2001.586	0.394	393.9	congruent	Block2	congruent/STIM_020.jpg	99
2005.94	0.575	575.4	congruent	Block2	congruent/STIM_020.jpg	99
2009.216	0.546	546.4	congruent	Block2	congruent/STIM_020.jpg	100
2013.522	0.403	403.2	congruent	Block2	congruent/STIM_020.jpg	100
2016.958	0.467	467.4	congruent	Block2	congruent/STIM_020.jpg	99
2019.712	0.638	638.0	congruent	Block2	congruent/STIM_021.jpg	99
2022.751	0.569	568.8	congruent	Block2	congruent/STIM_021.jpg	100
2026.289	0.655	654.7	congruent	Block2	congruent/STIM_021.jpg	99
2030.66	0.574	574.1	congruent	Block2	congruent/STIM_021.jpg	99
2033.81	0.397	396.8	congruent	Block2	congruent/STIM_021.jpg	99
2037.505	0.413	412.9	congruent	Block2	congruent/STIM_022.jpg	100
2040.62	0.468	467.8	congruent	Block2	congruent/STIM_022.jpg	100
2043.223	0.683	683.4	congruent	Block2	congruent/STIM_022.jpg	99
2046.871	0.54	540.0	congruent	Block2	congruent/STIM_022.jpg	99
2049.756	0.49	490.2	congruent	Block2	congruent/STIM_022.jpg	99
2053.867	0.505	505.0	congruent	Block2	congruent/STIM_023.jpg	100
2056.497	0.397	397.2	congruent	Block2	congruent/STIM_023.jpg	100
2060.788	0.582	582.1	congruent	Block2	congruent/STIM_023.jpg	99
2064.605	0.592	591.8	congruent	Block2	congruent/STIM_023.jpg	99
2068.53	0.434	433.8	congruent	Block2	congruent/STIM_023.jpg	99
2072.782	0.386	386.4	congruent	Block2	congruent/STIM_024.jpg	99
2076.568	0.516	515.9	congruent	Block2	congruent/STIM_024.jpg	99
2079.818	0.393	393.4	congruent	Block2	congruent/STIM_024.jpg	100
2083.607	0.674	673.9	congruent	Block2	congruent/STIM_024.jpg	100
2087.442	0.464	463.9	congruent	Block2	congruent/STIM_024.jpg	100
2091.835	0.599	599.1	congruent	Block2	congruent/STIM_025.jpg	100
2095.504	0.56	559.9	congruent	Block2	congruent/STIM_025.jpg	100
2098.947	0.562	562.3	congruent	Block2	congruent/STIM_025.jpg	99
2103.109	0.647	647.4	congruent	Block2	congruent/STIM_025.jpg	100
2106.084	0.596	595.9	congruent	Block2	congruent/STIM_025.jpg	99
2108.702	0.624	623.8	congruent	Block2	congruent/STIM_026.jpg	100
2111.528	0.68	680.2	congruent	Block2	congruent/STIM_026.jpg	99
2114.96	0.433	432.7	congruent	Block2	congruent/STIM_026.jpg	100
2118.338	0.665	665.3	congruent	Block2	congruent/STIM_026.jpg	100
2121.479	0.429	428.6	congruent	Block2	congruent/STIM_026.jpg	99
2125.181	0.405	405.3	congruent	Block2	congruent/STIM_027.jpg	100
2129.438	0.67	670.0	congruent	Block2	congruent/STIM_027.jpg	99
2132.176	0.431	431.4	congruent	Block2	congruent/STIM_027.jpg	100
2136.281	0.471	470.8	congruent	Block2	congruent/STIM_027.jpg	100
2139.117	0.509	508.8	congruent	Block2	congruent/STIM_027.jpg	100
2143.55	0.389	389.4	congruent	Block2	congruent/STIM_028.jpg	100
2147.357	0.617	616.7	congruent	Block2	congruent/STIM_028.jpg	100
2150.048	0.582	582.5	congruent	Block2	congruent/STIM_028.jpg	100
2152.785	0.612	611.9	congruent	Block2	congruent/STIM_028.jpg	100
2156.681	0.519	519.4	congruent	Block2	congruent/STIM_028.jpg	99
2160.648	0.394	394.3	congruent	Block2	congruent/STIM_029.jpg	100
2164.092	0.68	679.5	congruent	Block2	congruent/STIM_029.jpg	100
2167.82	0.479	479.4	congruent	Block2	congruent/STIM_029.jpg	99
2170.999	0.578	578.0	congruent	Block2	congruent/STIM_029.jpg	100
2174.185	0.489	489.3	congruent	Block2	congruent/STIM_029.jpg	99
2178.388	0.591	590.8	incongruent	Block3	incongruent/STIM_000.jpg	100
2181.684	0.722	722.3	incongruent	Block3	incongruent/STIM_000.jpg	100
2185.356	0.582	582.1	incongruent	Block3	incongruent/STIM_000.jpg	99
2188.667	0.412	412.5	incongruent	Block3	incongruent/STIM_000.jpg	100
2192.215	0.416	415.8	incongruent	Block3	incongruent/STIM_000.jpg	99
2196.34	0.653	653.3	incongruent	Block3	incongruent/STIM_001.jpg	99
2200.68	0.685	685.4	incongruent	Block3	incongruent/STIM_001.jpg	100
2205.156	0.517	516.8	incongruent	Block3	incongruent/STIM_001.jpg	100
2209.566	0.453	452.8	incongruent	Block3	incongruent/STIM_001.jpg	99
2213.973	0.66	660.0	incongruent	Block3	incongruent/STIM_001.jpg	99
2217.802	0.383	382.8	incongruent	Block3	incongruent/STIM_002.jpg	100
2221.053	0.565	565.4	incongruent	Block3	incongruent/STIM_002.jpg	100
2224.48	0.592	592.1	incongruent	Block3	incongruent/STIM_002.jpg	100
2229.005	0.668	668.5	incongruent	Block3	incongruent/STIM_002.jpg	100
2232.363	0.469	468.8	incongruent	Block3	incongruent/STIM_002.jpg	99
2235.149	0.675	675.4	incongruent	Block3	incongruent/STIM_003.jpg	99
2239.64	0.542	541.5	incongruent	Block3	incongruent/STIM_003.jpg	99
2242.418	0.427	427.2	incongruent	Block3	incongruent/STIM_003.jpg	100
2246.284	0.498	498.5	incongruent	Block3	incongruent/STIM_003.jpg	100
2249.733	0.46	460.1	incongruent	Block3	incongruent/STIM_003.jpg	100
2252.21	0.752	752.5	incongruent	Block3	incongruent/STIM_004.jpg	99
2256.901	0.501	500.6	incongruent	Block3	incongruent/STIM_004.jpg	100
2260.995	0.476	476.4	incongruent	Block3	incongruent/STIM_004.jpg	99
2265.366	0.711	711.2	incongruent	Block3	incongruent/STIM_004.jpg	100
2268.809	0.541	540.9	incongruent	Block3	incongruent/STIM_004.jpg	100
2272.887	0.473	473.4	incongruent	Block3	incongruent/STIM_005.jpg	99
2276.396	0.665	664.7	incongruent	Block3	incongruent/STIM_005.jpg	100
2280.928	0.75	749.7	incongruent	Block3	incongruent/STIM_005.jpg	99
2284.506	0.415	415.4	incongruent	Block3	incongruent/STIM_005.jpg	100
2288.438	0.472	472.0	incongruent	Block3	incongruent/STIM_005.jpg	99
2291.058	0.724	724.2	incongruent	Block3	incongruent/STIM_006.jpg	100
2293.896	0.632	632.1	incongruent	Block3	incongruent/STIM_006.jpg	100
2298.059	0.55	549.9	incongruent	Block3	incongruent/STIM_006.jpg	100
2301.791	0.497	497.1	incongruent	Block3	incongruent/STIM_006.jpg	100
2305.427	0.499	498.7	incongruent	Block3	incongruent/STIM_006.jpg	99
2308.129	0.702	702.0	incongruent	Block3	incongruent/STIM_007.jpg	99
2312.273	0.634	634.0	incongruent	Block3	incongruent/STIM_007.jpg	100
2315.231	0.571	570.9	incongruent	Block3	incongruent/STIM_007.jpg	99
2318.626	0.7	699.5	incongruent	Block3	incongruent/STIM_007.jpg	100
2323.015	0.554	553.8	incongruent	Block3	incongruent/STIM_007.jpg	99
2326.84	0.527	527.3	incongruent	Block3	incongruent/STIM_008.jpg	99
2329.625	0.486	485.9	incongruent	Block3	incongruent/STIM_008.jpg	99
2332.983	0.63	630.5	incongruent	Block3	incongruent/STIM_008.jpg	99
2336.926	0.782	782.0	incongruent	Block3	incongruent/STIM_008.jpg	100
2340.487	0.667	667.0	incongruent	Block3	incongruent/STIM_008.jpg	100
2343.683	0.562	561.5	incongruent	Block3	incongruent/STIM_009.jpg	99
2347.083	0.524	523.5	incongruent	Block3	incongruent/STIM_009.jpg	99
2350.929	0.721	720.9	incongruent	Block3	incongruent/STIM_009.jpg	99
2353.721	0.569	569.3	incongruent	Block3	incongruent/STIM_009.jpg	99
2358.059	0.446	446.1	incongruent	Block3	incongruent/STIM_009.jpg	99
2361.291	0.504	503.9	incongruent	Block3	incongruent/STIM_010.jpg	100
2364.351	0.421	421.1	incongruent	Block3	incongruent/STIM_010.jpg	99
2367.613	0.691	691.0	incongruent	Block3	incongruent/STIM_010.jpg	99
2371.652	0.42	419.6	incongruent	Block3	incongruent/STIM_010.jpg	100
2375.058	0.462	462.5	incongruent	Block3	incongruent/STIM_010.jpg	99
2378.679	0.551	551.1	incongruent	Block3	incongruent/STIM_011.jpg	99
2381.397	0.537	537.2	incongruent	Block3	incongruent/STIM_011.jpg	100
2383.95	0.65	650.4	incongruent	Block3	incongruent/STIM_011.jpg	99
2387.551	0.62	620.5	incongruent	Block3	incongruent/STIM_011.jpg	100
2391.808	0.654	654.3	incongruent	Block3	incongruent/STIM_011.jpg	99
2394.796	0.505	505.2	incongruent	Block3	incongruent/STIM_012.jpg	100
2398.854	0.413	413.4	incongruent	Block3	incongruent/STIM_012.jpg	99
2402.458	0.497	497.0	incongruent	Block3	incongruent/STIM_012.jpg	100
2405.976	0.598	598.3	incongruent	Block3	incongruent/STIM_012.jpg	99
2409.317	0.756	755.6	incongruent	Block3	incongruent/STIM_012.jpg	100
2412.833	0.718	717.6	incongruent	Block3	incongruent/STIM_013.jpg	100
2416.486	0.636	636.4	incongruent	Block3	incongruent/STIM_013.jpg	100
2420.104	0.543	542.9	incongruent	Block3	incongruent/STIM_013.jpg	99
2422.768	0.705	705.2	incongruent	Block3	incongruent/STIM_013.jpg	99
2425.611	0.55	550.0	incongruent	Block3	incongruent/STIM_013.jpg	100
2428.908	0.476	476.2	incongruent	Block3	incongruent/STIM_014.jpg	100
2431.422	0.511	511.0	incongruent	Block3	incongruent/STIM_014.jpg	100
2434.7	0.695	695.2	incongruent	Block3	incongruent/STIM_014.jpg	99
2437.99	0.578	577.6	incongruent	Block3	incongruent/STIM_014.jpg	99
2441.892	0.681	680.7	incongruent	Block3	incongruent/STIM_014.jpg	100
2445.526	0.642	642.2	incongruent	Block3	incongruent/STIM_015.jpg	99
2450.088	0.784	784.0	incongruent	Block3	incongruent/STIM_015.jpg	99
2454.534	0.79	790.5	incongruent	Block3	incongruent/STIM_015.jpg	99
2457.829	0.743	743.4	incongruent	Block3	incongruent/STIM_015.jpg	100
2461.481	0.47	470.3	incongruent	Block3	incongruent/STIM_015.jpg	99
2465.645	0.659	659.3	incongruent	Block3	incongruent/STIM_016.jpg	99
2469.528	0.495	494.6	incongruent	Block3	incongruent/STIM_016.jpg	99
2472.481	0.531	531.2	incongruent	Block3	incongruent/STIM_016.jpg	100
2476.079	0.601	601.3	incongruent	Block3	incongruent/STIM_016.jpg	100
2479.69	0.582	582.0	incongruent	Block3	incongruent/STIM_016.jpg	99
2483.279	0.383	382.6	incongruent	Block3	incongruent/STIM_017.jpg	99
2487.573	0.627	626.8	incongruent	Block3	incongruent/STIM_017.jpg	100
2490.725	0.622	622.4	incongruent	Block3	incongruent/STIM_017.jpg	99
2495.215	0.68	679.5	incongruent	Block3	incongruent/STIM_017.jpg	100
2498.37	0.723	722.7	incongruent	Block3	incongruent/STIM_017.jpg	99
2501.94	0.7	700.1	incongruent	Block3	incongruent/STIM_018.jpg	100
2504.995	0.555	555.4	incongruent	Block3	incongruent/STIM_018.jpg	100
2508.316	0.381	381.3	incongruent	Block3	incongruent/STIM_018.jpg	100
2511.928	0.654	654.5	incongruent	Block3	incongruent/STIM_018.jpg	100
2515.057	0.58	579.7	incongruent	Block3	incongruent/STIM_018.jpg	99
2517.779	0.424	424.5	incongruent	Block3	incongruent/STIM_019.jpg	100
2520.366	0.546	545.9	incongruent	Block3	incongruent/STIM_019.jpg	99
2524.445	0.407	406.9	incongruent	Block3	incongruent/STIM_019.jpg	100
2526.924	0.389	389.0	incongruent	Block3	incongruent/STIM_019.jpg	99
2529.384	0.392	392.1	incongruent	Block3	incongruent/STIM_019.jpg	100
2532.689	0.462	461.8	incongruent	Block3	incongruent/STIM_020.jpg	100
2536.061	0.442	441.5	incongruent	Block3	incongruent/STIM_020.jpg	99
2538.813	0.475	475.2	incongruent	Block3	incongruent/STIM_020.jpg	100
2542.059	0.404	404.4	incongruent	Block3	incongruent/STIM_020.jpg	99
2545.519	0.675	674.8	incongruent	Block3	incongruent/STIM_020.jpg	100
2549.111	0.378	377.7	incongruent	Block3	incongruent/STIM_021.jpg	99
2552.816	0.46	460.4	incongruent	Block3	incongruent/STIM_021.jpg	100
2557.001	0.766	765.7	incongruent	Block3	incongruent/STIM_021.jpg	99
2560.996	0.565	564.8	incongruent	Block3	incongruent/STIM_021.jpg	100
2564.892	0.431	431.0	incongruent	Block3	incongruent/STIM_021.jpg	100
2569.321	0.716	716.5	incongruent	Block3	incongruent/STIM_022.jpg	99
2573.869	0.728	728.3	incongruent	Block3	incongruent/STIM_022.jpg	100
2576.821	0.435	434.7	incongruent	Block3	incongruent/STIM_022.jpg	100
2580.032	0.768	767.6	incongruent	Block3	incongruent/STIM_022.jpg	100
2584.229	0.458	458.3	incongruent	Block3	incongruent/STIM_022.jpg	99
2586.793	0.642	641.7	incongruent	Block3	incongruent/STIM_023.jpg	99
2589.569	0.785	784.7	incongruent	Block3	incongruent/STIM_023.jpg	99
2593.379	0.633	633.1	incongruent	Block3	incongruent/STIM_023.jpg	99
2597.59	0.418	417.8	incongruent	Block3	incongruent/STIM_023.jpg	99
2601.941	0.782	782.5	incongruent	Block3	incongruent/STIM_023.jpg	100
2604.891	0.737	737.3	incongruent	Block3	incongruent/STIM_024.jpg	99
2608.483	0.623	622.7	incongruent	Block3	incongruent/STIM_024.jpg	100
2611.766	0.47	470.1	incongruent	Block3	incongruent/STIM_024.jpg	100
2614.344	0.6	600.0	incongruent	Block3	incongruent/STIM_024.jpg	99
2617.548	0.625	625.0	incongruent	Block3	incongruent/STIM_024.jpg	100
2620.662	0.488	488.0	incongruent	Block3	incongruent/STIM_025.jpg	99
2623.266	0.585	585.0	incongruent	Block3	incongruent/STIM_025.jpg	99
2626.359	0.42	419.9	incongruent	Block3	incongruent/STIM_025.jpg	99
2629.383	0.551	551.2	incongruent	Block3	incongruent/STIM_025.jpg	99
2632.679	0.511	511.0	incongruent	Block3	incongruent/STIM_025.jpg	100
2635.935	0.592	591.5	incongruent	Block3	incongruent/STIM_026.jpg	99
2640.271	0.39	390.1	incongruent	Block3	incongruent/STIM_026.jpg	100
2643.926	0.714	713.5	incongruent	Block3	incongruent/STIM_026.jpg	99
2646.754	0.73	730.3	incongruent	Block3	incongruent/STIM_026.jpg	99
2650.265	0.71	709.5	incongruent	Block3	incongruent/STIM_026.jpg	100
2653.735	0.686	685.9	incongruent	Block3	incongruent/STIM_027.jpg	100
2656.811	0.421	420.9	incongruent	Block3	incongruent/STIM_027.jpg	100
2660.887	0.483	482.9	incongruent	Block3	incongruent/STIM_027.jpg	99
2663.557	0.674	673.5	incongruent	Block3	incongruent/STIM_027.jpg	100
2667.921	0.479	479.1	incongruent	Block3	incongruent/STIM_027.jpg	99
2671.076	0.402	401.6	incongruent	Block3	incongruent/STIM_028.jpg	100
2673.776	0.753	753.4	incongruent	Block3	incongruent/STIM_028.jpg	100
2678.275	0.586	586.0	incongruent	Block3	incongruent/STIM_028.jpg	99
2681.409	0.695	694.8	incongruent	Block3	incongruent/STIM_028.jpg	100
2685.037	0.463	463.3	incongruent	Block3	incongruent/STIM_028.jpg	100
2687.665	0.793	793.4	incongruent	Block3	incongruent/STIM_029.jpg	99
2691.05	0.637	637.4	incongruent	Block3	incongruent/STIM_029.jpg	99
2695.029	0.492	491.9	incongruent	Block3	incongruent/STIM_029.jpg	99
2699.289	0.786	786.2	incongruent	Block3	incongruent/STIM_029.jpg	100
2702.791	0.725	724.7	incongruent	Block3	incongruent/STIM_029.jpg	100
2706.066	0.504	504.3	congruent	Block3	congruent/STIM_000.jpg	100
2709.453	0.517	517.2	congruent	Block3	congruent/STIM_000.jpg	99
2713.366	0.548	548.0	congruent	Block3	congruent/STIM_000.jpg	100
2716.593	0.63	629.9	congruent	Block3	congruent/STIM_000.jpg	99
2721.178	0.454	454.5	congruent	Block3	congruent/STIM_000.jpg	99
2724.031	0.551	550.6	congruent	Block3	congruent/STIM_001.jpg	99
2728.273	0.671	670.7	congruent	Block3	congruent/STIM_001.jpg	99
2731.58	0.639	639.3	congruent	Block3	congruent/STIM_001.jpg	100
2735.173	0.675	674.6	congruent	Block3	congruent/STIM_001.jpg	99
2738.317	0.656	656.1	congruent	Block3	congruent/STIM_001.jpg	99
2742.016	0.488	487.5	congruent	Block3	congruent/STIM_002.jpg	100
2746.404	0.59	590.0	congruent	Block3	congruent/STIM_002.jpg	100
2749.172	0.422	422.2	congruent	Block3	congruent/STIM_002.jpg	99
2751.66	0.459	459.0	congruent	Block3	congruent/STIM_002.jpg	100
2755.029	0.525	525.4	congruent	Block3	congruent/STIM_002.jpg	99
2758.962	0.458	458.0	congruent	Block3	congruent/STIM_003.jpg	100
2763.05	0.625	624.6	congruent	Block3	congruent/STIM_003.jpg	100
2766.634	0.596	596.4	congruent	Block3	congruent/STIM_003.jpg	100
2769.975	0.448	448.4	congruent	Block3	congruent/STIM_003.jpg	99
2773.831	0.623	623.0	congruent	Block3	congruent/STIM_003.jpg	99
2776.643	0.558	558.2	congruent	Block3	congruent/STIM_004.jpg	99
2779.494	0.581	580.8	congruent	Block3	congruent/STIM_004.jpg	100
2783.293	0.429	429.0	congruent	Block3	congruent/STIM_004.jpg	99
2787.169	0.512	512.1	congruent	Block3	congruent/STIM_004.jpg	99
2790.211	0.591	590.7	congruent	Block3	congruent/STIM_004.jpg	99
2793.025	0.418	418.2	congruent	Block3	congruent/STIM_005.jpg	100
2796.757	0.574	573.6	congruent	Block3	congruent/STIM_005.jpg	100
2800.989	0.493	492.8	congruent	Block3	congruent/STIM_005.jpg	100
2805.396	0.514	514.2	congruent	Block3	congruent/STIM_005.jpg	99
2808.675	0.418	417.8	congruent	Block3	congruent/STIM_005.jpg	99
2812.235	0.484	484.2	congruent	Block3	congruent/STIM_006.jpg	100
2815.059	0.677	677.0	congruent	Block3	congruent/STIM_006.jpg	99
2818.749	0.528	527.5	congruent	Block3	congruent/STIM_006.jpg	100
2822.885	0.412	412.5	congruent	Block3	congruent/STIM_006.jpg	99
2826.88	0.39	390.4	congruent	Block3	congruent/STIM_006.jpg	100
2830.592	0.552	552.2	congruent	Block3	congruent/STIM_007.jpg	99
2835.005	0.587	587.2	congruent	Block3	congruent/STIM_007.jpg	99
2839.193	0.484	483.5	congruent	Block3	congruent/STIM_007.jpg	99
2843.071	0.649	649.1	congruent	Block3	congruent/STIM_007.jpg	99
2847.525	0.629	629.4	congruent	Block3	congruent/STIM_007.jpg	100
2851.436	0.487	486.6	congruent	Block3	congruent/STIM_008.jpg	99
2854.698	0.535	534.8	congruent	Block3	congruent/STIM_008.jpg	99
2857.657	0.62	620.2	congruent	Block3	congruent/STIM_008.jpg	100
2861.123	0.567	566.7	congruent	Block3	congruent/STIM_008.jpg	99
2865.076	0.556	556.4	congruent	Block3	congruent/STIM_008.jpg	99
2869.585	0.572	571.9	congruent	Block3	congruent/STIM_009.jpg	100
2873.657	0.549	549.2	congruent	Block3	congruent/STIM_009.jpg	99
2876.733	0.635	634.7	congruent	Block3	congruent/STIM_009.jpg	100
2879.837	0.446	445.7	congruent	Block3	congruent/STIM_009.jpg	99
2884.139	0.616	616.1	congruent	Block3	congruent/STIM_009.jpg	100
2888.613	0.503	503.5	congruent	Block3	congruent/STIM_010.jpg	99
2892.421	0.492	492.3	congruent	Block3	congruent/STIM_010.jpg	99
2895.567	0.463	462.8	congruent	Block3	congruent/STIM_010.jpg	99
2899.606	0.634	633.7	congruent	Block3	congruent/STIM_010.jpg	99
2903.31	0.619	619.2	congruent	Block3	congruent/STIM_010.jpg	99
2907.301	0.491	491.4	congruent	Block3	congruent/STIM_011.jpg	99
2910.164	0.67	670.2	congruent	Block3	congruent/STIM_011.jpg	100
2913.725	0.524	523.5	congruent	Block3	congruent/STIM_011.jpg	99
2917.314	0.473	472.8	congruent	Block3	congruent/STIM_011.jpg	100
2921.341	0.382	382.5	congruent	Block3	congruent/STIM_011.jpg	99
2925.567	0.464	463.9	congruent	Block3	congruent/STIM_012.jpg	99
2929.377	0.596	595.7	congruent	Block3	congruent/STIM_012.jpg	99
2932.42	0.487	486.9	congruent	Block3	congruent/STIM_012.jpg	99
2935.798	0.569	569.0	congruent	Block3	congruent/STIM_012.jpg	100
2939.979	0.387	386.8	congruent	Block3	congruent/STIM_012.jpg	99
2943.676	0.456	455.5	congruent	Block3	congruent/STIM_013.jpg	99
2947.922	0.417	416.7	congruent	Block3	congruent/STIM_013.jpg	99
2950.654	0.675	675.3	congruent	Block3	congruent/STIM_013.jpg	99
2955.08	0.575	574.7	congruent	Block3	congruent/STIM_013.jpg	100
2958.847	0.67	670.3	congruent	Block3	congruent/STIM_013.jpg	99
2962.412	0.464	464.3	congruent	Block3	congruent/STIM_014.jpg	100
2965.737	0.523	523.1	congruent	Block3	congruent/STIM_014.jpg	99
2969.748	0.427	427.0	congruent	Block3	congruent/STIM_014.jpg	100
2973.353	0.418	418.0	congruent	Block3	congruent/STIM_014.jpg	100
2977.105	0.529	528.9	congruent	Block3	congruent/STIM_014.jpg	99
2980.79	0.517	516.8	congruent	Block3	congruent/STIM_015.jpg	99
2984.314	0.614	614.3	congruent	Block3	congruent/STIM_015.jpg	99
2987.052	0.668	668.4	congruent	Block3	congruent/STIM_015.jpg	100
2990.127	0.612	611.9	congruent	Block3	congruent/STIM_015.jpg	99
2994.404	0.462	461.8	congruent	Block3	congruent/STIM_015.jpg	99
2998.552	0.603	603.0	congruent	Block3	congruent/STIM_016.jpg	100
3003.065	0.556	555.6	congruent	Block3	congruent/STIM_016.jpg	100
3006.134	0.628	627.6	congruent	Block3	congruent/STIM_016.jpg	99
3008.775	0.603	603.3	congruent	Block3	congruent/STIM_016.jpg	100
3012.795	0.407	406.9	congruent	Block3	congruent/STIM_016.jpg	99
3016.331	0.43	430.5	congruent	Block3	congruent/STIM_017.jpg	99
3020.281	0.507	507.5	congruent	Block3	congruent/STIM_017.jpg	100
3023.271	0.678	677.8	congruent	Block3	congruent/STIM_017.jpg	99
3027.449	0.583	582.8	congruent	Block3	congruent/STIM_017.jpg	100
3030.751	0.478	478.1	congruent	Block3	congruent/STIM_017.jpg	100
3033.774	0.539	538.7	congruent	Block3	congruent/STIM_018.jpg	100
3036.618	0.584	583.9	congruent	Block3	congruent/STIM_018.jpg	99
3041.006	0.423	422.7	congruent	Block3	congruent/STIM_018.jpg	99
3044.184	0.489	489.1	congruent	Block3	congruent/STIM_018.jpg	99
3046.684	0.441	441.2	congruent	Block3	congruent/STIM_018.jpg	100
3049.343	0.53	529.8	congruent	Block3	congruent/STIM_019.jpg	99
3052.299	0.651	651.1	congruent	Block3	congruent/STIM_019.jpg	99
3055.915	0.616	616.3	congruent	Block3	congruent/STIM_019.jpg	99
3060.134	0.541	541.0	congruent	Block3	congruent/STIM_019.jpg	99
3063.087	0.397	396.8	congruent	Block3	congruent/STIM_019.jpg	99
3065.991	0.559	559.3	congruent	Block3	congruent/STIM_020.jpg	99
3069.754	0.567	567.0	congruent	Block3	congruent/STIM_020.jpg	99
3073.743	0.412	411.6	congruent	Block3	congruent/STIM_020.jpg	100
3076.256	0.662	661.6	congruent	Block3	congruent/STIM_020.jpg	100
3079.759	0.598	597.5	congruent	Block3	congruent/STIM_020.jpg	100
3084.005	0.547	546.6	congruent	Block3	congruent/STIM_021.jpg	99
3087.683	0.501	501.3	congruent	Block3	congruent/STIM_021.jpg	99
3090.69	0.48	479.7	congruent	Block3	congruent/STIM_021.jpg	100
3094.808	0.62	620.0	congruent	Block3	congruent/STIM_021.jpg	99
3097.944	0.503	502.9	congruent	Block3	congruent/STIM_021.jpg	100
3102.03	0.652	652.1	congruent	Block3	congruent/STIM_022.jpg	99
3104.924	0.613	613.0	congruent	Block3	congruent/STIM_022.jpg	100
3108.091	0.634	633.7	congruent	Block3	congruent/STIM_022.jpg	100
3112.603	0.396	396.5	congruent	Block3	congruent/STIM_022.jpg	99
3116.478	0.567	566.9	congruent	Block3	congruent/STIM_022.jpg	99
3120.792	0.439	438.9	congruent	Block3	congruent/STIM_023.jpg	99
3124.893	0.464	464.5	congruent	Block3	congruent/STIM_023.jpg	99
3128.567	0.67	670.5	congruent	Block3	congruent/STIM_023.jpg	99
3133.131	0.676	676.1	congruent	Block3	congruent/STIM_023.jpg	100
3137.287	0.554	553.7	congruent	Block3	congruent/STIM_023.jpg	100
3141.63	0.513	513.2	congruent	Block3	congruent/STIM_024.jpg	100
3145.438	0.415	414.8	congruent	Block3	congruent/STIM_024.jpg	99
3149.518	0.568	568.2	congruent	Block3	congruent/STIM_024.jpg	100
3152.737	0.592	592.5	congruent	Block3	congruent/STIM_024.jpg	99
3156.211	0.442	442.0	congruent	Block3	congruent/STIM_024.jpg	99
3160.296	0.617	616.8	congruent	Block3	congruent/STIM_025.jpg	100
3164.861	0.569	569.1	congruent	Block3	congruent/STIM_025.jpg	100
3168.705	0.524	523.7	congruent	Block3	congruent/STIM_025.jpg	100
3172.304	0.642	642.5	congruent	Block3	congruent/STIM_025.jpg	99
3174.98	0.546	546.1	congruent	Block3	congruent/STIM_025.jpg	100
3177.586	0.616	616.1	congruent	Block3	congruent/STIM_026.jpg	99
3181.714	0.509	509.3	congruent	Block3	congruent/STIM_026.jpg	100
3184.986	0.515	515.2	congruent	Block3	congruent/STIM_026.jpg	100
3188.736	0.672	671.7	congruent	Block3	congruent/STIM_026.jpg	99
3191.831	0.502	501.8	congruent	Block3	congruent/STIM_026.jpg	100
3196.138	0.414	413.7	congruent	Block3	congruent/STIM_027.jpg	99
3199.199	0.65	650.3	congruent	Block3	congruent/STIM_027.jpg	100
3202.15	0.475	474.8	congruent	Block3	congruent/STIM_027.jpg	99
3206.268	0.523	523.4	congruent	Block3	congruent/STIM_027.jpg	99
3209.892	0.464	464.5	congruent	Block3	congruent/STIM_027.jpg	99
3214.199	0.448	448.3	congruent	Block3	congruent/STIM_028.jpg	99
3218.339	0.653	653.4	congruent	Block3	congruent/STIM_028.jpg	99
3222.516	0.574	574.3	congruent	Block3	congruent/STIM_028.jpg	99
3225.882	0.667	666.8	congruent	Block3	congruent/STIM_028.jpg	99
3230.543	0.452	451.6	congruent	Block3	congruent/STIM_028.jpg	100
3233.204	0.667	667.1	congruent	Block3	congruent/STIM_029.jpg	99
3236.938	0.407	406.6	congruent	Block3	congruent/STIM_029.jpg	99
3241.224	0.524	524.5	congruent	Block3	congruent/STIM_029.jpg	100
3244.726	0.429	429.3	congruent	Block3	congruent/STIM_029.jpg	100
3248.01	0.442	442.3	congruent	Block3	congruent/STIM_029.jpg	100
