onset	duration	accuracy_binary	trial_type	learning_stage	stimulus
0.0	1.421	0	incongruent	Block1	incongruent/STIM_000.jpg
3.604	0.95	0	incongruent	Block1	incongruent/STIM_000.jpg
7.764	0.777	1	incongruent	Block1	incongruent/STIM_000.jpg
11.161	1.13	1	incongruent	Block1	incongruent/STIM_000.jpg
15.725	0.899	1	incongruent	Block1	incongruent/STIM_000.jpg
20.055	0.752	1	incongruent	Block1	incongruent/STIM_001.jpg
23.588	1.103	1	incongruent	Block1	incongruent/STIM_001.jpg
28.339	1.279	1	incongruent	Block1	incongruent/STIM_001.jpg
32.565	0.77	1	incongruent	Block1	incongruent/STIM_001.jpg
35.635	0.82	1	incongruent	Block1	incongruent/STIM_001.jpg
39.501	1.404	0	incongruent	Block1	incongruent/STIM_002.jpg
43.033	1.269	1	incongruent	Block1	incongruent/STIM_002.jpg
47.805	1.154	0	incongruent	Block1	incongruent/STIM_002.jpg
52.348	1.245	1	incongruent	Block1	incongruent/STIM_002.jpg
57.364	0.621	1	incongruent	Block1	incongruent/STIM_002.jpg
61.328	1.516	1	incongruent	Block1	incongruent/STIM_003.jpg
65.15	0.769	1	incongruent	Block1	incongruent/STIM_003.jpg
68.69	0.827	1	incongruent	Block1	incongruent/STIM_003.jpg
73.433	1.196	1	incongruent	Block1	incongruent/STIM_003.jpg
76.711	1.22	0	incongruent	Block1	incongruent/STIM_003.jpg
80.223	0.875	1	incongruent	Block1	incongruent/STIM_004.jpg
83.711	1.323	1	incongruent	Block1	incongruent/STIM_004.jpg
88.558	0.852	0	incongruent	Block1	incongruent/STIM_004.jpg
92.101	0.892	1	incongruent	Block1	incongruent/STIM_004.jpg
96.062	0.622	1	incongruent	Block1	incongruent/STIM_004.jpg
100.223	1.322	1	incongruent	Block1	incongruent/STIM_005.jpg
103.631	1.385	1	incongruent	Block1	incongruent/STIM_005.jpg
107.19	1.061	1	incongruent	Block1	incongruent/STIM_005.jpg
110.336	1.019	1	incongruent	Block1	incongruent/STIM_005.jpg
114.175	1.047	1	incongruent	Block1	incongruent/STIM_005.jpg
118.19	1.213	1	incongruent	Block1	incongruent/STIM_006.jpg
123.069	1.148	1	incongruent	Block1	incongruent/STIM_006.jpg
127.516	0.754	1	incongruent	Block1	incongruent/STIM_006.jpg
130.404	1.156	1	incongruent	Block1	incongruent/STIM_006.jpg
135.246	0.779	1	incongruent	Block1	incongruent/STIM_006.jpg
139.451	1.199	0	incongruent	Block1	incongruent/STIM_007.jpg
144.314	1.097	1	incongruent	Block1	incongruent/STIM_007.jpg
148.97	1.001	1	incongruent	Block1	incongruent/STIM_007.jpg
152.804	1.141	1	incongruent	Block1	incongruent/STIM_007.jpg
157.18	0.695	1	incongruent	Block1	incongruent/STIM_007.jpg
161.184	1.149	1	incongruent	Block1	incongruent/STIM_008.jpg
165.846	0.88	0	incongruent	Block1	incongruent/STIM_008.jpg
170.581	1.227	1	incongruent	Block1	incongruent/STIM_008.jpg
174.561	0.645	1	incongruent	Block1	incongruent/STIM_008.jpg
178.706	0.718	1	incongruent	Block1	incongruent/STIM_008.jpg
181.722	1.055	1	incongruent	Block1	incongruent/STIM_009.jpg
185.922	0.803	1	incongruent	Block1	incongruent/STIM_009.jpg
190.19	0.798	1	incongruent	Block1	incongruent/STIM_009.jpg
193.658	0.701	1	incongruent	Block1	incongruent/STIM_009.jpg
196.953	0.637	1	incongruent	Block1	incongruent/STIM_009.jpg
201.189	1.252	1	incongruent	Block1	incongruent/STIM_010.jpg
205.977	0.989	1	incongruent	Block1	incongruent/STIM_010.jpg
210.661	0.787	1	incongruent	Block1	incongruent/STIM_010.jpg
214.496	1.304	1	incongruent	Block1	incongruent/STIM_010.jpg
219.466	1.024	1	incongruent	Block1	incongruent/STIM_010.jpg
223.449	0.844	1	incongruent	Block1	incongruent/STIM_011.jpg
227.118	1.445	1	incongruent	Block1	incongruent/STIM_011.jpg
231.299	1.271	1	incongruent	Block1	incongruent/STIM_011.jpg
236.393	0.796	1	incongruent	Block1	incongruent/STIM_011.jpg
239.326	0.891	1	incongruent	Block1	incongruent/STIM_011.jpg
242.546	1.228	1	incongruent	Block1	incongruent/STIM_012.jpg
247.582	0.705	1	incongruent	Block1	incongruent/STIM_012.jpg
250.904	1.05	1	incongruent	Block1	incongruent/STIM_012.jpg
255.544	0.831	1	incongruent	Block1	incongruent/STIM_012.jpg
260.261	0.606	0	incongruent	Block1	incongruent/STIM_012.jpg
263.712	1.061	1	incongruent	Block1	incongruent/STIM_013.jpg
266.739	0.827	1	incongruent	Block1	incongruent/STIM_013.jpg
269.903	1.179	1	incongruent	Block1	incongruent/STIM_013.jpg
274.623	1.238	0	incongruent	Block1	incongruent/STIM_013.jpg
278.743	0.599	1	incongruent	Block1	incongruent/STIM_013.jpg
281.999	1.343	1	incongruent	Block1	incongruent/STIM_014.jpg
285.885	0.924	1	incongruent	Block1	incongruent/STIM_014.jpg
289.638	1.085	1	incongruent	Block1	incongruent/STIM_014.jpg
294.331	0.678	1	incongruent	Block1	incongruent/STIM_014.jpg
297.261	0.906	0	incongruent	Block1	incongruent/STIM_014.jpg
301.931	1.249	0	incongruent	Block1	incongruent/STIM_015.jpg
305.645	1.032	1	incongruent	Block1	incongruent/STIM_015.jpg
308.794	0.892	1	incongruent	Block1	incongruent/STIM_015.jpg
312.918	1.215	1	incongruent	Block1	incongruent/STIM_015.jpg
317.064	1.07	1	incongruent	Block1	incongruent/STIM_015.jpg
321.882	1.558	1	incongruent	Block1	incongruent/STIM_016.jpg
325.973	1.451	1	incongruent	Block1	incongruent/STIM_016.jpg
330.249	0.884	1	incongruent	Block1	incongruent/STIM_016.jpg
334.394	0.798	1	incongruent	Block1	incongruent/STIM_016.jpg
338.674	0.594	1	incongruent	Block1	incongruent/STIM_016.jpg
341.752	0.88	1	incongruent	Block1	incongruent/STIM_017.jpg
346.091	1.459	1	incongruent	Block1	incongruent/STIM_017.jpg
349.886	0.728	1	incongruent	Block1	incongruent/STIM_017.jpg
354.207	1.053	1	incongruent	Block1	incongruent/STIM_017.jpg
359.071	0.812	1	incongruent	Block1	incongruent/STIM_017.jpg
363.768	0.924	1	incongruent	Block1	incongruent/STIM_018.jpg
366.774	1.043	1	incongruent	Block1	incongruent/STIM_018.jpg
369.93	0.759	1	incongruent	Block1	incongruent/STIM_018.jpg
373.672	0.78	1	incongruent	Block1	incongruent/STIM_018.jpg
378.015	1.215	1	incongruent	Block1	incongruent/STIM_018.jpg
381.959	0.837	1	incongruent	Block1	incongruent/STIM_019.jpg
386.47	1.423	1	incongruent	Block1	incongruent/STIM_019.jpg
390.803	1.284	1	incongruent	Block1	incongruent/STIM_019.jpg
395.822	1.08	1	incongruent	Block1	incongruent/STIM_019.jpg
400.356	1.127	0	incongruent	Block1	incongruent/STIM_019.jpg
403.586	1.38	1	incongruent	Block1	incongruent/STIM_020.jpg
408.577	1.173	1	incongruent	Block1	incongruent/STIM_020.jpg
412.436	0.862	1	incongruent	Block1	incongruent/STIM_020.jpg
416.766	1.266	1	incongruent	Block1	incongruent/STIM_020.jpg
421.316	0.815	1	incongruent	Block1	incongruent/STIM_020.jpg
425.01	1.292	1	incongruent	Block1	incongruent/STIM_021.jpg
429.142	0.95	1	incongruent	Block1	incongruent/STIM_021.jpg
433.024	0.802	1	incongruent	Block1	incongruent/STIM_021.jpg
437.272	1.037	1	incongruent	Block1	incongruent/STIM_021.jpg
442.228	0.923	1	incongruent	Block1	incongruent/STIM_021.jpg
445.686	0.814	1	incongruent	Block1	incongruent/STIM_022.jpg
449.095	1.066	1	incongruent	Block1	incongruent/STIM_022.jpg
453.523	1.348	1	incongruent	Block1	incongruent/STIM_022.jpg
457.098	1.3	1	incongruent	Block1	incongruent/STIM_022.jpg
461.727	1.246	1	incongruent	Block1	incongruent/STIM_022.jpg
465.517	1.006	1	incongruent	Block1	incongruent/STIM_023.jpg
470.069	1.406	1	incongruent	Block1	incongruent/STIM_023.jpg
474.344	1.106	1	incongruent	Block1	incongruent/STIM_023.jpg
478.705	1.115	0	incongruent	Block1	incongruent/STIM_023.jpg
483.506	1.147	1	incongruent	Block1	incongruent/STIM_023.jpg
486.765	0.907	1	incongruent	Block1	incongruent/STIM_024.jpg
490.92	1.154	1	incongruent	Block1	incongruent/STIM_024.jpg
495.427	0.833	1	incongruent	Block1	incongruent/STIM_024.jpg
499.819	0.796	1	incongruent	Block1	incongruent/STIM_024.jpg
503.775	1.163	1	incongruent	Block1	incongruent/STIM_024.jpg
506.974	0.804	1	incongruent	Block1	incongruent/STIM_025.jpg
511.379	1.009	1	incongruent	Block1	incongruent/STIM_025.jpg
516.284	1.399	1	incongruent	Block1	incongruent/STIM_025.jpg
521.332	0.698	1	incongruent	Block1	incongruent/STIM_025.jpg
525.03	0.648	1	incongruent	Block1	incongruent/STIM_025.jpg
528.149	1.218	1	incongruent	Block1	incongruent/STIM_026.jpg
532.436	0.996	1	incongruent	Block1	incongruent/STIM_026.jpg
536.529	1.216	0	incongruent	Block1	incongruent/STIM_026.jpg
540.014	1.301	1	incongruent	Block1	incongruent/STIM_026.jpg
544.221	1.25	1	incongruent	Block1	incongruent/STIM_026.jpg
548.719	0.883	1	incongruent	Block1	incongruent/STIM_027.jpg
553.313	1.011	1	incongruent	Block1	incongruent/STIM_027.jpg
557.075	1.382	1	incongruent	Block1	incongruent/STIM_027.jpg
560.688	0.71	1	incongruent	Block1	incongruent/STIM_027.jpg
565.23	1.038	1	incongruent	Block1	incongruent/STIM_027.jpg
568.712	1.411	1	incongruent	Block1	incongruent/STIM_028.jpg
572.322	1.476	1	incongruent	Block1	incongruent/STIM_028.jpg
575.729	0.844	1	incongruent	Block1	incongruent/STIM_028.jpg
580.29	1.163	1	incongruent	Block1	incongruent/STIM_028.jpg
585.377	1.034	1	incongruent	Block1	incongruent/STIM_028.jpg
588.463	1.275	0	incongruent	Block1	incongruent/STIM_029.jpg
591.883	1.488	1	incongruent	Block1	incongruent/STIM_029.jpg
597.047	0.868	1	incongruent	Block1	incongruent/STIM_029.jpg
600.585	1.046	1	incongruent	Block1	incongruent/STIM_029.jpg
604.104	1.21	1	incongruent	Block1	incongruent/STIM_029.jpg
608.831	0.82	1	congruent	Block1	congruent/STIM_000.jpg
611.802	0.608	1	congruent	Block1	congruent/STIM_000.jpg
616.333	0.86	1	congruent	Block1	congruent/STIM_000.jpg
620.552	0.75	1	congruent	Block1	congruent/STIM_000.jpg
623.804	0.536	1	congruent	Block1	congruent/STIM_000.jpg
628.238	0.805	1	congruent	Block1	congruent/STIM_001.jpg
632.694	0.785	1	congruent	Block1	congruent/STIM_001.jpg
636.464	0.666	1	congruent	Block1	congruent/STIM_001.jpg
640.579	0.87	1	congruent	Block1	congruent/STIM_001.jpg
644.997	0.63	1	congruent	Block1	congruent/STIM_001.jpg
649.141	0.747	1	congruent	Block1	congruent/STIM_002.jpg
652.012	0.613	1	congruent	Block1	congruent/STIM_002.jpg
654.799	0.65	1	congruent	Block1	congruent/STIM_002.jpg
657.542	0.713	1	congruent	Block1	congruent/STIM_002.jpg
661.781	0.862	1	congruent	Block1	congruent/STIM_002.jpg
665.099	0.93	1	congruent	Block1	congruent/STIM_003.jpg
669.46	0.527	1	congruent	Block1	congruent/STIM_003.jpg
673.682	0.639	1	congruent	Block1	congruent/STIM_003.jpg
676.371	0.581	1	congruent	Block1	congruent/STIM_003.jpg
680.007	0.64	1	congruent	Block1	congruent/STIM_003.jpg
683.755	0.901	1	congruent	Block1	congruent/STIM_004.jpg
687.429	0.73	1	congruent	Block1	congruent/STIM_004.jpg
692.1	0.585	1	congruent	Block1	congruent/STIM_004.jpg
695.019	0.806	1	congruent	Block1	congruent/STIM_004.jpg
698.056	0.885	1	congruent	Block1	congruent/STIM_004.jpg
700.992	0.587	1	congruent	Block1	congruent/STIM_005.jpg
703.65	0.85	1	congruent	Block1	congruent/STIM_005.jpg
707.628	0.64	1	congruent	Block1	congruent/STIM_005.jpg
711.871	0.715	1	congruent	Block1	congruent/STIM_005.jpg
715.874	0.856	1	congruent	Block1	congruent/STIM_005.jpg
719.963	0.693	1	congruent	Block1	congruent/STIM_006.jpg
723.98	0.916	1	congruent	Block1	congruent/STIM_006.jpg
726.898	0.747	1	congruent	Block1	congruent/STIM_006.jpg
730.908	0.924	1	congruent	Block1	congruent/STIM_006.jpg
734.381	0.739	1	congruent	Block1	congruent/STIM_006.jpg
738.887	0.615	1	congruent	Block1	congruent/STIM_007.jpg
741.936	0.651	0	congruent	Block1	congruent/STIM_007.jpg
745.065	0.903	1	congruent	Block1	congruent/STIM_007.jpg
748.408	0.768	1	congruent	Block1	congruent/STIM_007.jpg
752.175	0.715	1	congruent	Block1	congruent/STIM_007.jpg
755.661	0.568	1	congruent	Block1	congruent/STIM_008.jpg
759.485	0.922	1	congruent	Block1	congruent/STIM_008.jpg
762.615	0.637	1	congruent	Block1	congruent/STIM_008.jpg
766.117	0.93	1	congruent	Block1	congruent/STIM_008.jpg
769.958	0.581	1	congruent	Block1	congruent/STIM_008.jpg
773.097	0.676	1	congruent	Block1	congruent/STIM_009.jpg
776.994	0.735	1	congruent	Block1	congruent/STIM_009.jpg
781.209	0.556	1	congruent	Block1	congruent/STIM_009.jpg
784.334	0.895	1	congruent	Block1	congruent/STIM_009.jpg
787.315	0.597	1	congruent	Block1	congruent/STIM_009.jpg
791.501	0.588	1	congruent	Block1	congruent/STIM_010.jpg
794.168	0.533	1	congruent	Block1	congruent/STIM_010.jpg
797.581	0.84	1	congruent	Block1	congruent/STIM_010.jpg
802.028	0.554	1	congruent	Block1	congruent/STIM_010.jpg
806.548	0.689	0	congruent	Block1	congruent/STIM_010.jpg
811.065	0.581	1	congruent	Block1	congruent/STIM_011.jpg
813.673	0.568	1	congruent	Block1	congruent/STIM_011.jpg
817.12	0.8	1	congruent	Block1	congruent/STIM_011.jpg
820.304	0.69	1	congruent	Block1	congruent/STIM_011.jpg
823.406	0.569	1	congruent	Block1	congruent/STIM_011.jpg
826.839	0.544	1	congruent	Block1	congruent/STIM_012.jpg
830.896	0.593	1	congruent	Block1	congruent/STIM_012.jpg
834.404	0.726	1	congruent	Block1	congruent/STIM_012.jpg
837.908	0.75	1	congruent	Block1	congruent/STIM_012.jpg
842.51	0.829	1	congruent	Block1	congruent/STIM_012.jpg
845.623	0.73	1	congruent	Block1	congruent/STIM_013.jpg
848.706	0.885	1	congruent	Block1	congruent/STIM_013.jpg
853.437	0.752	1	congruent	Block1	congruent/STIM_013.jpg
857.806	0.699	1	congruent	Block1	congruent/STIM_013.jpg
861.378	0.838	1	congruent	Block1	congruent/STIM_013.jpg
865.854	0.6	1	congruent	Block1	congruent/STIM_014.jpg
869.09	0.556	1	congruent	Block1	congruent/STIM_014.jpg
872.738	0.666	1	congruent	Block1	congruent/STIM_014.jpg
875.68	0.64	1	congruent	Block1	congruent/STIM_014.jpg
880.17	0.562	1	congruent	Block1	congruent/STIM_014.jpg
883.75	0.889	1	congruent	Block1	congruent/STIM_015.jpg
887.542	0.754	1	congruent	Block1	congruent/STIM_015.jpg
892.1	0.597	1	congruent	Block1	congruent/STIM_015.jpg
896.355	0.907	1	congruent	Block1	congruent/STIM_015.jpg
899.816	0.676	1	congruent	Block1	congruent/STIM_015.jpg
902.996	0.528	1	congruent	Block1	congruent/STIM_016.jpg
906.28	0.712	1	congruent	Block1	congruent/STIM_016.jpg
909.295	0.885	1	congruent	Block1	congruent/STIM_016.jpg
912.559	0.669	1	congruent	Block1	congruent/STIM_016.jpg
916.49	0.9	1	congruent	Block1	congruent/STIM_016.jpg
919.754	0.936	1	congruent	Block1	congruent/STIM_017.jpg
924.267	0.64	1	congruent	Block1	congruent/STIM_017.jpg
927.154	0.913	1	congruent	Block1	congruent/STIM_017.jpg
931.245	0.747	1	congruent	Block1	congruent/STIM_017.jpg
935.47	0.553	1	congruent	Block1	congruent/STIM_017.jpg
939.018	0.717	1	congruent	Block1	congruent/STIM_018.jpg
942.047	0.925	0	congruent	Block1	congruent/STIM_018.jpg
945.377	0.91	1	congruent	Block1	congruent/STIM_018.jpg
949.129	0.529	1	congruent	Block1	congruent/STIM_018.jpg
951.736	0.937	1	congruent	Block1	congruent/STIM_018.jpg
955.361	0.621	1	congruent	Block1	congruent/STIM_019.jpg
958.102	0.669	1	congruent	Block1	congruent/STIM_019.jpg
961.677	0.544	1	congruent	Block1	congruent/STIM_019.jpg
964.841	0.657	1	congruent	Block1	congruent/STIM_019.jpg
969.347	0.824	1	congruent	Block1	congruent/STIM_019.jpg
972.387	0.674	1	congruent	Block1	congruent/STIM_020.jpg
976.439	0.752	0	congruent	Block1	congruent/STIM_020.jpg
979.67	0.839	1	congruent	Block1	congruent/STIM_020.jpg
982.965	0.853	1	congruent	Block1	congruent/STIM_020.jpg
986.298	0.638	1	congruent	Block1	congruent/STIM_020.jpg
990.86	0.874	1	congruent	Block1	congruent/STIM_021.jpg
994.98	0.621	1	congruent	Block1	congruent/STIM_021.jpg
998.026	0.628	1	congruent	Block1	congruent/STIM_021.jpg
1001.486	0.915	1	congruent	Block1	congruent/STIM_021.jpg
1005.733	0.643	1	congruent	Block1	congruent/STIM_021.jpg
1009.192	0.645	1	congruent	Block1	congruent/STIM_022.jpg
1013.741	0.925	1	congruent	Block1	congruent/STIM_022.jpg
1017.2	0.748	1	congruent	Block1	congruent/STIM_022.jpg
1020.179	0.695	1	congruent	Block1	congruent/STIM_022.jpg
1023.247	0.864	1	congruent	Block1	congruent/STIM_022.jpg
1027.201	0.532	1	congruent	Block1	congruent/STIM_023.jpg
1030.539	0.903	1	congruent	Block1	congruent/STIM_023.jpg
1035.381	0.571	1	congruent	Block1	congruent/STIM_023.jpg
1039.405	0.93	1	congruent	Block1	congruent/STIM_023.jpg
1044.089	0.78	1	congruent	Block1	congruent/STIM_023.jpg
1048.442	0.751	1	congruent	Block1	congruent/STIM_024.jpg
1052.283	0.815	1	congruent	Block1	congruent/STIM_024.jpg
1056.366	0.53	1	congruent	Block1	congruent/STIM_024.jpg
1060.409	0.543	1	congruent	Block1	congruent/STIM_024.jpg
1063.364	0.775	1	congruent	Block1	congruent/STIM_024.jpg
1068.038	0.833	1	congruent	Block1	congruent/STIM_025.jpg
1071.989	0.617	1	congruent	Block1	congruent/STIM_025.jpg
1075.288	0.782	1	congruent	Block1	congruent/STIM_025.jpg
1078.965	0.668	0	congruent	Block1	congruent/STIM_025.jpg
1082.273	0.62	1	congruent	Block1	congruent/STIM_025.jpg
1085.687	0.61	1	congruent	Block1	congruent/STIM_026.jpg
1089.795	0.744	1	congruent	Block1	congruent/STIM_026.jpg
1093.247	0.873	1	congruent	Block1	congruent/STIM_026.jpg
1097.08	0.913	1	congruent	Block1	congruent/STIM_026.jpg
1099.994	0.641	1	congruent	Block1	congruent/STIM_026.jpg
1103.504	0.925	1	congruent	Block1	congruent/STIM_027.jpg
1107.404	0.874	1	congruent	Block1	congruent/STIM_027.jpg
1110.644	0.541	1	congruent	Block1	congruent/STIM_027.jpg
1114.962	0.543	1	congruent	Block1	congruent/STIM_027.jpg
1118.965	0.886	1	congruent	Block1	congruent/STIM_027.jpg
1122.212	0.623	1	congruent	Block1	congruent/STIM_028.jpg
1126.597	0.551	1	congruent	Block1	congruent/STIM_028.jpg
1129.652	0.716	1	congruent	Block1	congruent/STIM_028.jpg
1133.522	0.763	1	congruent	Block1	congruent/STIM_028.jpg
1136.97	0.549	1	congruent	Block1	congruent/STIM_028.jpg
1139.755	0.879	1	congruent	Block1	congruent/STIM_029.jpg
1143.077	0.655	1	congruent	Block1	congruent/STIM_029.jpg
1147.646	0.887	1	congruent	Block1	congruent/STIM_029.jpg
1152.243	0.68	1	congruent	Block1	congruent/STIM_029.jpg
1156.795	0.93	1	congruent	Block1	congruent/STIM_029.jpg
1160.098	1.189	1	incongruent	Block2	incongruent/STIM_000.jpg
1164.162	0.85	1	incongruent	Block2	incongruent/STIM_000.jpg
1168.322	0.818	1	incongruent	Block2	incongruent/STIM_000.jpg
1171.664	0.561	1	incongruent	Block2	incongruent/STIM_000.jpg
1175.471	0.905	1	incongruent	Block2	incongruent/STIM_000.jpg
1179.638	0.954	1	incongruent	Block2	incongruent/STIM_001.jpg
1184.302	1.105	1	incongruent	Block2	incongruent/STIM_001.jpg
1188.693	0.95	0	incongruent	Block2	incongruent/STIM_001.jpg
1192.315	0.994	1	incongruent	Block2	incongruent/STIM_001.jpg
1195.929	0.748	1	incongruent	Block2	incongruent/STIM_001.jpg
1199.972	0.969	1	incongruent	Block2	incongruent/STIM_002.jpg
1203.106	0.863	1	incongruent	Block2	incongruent/STIM_002.jpg
1206.529	0.562	1	incongruent	Block2	incongruent/STIM_002.jpg
1210.57	0.636	1	incongruent	Block2	incongruent/STIM_002.jpg
1214.399	0.908	1	incongruent	Block2	incongruent/STIM_002.jpg
1218.099	0.86	1	incongruent	Block2	incongruent/STIM_003.jpg
1222.137	0.893	1	incongruent	Block2	incongruent/STIM_003.jpg
1226.336	1.128	1	incongruent	Block2	incongruent/STIM_003.jpg
1229.601	0.761	1	incongruent	Block2	incongruent/STIM_003.jpg
1232.778	0.949	1	incongruent	Block2	incongruent/STIM_003.jpg
1236.553	1.043	1	incongruent	Block2	incongruent/STIM_004.jpg
1240.001	1.052	0	incongruent	Block2	incongruent/STIM_004.jpg
1243.304	0.599	1	incongruent	Block2	incongruent/STIM_004.jpg
1246.512	1.052	1	incongruent	Block2	incongruent/STIM_004.jpg
1250.013	1.071	1	incongruent	Block2	incongruent/STIM_004.jpg
1254.166	0.911	1	incongruent	Block2	incongruent/STIM_005.jpg
1258.425	1.021	1	incongruent	Block2	incongruent/STIM_005.jpg
1261.844	1.14	1	incongruent	Block2	incongruent/STIM_005.jpg
1265.475	0.9	1	incongruent	Block2	incongruent/STIM_005.jpg
1268.912	0.678	1	incongruent	Block2	incongruent/STIM_005.jpg
1272.456	1.122	1	incongruent	Block2	incongruent/STIM_006.jpg
1275.801	0.982	1	incongruent	Block2	incongruent/STIM_006.jpg
1280.295	0.652	1	incongruent	Block2	incongruent/STIM_006.jpg
1283.93	0.893	1	incongruent	Block2	incongruent/STIM_006.jpg
1288.573	0.591	1	incongruent	Block2	incongruent/STIM_006.jpg
1292.037	0.846	0	incongruent	Block2	incongruent/STIM_007.jpg
1295.468	0.725	1	incongruent	Block2	incongruent/STIM_007.jpg
1298.578	0.59	1	incongruent	Block2	incongruent/STIM_007.jpg
1301.74	0.641	1	incongruent	Block2	incongruent/STIM_007.jpg
1304.91	0.607	1	incongruent	Block2	incongruent/STIM_007.jpg
1307.916	0.778	1	incongruent	Block2	incongruent/STIM_008.jpg
1311.997	0.871	1	incongruent	Block2	incongruent/STIM_008.jpg
1316.635	1.116	1	incongruent	Block2	incongruent/STIM_008.jpg
1320.526	1.09	1	incongruent	Block2	incongruent/STIM_008.jpg
1325.297	0.58	1	incongruent	Block2	incongruent/STIM_008.jpg
1329.153	1.263	1	incongruent	Block2	incongruent/STIM_009.jpg
1333.38	1.226	1	incongruent	Block2	incongruent/STIM_009.jpg
1337.079	0.954	1	incongruent	Block2	incongruent/STIM_009.jpg
1341.546	0.657	1	incongruent	Block2	incongruent/STIM_009.jpg
1345.203	1.077	1	incongruent	Block2	incongruent/STIM_009.jpg
1349.919	1.255	1	incongruent	Block2	incongruent/STIM_010.jpg
1353.401	1.257	1	incongruent	Block2	incongruent/STIM_010.jpg
1357.18	1.022	1	incongruent	Block2	incongruent/STIM_010.jpg
1360.87	0.964	1	incongruent	Block2	incongruent/STIM_010.jpg
1364.412	0.529	1	incongruent	Block2	incongruent/STIM_010.jpg
1367.491	0.836	1	incongruent	Block2	incongruent/STIM_011.jpg
1370.341	0.808	1	incongruent	Block2	incongruent/STIM_011.jpg
1374.518	1.164	1	incongruent	Block2	incongruent/STIM_011.jpg
1379.163	0.945	1	incongruent	Block2	incongruent/STIM_011.jpg
1383.31	0.789	1	incongruent	Block2	incongruent/STIM_011.jpg
1387.119	0.744	1	incongruent	Block2	incongruent/STIM_012.jpg
1389.994	1.003	1	incongruent	Block2	incongruent/STIM_012.jpg
1394.725	0.817	1	incongruent	Block2	incongruent/STIM_012.jpg
1398.937	0.94	1	incongruent	Block2	incongruent/STIM_012.jpg
1402.893	0.735	1	incongruent	Block2	incongruent/STIM_012.jpg
1406.27	1.005	1	incongruent	Block2	incongruent/STIM_013.jpg
1409.3	0.794	1	incongruent	Block2	incongruent/STIM_013.jpg
1412.761	0.956	1	incongruent	Block2	incongruent/STIM_013.jpg
1416.351	0.786	1	incongruent	Block2	incongruent/STIM_013.jpg
1420.812	1.035	1	incongruent	Block2	incongruent/STIM_013.jpg
1425.156	1.288	1	incongruent	Block2	incongruent/STIM_014.jpg
1429.412	0.663	1	incongruent	Block2	incongruent/STIM_014.jpg
1433.423	0.578	1	incongruent	Block2	incongruent/STIM_014.jpg
1437.314	0.996	1	incongruent	Block2	incongruent/STIM_014.jpg
1441.547	0.859	1	incongruent	Block2	incongruent/STIM_014.jpg
1445.428	1.045	1	incongruent	Block2	incongruent/STIM_015.jpg
1449.691	0.826	1	incongruent	Block2	incongruent/STIM_015.jpg
1453.267	0.928	0	incongruent	Block2	incongruent/STIM_015.jpg
1456.976	1.088	1	incongruent	Block2	incongruent/STIM_015.jpg
1461.195	1.078	1	incongruent	Block2	incongruent/STIM_015.jpg
1464.945	0.96	0	incongruent	Block2	incongruent/STIM_016.jpg
1469.611	1.056	1	incongruent	Block2	incongruent/STIM_016.jpg
1473.471	1.132	1	incongruent	Block2	incongruent/STIM_016.jpg
1476.66	0.733	1	incongruent	Block2	incongruent/STIM_016.jpg
1479.95	1.003	1	incongruent	Block2	incongruent/STIM_016.jpg
1484.002	1.226	1	incongruent	Block2	incongruent/STIM_017.jpg
1488.032	0.89	1	incongruent	Block2	incongruent/STIM_017.jpg
1492.079	0.739	1	incongruent	Block2	incongruent/STIM_017.jpg
1496.285	0.558	0	incongruent	Block2	incongruent/STIM_017.jpg
1499.167	0.663	1	incongruent	Block2	incongruent/STIM_017.jpg
1503.484	1.083	1	incongruent	Block2	incongruent/STIM_018.jpg
1508.421	0.933	1	incongruent	Block2	incongruent/STIM_018.jpg
1512.351	0.752	1	incongruent	Block2	incongruent/STIM_018.jpg
1516.571	1.093	1	incongruent	Block2	incongruent/STIM_018.jpg
1521.175	0.924	1	incongruent	Block2	incongruent/STIM_018.jpg
1524.08	0.674	0	incongruent	Block2	incongruent/STIM_019.jpg
1527.468	0.807	1	incongruent	Block2	incongruent/STIM_019.jpg
1531.481	0.785	1	incongruent	Block2	incongruent/STIM_019.jpg
1534.626	0.589	1	incongruent	Block2	incongruent/STIM_019.jpg
1538.415	1.023	1	incongruent	Block2	incongruent/STIM_019.jpg
1541.398	1.204	1	incongruent	Block2	incongruent/STIM_020.jpg
1546.433	0.937	1	incongruent	Block2	incongruent/STIM_020.jpg
1550.725	0.873	1	incongruent	Block2	incongruent/STIM_020.jpg
1554.669	1.037	1	incongruent	Block2	incongruent/STIM_020.jpg
1558.21	0.661	1	incongruent	Block2	incongruent/STIM_020.jpg
1562.204	0.626	1	incongruent	Block2	incongruent/STIM_021.jpg
1566.576	1.142	1	incongruent	Block2	incongruent/STIM_021.jpg
1570.925	1.124	1	incongruent	Block2	incongruent/STIM_021.jpg
1574.414	0.731	1	incongruent	Block2	incongruent/STIM_021.jpg
1578.14	0.698	1	incongruent	Block2	incongruent/STIM_021.jpg
1581.024	0.633	1	incongruent	Block2	incongruent/STIM_022.jpg
1584.255	1.248	1	incongruent	Block2	incongruent/STIM_022.jpg
1588.693	0.776	0	incongruent	Block2	incongruent/STIM_022.jpg
1591.765	0.759	1	incongruent	Block2	incongruent/STIM_022.jpg
1595.833	1.03	1	incongruent	Block2	incongruent/STIM_022.jpg
1599.466	1.156	1	incongruent	Block2	incongruent/STIM_023.jpg
1603.587	1.181	1	incongruent	Block2	incongruent/STIM_023.jpg
1608.56	0.674	1	incongruent	Block2	incongruent/STIM_023.jpg
1611.885	1.068	1	incongruent	Block2	incongruent/STIM_023.jpg
1614.986	0.585	1	incongruent	Block2	incongruent/STIM_023.jpg
1618.062	1.114	1	incongruent	Block2	incongruent/STIM_024.jpg
1622.348	0.894	1	incongruent	Block2	incongruent/STIM_024.jpg
1626.825	0.634	1	incongruent	Block2	incongruent/STIM_024.jpg
1630.896	0.729	1	incongruent	Block2	incongruent/STIM_024.jpg
1634.151	1.056	1	incongruent	Block2	incongruent/STIM_024.jpg
1638.264	1.079	1	incongruent	Block2	incongruent/STIM_025.jpg
1641.663	0.853	1	incongruent	Block2	incongruent/STIM_025.jpg
1644.857	0.753	1	incongruent	Block2	incongruent/STIM_025.jpg
1649.361	0.784	1	incongruent	Block2	incongruent/STIM_025.jpg
1652.144	0.769	1	incongruent	Block2	incongruent/STIM_025.jpg
1655.882	1.025	1	incongruent	Block2	incongruent/STIM_026.jpg
1659.08	0.889	1	incongruent	Block2	incongruent/STIM_026.jpg
1662.968	1.085	1	incongruent	Block2	incongruent/STIM_026.jpg
1667.208	1.03	1	incongruent	Block2	incongruent/STIM_026.jpg
1670.277	0.55	1	incongruent	Block2	incongruent/STIM_026.jpg
1674.339	1.054	1	incongruent	Block2	incongruent/STIM_027.jpg
1677.916	1.201	1	incongruent	Block2	incongruent/STIM_027.jpg
1682.386	1.158	1	incongruent	Block2	incongruent/STIM_027.jpg
1685.668	0.95	0	incongruent	Block2	incongruent/STIM_027.jpg
1690.408	0.909	1	incongruent	Block2	incongruent/STIM_027.jpg
1694.832	1.084	1	incongruent	Block2	incongruent/STIM_028.jpg
1699.283	1.12	1	incongruent	Block2	incongruent/STIM_028.jpg
1702.857	0.716	1	incongruent	Block2	incongruent/STIM_028.jpg
1706.677	0.615	0	incongruent	Block2	incongruent/STIM_028.jpg
1709.349	0.704	1	incongruent	Block2	incongruent/STIM_028.jpg
1713.383	1.122	1	incongruent	Block2	incongruent/STIM_029.jpg
1717.654	1.085	1	incongruent	Block2	incongruent/STIM_029.jpg
1721.601	0.792	1	incongruent	Block2	incongruent/STIM_029.jpg
1725.119	1.056	1	incongruent	Block2	incongruent/STIM_029.jpg
1728.616	0.616	1	incongruent	Block2	incongruent/STIM_029.jpg
1732.366	0.778	1	congruent	Block2	congruent/STIM_000.jpg
1736.16	0.549	1	congruent	Block2	congruent/STIM_000.jpg
1739.317	0.653	1	congruent	Block2	congruent/STIM_000.jpg
1742.381	0.639	1	congruent	Block2	congruent/STIM_000.jpg
1746.975	0.907	1	congruent	Block2	congruent/STIM_000.jpg
1750.063	0.674	1	congruent	Block2	congruent/STIM_001.jpg
1753.557	0.75	1	congruent	Block2	congruent/STIM_001.jpg
1757.745	0.529	1	congruent	Block2	congruent/STIM_001.jpg
1761.467	0.847	1	congruent	Block2	congruent/STIM_001.jpg
1765.005	0.745	1	congruent	Block2	congruent/STIM_001.jpg
1769.646	0.606	1	congruent	Block2	congruent/STIM_002.jpg
1773.73	0.715	1	congruent	Block2	congruent/STIM_002.jpg
1777.887	0.917	1	congruent	Block2	congruent/STIM_002.jpg
1782.605	0.618	1	congruent	Block2	congruent/STIM_002.jpg
1787.152	0.828	1	congruent	Block2	congruent/STIM_002.jpg
1790.05	0.568	0	congruent	Block2	congruent/STIM_003.jpg
1793.86	0.531	1	congruent	Block2	congruent/STIM_003.jpg
1798.159	0.827	1	congruent	Block2	congruent/STIM_003.jpg
1801.816	0.762	1	congruent	Block2	congruent/STIM_003.jpg
1804.609	0.583	1	congruent	Block2	congruent/STIM_003.jpg
1808.3	0.939	1	congruent	Block2	congruent/STIM_004.jpg
1813.096	0.625	1	congruent	Block2	congruent/STIM_004.jpg
1816.291	0.699	1	congruent	Block2	congruent/STIM_004.jpg
1819.786	0.915	0	congruent	Block2	congruent/STIM_004.jpg
1823.679	0.591	1	congruent	Block2	congruent/STIM_004.jpg
1827.445	0.926	0	congruent	Block2	congruent/STIM_005.jpg
1830.685	0.751	1	congruent	Block2	congruent/STIM_005.jpg
1833.472	0.598	1	congruent	Block2	congruent/STIM_005.jpg
1837.882	0.704	1	congruent	Block2	congruent/STIM_005.jpg
1842.375	0.609	1	congruent	Block2	congruent/STIM_005.jpg
1846.256	0.725	1	congruent	Block2	congruent/STIM_006.jpg
1849.001	0.737	1	congruent	Block2	congruent/STIM_006.jpg
1853.208	0.881	1	congruent	Block2	congruent/STIM_006.jpg
1856.83	0.752	1	congruent	Block2	congruent/STIM_006.jpg
1859.99	0.612	1	congruent	Block2	congruent/STIM_006.jpg
1863.052	0.836	1	congruent	Block2	congruent/STIM_007.jpg
1866.29	0.806	1	congruent	Block2	congruent/STIM_007.jpg
1869.32	0.655	1	congruent	Block2	congruent/STIM_007.jpg
1872.051	0.702	1	congruent	Block2	congruent/STIM_007.jpg
1876.453	0.711	1	congruent	Block2	congruent/STIM_007.jpg
1880.629	0.765	1	congruent	Block2	congruent/STIM_008.jpg
1884.413	0.539	1	congruent	Block2	congruent/STIM_008.jpg
1888.535	0.651	1	congruent	Block2	congruent/STIM_008.jpg
1891.906	0.592	1	congruent	Block2	congruent/STIM_008.jpg
1895.574	0.812	1	congruent	Block2	congruent/STIM_008.jpg
1898.51	0.749	1	congruent	Block2	congruent/STIM_009.jpg
1902.252	0.65	1	congruent	Block2	congruent/STIM_009.jpg
1905.356	0.837	1	congruent	Block2	congruent/STIM_009.jpg
1908.287	0.533	1	congruent	Block2	congruent/STIM_009.jpg
1911.643	0.752	1	congruent	Block2	congruent/STIM_009.jpg
1915.132	0.77	1	congruent	Block2	congruent/STIM_010.jpg
1919.016	0.576	1	congruent	Block2	congruent/STIM_010.jpg
1923.265	0.876	1	congruent	Block2	congruent/STIM_010.jpg
1927.322	0.812	1	congruent	Block2	congruent/STIM_010.jpg
1931.706	0.872	1	congruent	Block2	congruent/STIM_010.jpg
1935.113	0.803	1	congruent	Block2	congruent/STIM_011.jpg
1939.684	0.765	1	congruent	Block2	congruent/STIM_011.jpg
1942.589	0.567	1	congruent	Block2	congruent/STIM_011.jpg
1945.39	0.657	1	congruent	Block2	congruent/STIM_011.jpg
1949.76	0.759	0	congruent	Block2	congruent/STIM_011.jpg
1954.163	0.94	1	congruent	Block2	congruent/STIM_012.jpg
1958.466	0.785	1	congruent	Block2	congruent/STIM_012.jpg
1962.395	0.599	1	congruent	Block2	congruent/STIM_012.jpg
1966.405	0.759	1	congruent	Block2	congruent/STIM_012.jpg
1969.886	0.541	1	congruent	Block2	congruent/STIM_012.jpg
1973.018	0.838	0	congruent	Block2	congruent/STIM_013.jpg
1977.716	0.6	1	congruent	Block2	congruent/STIM_013.jpg
1981.441	0.599	1	congruent	Block2	congruent/STIM_013.jpg
1984.015	0.905	1	congruent	Block2	congruent/STIM_013.jpg
1987.982	0.856	1	congruent	Block2	congruent/STIM_013.jpg
1992.473	0.793	1	congruent	Block2	congruent/STIM_014.jpg
1996.548	0.525	1	congruent	Block2	congruent/STIM_014.jpg
2000.916	0.855	1	congruent	Block2	congruent/STIM_014.jpg
2004.288	0.92	1	congruent	Block2	congruent/STIM_014.jpg
2008.406	0.621	1	congruent	Block2	congruent/STIM_014.jpg
2012.179	0.897	1	congruent	Block2	congruent/STIM_015.jpg
2016.762	0.627	1	congruent	Block2	congruent/STIM_015.jpg
2020.968	0.873	1	congruent	Block2	congruent/STIM_015.jpg
2024.631	0.748	1	congruent	Block2	congruent/STIM_015.jpg
2028.813	0.54	1	congruent	Block2	congruent/STIM_015.jpg
2031.411	0.869	1	congruent	Block2	congruent/STIM_016.jpg
2035.627	0.552	1	congruent	Block2	congruent/STIM_016.jpg
2038.515	0.624	1	congruent	Block2	congruent/STIM_016.jpg
2041.777	0.881	1	congruent	Block2	congruent/STIM_016.jpg
2045.737	0.754	1	congruent	Block2	congruent/STIM_016.jpg
2049.21	0.56	1	congruent	Block2	congruent/STIM_017.jpg
2051.823	0.91	1	congruent	Block2	congruent/STIM_017.jpg
2056.571	0.639	1	congruent	Block2	congruent/STIM_017.jpg
2059.38	0.74	1	congruent	Block2	congruent/STIM_017.jpg
2062.513	0.823	1	congruent	Block2	congruent/STIM_017.jpg
2066.361	0.59	1	congruent	Block2	congruent/STIM_018.jpg
2068.969	0.78	1	congruent	Block2	congruent/STIM_018.jpg
2072.143	0.822	1	congruent	Block2	congruent/STIM_018.jpg
2076.896	0.565	1	congruent	Block2	congruent/STIM_018.jpg
2080.289	0.546	1	congruent	Block2	congruent/STIM_018.jpg
2083.005	0.574	1	congruent	Block2	congruent/STIM_019.jpg
2085.705	0.603	0	congruent	Block2	congruent/STIM_019.jpg
2089.281	0.875	1	congruent	Block2	congruent/STIM_019.jpg
2092.888	0.767	1	congruent	Block2	congruent/STIM_019.jpg
2096.516	0.734	1	congruent	Block2	congruent/STIM_019.jpg
2101.071	0.725	1	congruent	Block2	congruent/STIM_020.jpg
2105.448	0.685	1	congruent	Block2	congruent/STIM_020.jpg
2108.288	0.551	1	congruent	Block2	congruent/STIM_020.jpg
2111.237	0.934	1	congruent	Block2	congruent/STIM_020.jpg
2114.676	0.895	1	congruent	Block2	congruent/STIM_020.jpg
2117.949	0.706	1	congruent	Block2	congruent/STIM_021.jpg
2122.452	0.558	1	congruent	Block2	congruent/STIM_021.jpg
2126.14	0.718	1	congruent	Block2	congruent/STIM_021.jpg
2128.96	0.536	1	congruent	Block2	congruent/STIM_021.jpg
2132.877	0.555	1	congruent	Block2	congruent/STIM_021.jpg
2136.602	0.892	1	congruent	Block2	congruent/STIM_022.jpg
2139.728	0.589	1	congruent	Block2	congruent/STIM_022.jpg
2143.233	0.821	1	congruent	Block2	congruent/STIM_022.jpg
2146.801	0.87	1	congruent	Block2	congruent/STIM_022.jpg
2150.764	0.634	1	congruent	Block2	congruent/STIM_022.jpg
2153.47	0.599	1	congruent	Block2	congruent/STIM_023.jpg
2156.994	0.863	1	congruent	Block2	congruent/STIM_023.jpg
2161.289	0.897	1	congruent	Block2	congruent/STIM_023.jpg
2164.197	0.7	1	congruent	Block2	congruent/STIM_023.jpg
2167.604	0.78	1	congruent	Block2	congruent/STIM_023.jpg
2170.37	0.548	1	congruent	Block2	congruent/STIM_024.jpg
2174.809	0.56	1	congruent	Block2	congruent/STIM_024.jpg
2178.961	0.571	1	congruent	Block2	congruent/STIM_024.jpg
2181.738	0.585	1	congruent	Block2	congruent/STIM_024.jpg
2185.202	0.842	1	congruent	Block2	congruent/STIM_024.jpg
2188.18	0.615	1	congruent	Block2	congruent/STIM_025.jpg
2191.288	0.644	1	congruent	Block2	congruent/STIM_025.jpg
2194.821	0.72	1	congruent	Block2	congruent/STIM_025.jpg
2198.087	0.701	1	congruent	Block2	congruent/STIM_025.jpg
2200.756	0.616	1	congruent	Block2	congruent/STIM_025.jpg
2203.812	0.853	1	congruent	Block2	congruent/STIM_026.jpg
2208.276	0.648	1	congruent	Block2	congruent/STIM_026.jpg
2210.909	0.684	1	congruent	Block2	congruent/STIM_026.jpg
2214.576	0.76	1	congruent	Block2	congruent/STIM_026.jpg
2217.437	0.816	1	congruent	Block2	congruent/STIM_026.jpg
2220.854	0.649	1	congruent	Block2	congruent/STIM_027.jpg
2224.624	0.579	1	congruent	Block2	congruent/STIM_027.jpg
2228.537	0.812	1	congruent	Block2	congruent/STIM_027.jpg
2231.542	0.853	1	congruent	Block2	congruent/STIM_027.jpg
2234.891	0.603	1	congruent	Block2	congruent/STIM_027.jpg
2237.834	0.532	1	congruent	Block2	congruent/STIM_028.jpg
2240.955	0.532	1	congruent	Block2	congruent/STIM_028.jpg
2244.853	0.572	1	congruent	Block2	congruent/STIM_028.jpg
2249.108	0.564	1	congruent	Block2	congruent/STIM_028.jpg
2252.538	0.82	1	congruent	Block2	congruent/STIM_028.jpg
2255.563	0.918	1	congruent	Block2	congruent/STIM_029.jpg
2260.363	0.695	1	congruent	Block2	congruent/STIM_029.jpg
2263.241	0.594	1	congruent	Block2	congruent/STIM_029.jpg
2267.742	0.908	1	congruent	Block2	congruent/STIM_029.jpg
2271.789	0.9	1	congruent	Block2	congruent/STIM_029.jpg
2276.543	0.809	1	incongruent	Block3	incongruent/STIM_000.jpg
2281.146	0.963	1	incongruent	Block3	incongruent/STIM_000.jpg
2285.564	0.584	1	incongruent	Block3	incongruent/STIM_000.jpg
2288.915	0.612	1	incongruent	Block3	incongruent/STIM_000.jpg
2292.819	0.99	1	incongruent	Block3	incongruent/STIM_000.jpg
2296.338	0.676	1	incongruent	Block3	incongruent/STIM_001.jpg
2299.423	0.847	1	incongruent	Block3	incongruent/STIM_001.jpg
2302.579	0.697	1	incongruent	Block3	incongruent/STIM_001.jpg
2306.816	0.848	1	incongruent	Block3	incongruent/STIM_001.jpg
2310.532	0.827	1	incongruent	Block3	incongruent/STIM_001.jpg
2314.363	1.09	1	incongruent	Block3	incongruent/STIM_002.jpg
2318.054	0.773	1	incongruent	Block3	incongruent/STIM_002.jpg
2321.19	0.949	1	incongruent	Block3	incongruent/STIM_002.jpg
2325.986	0.828	1	incongruent	Block3	incongruent/STIM_002.jpg
2329.591	0.986	1	incongruent	Block3	incongruent/STIM_002.jpg
2334.313	0.79	1	incongruent	Block3	incongruent/STIM_003.jpg
2337.087	0.612	1	incongruent	Block3	incongruent/STIM_003.jpg
2341.312	0.912	1	incongruent	Block3	incongruent/STIM_003.jpg
2345.658	1.094	1	incongruent	Block3	incongruent/STIM_003.jpg
2348.738	0.576	1	incongruent	Block3	incongruent/STIM_003.jpg
2351.581	1.003	1	incongruent	Block3	incongruent/STIM_004.jpg
2356.016	0.859	1	incongruent	Block3	incongruent/STIM_004.jpg
2359.35	0.779	1	incongruent	Block3	incongruent/STIM_004.jpg
2363.575	0.591	1	incongruent	Block3	incongruent/STIM_004.jpg
2367.308	0.629	1	incongruent	Block3	incongruent/STIM_004.jpg
2371.039	0.677	1	incongruent	Block3	incongruent/STIM_005.jpg
2374.042	1.096	1	incongruent	Block3	incongruent/STIM_005.jpg
2378.54	0.915	1	incongruent	Block3	incongruent/STIM_005.jpg
2383.147	1.086	1	incongruent	Block3	incongruent/STIM_005.jpg
2387.251	0.717	1	incongruent	Block3	incongruent/STIM_005.jpg
2390.722	0.815	1	incongruent	Block3	incongruent/STIM_006.jpg
2393.689	1.099	1	incongruent	Block3	incongruent/STIM_006.jpg
2398.411	0.973	1	incongruent	Block3	incongruent/STIM_006.jpg
2402.076	0.961	1	incongruent	Block3	incongruent/STIM_006.jpg
2405.055	0.955	1	incongruent	Block3	incongruent/STIM_006.jpg
2408.45	0.96	1	incongruent	Block3	incongruent/STIM_007.jpg
2412.15	0.704	1	incongruent	Block3	incongruent/STIM_007.jpg
2415.575	0.969	1	incongruent	Block3	incongruent/STIM_007.jpg
2419.205	0.939	1	incongruent	Block3	incongruent/STIM_007.jpg
2422.18	1.042	1	incongruent	Block3	incongruent/STIM_007.jpg
2426.548	1.053	1	incongruent	Block3	incongruent/STIM_008.jpg
2431.19	0.538	1	incongruent	Block3	incongruent/STIM_008.jpg
2433.863	0.741	1	incongruent	Block3	incongruent/STIM_008.jpg
2437.37	1.072	1	incongruent	Block3	incongruent/STIM_008.jpg
2440.472	0.74	1	incongruent	Block3	incongruent/STIM_008.jpg
2443.519	0.82	0	incongruent	Block3	incongruent/STIM_009.jpg
2447.945	0.863	1	incongruent	Block3	incongruent/STIM_009.jpg
2452.323	0.607	1	incongruent	Block3	incongruent/STIM_009.jpg
2455.237	0.543	1	incongruent	Block3	incongruent/STIM_009.jpg
2458.221	1.084	1	incongruent	Block3	incongruent/STIM_009.jpg
2461.581	1.069	1	incongruent	Block3	incongruent/STIM_010.jpg
2466.225	0.593	1	incongruent	Block3	incongruent/STIM_010.jpg
2470.672	1.012	1	incongruent	Block3	incongruent/STIM_010.jpg
2473.91	1.012	1	incongruent	Block3	incongruent/STIM_010.jpg
2477.194	0.595	1	incongruent	Block3	incongruent/STIM_010.jpg
2480.163	0.67	1	incongruent	Block3	incongruent/STIM_011.jpg
2484.15	0.633	1	incongruent	Block3	incongruent/STIM_011.jpg
2487.709	0.628	1	incongruent	Block3	incongruent/STIM_011.jpg
2491.398	0.662	1	incongruent	Block3	incongruent/STIM_011.jpg
2495.333	1.037	1	incongruent	Block3	incongruent/STIM_011.jpg
2498.756	0.832	1	incongruent	Block3	incongruent/STIM_012.jpg
2501.764	0.576	1	incongruent	Block3	incongruent/STIM_012.jpg
2506.113	0.792	1	incongruent	Block3	incongruent/STIM_012.jpg
2510.268	0.549	1	incongruent	Block3	incongruent/STIM_012.jpg
2513.553	0.808	1	incongruent	Block3	incongruent/STIM_012.jpg
2518.294	0.586	1	incongruent	Block3	incongruent/STIM_013.jpg
2521.657	0.753	1	incongruent	Block3	incongruent/STIM_013.jpg
2524.507	0.935	1	incongruent	Block3	incongruent/STIM_013.jpg
2528.468	0.903	1	incongruent	Block3	incongruent/STIM_013.jpg
2532.822	0.695	1	incongruent	Block3	incongruent/STIM_013.jpg
2535.885	0.616	1	incongruent	Block3	incongruent/STIM_014.jpg
2539.24	0.748	1	incongruent	Block3	incongruent/STIM_014.jpg
2543.429	0.528	1	incongruent	Block3	incongruent/STIM_014.jpg
2547.324	0.754	1	incongruent	Block3	incongruent/STIM_014.jpg
2550.997	0.817	1	incongruent	Block3	incongruent/STIM_014.jpg
2555.747	0.881	1	incongruent	Block3	incongruent/STIM_015.jpg
2560.466	0.832	1	incongruent	Block3	incongruent/STIM_015.jpg
2565.111	0.765	1	incongruent	Block3	incongruent/STIM_015.jpg
2569.508	0.701	1	incongruent	Block3	incongruent/STIM_015.jpg
2572.321	1.007	1	incongruent	Block3	incongruent/STIM_015.jpg
2576.063	0.726	1	incongruent	Block3	incongruent/STIM_016.jpg
2579.369	0.927	1	incongruent	Block3	incongruent/STIM_016.jpg
2583.986	1.077	1	incongruent	Block3	incongruent/STIM_016.jpg
2588.298	1.029	1	incongruent	Block3	incongruent/STIM_016.jpg
2592.827	0.929	1	incongruent	Block3	incongruent/STIM_016.jpg
2596.926	0.707	1	incongruent	Block3	incongruent/STIM_017.jpg
2600.367	0.616	1	incongruent	Block3	incongruent/STIM_017.jpg
2603.397	0.82	1	incongruent	Block3	incongruent/STIM_017.jpg
2607.127	0.728	1	incongruent	Block3	incongruent/STIM_017.jpg
2610.616	1.05	1	incongruent	Block3	incongruent/STIM_017.jpg
2614.604	0.566	1	incongruent	Block3	incongruent/STIM_018.jpg
2618.008	0.816	1	incongruent	Block3	incongruent/STIM_018.jpg
2621.575	0.65	1	incongruent	Block3	incongruent/STIM_018.jpg
2625.24	0.956	1	incongruent	Block3	incongruent/STIM_018.jpg
2629.594	0.584	1	incongruent	Block3	incongruent/STIM_018.jpg
2632.509	0.624	1	incongruent	Block3	incongruent/STIM_019.jpg
2635.848	0.918	1	incongruent	Block3	incongruent/STIM_019.jpg
2640.16	0.54	1	incongruent	Block3	incongruent/STIM_019.jpg
2643.68	0.768	1	incongruent	Block3	incongruent/STIM_019.jpg
2647.898	0.788	1	incongruent	Block3	incongruent/STIM_019.jpg
2651.758	0.605	1	incongruent	Block3	incongruent/STIM_020.jpg
2656.282	0.653	1	incongruent	Block3	incongruent/STIM_020.jpg
2660.023	1.029	1	incongruent	Block3	incongruent/STIM_020.jpg
2664.928	0.796	1	incongruent	Block3	incongruent/STIM_020.jpg
2668.563	0.877	1	incongruent	Block3	incongruent/STIM_020.jpg
2672.479	0.564	1	incongruent	Block3	incongruent/STIM_021.jpg
2675.236	0.93	1	incongruent	Block3	incongruent/STIM_021.jpg
2678.373	0.656	1	incongruent	Block3	incongruent/STIM_021.jpg
2682.734	0.656	1	incongruent	Block3	incongruent/STIM_021.jpg
2687.259	0.698	1	incongruent	Block3	incongruent/STIM_021.jpg
2691.24	0.594	1	incongruent	Block3	incongruent/STIM_022.jpg
2694.696	0.518	1	incongruent	Block3	incongruent/STIM_022.jpg
2697.856	0.868	1	incongruent	Block3	incongruent/STIM_022.jpg
2702.404	0.98	1	incongruent	Block3	incongruent/STIM_022.jpg
2707.071	1.015	1	incongruent	Block3	incongruent/STIM_022.jpg
2711.356	1.018	1	incongruent	Block3	incongruent/STIM_023.jpg
2715.374	0.53	1	incongruent	Block3	incongruent/STIM_023.jpg
2718.746	0.515	1	incongruent	Block3	incongruent/STIM_023.jpg
2722.24	0.88	1	incongruent	Block3	incongruent/STIM_023.jpg
2725.137	0.916	1	incongruent	Block3	incongruent/STIM_023.jpg
2729.266	0.86	1	incongruent	Block3	incongruent/STIM_024.jpg
2732.155	1.079	1	incongruent	Block3	incongruent/STIM_024.jpg
2735.461	0.528	1	incongruent	Block3	incongruent/STIM_024.jpg
2739.905	1.07	1	incongruent	Block3	incongruent/STIM_024.jpg
2744.056	0.633	1	incongruent	Block3	incongruent/STIM_024.jpg
2747.805	1.044	1	incongruent	Block3	incongruent/STIM_025.jpg
2751.133	0.757	1	incongruent	Block3	incongruent/STIM_025.jpg
2755.054	0.67	1	incongruent	Block3	incongruent/STIM_025.jpg
2758.331	0.989	1	incongruent	Block3	incongruent/STIM_025.jpg
2762.206	1.065	1	incongruent	Block3	incongruent/STIM_025.jpg
2766.344	0.598	1	incongruent	Block3	incongruent/STIM_026.jpg
2770.058	1.066	1	incongruent	Block3	incongruent/STIM_026.jpg
2773.695	0.515	1	incongruent	Block3	incongruent/STIM_026.jpg
2777.569	0.796	1	incongruent	Block3	incongruent/STIM_026.jpg
2781.359	0.599	1	incongruent	Block3	incongruent/STIM_026.jpg
2784.052	0.841	1	incongruent	Block3	incongruent/STIM_027.jpg
2788.096	0.653	1	incongruent	Block3	incongruent/STIM_027.jpg
2791.316	0.542	1	incongruent	Block3	incongruent/STIM_027.jpg
2794.572	0.525	1	incongruent	Block3	incongruent/STIM_027.jpg
2797.782	0.854	1	incongruent	Block3	incongruent/STIM_027.jpg
2801.349	0.848	1	incongruent	Block3	incongruent/STIM_028.jpg
2804.379	0.933	1	incongruent	Block3	incongruent/STIM_028.jpg
2809.123	0.74	1	incongruent	Block3	incongruent/STIM_028.jpg
2813.635	0.754	1	incongruent	Block3	incongruent/STIM_028.jpg
2816.545	0.662	1	incongruent	Block3	incongruent/STIM_028.jpg
2820.378	0.919	1	incongruent	Block3	incongruent/STIM_029.jpg
2823.399	0.702	1	incongruent	Block3	incongruent/STIM_029.jpg
2827.068	0.833	0	incongruent	Block3	incongruent/STIM_029.jpg
2831.406	0.816	1	incongruent	Block3	incongruent/STIM_029.jpg
2834.669	0.555	1	incongruent	Block3	incongruent/STIM_029.jpg
2838.049	0.661	1	congruent	Block3	congruent/STIM_000.jpg
2840.892	0.89	1	congruent	Block3	congruent/STIM_000.jpg
2844.74	0.546	0	congruent	Block3	congruent/STIM_000.jpg
2848.899	0.774	1	congruent	Block3	congruent/STIM_000.jpg
2852.214	0.843	1	congruent	Block3	congruent/STIM_000.jpg
2855.669	0.905	1	congruent	Block3	congruent/STIM_001.jpg
2859.711	0.755	1	congruent	Block3	congruent/STIM_001.jpg
2864.375	0.68	1	congruent	Block3	congruent/STIM_001.jpg
2868.512	0.899	1	congruent	Block3	congruent/STIM_001.jpg
2872.274	0.877	1	congruent	Block3	congruent/STIM_001.jpg
2876.883	0.775	1	congruent	Block3	congruent/STIM_002.jpg
2880.594	0.847	1	congruent	Block3	congruent/STIM_002.jpg
2885.088	0.606	1	congruent	Block3	congruent/STIM_002.jpg
2888.729	0.71	1	congruent	Block3	congruent/STIM_002.jpg
2892.789	0.561	1	congruent	Block3	congruent/STIM_002.jpg
2896.662	0.741	1	congruent	Block3	congruent/STIM_003.jpg
2899.525	0.885	1	congruent	Block3	congruent/STIM_003.jpg
2904.36	0.621	1	congruent	Block3	congruent/STIM_003.jpg
2907.759	0.805	0	congruent	Block3	congruent/STIM_003.jpg
2911.611	0.823	0	congruent	Block3	congruent/STIM_003.jpg
2915.722	0.827	1	congruent	Block3	congruent/STIM_004.jpg
2920.439	0.534	1	congruent	Block3	congruent/STIM_004.jpg
2923.867	0.61	1	congruent	Block3	congruent/STIM_004.jpg
2928.013	0.634	1	congruent	Block3	congruent/STIM_004.jpg
2931.613	0.72	1	congruent	Block3	congruent/STIM_004.jpg
2934.812	0.59	1	congruent	Block3	congruent/STIM_005.jpg
2938.821	0.562	1	congruent	Block3	congruent/STIM_005.jpg
2942.302	0.896	1	congruent	Block3	congruent/STIM_005.jpg
2947.042	0.629	1	congruent	Block3	congruent/STIM_005.jpg
2949.992	0.842	1	congruent	Block3	congruent/STIM_005.jpg
2953.399	0.89	1	congruent	Block3	congruent/STIM_006.jpg
2957.03	0.596	1	congruent	Block3	congruent/STIM_006.jpg
2961.272	0.857	1	congruent	Block3	congruent/STIM_006.jpg
2965.168	0.868	1	congruent	Block3	congruent/STIM_006.jpg
2968.497	0.86	1	congruent	Block3	congruent/STIM_006.jpg
2971.363	0.843	1	congruent	Block3	congruent/STIM_007.jpg
2975.757	0.868	1	congruent	Block3	congruent/STIM_007.jpg
2980.2	0.725	1	congruent	Block3	congruent/STIM_007.jpg
2983.888	0.745	1	congruent	Block3	congruent/STIM_007.jpg
2988.244	0.803	1	congruent	Block3	congruent/STIM_007.jpg
2993.009	0.858	1	congruent	Block3	congruent/STIM_008.jpg
2996.824	0.758	1	congruent	Block3	congruent/STIM_008.jpg
3000.427	0.711	1	congruent	Block3	congruent/STIM_008.jpg
3004.424	0.738	1	congruent	Block3	congruent/STIM_008.jpg
3008.567	0.616	1	congruent	Block3	congruent/STIM_008.jpg
3012.692	0.828	1	congruent	Block3	congruent/STIM_009.jpg
3016.81	0.715	1	congruent	Block3	congruent/STIM_009.jpg
3021.298	0.827	1	congruent	Block3	congruent/STIM_009.jpg
3025.556	0.574	1	congruent	Block3	congruent/STIM_009.jpg
3028.711	0.79	1	congruent	Block3	congruent/STIM_009.jpg
3032.587	0.667	1	congruent	Block3	congruent/STIM_010.jpg
3035.391	0.901	1	congruent	Block3	congruent/STIM_010.jpg
3039.225	0.756	1	congruent	Block3	congruent/STIM_010.jpg
3043.708	0.65	1	congruent	Block3	congruent/STIM_010.jpg
3048.257	0.829	1	congruent	Block3	congruent/STIM_010.jpg
3051.52	0.674	1	congruent	Block3	congruent/STIM_011.jpg
3055.382	0.738	1	congruent	Block3	congruent/STIM_011.jpg
3059.335	0.866	1	congruent	Block3	congruent/STIM_011.jpg
3062.712	0.534	1	congruent	Block3	congruent/STIM_011.jpg
3067.013	0.62	1	congruent	Block3	congruent/STIM_011.jpg
3071.471	0.725	1	congruent	Block3	congruent/STIM_012.jpg
3074.561	0.718	1	congruent	Block3	congruent/STIM_012.jpg
3078.734	0.866	1	congruent	Block3	congruent/STIM_012.jpg
3083.224	0.904	1	congruent	Block3	congruent/STIM_012.jpg
3086.51	0.664	1	congruent	Block3	congruent/STIM_012.jpg
3090.066	0.846	1	congruent	Block3	congruent/STIM_013.jpg
3094.131	0.772	1	congruent	Block3	congruent/STIM_013.jpg
3097.44	0.563	1	congruent	Block3	congruent/STIM_013.jpg
3101.745	0.692	1	congruent	Block3	congruent/STIM_013.jpg
3105.39	0.536	1	congruent	Block3	congruent/STIM_013.jpg
3109.17	0.913	1	congruent	Block3	congruent/STIM_014.jpg
3113.026	0.659	1	congruent	Block3	congruent/STIM_014.jpg
3117.473	0.944	1	congruent	Block3	congruent/STIM_014.jpg
3120.862	0.845	1	congruent	Block3	congruent/STIM_014.jpg
3124.642	0.902	1	congruent	Block3	congruent/STIM_014.jpg
3129.177	0.856	1	congruent	Block3	congruent/STIM_015.jpg
3132.628	0.766	1	congruent	Block3	congruent/STIM_015.jpg
3135.438	0.881	1	congruent	Block3	congruent/STIM_015.jpg
3139.053	0.829	1	congruent	Block3	congruent/STIM_015.jpg
3142.483	0.697	1	congruent	Block3	congruent/STIM_015.jpg
3145.914	0.908	1	congruent	Block3	congruent/STIM_016.jpg
3150.415	0.922	1	congruent	Block3	congruent/STIM_016.jpg
3155.27	0.62	1	congruent	Block3	congruent/STIM_016.jpg
3158.988	0.549	1	congruent	Block3	congruent/STIM_016.jpg
3162.548	0.566	1	congruent	Block3	congruent/STIM_016.jpg
3165.606	0.672	0	congruent	Block3	congruent/STIM_017.jpg
3169.764	0.779	1	congruent	Block3	congruent/STIM_017.jpg
3173.601	0.596	1	congruent	Block3	congruent/STIM_017.jpg
3176.412	0.788	1	congruent	Block3	congruent/STIM_017.jpg
3180.542	0.895	1	congruent	Block3	congruent/STIM_017.jpg
3185.128	0.857	1	congruent	Block3	congruent/STIM_018.jpg
3189.459	0.572	1	congruent	Block3	congruent/STIM_018.jpg
3193.168	0.538	1	congruent	Block3	congruent/STIM_018.jpg
3196.495	0.772	1	congruent	Block3	congruent/STIM_018.jpg
3199.394	0.717	1	congruent	Block3	congruent/STIM_018.jpg
3203.647	0.792	1	congruent	Block3	congruent/STIM_019.jpg
3207.125	0.891	1	congruent	Block3	congruent/STIM_019.jpg
3211.123	0.606	1	congruent	Block3	congruent/STIM_019.jpg
3215.102	0.84	1	congruent	Block3	congruent/STIM_019.jpg
3219.768	0.874	1	congruent	Block3	congruent/STIM_019.jpg
3222.974	0.7	1	congruent	Block3	congruent/STIM_020.jpg
3227.252	0.56	1	congruent	Block3	congruent/STIM_020.jpg
3230.319	0.739	1	congruent	Block3	congruent/STIM_020.jpg
3234.136	0.874	1	congruent	Block3	congruent/STIM_020.jpg
3238.951	0.857	1	congruent	Block3	congruent/STIM_020.jpg
3243.123	0.682	1	congruent	Block3	congruent/STIM_021.jpg
3246.658	0.778	1	congruent	Block3	congruent/STIM_021.jpg
3250.945	0.694	1	congruent	Block3	congruent/STIM_021.jpg
3254.291	0.934	1	congruent	Block3	congruent/STIM_021.jpg
3257.302	0.62	1	congruent	Block3	congruent/STIM_021.jpg
3260.756	0.628	1	congruent	Block3	congruent/STIM_022.jpg
3263.491	0.736	1	congruent	Block3	congruent/STIM_022.jpg
3268.164	0.697	1	congruent	Block3	congruent/STIM_022.jpg
3271.115	0.656	1	congruent	Block3	congruent/STIM_022.jpg
3275.51	0.77	1	congruent	Block3	congruent/STIM_022.jpg
3279.704	0.706	1	congruent	Block3	congruent/STIM_023.jpg
3283.345	0.687	1	congruent	Block3	congruent/STIM_023.jpg
3286.512	0.924	1	congruent	Block3	congruent/STIM_023.jpg
3289.854	0.829	1	congruent	Block3	congruent/STIM_023.jpg
3293.868	0.907	1	congruent	Block3	congruent/STIM_023.jpg
3298.534	0.616	1	congruent	Block3	congruent/STIM_024.jpg
3302.704	0.685	1	congruent	Block3	congruent/STIM_024.jpg
3305.678	0.905	1	congruent	Block3	congruent/STIM_024.jpg
3308.824	0.865	1	congruent	Block3	congruent/STIM_024.jpg
3312.768	0.703	1	congruent	Block3	congruent/STIM_024.jpg
3316.682	0.674	1	congruent	Block3	congruent/STIM_025.jpg
3320.907	0.919	1	congruent	Block3	congruent/STIM_025.jpg
3325.439	0.555	1	congruent	Block3	congruent/STIM_025.jpg
3328.67	0.566	1	congruent	Block3	congruent/STIM_025.jpg
3332.952	0.829	1	congruent	Block3	congruent/STIM_025.jpg
3336.71	0.88	1	congruent	Block3	congruent/STIM_026.jpg
3339.601	0.944	1	congruent	Block3	congruent/STIM_026.jpg
3342.831	0.91	1	congruent	Block3	congruent/STIM_026.jpg
3345.96	0.602	1	congruent	Block3	congruent/STIM_026.jpg
3349.968	0.68	1	congruent	Block3	congruent/STIM_026.jpg
3353.858	0.628	1	congruent	Block3	congruent/STIM_027.jpg
3358.192	0.862	1	congruent	Block3	congruent/STIM_027.jpg
3362.689	0.661	1	congruent	Block3	congruent/STIM_027.jpg
3365.605	0.841	1	congruent	Block3	congruent/STIM_027.jpg
3369.784	0.807	1	congruent	Block3	congruent/STIM_027.jpg
3373.099	0.685	1	congruent	Block3	congruent/STIM_028.jpg
3376.712	0.656	1	congruent	Block3	congruent/STIM_028.jpg
3381.215	0.722	1	congruent	Block3	congruent/STIM_028.jpg
3385.682	0.886	1	congruent	Block3	congruent/STIM_028.jpg
3390.228	0.571	1	congruent	Block3	congruent/STIM_028.jpg
3394.06	0.736	1	congruent	Block3	congruent/STIM_029.jpg
3398.548	0.583	1	congruent	Block3	congruent/STIM_029.jpg
3401.411	0.871	1	congruent	Block3	congruent/STIM_029.jpg
3406.09	0.58	1	congruent	Block3	congruent/STIM_029.jpg
3409.363	0.682	1	congruent	Block3	congruent/STIM_029.jpg
