onset	duration	accuracy_binary	trial_type	learning_stage	stimulus
0.0	0.909	1	incongruent	Block1	incongruent/STIM_000.jpg
3.439	1.061	0	incongruent	Block1	incongruent/STIM_000.jpg
6.836	0.633	1	incongruent	Block1	incongruent/STIM_000.jpg
9.942	0.82	1	incongruent	Block1	incongruent/STIM_000.jpg
13.274	0.784	1	incongruent	Block1	incongruent/STIM_000.jpg
18.006	0.975	1	incongruent	Block1	incongruent/STIM_001.jpg
21.441	0.81	1	incongruent	Block1	incongruent/STIM_001.jpg
25.689	0.56	1	incongruent	Block1	incongruent/STIM_001.jpg
29.298	0.654	1	incongruent	Block1	incongruent/STIM_001.jpg
33.87	0.626	1	incongruent	Block1	incongruent/STIM_001.jpg
38.452	1.066	1	incongruent	Block1	incongruent/STIM_002.jpg
43.171	1.077	1	incongruent	Block1	incongruent/STIM_002.jpg
48.234	0.953	1	incongruent	Block1	incongruent/STIM_002.jpg
52.404	0.525	1	incongruent	Block1	incongruent/STIM_002.jpg
56.013	0.734	1	incongruent	Block1	incongruent/STIM_002.jpg
59.791	0.659	1	incongruent	Block1	incongruent/STIM_003.jpg
62.69	1.038	1	incongruent	Block1	incongruent/STIM_003.jpg
66.42	0.892	1	incongruent	Block1	incongruent/STIM_003.jpg
70.619	0.619	1	incongruent	Block1	incongruent/STIM_003.jpg
73.64	0.731	0	incongruent	Block1	incongruent/STIM_003.jpg
77.905	0.795	1	incongruent	Block1	incongruent/STIM_004.jpg
81.638	0.514	1	incongruent	Block1	incongruent/STIM_004.jpg
84.608	0.487	1	incongruent	Block1	incongruent/STIM_004.jpg
88.751	0.481	1	incongruent	Block1	incongruent/STIM_004.jpg
91.327	0.546	1	incongruent	Block1	incongruent/STIM_004.jpg
94.685	0.884	1	incongruent	Block1	incongruent/STIM_005.jpg
99.383	0.6	1	incongruent	Block1	incongruent/STIM_005.jpg
102.345	0.712	1	incongruent	Block1	incongruent/STIM_005.jpg
106.155	0.757	1	incongruent	Block1	incongruent/STIM_005.jpg
108.943	0.631	1	incongruent	Block1	incongruent/STIM_005.jpg
112.395	0.831	1	incongruent	Block1	incongruent/STIM_006.jpg
115.348	0.625	1	incongruent	Block1	incongruent/STIM_006.jpg
118.575	0.948	1	incongruent	Block1	incongruent/STIM_006.jpg
123.306	0.757	1	incongruent	Block1	incongruent/STIM_006.jpg
127.054	0.633	1	incongruent	Block1	incongruent/STIM_006.jpg
129.716	0.707	1	incongruent	Block1	incongruent/STIM_007.jpg
132.968	0.916	1	incongruent	Block1	incongruent/STIM_007.jpg
137.807	0.825	1	incongruent	Block1	incongruent/STIM_007.jpg
142.02	0.933	1	incongruent	Block1	incongruent/STIM_007.jpg
145.317	0.481	1	incongruent	Block1	incongruent/STIM_007.jpg
149.472	0.783	1	incongruent	Block1	incongruent/STIM_008.jpg
152.654	1.055	1	incongruent	Block1	incongruent/STIM_008.jpg
157.453	0.922	1	incongruent	Block1	incongruent/STIM_008.jpg
161.862	0.56	1	incongruent	Block1	incongruent/STIM_008.jpg
165.665	0.825	1	incongruent	Block1	incongruent/STIM_008.jpg
169.252	0.998	1	incongruent	Block1	incongruent/STIM_009.jpg
173.345	0.954	1	incongruent	Block1	incongruent/STIM_009.jpg
178.041	0.938	1	incongruent	Block1	incongruent/STIM_009.jpg
181.321	0.627	1	incongruent	Block1	incongruent/STIM_009.jpg
184.425	0.686	1	incongruent	Block1	incongruent/STIM_009.jpg
187.866	0.791	1	incongruent	Block1	incongruent/STIM_010.jpg
192.139	1.05	1	incongruent	Block1	incongruent/STIM_010.jpg
196.796	0.718	1	incongruent	Block1	incongruent/STIM_010.jpg
200.108	0.575	1	incongruent	Block1	incongruent/STIM_010.jpg
202.829	0.734	1	incongruent	Block1	incongruent/STIM_010.jpg
206.821	0.718	1	incongruent	Block1	incongruent/STIM_011.jpg
209.989	0.754	1	incongruent	Block1	incongruent/STIM_011.jpg
214.72	0.894	1	incongruent	Block1	incongruent/STIM_011.jpg
219.494	0.469	1	incongruent	Block1	incongruent/STIM_011.jpg
222.691	0.876	1	incongruent	Block1	incongruent/STIM_011.jpg
226.122	1.097	1	incongruent	Block1	incongruent/STIM_012.jpg
230.959	0.727	1	incongruent	Block1	incongruent/STIM_012.jpg
234.383	0.809	1	incongruent	Block1	incongruent/STIM_012.jpg
237.51	0.872	1	incongruent	Block1	incongruent/STIM_012.jpg
241.274	0.626	1	incongruent	Block1	incongruent/STIM_012.jpg
245.565	1.064	1	incongruent	Block1	incongruent/STIM_013.jpg
250.197	1.001	1	incongruent	Block1	incongruent/STIM_013.jpg
253.918	0.741	1	incongruent	Block1	incongruent/STIM_013.jpg
257.758	0.637	1	incongruent	Block1	incongruent/STIM_013.jpg
262.064	0.83	1	incongruent	Block1	incongruent/STIM_013.jpg
266.182	1.07	1	incongruent	Block1	incongruent/STIM_014.jpg
270.65	0.692	1	incongruent	Block1	incongruent/STIM_014.jpg
274.201	0.567	1	incongruent	Block1	incongruent/STIM_014.jpg
277.955	0.687	1	incongruent	Block1	incongruent/STIM_014.jpg
280.987	0.863	1	incongruent	Block1	incongruent/STIM_014.jpg
285.481	0.906	0	incongruent	Block1	incongruent/STIM_015.jpg
288.407	0.577	1	incongruent	Block1	incongruent/STIM_015.jpg
292.285	0.953	1	incongruent	Block1	incongruent/STIM_015.jpg
296.31	0.687	1	incongruent	Block1	incongruent/STIM_015.jpg
299.406	0.428	1	incongruent	Block1	incongruent/STIM_015.jpg
303.221	0.755	1	incongruent	Block1	incongruent/STIM_016.jpg
306.248	0.758	1	incongruent	Block1	incongruent/STIM_016.jpg
309.651	0.765	1	incongruent	Block1	incongruent/STIM_016.jpg
313.703	0.863	1	incongruent	Block1	incongruent/STIM_016.jpg
316.652	0.806	1	incongruent	Block1	incongruent/STIM_016.jpg
320.677	0.546	1	incongruent	Block1	incongruent/STIM_017.jpg
324.544	0.644	1	incongruent	Block1	incongruent/STIM_017.jpg
327.263	0.754	1	incongruent	Block1	incongruent/STIM_017.jpg
331.185	0.683	1	incongruent	Block1	incongruent/STIM_017.jpg
334.133	0.847	1	incongruent	Block1	incongruent/STIM_017.jpg
338.319	0.941	1	incongruent	Block1	incongruent/STIM_018.jpg
342.831	0.539	1	incongruent	Block1	incongruent/STIM_018.jpg
347.347	0.893	1	incongruent	Block1	incongruent/STIM_018.jpg
351.404	0.528	1	incongruent	Block1	incongruent/STIM_018.jpg
354.398	0.675	1	incongruent	Block1	incongruent/STIM_018.jpg
357.347	1.137	1	incongruent	Block1	incongruent/STIM_019.jpg
360.997	0.625	1	incongruent	Block1	incongruent/STIM_019.jpg
365.445	0.704	0	incongruent	Block1	incongruent/STIM_019.jpg
370.004	0.876	1	incongruent	Block1	incongruent/STIM_019.jpg
374.745	0.818	1	incongruent	Block1	incongruent/STIM_019.jpg
378.605	1.041	1	incongruent	Block1	incongruent/STIM_020.jpg
383.591	0.887	1	incongruent	Block1	incongruent/STIM_020.jpg
387.679	1.022	1	incongruent	Block1	incongruent/STIM_020.jpg
390.771	0.476	1	incongruent	Block1	incongruent/STIM_020.jpg
393.747	0.47	1	incongruent	Block1	incongruent/STIM_020.jpg
398.192	0.75	1	incongruent	Block1	incongruent/STIM_021.jpg
401.424	1.06	1	incongruent	Block1	incongruent/STIM_021.jpg
405.666	0.583	1	incongruent	Block1	incongruent/STIM_021.jpg
409.706	0.884	1	incongruent	Block1	incongruent/STIM_021.jpg
413.028	0.813	1	incongruent	Block1	incongruent/STIM_021.jpg
416.249	0.831	1	incongruent	Block1	incongruent/STIM_022.jpg
420.669	0.83	1	incongruent	Block1	incongruent/STIM_022.jpg
425.251	0.684	1	incongruent	Block1	incongruent/STIM_022.jpg
428.111	0.802	1	incongruent	Block1	incongruent/STIM_022.jpg
431.485	0.494	1	incongruent	Block1	incongruent/STIM_022.jpg
434.549	1.117	1	incongruent	Block1	incongruent/STIM_023.jpg
437.984	0.555	1	incongruent	Block1	incongruent/STIM_023.jpg
441.584	0.724	1	incongruent	Block1	incongruent/STIM_023.jpg
444.922	0.512	1	incongruent	Block1	incongruent/STIM_023.jpg
448.923	0.825	1	incongruent	Block1	incongruent/STIM_023.jpg
451.992	1.056	1	incongruent	Block1	incongruent/STIM_024.jpg
456.953	0.533	1	incongruent	Block1	incongruent/STIM_024.jpg
460.695	0.644	1	incongruent	Block1	incongruent/STIM_024.jpg
464.091	0.492	1	incongruent	Block1	incongruent/STIM_024.jpg
467.621	0.782	1	incongruent	Block1	incongruent/STIM_024.jpg
471.505	1.071	1	incongruent	Block1	incongruent/STIM_025.jpg
475.792	0.63	1	incongruent	Block1	incongruent/STIM_025.jpg
479.141	0.866	1	incongruent	Block1	incongruent/STIM_025.jpg
483.78	0.897	1	incongruent	Block1	incongruent/STIM_025.jpg
486.86	0.851	1	incongruent	Block1	incongruent/STIM_025.jpg
490.988	0.575	1	incongruent	Block1	incongruent/STIM_026.jpg
495.495	0.638	1	incongruent	Block1	incongruent/STIM_026.jpg
498.467	0.863	1	incongruent	Block1	incongruent/STIM_026.jpg
502.659	0.643	1	incongruent	Block1	incongruent/STIM_026.jpg
506.3	0.879	1	incongruent	Block1	incongruent/STIM_026.jpg
510.917	0.615	1	incongruent	Block1	incongruent/STIM_027.jpg
515.37	0.887	1	incongruent	Block1	incongruent/STIM_027.jpg
518.377	0.656	1	incongruent	Block1	incongruent/STIM_027.jpg
522.766	0.816	1	incongruent	Block1	incongruent/STIM_027.jpg
527.508	0.588	1	incongruent	Block1	incongruent/STIM_027.jpg
531.405	0.872	1	incongruent	Block1	incongruent/STIM_028.jpg
535.24	1.038	1	incongruent	Block1	incongruent/STIM_028.jpg
539.136	0.561	1	incongruent	Block1	incongruent/STIM_028.jpg
542.344	0.737	1	incongruent	Block1	incongruent/STIM_028.jpg
546.852	0.626	1	incongruent	Block1	incongruent/STIM_028.jpg
551.423	1.019	1	incongruent	Block1	incongruent/STIM_029.jpg
555.896	0.535	1	incongruent	Block1	incongruent/STIM_029.jpg
559.83	0.558	1	incongruent	Block1	incongruent/STIM_029.jpg
563.815	0.803	1	incongruent	Block1	incongruent/STIM_029.jpg
568.177	0.444	1	incongruent	Block1	incongruent/STIM_029.jpg
570.91	0.575	1	congruent	Block1	congruent/STIM_000.jpg
573.578	0.638	1	congruent	Block1	congruent/STIM_000.jpg
578.184	0.563	1	congruent	Block1	congruent/STIM_000.jpg
581.356	0.557	1	congruent	Block1	congruent/STIM_000.jpg
585.717	0.645	1	congruent	Block1	congruent/STIM_000.jpg
590.338	0.403	1	congruent	Block1	congruent/STIM_001.jpg
594.516	0.566	1	congruent	Block1	congruent/STIM_001.jpg
598.067	0.445	1	congruent	Block1	congruent/STIM_001.jpg
601.53	0.645	1	congruent	Block1	congruent/STIM_001.jpg
605.758	0.508	1	congruent	Block1	congruent/STIM_001.jpg
609.417	0.471	1	congruent	Block1	congruent/STIM_002.jpg
612.217	0.464	1	congruent	Block1	congruent/STIM_002.jpg
615.046	0.591	1	congruent	Block1	congruent/STIM_002.jpg
618.153	0.661	1	congruent	Block1	congruent/STIM_002.jpg
622.188	0.461	1	congruent	Block1	congruent/STIM_002.jpg
625.675	0.454	1	congruent	Block1	congruent/STIM_003.jpg
629.153	0.546	1	congruent	Block1	congruent/STIM_003.jpg
632.751	0.59	1	congruent	Block1	congruent/STIM_003.jpg
635.963	0.386	1	congruent	Block1	congruent/STIM_003.jpg
638.775	0.474	1	congruent	Block1	congruent/STIM_003.jpg
641.668	0.414	1	congruent	Block1	congruent/STIM_004.jpg
645.485	0.541	1	congruent	Block1	congruent/STIM_004.jpg
649.118	0.486	1	congruent	Block1	congruent/STIM_004.jpg
652.367	0.615	1	congruent	Block1	congruent/STIM_004.jpg
656.409	0.386	1	congruent	Block1	congruent/STIM_004.jpg
659.723	0.672	1	congruent	Block1	congruent/STIM_005.jpg
662.459	0.642	1	congruent	Block1	congruent/STIM_005.jpg
665.327	0.623	1	congruent	Block1	congruent/STIM_005.jpg
668.545	0.599	1	congruent	Block1	congruent/STIM_005.jpg
671.995	0.532	1	congruent	Block1	congruent/STIM_005.jpg
674.967	0.456	1	congruent	Block1	congruent/STIM_006.jpg
677.879	0.682	1	congruent	Block1	congruent/STIM_006.jpg
681.557	0.646	1	congruent	Block1	congruent/STIM_006.jpg
685.217	0.541	1	congruent	Block1	congruent/STIM_006.jpg
689.392	0.49	1	congruent	Block1	congruent/STIM_006.jpg
693.816	0.438	1	congruent	Block1	congruent/STIM_007.jpg
697.714	0.542	1	congruent	Block1	congruent/STIM_007.jpg
701.776	0.398	1	congruent	Block1	congruent/STIM_007.jpg
704.917	0.506	1	congruent	Block1	congruent/STIM_007.jpg
708.071	0.539	1	congruent	Block1	congruent/STIM_007.jpg
711.633	0.49	1	congruent	Block1	congruent/STIM_008.jpg
715.334	0.535	1	congruent	Block1	congruent/STIM_008.jpg
719.026	0.577	1	congruent	Block1	congruent/STIM_008.jpg
722.882	0.395	1	congruent	Block1	congruent/STIM_008.jpg
726.465	0.46	1	congruent	Block1	congruent/STIM_008.jpg
729.719	0.526	1	congruent	Block1	congruent/STIM_009.jpg
734.205	0.469	1	congruent	Block1	congruent/STIM_009.jpg
737.851	0.456	1	congruent	Block1	congruent/STIM_009.jpg
742.029	0.669	1	congruent	Block1	congruent/STIM_009.jpg
744.776	0.414	1	congruent	Block1	congruent/STIM_009.jpg
747.597	0.509	1	congruent	Block1	congruent/STIM_010.jpg
751.147	0.592	1	congruent	Block1	congruent/STIM_010.jpg
755.296	0.552	1	congruent	Block1	congruent/STIM_010.jpg
758.488	0.652	1	congruent	Block1	congruent/STIM_010.jpg
761.632	0.578	1	congruent	Block1	congruent/STIM_010.jpg
765.607	0.5	1	congruent	Block1	congruent/STIM_011.jpg
769.47	0.532	1	congruent	Block1	congruent/STIM_011.jpg
772.173	0.657	1	congruent	Block1	congruent/STIM_011.jpg
775.348	0.529	1	congruent	Block1	congruent/STIM_011.jpg
778.978	0.434	1	congruent	Block1	congruent/STIM_011.jpg
782.515	0.393	1	congruent	Block1	congruent/STIM_012.jpg
785.271	0.598	1	congruent	Block1	congruent/STIM_012.jpg
789.674	0.652	1	congruent	Block1	congruent/STIM_012.jpg
792.639	0.575	1	congruent	Block1	congruent/STIM_012.jpg
797.05	0.675	1	congruent	Block1	congruent/STIM_012.jpg
800.431	0.57	1	congruent	Block1	congruent/STIM_013.jpg
803.044	0.567	1	congruent	Block1	congruent/STIM_013.jpg
805.611	0.543	1	congruent	Block1	congruent/STIM_013.jpg
809.836	0.526	1	congruent	Block1	congruent/STIM_013.jpg
813.632	0.519	1	congruent	Block1	congruent/STIM_013.jpg
817.767	0.588	1	congruent	Block1	congruent/STIM_014.jpg
822.097	0.527	1	congruent	Block1	congruent/STIM_014.jpg
825.955	0.458	1	congruent	Block1	congruent/STIM_014.jpg
829.465	0.468	1	congruent	Block1	congruent/STIM_014.jpg
832.861	0.398	1	congruent	Block1	congruent/STIM_014.jpg
835.83	0.599	1	congruent	Block1	congruent/STIM_015.jpg
838.588	0.388	1	congruent	Block1	congruent/STIM_015.jpg
841.931	0.434	1	congruent	Block1	congruent/STIM_015.jpg
845.326	0.412	1	congruent	Block1	congruent/STIM_015.jpg
849.283	0.59	1	congruent	Block1	congruent/STIM_015.jpg
852.736	0.542	1	congruent	Block1	congruent/STIM_016.jpg
857.193	0.682	1	congruent	Block1	congruent/STIM_016.jpg
860.922	0.432	1	congruent	Block1	congruent/STIM_016.jpg
864.803	0.429	1	congruent	Block1	congruent/STIM_016.jpg
868.095	0.47	1	congruent	Block1	congruent/STIM_016.jpg
872.047	0.422	1	congruent	Block1	congruent/STIM_017.jpg
874.835	0.548	1	congruent	Block1	congruent/STIM_017.jpg
878.517	0.62	1	congruent	Block1	congruent/STIM_017.jpg
882.307	0.608	1	congruent	Block1	congruent/STIM_017.jpg
885.896	0.586	1	congruent	Block1	congruent/STIM_017.jpg
890.368	0.591	1	congruent	Block1	congruent/STIM_018.jpg
894.396	0.653	1	congruent	Block1	congruent/STIM_018.jpg
898.969	0.423	1	congruent	Block1	congruent/STIM_018.jpg
902.891	0.393	1	congruent	Block1	congruent/STIM_018.jpg
906.017	0.559	1	congruent	Block1	congruent/STIM_018.jpg
908.791	0.435	1	congruent	Block1	congruent/STIM_019.jpg
912.965	0.465	1	congruent	Block1	congruent/STIM_019.jpg
915.977	0.406	1	congruent	Block1	congruent/STIM_019.jpg
919.696	0.477	1	congruent	Block1	congruent/STIM_019.jpg
923.247	0.596	1	congruent	Block1	congruent/STIM_019.jpg
927.202	0.397	1	congruent	Block1	congruent/STIM_020.jpg
930.618	0.657	1	congruent	Block1	congruent/STIM_020.jpg
934.741	0.557	1	congruent	Block1	congruent/STIM_020.jpg
937.442	0.404	1	congruent	Block1	congruent/STIM_020.jpg
940.054	0.608	1	congruent	Block1	congruent/STIM_020.jpg
943.897	0.672	1	congruent	Block1	congruent/STIM_021.jpg
948.299	0.429	1	congruent	Block1	congruent/STIM_021.jpg
951.108	0.562	1	congruent	Block1	congruent/STIM_021.jpg
954.471	0.553	1	congruent	Block1	congruent/STIM_021.jpg
958.464	0.549	1	congruent	Block1	congruent/STIM_021.jpg
962.838	0.454	1	congruent	Block1	congruent/STIM_022.jpg
965.858	0.664	1	congruent	Block1	congruent/STIM_022.jpg
969.979	0.499	1	congruent	Block1	congruent/STIM_022.jpg
972.635	0.496	0	congruent	Block1	congruent/STIM_022.jpg
975.693	0.434	1	congruent	Block1	congruent/STIM_022.jpg
978.691	0.549	1	congruent	Block1	congruent/STIM_023.jpg
982.171	0.677	1	congruent	Block1	congruent/STIM_023.jpg
986.027	0.631	1	congruent	Block1	congruent/STIM_023.jpg
989.992	0.528	1	congruent	Block1	congruent/STIM_023.jpg
992.555	0.671	1	congruent	Block1	congruent/STIM_023.jpg
995.765	0.569	1	congruent	Block1	congruent/STIM_024.jpg
999.146	0.626	1	congruent	Block1	congruent/STIM_024.jpg
1002.951	0.537	1	congruent	Block1	congruent/STIM_024.jpg
1005.856	0.566	1	congruent	Block1	congruent/STIM_024.jpg
1009.648	0.648	1	congruent	Block1	congruent/STIM_024.jpg
1014.189	0.412	1	congruent	Block1	congruent/STIM_025.jpg
1017.76	0.58	1	congruent	Block1	congruent/STIM_025.jpg
1021.958	0.515	1	congruent	Block1	congruent/STIM_025.jpg
1024.895	0.446	1	congruent	Block1	congruent/STIM_025.jpg
1028.902	0.675	1	congruent	Block1	congruent/STIM_025.jpg
1032.108	0.484	1	congruent	Block1	congruent/STIM_026.jpg
1036.177	0.548	1	congruent	Block1	congruent/STIM_026.jpg
1038.885	0.564	1	congruent	Block1	congruent/STIM_026.jpg
1041.884	0.567	1	congruent	Block1	congruent/STIM_026.jpg
1046.419	0.512	1	congruent	Block1	congruent/STIM_026.jpg
1050.898	0.657	1	congruent	Block1	congruent/STIM_027.jpg
1053.928	0.548	1	congruent	Block1	congruent/STIM_027.jpg
1056.691	0.418	1	congruent	Block1	congruent/STIM_027.jpg
1059.286	0.42	1	congruent	Block1	congruent/STIM_027.jpg
1063.192	0.572	1	congruent	Block1	congruent/STIM_027.jpg
1067.491	0.46	1	congruent	Block1	congruent/STIM_028.jpg
1071.405	0.573	1	congruent	Block1	congruent/STIM_028.jpg
1075.611	0.58	1	congruent	Block1	congruent/STIM_028.jpg
1079.018	0.683	1	congruent	Block1	congruent/STIM_028.jpg
1083.218	0.539	1	congruent	Block1	congruent/STIM_028.jpg
1087.332	0.516	1	congruent	Block1	congruent/STIM_029.jpg
1091.059	0.521	1	congruent	Block1	congruent/STIM_029.jpg
1094.36	0.45	1	congruent	Block1	congruent/STIM_029.jpg
1096.877	0.439	1	congruent	Block1	congruent/STIM_029.jpg
1100.11	0.56	1	congruent	Block1	congruent/STIM_029.jpg
1103.347	0.454	1	incongruent	Block2	incongruent/STIM_000.jpg
1106.22	0.823	1	incongruent	Block2	incongruent/STIM_000.jpg
1109.874	0.804	1	incongruent	Block2	incongruent/STIM_000.jpg
1114.075	0.432	1	incongruent	Block2	incongruent/STIM_000.jpg
1118.392	0.61	1	incongruent	Block2	incongruent/STIM_000.jpg
1122.445	0.883	1	incongruent	Block2	incongruent/STIM_001.jpg
1125.405	0.736	1	incongruent	Block2	incongruent/STIM_001.jpg
1128.491	0.805	1	incongruent	Block2	incongruent/STIM_001.jpg
1132.479	0.748	1	incongruent	Block2	incongruent/STIM_001.jpg
1135.883	0.727	1	incongruent	Block2	incongruent/STIM_001.jpg
1140.424	0.574	1	incongruent	Block2	incongruent/STIM_002.jpg
1143.238	0.586	1	incongruent	Block2	incongruent/STIM_002.jpg
1147.015	0.57	1	incongruent	Block2	incongruent/STIM_002.jpg
1150.276	0.426	1	incongruent	Block2	incongruent/STIM_002.jpg
1154.613	0.642	1	incongruent	Block2	incongruent/STIM_002.jpg
1159.032	0.803	1	incongruent	Block2	incongruent/STIM_003.jpg
1163.172	0.67	1	incongruent	Block2	incongruent/STIM_003.jpg
1166.274	0.638	1	incongruent	Block2	incongruent/STIM_003.jpg
1170.426	0.461	1	incongruent	Block2	incongruent/STIM_003.jpg
1174.159	0.568	1	incongruent	Block2	incongruent/STIM_003.jpg
1178.499	0.641	1	incongruent	Block2	incongruent/STIM_004.jpg
1182.18	0.471	0	incongruent	Block2	incongruent/STIM_004.jpg
1186.497	0.609	1	incongruent	Block2	incongruent/STIM_004.jpg
1189.232	0.628	1	incongruent	Block2	incongruent/STIM_004.jpg
1193.811	0.554	1	incongruent	Block2	incongruent/STIM_004.jpg
1196.863	0.784	1	incongruent	Block2	incongruent/STIM_005.jpg
1200.548	0.804	1	incongruent	Block2	incongruent/STIM_005.jpg
1203.921	0.609	1	incongruent	Block2	incongruent/STIM_005.jpg
1208.32	0.673	1	incongruent	Block2	incongruent/STIM_005.jpg
1212.101	0.561	1	incongruent	Block2	incongruent/STIM_005.jpg
1216.126	0.538	1	incongruent	Block2	incongruent/STIM_006.jpg
1220.478	0.728	1	incongruent	Block2	incongruent/STIM_006.jpg
1224.302	0.763	1	incongruent	Block2	incongruent/STIM_006.jpg
1228.084	0.712	1	incongruent	Block2	incongruent/STIM_006.jpg
1231.339	0.376	1	incongruent	Block2	incongruent/STIM_006.jpg
1235.564	0.605	0	incongruent	Block2	incongruent/STIM_007.jpg
1239.836	0.622	1	incongruent	Block2	incongruent/STIM_007.jpg
1243.52	0.535	1	incongruent	Block2	incongruent/STIM_007.jpg
1246.405	0.695	1	incongruent	Block2	incongruent/STIM_007.jpg
1250.749	0.436	1	incongruent	Block2	incongruent/STIM_007.jpg
1255.18	0.961	1	incongruent	Block2	incongruent/STIM_008.jpg
1259.734	0.883	1	incongruent	Block2	incongruent/STIM_008.jpg
1263.792	0.729	1	incongruent	Block2	incongruent/STIM_008.jpg
1268.187	0.523	1	incongruent	Block2	incongruent/STIM_008.jpg
1271.035	0.463	1	incongruent	Block2	incongruent/STIM_008.jpg
1274.132	0.792	1	incongruent	Block2	incongruent/STIM_009.jpg
1278.179	0.62	1	incongruent	Block2	incongruent/STIM_009.jpg
1281.643	0.723	1	incongruent	Block2	incongruent/STIM_009.jpg
1285.513	0.566	1	incongruent	Block2	incongruent/STIM_009.jpg
1289.396	0.478	1	incongruent	Block2	incongruent/STIM_009.jpg
1293.389	0.775	1	incongruent	Block2	incongruent/STIM_010.jpg
1297.613	0.765	1	incongruent	Block2	incongruent/STIM_010.jpg
1300.729	0.584	1	incongruent	Block2	incongruent/STIM_010.jpg
1303.648	0.697	1	incongruent	Block2	incongruent/STIM_010.jpg
1306.676	0.45	1	incongruent	Block2	incongruent/STIM_010.jpg
1310.71	0.772	1	incongruent	Block2	incongruent/STIM_011.jpg
1315.381	0.805	1	incongruent	Block2	incongruent/STIM_011.jpg
1318.999	0.445	1	incongruent	Block2	incongruent/STIM_011.jpg
1322.212	0.673	1	incongruent	Block2	incongruent/STIM_011.jpg
1325.099	0.449	1	incongruent	Block2	incongruent/STIM_011.jpg
1327.964	0.598	1	incongruent	Block2	incongruent/STIM_012.jpg
1331.587	0.638	1	incongruent	Block2	incongruent/STIM_012.jpg
1335.576	0.749	1	incongruent	Block2	incongruent/STIM_012.jpg
1340.223	0.526	1	incongruent	Block2	incongruent/STIM_012.jpg
1343.938	0.617	1	incongruent	Block2	incongruent/STIM_012.jpg
1348.343	0.971	1	incongruent	Block2	incongruent/STIM_013.jpg
1351.398	0.54	1	incongruent	Block2	incongruent/STIM_013.jpg
1355.018	0.504	1	incongruent	Block2	incongruent/STIM_013.jpg
1359.324	0.526	1	incongruent	Block2	incongruent/STIM_013.jpg
1363.516	0.442	1	incongruent	Block2	incongruent/STIM_013.jpg
1366.101	0.705	1	incongruent	Block2	incongruent/STIM_014.jpg
1370.56	0.883	1	incongruent	Block2	incongruent/STIM_014.jpg
1374.671	0.514	1	incongruent	Block2	incongruent/STIM_014.jpg
1377.735	0.741	1	incongruent	Block2	incongruent/STIM_014.jpg
1382.457	0.376	1	incongruent	Block2	incongruent/STIM_014.jpg
1385.486	0.51	1	incongruent	Block2	incongruent/STIM_015.jpg
1389.38	0.658	1	incongruent	Block2	incongruent/STIM_015.jpg
1393.267	0.751	1	incongruent	Block2	incongruent/STIM_015.jpg
1397.408	0.552	1	incongruent	Block2	incongruent/STIM_015.jpg
1400.952	0.696	1	incongruent	Block2	incongruent/STIM_015.jpg
1405.554	0.694	0	incongruent	Block2	incongruent/STIM_016.jpg
1408.408	0.793	1	incongruent	Block2	incongruent/STIM_016.jpg
1411.812	0.568	1	incongruent	Block2	incongruent/STIM_016.jpg
1415.047	0.709	1	incongruent	Block2	incongruent/STIM_016.jpg
1417.938	0.419	1	incongruent	Block2	incongruent/STIM_016.jpg
1422.32	0.762	1	incongruent	Block2	incongruent/STIM_017.jpg
1426.801	0.636	1	incongruent	Block2	incongruent/STIM_017.jpg
1431.072	0.66	1	incongruent	Block2	incongruent/STIM_017.jpg
1434.838	0.718	0	incongruent	Block2	incongruent/STIM_017.jpg
1437.965	0.388	1	incongruent	Block2	incongruent/STIM_017.jpg
1441.537	0.463	1	incongruent	Block2	incongruent/STIM_018.jpg
1444.146	0.582	1	incongruent	Block2	incongruent/STIM_018.jpg
1447.083	0.839	1	incongruent	Block2	incongruent/STIM_018.jpg
1450.732	0.459	1	incongruent	Block2	incongruent/STIM_018.jpg
1453.391	0.53	1	incongruent	Block2	incongruent/STIM_018.jpg
1456.925	0.959	1	incongruent	Block2	incongruent/STIM_019.jpg
1460.017	0.68	1	incongruent	Block2	incongruent/STIM_019.jpg
1463.77	0.449	1	incongruent	Block2	incongruent/STIM_019.jpg
1467.381	0.62	1	incongruent	Block2	incongruent/STIM_019.jpg
1470.52	0.792	1	incongruent	Block2	incongruent/STIM_019.jpg
1473.605	0.677	1	incongruent	Block2	incongruent/STIM_020.jpg
1477.861	0.521	1	incongruent	Block2	incongruent/STIM_020.jpg
1482.008	0.624	1	incongruent	Block2	incongruent/STIM_020.jpg
1485.042	0.521	1	incongruent	Block2	incongruent/STIM_020.jpg
1488.775	0.663	1	incongruent	Block2	incongruent/STIM_020.jpg
1491.471	0.536	1	incongruent	Block2	incongruent/STIM_021.jpg
1494.381	0.666	1	incongruent	Block2	incongruent/STIM_021.jpg
1498.115	0.834	1	incongruent	Block2	incongruent/STIM_021.jpg
1501.398	0.732	1	incongruent	Block2	incongruent/STIM_021.jpg
1505.201	0.441	1	incongruent	Block2	incongruent/STIM_021.jpg
1508.624	0.508	1	incongruent	Block2	incongruent/STIM_022.jpg
1512.636	0.688	1	incongruent	Block2	incongruent/STIM_022.jpg
1517.017	0.448	0	incongruent	Block2	incongruent/STIM_022.jpg
1520.552	0.562	1	incongruent	Block2	incongruent/STIM_022.jpg
1523.433	0.581	1	incongruent	Block2	incongruent/STIM_022.jpg
1527.72	0.677	1	incongruent	Block2	incongruent/STIM_023.jpg
1530.628	0.506	1	incongruent	Block2	incongruent/STIM_023.jpg
1534.993	0.408	1	incongruent	Block2	incongruent/STIM_023.jpg
1539.015	0.758	1	incongruent	Block2	incongruent/STIM_023.jpg
1542.689	0.39	1	incongruent	Block2	incongruent/STIM_023.jpg
1545.716	0.914	1	incongruent	Block2	incongruent/STIM_024.jpg
1549.807	0.629	1	incongruent	Block2	incongruent/STIM_024.jpg
1552.476	0.512	1	incongruent	Block2	incongruent/STIM_024.jpg
1556.388	0.791	1	incongruent	Block2	incongruent/STIM_024.jpg
1559.785	0.707	1	incongruent	Block2	incongruent/STIM_024.jpg
1563.505	0.88	1	incongruent	Block2	incongruent/STIM_025.jpg
1567.154	0.612	1	incongruent	Block2	incongruent/STIM_025.jpg
1570.096	0.79	1	incongruent	Block2	incongruent/STIM_025.jpg
1573.499	0.662	1	incongruent	Block2	incongruent/STIM_025.jpg
1576.842	0.647	1	incongruent	Block2	incongruent/STIM_025.jpg
1580.268	0.766	1	incongruent	Block2	incongruent/STIM_026.jpg
1584.23	0.465	1	incongruent	Block2	incongruent/STIM_026.jpg
1587.348	0.418	1	incongruent	Block2	incongruent/STIM_026.jpg
1590.37	0.743	1	incongruent	Block2	incongruent/STIM_026.jpg
1593.127	0.475	1	incongruent	Block2	incongruent/STIM_026.jpg
1595.955	0.621	1	incongruent	Block2	incongruent/STIM_027.jpg
1599.373	0.457	1	incongruent	Block2	incongruent/STIM_027.jpg
1602.318	0.796	1	incongruent	Block2	incongruent/STIM_027.jpg
1606.907	0.506	1	incongruent	Block2	incongruent/STIM_027.jpg
1610.358	0.546	1	incongruent	Block2	incongruent/STIM_027.jpg
1613.825	0.458	1	incongruent	Block2	incongruent/STIM_028.jpg
1616.538	0.854	1	incongruent	Block2	incongruent/STIM_028.jpg
1620.075	0.658	1	incongruent	Block2	incongruent/STIM_028.jpg
1624.683	0.466	0	incongruent	Block2	incongruent/STIM_028.jpg
1627.303	0.537	1	incongruent	Block2	incongruent/STIM_028.jpg
1630.388	0.492	1	incongruent	Block2	incongruent/STIM_029.jpg
1633.299	0.599	1	incongruent	Block2	incongruent/STIM_029.jpg
1636.227	0.835	1	incongruent	Block2	incongruent/STIM_029.jpg
1639.744	0.433	1	incongruent	Block2	incongruent/STIM_029.jpg
1643.994	0.609	1	incongruent	Block2	incongruent/STIM_029.jpg
1646.928	0.573	1	congruent	Block2	congruent/STIM_000.jpg
1649.628	0.685	1	congruent	Block2	congruent/STIM_000.jpg
1653.481	0.414	1	congruent	Block2	congruent/STIM_000.jpg
1657.826	0.531	1	congruent	Block2	congruent/STIM_000.jpg
1661.842	0.6	1	congruent	Block2	congruent/STIM_000.jpg
1665.338	0.532	1	congruent	Block2	congruent/STIM_001.jpg
1668.634	0.422	1	congruent	Block2	congruent/STIM_001.jpg
1672.807	0.411	1	congruent	Block2	congruent/STIM_001.jpg
1676.598	0.451	1	congruent	Block2	congruent/STIM_001.jpg
1679.082	0.684	1	congruent	Block2	congruent/STIM_001.jpg
1683.289	0.553	1	congruent	Block2	congruent/STIM_002.jpg
1686.725	0.664	1	congruent	Block2	congruent/STIM_002.jpg
1689.61	0.547	1	congruent	Block2	congruent/STIM_002.jpg
1693.868	0.65	1	congruent	Block2	congruent/STIM_002.jpg
1696.52	0.584	1	congruent	Block2	congruent/STIM_002.jpg
1700.496	0.384	1	congruent	Block2	congruent/STIM_003.jpg
1704.518	0.601	1	congruent	Block2	congruent/STIM_003.jpg
1708.974	0.448	1	congruent	Block2	congruent/STIM_003.jpg
1711.46	0.583	1	congruent	Block2	congruent/STIM_003.jpg
1715.706	0.396	1	congruent	Block2	congruent/STIM_003.jpg
1719.058	0.498	1	congruent	Block2	congruent/STIM_004.jpg
1723.121	0.599	1	congruent	Block2	congruent/STIM_004.jpg
1725.777	0.568	1	congruent	Block2	congruent/STIM_004.jpg
1730.233	0.475	1	congruent	Block2	congruent/STIM_004.jpg
1733.822	0.645	1	congruent	Block2	congruent/STIM_004.jpg
1737.626	0.535	0	congruent	Block2	congruent/STIM_005.jpg
1740.448	0.685	1	congruent	Block2	congruent/STIM_005.jpg
1743.321	0.448	1	congruent	Block2	congruent/STIM_005.jpg
1747.491	0.434	1	congruent	Block2	congruent/STIM_005.jpg
1750.704	0.656	1	congruent	Block2	congruent/STIM_005.jpg
1753.436	0.444	1	congruent	Block2	congruent/STIM_006.jpg
1757.817	0.51	1	congruent	Block2	congruent/STIM_006.jpg
1761.616	0.553	1	congruent	Block2	congruent/STIM_006.jpg
1765.459	0.565	1	congruent	Block2	congruent/STIM_006.jpg
1768.096	0.425	1	congruent	Block2	congruent/STIM_006.jpg
1770.9	0.444	1	congruent	Block2	congruent/STIM_007.jpg
1774.691	0.423	1	congruent	Block2	congruent/STIM_007.jpg
1778.955	0.428	1	congruent	Block2	congruent/STIM_007.jpg
1782.517	0.556	1	congruent	Block2	congruent/STIM_007.jpg
1785.774	0.436	1	congruent	Block2	congruent/STIM_007.jpg
1789.5	0.673	1	congruent	Block2	congruent/STIM_008.jpg
1793.702	0.384	1	congruent	Block2	congruent/STIM_008.jpg
1797.824	0.405	1	congruent	Block2	congruent/STIM_008.jpg
1800.461	0.411	1	congruent	Block2	congruent/STIM_008.jpg
1804.776	0.535	1	congruent	Block2	congruent/STIM_008.jpg
1807.446	0.614	1	congruent	Block2	congruent/STIM_009.jpg
1811.788	0.435	1	congruent	Block2	congruent/STIM_009.jpg
1815.75	0.681	1	congruent	Block2	congruent/STIM_009.jpg
1820.403	0.636	1	congruent	Block2	congruent/STIM_009.jpg
1823.911	0.625	1	congruent	Block2	congruent/STIM_009.jpg
1828.205	0.506	1	congruent	Block2	congruent/STIM_010.jpg
1832.248	0.428	1	congruent	Block2	congruent/STIM_010.jpg
1835.525	0.612	1	congruent	Block2	congruent/STIM_010.jpg
1838.801	0.509	1	congruent	Block2	congruent/STIM_010.jpg
1842.303	0.443	1	congruent	Block2	congruent/STIM_010.jpg
1845.308	0.571	1	congruent	Block2	congruent/STIM_011.jpg
1848.588	0.612	1	congruent	Block2	congruent/STIM_011.jpg
1852.329	0.397	1	congruent	Block2	congruent/STIM_011.jpg
1855.029	0.553	1	congruent	Block2	congruent/STIM_011.jpg
1858.856	0.386	1	congruent	Block2	congruent/STIM_011.jpg
1862.098	0.586	1	congruent	Block2	congruent/STIM_012.jpg
1865.492	0.67	1	congruent	Block2	congruent/STIM_012.jpg
1868.264	0.481	1	congruent	Block2	congruent/STIM_012.jpg
1872.065	0.622	1	congruent	Block2	congruent/STIM_012.jpg
1875.811	0.411	1	congruent	Block2	congruent/STIM_012.jpg
1879.048	0.442	0	congruent	Block2	congruent/STIM_013.jpg
1882.329	0.497	1	congruent	Block2	congruent/STIM_013.jpg
1886.206	0.563	1	congruent	Block2	congruent/STIM_013.jpg
1889.316	0.392	1	congruent	Block2	congruent/STIM_013.jpg
1892.112	0.625	1	congruent	Block2	congruent/STIM_013.jpg
1894.75	0.681	1	congruent	Block2	congruent/STIM_014.jpg
1899.096	0.515	1	congruent	Block2	congruent/STIM_014.jpg
1902.739	0.584	1	congruent	Block2	congruent/STIM_014.jpg
1905.616	0.537	1	congruent	Block2	congruent/STIM_014.jpg
1909.704	0.506	1	congruent	Block2	congruent/STIM_014.jpg
1913.491	0.685	1	congruent	Block2	congruent/STIM_015.jpg
1917.618	0.523	1	congruent	Block2	congruent/STIM_015.jpg
1921.505	0.576	1	congruent	Block2	congruent/STIM_015.jpg
1925.32	0.453	1	congruent	Block2	congruent/STIM_015.jpg
1929.449	0.551	1	congruent	Block2	congruent/STIM_015.jpg
1932.056	0.474	1	congruent	Block2	congruent/STIM_016.jpg
1936.443	0.484	1	congruent	Block2	congruent/STIM_016.jpg
1940.614	0.569	1	congruent	Block2	congruent/STIM_016.jpg
1943.755	0.621	1	congruent	Block2	congruent/STIM_016.jpg
1947.239	0.427	1	congruent	Block2	congruent/STIM_016.jpg
1950.033	0.68	1	congruent	Block2	congruent/STIM_017.jpg
1953.122	0.661	1	congruent	Block2	congruent/STIM_017.jpg
1956.277	0.626	1	congruent	Block2	congruent/STIM_017.jpg
1960.641	0.393	1	congruent	Block2	congruent/STIM_017.jpg
1963.455	0.442	1	congruent	Block2	congruent/STIM_017.jpg
1966.016	0.563	1	congruent	Block2	congruent/STIM_018.jpg
1968.65	0.505	1	congruent	Block2	congruent/STIM_018.jpg
1971.567	0.386	1	congruent	Block2	congruent/STIM_018.jpg
1975.597	0.435	1	congruent	Block2	congruent/STIM_018.jpg
1978.665	0.491	1	congruent	Block2	congruent/STIM_018.jpg
1983.127	0.5	1	congruent	Block2	congruent/STIM_019.jpg
1987.063	0.618	0	congruent	Block2	congruent/STIM_019.jpg
1990.788	0.582	1	congruent	Block2	congruent/STIM_019.jpg
1994.515	0.652	1	congruent	Block2	congruent/STIM_019.jpg
1998.287	0.586	1	congruent	Block2	congruent/STIM_019.jpg
2001.586	0.394	1	congruent	Block2	congruent/STIM_020.jpg
2005.94	0.575	1	congruent	Block2	congruent/STIM_020.jpg
2009.216	0.546	1	congruent	Block2	congruent/STIM_020.jpg
2013.522	0.403	1	congruent	Block2	congruent/STIM_020.jpg
2016.958	0.467	1	congruent	Block2	congruent/STIM_020.jpg
2019.712	0.638	1	congruent	Block2	congruent/STIM_021.jpg
2022.751	0.569	1	congruent	Block2	congruent/STIM_021.jpg
2026.289	0.655	1	congruent	Block2	congruent/STIM_021.jpg
2030.66	0.574	1	congruent	Block2	congruent/STIM_021.jpg
2033.81	0.397	1	congruent	Block2	congruent/STIM_021.jpg
2037.505	0.413	1	congruent	Block2	congruent/STIM_022.jpg
2040.62	0.468	1	congruent	Block2	congruent/STIM_022.jpg
2043.223	0.683	1	congruent	Block2	congruent/STIM_022.jpg
2046.871	0.54	1	congruent	Block2	congruent/STIM_022.jpg
2049.756	0.49	1	congruent	Block2	congruent/STIM_022.jpg
2053.867	0.505	1	congruent	Block2	congruent/STIM_023.jpg
2056.497	0.397	1	congruent	Block2	congruent/STIM_023.jpg
2060.788	0.582	1	congruent	Block2	congruent/STIM_023.jpg
2064.605	0.592	1	congruent	Block2	congruent/STIM_023.jpg
2068.53	0.434	1	congruent	Block2	congruent/STIM_023.jpg
2072.782	0.386	1	congruent	Block2	congruent/STIM_024.jpg
2076.568	0.516	1	congruent	Block2	congruent/STIM_024.jpg
2079.818	0.393	1	congruent	Block2	congruent/STIM_024.jpg
2083.607	0.674	1	congruent	Block2	congruent/STIM_024.jpg
2087.442	0.464	1	congruent	Block2	congruent/STIM_024.jpg
2091.835	0.599	1	congruent	Block2	congruent/STIM_025.jpg
2095.504	0.56	1	congruent	Block2	congruent/STIM_025.jpg
2098.947	0.562	1	congruent	Block2	congruent/STIM_025.jpg
2103.109	0.647	0	congruent	Block2	congruent/STIM_025.jpg
2106.084	0.596	1	congruent	Block2	congruent/STIM_025.jpg
2108.702	0.624	1	congruent	Block2	congruent/STIM_026.jpg
2111.528	0.68	1	congruent	Block2	congruent/STIM_026.jpg
2114.96	0.433	1	congruent	Block2	congruent/STIM_026.jpg
2118.338	0.665	1	congruent	Block2	congruent/STIM_026.jpg
2121.479	0.429	1	congruent	Block2	congruent/STIM_026.jpg
2125.181	0.405	1	congruent	Block2	congruent/STIM_027.jpg
2129.438	0.67	1	congruent	Block2	congruent/STIM_027.jpg
2132.176	0.431	1	congruent	Block2	congruent/STIM_027.jpg
2136.281	0.471	1	congruent	Block2	congruent/STIM_027.jpg
2139.117	0.509	1	congruent	Block2	congruent/STIM_027.jpg
2143.55	0.389	1	congruent	Block2	congruent/STIM_028.jpg
2147.357	0.617	1	congruent	Block2	congruent/STIM_028.jpg
2150.048	0.582	1	congruent	Block2	congruent/STIM_028.jpg
2152.785	0.612	1	congruent	Block2	congruent/STIM_028.jpg
2156.681	0.519	1	congruent	Block2	congruent/STIM_028.jpg
2160.648	0.394	1	congruent	Block2	congruent/STIM_029.jpg
2164.092	0.68	1	congruent	Block2	congruent/STIM_029.jpg
2167.82	0.479	1	congruent	Block2	congruent/STIM_029.jpg
2170.999	0.578	1	congruent	Block2	congruent/STIM_029.jpg
2174.185	0.489	1	congruent	Block2	congruent/STIM_029.jpg
2178.388	0.591	1	incongruent	Block3	incongruent/STIM_000.jpg
2181.684	0.722	1	incongruent	Block3	incongruent/STIM_000.jpg
2185.356	0.582	1	incongruent	Block3	incongruent/STIM_000.jpg
2188.667	0.412	1	incongruent	Block3	incongruent/STIM_000.jpg
2192.215	0.416	1	incongruent	Block3	incongruent/STIM_000.jpg
2196.34	0.653	1	incongruent	Block3	incongruent/STIM_001.jpg
2200.68	0.685	1	incongruent	Block3	incongruent/STIM_001.jpg
2205.156	0.517	1	incongruent	Block3	incongruent/STIM_001.jpg
2209.566	0.453	1	incongruent	Block3	incongruent/STIM_001.jpg
2213.973	0.66	1	incongruent	Block3	incongruent/STIM_001.jpg
2217.802	0.383	1	incongruent	Block3	incongruent/STIM_002.jpg
2221.053	0.565	1	incongruent	Block3	incongruent/STIM_002.jpg
2224.48	0.592	1	incongruent	Block3	incongruent/STIM_002.jpg
2229.005	0.668	1	incongruent	Block3	incongruent/STIM_002.jpg
2232.363	0.469	1	incongruent	Block3	incongruent/STIM_002.jpg
2235.149	0.675	1	incongruent	Block3	incongruent/STIM_003.jpg
2239.64	0.542	1	incongruent	Block3	incongruent/STIM_003.jpg
2242.418	0.427	1	incongruent	Block3	incongruent/STIM_003.jpg
2246.284	0.498	1	incongruent	Block3	incongruent/STIM_003.jpg
2249.733	0.46	1	incongruent	Block3	incongruent/STIM_003.jpg
2252.21	0.752	1	incongruent	Block3	incongruent/STIM_004.jpg
2256.901	0.501	1	incongruent	Block3	incongruent/STIM_004.jpg
2260.995	0.476	1	incongruent	Block3	incongruent/STIM_004.jpg
2265.366	0.711	1	incongruent	Block3	incongruent/STIM_004.jpg
2268.809	0.541	1	incongruent	Block3	incongruent/STIM_004.jpg
2272.887	0.473	1	incongruent	Block3	incongruent/STIM_005.jpg
2276.396	0.665	1	incongruent	Block3	incongruent/STIM_005.jpg
2280.928	0.75	1	incongruent	Block3	incongruent/STIM_005.jpg
2284.506	0.415	1	incongruent	Block3	incongruent/STIM_005.jpg
2288.438	0.472	1	incongruent	Block3	incongruent/STIM_005.jpg
2291.058	0.724	1	incongruent	Block3	incongruent/STIM_006.jpg
2293.896	0.632	1	incongruent	Block3	incongruent/STIM_006.jpg
2298.059	0.55	1	incongruent	Block3	incongruent/STIM_006.jpg
2301.791	0.497	1	incongruent	Block3	incongruent/STIM_006.jpg
2305.427	0.499	1	incongruent	Block3	incongruent/STIM_006.jpg
2308.129	0.702	1	incongruent	Block3	incongruent/STIM_007.jpg
2312.273	0.634	1	incongruent	Block3	incongruent/STIM_007.jpg
2315.231	0.571	1	incongruent	Block3	incongruent/STIM_007.jpg
2318.626	0.7	1	incongruent	Block3	incongruent/STIM_007.jpg
2323.015	0.554	1	incongruent	Block3	incongruent/STIM_007.jpg
2326.84	0.527	1	incongruent	Block3	incongruent/STIM_008.jpg
2329.625	0.486	1	incongruent	Block3	incongruent/STIM_008.jpg
2332.983	0.63	1	incongruent	Block3	incongruent/STIM_008.jpg
2336.926	0.782	1	incongruent	Block3	incongruent/STIM_008.jpg
2340.487	0.667	1	incongruent	Block3	incongruent/STIM_008.jpg
2343.683	0.562	0	incongruent	Block3	incongruent/STIM_009.jpg
2347.083	0.524	1	incongruent	Block3	incongruent/STIM_009.jpg
2350.929	0.721	1	incongruent	Block3	incongruent/STIM_009.jpg
2353.721	0.569	1	incongruent	Block3	incongruent/STIM_009.jpg
2358.059	0.446	1	incongruent	Block3	incongruent/STIM_009.jpg
2361.291	0.504	1	incongruent	Block3	incongruent/STIM_010.jpg
2364.351	0.421	1	incongruent	Block3	incongruent/STIM_010.jpg
2367.613	0.691	1	incongruent	Block3	incongruent/STIM_010.jpg
2371.652	0.42	1	incongruent	Block3	incongruent/STIM_010.jpg
2375.058	0.462	1	incongruent	Block3	incongruent/STIM_010.jpg
2378.679	0.551	1	incongruent	Block3	incongruent/STIM_011.jpg
2381.397	0.537	1	incongruent	Block3	incongruent/STIM_011.jpg
2383.95	0.65	1	incongruent	Block3	incongruent/STIM_011.jpg
2387.551	0.62	1	incongruent	Block3	incongruent/STIM_011.jpg
2391.808	0.654	1	incongruent	Block3	incongruent/STIM_011.jpg
2394.796	0.505	1	incongruent	Block3	incongruent/STIM_012.jpg
2398.854	0.413	1	incongruent	Block3	incongruent/STIM_012.jpg
2402.458	0.497	1	incongruent	Block3	incongruent/STIM_012.jpg
2405.976	0.598	1	incongruent	Block3	incongruent/STIM_012.jpg
2409.317	0.756	1	incongruent	Block3	incongruent/STIM_012.jpg
2412.833	0.718	1	incongruent	Block3	incongruent/STIM_013.jpg
2416.486	0.636	1	incongruent	Block3	incongruent/STIM_013.jpg
2420.104	0.543	1	incongruent	Block3	incongruent/STIM_013.jpg
2422.768	0.705	1	incongruent	Block3	incongruent/STIM_013.jpg
2425.611	0.55	1	incongruent	Block3	incongruent/STIM_013.jpg
2428.908	0.476	1	incongruent	Block3	incongruent/STIM_014.jpg
2431.422	0.511	1	incongruent	Block3	incongruent/STIM_014.jpg
2434.7	0.695	1	incongruent	Block3	incongruent/STIM_014.jpg
2437.99	0.578	1	incongruent	Block3	incongruent/STIM_014.jpg
2441.892	0.681	1	incongruent	Block3	incongruent/STIM_014.jpg
2445.526	0.642	1	incongruent	Block3	incongruent/STIM_015.jpg
2450.088	0.784	1	incongruent	Block3	incongruent/STIM_015.jpg
2454.534	0.79	1	incongruent	Block3	incongruent/STIM_015.jpg
2457.829	0.743	1	incongruent	Block3	incongruent/STIM_015.jpg
2461.481	0.47	1	incongruent	Block3	incongruent/STIM_015.jpg
2465.645	0.659	1	incongruent	Block3	incongruent/STIM_016.jpg
2469.528	0.495	1	incongruent	Block3	incongruent/STIM_016.jpg
2472.481	0.531	1	incongruent	Block3	incongruent/STIM_016.jpg
2476.079	0.601	1	incongruent	Block3	incongruent/STIM_016.jpg
2479.69	0.582	1	incongruent	Block3	incongruent/STIM_016.jpg
2483.279	0.383	1	incongruent	Block3	incongruent/STIM_017.jpg
2487.573	0.627	1	incongruent	Block3	incongruent/STIM_017.jpg
2490.725	0.622	1	incongruent	Block3	incongruent/STIM_017.jpg
2495.215	0.68	1	incongruent	Block3	incongruent/STIM_017.jpg
2498.37	0.723	1	incongruent	Block3	incongruent/STIM_017.jpg
2501.94	0.7	1	incongruent	Block3	incongruent/STIM_018.jpg
2504.995	0.555	1	incongruent	Block3	incongruent/STIM_018.jpg
2508.316	0.381	1	incongruent	Block3	incongruent/STIM_018.jpg
2511.928	0.654	1	incongruent	Block3	incongruent/STIM_018.jpg
2515.057	0.58	1	incongruent	Block3	incongruent/STIM_018.jpg
2517.779	0.424	1	incongruent	Block3	incongruent/STIM_019.jpg
2520.366	0.546	1	incongruent	Block3	incongruent/STIM_019.jpg
2524.445	0.407	1	incongruent	Block3	incongruent/STIM_019.jpg
2526.924	0.389	1	incongruent	Block3	incongruent/STIM_019.jpg
2529.384	0.392	1	incongruent	Block3	incongruent/STIM_019.jpg
2532.689	0.462	1	incongruent	Block3	incongruent/STIM_020.jpg
2536.061	0.442	1	incongruent	Block3	incongruent/STIM_020.jpg
2538.813	0.475	1	incongruent	Block3	incongruent/STIM_020.jpg
2542.059	0.404	1	incongruent	Block3	incongruent/STIM_020.jpg
2545.519	0.675	1	incongruent	Block3	incongruent/STIM_020.jpg
2549.111	0.378	1	incongruent	Block3	incongruent/STIM_021.jpg
2552.816	0.46	1	incongruent	Block3	incongruent/STIM_021.jpg
2557.001	0.766	1	incongruent	Block3	incongruent/STIM_021.jpg
2560.996	0.565	1	incongruent	Block3	incongruent/STIM_021.jpg
2564.892	0.431	1	incongruent	Block3	incongruent/STIM_021.jpg
2569.321	0.716	1	incongruent	Block3	incongruent/STIM_022.jpg
2573.869	0.728	1	incongruent	Block3	incongruent/STIM_022.jpg
2576.821	0.435	1	incongruent	Block3	incongruent/STIM_022.jpg
2580.032	0.768	1	incongruent	Block3	incongruent/STIM_022.jpg
2584.229	0.458	1	incongruent	Block3	incongruent/STIM_022.jpg
2586.793	0.642	1	incongruent	Block3	incongruent/STIM_023.jpg
2589.569	0.785	1	incongruent	Block3	incongruent/STIM_023.jpg
2593.379	0.633	1	incongruent	Block3	incongruent/STIM_023.jpg
2597.59	0.418	1	incongruent	Block3	incongruent/STIM_023.jpg
2601.941	0.782	1	incongruent	Block3	incongruent/STIM_023.jpg
2604.891	0.737	1	incongruent	Block3	incongruent/STIM_024.jpg
2608.483	0.623	1	incongruent	Block3	incongruent/STIM_024.jpg
2611.766	0.47	1	incongruent	Block3	incongruent/STIM_024.jpg
2614.344	0.6	1	incongruent	Block3	incongruent/STIM_024.jpg
2617.548	0.625	1	incongruent	Block3	incongruent/STIM_024.jpg
2620.662	0.488	1	incongruent	Block3	incongruent/STIM_025.jpg
2623.266	0.585	1	incongruent	Block3	incongruent/STIM_025.jpg
2626.359	0.42	1	incongruent	Block3	incongruent/STIM_025.jpg
2629.383	0.551	1	incongruent	Block3	incongruent/STIM_025.jpg
2632.679	0.511	1	incongruent	Block3	incongruent/STIM_025.jpg
2635.935	0.592	1	incongruent	Block3	incongruent/STIM_026.jpg
2640.271	0.39	1	incongruent	Block3	incongruent/STIM_026.jpg
2643.926	0.714	1	incongruent	Block3	incongruent/STIM_026.jpg
2646.754	0.73	1	incongruent	Block3	incongruent/STIM_026.jpg
2650.265	0.71	1	incongruent	Block3	incongruent/STIM_026.jpg
2653.735	0.686	1	incongruent	Block3	incongruent/STIM_027.jpg
2656.811	0.421	1	incongruent	Block3	incongruent/STIM_027.jpg
2660.887	0.483	1	incongruent	Block3	incongruent/STIM_027.jpg
2663.557	0.674	1	incongruent	Block3	incongruent/STIM_027.jpg
2667.921	0.479	1	incongruent	Block3	incongruent/STIM_027.jpg
2671.076	0.402	1	incongruent	Block3	incongruent/STIM_028.jpg
2673.776	0.753	1	incongruent	Block3	incongruent/STIM_028.jpg
2678.275	0.586	1	incongruent	Block3	incongruent/STIM_028.jpg
2681.409	0.695	1	incongruent	Block3	incongruent/STIM_028.jpg
2685.037	0.463	1	incongruent	Block3	incongruent/STIM_028.jpg
2687.665	0.793	1	incongruent	Block3	incongruent/STIM_029.jpg
2691.05	0.637	1	incongruent	Block3	incongruent/STIM_029.jpg
2695.029	0.492	0	incongruent	Block3	incongruent/STIM_029.jpg
2699.289	0.786	1	incongruent	Block3	incongruent/STIM_029.jpg
2702.791	0.725	1	incongruent	Block3	incongruent/STIM_029.jpg
2706.066	0.504	1	congruent	Block3	congruent/STIM_000.jpg
2709.453	0.517	1	congruent	Block3	congruent/STIM_000.jpg
2713.366	0.548	1	congruent	Block3	congruent/STIM_000.jpg
2716.593	0.63	1	congruent	Block3	congruent/STIM_000.jpg
2721.178	0.454	1	congruent	Block3	congruent/STIM_000.jpg
2724.031	0.551	1	congruent	Block3	congruent/STIM_001.jpg
2728.273	0.671	1	congruent	Block3	congruent/STIM_001.jpg
2731.58	0.639	1	congruent	Block3	congruent/STIM_001.jpg
2735.173	0.675	1	congruent	Block3	congruent/STIM_001.jpg
2738.317	0.656	1	congruent	Block3	congruent/STIM_001.jpg
2742.016	0.488	1	congruent	Block3	congruent/STIM_002.jpg
2746.404	0.59	1	congruent	Block3	congruent/STIM_002.jpg
2749.172	0.422	1	congruent	Block3	congruent/STIM_002.jpg
2751.66	0.459	1	congruent	Block3	congruent/STIM_002.jpg
2755.029	0.525	1	congruent	Block3	congruent/STIM_002.jpg
2758.962	0.458	1	congruent	Block3	congruent/STIM_003.jpg
2763.05	0.625	1	congruent	Block3	congruent/STIM_003.jpg
2766.634	0.596	1	congruent	Block3	congruent/STIM_003.jpg
2769.975	0.448	1	congruent	Block3	congruent/STIM_003.jpg
2773.831	0.623	1	congruent	Block3	congruent/STIM_003.jpg
2776.643	0.558	1	congruent	Block3	congruent/STIM_004.jpg
2779.494	0.581	1	congruent	Block3	congruent/STIM_004.jpg
2783.293	0.429	1	congruent	Block3	congruent/STIM_004.jpg
2787.169	0.512	1	congruent	Block3	congruent/STIM_004.jpg
2790.211	0.591	1	congruent	Block3	congruent/STIM_004.jpg
2793.025	0.418	1	congruent	Block3	congruent/STIM_005.jpg
2796.757	0.574	1	congruent	Block3	congruent/STIM_005.jpg
2800.989	0.493	1	congruent	Block3	congruent/STIM_005.jpg
2805.396	0.514	1	congruent	Block3	congruent/STIM_005.jpg
2808.675	0.418	1	congruent	Block3	congruent/STIM_005.jpg
2812.235	0.484	1	congruent	Block3	congruent/STIM_006.jpg
2815.059	0.677	1	congruent	Block3	congruent/STIM_006.jpg
2818.749	0.528	1	congruent	Block3	congruent/STIM_006.jpg
2822.885	0.412	1	congruent	Block3	congruent/STIM_006.jpg
2826.88	0.39	1	congruent	Block3	congruent/STIM_006.jpg
2830.592	0.552	1	congruent	Block3	congruent/STIM_007.jpg
2835.005	0.587	1	congruent	Block3	congruent/STIM_007.jpg
2839.193	0.484	1	congruent	Block3	congruent/STIM_007.jpg
2843.071	0.649	1	congruent	Block3	congruent/STIM_007.jpg
2847.525	0.629	1	congruent	Block3	congruent/STIM_007.jpg
2851.436	0.487	1	congruent	Block3	congruent/STIM_008.jpg
2854.698	0.535	1	congruent	Block3	congruent/STIM_008.jpg
2857.657	0.62	1	congruent	Block3	congruent/STIM_008.jpg
2861.123	0.567	1	congruent	Block3	congruent/STIM_008.jpg
2865.076	0.556	1	congruent	Block3	congruent/STIM_008.jpg
2869.585	0.572	1	congruent	Block3	congruent/STIM_009.jpg
2873.657	0.549	1	congruent	Block3	congruent/STIM_009.jpg
2876.733	0.635	1	congruent	Block3	congruent/STIM_009.jpg
2879.837	0.446	1	congruent	Block3	congruent/STIM_009.jpg
2884.139	0.616	1	congruent	Block3	congruent/STIM_009.jpg
2888.613	0.503	1	congruent	Block3	congruent/STIM_010.jpg
2892.421	0.492	1	congruent	Block3	congruent/STIM_010.jpg
2895.567	0.463	1	congruent	Block3	congruent/STIM_010.jpg
2899.606	0.634	1	congruent	Block3	congruent/STIM_010.jpg
2903.31	0.619	1	congruent	Block3	congruent/STIM_010.jpg
2907.301	0.491	1	congruent	Block3	congruent/STIM_011.jpg
2910.164	0.67	1	congruent	Block3	congruent/STIM_011.jpg
2913.725	0.524	1	congruent	Block3	congruent/STIM_011.jpg
2917.314	0.473	1	congruent	Block3	congruent/STIM_011.jpg
2921.341	0.382	1	congruent	Block3	congruent/STIM_011.jpg
2925.567	0.464	1	congruent	Block3	congruent/STIM_012.jpg
2929.377	0.596	1	congruent	Block3	congruent/STIM_012.jpg
2932.42	0.487	1	congruent	Block3	congruent/STIM_012.jpg
2935.798	0.569	1	congruent	Block3	congruent/STIM_012.jpg
2939.979	0.387	1	congruent	Block3	congruent/STIM_012.jpg
2943.676	0.456	1	congruent	Block3	congruent/STIM_013.jpg
2947.922	0.417	1	congruent	Block3	congruent/STIM_013.jpg
2950.654	0.675	1	congruent	Block3	congruent/STIM_013.jpg
2955.08	0.575	1	congruent	Block3	congruent/STIM_013.jpg
2958.847	0.67	1	congruent	Block3	congruent/STIM_013.jpg
2962.412	0.464	1	congruent	Block3	congruent/STIM_014.jpg
2965.737	0.523	1	congruent	Block3	congruent/STIM_014.jpg
2969.748	0.427	1	congruent	Block3	congruent/STIM_014.jpg
2973.353	0.418	1	congruent	Block3	congruent/STIM_014.jpg
2977.105	0.529	1	congruent	Block3	congruent/STIM_014.jpg
2980.79	0.517	1	congruent	Block3	congruent/STIM_015.jpg
2984.314	0.614	1	congruent	Block3	congruent/STIM_015.jpg
2987.052	0.668	1	congruent	Block3	congruent/STIM_015.jpg
2990.127	0.612	1	congruent	Block3	congruent/STIM_015.jpg
2994.404	0.462	1	congruent	Block3	congruent/STIM_015.jpg
2998.552	0.603	1	congruent	Block3	congruent/STIM_016.jpg
3003.065	0.556	1	congruent	Block3	congruent/STIM_016.jpg
3006.134	0.628	1	congruent	Block3	congruent/STIM_016.jpg
3008.775	0.603	1	congruent	Block3	congruent/STIM_016.jpg
3012.795	0.407	1	congruent	Block3	congruent/STIM_016.jpg
3016.331	0.43	1	congruent	Block3	congruent/STIM_017.jpg
3020.281	0.507	1	congruent	Block3	congruent/STIM_017.jpg
3023.271	0.678	1	congruent	Block3	congruent/STIM_017.jpg
3027.449	0.583	1	congruent	Block3	congruent/STIM_017.jpg
3030.751	0.478	1	congruent	Block3	congruent/STIM_017.jpg
3033.774	0.539	1	congruent	Block3	congruent/STIM_018.jpg
3036.618	0.584	1	congruent	Block3	congruent/STIM_018.jpg
3041.006	0.423	1	congruent	Block3	congruent/STIM_018.jpg
3044.184	0.489	1	congruent	Block3	congruent/STIM_018.jpg
3046.684	0.441	1	congruent	Block3	congruent/STIM_018.jpg
3049.343	0.53	1	congruent	Block3	congruent/STIM_019.jpg
3052.299	0.651	1	congruent	Block3	congruent/STIM_019.jpg
3055.915	0.616	1	congruent	Block3	congruent/STIM_019.jpg
3060.134	0.541	1	congruent	Block3	congruent/STIM_019.jpg
3063.087	0.397	1	congruent	Block3	congruent/STIM_019.jpg
3065.991	0.559	1	congruent	Block3	congruent/STIM_020.jpg
3069.754	0.567	1	congruent	Block3	congruent/STIM_020.jpg
3073.743	0.412	1	congruent	Block3	congruent/STIM_020.jpg
3076.256	0.662	1	congruent	Block3	congruent/STIM_020.jpg
3079.759	0.598	1	congruent	Block3	congruent/STIM_020.jpg
3084.005	0.547	1	congruent	Block3	congruent/STIM_021.jpg
3087.683	0.501	1	congruent	Block3	congruent/STIM_021.jpg
3090.69	0.48	1	congruent	Block3	congruent/STIM_021.jpg
3094.808	0.62	1	congruent	Block3	congruent/STIM_021.jpg
3097.944	0.503	1	congruent	Block3	congruent/STIM_021.jpg
3102.03	0.652	1	congruent	Block3	congruent/STIM_022.jpg
3104.924	0.613	1	congruent	Block3	congruent/STIM_022.jpg
3108.091	0.634	1	congruent	Block3	congruent/STIM_022.jpg
3112.603	0.396	1	congruent	Block3	congruent/STIM_022.jpg
3116.478	0.567	1	congruent	Block3	congruent/STIM_022.jpg
3120.792	0.439	1	congruent	Block3	congruent/STIM_023.jpg
3124.893	0.464	1	congruent	Block3	congruent/STIM_023.jpg
3128.567	0.67	1	congruent	Block3	congruent/STIM_023.jpg
3133.131	0.676	1	congruent	Block3	congruent/STIM_023.jpg
3137.287	0.554	1	congruent	Block3	congruent/STIM_023.jpg
3141.63	0.513	1	congruent	Block3	congruent/STIM_024.jpg
3145.438	0.415	1	congruent	Block3	congruent/STIM_024.jpg
3149.518	0.568	1	congruent	Block3	congruent/STIM_024.jpg
3152.737	0.592	1	congruent	Block3	congruent/STIM_024.jpg
3156.211	0.442	1	congruent	Block3	congruent/STIM_024.jpg
3160.296	0.617	1	congruent	Block3	congruent/STIM_025.jpg
3164.861	0.569	1	congruent	Block3	congruent/STIM_025.jpg
3168.705	0.524	1	congruent	Block3	congruent/STIM_025.jpg
3172.304	0.642	1	congruent	Block3	congruent/STIM_025.jpg
3174.98	0.546	1	congruent	Block3	congruent/STIM_025.jpg
3177.586	0.616	1	congruent	Block3	congruent/STIM_026.jpg
3181.714	0.509	1	congruent	Block3	congruent/STIM_026.jpg
3184.986	0.515	1	congruent	Block3	congruent/STIM_026.jpg
3188.736	0.672	1	congruent	Block3	congruent/STIM_026.jpg
3191.831	0.502	1	congruent	Block3	congruent/STIM_026.jpg
3196.138	0.414	1	congruent	Block3	congruent/STIM_027.jpg
3199.199	0.65	1	congruent	Block3	congruent/STIM_027.jpg
3202.15	0.475	1	congruent	Block3	congruent/STIM_027.jpg
3206.268	0.523	1	congruent	Block3	congruent/STIM_027.jpg
3209.892	0.464	1	congruent	Block3	congruent/STIM_027.jpg
3214.199	0.448	1	congruent	Block3	congruent/STIM_028.jpg
3218.339	0.653	1	congruent	Block3	congruent/STIM_028.jpg
3222.516	0.574	1	congruent	Block3	congruent/STIM_028.jpg
3225.882	0.667	1	congruent	Block3	congruent/STIM_028.jpg
3230.543	0.452	1	congruent	Block3	congruent/STIM_028.jpg
3233.204	0.667	1	congruent	Block3	congruent/STIM_029.jpg
3236.938	0.407	1	congruent	Block3	congruent/STIM_029.jpg
3241.224	0.524	1	congruent	Block3	congruent/STIM_029.jpg
3244.726	0.429	1	congruent	Block3	congruent/STIM_029.jpg
3248.01	0.442	1	congruent	Block3	congruent/STIM_029.jpg
