onset	duration	response_time_ms	trial_type	learning_stage	stimulus	response_port
0.0	1.421	1421.4	incongruent	Block1	incongruent/STIM_000.jpg	100
3.604	0.95	949.9	incongruent	Block1	incongruent/STIM_000.jpg	99
7.764	0.777	776.8	incongruent	Block1	incongruent/STIM_000.jpg	100
11.161	1.13	1130.2	incongruent	Block1	incongruent/STIM_000.jpg	100
15.725	0.899	899.1	incongruent	Block1	incongruent/STIM_000.jpg	99
20.055	0.752	751.8	incongruent	Block1	incongruent/STIM_001.jpg	99
23.588	1.103	1103.2	incongruent	Block1	incongruent/STIM_001.jpg	99
28.339	1.279	1279.2	incongruent	Block1	incongruent/STIM_001.jpg	99
32.565	0.77	770.1	incongruent	Block1	incongruent/STIM_001.jpg	99
35.635	0.82	820.3	incongruent	Block1	incongruent/STIM_001.jpg	99
39.501	1.404	1404.5	incongruent	Block1	incongruent/STIM_002.jpg	99
43.033	1.269	1269.4	incongruent	Block1	incongruent/STIM_002.jpg	99
47.805	1.154	1154.2	incongruent	Block1	incongruent/STIM_002.jpg	100
52.348	1.245	1244.7	incongruent	Block1	incongruent/STIM_002.jpg	99
57.364	0.621	620.9	incongruent	Block1	incongruent/STIM_002.jpg	99
61.328	1.516	1516.0	incongruent	Block1	incongruent/STIM_003.jpg	99
65.15	0.769	768.8	incongruent	Block1	incongruent/STIM_003.jpg	99
68.69	0.827	827.4	incongruent	Block1	incongruent/STIM_003.jpg	99
73.433	1.196	1195.7	incongruent	Block1	incongruent/STIM_003.jpg	99
76.711	1.22	1219.8	incongruent	Block1	incongruent/STIM_003.jpg	100
80.223	0.875	874.9	incongruent	Block1	incongruent/STIM_004.jpg	100
83.711	1.323	1322.9	incongruent	Block1	incongruent/STIM_004.jpg	99
88.558	0.852	852.1	incongruent	Block1	incongruent/STIM_004.jpg	99
92.101	0.892	891.6	incongruent	Block1	incongruent/STIM_004.jpg	100
96.062	0.622	621.6	incongruent	Block1	incongruent/STIM_004.jpg	100
100.223	1.322	1322.5	incongruent	Block1	incongruent/STIM_005.jpg	99
103.631	1.385	1385.3	incongruent	Block1	incongruent/STIM_005.jpg	100
107.19	1.061	1061.1	incongruent	Block1	incongruent/STIM_005.jpg	100
110.336	1.019	1019.0	incongruent	Block1	incongruent/STIM_005.jpg	99
114.175	1.047	1046.7	incongruent	Block1	incongruent/STIM_005.jpg	100
118.19	1.213	1212.6	incongruent	Block1	incongruent/STIM_006.jpg	99
123.069	1.148	1148.4	incongruent	Block1	incongruent/STIM_006.jpg	99
127.516	0.754	753.6	incongruent	Block1	incongruent/STIM_006.jpg	99
130.404	1.156	1156.3	incongruent	Block1	incongruent/STIM_006.jpg	99
135.246	0.779	779.2	incongruent	Block1	incongruent/STIM_006.jpg	100
139.451	1.199	1198.8	incongruent	Block1	incongruent/STIM_007.jpg	99
144.314	1.097	1097.0	incongruent	Block1	incongruent/STIM_007.jpg	99
148.97	1.001	1000.6	incongruent	Block1	incongruent/STIM_007.jpg	100
152.804	1.141	1141.4	incongruent	Block1	incongruent/STIM_007.jpg	99
157.18	0.695	694.7	incongruent	Block1	incongruent/STIM_007.jpg	99
161.184	1.149	1149.2	incongruent	Block1	incongruent/STIM_008.jpg	99
165.846	0.88	879.8	incongruent	Block1	incongruent/STIM_008.jpg	100
170.581	1.227	1227.2	incongruent	Block1	incongruent/STIM_008.jpg	99
174.561	0.645	644.8	incongruent	Block1	incongruent/STIM_008.jpg	99
178.706	0.718	717.8	incongruent	Block1	incongruent/STIM_008.jpg	99
181.722	1.055	1054.8	incongruent	Block1	incongruent/STIM_009.jpg	100
185.922	0.803	802.8	incongruent	Block1	incongruent/STIM_009.jpg	99
190.19	0.798	798.1	incongruent	Block1	incongruent/STIM_009.jpg	100
193.658	0.701	701.0	incongruent	Block1	incongruent/STIM_009.jpg	100
196.953	0.637	637.1	incongruent	Block1	incongruent/STIM_009.jpg	99
201.189	1.252	1251.8	incongruent	Block1	incongruent/STIM_010.jpg	99
205.977	0.989	988.8	incongruent	Block1	incongruent/STIM_010.jpg	100
210.661	0.787	786.8	incongruent	Block1	incongruent/STIM_010.jpg	100
214.496	1.304	1304.0	incongruent	Block1	incongruent/STIM_010.jpg	100
219.466	1.024	1023.9	incongruent	Block1	incongruent/STIM_010.jpg	99
223.449	0.844	843.8	incongruent	Block1	incongruent/STIM_011.jpg	99
227.118	1.445	1444.7	incongruent	Block1	incongruent/STIM_011.jpg	100
231.299	1.271	1271.3	incongruent	Block1	incongruent/STIM_011.jpg	99
236.393	0.796	796.3	incongruent	Block1	incongruent/STIM_011.jpg	100
239.326	0.891	891.0	incongruent	Block1	incongruent/STIM_011.jpg	100
242.546	1.228	1228.2	incongruent	Block1	incongruent/STIM_012.jpg	99
247.582	0.705	705.2	incongruent	Block1	incongruent/STIM_012.jpg	100
250.904	1.05	1049.8	incongruent	Block1	incongruent/STIM_012.jpg	100
255.544	0.831	831.3	incongruent	Block1	incongruent/STIM_012.jpg	99
260.261	0.606	606.4	incongruent	Block1	incongruent/STIM_012.jpg	99
263.712	1.061	1061.4	incongruent	Block1	incongruent/STIM_013.jpg	100
266.739	0.827	826.6	incongruent	Block1	incongruent/STIM_013.jpg	100
269.903	1.179	1179.1	incongruent	Block1	incongruent/STIM_013.jpg	99
274.623	1.238	1237.6	incongruent	Block1	incongruent/STIM_013.jpg	100
278.743	0.599	599.0	incongruent	Block1	incongruent/STIM_013.jpg	100
281.999	1.343	1343.1	incongruent	Block1	incongruent/STIM_014.jpg	99
285.885	0.924	924.1	incongruent	Block1	incongruent/STIM_014.jpg	99
289.638	1.085	1085.1	incongruent	Block1	incongruent/STIM_014.jpg	100
294.331	0.678	678.3	incongruent	Block1	incongruent/STIM_014.jpg	100
297.261	0.906	906.0	incongruent	Block1	incongruent/STIM_014.jpg	100
301.931	1.249	1249.0	incongruent	Block1	incongruent/STIM_015.jpg	100
305.645	1.032	1032.0	incongruent	Block1	incongruent/STIM_015.jpg	99
308.794	0.892	892.1	incongruent	Block1	incongruent/STIM_015.jpg	100
312.918	1.215	1214.8	incongruent	Block1	incongruent/STIM_015.jpg	99
317.064	1.07	1069.8	incongruent	Block1	incongruent/STIM_015.jpg	99
321.882	1.558	1557.9	incongruent	Block1	incongruent/STIM_016.jpg	99
325.973	1.451	1451.2	incongruent	Block1	incongruent/STIM_016.jpg	100
330.249	0.884	884.0	incongruent	Block1	incongruent/STIM_016.jpg	99
334.394	0.798	797.9	incongruent	Block1	incongruent/STIM_016.jpg	99
338.674	0.594	593.5	incongruent	Block1	incongruent/STIM_016.jpg	100
341.752	0.88	880.3	incongruent	Block1	incongruent/STIM_017.jpg	100
346.091	1.459	1459.1	incongruent	Block1	incongruent/STIM_017.jpg	100
349.886	0.728	727.6	incongruent	Block1	incongruent/STIM_017.jpg	99
354.207	1.053	1053.1	incongruent	Block1	incongruent/STIM_017.jpg	99
359.071	0.812	812.5	incongruent	Block1	incongruent/STIM_017.jpg	99
363.768	0.924	924.4	incongruent	Block1	incongruent/STIM_018.jpg	99
366.774	1.043	1042.6	incongruent	Block1	incongruent/STIM_018.jpg	99
369.93	0.759	758.7	incongruent	Block1	incongruent/STIM_018.jpg	99
373.672	0.78	780.1	incongruent	Block1	incongruent/STIM_018.jpg	99
378.015	1.215	1215.0	incongruent	Block1	incongruent/STIM_018.jpg	100
381.959	0.837	836.7	incongruent	Block1	incongruent/STIM_019.jpg	99
386.47	1.423	1423.0	incongruent	Block1	incongruent/STIM_019.jpg	99
390.803	1.284	1283.9	incongruent	Block1	incongruent/STIM_019.jpg	100
395.822	1.08	1079.7	incongruent	Block1	incongruent/STIM_019.jpg	99
400.356	1.127	1126.6	incongruent	Block1	incongruent/STIM_019.jpg	100
403.586	1.38	1379.5	incongruent	Block1	incongruent/STIM_020.jpg	100
408.577	1.173	1173.2	incongruent	Block1	incongruent/STIM_020.jpg	99
412.436	0.862	862.5	incongruent	Block1	incongruent/STIM_020.jpg	100
416.766	1.266	1265.5	incongruent	Block1	incongruent/STIM_020.jpg	99
421.316	0.815	814.8	incongruent	Block1	incongruent/STIM_020.jpg	100
425.01	1.292	1292.3	incongruent	Block1	incongruent/STIM_021.jpg	100
429.142	0.95	950.3	incongruent	Block1	incongruent/STIM_021.jpg	100
433.024	0.802	802.2	incongruent	Block1	incongruent/STIM_021.jpg	99
437.272	1.037	1037.4	incongruent	Block1	incongruent/STIM_021.jpg	100
442.228	0.923	923.2	incongruent	Block1	incongruent/STIM_021.jpg	99
445.686	0.814	814.4	incongruent	Block1	incongruent/STIM_022.jpg	100
449.095	1.066	1066.5	incongruent	Block1	incongruent/STIM_022.jpg	100
453.523	1.348	1347.6	incongruent	Block1	incongruent/STIM_022.jpg	99
457.098	1.3	1299.5	incongruent	Block1	incongruent/STIM_022.jpg	100
461.727	1.246	1246.3	incongruent	Block1	incongruent/STIM_022.jpg	99
465.517	1.006	1005.5	incongruent	Block1	incongruent/STIM_023.jpg	100
470.069	1.406	1405.5	incongruent	Block1	incongruent/STIM_023.jpg	100
474.344	1.106	1105.5	incongruent	Block1	incongruent/STIM_023.jpg	99
478.705	1.115	1115.4	incongruent	Block1	incongruent/STIM_023.jpg	99
483.506	1.147	1146.9	incongruent	Block1	incongruent/STIM_023.jpg	99
486.765	0.907	906.9	incongruent	Block1	incongruent/STIM_024.jpg	100
490.92	1.154	1153.5	incongruent	Block1	incongruent/STIM_024.jpg	100
495.427	0.833	832.7	incongruent	Block1	incongruent/STIM_024.jpg	99
499.819	0.796	795.8	incongruent	Block1	incongruent/STIM_024.jpg	100
503.775	1.163	1162.6	incongruent	Block1	incongruent/STIM_024.jpg	100
506.974	0.804	803.8	incongruent	Block1	incongruent/STIM_025.jpg	99
511.379	1.009	1009.4	incongruent	Block1	incongruent/STIM_025.jpg	100
516.284	1.399	1399.1	incongruent	Block1	incongruent/STIM_025.jpg	99
521.332	0.698	698.3	incongruent	Block1	incongruent/STIM_025.jpg	100
525.03	0.648	648.4	incongruent	Block1	incongruent/STIM_025.jpg	100
528.149	1.218	1218.2	incongruent	Block1	incongruent/STIM_026.jpg	100
532.436	0.996	995.6	incongruent	Block1	incongruent/STIM_026.jpg	100
536.529	1.216	1215.6	incongruent	Block1	incongruent/STIM_026.jpg	99
540.014	1.301	1301.1	incongruent	Block1	incongruent/STIM_026.jpg	100
544.221	1.25	1250.2	incongruent	Block1	incongruent/STIM_026.jpg	99
548.719	0.883	882.6	incongruent	Block1	incongruent/STIM_027.jpg	99
553.313	1.011	1010.6	incongruent	Block1	incongruent/STIM_027.jpg	99
557.075	1.382	1381.5	incongruent	Block1	incongruent/STIM_027.jpg	99
560.688	0.71	709.8	incongruent	Block1	incongruent/STIM_027.jpg	99
565.23	1.038	1038.3	incongruent	Block1	incongruent/STIM_027.jpg	100
568.712	1.411	1410.6	incongruent	Block1	incongruent/STIM_028.jpg	100
572.322	1.476	1475.5	incongruent	Block1	incongruent/STIM_028.jpg	99
575.729	0.844	843.6	incongruent	Block1	incongruent/STIM_028.jpg	99
580.29	1.163	1162.9	incongruent	Block1	incongruent/STIM_028.jpg	100
585.377	1.034	1034.0	incongruent	Block1	incongruent/STIM_028.jpg	100
588.463	1.275	1275.3	incongruent	Block1	incongruent/STIM_029.jpg	99
591.883	1.488	1488.5	incongruent	Block1	incongruent/STIM_029.jpg	99
597.047	0.868	867.6	incongruent	Block1	incongruent/STIM_029.jpg	100
600.585	1.046	1046.0	incongruent	Block1	incongruent/STIM_029.jpg	100
604.104	1.21	1210.1	incongruent	Block1	incongruent/STIM_029.jpg	99
608.831	0.82	819.5	congruent	Block1	congruent/STIM_000.jpg	100
611.802	0.608	607.7	congruent	Block1	congruent/STIM_000.jpg	99
616.333	0.86	860.0	congruent	Block1	congruent/STIM_000.jpg	99
620.552	0.75	750.3	congruent	Block1	congruent/STIM_000.jpg	100
623.804	0.536	535.6	congruent	Block1	congruent/STIM_000.jpg	100
628.238	0.805	804.9	congruent	Block1	congruent/STIM_001.jpg	100
632.694	0.785	785.3	congruent	Block1	congruent/STIM_001.jpg	99
636.464	0.666	666.5	congruent	Block1	congruent/STIM_001.jpg	99
640.579	0.87	869.9	congruent	Block1	congruent/STIM_001.jpg	99
644.997	0.63	630.2	congruent	Block1	congruent/STIM_001.jpg	99
649.141	0.747	747.0	congruent	Block1	congruent/STIM_002.jpg	99
652.012	0.613	613.3	congruent	Block1	congruent/STIM_002.jpg	100
654.799	0.65	650.5	congruent	Block1	congruent/STIM_002.jpg	100
657.542	0.713	713.4	congruent	Block1	congruent/STIM_002.jpg	99
661.781	0.862	861.6	congruent	Block1	congruent/STIM_002.jpg	99
665.099	0.93	929.8	congruent	Block1	congruent/STIM_003.jpg	100
669.46	0.527	527.0	congruent	Block1	congruent/STIM_003.jpg	100
673.682	0.639	639.4	congruent	Block1	congruent/STIM_003.jpg	100
676.371	0.581	581.2	congruent	Block1	congruent/STIM_003.jpg	100
680.007	0.64	639.8	congruent	Block1	congruent/STIM_003.jpg	100
683.755	0.901	901.2	congruent	Block1	congruent/STIM_004.jpg	100
687.429	0.73	730.4	congruent	Block1	congruent/STIM_004.jpg	99
692.1	0.585	585.0	congruent	Block1	congruent/STIM_004.jpg	99
695.019	0.806	806.4	congruent	Block1	congruent/STIM_004.jpg	100
698.056	0.885	885.4	congruent	Block1	congruent/STIM_004.jpg	99
700.992	0.587	587.4	congruent	Block1	congruent/STIM_005.jpg	100
703.65	0.85	850.3	congruent	Block1	congruent/STIM_005.jpg	99
707.628	0.64	640.4	congruent	Block1	congruent/STIM_005.jpg	100
711.871	0.715	715.4	congruent	Block1	congruent/STIM_005.jpg	99
715.874	0.856	855.9	congruent	Block1	congruent/STIM_005.jpg	100
719.963	0.693	692.6	congruent	Block1	congruent/STIM_006.jpg	99
723.98	0.916	915.9	congruent	Block1	congruent/STIM_006.jpg	100
726.898	0.747	747.3	congruent	Block1	congruent/STIM_006.jpg	100
730.908	0.924	923.6	congruent	Block1	congruent/STIM_006.jpg	100
734.381	0.739	739.1	congruent	Block1	congruent/STIM_006.jpg	100
738.887	0.615	614.8	congruent	Block1	congruent/STIM_007.jpg	100
741.936	0.651	651.2	congruent	Block1	congruent/STIM_007.jpg	100
745.065	0.903	903.1	congruent	Block1	congruent/STIM_007.jpg	100
748.408	0.768	768.5	congruent	Block1	congruent/STIM_007.jpg	100
752.175	0.715	714.8	congruent	Block1	congruent/STIM_007.jpg	100
755.661	0.568	568.4	congruent	Block1	congruent/STIM_008.jpg	99
759.485	0.922	922.3	congruent	Block1	congruent/STIM_008.jpg	100
762.615	0.637	637.0	congruent	Block1	congruent/STIM_008.jpg	100
766.117	0.93	930.1	congruent	Block1	congruent/STIM_008.jpg	100
769.958	0.581	580.6	congruent	Block1	congruent/STIM_008.jpg	100
773.097	0.676	675.6	congruent	Block1	congruent/STIM_009.jpg	99
776.994	0.735	735.3	congruent	Block1	congruent/STIM_009.jpg	99
781.209	0.556	556.2	congruent	Block1	congruent/STIM_009.jpg	100
784.334	0.895	894.9	congruent	Block1	congruent/STIM_009.jpg	99
787.315	0.597	596.6	congruent	Block1	congruent/STIM_009.jpg	100
791.501	0.588	588.4	congruent	Block1	congruent/STIM_010.jpg	99
794.168	0.533	533.0	congruent	Block1	congruent/STIM_010.jpg	99
797.581	0.84	839.7	congruent	Block1	congruent/STIM_010.jpg	99
802.028	0.554	554.0	congruent	Block1	congruent/STIM_010.jpg	100
806.548	0.689	688.6	congruent	Block1	congruent/STIM_010.jpg	99
811.065	0.581	580.8	congruent	Block1	congruent/STIM_011.jpg	100
813.673	0.568	568.1	congruent	Block1	congruent/STIM_011.jpg	100
817.12	0.8	800.5	congruent	Block1	congruent/STIM_011.jpg	100
820.304	0.69	690.5	congruent	Block1	congruent/STIM_011.jpg	99
823.406	0.569	569.0	congruent	Block1	congruent/STIM_011.jpg	100
826.839	0.544	544.4	congruent	Block1	congruent/STIM_012.jpg	99
830.896	0.593	592.6	congruent	Block1	congruent/STIM_012.jpg	100
834.404	0.726	726.3	congruent	Block1	congruent/STIM_012.jpg	99
837.908	0.75	750.3	congruent	Block1	congruent/STIM_012.jpg	99
842.51	0.829	828.6	congruent	Block1	congruent/STIM_012.jpg	100
845.623	0.73	730.0	congruent	Block1	congruent/STIM_013.jpg	99
848.706	0.885	884.9	congruent	Block1	congruent/STIM_013.jpg	100
853.437	0.752	751.7	congruent	Block1	congruent/STIM_013.jpg	99
857.806	0.699	699.4	congruent	Block1	congruent/STIM_013.jpg	100
861.378	0.838	838.2	congruent	Block1	congruent/STIM_013.jpg	99
865.854	0.6	600.5	congruent	Block1	congruent/STIM_014.jpg	100
869.09	0.556	556.2	congruent	Block1	congruent/STIM_014.jpg	99
872.738	0.666	666.1	congruent	Block1	congruent/STIM_014.jpg	99
875.68	0.64	640.5	congruent	Block1	congruent/STIM_014.jpg	100
880.17	0.562	561.6	congruent	Block1	congruent/STIM_014.jpg	99
883.75	0.889	888.9	congruent	Block1	congruent/STIM_015.jpg	99
887.542	0.754	754.2	congruent	Block1	congruent/STIM_015.jpg	100
892.1	0.597	596.6	congruent	Block1	congruent/STIM_015.jpg	99
896.355	0.907	906.7	congruent	Block1	congruent/STIM_015.jpg	99
899.816	0.676	676.0	congruent	Block1	congruent/STIM_015.jpg	100
902.996	0.528	527.7	congruent	Block1	congruent/STIM_016.jpg	99
906.28	0.712	712.0	congruent	Block1	congruent/STIM_016.jpg	99
909.295	0.885	884.9	congruent	Block1	congruent/STIM_016.jpg	99
912.559	0.669	669.3	congruent	Block1	congruent/STIM_016.jpg	100
916.49	0.9	900.1	congruent	Block1	congruent/STIM_016.jpg	99
919.754	0.936	936.0	congruent	Block1	congruent/STIM_017.jpg	100
924.267	0.64	640.3	congruent	Block1	congruent/STIM_017.jpg	99
927.154	0.913	912.9	congruent	Block1	congruent/STIM_017.jpg	99
931.245	0.747	746.8	congruent	Block1	congruent/STIM_017.jpg	99
935.47	0.553	552.9	congruent	Block1	congruent/STIM_017.jpg	100
939.018	0.717	716.8	congruent	Block1	congruent/STIM_018.jpg	99
942.047	0.925	925.4	congruent	Block1	congruent/STIM_018.jpg	100
945.377	0.91	909.6	congruent	Block1	congruent/STIM_018.jpg	100
949.129	0.529	529.1	congruent	Block1	congruent/STIM_018.jpg	100
951.736	0.937	937.1	congruent	Block1	congruent/STIM_018.jpg	99
955.361	0.621	621.2	congruent	Block1	congruent/STIM_019.jpg	100
958.102	0.669	669.4	congruent	Block1	congruent/STIM_019.jpg	99
961.677	0.544	543.8	congruent	Block1	congruent/STIM_019.jpg	100
964.841	0.657	656.6	congruent	Block1	congruent/STIM_019.jpg	100
969.347	0.824	824.0	congruent	Block1	congruent/STIM_019.jpg	100
972.387	0.674	673.7	congruent	Block1	congruent/STIM_020.jpg	99
976.439	0.752	751.8	congruent	Block1	congruent/STIM_020.jpg	100
979.67	0.839	839.4	congruent	Block1	congruent/STIM_020.jpg	99
982.965	0.853	853.1	congruent	Block1	congruent/STIM_020.jpg	100
986.298	0.638	637.5	congruent	Block1	congruent/STIM_020.jpg	100
990.86	0.874	873.6	congruent	Block1	congruent/STIM_021.jpg	99
994.98	0.621	620.9	congruent	Block1	congruent/STIM_021.jpg	99
998.026	0.628	627.8	congruent	Block1	congruent/STIM_021.jpg	99
1001.486	0.915	915.4	congruent	Block1	congruent/STIM_021.jpg	100
1005.733	0.643	643.2	congruent	Block1	congruent/STIM_021.jpg	99
1009.192	0.645	644.9	congruent	Block1	congruent/STIM_022.jpg	100
1013.741	0.925	924.9	congruent	Block1	congruent/STIM_022.jpg	100
1017.2	0.748	747.8	congruent	Block1	congruent/STIM_022.jpg	100
1020.179	0.695	695.2	congruent	Block1	congruent/STIM_022.jpg	100
1023.247	0.864	864.3	congruent	Block1	congruent/STIM_022.jpg	99
1027.201	0.532	532.3	congruent	Block1	congruent/STIM_023.jpg	100
1030.539	0.903	903.1	congruent	Block1	congruent/STIM_023.jpg	100
1035.381	0.571	570.6	congruent	Block1	congruent/STIM_023.jpg	99
1039.405	0.93	930.0	congruent	Block1	congruent/STIM_023.jpg	100
1044.089	0.78	779.8	congruent	Block1	congruent/STIM_023.jpg	100
1048.442	0.751	750.9	congruent	Block1	congruent/STIM_024.jpg	99
1052.283	0.815	815.4	congruent	Block1	congruent/STIM_024.jpg	100
1056.366	0.53	529.7	congruent	Block1	congruent/STIM_024.jpg	100
1060.409	0.543	542.7	congruent	Block1	congruent/STIM_024.jpg	100
1063.364	0.775	775.1	congruent	Block1	congruent/STIM_024.jpg	100
1068.038	0.833	833.0	congruent	Block1	congruent/STIM_025.jpg	100
1071.989	0.617	617.4	congruent	Block1	congruent/STIM_025.jpg	99
1075.288	0.782	781.7	congruent	Block1	congruent/STIM_025.jpg	99
1078.965	0.668	667.8	congruent	Block1	congruent/STIM_025.jpg	99
1082.273	0.62	619.7	congruent	Block1	congruent/STIM_025.jpg	99
1085.687	0.61	609.5	congruent	Block1	congruent/STIM_026.jpg	99
1089.795	0.744	744.4	congruent	Block1	congruent/STIM_026.jpg	100
1093.247	0.873	873.3	congruent	Block1	congruent/STIM_026.jpg	99
1097.08	0.913	913.1	congruent	Block1	congruent/STIM_026.jpg	100
1099.994	0.641	641.2	congruent	Block1	congruent/STIM_026.jpg	100
1103.504	0.925	925.4	congruent	Block1	congruent/STIM_027.jpg	99
1107.404	0.874	874.2	congruent	Block1	congruent/STIM_027.jpg	100
1110.644	0.541	541.2	congruent	Block1	congruent/STIM_027.jpg	100
1114.962	0.543	542.6	congruent	Block1	congruent/STIM_027.jpg	100
1118.965	0.886	885.7	congruent	Block1	congruent/STIM_027.jpg	99
1122.212	0.623	623.0	congruent	Block1	congruent/STIM_028.jpg	100
1126.597	0.551	551.2	congruent	Block1	congruent/STIM_028.jpg	99
1129.652	0.716	716.0	congruent	Block1	congruent/STIM_028.jpg	99
1133.522	0.763	763.1	congruent	Block1	congruent/STIM_028.jpg	100
1136.97	0.549	549.0	congruent	Block1	congruent/STIM_028.jpg	100
1139.755	0.879	878.9	congruent	Block1	congruent/STIM_029.jpg	100
1143.077	0.655	654.6	congruent	Block1	congruent/STIM_029.jpg	100
1147.646	0.887	886.7	congruent	Block1	congruent/STIM_029.jpg	100
1152.243	0.68	680.4	congruent	Block1	congruent/STIM_029.jpg	100
1156.795	0.93	929.9	congruent	Block1	congruent/STIM_029.jpg	99
1160.098	1.189	1189.4	incongruent	Block2	incongruent/STIM_000.jpg	100
1164.162	0.85	850.1	incongruent	Block2	incongruent/STIM_000.jpg	100
1168.322	0.818	817.9	incongruent	Block2	incongruent/STIM_000.jpg	100
1171.664	0.561	560.9	incongruent	Block2	incongruent/STIM_000.jpg	99
1175.471	0.905	904.7	incongruent	Block2	incongruent/STIM_000.jpg	100
1179.638	0.954	954.4	incongruent	Block2	incongruent/STIM_001.jpg	99
1184.302	1.105	1105.3	incongruent	Block2	incongruent/STIM_001.jpg	99
1188.693	0.95	950.1	incongruent	Block2	incongruent/STIM_001.jpg	99
1192.315	0.994	994.2	incongruent	Block2	incongruent/STIM_001.jpg	99
1195.929	0.748	747.9	incongruent	Block2	incongruent/STIM_001.jpg	99
1199.972	0.969	968.9	incongruent	Block2	incongruent/STIM_002.jpg	99
1203.106	0.863	863.1	incongruent	Block2	incongruent/STIM_002.jpg	99
1206.529	0.562	561.9	incongruent	Block2	incongruent/STIM_002.jpg	99
1210.57	0.636	636.0	incongruent	Block2	incongruent/STIM_002.jpg	100
1214.399	0.908	907.5	incongruent	Block2	incongruent/STIM_002.jpg	99
1218.099	0.86	860.1	incongruent	Block2	incongruent/STIM_003.jpg	100
1222.137	0.893	893.0	incongruent	Block2	incongruent/STIM_003.jpg	99
1226.336	1.128	1128.2	incongruent	Block2	incongruent/STIM_003.jpg	100
1229.601	0.761	761.1	incongruent	Block2	incongruent/STIM_003.jpg	99
1232.778	0.949	949.4	incongruent	Block2	incongruent/STIM_003.jpg	99
1236.553	1.043	1043.2	incongruent	Block2	incongruent/STIM_004.jpg	99
1240.001	1.052	1051.6	incongruent	Block2	incongruent/STIM_004.jpg	99
1243.304	0.599	599.2	incongruent	Block2	incongruent/STIM_004.jpg	100
1246.512	1.052	1052.5	incongruent	Block2	incongruent/STIM_004.jpg	99
1250.013	1.071	1070.7	incongruent	Block2	incongruent/STIM_004.jpg	100
1254.166	0.911	911.4	incongruent	Block2	incongruent/STIM_005.jpg	99
1258.425	1.021	1020.8	incongruent	Block2	incongruent/STIM_005.jpg	99
1261.844	1.14	1140.1	incongruent	Block2	incongruent/STIM_005.jpg	100
1265.475	0.9	900.3	incongruent	Block2	incongruent/STIM_005.jpg	100
1268.912	0.678	677.6	incongruent	Block2	incongruent/STIM_005.jpg	99
1272.456	1.122	1121.8	incongruent	Block2	incongruent/STIM_006.jpg	99
1275.801	0.982	982.2	incongruent	Block2	incongruent/STIM_006.jpg	100
1280.295	0.652	652.2	incongruent	Block2	incongruent/STIM_006.jpg	99
1283.93	0.893	893.0	incongruent	Block2	incongruent/STIM_006.jpg	100
1288.573	0.591	591.0	incongruent	Block2	incongruent/STIM_006.jpg	100
1292.037	0.846	846.3	incongruent	Block2	incongruent/STIM_007.jpg	99
1295.468	0.725	724.9	incongruent	Block2	incongruent/STIM_007.jpg	99
1298.578	0.59	589.9	incongruent	Block2	incongruent/STIM_007.jpg	100
1301.74	0.641	641.4	incongruent	Block2	incongruent/STIM_007.jpg	99
1304.91	0.607	606.6	incongruent	Block2	incongruent/STIM_007.jpg	99
1307.916	0.778	777.8	incongruent	Block2	incongruent/STIM_008.jpg	99
1311.997	0.871	870.6	incongruent	Block2	incongruent/STIM_008.jpg	99
1316.635	1.116	1116.2	incongruent	Block2	incongruent/STIM_008.jpg	99
1320.526	1.09	1090.1	incongruent	Block2	incongruent/STIM_008.jpg	99
1325.297	0.58	579.9	incongruent	Block2	incongruent/STIM_008.jpg	100
1329.153	1.263	1262.8	incongruent	Block2	incongruent/STIM_009.jpg	99
1333.38	1.226	1225.9	incongruent	Block2	incongruent/STIM_009.jpg	99
1337.079	0.954	954.3	incongruent	Block2	incongruent/STIM_009.jpg	100
1341.546	0.657	657.4	incongruent	Block2	incongruent/STIM_009.jpg	99
1345.203	1.077	1076.6	incongruent	Block2	incongruent/STIM_009.jpg	100
1349.919	1.255	1255.2	incongruent	Block2	incongruent/STIM_010.jpg	99
1353.401	1.257	1257.4	incongruent	Block2	incongruent/STIM_010.jpg	100
1357.18	1.022	1021.8	incongruent	Block2	incongruent/STIM_010.jpg	100
1360.87	0.964	964.2	incongruent	Block2	incongruent/STIM_010.jpg	100
1364.412	0.529	529.1	incongruent	Block2	incongruent/STIM_010.jpg	100
1367.491	0.836	836.4	incongruent	Block2	incongruent/STIM_011.jpg	100
1370.341	0.808	807.5	incongruent	Block2	incongruent/STIM_011.jpg	100
1374.518	1.164	1163.7	incongruent	Block2	incongruent/STIM_011.jpg	100
1379.163	0.945	944.7	incongruent	Block2	incongruent/STIM_011.jpg	99
1383.31	0.789	789.1	incongruent	Block2	incongruent/STIM_011.jpg	100
1387.119	0.744	743.6	incongruent	Block2	incongruent/STIM_012.jpg	100
1389.994	1.003	1003.0	incongruent	Block2	incongruent/STIM_012.jpg	99
1394.725	0.817	816.6	incongruent	Block2	incongruent/STIM_012.jpg	99
1398.937	0.94	940.4	incongruent	Block2	incongruent/STIM_012.jpg	100
1402.893	0.735	735.0	incongruent	Block2	incongruent/STIM_012.jpg	99
1406.27	1.005	1005.2	incongruent	Block2	incongruent/STIM_013.jpg	99
1409.3	0.794	793.9	incongruent	Block2	incongruent/STIM_013.jpg	99
1412.761	0.956	956.0	incongruent	Block2	incongruent/STIM_013.jpg	99
1416.351	0.786	785.9	incongruent	Block2	incongruent/STIM_013.jpg	99
1420.812	1.035	1035.2	incongruent	Block2	incongruent/STIM_013.jpg	100
1425.156	1.288	1288.2	incongruent	Block2	incongruent/STIM_014.jpg	99
1429.412	0.663	663.3	incongruent	Block2	incongruent/STIM_014.jpg	100
1433.423	0.578	577.7	incongruent	Block2	incongruent/STIM_014.jpg	100
1437.314	0.996	996.5	incongruent	Block2	incongruent/STIM_014.jpg	100
1441.547	0.859	858.7	incongruent	Block2	incongruent/STIM_014.jpg	99
1445.428	1.045	1044.8	incongruent	Block2	incongruent/STIM_015.jpg	100
1449.691	0.826	826.2	incongruent	Block2	incongruent/STIM_015.jpg	99
1453.267	0.928	927.6	incongruent	Block2	incongruent/STIM_015.jpg	99
1456.976	1.088	1088.0	incongruent	Block2	incongruent/STIM_015.jpg	99
1461.195	1.078	1077.8	incongruent	Block2	incongruent/STIM_015.jpg	100
1464.945	0.96	959.8	incongruent	Block2	incongruent/STIM_016.jpg	100
1469.611	1.056	1056.2	incongruent	Block2	incongruent/STIM_016.jpg	99
1473.471	1.132	1132.0	incongruent	Block2	incongruent/STIM_016.jpg	100
1476.66	0.733	732.9	incongruent	Block2	incongruent/STIM_016.jpg	100
1479.95	1.003	1002.9	incongruent	Block2	incongruent/STIM_016.jpg	99
1484.002	1.226	1226.4	incongruent	Block2	incongruent/STIM_017.jpg	100
1488.032	0.89	889.8	incongruent	Block2	incongruent/STIM_017.jpg	99
1492.079	0.739	739.4	incongruent	Block2	incongruent/STIM_017.jpg	100
1496.285	0.558	558.0	incongruent	Block2	incongruent/STIM_017.jpg	100
1499.167	0.663	663.2	incongruent	Block2	incongruent/STIM_017.jpg	99
1503.484	1.083	1083.1	incongruent	Block2	incongruent/STIM_018.jpg	100
1508.421	0.933	933.0	incongruent	Block2	incongruent/STIM_018.jpg	99
1512.351	0.752	752.3	incongruent	Block2	incongruent/STIM_018.jpg	99
1516.571	1.093	1092.6	incongruent	Block2	incongruent/STIM_018.jpg	99
1521.175	0.924	923.6	incongruent	Block2	incongruent/STIM_018.jpg	99
1524.08	0.674	673.6	incongruent	Block2	incongruent/STIM_019.jpg	100
1527.468	0.807	807.2	incongruent	Block2	incongruent/STIM_019.jpg	100
1531.481	0.785	785.2	incongruent	Block2	incongruent/STIM_019.jpg	100
1534.626	0.589	588.8	incongruent	Block2	incongruent/STIM_019.jpg	99
1538.415	1.023	1023.0	incongruent	Block2	incongruent/STIM_019.jpg	100
1541.398	1.204	1204.4	incongruent	Block2	incongruent/STIM_020.jpg	99
1546.433	0.937	937.4	incongruent	Block2	incongruent/STIM_020.jpg	100
1550.725	0.873	873.1	incongruent	Block2	incongruent/STIM_020.jpg	100
1554.669	1.037	1036.8	incongruent	Block2	incongruent/STIM_020.jpg	100
1558.21	0.661	661.1	incongruent	Block2	incongruent/STIM_020.jpg	99
1562.204	0.626	626.1	incongruent	Block2	incongruent/STIM_021.jpg	100
1566.576	1.142	1141.8	incongruent	Block2	incongruent/STIM_021.jpg	100
1570.925	1.124	1123.8	incongruent	Block2	incongruent/STIM_021.jpg	99
1574.414	0.731	731.2	incongruent	Block2	incongruent/STIM_021.jpg	100
1578.14	0.698	698.5	incongruent	Block2	incongruent/STIM_021.jpg	99
1581.024	0.633	632.9	incongruent	Block2	incongruent/STIM_022.jpg	100
1584.255	1.248	1248.5	incongruent	Block2	incongruent/STIM_022.jpg	100
1588.693	0.776	775.6	incongruent	Block2	incongruent/STIM_022.jpg	99
1591.765	0.759	759.0	incongruent	Block2	incongruent/STIM_022.jpg	100
1595.833	1.03	1029.9	incongruent	Block2	incongruent/STIM_022.jpg	99
1599.466	1.156	1156.0	incongruent	Block2	incongruent/STIM_023.jpg	100
1603.587	1.181	1181.0	incongruent	Block2	incongruent/STIM_023.jpg	99
1608.56	0.674	673.7	incongruent	Block2	incongruent/STIM_023.jpg	100
1611.885	1.068	1068.3	incongruent	Block2	incongruent/STIM_023.jpg	100
1614.986	0.585	585.1	incongruent	Block2	incongruent/STIM_023.jpg	100
1618.062	1.114	1113.5	incongruent	Block2	incongruent/STIM_024.jpg	99
1622.348	0.894	893.8	incongruent	Block2	incongruent/STIM_024.jpg	99
1626.825	0.634	634.5	incongruent	Block2	incongruent/STIM_024.jpg	100
1630.896	0.729	728.9	incongruent	Block2	incongruent/STIM_024.jpg	100
1634.151	1.056	1056.1	incongruent	Block2	incongruent/STIM_024.jpg	99
1638.264	1.079	1079.0	incongruent	Block2	incongruent/STIM_025.jpg	100
1641.663	0.853	852.6	incongruent	Block2	incongruent/STIM_025.jpg	99
1644.857	0.753	752.9	incongruent	Block2	incongruent/STIM_025.jpg	99
1649.361	0.784	784.4	incongruent	Block2	incongruent/STIM_025.jpg	100
1652.144	0.769	768.9	incongruent	Block2	incongruent/STIM_025.jpg	99
1655.882	1.025	1025.0	incongruent	Block2	incongruent/STIM_026.jpg	100
1659.08	0.889	889.0	incongruent	Block2	incongruent/STIM_026.jpg	99
1662.968	1.085	1085.3	incongruent	Block2	incongruent/STIM_026.jpg	100
1667.208	1.03	1030.0	incongruent	Block2	incongruent/STIM_026.jpg	100
1670.277	0.55	550.0	incongruent	Block2	incongruent/STIM_026.jpg	100
1674.339	1.054	1053.6	incongruent	Block2	incongruent/STIM_027.jpg	100
1677.916	1.201	1200.6	incongruent	Block2	incongruent/STIM_027.jpg	99
1682.386	1.158	1157.9	incongruent	Block2	incongruent/STIM_027.jpg	99
1685.668	0.95	950.5	incongruent	Block2	incongruent/STIM_027.jpg	99
1690.408	0.909	909.4	incongruent	Block2	incongruent/STIM_027.jpg	99
1694.832	1.084	1083.8	incongruent	Block2	incongruent/STIM_028.jpg	99
1699.283	1.12	1119.5	incongruent	Block2	incongruent/STIM_028.jpg	100
1702.857	0.716	716.0	incongruent	Block2	incongruent/STIM_028.jpg	99
1706.677	0.615	614.7	incongruent	Block2	incongruent/STIM_028.jpg	100
1709.349	0.704	703.6	incongruent	Block2	incongruent/STIM_028.jpg	99
1713.383	1.122	1122.1	incongruent	Block2	incongruent/STIM_029.jpg	100
1717.654	1.085	1085.1	incongruent	Block2	incongruent/STIM_029.jpg	100
1721.601	0.792	792.4	incongruent	Block2	incongruent/STIM_029.jpg	100
1725.119	1.056	1056.2	incongruent	Block2	incongruent/STIM_029.jpg	100
1728.616	0.616	616.0	incongruent	Block2	incongruent/STIM_029.jpg	99
1732.366	0.778	778.4	congruent	Block2	congruent/STIM_000.jpg	100
1736.16	0.549	548.6	congruent	Block2	congruent/STIM_000.jpg	99
1739.317	0.653	652.6	congruent	Block2	congruent/STIM_000.jpg	99
1742.381	0.639	639.1	congruent	Block2	congruent/STIM_000.jpg	99
1746.975	0.907	907.4	congruent	Block2	congruent/STIM_000.jpg	100
1750.063	0.674	674.3	congruent	Block2	congruent/STIM_001.jpg	99
1753.557	0.75	749.9	congruent	Block2	congruent/STIM_001.jpg	99
1757.745	0.529	529.1	congruent	Block2	congruent/STIM_001.jpg	100
1761.467	0.847	847.0	congruent	Block2	congruent/STIM_001.jpg	99
1765.005	0.745	744.6	congruent	Block2	congruent/STIM_001.jpg	99
1769.646	0.606	605.9	congruent	Block2	congruent/STIM_002.jpg	99
1773.73	0.715	714.6	congruent	Block2	congruent/STIM_002.jpg	100
1777.887	0.917	916.7	congruent	Block2	congruent/STIM_002.jpg	100
1782.605	0.618	618.5	congruent	Block2	congruent/STIM_002.jpg	100
1787.152	0.828	828.5	congruent	Block2	congruent/STIM_002.jpg	99
1790.05	0.568	568.0	congruent	Block2	congruent/STIM_003.jpg	99
1793.86	0.531	531.4	congruent	Block2	congruent/STIM_003.jpg	99
1798.159	0.827	826.8	congruent	Block2	congruent/STIM_003.jpg	99
1801.816	0.762	761.6	congruent	Block2	congruent/STIM_003.jpg	99
1804.609	0.583	583.4	congruent	Block2	congruent/STIM_003.jpg	99
1808.3	0.939	938.6	congruent	Block2	congruent/STIM_004.jpg	99
1813.096	0.625	625.0	congruent	Block2	congruent/STIM_004.jpg	99
1816.291	0.699	699.1	congruent	Block2	congruent/STIM_004.jpg	99
1819.786	0.915	915.4	congruent	Block2	congruent/STIM_004.jpg	99
1823.679	0.591	590.9	congruent	Block2	congruent/STIM_004.jpg	99
1827.445	0.926	925.6	congruent	Block2	congruent/STIM_005.jpg	99
1830.685	0.751	751.0	congruent	Block2	congruent/STIM_005.jpg	99
1833.472	0.598	598.3	congruent	Block2	congruent/STIM_005.jpg	99
1837.882	0.704	703.9	congruent	Block2	congruent/STIM_005.jpg	99
1842.375	0.609	609.2	congruent	Block2	congruent/STIM_005.jpg	99
1846.256	0.725	725.4	congruent	Block2	congruent/STIM_006.jpg	100
1849.001	0.737	737.0	congruent	Block2	congruent/STIM_006.jpg	100
1853.208	0.881	881.4	congruent	Block2	congruent/STIM_006.jpg	99
1856.83	0.752	752.5	congruent	Block2	congruent/STIM_006.jpg	99
1859.99	0.612	612.5	congruent	Block2	congruent/STIM_006.jpg	100
1863.052	0.836	835.7	congruent	Block2	congruent/STIM_007.jpg	100
1866.29	0.806	806.4	congruent	Block2	congruent/STIM_007.jpg	99
1869.32	0.655	654.9	congruent	Block2	congruent/STIM_007.jpg	100
1872.051	0.702	702.5	congruent	Block2	congruent/STIM_007.jpg	100
1876.453	0.711	710.7	congruent	Block2	congruent/STIM_007.jpg	100
1880.629	0.765	764.6	congruent	Block2	congruent/STIM_008.jpg	100
1884.413	0.539	538.6	congruent	Block2	congruent/STIM_008.jpg	99
1888.535	0.651	651.0	congruent	Block2	congruent/STIM_008.jpg	100
1891.906	0.592	591.6	congruent	Block2	congruent/STIM_008.jpg	99
1895.574	0.812	812.4	congruent	Block2	congruent/STIM_008.jpg	100
1898.51	0.749	749.1	congruent	Block2	congruent/STIM_009.jpg	100
1902.252	0.65	649.9	congruent	Block2	congruent/STIM_009.jpg	99
1905.356	0.837	836.9	congruent	Block2	congruent/STIM_009.jpg	100
1908.287	0.533	533.4	congruent	Block2	congruent/STIM_009.jpg	99
1911.643	0.752	752.5	congruent	Block2	congruent/STIM_009.jpg	99
1915.132	0.77	770.5	congruent	Block2	congruent/STIM_010.jpg	100
1919.016	0.576	576.4	congruent	Block2	congruent/STIM_010.jpg	100
1923.265	0.876	875.8	congruent	Block2	congruent/STIM_010.jpg	99
1927.322	0.812	812.1	congruent	Block2	congruent/STIM_010.jpg	99
1931.706	0.872	872.2	congruent	Block2	congruent/STIM_010.jpg	99
1935.113	0.803	802.9	congruent	Block2	congruent/STIM_011.jpg	99
1939.684	0.765	765.1	congruent	Block2	congruent/STIM_011.jpg	99
1942.589	0.567	566.8	congruent	Block2	congruent/STIM_011.jpg	99
1945.39	0.657	656.7	congruent	Block2	congruent/STIM_011.jpg	100
1949.76	0.759	759.1	congruent	Block2	congruent/STIM_011.jpg	100
1954.163	0.94	940.1	congruent	Block2	congruent/STIM_012.jpg	99
1958.466	0.785	784.9	congruent	Block2	congruent/STIM_012.jpg	100
1962.395	0.599	599.2	congruent	Block2	congruent/STIM_012.jpg	99
1966.405	0.759	758.8	congruent	Block2	congruent/STIM_012.jpg	99
1969.886	0.541	540.9	congruent	Block2	congruent/STIM_012.jpg	99
1973.018	0.838	838.5	congruent	Block2	congruent/STIM_013.jpg	99
1977.716	0.6	600.5	congruent	Block2	congruent/STIM_013.jpg	100
1981.441	0.599	598.6	congruent	Block2	congruent/STIM_013.jpg	100
1984.015	0.905	904.6	congruent	Block2	congruent/STIM_013.jpg	99
1987.982	0.856	855.6	congruent	Block2	congruent/STIM_013.jpg	100
1992.473	0.793	792.6	congruent	Block2	congruent/STIM_014.jpg	100
1996.548	0.525	525.4	congruent	Block2	congruent/STIM_014.jpg	100
2000.916	0.855	855.0	congruent	Block2	congruent/STIM_014.jpg	100
2004.288	0.92	920.5	congruent	Block2	congruent/STIM_014.jpg	99
2008.406	0.621	620.8	congruent	Block2	congruent/STIM_014.jpg	99
2012.179	0.897	896.9	congruent	Block2	congruent/STIM_015.jpg	99
2016.762	0.627	627.0	congruent	Block2	congruent/STIM_015.jpg	99
2020.968	0.873	872.8	congruent	Block2	congruent/STIM_015.jpg	100
2024.631	0.748	748.0	congruent	Block2	congruent/STIM_015.jpg	99
2028.813	0.54	539.7	congruent	Block2	congruent/STIM_015.jpg	99
2031.411	0.869	869.0	congruent	Block2	congruent/STIM_016.jpg	99
2035.627	0.552	552.3	congruent	Block2	congruent/STIM_016.jpg	99
2038.515	0.624	623.8	congruent	Block2	congruent/STIM_016.jpg	99
2041.777	0.881	880.9	congruent	Block2	congruent/STIM_016.jpg	100
2045.737	0.754	754.2	congruent	Block2	congruent/STIM_016.jpg	100
2049.21	0.56	559.8	congruent	Block2	congruent/STIM_017.jpg	99
2051.823	0.91	910.5	congruent	Block2	congruent/STIM_017.jpg	99
2056.571	0.639	639.2	congruent	Block2	congruent/STIM_017.jpg	99
2059.38	0.74	740.3	congruent	Block2	congruent/STIM_017.jpg	100
2062.513	0.823	822.7	congruent	Block2	congruent/STIM_017.jpg	99
2066.361	0.59	590.1	congruent	Block2	congruent/STIM_018.jpg	100
2068.969	0.78	779.9	congruent	Block2	congruent/STIM_018.jpg	99
2072.143	0.822	822.4	congruent	Block2	congruent/STIM_018.jpg	100
2076.896	0.565	565.1	congruent	Block2	congruent/STIM_018.jpg	99
2080.289	0.546	545.9	congruent	Block2	congruent/STIM_018.jpg	100
2083.005	0.574	574.2	congruent	Block2	congruent/STIM_019.jpg	100
2085.705	0.603	602.7	congruent	Block2	congruent/STIM_019.jpg	100
2089.281	0.875	875.2	congruent	Block2	congruent/STIM_019.jpg	100
2092.888	0.767	766.6	congruent	Block2	congruent/STIM_019.jpg	99
2096.516	0.734	734.1	congruent	Block2	congruent/STIM_019.jpg	99
2101.071	0.725	724.6	congruent	Block2	congruent/STIM_020.jpg	99
2105.448	0.685	684.8	congruent	Block2	congruent/STIM_020.jpg	99
2108.288	0.551	551.1	congruent	Block2	congruent/STIM_020.jpg	100
2111.237	0.934	934.5	congruent	Block2	congruent/STIM_020.jpg	100
2114.676	0.895	894.7	congruent	Block2	congruent/STIM_020.jpg	99
2117.949	0.706	705.8	congruent	Block2	congruent/STIM_021.jpg	99
2122.452	0.558	557.5	congruent	Block2	congruent/STIM_021.jpg	100
2126.14	0.718	717.7	congruent	Block2	congruent/STIM_021.jpg	99
2128.96	0.536	535.7	congruent	Block2	congruent/STIM_021.jpg	99
2132.877	0.555	555.1	congruent	Block2	congruent/STIM_021.jpg	99
2136.602	0.892	891.8	congruent	Block2	congruent/STIM_022.jpg	100
2139.728	0.589	588.8	congruent	Block2	congruent/STIM_022.jpg	100
2143.233	0.821	821.0	congruent	Block2	congruent/STIM_022.jpg	99
2146.801	0.87	870.5	congruent	Block2	congruent/STIM_022.jpg	99
2150.764	0.634	634.0	congruent	Block2	congruent/STIM_022.jpg	99
2153.47	0.599	598.8	congruent	Block2	congruent/STIM_023.jpg	100
2156.994	0.863	862.7	congruent	Block2	congruent/STIM_023.jpg	100
2161.289	0.897	897.0	congruent	Block2	congruent/STIM_023.jpg	99
2164.197	0.7	700.4	congruent	Block2	congruent/STIM_023.jpg	99
2167.604	0.78	780.1	congruent	Block2	congruent/STIM_023.jpg	99
2170.37	0.548	548.1	congruent	Block2	congruent/STIM_024.jpg	99
2174.809	0.56	559.5	congruent	Block2	congruent/STIM_024.jpg	99
2178.961	0.571	571.3	congruent	Block2	congruent/STIM_024.jpg	100
2181.738	0.585	585.0	congruent	Block2	congruent/STIM_024.jpg	100
2185.202	0.842	841.7	congruent	Block2	congruent/STIM_024.jpg	100
2188.18	0.615	615.3	congruent	Block2	congruent/STIM_025.jpg	100
2191.288	0.644	643.9	congruent	Block2	congruent/STIM_025.jpg	100
2194.821	0.72	720.4	congruent	Block2	congruent/STIM_025.jpg	99
2198.087	0.701	700.6	congruent	Block2	congruent/STIM_025.jpg	100
2200.756	0.616	616.4	congruent	Block2	congruent/STIM_025.jpg	99
2203.812	0.853	853.3	congruent	Block2	congruent/STIM_026.jpg	100
2208.276	0.648	648.0	congruent	Block2	congruent/STIM_026.jpg	99
2210.909	0.684	684.5	congruent	Block2	congruent/STIM_026.jpg	100
2214.576	0.76	759.6	congruent	Block2	congruent/STIM_026.jpg	100
2217.437	0.816	816.2	congruent	Block2	congruent/STIM_026.jpg	99
2220.854	0.649	649.1	congruent	Block2	congruent/STIM_027.jpg	100
2224.624	0.579	579.2	congruent	Block2	congruent/STIM_027.jpg	99
2228.537	0.812	812.1	congruent	Block2	congruent/STIM_027.jpg	100
2231.542	0.853	853.0	congruent	Block2	congruent/STIM_027.jpg	100
2234.891	0.603	602.7	congruent	Block2	congruent/STIM_027.jpg	100
2237.834	0.532	531.6	congruent	Block2	congruent/STIM_028.jpg	100
2240.955	0.532	531.8	congruent	Block2	congruent/STIM_028.jpg	100
2244.853	0.572	572.3	congruent	Block2	congruent/STIM_028.jpg	100
2249.108	0.564	564.5	congruent	Block2	congruent/STIM_028.jpg	100
2252.538	0.82	820.3	congruent	Block2	congruent/STIM_028.jpg	99
2255.563	0.918	917.6	congruent	Block2	congruent/STIM_029.jpg	100
2260.363	0.695	695.3	congruent	Block2	congruent/STIM_029.jpg	100
2263.241	0.594	593.9	congruent	Block2	congruent/STIM_029.jpg	99
2267.742	0.908	907.6	congruent	Block2	congruent/STIM_029.jpg	100
2271.789	0.9	900.3	congruent	Block2	congruent/STIM_029.jpg	99
2276.543	0.809	808.6	incongruent	Block3	incongruent/STIM_000.jpg	100
2281.146	0.963	963.1	incongruent	Block3	incongruent/STIM_000.jpg	100
2285.564	0.584	584.1	incongruent	Block3	incongruent/STIM_000.jpg	99
2288.915	0.612	611.6	incongruent	Block3	incongruent/STIM_000.jpg	100
2292.819	0.99	990.2	incongruent	Block3	incongruent/STIM_000.jpg	99
2296.338	0.676	675.9	incongruent	Block3	incongruent/STIM_001.jpg	99
2299.423	0.847	846.8	incongruent	Block3	incongruent/STIM_001.jpg	100
2302.579	0.697	696.6	incongruent	Block3	incongruent/STIM_001.jpg	100
2306.816	0.848	847.5	incongruent	Block3	incongruent/STIM_001.jpg	99
2310.532	0.827	827.3	incongruent	Block3	incongruent/STIM_001.jpg	99
2314.363	1.09	1089.7	incongruent	Block3	incongruent/STIM_002.jpg	100
2318.054	0.773	773.1	incongruent	Block3	incongruent/STIM_002.jpg	100
2321.19	0.949	948.7	incongruent	Block3	incongruent/STIM_002.jpg	100
2325.986	0.828	827.7	incongruent	Block3	incongruent/STIM_002.jpg	100
2329.591	0.986	985.6	incongruent	Block3	incongruent/STIM_002.jpg	99
2334.313	0.79	789.5	incongruent	Block3	incongruent/STIM_003.jpg	99
2337.087	0.612	612.3	incongruent	Block3	incongruent/STIM_003.jpg	99
2341.312	0.912	911.5	incongruent	Block3	incongruent/STIM_003.jpg	100
2345.658	1.094	1093.6	incongruent	Block3	incongruent/STIM_003.jpg	100
2348.738	0.576	576.5	incongruent	Block3	incongruent/STIM_003.jpg	100
2351.581	1.003	1003.2	incongruent	Block3	incongruent/STIM_004.jpg	99
2356.016	0.859	858.9	incongruent	Block3	incongruent/STIM_004.jpg	100
2359.35	0.779	779.4	incongruent	Block3	incongruent/STIM_004.jpg	99
2363.575	0.591	591.1	incongruent	Block3	incongruent/STIM_004.jpg	100
2367.308	0.629	628.6	incongruent	Block3	incongruent/STIM_004.jpg	100
2371.039	0.677	676.6	incongruent	Block3	incongruent/STIM_005.jpg	99
2374.042	1.096	1095.9	incongruent	Block3	incongruent/STIM_005.jpg	100
2378.54	0.915	914.9	incongruent	Block3	incongruent/STIM_005.jpg	99
2383.147	1.086	1086.4	incongruent	Block3	incongruent/STIM_005.jpg	100
2387.251	0.717	716.9	incongruent	Block3	incongruent/STIM_005.jpg	99
2390.722	0.815	814.7	incongruent	Block3	incongruent/STIM_006.jpg	100
2393.689	1.099	1099.0	incongruent	Block3	incongruent/STIM_006.jpg	100
2398.411	0.973	973.1	incongruent	Block3	incongruent/STIM_006.jpg	100
2402.076	0.961	960.8	incongruent	Block3	incongruent/STIM_006.jpg	100
2405.055	0.955	954.7	incongruent	Block3	incongruent/STIM_006.jpg	99
2408.45	0.96	959.5	incongruent	Block3	incongruent/STIM_007.jpg	99
2412.15	0.704	703.6	incongruent	Block3	incongruent/STIM_007.jpg	100
2415.575	0.969	968.9	incongruent	Block3	incongruent/STIM_007.jpg	99
2419.205	0.939	938.9	incongruent	Block3	incongruent/STIM_007.jpg	100
2422.18	1.042	1042.2	incongruent	Block3	incongruent/STIM_007.jpg	99
2426.548	1.053	1053.3	incongruent	Block3	incongruent/STIM_008.jpg	99
2431.19	0.538	538.1	incongruent	Block3	incongruent/STIM_008.jpg	99
2433.863	0.741	741.0	incongruent	Block3	incongruent/STIM_008.jpg	99
2437.37	1.072	1072.0	incongruent	Block3	incongruent/STIM_008.jpg	100
2440.472	0.74	739.5	incongruent	Block3	incongruent/STIM_008.jpg	100
2443.519	0.82	820.4	incongruent	Block3	incongruent/STIM_009.jpg	99
2447.945	0.863	863.1	incongruent	Block3	incongruent/STIM_009.jpg	99
2452.323	0.607	606.9	incongruent	Block3	incongruent/STIM_009.jpg	99
2455.237	0.543	543.2	incongruent	Block3	incongruent/STIM_009.jpg	99
2458.221	1.084	1084.1	incongruent	Block3	incongruent/STIM_009.jpg	99
2461.581	1.069	1069.3	incongruent	Block3	incongruent/STIM_010.jpg	100
2466.225	0.593	592.8	incongruent	Block3	incongruent/STIM_010.jpg	99
2470.672	1.012	1012.1	incongruent	Block3	incongruent/STIM_010.jpg	99
2473.91	1.012	1011.7	incongruent	Block3	incongruent/STIM_010.jpg	100
2477.194	0.595	594.7	incongruent	Block3	incongruent/STIM_010.jpg	99
2480.163	0.67	669.9	incongruent	Block3	incongruent/STIM_011.jpg	99
2484.15	0.633	632.8	incongruent	Block3	incongruent/STIM_011.jpg	100
2487.709	0.628	628.5	incongruent	Block3	incongruent/STIM_011.jpg	99
2491.398	0.662	661.7	incongruent	Block3	incongruent/STIM_011.jpg	100
2495.333	1.037	1036.6	incongruent	Block3	incongruent/STIM_011.jpg	99
2498.756	0.832	831.5	incongruent	Block3	incongruent/STIM_012.jpg	100
2501.764	0.576	575.5	incongruent	Block3	incongruent/STIM_012.jpg	99
2506.113	0.792	792.1	incongruent	Block3	incongruent/STIM_012.jpg	100
2510.268	0.549	548.9	incongruent	Block3	incongruent/STIM_012.jpg	99
2513.553	0.808	808.5	incongruent	Block3	incongruent/STIM_012.jpg	100
2518.294	0.586	586.2	incongruent	Block3	incongruent/STIM_013.jpg	100
2521.657	0.753	753.1	incongruent	Block3	incongruent/STIM_013.jpg	100
2524.507	0.935	935.0	incongruent	Block3	incongruent/STIM_013.jpg	99
2528.468	0.903	902.6	incongruent	Block3	incongruent/STIM_013.jpg	99
2532.822	0.695	695.0	incongruent	Block3	incongruent/STIM_013.jpg	100
2535.885	0.616	616.2	incongruent	Block3	incongruent/STIM_014.jpg	100
2539.24	0.748	748.4	incongruent	Block3	incongruent/STIM_014.jpg	100
2543.429	0.528	527.7	incongruent	Block3	incongruent/STIM_014.jpg	99
2547.324	0.754	754.5	incongruent	Block3	incongruent/STIM_014.jpg	99
2550.997	0.817	817.3	incongruent	Block3	incongruent/STIM_014.jpg	100
2555.747	0.881	880.6	incongruent	Block3	incongruent/STIM_015.jpg	99
2560.466	0.832	832.0	incongruent	Block3	incongruent/STIM_015.jpg	99
2565.111	0.765	764.6	incongruent	Block3	incongruent/STIM_015.jpg	99
2569.508	0.701	700.8	incongruent	Block3	incongruent/STIM_015.jpg	100
2572.321	1.007	1006.8	incongruent	Block3	incongruent/STIM_015.jpg	99
2576.063	0.726	726.4	incongruent	Block3	incongruent/STIM_016.jpg	99
2579.369	0.927	926.8	incongruent	Block3	incongruent/STIM_016.jpg	99
2583.986	1.077	1077.3	incongruent	Block3	incongruent/STIM_016.jpg	100
2588.298	1.029	1028.6	incongruent	Block3	incongruent/STIM_016.jpg	100
2592.827	0.929	928.6	incongruent	Block3	incongruent/STIM_016.jpg	99
2596.926	0.707	707.4	incongruent	Block3	incongruent/STIM_017.jpg	99
2600.367	0.616	616.2	incongruent	Block3	incongruent/STIM_017.jpg	100
2603.397	0.82	820.2	incongruent	Block3	incongruent/STIM_017.jpg	99
2607.127	0.728	728.1	incongruent	Block3	incongruent/STIM_017.jpg	100
2610.616	1.05	1049.9	incongruent	Block3	incongruent/STIM_017.jpg	99
2614.604	0.566	565.7	incongruent	Block3	incongruent/STIM_018.jpg	100
2618.008	0.816	816.0	incongruent	Block3	incongruent/STIM_018.jpg	100
2621.575	0.65	650.2	incongruent	Block3	incongruent/STIM_018.jpg	100
2625.24	0.956	956.4	incongruent	Block3	incongruent/STIM_018.jpg	100
2629.594	0.584	583.9	incongruent	Block3	incongruent/STIM_018.jpg	99
2632.509	0.624	624.5	incongruent	Block3	incongruent/STIM_019.jpg	100
2635.848	0.918	917.9	incongruent	Block3	incongruent/STIM_019.jpg	99
2640.16	0.54	540.4	incongruent	Block3	incongruent/STIM_019.jpg	100
2643.68	0.768	767.5	incongruent	Block3	incongruent/STIM_019.jpg	99
2647.898	0.788	788.1	incongruent	Block3	incongruent/STIM_019.jpg	100
2651.758	0.605	604.9	incongruent	Block3	incongruent/STIM_020.jpg	100
2656.282	0.653	653.4	incongruent	Block3	incongruent/STIM_020.jpg	99
2660.023	1.029	1029.1	incongruent	Block3	incongruent/STIM_020.jpg	100
2664.928	0.796	796.5	incongruent	Block3	incongruent/STIM_020.jpg	99
2668.563	0.877	876.7	incongruent	Block3	incongruent/STIM_020.jpg	100
2672.479	0.564	564.2	incongruent	Block3	incongruent/STIM_021.jpg	99
2675.236	0.93	929.8	incongruent	Block3	incongruent/STIM_021.jpg	100
2678.373	0.656	656.4	incongruent	Block3	incongruent/STIM_021.jpg	99
2682.734	0.656	655.7	incongruent	Block3	incongruent/STIM_021.jpg	100
2687.259	0.698	698.1	incongruent	Block3	incongruent/STIM_021.jpg	100
2691.24	0.594	593.9	incongruent	Block3	incongruent/STIM_022.jpg	99
2694.696	0.518	517.6	incongruent	Block3	incongruent/STIM_022.jpg	100
2697.856	0.868	867.5	incongruent	Block3	incongruent/STIM_022.jpg	100
2702.404	0.98	980.2	incongruent	Block3	incongruent/STIM_022.jpg	100
2707.071	1.015	1014.9	incongruent	Block3	incongruent/STIM_022.jpg	99
2711.356	1.018	1018.5	incongruent	Block3	incongruent/STIM_023.jpg	99
2715.374	0.53	530.4	incongruent	Block3	incongruent/STIM_023.jpg	99
2718.746	0.515	515.2	incongruent	Block3	incongruent/STIM_023.jpg	99
2722.24	0.88	880.0	incongruent	Block3	incongruent/STIM_023.jpg	99
2725.137	0.916	916.0	incongruent	Block3	incongruent/STIM_023.jpg	100
2729.266	0.86	859.6	incongruent	Block3	incongruent/STIM_024.jpg	99
2732.155	1.079	1079.0	incongruent	Block3	incongruent/STIM_024.jpg	100
2735.461	0.528	528.4	incongruent	Block3	incongruent/STIM_024.jpg	100
2739.905	1.07	1069.6	incongruent	Block3	incongruent/STIM_024.jpg	99
2744.056	0.633	632.6	incongruent	Block3	incongruent/STIM_024.jpg	100
2747.805	1.044	1044.5	incongruent	Block3	incongruent/STIM_025.jpg	99
2751.133	0.757	756.7	incongruent	Block3	incongruent/STIM_025.jpg	99
2755.054	0.67	669.6	incongruent	Block3	incongruent/STIM_025.jpg	99
2758.331	0.989	989.0	incongruent	Block3	incongruent/STIM_025.jpg	99
2762.206	1.065	1065.2	incongruent	Block3	incongruent/STIM_025.jpg	100
2766.344	0.598	598.1	incongruent	Block3	incongruent/STIM_026.jpg	99
2770.058	1.066	1066.4	incongruent	Block3	incongruent/STIM_026.jpg	100
2773.695	0.515	515.3	incongruent	Block3	incongruent/STIM_026.jpg	99
2777.569	0.796	795.8	incongruent	Block3	incongruent/STIM_026.jpg	99
2781.359	0.599	598.7	incongruent	Block3	incongruent/STIM_026.jpg	100
2784.052	0.841	841.2	incongruent	Block3	incongruent/STIM_027.jpg	100
2788.096	0.653	653.3	incongruent	Block3	incongruent/STIM_027.jpg	100
2791.316	0.542	541.8	incongruent	Block3	incongruent/STIM_027.jpg	99
2794.572	0.525	525.4	incongruent	Block3	incongruent/STIM_027.jpg	100
2797.782	0.854	854.4	incongruent	Block3	incongruent/STIM_027.jpg	99
2801.349	0.848	848.0	incongruent	Block3	incongruent/STIM_028.jpg	100
2804.379	0.933	933.3	incongruent	Block3	incongruent/STIM_028.jpg	100
2809.123	0.74	739.5	incongruent	Block3	incongruent/STIM_028.jpg	99
2813.635	0.754	754.4	incongruent	Block3	incongruent/STIM_028.jpg	100
2816.545	0.662	661.8	incongruent	Block3	incongruent/STIM_028.jpg	100
2820.378	0.919	919.4	incongruent	Block3	incongruent/STIM_029.jpg	99
2823.399	0.702	702.4	incongruent	Block3	incongruent/STIM_029.jpg	99
2827.068	0.833	833.3	incongruent	Block3	incongruent/STIM_029.jpg	99
2831.406	0.816	815.8	incongruent	Block3	incongruent/STIM_029.jpg	100
2834.669	0.555	554.8	incongruent	Block3	incongruent/STIM_029.jpg	100
2838.049	0.661	660.7	congruent	Block3	congruent/STIM_000.jpg	100
2840.892	0.89	889.5	congruent	Block3	congruent/STIM_000.jpg	99
2844.74	0.546	545.6	congruent	Block3	congruent/STIM_000.jpg	100
2848.899	0.774	774.4	congruent	Block3	congruent/STIM_000.jpg	99
2852.214	0.843	843.4	congruent	Block3	congruent/STIM_000.jpg	99
2855.669	0.905	905.3	congruent	Block3	congruent/STIM_001.jpg	99
2859.711	0.755	755.0	congruent	Block3	congruent/STIM_001.jpg	99
2864.375	0.68	680.2	congruent	Block3	congruent/STIM_001.jpg	100
2868.512	0.899	899.4	congruent	Block3	congruent/STIM_001.jpg	99
2872.274	0.877	877.1	congruent	Block3	congruent/STIM_001.jpg	99
2876.883	0.775	774.8	congruent	Block3	congruent/STIM_002.jpg	100
2880.594	0.847	847.2	congruent	Block3	congruent/STIM_002.jpg	100
2885.088	0.606	606.2	congruent	Block3	congruent/STIM_002.jpg	99
2888.729	0.71	710.2	congruent	Block3	congruent/STIM_002.jpg	100
2892.789	0.561	561.3	congruent	Block3	congruent/STIM_002.jpg	99
2896.662	0.741	740.7	congruent	Block3	congruent/STIM_003.jpg	100
2899.525	0.885	884.9	congruent	Block3	congruent/STIM_003.jpg	100
2904.36	0.621	621.1	congruent	Block3	congruent/STIM_003.jpg	100
2907.759	0.805	805.2	congruent	Block3	congruent/STIM_003.jpg	99
2911.611	0.823	823.0	congruent	Block3	congruent/STIM_003.jpg	99
2915.722	0.827	826.9	congruent	Block3	congruent/STIM_004.jpg	99
2920.439	0.534	533.8	congruent	Block3	congruent/STIM_004.jpg	100
2923.867	0.61	610.2	congruent	Block3	congruent/STIM_004.jpg	99
2928.013	0.634	633.7	congruent	Block3	congruent/STIM_004.jpg	99
2931.613	0.72	719.8	congruent	Block3	congruent/STIM_004.jpg	99
2934.812	0.59	590.5	congruent	Block3	congruent/STIM_005.jpg	100
2938.821	0.562	562.1	congruent	Block3	congruent/STIM_005.jpg	100
2942.302	0.896	896.1	congruent	Block3	congruent/STIM_005.jpg	100
2947.042	0.629	628.8	congruent	Block3	congruent/STIM_005.jpg	99
2949.992	0.842	841.9	congruent	Block3	congruent/STIM_005.jpg	99
2953.399	0.89	890.2	congruent	Block3	congruent/STIM_006.jpg	100
2957.03	0.596	595.7	congruent	Block3	congruent/STIM_006.jpg	99
2961.272	0.857	856.8	congruent	Block3	congruent/STIM_006.jpg	100
2965.168	0.868	868.2	congruent	Block3	congruent/STIM_006.jpg	99
2968.497	0.86	860.0	congruent	Block3	congruent/STIM_006.jpg	100
2971.363	0.843	842.6	congruent	Block3	congruent/STIM_007.jpg	99
2975.757	0.868	868.4	congruent	Block3	congruent/STIM_007.jpg	99
2980.2	0.725	724.7	congruent	Block3	congruent/STIM_007.jpg	99
2983.888	0.745	744.8	congruent	Block3	congruent/STIM_007.jpg	99
2988.244	0.803	802.9	congruent	Block3	congruent/STIM_007.jpg	100
2993.009	0.858	858.4	congruent	Block3	congruent/STIM_008.jpg	99
2996.824	0.758	757.8	congruent	Block3	congruent/STIM_008.jpg	99
3000.427	0.711	710.6	congruent	Block3	congruent/STIM_008.jpg	100
3004.424	0.738	738.5	congruent	Block3	congruent/STIM_008.jpg	99
3008.567	0.616	615.5	congruent	Block3	congruent/STIM_008.jpg	99
3012.692	0.828	827.7	congruent	Block3	congruent/STIM_009.jpg	100
3016.81	0.715	715.0	congruent	Block3	congruent/STIM_009.jpg	99
3021.298	0.827	827.0	congruent	Block3	congruent/STIM_009.jpg	100
3025.556	0.574	574.1	congruent	Block3	congruent/STIM_009.jpg	99
3028.711	0.79	790.4	congruent	Block3	congruent/STIM_009.jpg	100
3032.587	0.667	666.9	congruent	Block3	congruent/STIM_010.jpg	99
3035.391	0.901	900.9	congruent	Block3	congruent/STIM_010.jpg	99
3039.225	0.756	756.4	congruent	Block3	congruent/STIM_010.jpg	99
3043.708	0.65	650.2	congruent	Block3	congruent/STIM_010.jpg	99
3048.257	0.829	829.0	congruent	Block3	congruent/STIM_010.jpg	99
3051.52	0.674	673.5	congruent	Block3	congruent/STIM_011.jpg	99
3055.382	0.738	738.1	congruent	Block3	congruent/STIM_011.jpg	100
3059.335	0.866	865.5	congruent	Block3	congruent/STIM_011.jpg	99
3062.712	0.534	533.6	congruent	Block3	congruent/STIM_011.jpg	100
3067.013	0.62	620.5	congruent	Block3	congruent/STIM_011.jpg	99
3071.471	0.725	724.9	congruent	Block3	congruent/STIM_012.jpg	99
3074.561	0.718	718.4	congruent	Block3	congruent/STIM_012.jpg	99
3078.734	0.866	865.9	congruent	Block3	congruent/STIM_012.jpg	99
3083.224	0.904	903.8	congruent	Block3	congruent/STIM_012.jpg	100
3086.51	0.664	663.8	congruent	Block3	congruent/STIM_012.jpg	99
3090.066	0.846	846.2	congruent	Block3	congruent/STIM_013.jpg	99
3094.131	0.772	771.5	congruent	Block3	congruent/STIM_013.jpg	99
3097.44	0.563	562.8	congruent	Block3	congruent/STIM_013.jpg	99
3101.745	0.692	691.8	congruent	Block3	congruent/STIM_013.jpg	100
3105.39	0.536	535.7	congruent	Block3	congruent/STIM_013.jpg	99
3109.17	0.913	913.2	congruent	Block3	congruent/STIM_014.jpg	100
3113.026	0.659	658.8	congruent	Block3	congruent/STIM_014.jpg	99
3117.473	0.944	943.5	congruent	Block3	congruent/STIM_014.jpg	100
3120.862	0.845	845.2	congruent	Block3	congruent/STIM_014.jpg	100
3124.642	0.902	902.0	congruent	Block3	congruent/STIM_014.jpg	99
3129.177	0.856	856.5	congruent	Block3	congruent/STIM_015.jpg	99
3132.628	0.766	765.8	congruent	Block3	congruent/STIM_015.jpg	99
3135.438	0.881	881.3	congruent	Block3	congruent/STIM_015.jpg	100
3139.053	0.829	829.1	congruent	Block3	congruent/STIM_015.jpg	99
3142.483	0.697	696.9	congruent	Block3	congruent/STIM_015.jpg	99
3145.914	0.908	908.4	congruent	Block3	congruent/STIM_016.jpg	100
3150.415	0.922	921.9	congruent	Block3	congruent/STIM_016.jpg	100
3155.27	0.62	619.9	congruent	Block3	congruent/STIM_016.jpg	99
3158.988	0.549	549.2	congruent	Block3	congruent/STIM_016.jpg	100
3162.548	0.566	566.0	congruent	Block3	congruent/STIM_016.jpg	99
3165.606	0.672	671.9	congruent	Block3	congruent/STIM_017.jpg	99
3169.764	0.779	779.1	congruent	Block3	congruent/STIM_017.jpg	100
3173.601	0.596	595.8	congruent	Block3	congruent/STIM_017.jpg	99
3176.412	0.788	787.9	congruent	Block3	congruent/STIM_017.jpg	100
3180.542	0.895	895.4	congruent	Block3	congruent/STIM_017.jpg	100
3185.128	0.857	857.1	congruent	Block3	congruent/STIM_018.jpg	100
3189.459	0.572	572.3	congruent	Block3	congruent/STIM_018.jpg	99
3193.168	0.538	537.7	congruent	Block3	congruent/STIM_018.jpg	99
3196.495	0.772	771.7	congruent	Block3	congruent/STIM_018.jpg	99
3199.394	0.717	716.8	congruent	Block3	congruent/STIM_018.jpg	100
3203.647	0.792	791.7	congruent	Block3	congruent/STIM_019.jpg	99
3207.125	0.891	891.2	congruent	Block3	congruent/STIM_019.jpg	99
3211.123	0.606	605.8	congruent	Block3	congruent/STIM_019.jpg	99
3215.102	0.84	840.4	congruent	Block3	congruent/STIM_019.jpg	99
3219.768	0.874	874.2	congruent	Block3	congruent/STIM_019.jpg	99
3222.974	0.7	700.1	congruent	Block3	congruent/STIM_020.jpg	99
3227.252	0.56	560.0	congruent	Block3	congruent/STIM_020.jpg	99
3230.319	0.739	738.9	congruent	Block3	congruent/STIM_020.jpg	100
3234.136	0.874	873.5	congruent	Block3	congruent/STIM_020.jpg	100
3238.951	0.857	857.3	congruent	Block3	congruent/STIM_020.jpg	100
3243.123	0.682	681.8	congruent	Block3	congruent/STIM_021.jpg	99
3246.658	0.778	777.9	congruent	Block3	congruent/STIM_021.jpg	99
3250.945	0.694	694.0	congruent	Block3	congruent/STIM_021.jpg	100
3254.291	0.934	934.5	congruent	Block3	congruent/STIM_021.jpg	99
3257.302	0.62	620.3	congruent	Block3	congruent/STIM_021.jpg	100
3260.756	0.628	628.4	congruent	Block3	congruent/STIM_022.jpg	99
3263.491	0.736	736.4	congruent	Block3	congruent/STIM_022.jpg	100
3268.164	0.697	696.9	congruent	Block3	congruent/STIM_022.jpg	100
3271.115	0.656	655.7	congruent	Block3	congruent/STIM_022.jpg	99
3275.51	0.77	770.5	congruent	Block3	congruent/STIM_022.jpg	99
3279.704	0.706	706.5	congruent	Block3	congruent/STIM_023.jpg	99
3283.345	0.687	686.7	congruent	Block3	congruent/STIM_023.jpg	99
3286.512	0.924	923.7	congruent	Block3	congruent/STIM_023.jpg	99
3289.854	0.829	828.9	congruent	Block3	congruent/STIM_023.jpg	100
3293.868	0.907	906.7	congruent	Block3	congruent/STIM_023.jpg	100
3298.534	0.616	616.1	congruent	Block3	congruent/STIM_024.jpg	100
3302.704	0.685	685.3	congruent	Block3	congruent/STIM_024.jpg	99
3305.678	0.905	904.8	congruent	Block3	congruent/STIM_024.jpg	100
3308.824	0.865	865.0	congruent	Block3	congruent/STIM_024.jpg	99
3312.768	0.703	702.9	congruent	Block3	congruent/STIM_024.jpg	99
3316.682	0.674	674.5	congruent	Block3	congruent/STIM_025.jpg	100
3320.907	0.919	919.2	congruent	Block3	congruent/STIM_025.jpg	100
3325.439	0.555	554.9	congruent	Block3	congruent/STIM_025.jpg	100
3328.67	0.566	565.7	congruent	Block3	congruent/STIM_025.jpg	99
3332.952	0.829	828.6	congruent	Block3	congruent/STIM_025.jpg	100
3336.71	0.88	879.7	congruent	Block3	congruent/STIM_026.jpg	99
3339.601	0.944	943.5	congruent	Block3	congruent/STIM_026.jpg	100
3342.831	0.91	909.9	congruent	Block3	congruent/STIM_026.jpg	100
3345.96	0.602	602.5	congruent	Block3	congruent/STIM_026.jpg	99
3349.968	0.68	680.2	congruent	Block3	congruent/STIM_026.jpg	100
3353.858	0.628	627.7	congruent	Block3	congruent/STIM_027.jpg	99
3358.192	0.862	861.9	congruent	Block3	congruent/STIM_027.jpg	100
3362.689	0.661	660.6	congruent	Block3	congruent/STIM_027.jpg	99
3365.605	0.841	841.3	congruent	Block3	congruent/STIM_027.jpg	99
3369.784	0.807	806.9	congruent	Block3	congruent/STIM_027.jpg	99
3373.099	0.685	684.8	congruent	Block3	congruent/STIM_028.jpg	99
3376.712	0.656	656.0	congruent	Block3	congruent/STIM_028.jpg	99
3381.215	0.722	722.1	congruent	Block3	congruent/STIM_028.jpg	99
3385.682	0.886	885.6	congruent	Block3	congruent/STIM_028.jpg	99
3390.228	0.571	570.7	congruent	Block3	congruent/STIM_028.jpg	100
3394.06	0.736	736.0	congruent	Block3	congruent/STIM_029.jpg	99
3398.548	0.583	582.9	congruent	Block3	congruent/STIM_029.jpg	99
3401.411	0.871	870.8	congruent	Block3	congruent/STIM_029.jpg	100
3406.09	0.58	579.7	congruent	Block3	congruent/STIM_029.jpg	100
3409.363	0.682	682.5	congruent	Block3	congruent/STIM_029.jpg	100
