onset	duration	accuracy_binary	trial_type	learning_stage	stimulus
0.0	2.027	1	regulate	Run1	regulate/STIM_000.jpg
6.065	2.42	0	regulate	Run1	regulate/STIM_000.jpg
11.821	2.246	1	regulate	Run1	regulate/STIM_000.jpg
17.331	1.912	1	regulate	Run1	regulate/STIM_000.jpg
23.066	2.073	1	regulate	Run1	regulate/STIM_001.jpg
28.615	1.937	1	regulate	Run1	regulate/STIM_001.jpg
33.625	2.665	0	regulate	Run1	regulate/STIM_001.jpg
39.605	1.557	0	regulate	Run1	regulate/STIM_001.jpg
44.964	2.38	1	regulate	Run1	regulate/STIM_002.jpg
49.777	1.553	1	regulate	Run1	regulate/STIM_002.jpg
54.487	2.626	1	regulate	Run1	regulate/STIM_002.jpg
60.568	1.673	1	regulate	Run1	regulate/STIM_002.jpg
65.875	2.467	1	regulate	Run1	regulate/STIM_003.jpg
70.845	3.033	1	regulate	Run1	regulate/STIM_003.jpg
77.003	1.955	1	regulate	Run1	regulate/STIM_003.jpg
81.658	1.352	1	regulate	Run1	regulate/STIM_003.jpg
86.174	1.74	1	regulate	Run1	regulate/STIM_004.jpg
91.273	2.068	1	regulate	Run1	regulate/STIM_004.jpg
96.819	1.291	1	regulate	Run1	regulate/STIM_004.jpg
100.794	1.727	1	regulate	Run1	regulate/STIM_004.jpg
104.971	2.174	1	regulate	Run1	regulate/STIM_005.jpg
110.181	2.065	0	regulate	Run1	regulate/STIM_005.jpg
115.332	2.847	0	regulate	Run1	regulate/STIM_005.jpg
121.275	2.066	1	regulate	Run1	regulate/STIM_005.jpg
126.532	2.219	1	regulate	Run1	regulate/STIM_006.jpg
131.964	2.821	1	regulate	Run1	regulate/STIM_006.jpg
138.012	2.233	1	regulate	Run1	regulate/STIM_006.jpg
143.087	1.901	0	regulate	Run1	regulate/STIM_006.jpg
148.71	2.967	1	regulate	Run1	regulate/STIM_007.jpg
155.636	1.275	0	regulate	Run1	regulate/STIM_007.jpg
159.358	2.873	0	regulate	Run1	regulate/STIM_007.jpg
164.885	1.761	1	regulate	Run1	regulate/STIM_007.jpg
169.072	1.328	0	regulate	Run1	regulate/STIM_008.jpg
174.486	3.087	0	regulate	Run1	regulate/STIM_008.jpg
181.451	1.42	0	regulate	Run1	regulate/STIM_008.jpg
185.996	1.834	1	regulate	Run1	regulate/STIM_008.jpg
190.787	2.116	1	regulate	Run1	regulate/STIM_009.jpg
195.886	1.311	1	regulate	Run1	regulate/STIM_009.jpg
201.244	2.599	1	regulate	Run1	regulate/STIM_009.jpg
206.45	2.305	0	regulate	Run1	regulate/STIM_009.jpg
211.828	2.337	1	regulate	Run1	regulate/STIM_010.jpg
217.554	2.326	1	regulate	Run1	regulate/STIM_010.jpg
222.205	2.872	1	regulate	Run1	regulate/STIM_010.jpg
227.874	1.687	1	regulate	Run1	regulate/STIM_010.jpg
233.264	2.968	1	regulate	Run1	regulate/STIM_011.jpg
239.962	2.257	1	regulate	Run1	regulate/STIM_011.jpg
244.728	1.318	1	regulate	Run1	regulate/STIM_011.jpg
249.884	1.575	1	regulate	Run1	regulate/STIM_011.jpg
254.275	3.109	0	regulate	Run1	regulate/STIM_012.jpg
259.894	2.832	0	regulate	Run1	regulate/STIM_012.jpg
265.538	1.5	1	regulate	Run1	regulate/STIM_012.jpg
270.969	1.5	1	regulate	Run1	regulate/STIM_012.jpg
274.726	2.949	1	regulate	Run1	regulate/STIM_013.jpg
281.519	2.13	1	regulate	Run1	regulate/STIM_013.jpg
287.303	2.759	0	regulate	Run1	regulate/STIM_013.jpg
292.571	2.678	1	regulate	Run1	regulate/STIM_013.jpg
298.754	1.982	0	regulate	Run1	regulate/STIM_014.jpg
304.544	3.0	1	regulate	Run1	regulate/STIM_014.jpg
310.965	2.357	1	regulate	Run1	regulate/STIM_014.jpg
315.826	1.548	1	regulate	Run1	regulate/STIM_014.jpg
320.892	2.906	1	regulate	Run1	regulate/STIM_015.jpg
327.349	2.542	1	regulate	Run1	regulate/STIM_015.jpg
332.237	2.78	0	regulate	Run1	regulate/STIM_015.jpg
338.864	2.508	1	regulate	Run1	regulate/STIM_015.jpg
343.677	2.218	1	regulate	Run1	regulate/STIM_016.jpg
348.977	2.732	1	regulate	Run1	regulate/STIM_016.jpg
355.176	2.157	1	regulate	Run1	regulate/STIM_016.jpg
360.135	2.427	1	regulate	Run1	regulate/STIM_016.jpg
365.818	2.049	0	regulate	Run1	regulate/STIM_017.jpg
370.522	2.574	1	regulate	Run1	regulate/STIM_017.jpg
376.703	2.275	1	regulate	Run1	regulate/STIM_017.jpg
381.756	2.084	1	regulate	Run1	regulate/STIM_017.jpg
387.741	3.308	0	regulate	Run1	regulate/STIM_018.jpg
395.159	1.466	1	regulate	Run1	regulate/STIM_018.jpg
399.641	1.686	1	regulate	Run1	regulate/STIM_018.jpg
403.642	1.482	1	regulate	Run1	regulate/STIM_018.jpg
407.915	2.134	1	regulate	Run1	regulate/STIM_019.jpg
412.412	2.213	1	regulate	Run1	regulate/STIM_019.jpg
418.471	2.069	1	regulate	Run1	regulate/STIM_019.jpg
423.276	1.335	1	regulate	Run1	regulate/STIM_019.jpg
426.984	1.386	0	regulate	Run1	regulate/STIM_020.jpg
430.633	2.55	1	regulate	Run1	regulate/STIM_020.jpg
436.751	1.71	1	regulate	Run1	regulate/STIM_020.jpg
442.373	1.227	1	regulate	Run1	regulate/STIM_020.jpg
447.548	2.629	1	regulate	Run1	regulate/STIM_021.jpg
454.068	2.294	1	regulate	Run1	regulate/STIM_021.jpg
459.603	2.861	1	regulate	Run1	regulate/STIM_021.jpg
466.099	2.167	1	regulate	Run1	regulate/STIM_021.jpg
472.045	2.841	1	regulate	Run1	regulate/STIM_022.jpg
477.163	2.04	1	regulate	Run1	regulate/STIM_022.jpg
482.74	1.626	1	regulate	Run1	regulate/STIM_022.jpg
486.925	1.404	1	regulate	Run1	regulate/STIM_022.jpg
491.992	1.464	1	regulate	Run1	regulate/STIM_023.jpg
496.229	1.635	1	regulate	Run1	regulate/STIM_023.jpg
501.138	2.063	1	regulate	Run1	regulate/STIM_023.jpg
507.265	1.69	1	regulate	Run1	regulate/STIM_023.jpg
512.267	1.693	1	regulate	Run1	regulate/STIM_024.jpg
517.134	2.401	1	regulate	Run1	regulate/STIM_024.jpg
522.001	1.931	1	regulate	Run1	regulate/STIM_024.jpg
528.224	1.735	1	regulate	Run1	regulate/STIM_024.jpg
533.445	1.753	0	regulate	Run1	regulate/STIM_025.jpg
538.728	2.813	0	regulate	Run1	regulate/STIM_025.jpg
544.9	2.586	1	regulate	Run1	regulate/STIM_025.jpg
550.667	1.686	1	regulate	Run1	regulate/STIM_025.jpg
555.564	2.572	1	regulate	Run1	regulate/STIM_026.jpg
562.085	2.636	1	regulate	Run1	regulate/STIM_026.jpg
568.485	1.742	1	regulate	Run1	regulate/STIM_026.jpg
573.915	1.623	1	regulate	Run1	regulate/STIM_026.jpg
577.829	2.852	0	regulate	Run1	regulate/STIM_027.jpg
583.262	3.02	0	regulate	Run1	regulate/STIM_027.jpg
589.987	2.916	1	regulate	Run1	regulate/STIM_027.jpg
596.606	1.874	0	regulate	Run1	regulate/STIM_027.jpg
600.75	2.418	1	regulate	Run1	regulate/STIM_028.jpg
605.728	3.008	1	regulate	Run1	regulate/STIM_028.jpg
611.891	1.488	0	regulate	Run1	regulate/STIM_028.jpg
615.736	2.081	1	regulate	Run1	regulate/STIM_028.jpg
621.252	1.957	0	regulate	Run1	regulate/STIM_029.jpg
625.588	1.97	1	regulate	Run1	regulate/STIM_029.jpg
630.683	1.767	1	regulate	Run1	regulate/STIM_029.jpg
635.668	2.8	1	regulate	Run1	regulate/STIM_029.jpg
641.677	1.149	1	observe	Run1	observe/STIM_000.jpg
646.43	1.263	1	observe	Run1	observe/STIM_000.jpg
650.939	0.974	1	observe	Run1	observe/STIM_000.jpg
655.86	1.392	1	observe	Run1	observe/STIM_000.jpg
661.08	1.306	1	observe	Run1	observe/STIM_001.jpg
665.352	0.851	1	observe	Run1	observe/STIM_001.jpg
669.843	1.355	1	observe	Run1	observe/STIM_001.jpg
674.861	1.364	0	observe	Run1	observe/STIM_001.jpg
678.431	0.922	1	observe	Run1	observe/STIM_002.jpg
682.92	0.727	1	observe	Run1	observe/STIM_002.jpg
686.265	1.437	1	observe	Run1	observe/STIM_002.jpg
690.767	0.751	1	observe	Run1	observe/STIM_002.jpg
693.861	1.215	1	observe	Run1	observe/STIM_003.jpg
697.575	1.205	1	observe	Run1	observe/STIM_003.jpg
701.719	0.873	1	observe	Run1	observe/STIM_003.jpg
706.494	1.279	1	observe	Run1	observe/STIM_003.jpg
711.268	1.327	1	observe	Run1	observe/STIM_004.jpg
714.863	1.376	1	observe	Run1	observe/STIM_004.jpg
718.42	1.108	1	observe	Run1	observe/STIM_004.jpg
721.89	0.919	1	observe	Run1	observe/STIM_004.jpg
726.057	0.983	1	observe	Run1	observe/STIM_005.jpg
729.818	1.079	0	observe	Run1	observe/STIM_005.jpg
733.718	0.913	1	observe	Run1	observe/STIM_005.jpg
737.194	1.358	1	observe	Run1	observe/STIM_005.jpg
741.408	1.222	0	observe	Run1	observe/STIM_006.jpg
746.317	1.447	1	observe	Run1	observe/STIM_006.jpg
751.081	0.831	1	observe	Run1	observe/STIM_006.jpg
754.349	0.808	1	observe	Run1	observe/STIM_006.jpg
758.78	1.251	1	observe	Run1	observe/STIM_007.jpg
762.272	0.919	1	observe	Run1	observe/STIM_007.jpg
766.432	0.787	1	observe	Run1	observe/STIM_007.jpg
769.428	1.205	1	observe	Run1	observe/STIM_007.jpg
774.058	0.852	1	observe	Run1	observe/STIM_008.jpg
778.972	1.486	1	observe	Run1	observe/STIM_008.jpg
784.011	1.299	1	observe	Run1	observe/STIM_008.jpg
788.229	1.245	1	observe	Run1	observe/STIM_008.jpg
791.845	1.478	1	observe	Run1	observe/STIM_009.jpg
797.325	0.831	0	observe	Run1	observe/STIM_009.jpg
801.936	0.935	1	observe	Run1	observe/STIM_009.jpg
805.664	1.407	1	observe	Run1	observe/STIM_009.jpg
810.078	1.206	0	observe	Run1	observe/STIM_010.jpg
813.356	0.851	1	observe	Run1	observe/STIM_010.jpg
817.926	0.987	1	observe	Run1	observe/STIM_010.jpg
821.481	0.811	1	observe	Run1	observe/STIM_010.jpg
825.598	1.345	1	observe	Run1	observe/STIM_011.jpg
829.547	1.342	1	observe	Run1	observe/STIM_011.jpg
833.847	1.502	1	observe	Run1	observe/STIM_011.jpg
838.863	1.098	0	observe	Run1	observe/STIM_011.jpg
842.564	1.121	1	observe	Run1	observe/STIM_012.jpg
845.97	0.702	0	observe	Run1	observe/STIM_012.jpg
849.986	1.076	1	observe	Run1	observe/STIM_012.jpg
853.575	1.429	1	observe	Run1	observe/STIM_012.jpg
858.677	0.938	1	observe	Run1	observe/STIM_013.jpg
862.166	1.249	1	observe	Run1	observe/STIM_013.jpg
867.082	1.407	1	observe	Run1	observe/STIM_013.jpg
872.111	1.076	1	observe	Run1	observe/STIM_013.jpg
875.886	0.821	1	observe	Run1	observe/STIM_014.jpg
878.76	0.8	0	observe	Run1	observe/STIM_014.jpg
881.963	0.703	1	observe	Run1	observe/STIM_014.jpg
886.429	1.114	1	observe	Run1	observe/STIM_014.jpg
890.838	0.919	1	observe	Run1	observe/STIM_015.jpg
893.922	0.963	1	observe	Run1	observe/STIM_015.jpg
897.24	0.977	1	observe	Run1	observe/STIM_015.jpg
901.859	1.317	1	observe	Run1	observe/STIM_015.jpg
905.947	1.092	1	observe	Run1	observe/STIM_016.jpg
909.228	1.165	1	observe	Run1	observe/STIM_016.jpg
913.161	0.938	1	observe	Run1	observe/STIM_016.jpg
916.301	0.933	1	observe	Run1	observe/STIM_016.jpg
921.318	0.835	1	observe	Run1	observe/STIM_017.jpg
924.629	1.043	1	observe	Run1	observe/STIM_017.jpg
927.917	0.947	1	observe	Run1	observe/STIM_017.jpg
931.323	1.218	1	observe	Run1	observe/STIM_017.jpg
935.293	1.374	1	observe	Run1	observe/STIM_018.jpg
939.637	1.231	1	observe	Run1	observe/STIM_018.jpg
944.328	1.096	1	observe	Run1	observe/STIM_018.jpg
948.548	0.752	1	observe	Run1	observe/STIM_018.jpg
952.512	0.965	1	observe	Run1	observe/STIM_019.jpg
957.001	1.331	1	observe	Run1	observe/STIM_019.jpg
961.521	1.112	0	observe	Run1	observe/STIM_019.jpg
966.185	0.845	1	observe	Run1	observe/STIM_019.jpg
970.394	2.438	1	regulate	Run2	regulate/STIM_000.jpg
976.23	1.574	1	regulate	Run2	regulate/STIM_000.jpg
981.627	1.615	1	regulate	Run2	regulate/STIM_000.jpg
986.964	2.148	1	regulate	Run2	regulate/STIM_000.jpg
992.112	1.69	1	regulate	Run2	regulate/STIM_001.jpg
996.017	2.111	1	regulate	Run2	regulate/STIM_001.jpg
1000.482	1.311	0	regulate	Run2	regulate/STIM_001.jpg
1005.514	0.931	1	regulate	Run2	regulate/STIM_001.jpg
1009.362	1.381	1	regulate	Run2	regulate/STIM_002.jpg
1013.701	1.209	1	regulate	Run2	regulate/STIM_002.jpg
1017.983	2.201	1	regulate	Run2	regulate/STIM_002.jpg
1022.546	0.944	1	regulate	Run2	regulate/STIM_002.jpg
1025.757	1.604	1	regulate	Run2	regulate/STIM_003.jpg
1030.869	1.58	1	regulate	Run2	regulate/STIM_003.jpg
1035.118	2.317	1	regulate	Run2	regulate/STIM_003.jpg
1040.059	2.247	1	regulate	Run2	regulate/STIM_003.jpg
1046.143	2.513	1	regulate	Run2	regulate/STIM_004.jpg
1052.488	1.351	1	regulate	Run2	regulate/STIM_004.jpg
1057.564	1.502	1	regulate	Run2	regulate/STIM_004.jpg
1062.887	0.985	1	regulate	Run2	regulate/STIM_004.jpg
1066.279	1.872	1	regulate	Run2	regulate/STIM_005.jpg
1070.678	1.057	1	regulate	Run2	regulate/STIM_005.jpg
1075.784	1.143	1	regulate	Run2	regulate/STIM_005.jpg
1081.149	1.323	1	regulate	Run2	regulate/STIM_005.jpg
1085.37	2.151	1	regulate	Run2	regulate/STIM_006.jpg
1089.842	1.589	1	regulate	Run2	regulate/STIM_006.jpg
1095.451	1.527	1	regulate	Run2	regulate/STIM_006.jpg
1100.173	1.375	1	regulate	Run2	regulate/STIM_006.jpg
1105.004	1.502	1	regulate	Run2	regulate/STIM_007.jpg
1109.491	1.721	1	regulate	Run2	regulate/STIM_007.jpg
1113.897	1.618	1	regulate	Run2	regulate/STIM_007.jpg
1119.292	1.99	1	regulate	Run2	regulate/STIM_007.jpg
1125.336	2.073	1	regulate	Run2	regulate/STIM_008.jpg
1131.547	1.746	1	regulate	Run2	regulate/STIM_008.jpg
1137.434	1.697	1	regulate	Run2	regulate/STIM_008.jpg
1142.28	1.993	1	regulate	Run2	regulate/STIM_008.jpg
1148.345	1.441	1	regulate	Run2	regulate/STIM_009.jpg
1153.553	1.709	1	regulate	Run2	regulate/STIM_009.jpg
1158.295	2.195	1	regulate	Run2	regulate/STIM_009.jpg
1163.28	1.936	0	regulate	Run2	regulate/STIM_009.jpg
1168.372	2.163	1	regulate	Run2	regulate/STIM_010.jpg
1173.277	2.366	1	regulate	Run2	regulate/STIM_010.jpg
1179.222	2.327	1	regulate	Run2	regulate/STIM_010.jpg
1184.209	1.455	1	regulate	Run2	regulate/STIM_010.jpg
1189.753	2.123	0	regulate	Run2	regulate/STIM_011.jpg
1194.416	1.284	1	regulate	Run2	regulate/STIM_011.jpg
1199.769	1.152	1	regulate	Run2	regulate/STIM_011.jpg
1203.661	1.991	1	regulate	Run2	regulate/STIM_011.jpg
1208.634	2.54	1	regulate	Run2	regulate/STIM_012.jpg
1214.84	1.671	1	regulate	Run2	regulate/STIM_012.jpg
1219.008	1.767	1	regulate	Run2	regulate/STIM_012.jpg
1223.489	1.848	1	regulate	Run2	regulate/STIM_012.jpg
1228.358	2.214	1	regulate	Run2	regulate/STIM_013.jpg
1233.636	1.58	1	regulate	Run2	regulate/STIM_013.jpg
1239.421	2.317	1	regulate	Run2	regulate/STIM_013.jpg
1244.267	1.576	1	regulate	Run2	regulate/STIM_013.jpg
1248.223	2.667	1	regulate	Run2	regulate/STIM_014.jpg
1253.683	2.373	0	regulate	Run2	regulate/STIM_014.jpg
1260.093	2.249	1	regulate	Run2	regulate/STIM_014.jpg
1265.017	1.593	1	regulate	Run2	regulate/STIM_014.jpg
1268.873	1.797	0	regulate	Run2	regulate/STIM_015.jpg
1273.083	2.129	1	regulate	Run2	regulate/STIM_015.jpg
1278.805	1.319	0	regulate	Run2	regulate/STIM_015.jpg
1283.536	1.085	1	regulate	Run2	regulate/STIM_015.jpg
1287.506	2.513	1	regulate	Run2	regulate/STIM_016.jpg
1293.913	1.433	1	regulate	Run2	regulate/STIM_016.jpg
1298.061	1.217	1	regulate	Run2	regulate/STIM_016.jpg
1302.495	1.773	1	regulate	Run2	regulate/STIM_016.jpg
1306.882	2.363	0	regulate	Run2	regulate/STIM_017.jpg
1312.019	2.621	1	regulate	Run2	regulate/STIM_017.jpg
1318.098	1.755	1	regulate	Run2	regulate/STIM_017.jpg
1322.569	1.259	1	regulate	Run2	regulate/STIM_017.jpg
1326.297	1.326	1	regulate	Run2	regulate/STIM_018.jpg
1330.194	1.72	1	regulate	Run2	regulate/STIM_018.jpg
1336.035	2.45	1	regulate	Run2	regulate/STIM_018.jpg
1340.754	0.98	1	regulate	Run2	regulate/STIM_018.jpg
1344.617	1.897	1	regulate	Run2	regulate/STIM_019.jpg
1350.039	1.843	1	regulate	Run2	regulate/STIM_019.jpg
1354.605	1.341	1	regulate	Run2	regulate/STIM_019.jpg
1359.087	1.458	1	regulate	Run2	regulate/STIM_019.jpg
1363.442	1.317	1	regulate	Run2	regulate/STIM_020.jpg
1368.454	2.271	1	regulate	Run2	regulate/STIM_020.jpg
1374.692	1.39	1	regulate	Run2	regulate/STIM_020.jpg
1378.243	1.742	0	regulate	Run2	regulate/STIM_020.jpg
1383.997	2.438	1	regulate	Run2	regulate/STIM_021.jpg
1389.615	1.524	1	regulate	Run2	regulate/STIM_021.jpg
1393.653	1.284	0	regulate	Run2	regulate/STIM_021.jpg
1398.288	2.187	1	regulate	Run2	regulate/STIM_021.jpg
1404.473	1.38	1	regulate	Run2	regulate/STIM_022.jpg
1408.91	1.684	1	regulate	Run2	regulate/STIM_022.jpg
1413.735	1.733	1	regulate	Run2	regulate/STIM_022.jpg
1417.972	2.012	1	regulate	Run2	regulate/STIM_022.jpg
1423.292	2.357	1	regulate	Run2	regulate/STIM_023.jpg
1429.577	2.23	1	regulate	Run2	regulate/STIM_023.jpg
1435.371	1.221	1	regulate	Run2	regulate/STIM_023.jpg
1439.852	2.06	1	regulate	Run2	regulate/STIM_023.jpg
1445.316	2.221	1	regulate	Run2	regulate/STIM_024.jpg
1450.339	2.091	1	regulate	Run2	regulate/STIM_024.jpg
1456.326	1.882	1	regulate	Run2	regulate/STIM_024.jpg
1461.773	1.123	1	regulate	Run2	regulate/STIM_024.jpg
1466.372	1.238	1	regulate	Run2	regulate/STIM_025.jpg
1469.924	1.352	1	regulate	Run2	regulate/STIM_025.jpg
1474.054	1.284	1	regulate	Run2	regulate/STIM_025.jpg
1477.857	1.848	1	regulate	Run2	regulate/STIM_025.jpg
1483.895	1.922	0	regulate	Run2	regulate/STIM_026.jpg
1489.231	1.888	1	regulate	Run2	regulate/STIM_026.jpg
1495.064	1.12	1	regulate	Run2	regulate/STIM_026.jpg
1498.437	1.128	1	regulate	Run2	regulate/STIM_026.jpg
1502.353	1.662	1	regulate	Run2	regulate/STIM_027.jpg
1507.397	1.39	1	regulate	Run2	regulate/STIM_027.jpg
1511.627	1.455	1	regulate	Run2	regulate/STIM_027.jpg
1516.776	1.192	1	regulate	Run2	regulate/STIM_027.jpg
1520.516	1.923	1	regulate	Run2	regulate/STIM_028.jpg
1524.853	2.345	0	regulate	Run2	regulate/STIM_028.jpg
1529.811	2.409	1	regulate	Run2	regulate/STIM_028.jpg
1534.615	1.576	1	regulate	Run2	regulate/STIM_028.jpg
1539.557	1.378	1	regulate	Run2	regulate/STIM_029.jpg
1543.894	1.328	1	regulate	Run2	regulate/STIM_029.jpg
1548.199	1.543	1	regulate	Run2	regulate/STIM_029.jpg
1552.823	2.194	1	regulate	Run2	regulate/STIM_029.jpg
1559.167	1.177	1	observe	Run2	observe/STIM_000.jpg
1563.866	1.058	1	observe	Run2	observe/STIM_000.jpg
1568.775	1.277	0	observe	Run2	observe/STIM_000.jpg
1573.494	0.942	1	observe	Run2	observe/STIM_000.jpg
1577.26	1.025	0	observe	Run2	observe/STIM_001.jpg
1581.954	1.234	0	observe	Run2	observe/STIM_001.jpg
1586.206	1.227	1	observe	Run2	observe/STIM_001.jpg
1590.746	0.95	0	observe	Run2	observe/STIM_001.jpg
1594.56	1.149	0	observe	Run2	observe/STIM_002.jpg
1598.906	0.968	1	observe	Run2	observe/STIM_002.jpg
1603.728	1.333	1	observe	Run2	observe/STIM_002.jpg
1607.302	1.366	1	observe	Run2	observe/STIM_002.jpg
1611.196	1.193	1	observe	Run2	observe/STIM_003.jpg
1615.036	0.836	0	observe	Run2	observe/STIM_003.jpg
1619.619	0.853	1	observe	Run2	observe/STIM_003.jpg
1623.755	1.101	1	observe	Run2	observe/STIM_003.jpg
1628.41	1.202	1	observe	Run2	observe/STIM_004.jpg
1632.479	0.769	1	observe	Run2	observe/STIM_004.jpg
1635.502	1.218	1	observe	Run2	observe/STIM_004.jpg
1640.411	1.288	1	observe	Run2	observe/STIM_004.jpg
1644.949	1.068	1	observe	Run2	observe/STIM_005.jpg
1649.348	1.331	1	observe	Run2	observe/STIM_005.jpg
1654.542	0.973	1	observe	Run2	observe/STIM_005.jpg
1657.731	0.862	1	observe	Run2	observe/STIM_005.jpg
1662.387	1.138	0	observe	Run2	observe/STIM_006.jpg
1667.429	1.106	0	observe	Run2	observe/STIM_006.jpg
1670.853	0.976	1	observe	Run2	observe/STIM_006.jpg
1675.645	0.913	1	observe	Run2	observe/STIM_006.jpg
1679.462	0.824	1	observe	Run2	observe/STIM_007.jpg
1682.582	1.43	1	observe	Run2	observe/STIM_007.jpg
1687.305	1.112	1	observe	Run2	observe/STIM_007.jpg
1691.427	1.374	1	observe	Run2	observe/STIM_007.jpg
1695.746	1.403	0	observe	Run2	observe/STIM_008.jpg
1700.869	1.16	1	observe	Run2	observe/STIM_008.jpg
1704.468	1.357	0	observe	Run2	observe/STIM_008.jpg
1707.903	0.87	1	observe	Run2	observe/STIM_008.jpg
1711.36	0.967	1	observe	Run2	observe/STIM_009.jpg
1715.685	0.936	1	observe	Run2	observe/STIM_009.jpg
1720.647	1.454	0	observe	Run2	observe/STIM_009.jpg
1725.287	0.764	0	observe	Run2	observe/STIM_009.jpg
1729.902	1.345	1	observe	Run2	observe/STIM_010.jpg
1734.819	0.985	1	observe	Run2	observe/STIM_010.jpg
1739.842	1.166	1	observe	Run2	observe/STIM_010.jpg
1744.93	0.947	1	observe	Run2	observe/STIM_010.jpg
1748.74	0.759	1	observe	Run2	observe/STIM_011.jpg
1752.465	1.472	1	observe	Run2	observe/STIM_011.jpg
1757.305	0.894	1	observe	Run2	observe/STIM_011.jpg
1761.239	1.238	1	observe	Run2	observe/STIM_011.jpg
1765.202	1.321	1	observe	Run2	observe/STIM_012.jpg
1770.006	0.835	1	observe	Run2	observe/STIM_012.jpg
1774.048	1.045	1	observe	Run2	observe/STIM_012.jpg
1778.41	1.232	1	observe	Run2	observe/STIM_012.jpg
1782.542	1.386	1	observe	Run2	observe/STIM_013.jpg
1787.61	1.236	1	observe	Run2	observe/STIM_013.jpg
1791.811	1.139	1	observe	Run2	observe/STIM_013.jpg
1796.513	0.892	1	observe	Run2	observe/STIM_013.jpg
1800.513	0.741	1	observe	Run2	observe/STIM_014.jpg
1804.916	1.417	1	observe	Run2	observe/STIM_014.jpg
1809.183	1.294	1	observe	Run2	observe/STIM_014.jpg
1814.265	0.763	1	observe	Run2	observe/STIM_014.jpg
1818.068	1.261	1	observe	Run2	observe/STIM_015.jpg
1821.822	1.384	1	observe	Run2	observe/STIM_015.jpg
1825.473	0.739	1	observe	Run2	observe/STIM_015.jpg
1830.231	1.222	0	observe	Run2	observe/STIM_015.jpg
1835.114	1.406	0	observe	Run2	observe/STIM_016.jpg
1840.474	0.85	1	observe	Run2	observe/STIM_016.jpg
1844.776	1.068	1	observe	Run2	observe/STIM_016.jpg
1848.096	1.13	1	observe	Run2	observe/STIM_016.jpg
1851.645	1.04	1	observe	Run2	observe/STIM_017.jpg
1855.608	1.456	1	observe	Run2	observe/STIM_017.jpg
1859.822	0.875	1	observe	Run2	observe/STIM_017.jpg
1864.613	0.758	1	observe	Run2	observe/STIM_017.jpg
1869.186	1.3	1	observe	Run2	observe/STIM_018.jpg
1873.923	1.133	1	observe	Run2	observe/STIM_018.jpg
1878.13	1.411	1	observe	Run2	observe/STIM_018.jpg
1882.981	0.865	1	observe	Run2	observe/STIM_018.jpg
1887.226	1.185	1	observe	Run2	observe/STIM_019.jpg
1891.768	1.109	1	observe	Run2	observe/STIM_019.jpg
1896.143	1.081	1	observe	Run2	observe/STIM_019.jpg
1899.548	1.289	1	observe	Run2	observe/STIM_019.jpg
1904.624	1.787	1	regulate	Run3	regulate/STIM_000.jpg
1908.779	1.279	1	regulate	Run3	regulate/STIM_000.jpg
1913.577	1.92	1	regulate	Run3	regulate/STIM_000.jpg
1918.13	1.535	1	regulate	Run3	regulate/STIM_000.jpg
1922.92	1.512	1	regulate	Run3	regulate/STIM_001.jpg
1926.631	1.787	1	regulate	Run3	regulate/STIM_001.jpg
1931.365	2.059	1	regulate	Run3	regulate/STIM_001.jpg
1936.314	0.992	1	regulate	Run3	regulate/STIM_001.jpg
1939.935	1.18	1	regulate	Run3	regulate/STIM_002.jpg
1944.525	1.161	1	regulate	Run3	regulate/STIM_002.jpg
1949.344	1.361	1	regulate	Run3	regulate/STIM_002.jpg
1954.098	1.958	1	regulate	Run3	regulate/STIM_002.jpg
1959.731	1.967	1	regulate	Run3	regulate/STIM_003.jpg
1964.402	1.091	1	regulate	Run3	regulate/STIM_003.jpg
1968.119	1.703	1	regulate	Run3	regulate/STIM_003.jpg
1973.321	1.483	1	regulate	Run3	regulate/STIM_003.jpg
1978.621	1.792	1	regulate	Run3	regulate/STIM_004.jpg
1983.865	1.197	1	regulate	Run3	regulate/STIM_004.jpg
1988.591	1.572	1	regulate	Run3	regulate/STIM_004.jpg
1992.394	1.5	1	regulate	Run3	regulate/STIM_004.jpg
1996.13	1.264	1	regulate	Run3	regulate/STIM_005.jpg
2001.209	1.92	1	regulate	Run3	regulate/STIM_005.jpg
2007.076	1.949	1	regulate	Run3	regulate/STIM_005.jpg
2012.088	1.343	1	regulate	Run3	regulate/STIM_005.jpg
2016.704	1.699	1	regulate	Run3	regulate/STIM_006.jpg
2020.794	2.022	1	regulate	Run3	regulate/STIM_006.jpg
2026.419	1.629	1	regulate	Run3	regulate/STIM_006.jpg
2032.155	1.529	1	regulate	Run3	regulate/STIM_006.jpg
2035.712	2.172	1	regulate	Run3	regulate/STIM_007.jpg
2041.907	2.012	1	regulate	Run3	regulate/STIM_007.jpg
2046.113	0.995	0	regulate	Run3	regulate/STIM_007.jpg
2049.857	1.456	0	regulate	Run3	regulate/STIM_007.jpg
2054.799	1.405	1	regulate	Run3	regulate/STIM_008.jpg
2058.561	1.696	1	regulate	Run3	regulate/STIM_008.jpg
2062.517	1.046	1	regulate	Run3	regulate/STIM_008.jpg
2066.372	2.134	1	regulate	Run3	regulate/STIM_008.jpg
2072.36	1.848	1	regulate	Run3	regulate/STIM_009.jpg
2077.453	1.293	1	regulate	Run3	regulate/STIM_009.jpg
2080.84	1.579	1	regulate	Run3	regulate/STIM_009.jpg
2085.933	2.096	1	regulate	Run3	regulate/STIM_009.jpg
2090.916	1.533	1	regulate	Run3	regulate/STIM_010.jpg
2096.008	1.52	1	regulate	Run3	regulate/STIM_010.jpg
2100.919	1.186	1	regulate	Run3	regulate/STIM_010.jpg
2105.996	1.938	1	regulate	Run3	regulate/STIM_010.jpg
2111.057	1.128	1	regulate	Run3	regulate/STIM_011.jpg
2115.457	1.579	1	regulate	Run3	regulate/STIM_011.jpg
2119.847	1.532	1	regulate	Run3	regulate/STIM_011.jpg
2124.946	1.327	0	regulate	Run3	regulate/STIM_011.jpg
2129.415	1.152	0	regulate	Run3	regulate/STIM_012.jpg
2133.66	1.905	1	regulate	Run3	regulate/STIM_012.jpg
2139.381	1.11	1	regulate	Run3	regulate/STIM_012.jpg
2143.347	1.656	1	regulate	Run3	regulate/STIM_012.jpg
2147.978	2.033	1	regulate	Run3	regulate/STIM_013.jpg
2154.025	1.442	1	regulate	Run3	regulate/STIM_013.jpg
2158.421	1.332	1	regulate	Run3	regulate/STIM_013.jpg
2162.307	1.881	1	regulate	Run3	regulate/STIM_013.jpg
2167.94	1.37	1	regulate	Run3	regulate/STIM_014.jpg
2172.737	1.141	1	regulate	Run3	regulate/STIM_014.jpg
2176.158	1.981	1	regulate	Run3	regulate/STIM_014.jpg
2181.559	1.25	1	regulate	Run3	regulate/STIM_014.jpg
2185.035	1.064	1	regulate	Run3	regulate/STIM_015.jpg
2189.852	1.42	1	regulate	Run3	regulate/STIM_015.jpg
2194.063	1.53	1	regulate	Run3	regulate/STIM_015.jpg
2198.259	2.127	1	regulate	Run3	regulate/STIM_015.jpg
2203.702	1.479	1	regulate	Run3	regulate/STIM_016.jpg
2208.641	1.566	1	regulate	Run3	regulate/STIM_016.jpg
2214.033	1.203	1	regulate	Run3	regulate/STIM_016.jpg
2217.957	1.648	1	regulate	Run3	regulate/STIM_016.jpg
2222.521	1.472	1	regulate	Run3	regulate/STIM_017.jpg
2227.816	1.654	1	regulate	Run3	regulate/STIM_017.jpg
2233.016	1.392	1	regulate	Run3	regulate/STIM_017.jpg
2238.506	1.011	1	regulate	Run3	regulate/STIM_017.jpg
2242.078	1.706	0	regulate	Run3	regulate/STIM_018.jpg
2246.82	1.312	1	regulate	Run3	regulate/STIM_018.jpg
2250.204	1.678	1	regulate	Run3	regulate/STIM_018.jpg
2254.794	1.266	1	regulate	Run3	regulate/STIM_018.jpg
2258.636	1.213	1	regulate	Run3	regulate/STIM_019.jpg
2262.066	1.554	1	regulate	Run3	regulate/STIM_019.jpg
2265.973	1.172	1	regulate	Run3	regulate/STIM_019.jpg
2269.588	1.981	1	regulate	Run3	regulate/STIM_019.jpg
2274.928	0.964	1	regulate	Run3	regulate/STIM_020.jpg
2279.8	1.413	1	regulate	Run3	regulate/STIM_020.jpg
2283.473	1.917	1	regulate	Run3	regulate/STIM_020.jpg
2289.156	1.066	1	regulate	Run3	regulate/STIM_020.jpg
2293.306	2.027	1	regulate	Run3	regulate/STIM_021.jpg
2298.981	1.792	1	regulate	Run3	regulate/STIM_021.jpg
2303.324	1.38	1	regulate	Run3	regulate/STIM_021.jpg
2307.672	1.264	1	regulate	Run3	regulate/STIM_021.jpg
2311.511	1.498	1	regulate	Run3	regulate/STIM_022.jpg
2315.138	1.426	1	regulate	Run3	regulate/STIM_022.jpg
2319.661	2.171	1	regulate	Run3	regulate/STIM_022.jpg
2325.305	1.926	1	regulate	Run3	regulate/STIM_022.jpg
2329.706	1.611	1	regulate	Run3	regulate/STIM_023.jpg
2333.969	1.572	1	regulate	Run3	regulate/STIM_023.jpg
2339.256	1.993	1	regulate	Run3	regulate/STIM_023.jpg
2345.034	1.755	1	regulate	Run3	regulate/STIM_023.jpg
2350.571	1.347	1	regulate	Run3	regulate/STIM_024.jpg
2354.411	1.889	1	regulate	Run3	regulate/STIM_024.jpg
2360.016	1.933	1	regulate	Run3	regulate/STIM_024.jpg
2364.585	1.145	1	regulate	Run3	regulate/STIM_024.jpg
2368.175	1.335	1	regulate	Run3	regulate/STIM_025.jpg
2372.649	1.282	0	regulate	Run3	regulate/STIM_025.jpg
2377.951	2.16	1	regulate	Run3	regulate/STIM_025.jpg
2383.756	1.946	1	regulate	Run3	regulate/STIM_025.jpg
2388.321	1.893	1	regulate	Run3	regulate/STIM_026.jpg
2394.413	2.27	1	regulate	Run3	regulate/STIM_026.jpg
2399.816	2.188	1	regulate	Run3	regulate/STIM_026.jpg
2404.973	2.217	1	regulate	Run3	regulate/STIM_026.jpg
2409.517	2.027	1	regulate	Run3	regulate/STIM_027.jpg
2413.99	1.249	1	regulate	Run3	regulate/STIM_027.jpg
2417.781	1.864	1	regulate	Run3	regulate/STIM_027.jpg
2423.144	1.406	1	regulate	Run3	regulate/STIM_027.jpg
2427.004	1.708	1	regulate	Run3	regulate/STIM_028.jpg
2432.249	1.419	1	regulate	Run3	regulate/STIM_028.jpg
2435.925	2.006	1	regulate	Run3	regulate/STIM_028.jpg
2441.281	1.68	1	regulate	Run3	regulate/STIM_028.jpg
2445.485	1.332	1	regulate	Run3	regulate/STIM_029.jpg
2450.3	2.144	1	regulate	Run3	regulate/STIM_029.jpg
2456.096	1.158	1	regulate	Run3	regulate/STIM_029.jpg
2461.027	2.0	1	regulate	Run3	regulate/STIM_029.jpg
2466.598	1.061	0	observe	Run3	observe/STIM_000.jpg
2471.037	0.789	1	observe	Run3	observe/STIM_000.jpg
2474.11	1.038	1	observe	Run3	observe/STIM_000.jpg
2477.396	0.753	1	observe	Run3	observe/STIM_000.jpg
2481.829	0.805	1	observe	Run3	observe/STIM_001.jpg
2486.435	1.088	1	observe	Run3	observe/STIM_001.jpg
2489.705	1.148	1	observe	Run3	observe/STIM_001.jpg
2493.856	1.021	1	observe	Run3	observe/STIM_001.jpg
2498.506	0.8	1	observe	Run3	observe/STIM_002.jpg
2502.328	1.112	1	observe	Run3	observe/STIM_002.jpg
2506.246	1.022	1	observe	Run3	observe/STIM_002.jpg
2510.069	1.053	1	observe	Run3	observe/STIM_002.jpg
2514.171	1.144	1	observe	Run3	observe/STIM_003.jpg
2517.791	0.858	1	observe	Run3	observe/STIM_003.jpg
2521.138	1.172	1	observe	Run3	observe/STIM_003.jpg
2525.144	1.109	1	observe	Run3	observe/STIM_003.jpg
2529.2	1.268	1	observe	Run3	observe/STIM_004.jpg
2534.036	1.06	1	observe	Run3	observe/STIM_004.jpg
2538.285	1.173	1	observe	Run3	observe/STIM_004.jpg
2541.837	1.422	1	observe	Run3	observe/STIM_004.jpg
2545.41	0.959	1	observe	Run3	observe/STIM_005.jpg
2548.797	0.805	1	observe	Run3	observe/STIM_005.jpg
2553.505	1.309	1	observe	Run3	observe/STIM_005.jpg
2557.143	0.79	1	observe	Run3	observe/STIM_005.jpg
2561.208	1.315	1	observe	Run3	observe/STIM_006.jpg
2565.633	1.357	1	observe	Run3	observe/STIM_006.jpg
2570.583	0.932	1	observe	Run3	observe/STIM_006.jpg
2575.359	0.883	1	observe	Run3	observe/STIM_006.jpg
2578.97	0.953	1	observe	Run3	observe/STIM_007.jpg
2582.349	0.685	1	observe	Run3	observe/STIM_007.jpg
2585.437	1.249	1	observe	Run3	observe/STIM_007.jpg
2589.854	1.304	1	observe	Run3	observe/STIM_007.jpg
2594.133	1.159	1	observe	Run3	observe/STIM_008.jpg
2597.429	1.068	1	observe	Run3	observe/STIM_008.jpg
2600.604	0.878	1	observe	Run3	observe/STIM_008.jpg
2605.501	1.37	1	observe	Run3	observe/STIM_008.jpg
2609.003	1.056	0	observe	Run3	observe/STIM_009.jpg
2612.202	1.226	1	observe	Run3	observe/STIM_009.jpg
2616.132	0.915	1	observe	Run3	observe/STIM_009.jpg
2620.16	0.782	1	observe	Run3	observe/STIM_009.jpg
2624.115	0.91	1	observe	Run3	observe/STIM_010.jpg
2628.714	1.462	1	observe	Run3	observe/STIM_010.jpg
2632.951	1.231	1	observe	Run3	observe/STIM_010.jpg
2638.241	0.885	1	observe	Run3	observe/STIM_010.jpg
2641.746	0.761	1	observe	Run3	observe/STIM_011.jpg
2645.98	0.689	1	observe	Run3	observe/STIM_011.jpg
2650.351	1.394	1	observe	Run3	observe/STIM_011.jpg
2655.616	1.086	1	observe	Run3	observe/STIM_011.jpg
2660.41	0.798	1	observe	Run3	observe/STIM_012.jpg
2664.66	0.813	1	observe	Run3	observe/STIM_012.jpg
2668.774	1.032	1	observe	Run3	observe/STIM_012.jpg
2672.067	0.828	1	observe	Run3	observe/STIM_012.jpg
2676.573	0.924	0	observe	Run3	observe/STIM_013.jpg
2680.906	0.771	0	observe	Run3	observe/STIM_013.jpg
2684.599	1.302	1	observe	Run3	observe/STIM_013.jpg
2689.788	1.206	1	observe	Run3	observe/STIM_013.jpg
2694.57	0.99	1	observe	Run3	observe/STIM_014.jpg
2699.187	1.35	1	observe	Run3	observe/STIM_014.jpg
2703.16	1.256	1	observe	Run3	observe/STIM_014.jpg
2707.51	1.182	1	observe	Run3	observe/STIM_014.jpg
2711.677	1.379	0	observe	Run3	observe/STIM_015.jpg
2717.12	0.89	1	observe	Run3	observe/STIM_015.jpg
2721.196	1.328	1	observe	Run3	observe/STIM_015.jpg
2726.143	1.212	1	observe	Run3	observe/STIM_015.jpg
2731.319	0.864	1	observe	Run3	observe/STIM_016.jpg
2735.6	0.739	1	observe	Run3	observe/STIM_016.jpg
2739.759	1.402	0	observe	Run3	observe/STIM_016.jpg
2744.567	0.932	1	observe	Run3	observe/STIM_016.jpg
2748.0	1.435	1	observe	Run3	observe/STIM_017.jpg
2753.254	0.789	1	observe	Run3	observe/STIM_017.jpg
2756.101	1.23	1	observe	Run3	observe/STIM_017.jpg
2760.09	0.767	1	observe	Run3	observe/STIM_017.jpg
2763.022	1.015	1	observe	Run3	observe/STIM_018.jpg
2766.966	1.051	1	observe	Run3	observe/STIM_018.jpg
2770.492	1.179	1	observe	Run3	observe/STIM_018.jpg
2773.832	0.89	1	observe	Run3	observe/STIM_018.jpg
2778.508	0.808	1	observe	Run3	observe/STIM_019.jpg
2782.206	1.551	0	observe	Run3	observe/STIM_019.jpg
2786.99	0.9	1	observe	Run3	observe/STIM_019.jpg
2790.212	0.976	1	observe	Run3	observe/STIM_019.jpg
