onset	duration	response_time_ms	trial_type	learning_stage	stimulus	response_port
0.0	2.027	2027.5	regulate	Run1	regulate/STIM_000.jpg	99
6.065	2.42	2420.1	regulate	Run1	regulate/STIM_000.jpg	99
11.821	2.246	2245.9	regulate	Run1	regulate/STIM_000.jpg	99
17.331	1.912	1911.5	regulate	Run1	regulate/STIM_000.jpg	99
23.066	2.073	2073.4	regulate	Run1	regulate/STIM_001.jpg	99
28.615	1.937	1936.9	regulate	Run1	regulate/STIM_001.jpg	100
33.625	2.665	2665.3	regulate	Run1	regulate/STIM_001.jpg	99
39.605	1.557	1556.8	regulate	Run1	regulate/STIM_001.jpg	100
44.964	2.38	2380.2	regulate	Run1	regulate/STIM_002.jpg	99
49.777	1.553	1552.9	regulate	Run1	regulate/STIM_002.jpg	100
54.487	2.626	2625.9	regulate	Run1	regulate/STIM_002.jpg	99
60.568	1.673	1672.9	regulate	Run1	regulate/STIM_002.jpg	100
65.875	2.467	2467.1	regulate	Run1	regulate/STIM_003.jpg	99
70.845	3.033	3032.6	regulate	Run1	regulate/STIM_003.jpg	100
77.003	1.955	1955.0	regulate	Run1	regulate/STIM_003.jpg	100
81.658	1.352	1352.2	regulate	Run1	regulate/STIM_003.jpg	100
86.174	1.74	1740.0	regulate	Run1	regulate/STIM_004.jpg	99
91.273	2.068	2067.6	regulate	Run1	regulate/STIM_004.jpg	100
96.819	1.291	1290.6	regulate	Run1	regulate/STIM_004.jpg	100
100.794	1.727	1727.0	regulate	Run1	regulate/STIM_004.jpg	99
104.971	2.174	2174.2	regulate	Run1	regulate/STIM_005.jpg	99
110.181	2.065	2065.0	regulate	Run1	regulate/STIM_005.jpg	100
115.332	2.847	2846.6	regulate	Run1	regulate/STIM_005.jpg	100
121.275	2.066	2066.5	regulate	Run1	regulate/STIM_005.jpg	99
126.532	2.219	2218.6	regulate	Run1	regulate/STIM_006.jpg	100
131.964	2.821	2821.2	regulate	Run1	regulate/STIM_006.jpg	99
138.012	2.233	2233.1	regulate	Run1	regulate/STIM_006.jpg	99
143.087	1.901	1901.1	regulate	Run1	regulate/STIM_006.jpg	99
148.71	2.967	2967.2	regulate	Run1	regulate/STIM_007.jpg	100
155.636	1.275	1275.2	regulate	Run1	regulate/STIM_007.jpg	100
159.358	2.873	2873.2	regulate	Run1	regulate/STIM_007.jpg	99
164.885	1.761	1761.3	regulate	Run1	regulate/STIM_007.jpg	100
169.072	1.328	1328.0	regulate	Run1	regulate/STIM_008.jpg	100
174.486	3.087	3086.7	regulate	Run1	regulate/STIM_008.jpg	99
181.451	1.42	1420.5	regulate	Run1	regulate/STIM_008.jpg	99
185.996	1.834	1834.5	regulate	Run1	regulate/STIM_008.jpg	100
190.787	2.116	2115.5	regulate	Run1	regulate/STIM_009.jpg	100
195.886	1.311	1311.2	regulate	Run1	regulate/STIM_009.jpg	100
201.244	2.599	2598.6	regulate	Run1	regulate/STIM_009.jpg	100
206.45	2.305	2305.0	regulate	Run1	regulate/STIM_009.jpg	99
211.828	2.337	2336.6	regulate	Run1	regulate/STIM_010.jpg	100
217.554	2.326	2326.1	regulate	Run1	regulate/STIM_010.jpg	99
222.205	2.872	2871.5	regulate	Run1	regulate/STIM_010.jpg	99
227.874	1.687	1686.9	regulate	Run1	regulate/STIM_010.jpg	99
233.264	2.968	2968.4	regulate	Run1	regulate/STIM_011.jpg	100
239.962	2.257	2256.6	regulate	Run1	regulate/STIM_011.jpg	99
244.728	1.318	1318.0	regulate	Run1	regulate/STIM_011.jpg	100
249.884	1.575	1575.1	regulate	Run1	regulate/STIM_011.jpg	100
254.275	3.109	3109.1	regulate	Run1	regulate/STIM_012.jpg	99
259.894	2.832	2831.7	regulate	Run1	regulate/STIM_012.jpg	100
265.538	1.5	1499.5	regulate	Run1	regulate/STIM_012.jpg	100
270.969	1.5	1499.5	regulate	Run1	regulate/STIM_012.jpg	99
274.726	2.949	2949.3	regulate	Run1	regulate/STIM_013.jpg	99
281.519	2.13	2130.4	regulate	Run1	regulate/STIM_013.jpg	100
287.303	2.759	2758.6	regulate	Run1	regulate/STIM_013.jpg	99
292.571	2.678	2678.3	regulate	Run1	regulate/STIM_013.jpg	100
298.754	1.982	1981.7	regulate	Run1	regulate/STIM_014.jpg	99
304.544	3.0	3000.1	regulate	Run1	regulate/STIM_014.jpg	99
310.965	2.357	2357.3	regulate	Run1	regulate/STIM_014.jpg	100
315.826	1.548	1547.5	regulate	Run1	regulate/STIM_014.jpg	100
320.892	2.906	2905.6	regulate	Run1	regulate/STIM_015.jpg	99
327.349	2.542	2542.2	regulate	Run1	regulate/STIM_015.jpg	100
332.237	2.78	2780.1	regulate	Run1	regulate/STIM_015.jpg	100
338.864	2.508	2508.5	regulate	Run1	regulate/STIM_015.jpg	99
343.677	2.218	2217.7	regulate	Run1	regulate/STIM_016.jpg	99
348.977	2.732	2732.5	regulate	Run1	regulate/STIM_016.jpg	99
355.176	2.157	2156.6	regulate	Run1	regulate/STIM_016.jpg	99
360.135	2.427	2427.1	regulate	Run1	regulate/STIM_016.jpg	100
365.818	2.049	2048.9	regulate	Run1	regulate/STIM_017.jpg	99
370.522	2.574	2574.5	regulate	Run1	regulate/STIM_017.jpg	100
376.703	2.275	2275.2	regulate	Run1	regulate/STIM_017.jpg	100
381.756	2.084	2083.6	regulate	Run1	regulate/STIM_017.jpg	100
387.741	3.308	3307.6	regulate	Run1	regulate/STIM_018.jpg	99
395.159	1.466	1466.5	regulate	Run1	regulate/STIM_018.jpg	100
399.641	1.686	1685.7	regulate	Run1	regulate/STIM_018.jpg	99
403.642	1.482	1481.6	regulate	Run1	regulate/STIM_018.jpg	99
407.915	2.134	2134.0	regulate	Run1	regulate/STIM_019.jpg	100
412.412	2.213	2212.8	regulate	Run1	regulate/STIM_019.jpg	99
418.471	2.069	2069.0	regulate	Run1	regulate/STIM_019.jpg	99
423.276	1.335	1335.4	regulate	Run1	regulate/STIM_019.jpg	100
426.984	1.386	1386.3	regulate	Run1	regulate/STIM_020.jpg	99
430.633	2.55	2550.5	regulate	Run1	regulate/STIM_020.jpg	99
436.751	1.71	1710.2	regulate	Run1	regulate/STIM_020.jpg	100
442.373	1.227	1226.8	regulate	Run1	regulate/STIM_020.jpg	100
447.548	2.629	2629.2	regulate	Run1	regulate/STIM_021.jpg	100
454.068	2.294	2294.4	regulate	Run1	regulate/STIM_021.jpg	100
459.603	2.861	2860.9	regulate	Run1	regulate/STIM_021.jpg	100
466.099	2.167	2166.6	regulate	Run1	regulate/STIM_021.jpg	100
472.045	2.841	2840.7	regulate	Run1	regulate/STIM_022.jpg	100
477.163	2.04	2039.8	regulate	Run1	regulate/STIM_022.jpg	100
482.74	1.626	1626.3	regulate	Run1	regulate/STIM_022.jpg	99
486.925	1.404	1403.6	regulate	Run1	regulate/STIM_022.jpg	100
491.992	1.464	1464.1	regulate	Run1	regulate/STIM_023.jpg	100
496.229	1.635	1635.4	regulate	Run1	regulate/STIM_023.jpg	100
501.138	2.063	2062.9	regulate	Run1	regulate/STIM_023.jpg	99
507.265	1.69	1689.8	regulate	Run1	regulate/STIM_023.jpg	99
512.267	1.693	1693.4	regulate	Run1	regulate/STIM_024.jpg	99
517.134	2.401	2401.3	regulate	Run1	regulate/STIM_024.jpg	99
522.001	1.931	1930.6	regulate	Run1	regulate/STIM_024.jpg	99
528.224	1.735	1734.6	regulate	Run1	regulate/STIM_024.jpg	100
533.445	1.753	1752.9	regulate	Run1	regulate/STIM_025.jpg	99
538.728	2.813	2813.2	regulate	Run1	regulate/STIM_025.jpg	99
544.9	2.586	2585.6	regulate	Run1	regulate/STIM_025.jpg	99
550.667	1.686	1685.6	regulate	Run1	regulate/STIM_025.jpg	100
555.564	2.572	2572.1	regulate	Run1	regulate/STIM_026.jpg	99
562.085	2.636	2636.2	regulate	Run1	regulate/STIM_026.jpg	99
568.485	1.742	1742.0	regulate	Run1	regulate/STIM_026.jpg	100
573.915	1.623	1622.6	regulate	Run1	regulate/STIM_026.jpg	99
577.829	2.852	2851.7	regulate	Run1	regulate/STIM_027.jpg	99
583.262	3.02	3020.2	regulate	Run1	regulate/STIM_027.jpg	99
589.987	2.916	2916.4	regulate	Run1	regulate/STIM_027.jpg	99
596.606	1.874	1874.5	regulate	Run1	regulate/STIM_027.jpg	100
600.75	2.418	2418.4	regulate	Run1	regulate/STIM_028.jpg	100
605.728	3.008	3007.6	regulate	Run1	regulate/STIM_028.jpg	100
611.891	1.488	1488.0	regulate	Run1	regulate/STIM_028.jpg	99
615.736	2.081	2081.3	regulate	Run1	regulate/STIM_028.jpg	100
621.252	1.957	1956.7	regulate	Run1	regulate/STIM_029.jpg	99
625.588	1.97	1970.3	regulate	Run1	regulate/STIM_029.jpg	99
630.683	1.767	1767.1	regulate	Run1	regulate/STIM_029.jpg	99
635.668	2.8	2799.6	regulate	Run1	regulate/STIM_029.jpg	99
641.677	1.149	1149.3	observe	Run1	observe/STIM_000.jpg	100
646.43	1.263	1263.2	observe	Run1	observe/STIM_000.jpg	99
650.939	0.974	974.5	observe	Run1	observe/STIM_000.jpg	100
655.86	1.392	1391.5	observe	Run1	observe/STIM_000.jpg	99
661.08	1.306	1305.7	observe	Run1	observe/STIM_001.jpg	100
665.352	0.851	850.9	observe	Run1	observe/STIM_001.jpg	100
669.843	1.355	1354.9	observe	Run1	observe/STIM_001.jpg	99
674.861	1.364	1364.2	observe	Run1	observe/STIM_001.jpg	99
678.431	0.922	922.3	observe	Run1	observe/STIM_002.jpg	100
682.92	0.727	726.9	observe	Run1	observe/STIM_002.jpg	100
686.265	1.437	1436.6	observe	Run1	observe/STIM_002.jpg	100
690.767	0.751	751.3	observe	Run1	observe/STIM_002.jpg	100
693.861	1.215	1215.0	observe	Run1	observe/STIM_003.jpg	99
697.575	1.205	1204.8	observe	Run1	observe/STIM_003.jpg	99
701.719	0.873	873.2	observe	Run1	observe/STIM_003.jpg	100
706.494	1.279	1279.2	observe	Run1	observe/STIM_003.jpg	100
711.268	1.327	1326.9	observe	Run1	observe/STIM_004.jpg	99
714.863	1.376	1376.3	observe	Run1	observe/STIM_004.jpg	100
718.42	1.108	1107.8	observe	Run1	observe/STIM_004.jpg	99
721.89	0.919	918.8	observe	Run1	observe/STIM_004.jpg	100
726.057	0.983	982.9	observe	Run1	observe/STIM_005.jpg	100
729.818	1.079	1079.2	observe	Run1	observe/STIM_005.jpg	99
733.718	0.913	913.0	observe	Run1	observe/STIM_005.jpg	99
737.194	1.358	1357.8	observe	Run1	observe/STIM_005.jpg	100
741.408	1.222	1222.2	observe	Run1	observe/STIM_006.jpg	99
746.317	1.447	1447.0	observe	Run1	observe/STIM_006.jpg	99
751.081	0.831	830.8	observe	Run1	observe/STIM_006.jpg	99
754.349	0.808	808.1	observe	Run1	observe/STIM_006.jpg	100
758.78	1.251	1251.1	observe	Run1	observe/STIM_007.jpg	99
762.272	0.919	919.3	observe	Run1	observe/STIM_007.jpg	100
766.432	0.787	786.7	observe	Run1	observe/STIM_007.jpg	100
769.428	1.205	1205.0	observe	Run1	observe/STIM_007.jpg	99
774.058	0.852	852.0	observe	Run1	observe/STIM_008.jpg	100
778.972	1.486	1486.3	observe	Run1	observe/STIM_008.jpg	100
784.011	1.299	1299.0	observe	Run1	observe/STIM_008.jpg	99
788.229	1.245	1245.4	observe	Run1	observe/STIM_008.jpg	100
791.845	1.478	1478.5	observe	Run1	observe/STIM_009.jpg	99
797.325	0.831	831.2	observe	Run1	observe/STIM_009.jpg	100
801.936	0.935	934.9	observe	Run1	observe/STIM_009.jpg	99
805.664	1.407	1407.0	observe	Run1	observe/STIM_009.jpg	99
810.078	1.206	1206.2	observe	Run1	observe/STIM_010.jpg	100
813.356	0.851	850.7	observe	Run1	observe/STIM_010.jpg	99
817.926	0.987	986.7	observe	Run1	observe/STIM_010.jpg	99
821.481	0.811	810.9	observe	Run1	observe/STIM_010.jpg	99
825.598	1.345	1345.2	observe	Run1	observe/STIM_011.jpg	100
829.547	1.342	1342.0	observe	Run1	observe/STIM_011.jpg	99
833.847	1.502	1502.4	observe	Run1	observe/STIM_011.jpg	99
838.863	1.098	1098.0	observe	Run1	observe/STIM_011.jpg	100
842.564	1.121	1120.8	observe	Run1	observe/STIM_012.jpg	100
845.97	0.702	701.5	observe	Run1	observe/STIM_012.jpg	99
849.986	1.076	1076.5	observe	Run1	observe/STIM_012.jpg	99
853.575	1.429	1428.7	observe	Run1	observe/STIM_012.jpg	99
858.677	0.938	937.9	observe	Run1	observe/STIM_013.jpg	99
862.166	1.249	1248.8	observe	Run1	observe/STIM_013.jpg	99
867.082	1.407	1406.8	observe	Run1	observe/STIM_013.jpg	99
872.111	1.076	1075.5	observe	Run1	observe/STIM_013.jpg	99
875.886	0.821	820.9	observe	Run1	observe/STIM_014.jpg	100
878.76	0.8	799.6	observe	Run1	observe/STIM_014.jpg	100
881.963	0.703	703.1	observe	Run1	observe/STIM_014.jpg	100
886.429	1.114	1114.4	observe	Run1	observe/STIM_014.jpg	100
890.838	0.919	918.8	observe	Run1	observe/STIM_015.jpg	99
893.922	0.963	962.6	observe	Run1	observe/STIM_015.jpg	100
897.24	0.977	977.1	observe	Run1	observe/STIM_015.jpg	100
901.859	1.317	1316.6	observe	Run1	observe/STIM_015.jpg	100
905.947	1.092	1092.2	observe	Run1	observe/STIM_016.jpg	100
909.228	1.165	1165.1	observe	Run1	observe/STIM_016.jpg	99
913.161	0.938	937.6	observe	Run1	observe/STIM_016.jpg	100
916.301	0.933	932.6	observe	Run1	observe/STIM_016.jpg	100
921.318	0.835	834.8	observe	Run1	observe/STIM_017.jpg	99
924.629	1.043	1043.0	observe	Run1	observe/STIM_017.jpg	99
927.917	0.947	947.3	observe	Run1	observe/STIM_017.jpg	99
931.323	1.218	1217.5	observe	Run1	observe/STIM_017.jpg	99
935.293	1.374	1373.5	observe	Run1	observe/STIM_018.jpg	99
939.637	1.231	1230.7	observe	Run1	observe/STIM_018.jpg	99
944.328	1.096	1096.4	observe	Run1	observe/STIM_018.jpg	100
948.548	0.752	751.8	observe	Run1	observe/STIM_018.jpg	99
952.512	0.965	964.9	observe	Run1	observe/STIM_019.jpg	99
957.001	1.331	1330.9	observe	Run1	observe/STIM_019.jpg	100
961.521	1.112	1111.7	observe	Run1	observe/STIM_019.jpg	99
966.185	0.845	845.1	observe	Run1	observe/STIM_019.jpg	99
970.394	2.438	2437.8	regulate	Run2	regulate/STIM_000.jpg	100
976.23	1.574	1574.1	regulate	Run2	regulate/STIM_000.jpg	99
981.627	1.615	1614.9	regulate	Run2	regulate/STIM_000.jpg	99
986.964	2.148	2148.4	regulate	Run2	regulate/STIM_000.jpg	99
992.112	1.69	1690.3	regulate	Run2	regulate/STIM_001.jpg	100
996.017	2.111	2110.7	regulate	Run2	regulate/STIM_001.jpg	99
1000.482	1.311	1310.6	regulate	Run2	regulate/STIM_001.jpg	99
1005.514	0.931	931.3	regulate	Run2	regulate/STIM_001.jpg	99
1009.362	1.381	1380.8	regulate	Run2	regulate/STIM_002.jpg	100
1013.701	1.209	1208.9	regulate	Run2	regulate/STIM_002.jpg	99
1017.983	2.201	2201.1	regulate	Run2	regulate/STIM_002.jpg	100
1022.546	0.944	943.7	regulate	Run2	regulate/STIM_002.jpg	99
1025.757	1.604	1604.2	regulate	Run2	regulate/STIM_003.jpg	100
1030.869	1.58	1579.8	regulate	Run2	regulate/STIM_003.jpg	100
1035.118	2.317	2317.3	regulate	Run2	regulate/STIM_003.jpg	100
1040.059	2.247	2246.8	regulate	Run2	regulate/STIM_003.jpg	99
1046.143	2.513	2513.0	regulate	Run2	regulate/STIM_004.jpg	99
1052.488	1.351	1351.2	regulate	Run2	regulate/STIM_004.jpg	100
1057.564	1.502	1502.2	regulate	Run2	regulate/STIM_004.jpg	100
1062.887	0.985	984.8	regulate	Run2	regulate/STIM_004.jpg	100
1066.279	1.872	1872.0	regulate	Run2	regulate/STIM_005.jpg	100
1070.678	1.057	1056.8	regulate	Run2	regulate/STIM_005.jpg	99
1075.784	1.143	1143.4	regulate	Run2	regulate/STIM_005.jpg	99
1081.149	1.323	1322.7	regulate	Run2	regulate/STIM_005.jpg	99
1085.37	2.151	2151.4	regulate	Run2	regulate/STIM_006.jpg	99
1089.842	1.589	1588.7	regulate	Run2	regulate/STIM_006.jpg	100
1095.451	1.527	1527.4	regulate	Run2	regulate/STIM_006.jpg	99
1100.173	1.375	1375.3	regulate	Run2	regulate/STIM_006.jpg	100
1105.004	1.502	1501.8	regulate	Run2	regulate/STIM_007.jpg	100
1109.491	1.721	1721.0	regulate	Run2	regulate/STIM_007.jpg	99
1113.897	1.618	1618.4	regulate	Run2	regulate/STIM_007.jpg	100
1119.292	1.99	1989.9	regulate	Run2	regulate/STIM_007.jpg	100
1125.336	2.073	2072.8	regulate	Run2	regulate/STIM_008.jpg	99
1131.547	1.746	1745.9	regulate	Run2	regulate/STIM_008.jpg	99
1137.434	1.697	1697.3	regulate	Run2	regulate/STIM_008.jpg	100
1142.28	1.993	1992.6	regulate	Run2	regulate/STIM_008.jpg	99
1148.345	1.441	1441.4	regulate	Run2	regulate/STIM_009.jpg	99
1153.553	1.709	1709.4	regulate	Run2	regulate/STIM_009.jpg	100
1158.295	2.195	2195.2	regulate	Run2	regulate/STIM_009.jpg	99
1163.28	1.936	1936.5	regulate	Run2	regulate/STIM_009.jpg	99
1168.372	2.163	2163.1	regulate	Run2	regulate/STIM_010.jpg	99
1173.277	2.366	2366.2	regulate	Run2	regulate/STIM_010.jpg	100
1179.222	2.327	2326.9	regulate	Run2	regulate/STIM_010.jpg	100
1184.209	1.455	1454.9	regulate	Run2	regulate/STIM_010.jpg	100
1189.753	2.123	2122.9	regulate	Run2	regulate/STIM_011.jpg	99
1194.416	1.284	1284.3	regulate	Run2	regulate/STIM_011.jpg	99
1199.769	1.152	1152.5	regulate	Run2	regulate/STIM_011.jpg	99
1203.661	1.991	1991.1	regulate	Run2	regulate/STIM_011.jpg	100
1208.634	2.54	2539.9	regulate	Run2	regulate/STIM_012.jpg	100
1214.84	1.671	1671.1	regulate	Run2	regulate/STIM_012.jpg	99
1219.008	1.767	1766.8	regulate	Run2	regulate/STIM_012.jpg	100
1223.489	1.848	1848.3	regulate	Run2	regulate/STIM_012.jpg	100
1228.358	2.214	2213.5	regulate	Run2	regulate/STIM_013.jpg	99
1233.636	1.58	1579.7	regulate	Run2	regulate/STIM_013.jpg	99
1239.421	2.317	2317.3	regulate	Run2	regulate/STIM_013.jpg	100
1244.267	1.576	1576.0	regulate	Run2	regulate/STIM_013.jpg	99
1248.223	2.667	2667.2	regulate	Run2	regulate/STIM_014.jpg	100
1253.683	2.373	2372.8	regulate	Run2	regulate/STIM_014.jpg	99
1260.093	2.249	2249.0	regulate	Run2	regulate/STIM_014.jpg	100
1265.017	1.593	1592.9	regulate	Run2	regulate/STIM_014.jpg	99
1268.873	1.797	1796.6	regulate	Run2	regulate/STIM_015.jpg	100
1273.083	2.129	2128.6	regulate	Run2	regulate/STIM_015.jpg	100
1278.805	1.319	1318.9	regulate	Run2	regulate/STIM_015.jpg	100
1283.536	1.085	1085.4	regulate	Run2	regulate/STIM_015.jpg	100
1287.506	2.513	2512.8	regulate	Run2	regulate/STIM_016.jpg	100
1293.913	1.433	1433.1	regulate	Run2	regulate/STIM_016.jpg	100
1298.061	1.217	1217.2	regulate	Run2	regulate/STIM_016.jpg	100
1302.495	1.773	1772.7	regulate	Run2	regulate/STIM_016.jpg	99
1306.882	2.363	2363.2	regulate	Run2	regulate/STIM_017.jpg	99
1312.019	2.621	2620.6	regulate	Run2	regulate/STIM_017.jpg	99
1318.098	1.755	1755.2	regulate	Run2	regulate/STIM_017.jpg	100
1322.569	1.259	1259.0	regulate	Run2	regulate/STIM_017.jpg	99
1326.297	1.326	1326.3	regulate	Run2	regulate/STIM_018.jpg	99
1330.194	1.72	1720.0	regulate	Run2	regulate/STIM_018.jpg	99
1336.035	2.45	2449.5	regulate	Run2	regulate/STIM_018.jpg	99
1340.754	0.98	979.7	regulate	Run2	regulate/STIM_018.jpg	100
1344.617	1.897	1896.6	regulate	Run2	regulate/STIM_019.jpg	99
1350.039	1.843	1843.1	regulate	Run2	regulate/STIM_019.jpg	100
1354.605	1.341	1341.3	regulate	Run2	regulate/STIM_019.jpg	100
1359.087	1.458	1458.2	regulate	Run2	regulate/STIM_019.jpg	100
1363.442	1.317	1317.2	regulate	Run2	regulate/STIM_020.jpg	99
1368.454	2.271	2271.1	regulate	Run2	regulate/STIM_020.jpg	100
1374.692	1.39	1390.2	regulate	Run2	regulate/STIM_020.jpg	99
1378.243	1.742	1741.6	regulate	Run2	regulate/STIM_020.jpg	100
1383.997	2.438	2438.3	regulate	Run2	regulate/STIM_021.jpg	99
1389.615	1.524	1524.5	regulate	Run2	regulate/STIM_021.jpg	100
1393.653	1.284	1284.2	regulate	Run2	regulate/STIM_021.jpg	100
1398.288	2.187	2186.6	regulate	Run2	regulate/STIM_021.jpg	100
1404.473	1.38	1380.2	regulate	Run2	regulate/STIM_022.jpg	99
1408.91	1.684	1683.7	regulate	Run2	regulate/STIM_022.jpg	100
1413.735	1.733	1732.8	regulate	Run2	regulate/STIM_022.jpg	100
1417.972	2.012	2012.4	regulate	Run2	regulate/STIM_022.jpg	100
1423.292	2.357	2356.8	regulate	Run2	regulate/STIM_023.jpg	100
1429.577	2.23	2230.0	regulate	Run2	regulate/STIM_023.jpg	99
1435.371	1.221	1220.6	regulate	Run2	regulate/STIM_023.jpg	99
1439.852	2.06	2059.7	regulate	Run2	regulate/STIM_023.jpg	99
1445.316	2.221	2220.9	regulate	Run2	regulate/STIM_024.jpg	100
1450.339	2.091	2091.2	regulate	Run2	regulate/STIM_024.jpg	99
1456.326	1.882	1882.1	regulate	Run2	regulate/STIM_024.jpg	99
1461.773	1.123	1122.6	regulate	Run2	regulate/STIM_024.jpg	99
1466.372	1.238	1238.1	regulate	Run2	regulate/STIM_025.jpg	99
1469.924	1.352	1351.6	regulate	Run2	regulate/STIM_025.jpg	100
1474.054	1.284	1283.6	regulate	Run2	regulate/STIM_025.jpg	99
1477.857	1.848	1848.5	regulate	Run2	regulate/STIM_025.jpg	99
1483.895	1.922	1922.2	regulate	Run2	regulate/STIM_026.jpg	99
1489.231	1.888	1888.4	regulate	Run2	regulate/STIM_026.jpg	100
1495.064	1.12	1119.5	regulate	Run2	regulate/STIM_026.jpg	100
1498.437	1.128	1128.0	regulate	Run2	regulate/STIM_026.jpg	99
1502.353	1.662	1661.8	regulate	Run2	regulate/STIM_027.jpg	100
1507.397	1.39	1389.5	regulate	Run2	regulate/STIM_027.jpg	100
1511.627	1.455	1454.7	regulate	Run2	regulate/STIM_027.jpg	99
1516.776	1.192	1192.2	regulate	Run2	regulate/STIM_027.jpg	99
1520.516	1.923	1923.4	regulate	Run2	regulate/STIM_028.jpg	99
1524.853	2.345	2344.9	regulate	Run2	regulate/STIM_028.jpg	99
1529.811	2.409	2409.2	regulate	Run2	regulate/STIM_028.jpg	100
1534.615	1.576	1576.0	regulate	Run2	regulate/STIM_028.jpg	99
1539.557	1.378	1377.6	regulate	Run2	regulate/STIM_029.jpg	100
1543.894	1.328	1327.9	regulate	Run2	regulate/STIM_029.jpg	99
1548.199	1.543	1543.4	regulate	Run2	regulate/STIM_029.jpg	99
1552.823	2.194	2193.6	regulate	Run2	regulate/STIM_029.jpg	100
1559.167	1.177	1176.6	observe	Run2	observe/STIM_000.jpg	99
1563.866	1.058	1058.3	observe	Run2	observe/STIM_000.jpg	99
1568.775	1.277	1277.3	observe	Run2	observe/STIM_000.jpg	99
1573.494	0.942	942.5	observe	Run2	observe/STIM_000.jpg	99
1577.26	1.025	1025.2	observe	Run2	observe/STIM_001.jpg	100
1581.954	1.234	1234.1	observe	Run2	observe/STIM_001.jpg	100
1586.206	1.227	1226.8	observe	Run2	observe/STIM_001.jpg	99
1590.746	0.95	950.5	observe	Run2	observe/STIM_001.jpg	99
1594.56	1.149	1149.3	observe	Run2	observe/STIM_002.jpg	100
1598.906	0.968	968.0	observe	Run2	observe/STIM_002.jpg	99
1603.728	1.333	1333.4	observe	Run2	observe/STIM_002.jpg	99
1607.302	1.366	1365.7	observe	Run2	observe/STIM_002.jpg	99
1611.196	1.193	1192.9	observe	Run2	observe/STIM_003.jpg	100
1615.036	0.836	836.1	observe	Run2	observe/STIM_003.jpg	99
1619.619	0.853	853.4	observe	Run2	observe/STIM_003.jpg	99
1623.755	1.101	1100.6	observe	Run2	observe/STIM_003.jpg	99
1628.41	1.202	1202.0	observe	Run2	observe/STIM_004.jpg	100
1632.479	0.769	769.1	observe	Run2	observe/STIM_004.jpg	99
1635.502	1.218	1218.3	observe	Run2	observe/STIM_004.jpg	100
1640.411	1.288	1287.5	observe	Run2	observe/STIM_004.jpg	99
1644.949	1.068	1068.5	observe	Run2	observe/STIM_005.jpg	99
1649.348	1.331	1330.7	observe	Run2	observe/STIM_005.jpg	100
1654.542	0.973	973.1	observe	Run2	observe/STIM_005.jpg	100
1657.731	0.862	862.2	observe	Run2	observe/STIM_005.jpg	100
1662.387	1.138	1137.6	observe	Run2	observe/STIM_006.jpg	99
1667.429	1.106	1106.5	observe	Run2	observe/STIM_006.jpg	99
1670.853	0.976	976.0	observe	Run2	observe/STIM_006.jpg	100
1675.645	0.913	913.2	observe	Run2	observe/STIM_006.jpg	100
1679.462	0.824	823.8	observe	Run2	observe/STIM_007.jpg	99
1682.582	1.43	1430.4	observe	Run2	observe/STIM_007.jpg	100
1687.305	1.112	1111.8	observe	Run2	observe/STIM_007.jpg	99
1691.427	1.374	1374.1	observe	Run2	observe/STIM_007.jpg	100
1695.746	1.403	1403.1	observe	Run2	observe/STIM_008.jpg	99
1700.869	1.16	1159.7	observe	Run2	observe/STIM_008.jpg	99
1704.468	1.357	1357.2	observe	Run2	observe/STIM_008.jpg	99
1707.903	0.87	869.8	observe	Run2	observe/STIM_008.jpg	99
1711.36	0.967	967.3	observe	Run2	observe/STIM_009.jpg	99
1715.685	0.936	936.2	observe	Run2	observe/STIM_009.jpg	100
1720.647	1.454	1453.6	observe	Run2	observe/STIM_009.jpg	100
1725.287	0.764	763.9	observe	Run2	observe/STIM_009.jpg	100
1729.902	1.345	1345.2	observe	Run2	observe/STIM_010.jpg	99
1734.819	0.985	984.7	observe	Run2	observe/STIM_010.jpg	100
1739.842	1.166	1165.7	observe	Run2	observe/STIM_010.jpg	99
1744.93	0.947	946.7	observe	Run2	observe/STIM_010.jpg	99
1748.74	0.759	758.9	observe	Run2	observe/STIM_011.jpg	99
1752.465	1.472	1472.0	observe	Run2	observe/STIM_011.jpg	100
1757.305	0.894	894.4	observe	Run2	observe/STIM_011.jpg	100
1761.239	1.238	1238.4	observe	Run2	observe/STIM_011.jpg	100
1765.202	1.321	1321.4	observe	Run2	observe/STIM_012.jpg	100
1770.006	0.835	835.2	observe	Run2	observe/STIM_012.jpg	100
1774.048	1.045	1044.9	observe	Run2	observe/STIM_012.jpg	100
1778.41	1.232	1232.3	observe	Run2	observe/STIM_012.jpg	100
1782.542	1.386	1386.1	observe	Run2	observe/STIM_013.jpg	99
1787.61	1.236	1236.1	observe	Run2	observe/STIM_013.jpg	99
1791.811	1.139	1138.6	observe	Run2	observe/STIM_013.jpg	99
1796.513	0.892	891.7	observe	Run2	observe/STIM_013.jpg	100
1800.513	0.741	741.0	observe	Run2	observe/STIM_014.jpg	99
1804.916	1.417	1417.4	observe	Run2	observe/STIM_014.jpg	100
1809.183	1.294	1294.5	observe	Run2	observe/STIM_014.jpg	99
1814.265	0.763	763.1	observe	Run2	observe/STIM_014.jpg	99
1818.068	1.261	1261.3	observe	Run2	observe/STIM_015.jpg	99
1821.822	1.384	1384.3	observe	Run2	observe/STIM_015.jpg	100
1825.473	0.739	738.8	observe	Run2	observe/STIM_015.jpg	100
1830.231	1.222	1222.4	observe	Run2	observe/STIM_015.jpg	99
1835.114	1.406	1406.4	observe	Run2	observe/STIM_016.jpg	100
1840.474	0.85	849.5	observe	Run2	observe/STIM_016.jpg	99
1844.776	1.068	1067.7	observe	Run2	observe/STIM_016.jpg	100
1848.096	1.13	1129.9	observe	Run2	observe/STIM_016.jpg	99
1851.645	1.04	1040.2	observe	Run2	observe/STIM_017.jpg	100
1855.608	1.456	1455.7	observe	Run2	observe/STIM_017.jpg	99
1859.822	0.875	875.3	observe	Run2	observe/STIM_017.jpg	99
1864.613	0.758	757.5	observe	Run2	observe/STIM_017.jpg	99
1869.186	1.3	1299.6	observe	Run2	observe/STIM_018.jpg	99
1873.923	1.133	1132.9	observe	Run2	observe/STIM_018.jpg	99
1878.13	1.411	1411.2	observe	Run2	observe/STIM_018.jpg	99
1882.981	0.865	865.4	observe	Run2	observe/STIM_018.jpg	100
1887.226	1.185	1185.4	observe	Run2	observe/STIM_019.jpg	99
1891.768	1.109	1109.4	observe	Run2	observe/STIM_019.jpg	100
1896.143	1.081	1081.3	observe	Run2	observe/STIM_019.jpg	100
1899.548	1.289	1289.3	observe	Run2	observe/STIM_019.jpg	99
1904.624	1.787	1786.6	regulate	Run3	regulate/STIM_000.jpg	99
1908.779	1.279	1279.3	regulate	Run3	regulate/STIM_000.jpg	100
1913.577	1.92	1919.6	regulate	Run3	regulate/STIM_000.jpg	100
1918.13	1.535	1534.8	regulate	Run3	regulate/STIM_000.jpg	99
1922.92	1.512	1512.4	regulate	Run3	regulate/STIM_001.jpg	100
1926.631	1.787	1786.9	regulate	Run3	regulate/STIM_001.jpg	100
1931.365	2.059	2058.9	regulate	Run3	regulate/STIM_001.jpg	99
1936.314	0.992	992.0	regulate	Run3	regulate/STIM_001.jpg	99
1939.935	1.18	1180.1	regulate	Run3	regulate/STIM_002.jpg	99
1944.525	1.161	1160.8	regulate	Run3	regulate/STIM_002.jpg	100
1949.344	1.361	1361.4	regulate	Run3	regulate/STIM_002.jpg	99
1954.098	1.958	1958.4	regulate	Run3	regulate/STIM_002.jpg	99
1959.731	1.967	1967.0	regulate	Run3	regulate/STIM_003.jpg	99
1964.402	1.091	1091.2	regulate	Run3	regulate/STIM_003.jpg	100
1968.119	1.703	1702.9	regulate	Run3	regulate/STIM_003.jpg	100
1973.321	1.483	1483.3	regulate	Run3	regulate/STIM_003.jpg	100
1978.621	1.792	1791.7	regulate	Run3	regulate/STIM_004.jpg	99
1983.865	1.197	1196.8	regulate	Run3	regulate/STIM_004.jpg	99
1988.591	1.572	1571.8	regulate	Run3	regulate/STIM_004.jpg	100
1992.394	1.5	1499.7	regulate	Run3	regulate/STIM_004.jpg	99
1996.13	1.264	1263.9	regulate	Run3	regulate/STIM_005.jpg	100
2001.209	1.92	1920.2	regulate	Run3	regulate/STIM_005.jpg	100
2007.076	1.949	1949.0	regulate	Run3	regulate/STIM_005.jpg	99
2012.088	1.343	1343.0	regulate	Run3	regulate/STIM_005.jpg	99
2016.704	1.699	1698.6	regulate	Run3	regulate/STIM_006.jpg	100
2020.794	2.022	2022.4	regulate	Run3	regulate/STIM_006.jpg	99
2026.419	1.629	1628.7	regulate	Run3	regulate/STIM_006.jpg	99
2032.155	1.529	1528.8	regulate	Run3	regulate/STIM_006.jpg	99
2035.712	2.172	2172.4	regulate	Run3	regulate/STIM_007.jpg	100
2041.907	2.012	2012.3	regulate	Run3	regulate/STIM_007.jpg	100
2046.113	0.995	994.7	regulate	Run3	regulate/STIM_007.jpg	100
2049.857	1.456	1455.9	regulate	Run3	regulate/STIM_007.jpg	99
2054.799	1.405	1405.1	regulate	Run3	regulate/STIM_008.jpg	100
2058.561	1.696	1696.4	regulate	Run3	regulate/STIM_008.jpg	99
2062.517	1.046	1046.4	regulate	Run3	regulate/STIM_008.jpg	100
2066.372	2.134	2134.0	regulate	Run3	regulate/STIM_008.jpg	100
2072.36	1.848	1848.4	regulate	Run3	regulate/STIM_009.jpg	99
2077.453	1.293	1292.9	regulate	Run3	regulate/STIM_009.jpg	100
2080.84	1.579	1578.8	regulate	Run3	regulate/STIM_009.jpg	100
2085.933	2.096	2096.3	regulate	Run3	regulate/STIM_009.jpg	100
2090.916	1.533	1532.9	regulate	Run3	regulate/STIM_010.jpg	100
2096.008	1.52	1519.5	regulate	Run3	regulate/STIM_010.jpg	100
2100.919	1.186	1185.9	regulate	Run3	regulate/STIM_010.jpg	100
2105.996	1.938	1937.5	regulate	Run3	regulate/STIM_010.jpg	99
2111.057	1.128	1128.3	regulate	Run3	regulate/STIM_011.jpg	100
2115.457	1.579	1579.1	regulate	Run3	regulate/STIM_011.jpg	99
2119.847	1.532	1532.4	regulate	Run3	regulate/STIM_011.jpg	100
2124.946	1.327	1326.7	regulate	Run3	regulate/STIM_011.jpg	99
2129.415	1.152	1151.7	regulate	Run3	regulate/STIM_012.jpg	100
2133.66	1.905	1904.9	regulate	Run3	regulate/STIM_012.jpg	99
2139.381	1.11	1110.2	regulate	Run3	regulate/STIM_012.jpg	100
2143.347	1.656	1656.4	regulate	Run3	regulate/STIM_012.jpg	99
2147.978	2.033	2032.9	regulate	Run3	regulate/STIM_013.jpg	99
2154.025	1.442	1441.5	regulate	Run3	regulate/STIM_013.jpg	99
2158.421	1.332	1332.4	regulate	Run3	regulate/STIM_013.jpg	100
2162.307	1.881	1880.9	regulate	Run3	regulate/STIM_013.jpg	100
2167.94	1.37	1369.7	regulate	Run3	regulate/STIM_014.jpg	100
2172.737	1.141	1141.2	regulate	Run3	regulate/STIM_014.jpg	99
2176.158	1.981	1980.8	regulate	Run3	regulate/STIM_014.jpg	99
2181.559	1.25	1250.1	regulate	Run3	regulate/STIM_014.jpg	99
2185.035	1.064	1063.5	regulate	Run3	regulate/STIM_015.jpg	99
2189.852	1.42	1419.8	regulate	Run3	regulate/STIM_015.jpg	99
2194.063	1.53	1530.3	regulate	Run3	regulate/STIM_015.jpg	99
2198.259	2.127	2127.3	regulate	Run3	regulate/STIM_015.jpg	99
2203.702	1.479	1479.1	regulate	Run3	regulate/STIM_016.jpg	100
2208.641	1.566	1565.5	regulate	Run3	regulate/STIM_016.jpg	100
2214.033	1.203	1202.7	regulate	Run3	regulate/STIM_016.jpg	100
2217.957	1.648	1648.2	regulate	Run3	regulate/STIM_016.jpg	99
2222.521	1.472	1471.7	regulate	Run3	regulate/STIM_017.jpg	100
2227.816	1.654	1653.5	regulate	Run3	regulate/STIM_017.jpg	99
2233.016	1.392	1392.4	regulate	Run3	regulate/STIM_017.jpg	99
2238.506	1.011	1010.9	regulate	Run3	regulate/STIM_017.jpg	99
2242.078	1.706	1705.5	regulate	Run3	regulate/STIM_018.jpg	100
2246.82	1.312	1311.7	regulate	Run3	regulate/STIM_018.jpg	99
2250.204	1.678	1677.8	regulate	Run3	regulate/STIM_018.jpg	99
2254.794	1.266	1265.9	regulate	Run3	regulate/STIM_018.jpg	100
2258.636	1.213	1213.0	regulate	Run3	regulate/STIM_019.jpg	99
2262.066	1.554	1554.1	regulate	Run3	regulate/STIM_019.jpg	99
2265.973	1.172	1172.0	regulate	Run3	regulate/STIM_019.jpg	99
2269.588	1.981	1981.3	regulate	Run3	regulate/STIM_019.jpg	99
2274.928	0.964	963.9	regulate	Run3	regulate/STIM_020.jpg	99
2279.8	1.413	1413.1	regulate	Run3	regulate/STIM_020.jpg	100
2283.473	1.917	1917.4	regulate	Run3	regulate/STIM_020.jpg	99
2289.156	1.066	1065.5	regulate	Run3	regulate/STIM_020.jpg	100
2293.306	2.027	2027.4	regulate	Run3	regulate/STIM_021.jpg	99
2298.981	1.792	1792.3	regulate	Run3	regulate/STIM_021.jpg	99
2303.324	1.38	1380.0	regulate	Run3	regulate/STIM_021.jpg	99
2307.672	1.264	1264.3	regulate	Run3	regulate/STIM_021.jpg	99
2311.511	1.498	1498.4	regulate	Run3	regulate/STIM_022.jpg	100
2315.138	1.426	1425.5	regulate	Run3	regulate/STIM_022.jpg	100
2319.661	2.171	2171.1	regulate	Run3	regulate/STIM_022.jpg	100
2325.305	1.926	1926.1	regulate	Run3	regulate/STIM_022.jpg	100
2329.706	1.611	1610.9	regulate	Run3	regulate/STIM_023.jpg	100
2333.969	1.572	1571.8	regulate	Run3	regulate/STIM_023.jpg	99
2339.256	1.993	1993.0	regulate	Run3	regulate/STIM_023.jpg	100
2345.034	1.755	1754.6	regulate	Run3	regulate/STIM_023.jpg	99
2350.571	1.347	1346.8	regulate	Run3	regulate/STIM_024.jpg	100
2354.411	1.889	1888.9	regulate	Run3	regulate/STIM_024.jpg	99
2360.016	1.933	1932.9	regulate	Run3	regulate/STIM_024.jpg	99
2364.585	1.145	1145.4	regulate	Run3	regulate/STIM_024.jpg	100
2368.175	1.335	1334.6	regulate	Run3	regulate/STIM_025.jpg	100
2372.649	1.282	1282.2	regulate	Run3	regulate/STIM_025.jpg	100
2377.951	2.16	2159.7	regulate	Run3	regulate/STIM_025.jpg	99
2383.756	1.946	1946.2	regulate	Run3	regulate/STIM_025.jpg	99
2388.321	1.893	1892.8	regulate	Run3	regulate/STIM_026.jpg	99
2394.413	2.27	2269.5	regulate	Run3	regulate/STIM_026.jpg	100
2399.816	2.188	2187.7	regulate	Run3	regulate/STIM_026.jpg	100
2404.973	2.217	2216.9	regulate	Run3	regulate/STIM_026.jpg	100
2409.517	2.027	2026.7	regulate	Run3	regulate/STIM_027.jpg	100
2413.99	1.249	1248.8	regulate	Run3	regulate/STIM_027.jpg	99
2417.781	1.864	1863.9	regulate	Run3	regulate/STIM_027.jpg	99
2423.144	1.406	1406.1	regulate	Run3	regulate/STIM_027.jpg	100
2427.004	1.708	1708.5	regulate	Run3	regulate/STIM_028.jpg	100
2432.249	1.419	1418.8	regulate	Run3	regulate/STIM_028.jpg	99
2435.925	2.006	2005.5	regulate	Run3	regulate/STIM_028.jpg	99
2441.281	1.68	1679.5	regulate	Run3	regulate/STIM_028.jpg	99
2445.485	1.332	1332.2	regulate	Run3	regulate/STIM_029.jpg	100
2450.3	2.144	2144.1	regulate	Run3	regulate/STIM_029.jpg	100
2456.096	1.158	1158.5	regulate	Run3	regulate/STIM_029.jpg	100
2461.027	2.0	2000.2	regulate	Run3	regulate/STIM_029.jpg	99
2466.598	1.061	1061.0	observe	Run3	observe/STIM_000.jpg	100
2471.037	0.789	789.1	observe	Run3	observe/STIM_000.jpg	100
2474.11	1.038	1038.3	observe	Run3	observe/STIM_000.jpg	100
2477.396	0.753	752.8	observe	Run3	observe/STIM_000.jpg	100
2481.829	0.805	804.7	observe	Run3	observe/STIM_001.jpg	99
2486.435	1.088	1088.4	observe	Run3	observe/STIM_001.jpg	99
2489.705	1.148	1147.7	observe	Run3	observe/STIM_001.jpg	99
2493.856	1.021	1020.8	observe	Run3	observe/STIM_001.jpg	99
2498.506	0.8	799.9	observe	Run3	observe/STIM_002.jpg	99
2502.328	1.112	1111.7	observe	Run3	observe/STIM_002.jpg	100
2506.246	1.022	1022.5	observe	Run3	observe/STIM_002.jpg	100
2510.069	1.053	1052.9	observe	Run3	observe/STIM_002.jpg	100
2514.171	1.144	1144.3	observe	Run3	observe/STIM_003.jpg	100
2517.791	0.858	858.3	observe	Run3	observe/STIM_003.jpg	99
2521.138	1.172	1172.2	observe	Run3	observe/STIM_003.jpg	100
2525.144	1.109	1108.6	observe	Run3	observe/STIM_003.jpg	99
2529.2	1.268	1267.9	observe	Run3	observe/STIM_004.jpg	99
2534.036	1.06	1059.8	observe	Run3	observe/STIM_004.jpg	99
2538.285	1.173	1173.4	observe	Run3	observe/STIM_004.jpg	99
2541.837	1.422	1422.2	observe	Run3	observe/STIM_004.jpg	99
2545.41	0.959	959.1	observe	Run3	observe/STIM_005.jpg	100
2548.797	0.805	805.4	observe	Run3	observe/STIM_005.jpg	99
2553.505	1.309	1308.9	observe	Run3	observe/STIM_005.jpg	99
2557.143	0.79	789.7	observe	Run3	observe/STIM_005.jpg	100
2561.208	1.315	1314.8	observe	Run3	observe/STIM_006.jpg	99
2565.633	1.357	1357.0	observe	Run3	observe/STIM_006.jpg	99
2570.583	0.932	931.6	observe	Run3	observe/STIM_006.jpg	99
2575.359	0.883	883.3	observe	Run3	observe/STIM_006.jpg	99
2578.97	0.953	953.3	observe	Run3	observe/STIM_007.jpg	100
2582.349	0.685	685.4	observe	Run3	observe/STIM_007.jpg	100
2585.437	1.249	1249.2	observe	Run3	observe/STIM_007.jpg	99
2589.854	1.304	1304.4	observe	Run3	observe/STIM_007.jpg	100
2594.133	1.159	1159.3	observe	Run3	observe/STIM_008.jpg	99
2597.429	1.068	1068.0	observe	Run3	observe/STIM_008.jpg	100
2600.604	0.878	878.0	observe	Run3	observe/STIM_008.jpg	99
2605.501	1.37	1369.6	observe	Run3	observe/STIM_008.jpg	100
2609.003	1.056	1055.7	observe	Run3	observe/STIM_009.jpg	99
2612.202	1.226	1226.4	observe	Run3	observe/STIM_009.jpg	100
2616.132	0.915	914.7	observe	Run3	observe/STIM_009.jpg	100
2620.16	0.782	782.0	observe	Run3	observe/STIM_009.jpg	99
2624.115	0.91	910.4	observe	Run3	observe/STIM_010.jpg	100
2628.714	1.462	1462.0	observe	Run3	observe/STIM_010.jpg	99
2632.951	1.231	1231.1	observe	Run3	observe/STIM_010.jpg	100
2638.241	0.885	885.3	observe	Run3	observe/STIM_010.jpg	100
2641.746	0.761	761.3	observe	Run3	observe/STIM_011.jpg	100
2645.98	0.689	688.7	observe	Run3	observe/STIM_011.jpg	100
2650.351	1.394	1394.2	observe	Run3	observe/STIM_011.jpg	99
2655.616	1.086	1086.4	observe	Run3	observe/STIM_011.jpg	100
2660.41	0.798	798.5	observe	Run3	observe/STIM_012.jpg	99
2664.66	0.813	812.7	observe	Run3	observe/STIM_012.jpg	100
2668.774	1.032	1032.1	observe	Run3	observe/STIM_012.jpg	100
2672.067	0.828	828.0	observe	Run3	observe/STIM_012.jpg	100
2676.573	0.924	924.3	observe	Run3	observe/STIM_013.jpg	100
2680.906	0.771	770.8	observe	Run3	observe/STIM_013.jpg	100
2684.599	1.302	1301.7	observe	Run3	observe/STIM_013.jpg	100
2689.788	1.206	1206.0	observe	Run3	observe/STIM_013.jpg	100
2694.57	0.99	990.3	observe	Run3	observe/STIM_014.jpg	99
2699.187	1.35	1350.4	observe	Run3	observe/STIM_014.jpg	100
2703.16	1.256	1256.5	observe	Run3	observe/STIM_014.jpg	100
2707.51	1.182	1182.4	observe	Run3	observe/STIM_014.jpg	100
2711.677	1.379	1378.8	observe	Run3	observe/STIM_015.jpg	99
2717.12	0.89	890.0	observe	Run3	observe/STIM_015.jpg	99
2721.196	1.328	1327.5	observe	Run3	observe/STIM_015.jpg	99
2726.143	1.212	1212.3	observe	Run3	observe/STIM_015.jpg	100
2731.319	0.864	863.7	observe	Run3	observe/STIM_016.jpg	99
2735.6	0.739	739.2	observe	Run3	observe/STIM_016.jpg	100
2739.759	1.402	1402.2	observe	Run3	observe/STIM_016.jpg	99
2744.567	0.932	931.5	observe	Run3	observe/STIM_016.jpg	99
2748.0	1.435	1435.3	observe	Run3	observe/STIM_017.jpg	100
2753.254	0.789	789.1	observe	Run3	observe/STIM_017.jpg	100
2756.101	1.23	1230.1	observe	Run3	observe/STIM_017.jpg	100
2760.09	0.767	767.4	observe	Run3	observe/STIM_017.jpg	99
2763.022	1.015	1015.3	observe	Run3	observe/STIM_018.jpg	100
2766.966	1.051	1050.9	observe	Run3	observe/STIM_018.jpg	100
2770.492	1.179	1179.0	observe	Run3	observe/STIM_018.jpg	99
2773.832	0.89	890.3	observe	Run3	observe/STIM_018.jpg	99
2778.508	0.808	808.1	observe	Run3	observe/STIM_019.jpg	100
2782.206	1.551	1550.9	observe	Run3	observe/STIM_019.jpg	99
2786.99	0.9	900.0	observe	Run3	observe/STIM_019.jpg	100
2790.212	0.976	975.6	observe	Run3	observe/STIM_019.jpg	99
