onset	duration	response_time_ms	trial_type	learning_stage	stimulus	response_port
0.0	1.547	1546.8	generate	Run1	generate/STIM_000.jpg	100
4.582	1.296	1296.1	generate	Run1	generate/STIM_000.jpg	100
9.658	1.457	1456.6	generate	Run1	generate/STIM_000.jpg	99
14.13	2.456	2455.9	generate	Run1	generate/STIM_000.jpg	99
20.123	1.982	1982.1	generate	Run1	generate/STIM_000.jpg	100
24.767	2.548	2547.6	generate	Run1	generate/STIM_001.jpg	99
29.38	1.708	1708.0	generate	Run1	generate/STIM_001.jpg	99
34.219	2.586	2586.5	generate	Run1	generate/STIM_001.jpg	99
38.802	1.256	1256.3	generate	Run1	generate/STIM_001.jpg	100
42.764	1.025	1024.8	generate	Run1	generate/STIM_001.jpg	99
46.927	2.692	2691.8	generate	Run1	generate/STIM_002.jpg	99
51.915	2.481	2481.1	generate	Run1	generate/STIM_002.jpg	99
57.676	2.409	2409.4	generate	Run1	generate/STIM_002.jpg	100
62.282	1.662	1662.4	generate	Run1	generate/STIM_002.jpg	99
66.537	1.487	1487.4	generate	Run1	generate/STIM_002.jpg	99
69.93	2.621	2620.7	generate	Run1	generate/STIM_003.jpg	100
75.806	2.51	2510.5	generate	Run1	generate/STIM_003.jpg	99
80.89	2.135	2134.8	generate	Run1	generate/STIM_003.jpg	100
86.035	1.407	1406.6	generate	Run1	generate/STIM_003.jpg	100
90.334	2.159	2158.6	generate	Run1	generate/STIM_003.jpg	100
95.46	2.081	2080.7	generate	Run1	generate/STIM_004.jpg	100
101.259	2.888	2887.7	generate	Run1	generate/STIM_004.jpg	99
106.149	2.082	2082.2	generate	Run1	generate/STIM_004.jpg	99
110.566	1.62	1620.0	generate	Run1	generate/STIM_004.jpg	99
116.007	1.677	1677.1	generate	Run1	generate/STIM_004.jpg	99
120.051	2.604	2604.0	generate	Run1	generate/STIM_005.jpg	100
125.415	2.89	2889.7	generate	Run1	generate/STIM_005.jpg	100
130.901	1.407	1406.6	generate	Run1	generate/STIM_005.jpg	99
135.024	1.624	1624.5	generate	Run1	generate/STIM_005.jpg	99
139.139	1.992	1991.6	generate	Run1	generate/STIM_005.jpg	100
143.771	1.417	1416.6	generate	Run1	generate/STIM_006.jpg	99
148.298	1.24	1239.5	generate	Run1	generate/STIM_006.jpg	99
151.534	1.81	1809.6	generate	Run1	generate/STIM_006.jpg	99
155.453	2.15	2150.5	generate	Run1	generate/STIM_006.jpg	100
160.848	2.093	2092.8	generate	Run1	generate/STIM_006.jpg	100
165.346	1.813	1813.3	generate	Run1	generate/STIM_007.jpg	99
170.66	1.988	1988.1	generate	Run1	generate/STIM_007.jpg	99
174.848	1.532	1531.6	generate	Run1	generate/STIM_007.jpg	100
179.828	1.342	1341.5	generate	Run1	generate/STIM_007.jpg	100
184.458	1.82	1820.5	generate	Run1	generate/STIM_007.jpg	99
189.689	2.608	2608.3	generate	Run1	generate/STIM_008.jpg	99
194.433	1.426	1426.0	generate	Run1	generate/STIM_008.jpg	100
199.391	2.251	2250.7	generate	Run1	generate/STIM_008.jpg	100
205.57	1.364	1364.4	generate	Run1	generate/STIM_008.jpg	100
209.629	1.32	1319.9	generate	Run1	generate/STIM_008.jpg	100
213.054	1.624	1623.6	generate	Run1	generate/STIM_009.jpg	99
216.831	1.935	1934.6	generate	Run1	generate/STIM_009.jpg	99
221.805	1.771	1771.0	generate	Run1	generate/STIM_009.jpg	100
225.72	1.849	1848.8	generate	Run1	generate/STIM_009.jpg	99
230.48	1.062	1061.7	generate	Run1	generate/STIM_009.jpg	100
233.51	1.685	1685.3	generate	Run1	generate/STIM_010.jpg	100
238.734	1.245	1244.9	generate	Run1	generate/STIM_010.jpg	99
242.448	1.279	1278.8	generate	Run1	generate/STIM_010.jpg	99
245.938	2.565	2565.4	generate	Run1	generate/STIM_010.jpg	100
252.324	1.466	1466.3	generate	Run1	generate/STIM_010.jpg	100
256.078	2.375	2374.6	generate	Run1	generate/STIM_011.jpg	100
261.278	1.647	1646.8	generate	Run1	generate/STIM_011.jpg	99
265.18	1.761	1761.0	generate	Run1	generate/STIM_011.jpg	100
269.953	2.508	2508.2	generate	Run1	generate/STIM_011.jpg	100
275.929	2.471	2471.1	generate	Run1	generate/STIM_011.jpg	99
281.872	1.916	1916.3	generate	Run1	generate/STIM_012.jpg	100
287.442	1.901	1901.4	generate	Run1	generate/STIM_012.jpg	100
292.725	2.263	2262.7	generate	Run1	generate/STIM_012.jpg	100
297.552	1.308	1308.4	generate	Run1	generate/STIM_012.jpg	99
302.512	1.409	1408.6	generate	Run1	generate/STIM_012.jpg	99
306.941	2.43	2430.1	generate	Run1	generate/STIM_013.jpg	99
312.303	1.309	1308.7	generate	Run1	generate/STIM_013.jpg	99
315.99	2.402	2402.5	generate	Run1	generate/STIM_013.jpg	100
322.32	1.318	1318.5	generate	Run1	generate/STIM_013.jpg	100
325.842	2.28	2280.4	generate	Run1	generate/STIM_013.jpg	100
331.239	2.833	2832.9	generate	Run1	generate/STIM_014.jpg	99
336.898	1.777	1776.9	generate	Run1	generate/STIM_014.jpg	99
341.538	1.482	1481.9	generate	Run1	generate/STIM_014.jpg	100
345.273	1.843	1843.4	generate	Run1	generate/STIM_014.jpg	100
349.537	2.047	2046.9	generate	Run1	generate/STIM_014.jpg	100
354.561	1.148	1148.4	generate	Run1	generate/STIM_015.jpg	99
358.715	1.282	1282.4	generate	Run1	generate/STIM_015.jpg	99
362.936	2.611	2610.9	generate	Run1	generate/STIM_015.jpg	99
368.85	1.677	1677.4	generate	Run1	generate/STIM_015.jpg	100
373.017	2.135	2134.6	generate	Run1	generate/STIM_015.jpg	99
379.124	2.481	2481.1	generate	Run1	generate/STIM_016.jpg	99
385.009	1.536	1536.1	generate	Run1	generate/STIM_016.jpg	100
389.523	1.366	1365.5	generate	Run1	generate/STIM_016.jpg	99
394.771	1.154	1153.5	generate	Run1	generate/STIM_016.jpg	99
398.581	2.35	2349.8	generate	Run1	generate/STIM_016.jpg	100
403.636	2.848	2847.8	generate	Run1	generate/STIM_017.jpg	99
410.168	2.019	2019.0	generate	Run1	generate/STIM_017.jpg	100
415.341	1.651	1650.7	generate	Run1	generate/STIM_017.jpg	99
420.238	1.118	1118.0	generate	Run1	generate/STIM_017.jpg	99
424.989	1.707	1706.6	generate	Run1	generate/STIM_017.jpg	99
429.581	2.373	2373.3	generate	Run1	generate/STIM_018.jpg	100
434.935	2.417	2417.3	generate	Run1	generate/STIM_018.jpg	99
440.705	2.323	2322.7	generate	Run1	generate/STIM_018.jpg	100
446.4	2.424	2424.4	generate	Run1	generate/STIM_018.jpg	100
451.525	1.775	1775.4	generate	Run1	generate/STIM_018.jpg	99
457.326	2.068	2068.3	generate	Run1	generate/STIM_019.jpg	100
462.241	1.262	1262.0	generate	Run1	generate/STIM_019.jpg	99
467.391	2.468	2468.0	generate	Run1	generate/STIM_019.jpg	99
472.775	1.661	1661.1	generate	Run1	generate/STIM_019.jpg	100
476.733	2.153	2152.6	generate	Run1	generate/STIM_019.jpg	100
481.04	2.618	2617.6	generate	Run1	generate/STIM_020.jpg	100
487.442	2.037	2037.2	generate	Run1	generate/STIM_020.jpg	100
492.677	1.366	1366.2	generate	Run1	generate/STIM_020.jpg	100
497.329	2.264	2264.0	generate	Run1	generate/STIM_020.jpg	99
503.497	1.423	1423.3	generate	Run1	generate/STIM_020.jpg	100
507.893	1.233	1233.4	generate	Run1	generate/STIM_021.jpg	100
511.57	1.679	1679.4	generate	Run1	generate/STIM_021.jpg	99
516.531	2.749	2748.6	generate	Run1	generate/STIM_021.jpg	99
522.647	1.89	1890.5	generate	Run1	generate/STIM_021.jpg	99
527.952	1.302	1302.5	generate	Run1	generate/STIM_021.jpg	99
531.283	2.66	2660.3	generate	Run1	generate/STIM_022.jpg	100
536.199	1.301	1301.2	generate	Run1	generate/STIM_022.jpg	100
540.854	1.164	1164.2	generate	Run1	generate/STIM_022.jpg	100
545.6	1.339	1339.3	generate	Run1	generate/STIM_022.jpg	100
549.799	1.699	1699.4	generate	Run1	generate/STIM_022.jpg	100
554.367	2.744	2743.8	generate	Run1	generate/STIM_023.jpg	100
559.554	2.421	2420.6	generate	Run1	generate/STIM_023.jpg	100
565.225	2.384	2384.1	generate	Run1	generate/STIM_023.jpg	100
569.606	1.96	1959.8	generate	Run1	generate/STIM_023.jpg	99
573.878	2.314	2314.1	generate	Run1	generate/STIM_023.jpg	100
579.804	1.324	1324.3	generate	Run1	generate/STIM_024.jpg	99
583.665	2.799	2799.4	generate	Run1	generate/STIM_024.jpg	100
589.053	2.402	2401.6	generate	Run1	generate/STIM_024.jpg	99
593.716	2.441	2440.9	generate	Run1	generate/STIM_024.jpg	99
598.827	2.049	2048.7	generate	Run1	generate/STIM_024.jpg	100
603.228	0.982	982.0	repeat	Run1	repeat/STIM_000.jpg	99
607.52	0.692	692.0	repeat	Run1	repeat/STIM_000.jpg	99
611.597	0.821	820.6	repeat	Run1	repeat/STIM_000.jpg	99
616.322	0.94	939.8	repeat	Run1	repeat/STIM_000.jpg	100
619.799	0.98	980.1	repeat	Run1	repeat/STIM_000.jpg	99
624.13	0.981	981.4	repeat	Run1	repeat/STIM_001.jpg	99
628.885	0.87	870.2	repeat	Run1	repeat/STIM_001.jpg	99
633.093	0.765	764.8	repeat	Run1	repeat/STIM_001.jpg	100
637.05	0.814	814.0	repeat	Run1	repeat/STIM_001.jpg	100
641.205	1.014	1014.1	repeat	Run1	repeat/STIM_001.jpg	99
645.175	0.742	742.1	repeat	Run1	repeat/STIM_002.jpg	99
649.072	0.598	598.3	repeat	Run1	repeat/STIM_002.jpg	100
652.484	0.692	692.5	repeat	Run1	repeat/STIM_002.jpg	100
656.53	0.968	968.0	repeat	Run1	repeat/STIM_002.jpg	100
660.331	0.709	709.4	repeat	Run1	repeat/STIM_002.jpg	99
664.721	0.572	571.6	repeat	Run1	repeat/STIM_003.jpg	100
667.619	1.036	1036.0	repeat	Run1	repeat/STIM_003.jpg	99
672.441	1.002	1002.1	repeat	Run1	repeat/STIM_003.jpg	99
675.476	0.424	424.1	repeat	Run1	repeat/STIM_003.jpg	99
678.14	0.905	904.6	repeat	Run1	repeat/STIM_003.jpg	99
681.708	0.888	888.4	repeat	Run1	repeat/STIM_004.jpg	100
686.571	0.604	604.4	repeat	Run1	repeat/STIM_004.jpg	99
689.406	0.907	906.6	repeat	Run1	repeat/STIM_004.jpg	100
693.029	0.686	686.0	repeat	Run1	repeat/STIM_004.jpg	100
696.701	0.721	720.6	repeat	Run1	repeat/STIM_004.jpg	100
701.318	0.557	557.1	repeat	Run1	repeat/STIM_005.jpg	99
704.607	0.674	674.1	repeat	Run1	repeat/STIM_005.jpg	99
708.756	0.885	885.0	repeat	Run1	repeat/STIM_005.jpg	99
711.98	0.63	629.9	repeat	Run1	repeat/STIM_005.jpg	99
715.06	0.606	606.4	repeat	Run1	repeat/STIM_005.jpg	100
717.689	0.722	721.7	repeat	Run1	repeat/STIM_006.jpg	100
722.026	0.792	792.1	repeat	Run1	repeat/STIM_006.jpg	99
725.193	0.463	463.0	repeat	Run1	repeat/STIM_006.jpg	99
729.262	1.127	1127.0	repeat	Run1	repeat/STIM_006.jpg	99
732.831	0.666	666.0	repeat	Run1	repeat/STIM_006.jpg	100
736.249	0.887	887.0	repeat	Run1	repeat/STIM_007.jpg	100
739.719	1.08	1080.0	repeat	Run1	repeat/STIM_007.jpg	99
743.189	0.622	621.5	repeat	Run1	repeat/STIM_007.jpg	99
747.631	0.987	986.9	repeat	Run1	repeat/STIM_007.jpg	100
751.385	0.79	789.9	repeat	Run1	repeat/STIM_007.jpg	100
755.169	0.956	956.1	repeat	Run1	repeat/STIM_008.jpg	99
759.071	0.555	555.2	repeat	Run1	repeat/STIM_008.jpg	99
762.63	0.966	966.3	repeat	Run1	repeat/STIM_008.jpg	99
767.399	0.682	681.9	repeat	Run1	repeat/STIM_008.jpg	100
771.322	0.772	772.3	repeat	Run1	repeat/STIM_008.jpg	100
775.468	1.028	1028.1	repeat	Run1	repeat/STIM_009.jpg	100
780.216	0.631	631.2	repeat	Run1	repeat/STIM_009.jpg	100
783.914	0.755	754.8	repeat	Run1	repeat/STIM_009.jpg	100
786.832	0.934	933.8	repeat	Run1	repeat/STIM_009.jpg	99
790.352	0.982	981.7	repeat	Run1	repeat/STIM_009.jpg	99
793.55	0.764	764.1	repeat	Run1	repeat/STIM_010.jpg	100
797.62	0.558	558.1	repeat	Run1	repeat/STIM_010.jpg	100
801.623	0.957	956.7	repeat	Run1	repeat/STIM_010.jpg	99
806.333	0.766	765.8	repeat	Run1	repeat/STIM_010.jpg	99
809.068	0.605	604.6	repeat	Run1	repeat/STIM_010.jpg	99
812.31	0.584	583.7	repeat	Run1	repeat/STIM_011.jpg	99
815.334	0.759	759.3	repeat	Run1	repeat/STIM_011.jpg	100
818.137	0.719	719.0	repeat	Run1	repeat/STIM_011.jpg	99
821.467	0.671	671.0	repeat	Run1	repeat/STIM_011.jpg	99
825.129	0.864	864.1	repeat	Run1	repeat/STIM_011.jpg	100
829.462	0.698	698.5	repeat	Run1	repeat/STIM_012.jpg	100
832.793	0.864	864.1	repeat	Run1	repeat/STIM_012.jpg	100
836.829	0.586	586.1	repeat	Run1	repeat/STIM_012.jpg	99
840.398	0.948	948.0	repeat	Run1	repeat/STIM_012.jpg	99
843.757	0.718	718.2	repeat	Run1	repeat/STIM_012.jpg	100
846.529	0.466	465.9	repeat	Run1	repeat/STIM_013.jpg	99
849.157	0.97	969.8	repeat	Run1	repeat/STIM_013.jpg	100
853.384	0.624	624.4	repeat	Run1	repeat/STIM_013.jpg	100
856.671	0.824	824.3	repeat	Run1	repeat/STIM_013.jpg	100
859.593	0.935	934.9	repeat	Run1	repeat/STIM_013.jpg	100
863.118	0.811	810.9	repeat	Run1	repeat/STIM_014.jpg	100
866.355	1.016	1015.9	repeat	Run1	repeat/STIM_014.jpg	99
871.285	0.961	961.2	repeat	Run1	repeat/STIM_014.jpg	99
874.719	0.742	742.0	repeat	Run1	repeat/STIM_014.jpg	100
878.389	0.84	840.4	repeat	Run1	repeat/STIM_014.jpg	99
882.643	1.713	1712.8	generate	Run2	generate/STIM_000.jpg	100
888.073	2.138	2137.8	generate	Run2	generate/STIM_000.jpg	99
892.241	1.464	1463.9	generate	Run2	generate/STIM_000.jpg	100
897.307	1.697	1697.3	generate	Run2	generate/STIM_000.jpg	99
902.169	1.329	1329.2	generate	Run2	generate/STIM_000.jpg	99
907.231	2.058	2057.6	generate	Run2	generate/STIM_001.jpg	99
913.265	1.478	1478.5	generate	Run2	generate/STIM_001.jpg	100
917.373	1.83	1829.6	generate	Run2	generate/STIM_001.jpg	99
922.095	1.633	1632.7	generate	Run2	generate/STIM_001.jpg	100
927.255	1.124	1123.6	generate	Run2	generate/STIM_001.jpg	100
932.236	1.89	1890.1	generate	Run2	generate/STIM_002.jpg	100
937.275	1.787	1787.3	generate	Run2	generate/STIM_002.jpg	99
942.223	1.052	1052.3	generate	Run2	generate/STIM_002.jpg	99
945.661	1.19	1189.9	generate	Run2	generate/STIM_002.jpg	100
950.139	1.49	1489.8	generate	Run2	generate/STIM_002.jpg	99
954.428	2.438	2437.5	generate	Run2	generate/STIM_003.jpg	99
959.861	1.7	1700.0	generate	Run2	generate/STIM_003.jpg	99
964.53	0.954	953.9	generate	Run2	generate/STIM_003.jpg	99
968.586	1.349	1348.9	generate	Run2	generate/STIM_003.jpg	100
972.903	0.866	866.2	generate	Run2	generate/STIM_003.jpg	99
977.145	2.114	2114.1	generate	Run2	generate/STIM_004.jpg	99
981.892	1.298	1298.0	generate	Run2	generate/STIM_004.jpg	100
987.152	1.0	1000.2	generate	Run2	generate/STIM_004.jpg	99
990.982	1.131	1130.7	generate	Run2	generate/STIM_004.jpg	99
995.649	1.115	1115.1	generate	Run2	generate/STIM_004.jpg	99
999.867	2.258	2258.4	generate	Run2	generate/STIM_005.jpg	99
1005.33	1.776	1776.5	generate	Run2	generate/STIM_005.jpg	100
1010.538	1.06	1060.2	generate	Run2	generate/STIM_005.jpg	100
1014.025	1.045	1044.6	generate	Run2	generate/STIM_005.jpg	99
1017.257	1.069	1069.0	generate	Run2	generate/STIM_005.jpg	100
1021.372	1.184	1183.8	generate	Run2	generate/STIM_006.jpg	99
1025.041	2.421	2420.9	generate	Run2	generate/STIM_006.jpg	100
1030.14	1.482	1482.1	generate	Run2	generate/STIM_006.jpg	99
1034.84	1.693	1693.1	generate	Run2	generate/STIM_006.jpg	100
1040.106	1.698	1697.5	generate	Run2	generate/STIM_006.jpg	100
1043.985	1.113	1113.1	generate	Run2	generate/STIM_007.jpg	100
1048.304	2.184	2184.0	generate	Run2	generate/STIM_007.jpg	100
1053.103	1.299	1299.4	generate	Run2	generate/STIM_007.jpg	99
1057.254	0.958	958.4	generate	Run2	generate/STIM_007.jpg	99
1060.42	1.56	1560.0	generate	Run2	generate/STIM_007.jpg	99
1065.478	2.156	2155.5	generate	Run2	generate/STIM_008.jpg	100
1070.838	1.752	1751.6	generate	Run2	generate/STIM_008.jpg	99
1074.775	1.627	1627.1	generate	Run2	generate/STIM_008.jpg	100
1079.1	0.95	950.3	generate	Run2	generate/STIM_008.jpg	100
1082.805	1.896	1896.1	generate	Run2	generate/STIM_008.jpg	100
1087.19	1.623	1623.2	generate	Run2	generate/STIM_009.jpg	100
1091.202	1.825	1825.1	generate	Run2	generate/STIM_009.jpg	99
1095.912	1.661	1660.7	generate	Run2	generate/STIM_009.jpg	99
1100.055	1.668	1668.1	generate	Run2	generate/STIM_009.jpg	100
1104.758	1.287	1287.4	generate	Run2	generate/STIM_009.jpg	99
1108.475	1.947	1947.0	generate	Run2	generate/STIM_010.jpg	99
1113.278	2.309	2309.0	generate	Run2	generate/STIM_010.jpg	100
1118.587	1.441	1441.1	generate	Run2	generate/STIM_010.jpg	99
1123.818	2.158	2158.0	generate	Run2	generate/STIM_010.jpg	99
1128.701	1.743	1743.0	generate	Run2	generate/STIM_010.jpg	100
1133.011	1.278	1278.2	generate	Run2	generate/STIM_011.jpg	100
1137.763	1.806	1806.5	generate	Run2	generate/STIM_011.jpg	100
1143.279	1.02	1020.3	generate	Run2	generate/STIM_011.jpg	99
1147.944	1.137	1136.6	generate	Run2	generate/STIM_011.jpg	100
1152.814	0.89	890.2	generate	Run2	generate/STIM_011.jpg	100
1156.232	1.488	1487.5	generate	Run2	generate/STIM_012.jpg	99
1160.905	1.348	1348.4	generate	Run2	generate/STIM_012.jpg	99
1165.204	1.321	1320.7	generate	Run2	generate/STIM_012.jpg	99
1169.39	1.362	1361.8	generate	Run2	generate/STIM_012.jpg	99
1174.217	1.507	1507.2	generate	Run2	generate/STIM_012.jpg	100
1178.882	2.597	2597.3	generate	Run2	generate/STIM_013.jpg	100
1184.174	2.209	2209.3	generate	Run2	generate/STIM_013.jpg	100
1189.894	1.405	1405.1	generate	Run2	generate/STIM_013.jpg	99
1194.976	0.98	980.0	generate	Run2	generate/STIM_013.jpg	100
1199.69	1.223	1223.3	generate	Run2	generate/STIM_013.jpg	100
1204.69	1.338	1338.1	generate	Run2	generate/STIM_014.jpg	99
1208.054	1.908	1907.6	generate	Run2	generate/STIM_014.jpg	99
1213.541	1.153	1152.6	generate	Run2	generate/STIM_014.jpg	100
1217.78	2.061	2061.2	generate	Run2	generate/STIM_014.jpg	99
1223.405	1.445	1444.8	generate	Run2	generate/STIM_014.jpg	99
1228.206	1.617	1617.4	generate	Run2	generate/STIM_015.jpg	99
1233.154	1.253	1253.2	generate	Run2	generate/STIM_015.jpg	100
1236.603	2.024	2023.6	generate	Run2	generate/STIM_015.jpg	100
1240.963	1.366	1365.7	generate	Run2	generate/STIM_015.jpg	99
1245.851	1.661	1661.4	generate	Run2	generate/STIM_015.jpg	100
1250.148	1.264	1264.2	generate	Run2	generate/STIM_016.jpg	99
1253.864	1.541	1540.8	generate	Run2	generate/STIM_016.jpg	99
1259.219	1.456	1455.5	generate	Run2	generate/STIM_016.jpg	99
1263.87	1.69	1689.8	generate	Run2	generate/STIM_016.jpg	99
1268.066	1.805	1804.7	generate	Run2	generate/STIM_016.jpg	100
1273.807	1.605	1605.0	generate	Run2	generate/STIM_017.jpg	100
1277.848	1.069	1068.6	generate	Run2	generate/STIM_017.jpg	99
1281.322	2.279	2278.9	generate	Run2	generate/STIM_017.jpg	99
1287.193	1.989	1989.4	generate	Run2	generate/STIM_017.jpg	99
1292.439	1.405	1405.3	generate	Run2	generate/STIM_017.jpg	100
1297.167	1.459	1458.9	generate	Run2	generate/STIM_018.jpg	99
1301.488	2.358	2358.2	generate	Run2	generate/STIM_018.jpg	100
1306.348	1.862	1861.8	generate	Run2	generate/STIM_018.jpg	100
1310.186	1.693	1692.8	generate	Run2	generate/STIM_018.jpg	99
1313.968	1.972	1971.7	generate	Run2	generate/STIM_018.jpg	100
1318.066	2.535	2534.7	generate	Run2	generate/STIM_019.jpg	100
1323.972	1.74	1739.9	generate	Run2	generate/STIM_019.jpg	100
1329.274	2.059	2058.9	generate	Run2	generate/STIM_019.jpg	99
1334.819	1.853	1852.9	generate	Run2	generate/STIM_019.jpg	100
1339.214	1.304	1304.4	generate	Run2	generate/STIM_019.jpg	100
1343.418	2.487	2486.8	generate	Run2	generate/STIM_020.jpg	99
1348.251	1.844	1844.0	generate	Run2	generate/STIM_020.jpg	100
1352.629	1.232	1231.5	generate	Run2	generate/STIM_020.jpg	99
1357.002	1.806	1805.5	generate	Run2	generate/STIM_020.jpg	100
1362.283	1.204	1204.4	generate	Run2	generate/STIM_020.jpg	100
1366.326	2.59	2590.2	generate	Run2	generate/STIM_021.jpg	100
1370.973	2.23	2229.5	generate	Run2	generate/STIM_021.jpg	99
1375.81	2.169	2169.3	generate	Run2	generate/STIM_021.jpg	100
1380.277	1.001	1001.0	generate	Run2	generate/STIM_021.jpg	100
1384.318	1.278	1278.5	generate	Run2	generate/STIM_021.jpg	100
1388.274	2.035	2034.7	generate	Run2	generate/STIM_022.jpg	99
1393.649	1.785	1784.9	generate	Run2	generate/STIM_022.jpg	100
1399.171	1.794	1793.6	generate	Run2	generate/STIM_022.jpg	99
1403.699	1.89	1889.7	generate	Run2	generate/STIM_022.jpg	99
1409.063	2.105	2105.3	generate	Run2	generate/STIM_022.jpg	100
1414.518	1.568	1568.5	generate	Run2	generate/STIM_023.jpg	99
1419.033	2.379	2379.3	generate	Run2	generate/STIM_023.jpg	99
1423.59	1.299	1298.9	generate	Run2	generate/STIM_023.jpg	100
1427.689	2.018	2017.7	generate	Run2	generate/STIM_023.jpg	100
1432.065	1.905	1905.1	generate	Run2	generate/STIM_023.jpg	100
1437.517	1.448	1447.6	generate	Run2	generate/STIM_024.jpg	100
1442.227	1.643	1643.0	generate	Run2	generate/STIM_024.jpg	99
1446.598	1.112	1111.5	generate	Run2	generate/STIM_024.jpg	100
1450.311	1.603	1602.6	generate	Run2	generate/STIM_024.jpg	100
1455.508	1.629	1629.3	generate	Run2	generate/STIM_024.jpg	99
1460.429	0.52	519.5	repeat	Run2	repeat/STIM_000.jpg	99
1463.589	0.589	589.2	repeat	Run2	repeat/STIM_000.jpg	100
1466.611	0.947	946.6	repeat	Run2	repeat/STIM_000.jpg	99
1469.631	0.953	952.9	repeat	Run2	repeat/STIM_000.jpg	99
1472.503	0.638	637.7	repeat	Run2	repeat/STIM_000.jpg	100
1475.905	0.782	782.2	repeat	Run2	repeat/STIM_001.jpg	100
1480.321	0.808	807.9	repeat	Run2	repeat/STIM_001.jpg	99
1484.144	0.614	613.9	repeat	Run2	repeat/STIM_001.jpg	99
1488.376	0.862	862.5	repeat	Run2	repeat/STIM_001.jpg	100
1491.994	0.68	680.4	repeat	Run2	repeat/STIM_001.jpg	99
1495.089	0.933	933.1	repeat	Run2	repeat/STIM_002.jpg	100
1498.136	0.712	712.5	repeat	Run2	repeat/STIM_002.jpg	100
1502.514	0.71	709.8	repeat	Run2	repeat/STIM_002.jpg	100
1505.43	0.955	955.3	repeat	Run2	repeat/STIM_002.jpg	99
1508.937	0.882	882.5	repeat	Run2	repeat/STIM_002.jpg	99
1512.422	0.492	491.9	repeat	Run2	repeat/STIM_003.jpg	100
1516.003	0.84	840.1	repeat	Run2	repeat/STIM_003.jpg	100
1519.736	0.526	525.9	repeat	Run2	repeat/STIM_003.jpg	100
1523.724	0.698	697.8	repeat	Run2	repeat/STIM_003.jpg	100
1527.126	0.484	484.0	repeat	Run2	repeat/STIM_003.jpg	100
1531.37	0.943	943.2	repeat	Run2	repeat/STIM_004.jpg	99
1536.199	0.824	823.8	repeat	Run2	repeat/STIM_004.jpg	99
1539.372	0.708	708.0	repeat	Run2	repeat/STIM_004.jpg	100
1542.909	0.885	885.0	repeat	Run2	repeat/STIM_004.jpg	99
1546.77	0.76	760.2	repeat	Run2	repeat/STIM_004.jpg	100
1550.685	0.858	858.1	repeat	Run2	repeat/STIM_005.jpg	99
1555.127	0.857	857.3	repeat	Run2	repeat/STIM_005.jpg	99
1558.491	0.775	774.6	repeat	Run2	repeat/STIM_005.jpg	99
1562.392	0.913	913.4	repeat	Run2	repeat/STIM_005.jpg	99
1567.015	0.878	877.6	repeat	Run2	repeat/STIM_005.jpg	99
1570.845	0.904	904.5	repeat	Run2	repeat/STIM_006.jpg	100
1574.304	0.791	790.7	repeat	Run2	repeat/STIM_006.jpg	100
1577.344	0.667	667.2	repeat	Run2	repeat/STIM_006.jpg	99
1581.655	1.056	1056.0	repeat	Run2	repeat/STIM_006.jpg	100
1584.709	0.525	525.2	repeat	Run2	repeat/STIM_006.jpg	100
1588.864	0.581	580.6	repeat	Run2	repeat/STIM_007.jpg	100
1592.731	0.73	730.5	repeat	Run2	repeat/STIM_007.jpg	100
1596.103	0.874	874.3	repeat	Run2	repeat/STIM_007.jpg	99
1599.139	0.822	821.7	repeat	Run2	repeat/STIM_007.jpg	99
1603.078	0.512	511.6	repeat	Run2	repeat/STIM_007.jpg	100
1606.548	0.86	860.0	repeat	Run2	repeat/STIM_008.jpg	100
1609.88	0.73	730.1	repeat	Run2	repeat/STIM_008.jpg	99
1612.719	0.586	585.9	repeat	Run2	repeat/STIM_008.jpg	100
1616.802	0.865	865.3	repeat	Run2	repeat/STIM_008.jpg	100
1620.493	0.792	792.4	repeat	Run2	repeat/STIM_008.jpg	99
1624.474	0.936	936.2	repeat	Run2	repeat/STIM_009.jpg	100
1627.539	0.864	863.7	repeat	Run2	repeat/STIM_009.jpg	99
1630.89	0.787	786.8	repeat	Run2	repeat/STIM_009.jpg	99
1634.184	0.757	756.8	repeat	Run2	repeat/STIM_009.jpg	99
1637.81	0.52	520.4	repeat	Run2	repeat/STIM_009.jpg	100
1640.578	0.66	659.6	repeat	Run2	repeat/STIM_010.jpg	99
1644.605	0.529	529.0	repeat	Run2	repeat/STIM_010.jpg	99
1648.817	0.636	635.6	repeat	Run2	repeat/STIM_010.jpg	100
1652.573	0.755	754.7	repeat	Run2	repeat/STIM_010.jpg	99
1656.101	0.73	729.7	repeat	Run2	repeat/STIM_010.jpg	100
1659.742	0.911	910.7	repeat	Run2	repeat/STIM_011.jpg	99
1664.4	0.748	747.5	repeat	Run2	repeat/STIM_011.jpg	100
1669.021	0.676	675.6	repeat	Run2	repeat/STIM_011.jpg	100
1673.037	0.8	799.7	repeat	Run2	repeat/STIM_011.jpg	99
1676.69	0.905	904.8	repeat	Run2	repeat/STIM_011.jpg	100
1680.688	0.603	602.9	repeat	Run2	repeat/STIM_012.jpg	99
1685.004	0.885	885.2	repeat	Run2	repeat/STIM_012.jpg	100
1688.786	0.56	559.5	repeat	Run2	repeat/STIM_012.jpg	100
1693.253	1.125	1125.4	repeat	Run2	repeat/STIM_012.jpg	100
1697.868	0.69	690.5	repeat	Run2	repeat/STIM_012.jpg	99
1702.35	0.575	575.4	repeat	Run2	repeat/STIM_013.jpg	100
1705.365	0.736	736.3	repeat	Run2	repeat/STIM_013.jpg	100
1708.719	0.715	714.8	repeat	Run2	repeat/STIM_013.jpg	99
1712.531	0.822	822.1	repeat	Run2	repeat/STIM_013.jpg	100
1716.154	0.515	515.3	repeat	Run2	repeat/STIM_013.jpg	99
1719.83	0.799	798.8	repeat	Run2	repeat/STIM_014.jpg	99
1723.279	0.693	692.6	repeat	Run2	repeat/STIM_014.jpg	100
1727.227	0.918	918.2	repeat	Run2	repeat/STIM_014.jpg	100
1731.572	0.58	580.1	repeat	Run2	repeat/STIM_014.jpg	100
1735.82	0.827	826.8	repeat	Run2	repeat/STIM_014.jpg	99
1738.655	1.212	1212.2	generate	Run3	generate/STIM_000.jpg	99
1743.362	1.358	1357.6	generate	Run3	generate/STIM_000.jpg	99
1746.732	1.322	1321.5	generate	Run3	generate/STIM_000.jpg	100
1751.611	1.546	1545.9	generate	Run3	generate/STIM_000.jpg	100
1755.121	1.765	1764.8	generate	Run3	generate/STIM_000.jpg	99
1759.775	1.478	1477.7	generate	Run3	generate/STIM_001.jpg	100
1763.872	1.911	1910.6	generate	Run3	generate/STIM_001.jpg	100
1768.126	1.929	1929.3	generate	Run3	generate/STIM_001.jpg	100
1772.83	1.018	1018.0	generate	Run3	generate/STIM_001.jpg	99
1777.857	1.212	1211.7	generate	Run3	generate/STIM_001.jpg	100
1781.813	0.953	953.4	generate	Run3	generate/STIM_002.jpg	99
1786.319	1.548	1547.7	generate	Run3	generate/STIM_002.jpg	99
1791.217	2.126	2126.0	generate	Run3	generate/STIM_002.jpg	99
1795.934	1.133	1133.2	generate	Run3	generate/STIM_002.jpg	100
1799.84	1.805	1804.8	generate	Run3	generate/STIM_002.jpg	100
1804.273	1.848	1847.8	generate	Run3	generate/STIM_003.jpg	99
1809.732	1.228	1228.1	generate	Run3	generate/STIM_003.jpg	100
1814.183	1.97	1969.9	generate	Run3	generate/STIM_003.jpg	99
1819.869	1.519	1518.9	generate	Run3	generate/STIM_003.jpg	100
1824.966	1.572	1572.5	generate	Run3	generate/STIM_003.jpg	100
1829.384	1.591	1591.1	generate	Run3	generate/STIM_004.jpg	100
1833.568	1.657	1657.1	generate	Run3	generate/STIM_004.jpg	100
1838.762	1.923	1922.6	generate	Run3	generate/STIM_004.jpg	100
1842.939	1.286	1285.8	generate	Run3	generate/STIM_004.jpg	99
1847.875	1.649	1648.8	generate	Run3	generate/STIM_004.jpg	99
1853.444	1.789	1788.7	generate	Run3	generate/STIM_005.jpg	100
1858.541	2.03	2029.7	generate	Run3	generate/STIM_005.jpg	99
1863.71	1.014	1014.5	generate	Run3	generate/STIM_005.jpg	100
1868.551	1.815	1815.2	generate	Run3	generate/STIM_005.jpg	99
1873.587	1.358	1358.3	generate	Run3	generate/STIM_005.jpg	100
1877.789	1.726	1725.9	generate	Run3	generate/STIM_006.jpg	99
1882.262	1.762	1761.7	generate	Run3	generate/STIM_006.jpg	100
1886.474	0.9	900.4	generate	Run3	generate/STIM_006.jpg	99
1890.15	2.093	2092.9	generate	Run3	generate/STIM_006.jpg	99
1895.701	2.084	2084.3	generate	Run3	generate/STIM_006.jpg	99
1901.003	1.172	1171.9	generate	Run3	generate/STIM_007.jpg	99
1905.84	2.052	2052.4	generate	Run3	generate/STIM_007.jpg	99
1910.82	1.833	1833.1	generate	Run3	generate/STIM_007.jpg	100
1915.309	1.439	1438.8	generate	Run3	generate/STIM_007.jpg	99
1918.769	1.068	1068.1	generate	Run3	generate/STIM_007.jpg	100
1922.528	1.394	1394.0	generate	Run3	generate/STIM_008.jpg	99
1926.122	1.77	1769.7	generate	Run3	generate/STIM_008.jpg	99
1930.445	1.826	1826.3	generate	Run3	generate/STIM_008.jpg	99
1934.621	1.99	1990.0	generate	Run3	generate/STIM_008.jpg	100
1939.994	1.306	1305.9	generate	Run3	generate/STIM_008.jpg	100
1943.942	2.148	2148.0	generate	Run3	generate/STIM_009.jpg	99
1949.761	1.236	1235.6	generate	Run3	generate/STIM_009.jpg	99
1953.438	1.818	1817.5	generate	Run3	generate/STIM_009.jpg	99
1958.404	2.072	2071.7	generate	Run3	generate/STIM_009.jpg	100
1963.505	1.168	1168.1	generate	Run3	generate/STIM_009.jpg	100
1967.324	1.437	1436.6	generate	Run3	generate/STIM_010.jpg	100
1972.495	1.458	1458.2	generate	Run3	generate/STIM_010.jpg	100
1976.919	1.294	1293.6	generate	Run3	generate/STIM_010.jpg	100
1980.355	2.07	2070.0	generate	Run3	generate/STIM_010.jpg	99
1985.362	2.074	2074.1	generate	Run3	generate/STIM_010.jpg	100
1989.685	1.74	1740.0	generate	Run3	generate/STIM_011.jpg	100
1993.965	1.779	1778.6	generate	Run3	generate/STIM_011.jpg	100
1998.935	1.19	1189.6	generate	Run3	generate/STIM_011.jpg	100
2003.068	2.039	2038.8	generate	Run3	generate/STIM_011.jpg	100
2008.018	1.396	1395.6	generate	Run3	generate/STIM_011.jpg	99
2012.843	1.274	1274.0	generate	Run3	generate/STIM_012.jpg	99
2016.886	1.998	1998.0	generate	Run3	generate/STIM_012.jpg	99
2022.152	1.29	1289.6	generate	Run3	generate/STIM_012.jpg	100
2026.967	1.448	1447.5	generate	Run3	generate/STIM_012.jpg	100
2031.72	1.328	1328.4	generate	Run3	generate/STIM_012.jpg	100
2036.183	2.066	2065.8	generate	Run3	generate/STIM_013.jpg	99
2040.327	2.12	2120.3	generate	Run3	generate/STIM_013.jpg	100
2045.526	1.849	1849.0	generate	Run3	generate/STIM_013.jpg	99
2050.145	1.499	1499.4	generate	Run3	generate/STIM_013.jpg	99
2054.479	1.455	1455.2	generate	Run3	generate/STIM_013.jpg	99
2058.377	0.994	993.8	generate	Run3	generate/STIM_014.jpg	99
2063.267	1.27	1270.5	generate	Run3	generate/STIM_014.jpg	100
2067.436	2.076	2075.9	generate	Run3	generate/STIM_014.jpg	99
2073.309	2.073	2072.8	generate	Run3	generate/STIM_014.jpg	100
2077.915	1.592	1591.6	generate	Run3	generate/STIM_014.jpg	100
2083.22	1.887	1887.0	generate	Run3	generate/STIM_015.jpg	99
2087.721	1.644	1643.7	generate	Run3	generate/STIM_015.jpg	99
2091.893	1.066	1066.4	generate	Run3	generate/STIM_015.jpg	100
2096.453	1.655	1655.4	generate	Run3	generate/STIM_015.jpg	100
2100.104	1.032	1031.5	generate	Run3	generate/STIM_015.jpg	99
2104.285	1.655	1655.4	generate	Run3	generate/STIM_016.jpg	100
2109.153	1.611	1611.0	generate	Run3	generate/STIM_016.jpg	99
2112.704	1.201	1201.4	generate	Run3	generate/STIM_016.jpg	100
2117.533	2.068	2068.1	generate	Run3	generate/STIM_016.jpg	99
2122.377	1.392	1392.4	generate	Run3	generate/STIM_016.jpg	99
2126.044	1.748	1747.8	generate	Run3	generate/STIM_017.jpg	99
2130.722	1.155	1155.1	generate	Run3	generate/STIM_017.jpg	100
2134.497	1.524	1524.1	generate	Run3	generate/STIM_017.jpg	99
2138.616	1.315	1315.3	generate	Run3	generate/STIM_017.jpg	100
2142.663	1.584	1584.1	generate	Run3	generate/STIM_017.jpg	100
2146.943	1.034	1033.6	generate	Run3	generate/STIM_018.jpg	100
2150.895	1.151	1150.7	generate	Run3	generate/STIM_018.jpg	99
2155.416	1.76	1759.5	generate	Run3	generate/STIM_018.jpg	99
2160.309	1.492	1492.5	generate	Run3	generate/STIM_018.jpg	100
2165.784	0.953	952.9	generate	Run3	generate/STIM_018.jpg	99
2170.046	2.024	2023.7	generate	Run3	generate/STIM_019.jpg	99
2175.472	1.173	1172.9	generate	Run3	generate/STIM_019.jpg	99
2179.605	1.055	1055.4	generate	Run3	generate/STIM_019.jpg	100
2182.795	1.737	1736.7	generate	Run3	generate/STIM_019.jpg	99
2187.178	1.841	1841.3	generate	Run3	generate/STIM_019.jpg	99
2191.65	1.054	1053.8	generate	Run3	generate/STIM_020.jpg	100
2196.295	1.911	1911.1	generate	Run3	generate/STIM_020.jpg	99
2201.844	1.752	1752.0	generate	Run3	generate/STIM_020.jpg	99
2207.023	1.068	1068.2	generate	Run3	generate/STIM_020.jpg	99
2210.545	1.694	1693.5	generate	Run3	generate/STIM_020.jpg	99
2214.935	1.194	1194.1	generate	Run3	generate/STIM_021.jpg	99
2219.33	1.458	1458.3	generate	Run3	generate/STIM_021.jpg	99
2224.006	1.703	1703.0	generate	Run3	generate/STIM_021.jpg	99
2229.651	1.638	1637.9	generate	Run3	generate/STIM_021.jpg	100
2234.09	1.752	1751.9	generate	Run3	generate/STIM_021.jpg	100
2239.2	1.829	1829.1	generate	Run3	generate/STIM_022.jpg	99
2244.723	0.964	964.0	generate	Run3	generate/STIM_022.jpg	99
2248.421	0.932	932.4	generate	Run3	generate/STIM_022.jpg	99
2251.46	1.26	1260.3	generate	Run3	generate/STIM_022.jpg	99
2254.669	1.196	1195.6	generate	Run3	generate/STIM_022.jpg	100
2258.623	1.326	1326.5	generate	Run3	generate/STIM_023.jpg	99
2262.128	1.782	1781.5	generate	Run3	generate/STIM_023.jpg	100
2267.257	1.063	1062.7	generate	Run3	generate/STIM_023.jpg	100
2272.289	1.831	1830.7	generate	Run3	generate/STIM_023.jpg	100
2276.326	0.979	979.2	generate	Run3	generate/STIM_023.jpg	99
2280.888	1.94	1940.5	generate	Run3	generate/STIM_024.jpg	99
2285.316	1.396	1396.1	generate	Run3	generate/STIM_024.jpg	100
2288.738	2.149	2149.0	generate	Run3	generate/STIM_024.jpg	99
2293.105	1.03	1030.3	generate	Run3	generate/STIM_024.jpg	100
2296.931	1.752	1752.2	generate	Run3	generate/STIM_024.jpg	100
2301.519	0.94	939.5	repeat	Run3	repeat/STIM_000.jpg	100
2305.443	0.727	726.6	repeat	Run3	repeat/STIM_000.jpg	100
2310.179	0.562	562.4	repeat	Run3	repeat/STIM_000.jpg	99
2313.399	0.661	661.0	repeat	Run3	repeat/STIM_000.jpg	100
2317.263	0.824	823.5	repeat	Run3	repeat/STIM_000.jpg	99
2322.008	0.942	941.7	repeat	Run3	repeat/STIM_001.jpg	100
2326.849	0.803	803.1	repeat	Run3	repeat/STIM_001.jpg	99
2331.302	0.584	583.6	repeat	Run3	repeat/STIM_001.jpg	100
2334.456	0.866	866.1	repeat	Run3	repeat/STIM_001.jpg	99
2337.763	0.778	778.4	repeat	Run3	repeat/STIM_001.jpg	99
2340.68	0.724	724.4	repeat	Run3	repeat/STIM_002.jpg	100
2345.246	0.678	678.3	repeat	Run3	repeat/STIM_002.jpg	100
2349.301	0.9	899.6	repeat	Run3	repeat/STIM_002.jpg	100
2352.385	0.601	601.2	repeat	Run3	repeat/STIM_002.jpg	100
2356.112	0.583	582.8	repeat	Run3	repeat/STIM_002.jpg	100
2359.992	0.747	747.0	repeat	Run3	repeat/STIM_003.jpg	100
2363.432	0.64	639.7	repeat	Run3	repeat/STIM_003.jpg	100
2366.653	0.725	725.2	repeat	Run3	repeat/STIM_003.jpg	100
2370.917	0.633	633.4	repeat	Run3	repeat/STIM_003.jpg	99
2375.126	1.005	1004.8	repeat	Run3	repeat/STIM_003.jpg	99
2378.672	0.522	522.0	repeat	Run3	repeat/STIM_004.jpg	100
2382.302	0.752	752.0	repeat	Run3	repeat/STIM_004.jpg	99
2385.902	0.808	808.4	repeat	Run3	repeat/STIM_004.jpg	99
2389.058	0.705	705.1	repeat	Run3	repeat/STIM_004.jpg	100
2392.184	0.51	510.2	repeat	Run3	repeat/STIM_004.jpg	99
2395.758	0.965	964.8	repeat	Run3	repeat/STIM_005.jpg	100
2399.385	0.703	703.0	repeat	Run3	repeat/STIM_005.jpg	99
2403.088	0.74	739.8	repeat	Run3	repeat/STIM_005.jpg	100
2406.323	0.533	533.4	repeat	Run3	repeat/STIM_005.jpg	100
2410.763	0.891	890.9	repeat	Run3	repeat/STIM_005.jpg	100
2415.412	0.874	873.9	repeat	Run3	repeat/STIM_006.jpg	99
2419.963	1.02	1019.6	repeat	Run3	repeat/STIM_006.jpg	99
2424.008	0.632	632.4	repeat	Run3	repeat/STIM_006.jpg	100
2426.727	0.948	947.5	repeat	Run3	repeat/STIM_006.jpg	100
2430.111	0.793	793.1	repeat	Run3	repeat/STIM_006.jpg	99
2433.697	0.79	790.1	repeat	Run3	repeat/STIM_007.jpg	100
2438.427	0.859	858.7	repeat	Run3	repeat/STIM_007.jpg	100
2441.451	0.848	847.7	repeat	Run3	repeat/STIM_007.jpg	99
2444.902	0.516	516.0	repeat	Run3	repeat/STIM_007.jpg	100
2448.175	0.932	931.8	repeat	Run3	repeat/STIM_007.jpg	99
2452.479	0.7	699.5	repeat	Run3	repeat/STIM_008.jpg	100
2455.192	0.867	867.4	repeat	Run3	repeat/STIM_008.jpg	100
2459.795	0.935	934.6	repeat	Run3	repeat/STIM_008.jpg	100
2463.95	0.951	950.9	repeat	Run3	repeat/STIM_008.jpg	100
2468.47	0.692	692.1	repeat	Run3	repeat/STIM_008.jpg	100
2472.795	0.788	788.2	repeat	Run3	repeat/STIM_009.jpg	99
2477.478	0.63	629.7	repeat	Run3	repeat/STIM_009.jpg	99
2481.161	0.705	704.9	repeat	Run3	repeat/STIM_009.jpg	100
2484.846	0.608	607.6	repeat	Run3	repeat/STIM_009.jpg	100
2488.842	0.691	690.8	repeat	Run3	repeat/STIM_009.jpg	99
2492.002	0.604	603.5	repeat	Run3	repeat/STIM_010.jpg	100
2496.0	1.012	1012.2	repeat	Run3	repeat/STIM_010.jpg	100
2499.455	0.7	700.5	repeat	Run3	repeat/STIM_010.jpg	100
2503.107	0.57	570.2	repeat	Run3	repeat/STIM_010.jpg	100
2506.19	0.745	745.1	repeat	Run3	repeat/STIM_010.jpg	100
2509.002	0.915	915.2	repeat	Run3	repeat/STIM_011.jpg	99
2512.882	0.708	708.3	repeat	Run3	repeat/STIM_011.jpg	100
2515.724	1.029	1029.4	repeat	Run3	repeat/STIM_011.jpg	99
2520.384	0.609	608.6	repeat	Run3	repeat/STIM_011.jpg	100
2524.307	0.608	607.6	repeat	Run3	repeat/STIM_011.jpg	99
2527.959	0.739	739.4	repeat	Run3	repeat/STIM_012.jpg	99
2531.013	0.715	714.7	repeat	Run3	repeat/STIM_012.jpg	99
2535.088	0.933	933.3	repeat	Run3	repeat/STIM_012.jpg	99
2539.588	0.377	377.4	repeat	Run3	repeat/STIM_012.jpg	99
2542.853	0.774	773.5	repeat	Run3	repeat/STIM_012.jpg	99
2546.529	0.66	659.5	repeat	Run3	repeat/STIM_013.jpg	100
2550.987	0.819	819.1	repeat	Run3	repeat/STIM_013.jpg	100
2555.407	0.643	642.6	repeat	Run3	repeat/STIM_013.jpg	99
2559.145	0.71	709.9	repeat	Run3	repeat/STIM_013.jpg	100
2562.343	0.736	736.2	repeat	Run3	repeat/STIM_013.jpg	99
2565.52	0.929	929.0	repeat	Run3	repeat/STIM_014.jpg	99
2570.247	0.812	812.3	repeat	Run3	repeat/STIM_014.jpg	100
2574.798	0.6	599.5	repeat	Run3	repeat/STIM_014.jpg	100
2579.134	0.54	540.3	repeat	Run3	repeat/STIM_014.jpg	100
2583.429	0.89	890.4	repeat	Run3	repeat/STIM_014.jpg	100
2586.592	1.896	1896.5	generate	Run4	generate/STIM_000.jpg	99
2591.585	2.129	2129.2	generate	Run4	generate/STIM_000.jpg	100
2596.187	2.088	2087.8	generate	Run4	generate/STIM_000.jpg	99
2600.371	1.198	1198.5	generate	Run4	generate/STIM_000.jpg	100
2604.324	1.135	1134.9	generate	Run4	generate/STIM_000.jpg	100
2608.761	1.511	1510.6	generate	Run4	generate/STIM_001.jpg	99
2613.887	1.154	1153.5	generate	Run4	generate/STIM_001.jpg	99
2617.389	1.066	1066.0	generate	Run4	generate/STIM_001.jpg	100
2621.962	1.93	1929.7	generate	Run4	generate/STIM_001.jpg	99
2626.364	1.579	1578.8	generate	Run4	generate/STIM_001.jpg	99
2631.4	1.681	1680.8	generate	Run4	generate/STIM_002.jpg	99
2636.783	1.88	1880.1	generate	Run4	generate/STIM_002.jpg	99
2640.771	1.46	1460.2	generate	Run4	generate/STIM_002.jpg	99
2645.639	1.911	1911.2	generate	Run4	generate/STIM_002.jpg	99
2649.906	0.944	943.6	generate	Run4	generate/STIM_002.jpg	99
2653.722	1.696	1696.0	generate	Run4	generate/STIM_003.jpg	100
2659.302	1.989	1988.8	generate	Run4	generate/STIM_003.jpg	99
2663.605	1.307	1306.8	generate	Run4	generate/STIM_003.jpg	100
2667.486	1.152	1152.3	generate	Run4	generate/STIM_003.jpg	100
2671.444	1.358	1357.7	generate	Run4	generate/STIM_003.jpg	99
2674.878	0.942	942.3	generate	Run4	generate/STIM_004.jpg	100
2679.446	1.124	1123.8	generate	Run4	generate/STIM_004.jpg	100
2684.452	2.135	2134.7	generate	Run4	generate/STIM_004.jpg	99
2689.91	1.469	1468.8	generate	Run4	generate/STIM_004.jpg	99
2694.134	1.458	1458.0	generate	Run4	generate/STIM_004.jpg	99
2698.108	0.878	877.9	generate	Run4	generate/STIM_005.jpg	100
2702.053	1.657	1657.1	generate	Run4	generate/STIM_005.jpg	99
2706.064	1.544	1543.5	generate	Run4	generate/STIM_005.jpg	100
2710.853	0.988	987.5	generate	Run4	generate/STIM_005.jpg	99
2715.033	1.295	1295.0	generate	Run4	generate/STIM_005.jpg	100
2719.929	1.58	1580.3	generate	Run4	generate/STIM_006.jpg	99
2724.745	1.266	1266.0	generate	Run4	generate/STIM_006.jpg	99
2729.07	1.846	1846.1	generate	Run4	generate/STIM_006.jpg	100
2732.93	1.714	1714.1	generate	Run4	generate/STIM_006.jpg	100
2737.934	1.022	1022.5	generate	Run4	generate/STIM_006.jpg	99
2742.701	2.087	2086.7	generate	Run4	generate/STIM_007.jpg	99
2747.324	1.846	1845.5	generate	Run4	generate/STIM_007.jpg	99
2752.444	1.812	1812.2	generate	Run4	generate/STIM_007.jpg	100
2757.417	0.93	930.4	generate	Run4	generate/STIM_007.jpg	100
2762.117	1.586	1586.0	generate	Run4	generate/STIM_007.jpg	100
2766.009	1.97	1969.8	generate	Run4	generate/STIM_008.jpg	99
2770.832	1.458	1458.5	generate	Run4	generate/STIM_008.jpg	100
2775.688	1.469	1469.1	generate	Run4	generate/STIM_008.jpg	100
2780.676	1.138	1137.8	generate	Run4	generate/STIM_008.jpg	99
2785.376	1.755	1755.2	generate	Run4	generate/STIM_008.jpg	99
2789.639	1.587	1587.2	generate	Run4	generate/STIM_009.jpg	100
2793.971	1.067	1066.9	generate	Run4	generate/STIM_009.jpg	100
2797.224	1.485	1485.4	generate	Run4	generate/STIM_009.jpg	100
2800.703	1.227	1227.3	generate	Run4	generate/STIM_009.jpg	100
2804.735	1.374	1374.2	generate	Run4	generate/STIM_009.jpg	99
2809.582	2.091	2091.0	generate	Run4	generate/STIM_010.jpg	99
2815.013	2.066	2065.7	generate	Run4	generate/STIM_010.jpg	100
2820.804	0.935	935.4	generate	Run4	generate/STIM_010.jpg	99
2824.06	1.808	1807.5	generate	Run4	generate/STIM_010.jpg	99
2828.803	1.36	1359.5	generate	Run4	generate/STIM_010.jpg	100
2832.734	1.012	1012.3	generate	Run4	generate/STIM_011.jpg	99
2837.477	0.881	881.0	generate	Run4	generate/STIM_011.jpg	100
2841.499	1.792	1791.6	generate	Run4	generate/STIM_011.jpg	99
2846.699	2.106	2106.1	generate	Run4	generate/STIM_011.jpg	99
2852.584	1.306	1306.1	generate	Run4	generate/STIM_011.jpg	100
2856.808	1.704	1703.6	generate	Run4	generate/STIM_012.jpg	99
2860.892	2.134	2134.5	generate	Run4	generate/STIM_012.jpg	99
2865.851	1.45	1450.2	generate	Run4	generate/STIM_012.jpg	100
2871.055	1.964	1963.8	generate	Run4	generate/STIM_012.jpg	99
2876.831	1.128	1127.5	generate	Run4	generate/STIM_012.jpg	100
2880.326	1.361	1361.1	generate	Run4	generate/STIM_013.jpg	99
2885.367	1.766	1766.0	generate	Run4	generate/STIM_013.jpg	100
2889.251	0.96	960.5	generate	Run4	generate/STIM_013.jpg	99
2894.132	1.044	1043.6	generate	Run4	generate/STIM_013.jpg	99
2898.292	0.994	993.7	generate	Run4	generate/STIM_013.jpg	100
2901.342	1.767	1767.4	generate	Run4	generate/STIM_014.jpg	99
2905.388	1.854	1853.9	generate	Run4	generate/STIM_014.jpg	100
2910.516	1.983	1983.1	generate	Run4	generate/STIM_014.jpg	99
2916.141	1.1	1099.7	generate	Run4	generate/STIM_014.jpg	99
2919.456	0.954	954.3	generate	Run4	generate/STIM_014.jpg	100
2922.576	1.01	1009.9	generate	Run4	generate/STIM_015.jpg	100
2926.415	1.364	1364.2	generate	Run4	generate/STIM_015.jpg	99
2930.622	1.257	1256.8	generate	Run4	generate/STIM_015.jpg	99
2934.575	1.894	1894.3	generate	Run4	generate/STIM_015.jpg	99
2939.098	2.043	2042.8	generate	Run4	generate/STIM_015.jpg	99
2944.507	1.536	1535.9	generate	Run4	generate/STIM_016.jpg	99
2948.26	1.435	1434.9	generate	Run4	generate/STIM_016.jpg	99
2951.852	0.995	995.1	generate	Run4	generate/STIM_016.jpg	100
2956.695	1.904	1904.3	generate	Run4	generate/STIM_016.jpg	99
2961.822	1.108	1107.8	generate	Run4	generate/STIM_016.jpg	100
2965.342	1.488	1488.2	generate	Run4	generate/STIM_017.jpg	100
2969.874	1.398	1398.4	generate	Run4	generate/STIM_017.jpg	100
2974.39	1.972	1972.1	generate	Run4	generate/STIM_017.jpg	99
2979.065	1.811	1811.0	generate	Run4	generate/STIM_017.jpg	100
2984.495	1.386	1385.8	generate	Run4	generate/STIM_017.jpg	99
2988.573	0.844	844.3	generate	Run4	generate/STIM_018.jpg	100
2991.717	2.017	2017.0	generate	Run4	generate/STIM_018.jpg	99
2996.992	0.87	870.4	generate	Run4	generate/STIM_018.jpg	100
3000.675	1.594	1593.8	generate	Run4	generate/STIM_018.jpg	99
3005.353	1.118	1118.2	generate	Run4	generate/STIM_018.jpg	100
3009.836	2.1	2100.3	generate	Run4	generate/STIM_019.jpg	99
3014.053	1.72	1720.0	generate	Run4	generate/STIM_019.jpg	100
3018.598	1.353	1353.3	generate	Run4	generate/STIM_019.jpg	99
3023.127	1.278	1278.0	generate	Run4	generate/STIM_019.jpg	99
3027.326	1.614	1614.2	generate	Run4	generate/STIM_019.jpg	100
3032.537	1.663	1662.8	generate	Run4	generate/STIM_020.jpg	99
3037.905	1.258	1258.0	generate	Run4	generate/STIM_020.jpg	99
3042.002	1.133	1133.3	generate	Run4	generate/STIM_020.jpg	100
3045.85	1.549	1549.2	generate	Run4	generate/STIM_020.jpg	99
3050.553	1.539	1538.6	generate	Run4	generate/STIM_020.jpg	100
3054.885	1.283	1282.9	generate	Run4	generate/STIM_021.jpg	100
3060.061	1.088	1088.3	generate	Run4	generate/STIM_021.jpg	100
3063.076	1.691	1690.7	generate	Run4	generate/STIM_021.jpg	99
3068.583	1.926	1925.7	generate	Run4	generate/STIM_021.jpg	99
3074.353	0.951	951.4	generate	Run4	generate/STIM_021.jpg	99
3077.608	1.928	1928.5	generate	Run4	generate/STIM_022.jpg	100
3082.437	1.849	1848.6	generate	Run4	generate/STIM_022.jpg	99
3087.753	1.341	1340.6	generate	Run4	generate/STIM_022.jpg	99
3092.654	1.629	1629.1	generate	Run4	generate/STIM_022.jpg	99
3098.042	1.62	1619.9	generate	Run4	generate/STIM_022.jpg	100
3102.413	2.181	2181.4	generate	Run4	generate/STIM_023.jpg	99
3107.657	0.893	892.6	generate	Run4	generate/STIM_023.jpg	99
3111.469	1.551	1551.4	generate	Run4	generate/STIM_023.jpg	100
3116.838	1.047	1046.8	generate	Run4	generate/STIM_023.jpg	99
3121.025	1.866	1866.3	generate	Run4	generate/STIM_023.jpg	99
3124.991	1.148	1148.2	generate	Run4	generate/STIM_024.jpg	100
3129.997	1.018	1017.7	generate	Run4	generate/STIM_024.jpg	99
3133.963	1.144	1143.8	generate	Run4	generate/STIM_024.jpg	99
3137.777	1.394	1393.9	generate	Run4	generate/STIM_024.jpg	100
3141.51	1.626	1625.7	generate	Run4	generate/STIM_024.jpg	99
3145.185	0.547	547.3	repeat	Run4	repeat/STIM_000.jpg	99
3148.67	0.682	682.2	repeat	Run4	repeat/STIM_000.jpg	99
3151.566	0.908	908.3	repeat	Run4	repeat/STIM_000.jpg	100
3156.289	0.772	771.5	repeat	Run4	repeat/STIM_000.jpg	99
3159.185	0.935	934.8	repeat	Run4	repeat/STIM_000.jpg	100
3162.65	0.571	571.1	repeat	Run4	repeat/STIM_001.jpg	100
3166.463	0.521	521.1	repeat	Run4	repeat/STIM_001.jpg	100
3170.431	0.601	600.9	repeat	Run4	repeat/STIM_001.jpg	99
3174.443	0.588	587.7	repeat	Run4	repeat/STIM_001.jpg	100
3177.969	0.862	862.4	repeat	Run4	repeat/STIM_001.jpg	99
3181.999	0.799	798.6	repeat	Run4	repeat/STIM_002.jpg	99
3185.392	0.802	802.5	repeat	Run4	repeat/STIM_002.jpg	99
3189.471	0.65	649.7	repeat	Run4	repeat/STIM_002.jpg	99
3193.123	0.912	911.6	repeat	Run4	repeat/STIM_002.jpg	100
3196.069	0.724	724.2	repeat	Run4	repeat/STIM_002.jpg	99
3198.852	0.732	731.5	repeat	Run4	repeat/STIM_003.jpg	100
3202.884	0.947	947.0	repeat	Run4	repeat/STIM_003.jpg	100
3206.004	0.909	908.9	repeat	Run4	repeat/STIM_003.jpg	100
3210.402	0.939	939.1	repeat	Run4	repeat/STIM_003.jpg	99
3214.599	0.561	561.1	repeat	Run4	repeat/STIM_003.jpg	99
3217.425	1.04	1040.4	repeat	Run4	repeat/STIM_004.jpg	100
3220.638	0.925	925.2	repeat	Run4	repeat/STIM_004.jpg	100
3224.086	0.704	703.5	repeat	Run4	repeat/STIM_004.jpg	99
3228.693	0.88	879.6	repeat	Run4	repeat/STIM_004.jpg	99
3231.875	0.675	674.6	repeat	Run4	repeat/STIM_004.jpg	99
3235.189	0.855	854.8	repeat	Run4	repeat/STIM_005.jpg	100
3238.116	0.95	950.2	repeat	Run4	repeat/STIM_005.jpg	99
3242.014	0.754	754.4	repeat	Run4	repeat/STIM_005.jpg	99
3245.745	0.704	704.0	repeat	Run4	repeat/STIM_005.jpg	100
3248.721	0.847	846.8	repeat	Run4	repeat/STIM_005.jpg	99
3253.413	0.91	909.9	repeat	Run4	repeat/STIM_006.jpg	100
3258.3	0.82	819.6	repeat	Run4	repeat/STIM_006.jpg	99
3261.792	0.54	539.8	repeat	Run4	repeat/STIM_006.jpg	99
3265.858	0.68	680.3	repeat	Run4	repeat/STIM_006.jpg	99
3268.9	0.742	742.2	repeat	Run4	repeat/STIM_006.jpg	99
3272.92	0.732	732.5	repeat	Run4	repeat/STIM_007.jpg	100
3277.429	0.951	950.6	repeat	Run4	repeat/STIM_007.jpg	100
3282.326	0.531	531.1	repeat	Run4	repeat/STIM_007.jpg	100
3285.829	0.802	802.3	repeat	Run4	repeat/STIM_007.jpg	100
3288.714	0.602	602.0	repeat	Run4	repeat/STIM_007.jpg	100
3292.105	0.988	987.9	repeat	Run4	repeat/STIM_008.jpg	99
3295.899	0.661	661.3	repeat	Run4	repeat/STIM_008.jpg	100
3300.102	0.962	961.7	repeat	Run4	repeat/STIM_008.jpg	99
3303.928	0.917	917.2	repeat	Run4	repeat/STIM_008.jpg	99
3308.594	0.51	509.8	repeat	Run4	repeat/STIM_008.jpg	100
3313.11	0.861	860.7	repeat	Run4	repeat/STIM_009.jpg	100
3316.377	0.748	748.1	repeat	Run4	repeat/STIM_009.jpg	100
3320.629	0.807	807.1	repeat	Run4	repeat/STIM_009.jpg	99
3324.257	0.652	652.5	repeat	Run4	repeat/STIM_009.jpg	100
3326.892	0.723	723.3	repeat	Run4	repeat/STIM_009.jpg	99
3330.735	0.666	666.1	repeat	Run4	repeat/STIM_010.jpg	99
3333.699	0.786	785.7	repeat	Run4	repeat/STIM_010.jpg	99
3337.505	0.824	824.5	repeat	Run4	repeat/STIM_010.jpg	100
3340.962	0.812	812.2	repeat	Run4	repeat/STIM_010.jpg	100
3344.557	0.51	510.4	repeat	Run4	repeat/STIM_010.jpg	99
3348.466	0.614	613.6	repeat	Run4	repeat/STIM_011.jpg	99
3352.283	0.719	718.9	repeat	Run4	repeat/STIM_011.jpg	100
3356.314	0.774	774.2	repeat	Run4	repeat/STIM_011.jpg	100
3359.99	0.823	822.8	repeat	Run4	repeat/STIM_011.jpg	100
3363.532	0.945	945.2	repeat	Run4	repeat/STIM_011.jpg	100
3368.32	0.964	963.5	repeat	Run4	repeat/STIM_012.jpg	100
3371.467	0.534	534.2	repeat	Run4	repeat/STIM_012.jpg	99
3375.739	1.042	1041.7	repeat	Run4	repeat/STIM_012.jpg	100
3378.783	0.901	901.1	repeat	Run4	repeat/STIM_012.jpg	99
3381.991	0.676	676.5	repeat	Run4	repeat/STIM_012.jpg	99
3386.696	0.966	965.7	repeat	Run4	repeat/STIM_013.jpg	100
3391.099	0.714	713.8	repeat	Run4	repeat/STIM_013.jpg	99
3395.046	0.843	843.4	repeat	Run4	repeat/STIM_013.jpg	99
3399.651	0.848	847.5	repeat	Run4	repeat/STIM_013.jpg	100
3403.61	0.919	919.3	repeat	Run4	repeat/STIM_013.jpg	99
3408.253	0.994	993.5	repeat	Run4	repeat/STIM_014.jpg	99
3411.566	0.958	958.4	repeat	Run4	repeat/STIM_014.jpg	99
3416.23	0.967	967.3	repeat	Run4	repeat/STIM_014.jpg	100
3419.706	0.832	832.4	repeat	Run4	repeat/STIM_014.jpg	100
3423.236	0.616	615.8	repeat	Run4	repeat/STIM_014.jpg	99
