onset	duration	accuracy_binary	trial_type	learning_stage	stimulus
0.0	1.532	1	generate	Run1	generate/STIM_000.jpg
3.962	0.904	1	generate	Run1	generate/STIM_000.jpg
8.758	0.876	0	generate	Run1	generate/STIM_000.jpg
13.001	1.208	0	generate	Run1	generate/STIM_000.jpg
16.369	1.369	0	generate	Run1	generate/STIM_000.jpg
21.323	1.092	1	generate	Run1	generate/STIM_001.jpg
24.521	1.062	1	generate	Run1	generate/STIM_001.jpg
29.349	1.103	1	generate	Run1	generate/STIM_001.jpg
32.975	1.007	1	generate	Run1	generate/STIM_001.jpg
36.183	1.399	0	generate	Run1	generate/STIM_001.jpg
40.367	0.783	1	generate	Run1	generate/STIM_002.jpg
43.62	1.638	0	generate	Run1	generate/STIM_002.jpg
48.685	0.833	1	generate	Run1	generate/STIM_002.jpg
51.754	1.068	0	generate	Run1	generate/STIM_002.jpg
55.556	0.653	1	generate	Run1	generate/STIM_002.jpg
59.468	0.946	1	generate	Run1	generate/STIM_003.jpg
63.393	1.652	1	generate	Run1	generate/STIM_003.jpg
68.585	1.231	1	generate	Run1	generate/STIM_003.jpg
72.109	1.158	1	generate	Run1	generate/STIM_003.jpg
76.559	1.09	0	generate	Run1	generate/STIM_003.jpg
81.341	0.768	1	generate	Run1	generate/STIM_004.jpg
85.527	1.526	0	generate	Run1	generate/STIM_004.jpg
90.305	0.773	0	generate	Run1	generate/STIM_004.jpg
94.531	0.81	1	generate	Run1	generate/STIM_004.jpg
99.093	1.356	1	generate	Run1	generate/STIM_004.jpg
103.235	0.82	1	generate	Run1	generate/STIM_005.jpg
107.152	1.025	0	generate	Run1	generate/STIM_005.jpg
110.949	1.427	1	generate	Run1	generate/STIM_005.jpg
115.076	1.287	0	generate	Run1	generate/STIM_005.jpg
119.619	0.584	1	generate	Run1	generate/STIM_005.jpg
122.936	1.348	0	generate	Run1	generate/STIM_006.jpg
127.015	0.756	1	generate	Run1	generate/STIM_006.jpg
130.036	1.262	1	generate	Run1	generate/STIM_006.jpg
134.054	0.613	1	generate	Run1	generate/STIM_006.jpg
137.677	0.659	1	generate	Run1	generate/STIM_006.jpg
141.393	1.686	0	generate	Run1	generate/STIM_007.jpg
146.447	0.986	0	generate	Run1	generate/STIM_007.jpg
151.156	0.793	0	generate	Run1	generate/STIM_007.jpg
155.927	1.395	1	generate	Run1	generate/STIM_007.jpg
159.535	0.685	0	generate	Run1	generate/STIM_007.jpg
163.624	1.2	1	generate	Run1	generate/STIM_008.jpg
167.749	1.557	1	generate	Run1	generate/STIM_008.jpg
171.438	0.961	1	generate	Run1	generate/STIM_008.jpg
174.517	0.702	0	generate	Run1	generate/STIM_008.jpg
178.836	0.697	0	generate	Run1	generate/STIM_008.jpg
181.622	1.573	1	generate	Run1	generate/STIM_009.jpg
185.832	1.589	1	generate	Run1	generate/STIM_009.jpg
190.801	1.192	1	generate	Run1	generate/STIM_009.jpg
194.378	1.456	0	generate	Run1	generate/STIM_009.jpg
198.783	1.315	0	generate	Run1	generate/STIM_009.jpg
203.698	1.149	0	generate	Run1	generate/STIM_010.jpg
207.603	0.848	1	generate	Run1	generate/STIM_010.jpg
211.316	1.244	1	generate	Run1	generate/STIM_010.jpg
215.712	1.498	1	generate	Run1	generate/STIM_010.jpg
220.908	1.121	1	generate	Run1	generate/STIM_010.jpg
225.485	0.994	1	generate	Run1	generate/STIM_011.jpg
228.813	0.922	0	generate	Run1	generate/STIM_011.jpg
233.638	1.409	1	generate	Run1	generate/STIM_011.jpg
238.051	0.76	0	generate	Run1	generate/STIM_011.jpg
242.256	0.851	1	generate	Run1	generate/STIM_011.jpg
245.527	1.239	1	generate	Run1	generate/STIM_012.jpg
250.108	1.031	1	generate	Run1	generate/STIM_012.jpg
253.874	0.913	0	generate	Run1	generate/STIM_012.jpg
258.55	0.946	1	generate	Run1	generate/STIM_012.jpg
262.265	1.06	1	generate	Run1	generate/STIM_012.jpg
267.031	1.521	1	generate	Run1	generate/STIM_013.jpg
270.861	1.288	0	generate	Run1	generate/STIM_013.jpg
275.072	1.054	1	generate	Run1	generate/STIM_013.jpg
278.62	1.195	0	generate	Run1	generate/STIM_013.jpg
283.031	0.921	1	generate	Run1	generate/STIM_013.jpg
286.075	1.452	0	generate	Run1	generate/STIM_014.jpg
290.133	1.149	0	generate	Run1	generate/STIM_014.jpg
293.53	1.094	0	generate	Run1	generate/STIM_014.jpg
297.852	1.46	1	generate	Run1	generate/STIM_014.jpg
301.928	0.719	0	generate	Run1	generate/STIM_014.jpg
306.215	0.765	1	generate	Run1	generate/STIM_015.jpg
309.842	0.715	0	generate	Run1	generate/STIM_015.jpg
313.38	0.963	1	generate	Run1	generate/STIM_015.jpg
316.499	1.394	0	generate	Run1	generate/STIM_015.jpg
320.806	0.948	1	generate	Run1	generate/STIM_015.jpg
324.637	1.222	0	generate	Run1	generate/STIM_016.jpg
329.232	1.578	0	generate	Run1	generate/STIM_016.jpg
334.607	1.022	0	generate	Run1	generate/STIM_016.jpg
338.68	1.044	0	generate	Run1	generate/STIM_016.jpg
342.448	0.83	0	generate	Run1	generate/STIM_016.jpg
346.095	1.688	0	generate	Run1	generate/STIM_017.jpg
349.998	0.985	0	generate	Run1	generate/STIM_017.jpg
354.194	1.141	0	generate	Run1	generate/STIM_017.jpg
358.039	0.718	1	generate	Run1	generate/STIM_017.jpg
361.736	1.314	1	generate	Run1	generate/STIM_017.jpg
365.525	1.543	1	generate	Run1	generate/STIM_018.jpg
370.492	0.959	0	generate	Run1	generate/STIM_018.jpg
373.887	1.519	1	generate	Run1	generate/STIM_018.jpg
377.901	0.906	1	generate	Run1	generate/STIM_018.jpg
382.067	0.789	0	generate	Run1	generate/STIM_018.jpg
385.627	0.823	1	generate	Run1	generate/STIM_019.jpg
389.737	0.748	0	generate	Run1	generate/STIM_019.jpg
394.301	0.65	1	generate	Run1	generate/STIM_019.jpg
397.161	0.963	1	generate	Run1	generate/STIM_019.jpg
401.528	1.108	1	generate	Run1	generate/STIM_019.jpg
405.954	1.667	0	generate	Run1	generate/STIM_020.jpg
410.185	1.441	1	generate	Run1	generate/STIM_020.jpg
414.183	1.231	0	generate	Run1	generate/STIM_020.jpg
419.38	0.894	1	generate	Run1	generate/STIM_020.jpg
423.67	0.6	1	generate	Run1	generate/STIM_020.jpg
427.178	0.841	1	generate	Run1	generate/STIM_021.jpg
430.716	1.158	0	generate	Run1	generate/STIM_021.jpg
434.149	1.214	1	generate	Run1	generate/STIM_021.jpg
437.956	0.963	0	generate	Run1	generate/STIM_021.jpg
442.708	1.221	1	generate	Run1	generate/STIM_021.jpg
446.369	1.636	0	generate	Run1	generate/STIM_022.jpg
450.66	1.45	1	generate	Run1	generate/STIM_022.jpg
455.923	0.637	1	generate	Run1	generate/STIM_022.jpg
460.472	0.887	0	generate	Run1	generate/STIM_022.jpg
463.766	1.36	0	generate	Run1	generate/STIM_022.jpg
467.959	1.212	1	generate	Run1	generate/STIM_023.jpg
472.225	1.25	1	generate	Run1	generate/STIM_023.jpg
475.727	0.881	1	generate	Run1	generate/STIM_023.jpg
480.461	1.126	1	generate	Run1	generate/STIM_023.jpg
484.656	1.32	1	generate	Run1	generate/STIM_023.jpg
488.365	0.885	0	generate	Run1	generate/STIM_024.jpg
492.143	1.304	0	generate	Run1	generate/STIM_024.jpg
496.684	1.421	1	generate	Run1	generate/STIM_024.jpg
501.699	0.842	1	generate	Run1	generate/STIM_024.jpg
505.153	1.234	0	generate	Run1	generate/STIM_024.jpg
510.191	0.349	1	repeat	Run1	repeat/STIM_000.jpg
514.118	0.32	1	repeat	Run1	repeat/STIM_000.jpg
518.165	0.545	1	repeat	Run1	repeat/STIM_000.jpg
520.924	0.341	1	repeat	Run1	repeat/STIM_000.jpg
524.474	0.353	0	repeat	Run1	repeat/STIM_000.jpg
527.886	0.566	1	repeat	Run1	repeat/STIM_001.jpg
531.02	0.337	1	repeat	Run1	repeat/STIM_001.jpg
534.486	0.312	1	repeat	Run1	repeat/STIM_001.jpg
538.119	0.503	1	repeat	Run1	repeat/STIM_001.jpg
541.886	0.364	1	repeat	Run1	repeat/STIM_001.jpg
546.135	0.58	1	repeat	Run1	repeat/STIM_002.jpg
549.056	0.376	1	repeat	Run1	repeat/STIM_002.jpg
551.912	0.339	1	repeat	Run1	repeat/STIM_002.jpg
554.728	0.46	1	repeat	Run1	repeat/STIM_002.jpg
558.225	0.481	0	repeat	Run1	repeat/STIM_002.jpg
561.32	0.487	1	repeat	Run1	repeat/STIM_003.jpg
565.359	0.504	0	repeat	Run1	repeat/STIM_003.jpg
569.203	0.304	1	repeat	Run1	repeat/STIM_003.jpg
571.76	0.446	1	repeat	Run1	repeat/STIM_003.jpg
575.819	0.521	1	repeat	Run1	repeat/STIM_003.jpg
578.697	0.533	1	repeat	Run1	repeat/STIM_004.jpg
581.8	0.413	1	repeat	Run1	repeat/STIM_004.jpg
584.99	0.308	1	repeat	Run1	repeat/STIM_004.jpg
588.45	0.58	1	repeat	Run1	repeat/STIM_004.jpg
592.106	0.521	0	repeat	Run1	repeat/STIM_004.jpg
596.491	0.344	1	repeat	Run1	repeat/STIM_005.jpg
598.844	0.382	1	repeat	Run1	repeat/STIM_005.jpg
601.641	0.333	1	repeat	Run1	repeat/STIM_005.jpg
605.511	0.369	1	repeat	Run1	repeat/STIM_005.jpg
609.114	0.558	1	repeat	Run1	repeat/STIM_005.jpg
612.396	0.541	1	repeat	Run1	repeat/STIM_006.jpg
616.532	0.398	1	repeat	Run1	repeat/STIM_006.jpg
619.77	0.589	1	repeat	Run1	repeat/STIM_006.jpg
623.674	0.554	1	repeat	Run1	repeat/STIM_006.jpg
627.803	0.327	1	repeat	Run1	repeat/STIM_006.jpg
632.052	0.489	1	repeat	Run1	repeat/STIM_007.jpg
634.867	0.437	0	repeat	Run1	repeat/STIM_007.jpg
638.933	0.517	1	repeat	Run1	repeat/STIM_007.jpg
643.221	0.413	1	repeat	Run1	repeat/STIM_007.jpg
646.795	0.428	1	repeat	Run1	repeat/STIM_007.jpg
649.382	0.496	0	repeat	Run1	repeat/STIM_008.jpg
653.81	0.48	1	repeat	Run1	repeat/STIM_008.jpg
657.028	0.339	1	repeat	Run1	repeat/STIM_008.jpg
659.813	0.502	1	repeat	Run1	repeat/STIM_008.jpg
662.696	0.587	1	repeat	Run1	repeat/STIM_008.jpg
666.289	0.33	1	repeat	Run1	repeat/STIM_009.jpg
669.603	0.518	1	repeat	Run1	repeat/STIM_009.jpg
673.71	0.564	0	repeat	Run1	repeat/STIM_009.jpg
677.568	0.358	0	repeat	Run1	repeat/STIM_009.jpg
681.159	0.419	1	repeat	Run1	repeat/STIM_009.jpg
684.282	0.581	1	repeat	Run1	repeat/STIM_010.jpg
688.715	0.339	1	repeat	Run1	repeat/STIM_010.jpg
692.378	0.339	1	repeat	Run1	repeat/STIM_010.jpg
696.522	0.383	1	repeat	Run1	repeat/STIM_010.jpg
699.265	0.462	1	repeat	Run1	repeat/STIM_010.jpg
703.077	0.372	1	repeat	Run1	repeat/STIM_011.jpg
706.328	0.509	1	repeat	Run1	repeat/STIM_011.jpg
708.848	0.529	1	repeat	Run1	repeat/STIM_011.jpg
712.173	0.438	1	repeat	Run1	repeat/STIM_011.jpg
715.693	0.477	0	repeat	Run1	repeat/STIM_011.jpg
719.684	0.576	1	repeat	Run1	repeat/STIM_012.jpg
723.603	0.442	1	repeat	Run1	repeat/STIM_012.jpg
726.348	0.497	1	repeat	Run1	repeat/STIM_012.jpg
729.979	0.427	1	repeat	Run1	repeat/STIM_012.jpg
733.039	0.333	1	repeat	Run1	repeat/STIM_012.jpg
736.03	0.485	1	repeat	Run1	repeat/STIM_013.jpg
739.149	0.362	0	repeat	Run1	repeat/STIM_013.jpg
743.423	0.529	1	repeat	Run1	repeat/STIM_013.jpg
746.738	0.36	1	repeat	Run1	repeat/STIM_013.jpg
749.57	0.306	1	repeat	Run1	repeat/STIM_013.jpg
752.27	0.351	1	repeat	Run1	repeat/STIM_014.jpg
754.796	0.556	1	repeat	Run1	repeat/STIM_014.jpg
757.502	0.543	1	repeat	Run1	repeat/STIM_014.jpg
761.105	0.419	1	repeat	Run1	repeat/STIM_014.jpg
763.629	0.347	1	repeat	Run1	repeat/STIM_014.jpg
766.143	0.646	0	generate	Run2	generate/STIM_000.jpg
768.935	0.983	1	generate	Run2	generate/STIM_000.jpg
773.741	0.715	1	generate	Run2	generate/STIM_000.jpg
777.304	1.005	0	generate	Run2	generate/STIM_000.jpg
781.162	0.69	0	generate	Run2	generate/STIM_000.jpg
784.639	1.144	0	generate	Run2	generate/STIM_001.jpg
788.961	0.684	1	generate	Run2	generate/STIM_001.jpg
793.339	1.267	1	generate	Run2	generate/STIM_001.jpg
797.816	0.746	1	generate	Run2	generate/STIM_001.jpg
801.782	1.006	1	generate	Run2	generate/STIM_001.jpg
805.52	1.138	1	generate	Run2	generate/STIM_002.jpg
809.754	0.991	0	generate	Run2	generate/STIM_002.jpg
813.593	1.022	0	generate	Run2	generate/STIM_002.jpg
816.787	1.09	1	generate	Run2	generate/STIM_002.jpg
820.456	0.511	0	generate	Run2	generate/STIM_002.jpg
823.001	1.212	0	generate	Run2	generate/STIM_003.jpg
827.415	1.323	0	generate	Run2	generate/STIM_003.jpg
830.755	0.928	0	generate	Run2	generate/STIM_003.jpg
834.801	1.188	1	generate	Run2	generate/STIM_003.jpg
839.087	0.719	1	generate	Run2	generate/STIM_003.jpg
842.193	0.741	0	generate	Run2	generate/STIM_004.jpg
845.605	0.866	1	generate	Run2	generate/STIM_004.jpg
848.9	0.807	1	generate	Run2	generate/STIM_004.jpg
851.792	1.077	1	generate	Run2	generate/STIM_004.jpg
855.057	0.634	1	generate	Run2	generate/STIM_004.jpg
857.895	0.619	0	generate	Run2	generate/STIM_005.jpg
861.309	0.821	1	generate	Run2	generate/STIM_005.jpg
865.664	1.205	0	generate	Run2	generate/STIM_005.jpg
869.711	1.207	0	generate	Run2	generate/STIM_005.jpg
874.115	0.845	0	generate	Run2	generate/STIM_005.jpg
877.233	0.68	0	generate	Run2	generate/STIM_006.jpg
880.723	0.946	1	generate	Run2	generate/STIM_006.jpg
885.008	0.885	1	generate	Run2	generate/STIM_006.jpg
888.227	0.824	0	generate	Run2	generate/STIM_006.jpg
891.283	1.056	1	generate	Run2	generate/STIM_006.jpg
894.931	0.733	1	generate	Run2	generate/STIM_007.jpg
899.136	0.846	1	generate	Run2	generate/STIM_007.jpg
903.563	1.055	1	generate	Run2	generate/STIM_007.jpg
906.913	0.719	1	generate	Run2	generate/STIM_007.jpg
910.348	0.819	0	generate	Run2	generate/STIM_007.jpg
913.464	0.727	1	generate	Run2	generate/STIM_008.jpg
916.649	0.795	1	generate	Run2	generate/STIM_008.jpg
920.705	1.241	1	generate	Run2	generate/STIM_008.jpg
924.743	0.745	0	generate	Run2	generate/STIM_008.jpg
929.356	0.674	1	generate	Run2	generate/STIM_008.jpg
933.045	0.731	1	generate	Run2	generate/STIM_009.jpg
936.624	0.866	1	generate	Run2	generate/STIM_009.jpg
941.422	0.932	1	generate	Run2	generate/STIM_009.jpg
944.744	0.729	1	generate	Run2	generate/STIM_009.jpg
948.709	0.779	0	generate	Run2	generate/STIM_009.jpg
952.813	0.69	1	generate	Run2	generate/STIM_010.jpg
956.895	0.899	1	generate	Run2	generate/STIM_010.jpg
960.924	1.012	0	generate	Run2	generate/STIM_010.jpg
965.737	0.896	1	generate	Run2	generate/STIM_010.jpg
970.197	1.051	1	generate	Run2	generate/STIM_010.jpg
974.57	0.624	1	generate	Run2	generate/STIM_011.jpg
977.682	1.23	1	generate	Run2	generate/STIM_011.jpg
982.788	1.028	0	generate	Run2	generate/STIM_011.jpg
985.956	0.678	1	generate	Run2	generate/STIM_011.jpg
989.299	0.955	1	generate	Run2	generate/STIM_011.jpg
993.656	1.043	0	generate	Run2	generate/STIM_012.jpg
998.098	1.022	1	generate	Run2	generate/STIM_012.jpg
1002.005	1.199	1	generate	Run2	generate/STIM_012.jpg
1006.812	1.028	1	generate	Run2	generate/STIM_012.jpg
1010.422	1.212	1	generate	Run2	generate/STIM_012.jpg
1013.697	1.47	1	generate	Run2	generate/STIM_013.jpg
1017.304	0.951	0	generate	Run2	generate/STIM_013.jpg
1020.902	1.311	1	generate	Run2	generate/STIM_013.jpg
1024.56	0.744	1	generate	Run2	generate/STIM_013.jpg
1028.764	1.166	1	generate	Run2	generate/STIM_013.jpg
1033.852	1.312	1	generate	Run2	generate/STIM_014.jpg
1037.886	1.243	1	generate	Run2	generate/STIM_014.jpg
1042.935	0.757	0	generate	Run2	generate/STIM_014.jpg
1047.37	1.087	1	generate	Run2	generate/STIM_014.jpg
1050.827	0.79	0	generate	Run2	generate/STIM_014.jpg
1054.078	1.448	1	generate	Run2	generate/STIM_015.jpg
1058.1	1.269	0	generate	Run2	generate/STIM_015.jpg
1062.004	1.267	1	generate	Run2	generate/STIM_015.jpg
1066.043	1.152	0	generate	Run2	generate/STIM_015.jpg
1069.967	0.666	1	generate	Run2	generate/STIM_015.jpg
1074.19	0.797	0	generate	Run2	generate/STIM_016.jpg
1077.391	0.787	1	generate	Run2	generate/STIM_016.jpg
1081.726	0.982	1	generate	Run2	generate/STIM_016.jpg
1085.986	0.828	0	generate	Run2	generate/STIM_016.jpg
1089.86	1.132	0	generate	Run2	generate/STIM_016.jpg
1094.751	0.84	1	generate	Run2	generate/STIM_017.jpg
1098.769	0.642	1	generate	Run2	generate/STIM_017.jpg
1102.858	1.115	1	generate	Run2	generate/STIM_017.jpg
1106.283	0.949	0	generate	Run2	generate/STIM_017.jpg
1109.65	1.179	0	generate	Run2	generate/STIM_017.jpg
1114.07	1.374	1	generate	Run2	generate/STIM_018.jpg
1118.564	1.232	0	generate	Run2	generate/STIM_018.jpg
1123.196	0.963	1	generate	Run2	generate/STIM_018.jpg
1127.658	0.532	1	generate	Run2	generate/STIM_018.jpg
1130.44	0.717	1	generate	Run2	generate/STIM_018.jpg
1133.768	1.221	1	generate	Run2	generate/STIM_019.jpg
1138.646	1.077	1	generate	Run2	generate/STIM_019.jpg
1143.405	1.045	1	generate	Run2	generate/STIM_019.jpg
1147.361	0.704	1	generate	Run2	generate/STIM_019.jpg
1151.725	1.094	1	generate	Run2	generate/STIM_019.jpg
1156.4	1.007	1	generate	Run2	generate/STIM_020.jpg
1160.554	1.201	1	generate	Run2	generate/STIM_020.jpg
1164.073	1.033	1	generate	Run2	generate/STIM_020.jpg
1168.986	0.594	1	generate	Run2	generate/STIM_020.jpg
1172.606	0.719	1	generate	Run2	generate/STIM_020.jpg
1176.398	0.618	1	generate	Run2	generate/STIM_021.jpg
1180.863	0.776	0	generate	Run2	generate/STIM_021.jpg
1183.676	0.745	1	generate	Run2	generate/STIM_021.jpg
1188.312	1.14	1	generate	Run2	generate/STIM_021.jpg
1192.909	0.779	0	generate	Run2	generate/STIM_021.jpg
1196.24	1.015	0	generate	Run2	generate/STIM_022.jpg
1199.805	1.392	0	generate	Run2	generate/STIM_022.jpg
1203.322	0.76	1	generate	Run2	generate/STIM_022.jpg
1206.198	0.699	1	generate	Run2	generate/STIM_022.jpg
1210.774	0.692	1	generate	Run2	generate/STIM_022.jpg
1214.602	1.02	1	generate	Run2	generate/STIM_023.jpg
1219.31	1.104	1	generate	Run2	generate/STIM_023.jpg
1222.852	0.803	1	generate	Run2	generate/STIM_023.jpg
1227.511	0.913	1	generate	Run2	generate/STIM_023.jpg
1231.594	1.166	1	generate	Run2	generate/STIM_023.jpg
1236.558	1.178	1	generate	Run2	generate/STIM_024.jpg
1240.166	0.968	1	generate	Run2	generate/STIM_024.jpg
1244.605	0.923	1	generate	Run2	generate/STIM_024.jpg
1249.245	0.521	1	generate	Run2	generate/STIM_024.jpg
1253.284	0.711	1	generate	Run2	generate/STIM_024.jpg
1257.006	0.382	1	repeat	Run2	repeat/STIM_000.jpg
1260.891	0.378	1	repeat	Run2	repeat/STIM_000.jpg
1264.993	0.396	1	repeat	Run2	repeat/STIM_000.jpg
1268.372	0.356	1	repeat	Run2	repeat/STIM_000.jpg
1271.133	0.301	1	repeat	Run2	repeat/STIM_000.jpg
1273.667	0.297	1	repeat	Run2	repeat/STIM_001.jpg
1276.697	0.35	1	repeat	Run2	repeat/STIM_001.jpg
1279.838	0.538	1	repeat	Run2	repeat/STIM_001.jpg
1282.481	0.424	0	repeat	Run2	repeat/STIM_001.jpg
1285.571	0.305	1	repeat	Run2	repeat/STIM_001.jpg
1289.27	0.399	1	repeat	Run2	repeat/STIM_002.jpg
1292.486	0.354	1	repeat	Run2	repeat/STIM_002.jpg
1296.655	0.409	1	repeat	Run2	repeat/STIM_002.jpg
1299.261	0.518	0	repeat	Run2	repeat/STIM_002.jpg
1302.492	0.438	1	repeat	Run2	repeat/STIM_002.jpg
1306.729	0.387	1	repeat	Run2	repeat/STIM_003.jpg
1310.834	0.3	1	repeat	Run2	repeat/STIM_003.jpg
1315.11	0.435	1	repeat	Run2	repeat/STIM_003.jpg
1319.327	0.319	1	repeat	Run2	repeat/STIM_003.jpg
1323.539	0.344	0	repeat	Run2	repeat/STIM_003.jpg
1325.979	0.335	1	repeat	Run2	repeat/STIM_004.jpg
1328.514	0.378	0	repeat	Run2	repeat/STIM_004.jpg
1330.949	0.541	1	repeat	Run2	repeat/STIM_004.jpg
1335.421	0.445	1	repeat	Run2	repeat/STIM_004.jpg
1338.839	0.469	1	repeat	Run2	repeat/STIM_004.jpg
1341.717	0.577	1	repeat	Run2	repeat/STIM_005.jpg
1344.509	0.503	1	repeat	Run2	repeat/STIM_005.jpg
1348.921	0.357	1	repeat	Run2	repeat/STIM_005.jpg
1352.748	0.408	1	repeat	Run2	repeat/STIM_005.jpg
1355.62	0.39	1	repeat	Run2	repeat/STIM_005.jpg
1359.742	0.385	1	repeat	Run2	repeat/STIM_006.jpg
1363.171	0.42	1	repeat	Run2	repeat/STIM_006.jpg
1367.483	0.358	1	repeat	Run2	repeat/STIM_006.jpg
1369.952	0.422	0	repeat	Run2	repeat/STIM_006.jpg
1372.836	0.436	1	repeat	Run2	repeat/STIM_006.jpg
1376.482	0.355	1	repeat	Run2	repeat/STIM_007.jpg
1379.423	0.426	1	repeat	Run2	repeat/STIM_007.jpg
1382.416	0.45	1	repeat	Run2	repeat/STIM_007.jpg
1385.18	0.322	0	repeat	Run2	repeat/STIM_007.jpg
1389.483	0.329	1	repeat	Run2	repeat/STIM_007.jpg
1392.057	0.419	1	repeat	Run2	repeat/STIM_008.jpg
1395.924	0.397	1	repeat	Run2	repeat/STIM_008.jpg
1399.964	0.569	1	repeat	Run2	repeat/STIM_008.jpg
1404.207	0.57	1	repeat	Run2	repeat/STIM_008.jpg
1407.309	0.332	0	repeat	Run2	repeat/STIM_008.jpg
1410.381	0.495	0	repeat	Run2	repeat/STIM_009.jpg
1414.577	0.306	1	repeat	Run2	repeat/STIM_009.jpg
1416.904	0.563	1	repeat	Run2	repeat/STIM_009.jpg
1421.175	0.366	1	repeat	Run2	repeat/STIM_009.jpg
1425.28	0.355	1	repeat	Run2	repeat/STIM_009.jpg
1429.453	0.305	1	repeat	Run2	repeat/STIM_010.jpg
1432.292	0.37	1	repeat	Run2	repeat/STIM_010.jpg
1436.121	0.513	1	repeat	Run2	repeat/STIM_010.jpg
1439.68	0.36	1	repeat	Run2	repeat/STIM_010.jpg
1443.278	0.471	1	repeat	Run2	repeat/STIM_010.jpg
1447.725	0.387	1	repeat	Run2	repeat/STIM_011.jpg
1450.148	0.373	0	repeat	Run2	repeat/STIM_011.jpg
1453.788	0.468	0	repeat	Run2	repeat/STIM_011.jpg
1458.028	0.499	1	repeat	Run2	repeat/STIM_011.jpg
1461.813	0.36	1	repeat	Run2	repeat/STIM_011.jpg
1465.702	0.451	1	repeat	Run2	repeat/STIM_012.jpg
1469.513	0.539	1	repeat	Run2	repeat/STIM_012.jpg
1472.159	0.56	1	repeat	Run2	repeat/STIM_012.jpg
1474.735	0.538	1	repeat	Run2	repeat/STIM_012.jpg
1478.821	0.324	1	repeat	Run2	repeat/STIM_012.jpg
1482.35	0.355	0	repeat	Run2	repeat/STIM_013.jpg
1484.901	0.348	1	repeat	Run2	repeat/STIM_013.jpg
1487.565	0.499	1	repeat	Run2	repeat/STIM_013.jpg
1491.544	0.544	1	repeat	Run2	repeat/STIM_013.jpg
1494.631	0.299	1	repeat	Run2	repeat/STIM_013.jpg
1498.385	0.535	0	repeat	Run2	repeat/STIM_014.jpg
1501.04	0.358	1	repeat	Run2	repeat/STIM_014.jpg
1504.321	0.446	1	repeat	Run2	repeat/STIM_014.jpg
1507.281	0.523	1	repeat	Run2	repeat/STIM_014.jpg
1511.31	0.373	1	repeat	Run2	repeat/STIM_014.jpg
1514.892	0.99	1	generate	Run3	generate/STIM_000.jpg
1519.002	0.868	1	generate	Run3	generate/STIM_000.jpg
1522.394	1.013	1	generate	Run3	generate/STIM_000.jpg
1525.925	1.121	1	generate	Run3	generate/STIM_000.jpg
1530.329	0.93	1	generate	Run3	generate/STIM_000.jpg
1533.939	1.081	1	generate	Run3	generate/STIM_001.jpg
1538.325	1.194	1	generate	Run3	generate/STIM_001.jpg
1543.445	0.767	1	generate	Run3	generate/STIM_001.jpg
1548.179	0.599	1	generate	Run3	generate/STIM_001.jpg
1551.378	0.592	0	generate	Run3	generate/STIM_001.jpg
1554.216	1.076	1	generate	Run3	generate/STIM_002.jpg
1558.547	1.044	1	generate	Run3	generate/STIM_002.jpg
1562.794	0.59	1	generate	Run3	generate/STIM_002.jpg
1566.069	1.114	0	generate	Run3	generate/STIM_002.jpg
1570.415	0.742	1	generate	Run3	generate/STIM_002.jpg
1573.304	1.203	1	generate	Run3	generate/STIM_003.jpg
1576.535	0.922	1	generate	Run3	generate/STIM_003.jpg
1580.535	0.595	1	generate	Run3	generate/STIM_003.jpg
1585.106	0.546	1	generate	Run3	generate/STIM_003.jpg
1589.177	0.946	1	generate	Run3	generate/STIM_003.jpg
1592.68	0.715	1	generate	Run3	generate/STIM_004.jpg
1595.901	0.699	0	generate	Run3	generate/STIM_004.jpg
1599.682	1.046	1	generate	Run3	generate/STIM_004.jpg
1604.079	1.02	1	generate	Run3	generate/STIM_004.jpg
1607.473	0.892	1	generate	Run3	generate/STIM_004.jpg
1610.447	0.698	1	generate	Run3	generate/STIM_005.jpg
1614.548	1.025	0	generate	Run3	generate/STIM_005.jpg
1619.55	0.811	1	generate	Run3	generate/STIM_005.jpg
1622.377	0.795	0	generate	Run3	generate/STIM_005.jpg
1625.576	0.533	1	generate	Run3	generate/STIM_005.jpg
1629.168	0.545	1	generate	Run3	generate/STIM_006.jpg
1633.398	0.606	0	generate	Run3	generate/STIM_006.jpg
1637.348	1.026	1	generate	Run3	generate/STIM_006.jpg
1641.19	1.053	0	generate	Run3	generate/STIM_006.jpg
1645.123	0.703	1	generate	Run3	generate/STIM_006.jpg
1648.47	1.233	1	generate	Run3	generate/STIM_007.jpg
1653.382	0.731	1	generate	Run3	generate/STIM_007.jpg
1656.235	1.138	1	generate	Run3	generate/STIM_007.jpg
1660.171	1.043	1	generate	Run3	generate/STIM_007.jpg
1664.031	0.559	0	generate	Run3	generate/STIM_007.jpg
1668.009	1.226	0	generate	Run3	generate/STIM_008.jpg
1672.681	1.156	1	generate	Run3	generate/STIM_008.jpg
1677.025	0.666	1	generate	Run3	generate/STIM_008.jpg
1681.367	0.647	1	generate	Run3	generate/STIM_008.jpg
1684.722	1.04	1	generate	Run3	generate/STIM_008.jpg
1688.398	0.65	0	generate	Run3	generate/STIM_009.jpg
1691.897	0.738	1	generate	Run3	generate/STIM_009.jpg
1695.768	0.853	0	generate	Run3	generate/STIM_009.jpg
1700.101	0.543	1	generate	Run3	generate/STIM_009.jpg
1703.103	0.977	1	generate	Run3	generate/STIM_009.jpg
1707.799	0.53	1	generate	Run3	generate/STIM_010.jpg
1711.226	0.662	1	generate	Run3	generate/STIM_010.jpg
1715.703	0.898	0	generate	Run3	generate/STIM_010.jpg
1718.926	0.733	1	generate	Run3	generate/STIM_010.jpg
1722.71	0.88	1	generate	Run3	generate/STIM_010.jpg
1727.109	0.988	1	generate	Run3	generate/STIM_011.jpg
1730.746	0.784	1	generate	Run3	generate/STIM_011.jpg
1734.397	0.568	1	generate	Run3	generate/STIM_011.jpg
1737.248	0.703	0	generate	Run3	generate/STIM_011.jpg
1741.049	1.005	0	generate	Run3	generate/STIM_011.jpg
1745.19	1.114	1	generate	Run3	generate/STIM_012.jpg
1749.903	0.751	1	generate	Run3	generate/STIM_012.jpg
1753.671	0.895	1	generate	Run3	generate/STIM_012.jpg
1758.377	0.565	0	generate	Run3	generate/STIM_012.jpg
1760.958	1.187	1	generate	Run3	generate/STIM_012.jpg
1764.894	1.201	1	generate	Run3	generate/STIM_013.jpg
1768.141	0.836	1	generate	Run3	generate/STIM_013.jpg
1772.193	1.152	0	generate	Run3	generate/STIM_013.jpg
1777.24	0.834	1	generate	Run3	generate/STIM_013.jpg
1781.206	0.558	1	generate	Run3	generate/STIM_013.jpg
1784.827	0.864	0	generate	Run3	generate/STIM_014.jpg
1787.996	1.106	1	generate	Run3	generate/STIM_014.jpg
1791.396	1.029	0	generate	Run3	generate/STIM_014.jpg
1795.798	0.59	1	generate	Run3	generate/STIM_014.jpg
1798.893	1.072	1	generate	Run3	generate/STIM_014.jpg
1803.693	0.913	1	generate	Run3	generate/STIM_015.jpg
1807.23	0.839	0	generate	Run3	generate/STIM_015.jpg
1810.648	1.058	0	generate	Run3	generate/STIM_015.jpg
1814.53	0.788	1	generate	Run3	generate/STIM_015.jpg
1817.824	1.019	1	generate	Run3	generate/STIM_015.jpg
1821.769	0.989	1	generate	Run3	generate/STIM_016.jpg
1826.635	1.072	1	generate	Run3	generate/STIM_016.jpg
1831.071	0.58	0	generate	Run3	generate/STIM_016.jpg
1834.925	0.817	1	generate	Run3	generate/STIM_016.jpg
1839.076	0.891	0	generate	Run3	generate/STIM_016.jpg
1842.261	1.13	1	generate	Run3	generate/STIM_017.jpg
1845.964	1.118	0	generate	Run3	generate/STIM_017.jpg
1850.476	0.628	1	generate	Run3	generate/STIM_017.jpg
1853.371	1.109	0	generate	Run3	generate/STIM_017.jpg
1857.738	0.768	1	generate	Run3	generate/STIM_017.jpg
1862.358	1.068	0	generate	Run3	generate/STIM_018.jpg
1866.207	0.893	0	generate	Run3	generate/STIM_018.jpg
1870.094	1.205	1	generate	Run3	generate/STIM_018.jpg
1874.699	1.007	1	generate	Run3	generate/STIM_018.jpg
1877.908	1.071	1	generate	Run3	generate/STIM_018.jpg
1882.361	0.538	1	generate	Run3	generate/STIM_019.jpg
1886.887	0.975	0	generate	Run3	generate/STIM_019.jpg
1890.774	0.763	1	generate	Run3	generate/STIM_019.jpg
1895.379	1.108	1	generate	Run3	generate/STIM_019.jpg
1899.177	0.9	1	generate	Run3	generate/STIM_019.jpg
1902.087	0.608	0	generate	Run3	generate/STIM_020.jpg
1905.657	0.677	1	generate	Run3	generate/STIM_020.jpg
1909.233	1.226	0	generate	Run3	generate/STIM_020.jpg
1913.876	0.953	1	generate	Run3	generate/STIM_020.jpg
1916.863	1.222	0	generate	Run3	generate/STIM_020.jpg
1921.342	0.581	1	generate	Run3	generate/STIM_021.jpg
1924.07	0.673	1	generate	Run3	generate/STIM_021.jpg
1928.237	0.509	1	generate	Run3	generate/STIM_021.jpg
1932.072	0.815	1	generate	Run3	generate/STIM_021.jpg
1935.254	1.073	1	generate	Run3	generate/STIM_021.jpg
1939.198	1.071	1	generate	Run3	generate/STIM_022.jpg
1942.642	0.609	1	generate	Run3	generate/STIM_022.jpg
1946.415	0.525	1	generate	Run3	generate/STIM_022.jpg
1950.087	1.19	1	generate	Run3	generate/STIM_022.jpg
1954.77	1.067	1	generate	Run3	generate/STIM_022.jpg
1958.352	0.748	0	generate	Run3	generate/STIM_023.jpg
1961.74	0.809	0	generate	Run3	generate/STIM_023.jpg
1965.269	0.76	0	generate	Run3	generate/STIM_023.jpg
1969.131	0.715	1	generate	Run3	generate/STIM_023.jpg
1972.48	1.028	1	generate	Run3	generate/STIM_023.jpg
1977.375	0.839	1	generate	Run3	generate/STIM_024.jpg
1980.475	1.131	1	generate	Run3	generate/STIM_024.jpg
1984.699	0.693	1	generate	Run3	generate/STIM_024.jpg
1987.888	0.721	1	generate	Run3	generate/STIM_024.jpg
1992.366	1.079	1	generate	Run3	generate/STIM_024.jpg
1995.743	0.559	1	repeat	Run3	repeat/STIM_000.jpg
2000.283	0.503	1	repeat	Run3	repeat/STIM_000.jpg
2004.411	0.586	0	repeat	Run3	repeat/STIM_000.jpg
2007.038	0.417	1	repeat	Run3	repeat/STIM_000.jpg
2009.714	0.375	1	repeat	Run3	repeat/STIM_000.jpg
2013.392	0.474	0	repeat	Run3	repeat/STIM_001.jpg
2017.286	0.547	1	repeat	Run3	repeat/STIM_001.jpg
2021.791	0.448	0	repeat	Run3	repeat/STIM_001.jpg
2025.978	0.456	1	repeat	Run3	repeat/STIM_001.jpg
2030.313	0.369	1	repeat	Run3	repeat/STIM_001.jpg
2032.907	0.51	1	repeat	Run3	repeat/STIM_002.jpg
2035.508	0.441	1	repeat	Run3	repeat/STIM_002.jpg
2039.014	0.431	0	repeat	Run3	repeat/STIM_002.jpg
2043.099	0.307	1	repeat	Run3	repeat/STIM_002.jpg
2046.965	0.318	1	repeat	Run3	repeat/STIM_002.jpg
2050.773	0.455	1	repeat	Run3	repeat/STIM_003.jpg
2054.362	0.5	1	repeat	Run3	repeat/STIM_003.jpg
2058.753	0.414	1	repeat	Run3	repeat/STIM_003.jpg
2062.463	0.393	1	repeat	Run3	repeat/STIM_003.jpg
2066.027	0.506	1	repeat	Run3	repeat/STIM_003.jpg
2069.679	0.58	1	repeat	Run3	repeat/STIM_004.jpg
2072.908	0.531	1	repeat	Run3	repeat/STIM_004.jpg
2077.099	0.476	0	repeat	Run3	repeat/STIM_004.jpg
2080.799	0.295	1	repeat	Run3	repeat/STIM_004.jpg
2084.056	0.396	1	repeat	Run3	repeat/STIM_004.jpg
2088.262	0.449	0	repeat	Run3	repeat/STIM_005.jpg
2091.833	0.458	1	repeat	Run3	repeat/STIM_005.jpg
2094.467	0.575	0	repeat	Run3	repeat/STIM_005.jpg
2097.918	0.398	1	repeat	Run3	repeat/STIM_005.jpg
2100.377	0.542	1	repeat	Run3	repeat/STIM_005.jpg
2103.631	0.342	1	repeat	Run3	repeat/STIM_006.jpg
2106.386	0.559	0	repeat	Run3	repeat/STIM_006.jpg
2109.176	0.578	1	repeat	Run3	repeat/STIM_006.jpg
2113.628	0.372	1	repeat	Run3	repeat/STIM_006.jpg
2117.654	0.303	1	repeat	Run3	repeat/STIM_006.jpg
2120.112	0.555	0	repeat	Run3	repeat/STIM_007.jpg
2124.007	0.542	1	repeat	Run3	repeat/STIM_007.jpg
2127.497	0.455	1	repeat	Run3	repeat/STIM_007.jpg
2131.254	0.469	0	repeat	Run3	repeat/STIM_007.jpg
2134.702	0.543	1	repeat	Run3	repeat/STIM_007.jpg
2137.954	0.436	0	repeat	Run3	repeat/STIM_008.jpg
2142.307	0.451	0	repeat	Run3	repeat/STIM_008.jpg
2146.312	0.492	1	repeat	Run3	repeat/STIM_008.jpg
2150.666	0.563	1	repeat	Run3	repeat/STIM_008.jpg
2154.548	0.331	1	repeat	Run3	repeat/STIM_008.jpg
2157.808	0.538	1	repeat	Run3	repeat/STIM_009.jpg
2161.09	0.51	1	repeat	Run3	repeat/STIM_009.jpg
2164.293	0.576	1	repeat	Run3	repeat/STIM_009.jpg
2167.732	0.473	1	repeat	Run3	repeat/STIM_009.jpg
2170.791	0.324	1	repeat	Run3	repeat/STIM_009.jpg
2174.17	0.562	1	repeat	Run3	repeat/STIM_010.jpg
2177.864	0.582	0	repeat	Run3	repeat/STIM_010.jpg
2181.411	0.466	1	repeat	Run3	repeat/STIM_010.jpg
2185.225	0.552	1	repeat	Run3	repeat/STIM_010.jpg
2189.515	0.4	1	repeat	Run3	repeat/STIM_010.jpg
2192.212	0.369	1	repeat	Run3	repeat/STIM_011.jpg
2194.661	0.38	0	repeat	Run3	repeat/STIM_011.jpg
2198.738	0.389	1	repeat	Run3	repeat/STIM_011.jpg
2202.722	0.464	1	repeat	Run3	repeat/STIM_011.jpg
2205.21	0.493	1	repeat	Run3	repeat/STIM_011.jpg
2209.447	0.557	1	repeat	Run3	repeat/STIM_012.jpg
2212.355	0.474	0	repeat	Run3	repeat/STIM_012.jpg
2216.478	0.432	1	repeat	Run3	repeat/STIM_012.jpg
2220.036	0.387	0	repeat	Run3	repeat/STIM_012.jpg
2224.209	0.474	1	repeat	Run3	repeat/STIM_012.jpg
2228.466	0.45	0	repeat	Run3	repeat/STIM_013.jpg
2231.187	0.582	1	repeat	Run3	repeat/STIM_013.jpg
2234.729	0.568	1	repeat	Run3	repeat/STIM_013.jpg
2237.829	0.299	1	repeat	Run3	repeat/STIM_013.jpg
2240.49	0.338	0	repeat	Run3	repeat/STIM_013.jpg
2243.247	0.364	1	repeat	Run3	repeat/STIM_014.jpg
2246.257	0.362	1	repeat	Run3	repeat/STIM_014.jpg
2250.286	0.579	1	repeat	Run3	repeat/STIM_014.jpg
2253.046	0.298	1	repeat	Run3	repeat/STIM_014.jpg
2257.117	0.53	1	repeat	Run3	repeat/STIM_014.jpg
2260.719	0.94	1	generate	Run4	generate/STIM_000.jpg
2264.589	0.602	1	generate	Run4	generate/STIM_000.jpg
2268.294	0.897	1	generate	Run4	generate/STIM_000.jpg
2271.299	0.607	0	generate	Run4	generate/STIM_000.jpg
2274.525	0.866	1	generate	Run4	generate/STIM_000.jpg
2277.951	0.939	1	generate	Run4	generate/STIM_001.jpg
2281.227	1.19	1	generate	Run4	generate/STIM_001.jpg
2284.822	0.502	1	generate	Run4	generate/STIM_001.jpg
2288.946	1.167	0	generate	Run4	generate/STIM_001.jpg
2293.668	0.658	1	generate	Run4	generate/STIM_001.jpg
2297.809	0.589	1	generate	Run4	generate/STIM_002.jpg
2301.767	0.935	1	generate	Run4	generate/STIM_002.jpg
2306.365	0.546	1	generate	Run4	generate/STIM_002.jpg
2309.374	0.748	1	generate	Run4	generate/STIM_002.jpg
2313.854	0.733	1	generate	Run4	generate/STIM_002.jpg
2317.898	1.188	1	generate	Run4	generate/STIM_003.jpg
2321.554	0.927	1	generate	Run4	generate/STIM_003.jpg
2325.373	0.686	1	generate	Run4	generate/STIM_003.jpg
2328.281	0.911	1	generate	Run4	generate/STIM_003.jpg
2331.235	1.14	1	generate	Run4	generate/STIM_003.jpg
2335.477	0.698	0	generate	Run4	generate/STIM_004.jpg
2338.545	0.496	1	generate	Run4	generate/STIM_004.jpg
2342.959	0.779	1	generate	Run4	generate/STIM_004.jpg
2347.271	0.536	1	generate	Run4	generate/STIM_004.jpg
2350.135	0.557	1	generate	Run4	generate/STIM_004.jpg
2354.239	1.217	1	generate	Run4	generate/STIM_005.jpg
2358.831	0.529	1	generate	Run4	generate/STIM_005.jpg
2361.856	0.524	1	generate	Run4	generate/STIM_005.jpg
2364.696	0.846	1	generate	Run4	generate/STIM_005.jpg
2367.993	0.809	1	generate	Run4	generate/STIM_005.jpg
2372.591	0.499	1	generate	Run4	generate/STIM_006.jpg
2375.464	0.945	0	generate	Run4	generate/STIM_006.jpg
2378.515	0.822	1	generate	Run4	generate/STIM_006.jpg
2383.17	1.007	0	generate	Run4	generate/STIM_006.jpg
2387.593	0.611	1	generate	Run4	generate/STIM_006.jpg
2391.817	0.681	1	generate	Run4	generate/STIM_007.jpg
2396.07	1.217	1	generate	Run4	generate/STIM_007.jpg
2400.969	0.946	1	generate	Run4	generate/STIM_007.jpg
2405.441	0.835	1	generate	Run4	generate/STIM_007.jpg
2408.432	1.182	1	generate	Run4	generate/STIM_007.jpg
2413.474	0.711	1	generate	Run4	generate/STIM_008.jpg
2416.519	1.076	1	generate	Run4	generate/STIM_008.jpg
2419.997	0.542	1	generate	Run4	generate/STIM_008.jpg
2424.231	0.544	1	generate	Run4	generate/STIM_008.jpg
2427.751	1.058	1	generate	Run4	generate/STIM_008.jpg
2431.031	0.86	1	generate	Run4	generate/STIM_009.jpg
2435.451	0.857	1	generate	Run4	generate/STIM_009.jpg
2439.557	0.654	1	generate	Run4	generate/STIM_009.jpg
2442.342	1.052	1	generate	Run4	generate/STIM_009.jpg
2445.578	0.619	1	generate	Run4	generate/STIM_009.jpg
2449.241	0.853	1	generate	Run4	generate/STIM_010.jpg
2452.883	0.985	1	generate	Run4	generate/STIM_010.jpg
2457.609	0.817	1	generate	Run4	generate/STIM_010.jpg
2461.447	1.13	1	generate	Run4	generate/STIM_010.jpg
2465.024	0.76	1	generate	Run4	generate/STIM_010.jpg
2468.969	0.557	0	generate	Run4	generate/STIM_011.jpg
2472.784	0.829	1	generate	Run4	generate/STIM_011.jpg
2476.658	0.619	0	generate	Run4	generate/STIM_011.jpg
2480.602	0.667	0	generate	Run4	generate/STIM_011.jpg
2484.979	0.835	1	generate	Run4	generate/STIM_011.jpg
2488.72	0.802	1	generate	Run4	generate/STIM_012.jpg
2492.005	1.139	1	generate	Run4	generate/STIM_012.jpg
2495.166	0.729	1	generate	Run4	generate/STIM_012.jpg
2499.564	1.035	1	generate	Run4	generate/STIM_012.jpg
2502.609	0.996	1	generate	Run4	generate/STIM_012.jpg
2506.617	0.577	1	generate	Run4	generate/STIM_013.jpg
2509.655	1.098	1	generate	Run4	generate/STIM_013.jpg
2513.994	0.705	1	generate	Run4	generate/STIM_013.jpg
2517.57	1.141	1	generate	Run4	generate/STIM_013.jpg
2520.844	1.056	0	generate	Run4	generate/STIM_013.jpg
2525.641	0.68	0	generate	Run4	generate/STIM_014.jpg
2528.488	0.844	1	generate	Run4	generate/STIM_014.jpg
2531.891	0.723	1	generate	Run4	generate/STIM_014.jpg
2535.702	1.207	1	generate	Run4	generate/STIM_014.jpg
2540.755	0.831	1	generate	Run4	generate/STIM_014.jpg
2545.245	0.954	1	generate	Run4	generate/STIM_015.jpg
2548.381	0.808	1	generate	Run4	generate/STIM_015.jpg
2552.479	0.734	1	generate	Run4	generate/STIM_015.jpg
2556.966	0.807	1	generate	Run4	generate/STIM_015.jpg
2561.331	0.864	1	generate	Run4	generate/STIM_015.jpg
2564.974	0.752	0	generate	Run4	generate/STIM_016.jpg
2569.077	0.55	1	generate	Run4	generate/STIM_016.jpg
2571.723	0.915	0	generate	Run4	generate/STIM_016.jpg
2575.376	1.154	1	generate	Run4	generate/STIM_016.jpg
2579.741	0.879	1	generate	Run4	generate/STIM_016.jpg
2583.148	0.725	1	generate	Run4	generate/STIM_017.jpg
2587.124	0.575	0	generate	Run4	generate/STIM_017.jpg
2590.148	0.687	1	generate	Run4	generate/STIM_017.jpg
2594.181	0.787	1	generate	Run4	generate/STIM_017.jpg
2597.653	0.994	1	generate	Run4	generate/STIM_017.jpg
2602.475	0.991	1	generate	Run4	generate/STIM_018.jpg
2606.9	1.205	1	generate	Run4	generate/STIM_018.jpg
2610.299	0.714	1	generate	Run4	generate/STIM_018.jpg
2613.37	0.744	1	generate	Run4	generate/STIM_018.jpg
2616.398	0.525	1	generate	Run4	generate/STIM_018.jpg
2619.209	1.211	1	generate	Run4	generate/STIM_019.jpg
2623.614	1.194	0	generate	Run4	generate/STIM_019.jpg
2627.204	1.092	0	generate	Run4	generate/STIM_019.jpg
2630.432	0.912	1	generate	Run4	generate/STIM_019.jpg
2634.024	0.826	1	generate	Run4	generate/STIM_019.jpg
2638.205	0.582	1	generate	Run4	generate/STIM_020.jpg
2641.945	0.586	1	generate	Run4	generate/STIM_020.jpg
2645.446	0.608	1	generate	Run4	generate/STIM_020.jpg
2648.397	0.88	0	generate	Run4	generate/STIM_020.jpg
2652.771	0.71	1	generate	Run4	generate/STIM_020.jpg
2657.109	0.624	1	generate	Run4	generate/STIM_021.jpg
2661.144	0.568	1	generate	Run4	generate/STIM_021.jpg
2664.695	1.195	1	generate	Run4	generate/STIM_021.jpg
2668.206	1.207	1	generate	Run4	generate/STIM_021.jpg
2672.596	1.202	0	generate	Run4	generate/STIM_021.jpg
2677.792	0.858	1	generate	Run4	generate/STIM_022.jpg
2681.71	1.042	1	generate	Run4	generate/STIM_022.jpg
2685.238	1.03	1	generate	Run4	generate/STIM_022.jpg
2690.107	0.664	1	generate	Run4	generate/STIM_022.jpg
2694.328	1.058	1	generate	Run4	generate/STIM_022.jpg
2697.929	1.002	1	generate	Run4	generate/STIM_023.jpg
2702.245	1.141	0	generate	Run4	generate/STIM_023.jpg
2706.664	1.198	1	generate	Run4	generate/STIM_023.jpg
2710.306	0.838	1	generate	Run4	generate/STIM_023.jpg
2714.958	0.755	1	generate	Run4	generate/STIM_023.jpg
2719.471	0.632	1	generate	Run4	generate/STIM_024.jpg
2723.876	1.084	1	generate	Run4	generate/STIM_024.jpg
2728.023	1.228	1	generate	Run4	generate/STIM_024.jpg
2733.042	0.529	1	generate	Run4	generate/STIM_024.jpg
2736.167	0.747	1	generate	Run4	generate/STIM_024.jpg
2740.222	0.443	1	repeat	Run4	repeat/STIM_000.jpg
2743.858	0.502	0	repeat	Run4	repeat/STIM_000.jpg
2746.365	0.486	1	repeat	Run4	repeat/STIM_000.jpg
2750.06	0.5	0	repeat	Run4	repeat/STIM_000.jpg
2754.412	0.533	1	repeat	Run4	repeat/STIM_000.jpg
2758.612	0.315	1	repeat	Run4	repeat/STIM_001.jpg
2762.185	0.449	0	repeat	Run4	repeat/STIM_001.jpg
2765.091	0.431	1	repeat	Run4	repeat/STIM_001.jpg
2768.619	0.588	0	repeat	Run4	repeat/STIM_001.jpg
2772.693	0.415	1	repeat	Run4	repeat/STIM_001.jpg
2775.531	0.386	1	repeat	Run4	repeat/STIM_002.jpg
2778.02	0.548	1	repeat	Run4	repeat/STIM_002.jpg
2782.434	0.3	1	repeat	Run4	repeat/STIM_002.jpg
2786.625	0.328	1	repeat	Run4	repeat/STIM_002.jpg
2789.799	0.44	1	repeat	Run4	repeat/STIM_002.jpg
2792.741	0.358	1	repeat	Run4	repeat/STIM_003.jpg
2797.096	0.326	1	repeat	Run4	repeat/STIM_003.jpg
2800.909	0.445	1	repeat	Run4	repeat/STIM_003.jpg
2804.561	0.511	1	repeat	Run4	repeat/STIM_003.jpg
2807.307	0.498	0	repeat	Run4	repeat/STIM_003.jpg
2810.623	0.491	0	repeat	Run4	repeat/STIM_004.jpg
2813.815	0.507	0	repeat	Run4	repeat/STIM_004.jpg
2818.041	0.588	1	repeat	Run4	repeat/STIM_004.jpg
2822.43	0.573	1	repeat	Run4	repeat/STIM_004.jpg
2825.931	0.297	1	repeat	Run4	repeat/STIM_004.jpg
2828.737	0.459	0	repeat	Run4	repeat/STIM_005.jpg
2832.729	0.542	1	repeat	Run4	repeat/STIM_005.jpg
2836.84	0.557	1	repeat	Run4	repeat/STIM_005.jpg
2840.242	0.492	1	repeat	Run4	repeat/STIM_005.jpg
2844.628	0.566	1	repeat	Run4	repeat/STIM_005.jpg
2848.156	0.338	1	repeat	Run4	repeat/STIM_006.jpg
2852.164	0.524	1	repeat	Run4	repeat/STIM_006.jpg
2856.62	0.5	1	repeat	Run4	repeat/STIM_006.jpg
2860.117	0.484	1	repeat	Run4	repeat/STIM_006.jpg
2862.728	0.346	1	repeat	Run4	repeat/STIM_006.jpg
2865.405	0.498	1	repeat	Run4	repeat/STIM_007.jpg
2868.798	0.532	1	repeat	Run4	repeat/STIM_007.jpg
2873.001	0.303	0	repeat	Run4	repeat/STIM_007.jpg
2875.68	0.402	0	repeat	Run4	repeat/STIM_007.jpg
2879.732	0.5	1	repeat	Run4	repeat/STIM_007.jpg
2883.034	0.496	1	repeat	Run4	repeat/STIM_008.jpg
2886.855	0.421	1	repeat	Run4	repeat/STIM_008.jpg
2890.856	0.364	1	repeat	Run4	repeat/STIM_008.jpg
2894.921	0.426	1	repeat	Run4	repeat/STIM_008.jpg
2898.028	0.312	1	repeat	Run4	repeat/STIM_008.jpg
2901.383	0.386	0	repeat	Run4	repeat/STIM_009.jpg
2903.809	0.348	1	repeat	Run4	repeat/STIM_009.jpg
2906.996	0.486	1	repeat	Run4	repeat/STIM_009.jpg
2910.346	0.559	1	repeat	Run4	repeat/STIM_009.jpg
2913.157	0.519	1	repeat	Run4	repeat/STIM_009.jpg
2916.435	0.305	1	repeat	Run4	repeat/STIM_010.jpg
2919.654	0.485	1	repeat	Run4	repeat/STIM_010.jpg
2922.255	0.544	1	repeat	Run4	repeat/STIM_010.jpg
2926.033	0.329	1	repeat	Run4	repeat/STIM_010.jpg
2930.056	0.563	1	repeat	Run4	repeat/STIM_010.jpg
2933.776	0.356	1	repeat	Run4	repeat/STIM_011.jpg
2936.97	0.547	1	repeat	Run4	repeat/STIM_011.jpg
2941.296	0.359	1	repeat	Run4	repeat/STIM_011.jpg
2944.402	0.317	1	repeat	Run4	repeat/STIM_011.jpg
2947.82	0.484	1	repeat	Run4	repeat/STIM_011.jpg
2950.517	0.446	1	repeat	Run4	repeat/STIM_012.jpg
2953.871	0.329	1	repeat	Run4	repeat/STIM_012.jpg
2957.127	0.301	1	repeat	Run4	repeat/STIM_012.jpg
2959.922	0.544	1	repeat	Run4	repeat/STIM_012.jpg
2963.707	0.379	1	repeat	Run4	repeat/STIM_012.jpg
2967.645	0.571	1	repeat	Run4	repeat/STIM_013.jpg
2970.584	0.406	1	repeat	Run4	repeat/STIM_013.jpg
2973.69	0.446	0	repeat	Run4	repeat/STIM_013.jpg
2977.229	0.298	0	repeat	Run4	repeat/STIM_013.jpg
2979.568	0.528	1	repeat	Run4	repeat/STIM_013.jpg
2983.292	0.58	0	repeat	Run4	repeat/STIM_014.jpg
2986.071	0.383	1	repeat	Run4	repeat/STIM_014.jpg
2989.789	0.358	1	repeat	Run4	repeat/STIM_014.jpg
2993.158	0.379	0	repeat	Run4	repeat/STIM_014.jpg
2996.849	0.327	0	repeat	Run4	repeat/STIM_014.jpg
