onset	duration	accuracy_binary	trial_type	learning_stage	stimulus
0.0	4.775	1	navigation	Trial1	navigation/STIM_000.jpg
7.694	3.431	1	navigation	Trial1	navigation/STIM_000.jpg
13.444	3.28	0	navigation	Trial1	navigation/STIM_000.jpg
19.107	3.032	1	navigation	Trial1	navigation/STIM_000.jpg
25.036	3.287	0	navigation	Trial1	navigation/STIM_000.jpg
32.318	1.56	0	navigation	Trial1	navigation/STIM_000.jpg
36.051	4.938	0	navigation	Trial1	navigation/STIM_001.jpg
44.682	3.436	1	navigation	Trial1	navigation/STIM_001.jpg
50.318	4.506	1	navigation	Trial1	navigation/STIM_001.jpg
58.354	2.176	1	navigation	Trial1	navigation/STIM_001.jpg
63.058	1.922	0	navigation	Trial1	navigation/STIM_001.jpg
68.803	2.023	0	navigation	Trial1	navigation/STIM_001.jpg
74.014	3.196	0	navigation	Trial1	navigation/STIM_002.jpg
79.547	4.646	1	navigation	Trial1	navigation/STIM_002.jpg
86.721	4.007	0	navigation	Trial1	navigation/STIM_002.jpg
93.969	3.809	0	navigation	Trial1	navigation/STIM_002.jpg
100.58	2.492	1	navigation	Trial1	navigation/STIM_002.jpg
105.113	1.699	0	navigation	Trial1	navigation/STIM_002.jpg
109.426	3.093	1	navigation	Trial1	navigation/STIM_003.jpg
115.91	4.085	1	navigation	Trial1	navigation/STIM_003.jpg
122.294	3.34	0	navigation	Trial1	navigation/STIM_003.jpg
129.467	2.099	1	navigation	Trial1	navigation/STIM_003.jpg
133.818	3.573	1	navigation	Trial1	navigation/STIM_003.jpg
140.566	1.714	0	navigation	Trial1	navigation/STIM_003.jpg
146.266	2.542	0	navigation	Trial1	navigation/STIM_004.jpg
151.513	4.686	0	navigation	Trial1	navigation/STIM_004.jpg
159.403	2.932	1	navigation	Trial1	navigation/STIM_004.jpg
164.76	2.009	1	navigation	Trial1	navigation/STIM_004.jpg
170.393	2.726	1	navigation	Trial1	navigation/STIM_004.jpg
176.687	2.195	0	navigation	Trial1	navigation/STIM_004.jpg
182.353	5.07	1	navigation	Trial1	navigation/STIM_005.jpg
190.085	2.948	0	navigation	Trial1	navigation/STIM_005.jpg
196.1	2.458	1	navigation	Trial1	navigation/STIM_005.jpg
201.174	2.856	0	navigation	Trial1	navigation/STIM_005.jpg
207.889	2.402	0	navigation	Trial1	navigation/STIM_005.jpg
213.126	3.0	1	navigation	Trial1	navigation/STIM_005.jpg
219.786	3.224	1	navigation	Trial1	navigation/STIM_006.jpg
226.554	2.833	1	navigation	Trial1	navigation/STIM_006.jpg
232.781	1.962	1	navigation	Trial1	navigation/STIM_006.jpg
237.863	2.423	0	navigation	Trial1	navigation/STIM_006.jpg
243.642	2.61	0	navigation	Trial1	navigation/STIM_006.jpg
249.477	1.77	1	navigation	Trial1	navigation/STIM_006.jpg
253.71	4.205	0	navigation	Trial1	navigation/STIM_007.jpg
260.937	2.376	0	navigation	Trial1	navigation/STIM_007.jpg
265.971	2.688	1	navigation	Trial1	navigation/STIM_007.jpg
271.352	1.868	1	navigation	Trial1	navigation/STIM_007.jpg
276.43	3.872	0	navigation	Trial1	navigation/STIM_007.jpg
283.469	2.623	0	navigation	Trial1	navigation/STIM_007.jpg
288.237	4.409	0	navigation	Trial1	navigation/STIM_008.jpg
296.163	4.681	1	navigation	Trial1	navigation/STIM_008.jpg
303.817	2.914	0	navigation	Trial1	navigation/STIM_008.jpg
308.825	3.609	0	navigation	Trial1	navigation/STIM_008.jpg
314.725	3.78	0	navigation	Trial1	navigation/STIM_008.jpg
320.924	1.681	1	navigation	Trial1	navigation/STIM_008.jpg
325.873	3.882	1	navigation	Trial1	navigation/STIM_009.jpg
332.188	1.968	1	navigation	Trial1	navigation/STIM_009.jpg
338.087	2.893	0	navigation	Trial1	navigation/STIM_009.jpg
344.816	2.192	0	navigation	Trial1	navigation/STIM_009.jpg
350.677	1.78	1	navigation	Trial1	navigation/STIM_009.jpg
355.874	2.387	0	navigation	Trial1	navigation/STIM_009.jpg
362.184	3.673	1	navigation	Trial1	navigation/STIM_010.jpg
368.983	4.664	1	navigation	Trial1	navigation/STIM_010.jpg
377.498	3.921	0	navigation	Trial1	navigation/STIM_010.jpg
384.005	4.342	1	navigation	Trial1	navigation/STIM_010.jpg
391.369	1.971	1	navigation	Trial1	navigation/STIM_010.jpg
396.352	2.049	0	navigation	Trial1	navigation/STIM_010.jpg
400.416	2.928	1	navigation	Trial1	navigation/STIM_011.jpg
406.499	3.749	0	navigation	Trial1	navigation/STIM_011.jpg
414.198	3.156	1	navigation	Trial1	navigation/STIM_011.jpg
420.398	2.066	0	navigation	Trial1	navigation/STIM_011.jpg
425.787	3.66	1	navigation	Trial1	navigation/STIM_011.jpg
433.354	3.025	1	navigation	Trial1	navigation/STIM_011.jpg
439.095	0.886	0	pointing	Trial1	pointing/STIM_000.jpg
442.497	1.097	1	pointing	Trial1	pointing/STIM_000.jpg
445.72	0.898	1	pointing	Trial1	pointing/STIM_000.jpg
450.037	1.12	1	pointing	Trial1	pointing/STIM_000.jpg
454.779	1.159	1	pointing	Trial1	pointing/STIM_000.jpg
459.061	1.272	1	pointing	Trial1	pointing/STIM_000.jpg
463.596	1.138	0	pointing	Trial1	pointing/STIM_001.jpg
468.264	0.858	1	pointing	Trial1	pointing/STIM_001.jpg
473.113	1.228	1	pointing	Trial1	pointing/STIM_001.jpg
477.349	1.033	1	pointing	Trial1	pointing/STIM_001.jpg
481.702	1.231	1	pointing	Trial1	pointing/STIM_001.jpg
485.798	1.402	1	pointing	Trial1	pointing/STIM_001.jpg
489.399	1.37	1	pointing	Trial1	pointing/STIM_002.jpg
494.026	1.437	1	pointing	Trial1	pointing/STIM_002.jpg
499.306	1.348	1	pointing	Trial1	pointing/STIM_002.jpg
502.933	1.162	1	pointing	Trial1	pointing/STIM_002.jpg
507.306	0.987	1	pointing	Trial1	pointing/STIM_002.jpg
511.576	1.182	1	pointing	Trial1	pointing/STIM_002.jpg
516.197	1.537	1	pointing	Trial1	pointing/STIM_003.jpg
521.296	1.324	0	pointing	Trial1	pointing/STIM_003.jpg
526.361	1.296	1	pointing	Trial1	pointing/STIM_003.jpg
530.132	1.319	1	pointing	Trial1	pointing/STIM_003.jpg
533.522	1.449	1	pointing	Trial1	pointing/STIM_003.jpg
538.148	0.886	1	pointing	Trial1	pointing/STIM_003.jpg
541.781	1.449	1	pointing	Trial1	pointing/STIM_004.jpg
545.91	0.826	0	pointing	Trial1	pointing/STIM_004.jpg
550.507	1.366	1	pointing	Trial1	pointing/STIM_004.jpg
555.628	1.48	0	pointing	Trial1	pointing/STIM_004.jpg
560.072	1.119	0	pointing	Trial1	pointing/STIM_004.jpg
564.398	1.108	1	pointing	Trial1	pointing/STIM_004.jpg
568.711	1.48	1	pointing	Trial1	pointing/STIM_005.jpg
574.087	1.42	0	pointing	Trial1	pointing/STIM_005.jpg
578.693	1.019	1	pointing	Trial1	pointing/STIM_005.jpg
583.683	0.922	0	pointing	Trial1	pointing/STIM_005.jpg
586.98	1.275	1	pointing	Trial1	pointing/STIM_005.jpg
591.684	1.386	1	pointing	Trial1	pointing/STIM_005.jpg
595.078	1.542	1	pointing	Trial1	pointing/STIM_006.jpg
599.812	0.989	1	pointing	Trial1	pointing/STIM_006.jpg
603.211	1.527	0	pointing	Trial1	pointing/STIM_006.jpg
607.198	1.431	1	pointing	Trial1	pointing/STIM_006.jpg
611.204	0.99	1	pointing	Trial1	pointing/STIM_006.jpg
614.348	1.022	1	pointing	Trial1	pointing/STIM_006.jpg
617.757	1.079	1	pointing	Trial1	pointing/STIM_007.jpg
620.926	1.28	1	pointing	Trial1	pointing/STIM_007.jpg
624.863	1.3	1	pointing	Trial1	pointing/STIM_007.jpg
628.724	0.871	0	pointing	Trial1	pointing/STIM_007.jpg
633.466	0.896	1	pointing	Trial1	pointing/STIM_007.jpg
638.258	0.988	0	pointing	Trial1	pointing/STIM_007.jpg
642.506	1.469	0	pointing	Trial1	pointing/STIM_008.jpg
646.994	1.174	1	pointing	Trial1	pointing/STIM_008.jpg
652.07	1.078	1	pointing	Trial1	pointing/STIM_008.jpg
656.442	1.235	1	pointing	Trial1	pointing/STIM_008.jpg
660.994	1.522	1	pointing	Trial1	pointing/STIM_008.jpg
665.892	0.833	1	pointing	Trial1	pointing/STIM_008.jpg
669.736	1.181	1	pointing	Trial1	pointing/STIM_009.jpg
674.889	0.929	1	pointing	Trial1	pointing/STIM_009.jpg
679.724	1.244	1	pointing	Trial1	pointing/STIM_009.jpg
684.712	1.166	1	pointing	Trial1	pointing/STIM_009.jpg
689.435	0.854	1	pointing	Trial1	pointing/STIM_009.jpg
693.285	0.968	1	pointing	Trial1	pointing/STIM_009.jpg
696.361	1.308	0	pointing	Trial1	pointing/STIM_010.jpg
700.225	1.308	1	pointing	Trial1	pointing/STIM_010.jpg
704.871	0.914	1	pointing	Trial1	pointing/STIM_010.jpg
709.026	1.177	1	pointing	Trial1	pointing/STIM_010.jpg
713.946	0.915	0	pointing	Trial1	pointing/STIM_010.jpg
718.794	1.025	0	pointing	Trial1	pointing/STIM_010.jpg
721.885	1.506	0	pointing	Trial1	pointing/STIM_011.jpg
726.303	0.839	1	pointing	Trial1	pointing/STIM_011.jpg
731.059	1.451	0	pointing	Trial1	pointing/STIM_011.jpg
736.405	1.296	1	pointing	Trial1	pointing/STIM_011.jpg
739.842	1.42	1	pointing	Trial1	pointing/STIM_011.jpg
743.489	1.217	0	pointing	Trial1	pointing/STIM_011.jpg
747.246	3.815	0	navigation	Trial2	navigation/STIM_000.jpg
754.794	3.344	1	navigation	Trial2	navigation/STIM_000.jpg
761.004	2.068	1	navigation	Trial2	navigation/STIM_000.jpg
765.71	2.47	0	navigation	Trial2	navigation/STIM_000.jpg
770.218	1.619	0	navigation	Trial2	navigation/STIM_000.jpg
775.258	2.994	1	navigation	Trial2	navigation/STIM_000.jpg
781.167	3.165	0	navigation	Trial2	navigation/STIM_001.jpg
786.5	3.277	0	navigation	Trial2	navigation/STIM_001.jpg
791.833	3.414	1	navigation	Trial2	navigation/STIM_001.jpg
797.652	2.799	0	navigation	Trial2	navigation/STIM_001.jpg
803.03	1.621	1	navigation	Trial2	navigation/STIM_001.jpg
806.695	1.631	1	navigation	Trial2	navigation/STIM_001.jpg
811.216	2.154	1	navigation	Trial2	navigation/STIM_002.jpg
816.296	2.076	1	navigation	Trial2	navigation/STIM_002.jpg
822.32	2.277	1	navigation	Trial2	navigation/STIM_002.jpg
826.946	1.585	1	navigation	Trial2	navigation/STIM_002.jpg
832.386	3.581	0	navigation	Trial2	navigation/STIM_002.jpg
838.279	2.974	1	navigation	Trial2	navigation/STIM_002.jpg
844.126	2.655	1	navigation	Trial2	navigation/STIM_003.jpg
849.819	2.953	1	navigation	Trial2	navigation/STIM_003.jpg
856.371	1.656	0	navigation	Trial2	navigation/STIM_003.jpg
860.692	2.851	1	navigation	Trial2	navigation/STIM_003.jpg
866.452	3.207	1	navigation	Trial2	navigation/STIM_003.jpg
872.263	1.64	0	navigation	Trial2	navigation/STIM_003.jpg
877.054	3.734	1	navigation	Trial2	navigation/STIM_004.jpg
884.5	3.934	1	navigation	Trial2	navigation/STIM_004.jpg
891.324	3.571	1	navigation	Trial2	navigation/STIM_004.jpg
897.982	2.801	1	navigation	Trial2	navigation/STIM_004.jpg
904.017	2.935	1	navigation	Trial2	navigation/STIM_004.jpg
910.456	2.154	1	navigation	Trial2	navigation/STIM_004.jpg
914.92	1.842	0	navigation	Trial2	navigation/STIM_005.jpg
920.314	3.748	1	navigation	Trial2	navigation/STIM_005.jpg
927.018	3.686	1	navigation	Trial2	navigation/STIM_005.jpg
933.666	2.27	1	navigation	Trial2	navigation/STIM_005.jpg
938.055	1.593	0	navigation	Trial2	navigation/STIM_005.jpg
941.919	3.449	0	navigation	Trial2	navigation/STIM_005.jpg
948.838	3.888	0	navigation	Trial2	navigation/STIM_006.jpg
954.801	2.97	0	navigation	Trial2	navigation/STIM_006.jpg
960.179	2.995	1	navigation	Trial2	navigation/STIM_006.jpg
965.841	2.298	1	navigation	Trial2	navigation/STIM_006.jpg
970.908	3.244	1	navigation	Trial2	navigation/STIM_006.jpg
977.97	1.497	0	navigation	Trial2	navigation/STIM_006.jpg
981.536	4.318	1	navigation	Trial2	navigation/STIM_007.jpg
989.318	3.318	1	navigation	Trial2	navigation/STIM_007.jpg
996.205	3.246	1	navigation	Trial2	navigation/STIM_007.jpg
1002.715	2.1	1	navigation	Trial2	navigation/STIM_007.jpg
1007.624	3.096	0	navigation	Trial2	navigation/STIM_007.jpg
1013.788	3.183	0	navigation	Trial2	navigation/STIM_007.jpg
1020.423	2.029	1	navigation	Trial2	navigation/STIM_008.jpg
1026.354	3.512	1	navigation	Trial2	navigation/STIM_008.jpg
1033.043	1.719	1	navigation	Trial2	navigation/STIM_008.jpg
1038.586	2.846	0	navigation	Trial2	navigation/STIM_008.jpg
1044.681	3.02	1	navigation	Trial2	navigation/STIM_008.jpg
1051.659	2.486	1	navigation	Trial2	navigation/STIM_008.jpg
1056.481	3.468	1	navigation	Trial2	navigation/STIM_009.jpg
1062.329	3.787	1	navigation	Trial2	navigation/STIM_009.jpg
1068.543	2.219	0	navigation	Trial2	navigation/STIM_009.jpg
1074.562	2.833	1	navigation	Trial2	navigation/STIM_009.jpg
1080.683	2.792	0	navigation	Trial2	navigation/STIM_009.jpg
1085.556	1.612	1	navigation	Trial2	navigation/STIM_009.jpg
1090.511	2.833	1	navigation	Trial2	navigation/STIM_010.jpg
1096.929	4.012	0	navigation	Trial2	navigation/STIM_010.jpg
1103.073	3.756	1	navigation	Trial2	navigation/STIM_010.jpg
1109.929	2.549	1	navigation	Trial2	navigation/STIM_010.jpg
1115.899	3.423	1	navigation	Trial2	navigation/STIM_010.jpg
1122.178	2.829	0	navigation	Trial2	navigation/STIM_010.jpg
1128.776	3.638	0	navigation	Trial2	navigation/STIM_011.jpg
1135.951	2.681	1	navigation	Trial2	navigation/STIM_011.jpg
1141.667	2.61	1	navigation	Trial2	navigation/STIM_011.jpg
1147.268	2.771	1	navigation	Trial2	navigation/STIM_011.jpg
1152.968	2.029	1	navigation	Trial2	navigation/STIM_011.jpg
1158.458	1.885	0	navigation	Trial2	navigation/STIM_011.jpg
1163.9	1.544	1	pointing	Trial2	pointing/STIM_000.jpg
1168.046	0.946	1	pointing	Trial2	pointing/STIM_000.jpg
1172.476	1.051	1	pointing	Trial2	pointing/STIM_000.jpg
1177.109	1.281	1	pointing	Trial2	pointing/STIM_000.jpg
1181.585	0.92	1	pointing	Trial2	pointing/STIM_000.jpg
1186.33	1.546	1	pointing	Trial2	pointing/STIM_000.jpg
1190.178	1.3	1	pointing	Trial2	pointing/STIM_001.jpg
1195.159	1.493	1	pointing	Trial2	pointing/STIM_001.jpg
1199.202	1.326	1	pointing	Trial2	pointing/STIM_001.jpg
1203.865	0.971	0	pointing	Trial2	pointing/STIM_001.jpg
1206.964	1.161	1	pointing	Trial2	pointing/STIM_001.jpg
1211.628	1.355	0	pointing	Trial2	pointing/STIM_001.jpg
1215.174	1.521	1	pointing	Trial2	pointing/STIM_002.jpg
1218.753	1.096	1	pointing	Trial2	pointing/STIM_002.jpg
1222.036	1.473	1	pointing	Trial2	pointing/STIM_002.jpg
1226.032	1.111	1	pointing	Trial2	pointing/STIM_002.jpg
1230.173	1.322	1	pointing	Trial2	pointing/STIM_002.jpg
1235.382	1.1	1	pointing	Trial2	pointing/STIM_002.jpg
1240.323	1.421	1	pointing	Trial2	pointing/STIM_003.jpg
1245.207	1.281	0	pointing	Trial2	pointing/STIM_003.jpg
1249.618	1.013	1	pointing	Trial2	pointing/STIM_003.jpg
1254.089	1.16	1	pointing	Trial2	pointing/STIM_003.jpg
1257.767	1.164	1	pointing	Trial2	pointing/STIM_003.jpg
1261.989	0.855	1	pointing	Trial2	pointing/STIM_003.jpg
1266.395	1.228	1	pointing	Trial2	pointing/STIM_004.jpg
1271.566	1.466	1	pointing	Trial2	pointing/STIM_004.jpg
1276.532	1.303	1	pointing	Trial2	pointing/STIM_004.jpg
1280.849	1.399	1	pointing	Trial2	pointing/STIM_004.jpg
1285.153	1.378	1	pointing	Trial2	pointing/STIM_004.jpg
1289.987	0.869	1	pointing	Trial2	pointing/STIM_004.jpg
1293.331	1.122	1	pointing	Trial2	pointing/STIM_005.jpg
1296.597	1.115	1	pointing	Trial2	pointing/STIM_005.jpg
1301.345	1.461	1	pointing	Trial2	pointing/STIM_005.jpg
1305.02	1.375	1	pointing	Trial2	pointing/STIM_005.jpg
1308.614	1.421	1	pointing	Trial2	pointing/STIM_005.jpg
1312.336	1.313	0	pointing	Trial2	pointing/STIM_005.jpg
1315.896	0.95	1	pointing	Trial2	pointing/STIM_006.jpg
1319.378	1.233	1	pointing	Trial2	pointing/STIM_006.jpg
1322.75	1.209	1	pointing	Trial2	pointing/STIM_006.jpg
1326.212	1.002	1	pointing	Trial2	pointing/STIM_006.jpg
1330.192	1.48	0	pointing	Trial2	pointing/STIM_006.jpg
1334.116	1.268	1	pointing	Trial2	pointing/STIM_006.jpg
1338.055	1.394	1	pointing	Trial2	pointing/STIM_007.jpg
1342.645	1.116	1	pointing	Trial2	pointing/STIM_007.jpg
1347.023	1.313	0	pointing	Trial2	pointing/STIM_007.jpg
1352.057	1.396	1	pointing	Trial2	pointing/STIM_007.jpg
1356.244	1.211	1	pointing	Trial2	pointing/STIM_007.jpg
1360.44	1.512	1	pointing	Trial2	pointing/STIM_007.jpg
1365.647	1.346	1	pointing	Trial2	pointing/STIM_008.jpg
1370.744	0.959	0	pointing	Trial2	pointing/STIM_008.jpg
1375.136	1.206	0	pointing	Trial2	pointing/STIM_008.jpg
1378.854	1.106	0	pointing	Trial2	pointing/STIM_008.jpg
1381.97	1.068	1	pointing	Trial2	pointing/STIM_008.jpg
1385.512	1.358	1	pointing	Trial2	pointing/STIM_008.jpg
1389.621	1.191	1	pointing	Trial2	pointing/STIM_009.jpg
1393.936	1.329	1	pointing	Trial2	pointing/STIM_009.jpg
1397.611	0.97	1	pointing	Trial2	pointing/STIM_009.jpg
1401.622	1.202	1	pointing	Trial2	pointing/STIM_009.jpg
1406.056	1.388	1	pointing	Trial2	pointing/STIM_009.jpg
1410.093	1.291	1	pointing	Trial2	pointing/STIM_009.jpg
1413.488	1.228	1	pointing	Trial2	pointing/STIM_010.jpg
1416.855	1.519	1	pointing	Trial2	pointing/STIM_010.jpg
1420.809	1.492	1	pointing	Trial2	pointing/STIM_010.jpg
1425.947	0.842	1	pointing	Trial2	pointing/STIM_010.jpg
1429.588	1.296	1	pointing	Trial2	pointing/STIM_010.jpg
1433.11	1.151	1	pointing	Trial2	pointing/STIM_010.jpg
1437.743	1.146	0	pointing	Trial2	pointing/STIM_011.jpg
1441.292	0.991	0	pointing	Trial2	pointing/STIM_011.jpg
1444.512	0.934	1	pointing	Trial2	pointing/STIM_011.jpg
1448.689	1.29	1	pointing	Trial2	pointing/STIM_011.jpg
1452.912	1.454	1	pointing	Trial2	pointing/STIM_011.jpg
1456.684	1.502	0	pointing	Trial2	pointing/STIM_011.jpg
1461.756	1.637	0	navigation	Trial3	navigation/STIM_000.jpg
1466.238	2.975	0	navigation	Trial3	navigation/STIM_000.jpg
1471.736	2.483	1	navigation	Trial3	navigation/STIM_000.jpg
1477.827	1.778	1	navigation	Trial3	navigation/STIM_000.jpg
1483.533	3.595	1	navigation	Trial3	navigation/STIM_000.jpg
1490.649	2.063	1	navigation	Trial3	navigation/STIM_000.jpg
1496.064	2.151	1	navigation	Trial3	navigation/STIM_001.jpg
1500.392	2.239	0	navigation	Trial3	navigation/STIM_001.jpg
1506.304	1.503	1	navigation	Trial3	navigation/STIM_001.jpg
1511.059	2.401	1	navigation	Trial3	navigation/STIM_001.jpg
1517.106	1.696	1	navigation	Trial3	navigation/STIM_001.jpg
1522.42	1.558	1	navigation	Trial3	navigation/STIM_001.jpg
1527.525	2.063	1	navigation	Trial3	navigation/STIM_002.jpg
1531.642	3.414	1	navigation	Trial3	navigation/STIM_002.jpg
1539.035	2.166	0	navigation	Trial3	navigation/STIM_002.jpg
1544.39	1.83	1	navigation	Trial3	navigation/STIM_002.jpg
1549.214	3.471	1	navigation	Trial3	navigation/STIM_002.jpg
1556.014	2.835	1	navigation	Trial3	navigation/STIM_002.jpg
1562.188	1.526	1	navigation	Trial3	navigation/STIM_003.jpg
1567.434	2.018	0	navigation	Trial3	navigation/STIM_003.jpg
1572.396	1.648	0	navigation	Trial3	navigation/STIM_003.jpg
1577.284	3.053	1	navigation	Trial3	navigation/STIM_003.jpg
1582.536	1.653	1	navigation	Trial3	navigation/STIM_003.jpg
1586.534	2.034	1	navigation	Trial3	navigation/STIM_003.jpg
1590.874	1.772	1	navigation	Trial3	navigation/STIM_004.jpg
1595.589	1.587	1	navigation	Trial3	navigation/STIM_004.jpg
1600.751	1.743	0	navigation	Trial3	navigation/STIM_004.jpg
1605.04	2.213	0	navigation	Trial3	navigation/STIM_004.jpg
1610.765	2.831	1	navigation	Trial3	navigation/STIM_004.jpg
1615.748	1.449	1	navigation	Trial3	navigation/STIM_004.jpg
1620.339	1.691	0	navigation	Trial3	navigation/STIM_005.jpg
1624.251	3.195	1	navigation	Trial3	navigation/STIM_005.jpg
1629.608	2.787	0	navigation	Trial3	navigation/STIM_005.jpg
1636.036	2.28	1	navigation	Trial3	navigation/STIM_005.jpg
1641.041	2.975	0	navigation	Trial3	navigation/STIM_005.jpg
1647.082	2.034	1	navigation	Trial3	navigation/STIM_005.jpg
1652.373	3.582	1	navigation	Trial3	navigation/STIM_006.jpg
1659.81	3.001	1	navigation	Trial3	navigation/STIM_006.jpg
1666.337	1.65	1	navigation	Trial3	navigation/STIM_006.jpg
1670.006	2.152	0	navigation	Trial3	navigation/STIM_006.jpg
1674.733	2.735	1	navigation	Trial3	navigation/STIM_006.jpg
1681.351	1.867	1	navigation	Trial3	navigation/STIM_006.jpg
1685.716	1.785	1	navigation	Trial3	navigation/STIM_007.jpg
1690.42	3.604	0	navigation	Trial3	navigation/STIM_007.jpg
1697.596	1.6	1	navigation	Trial3	navigation/STIM_007.jpg
1702.842	1.493	1	navigation	Trial3	navigation/STIM_007.jpg
1706.469	1.866	0	navigation	Trial3	navigation/STIM_007.jpg
1712.178	3.04	1	navigation	Trial3	navigation/STIM_007.jpg
1718.393	2.682	1	navigation	Trial3	navigation/STIM_008.jpg
1724.379	1.466	1	navigation	Trial3	navigation/STIM_008.jpg
1729.212	1.669	0	navigation	Trial3	navigation/STIM_008.jpg
1733.052	1.756	1	navigation	Trial3	navigation/STIM_008.jpg
1737.422	2.661	1	navigation	Trial3	navigation/STIM_008.jpg
1743.257	2.746	1	navigation	Trial3	navigation/STIM_008.jpg
1748.368	1.785	1	navigation	Trial3	navigation/STIM_009.jpg
1752.544	2.132	1	navigation	Trial3	navigation/STIM_009.jpg
1757.692	2.503	1	navigation	Trial3	navigation/STIM_009.jpg
1762.998	3.573	0	navigation	Trial3	navigation/STIM_009.jpg
1769.348	3.05	1	navigation	Trial3	navigation/STIM_009.jpg
1776.073	1.768	1	navigation	Trial3	navigation/STIM_009.jpg
1779.906	3.16	1	navigation	Trial3	navigation/STIM_010.jpg
1785.176	2.428	1	navigation	Trial3	navigation/STIM_010.jpg
1789.747	2.127	1	navigation	Trial3	navigation/STIM_010.jpg
1793.978	2.134	1	navigation	Trial3	navigation/STIM_010.jpg
1798.271	1.931	1	navigation	Trial3	navigation/STIM_010.jpg
1802.459	2.762	1	navigation	Trial3	navigation/STIM_010.jpg
1808.861	2.448	1	navigation	Trial3	navigation/STIM_011.jpg
1814.226	3.111	0	navigation	Trial3	navigation/STIM_011.jpg
1820.02	2.221	1	navigation	Trial3	navigation/STIM_011.jpg
1825.858	1.505	0	navigation	Trial3	navigation/STIM_011.jpg
1829.504	2.45	1	navigation	Trial3	navigation/STIM_011.jpg
1835.431	2.7	1	navigation	Trial3	navigation/STIM_011.jpg
1841.575	1.528	1	pointing	Trial3	pointing/STIM_000.jpg
1846.638	1.496	1	pointing	Trial3	pointing/STIM_000.jpg
1851.583	0.848	1	pointing	Trial3	pointing/STIM_000.jpg
1856.122	0.981	1	pointing	Trial3	pointing/STIM_000.jpg
1859.674	1.475	1	pointing	Trial3	pointing/STIM_000.jpg
1865.147	0.859	1	pointing	Trial3	pointing/STIM_000.jpg
1869.244	0.903	0	pointing	Trial3	pointing/STIM_001.jpg
1873.606	1.25	1	pointing	Trial3	pointing/STIM_001.jpg
1878.544	1.084	1	pointing	Trial3	pointing/STIM_001.jpg
1882.189	0.912	1	pointing	Trial3	pointing/STIM_001.jpg
1885.536	0.962	1	pointing	Trial3	pointing/STIM_001.jpg
1889.672	1.138	1	pointing	Trial3	pointing/STIM_001.jpg
1894.144	0.876	1	pointing	Trial3	pointing/STIM_002.jpg
1898.895	1.538	1	pointing	Trial3	pointing/STIM_002.jpg
1903.117	1.035	1	pointing	Trial3	pointing/STIM_002.jpg
1907.175	0.949	1	pointing	Trial3	pointing/STIM_002.jpg
1911.335	1.128	1	pointing	Trial3	pointing/STIM_002.jpg
1914.814	1.381	1	pointing	Trial3	pointing/STIM_002.jpg
1918.68	1.083	0	pointing	Trial3	pointing/STIM_003.jpg
1923.55	1.497	1	pointing	Trial3	pointing/STIM_003.jpg
1927.29	0.934	1	pointing	Trial3	pointing/STIM_003.jpg
1931.661	1.335	0	pointing	Trial3	pointing/STIM_003.jpg
1935.229	1.015	0	pointing	Trial3	pointing/STIM_003.jpg
1940.032	1.225	1	pointing	Trial3	pointing/STIM_003.jpg
1944.436	1.137	1	pointing	Trial3	pointing/STIM_004.jpg
1947.98	1.204	1	pointing	Trial3	pointing/STIM_004.jpg
1952.056	1.283	1	pointing	Trial3	pointing/STIM_004.jpg
1955.848	1.5	1	pointing	Trial3	pointing/STIM_004.jpg
1959.576	1.062	1	pointing	Trial3	pointing/STIM_004.jpg
1964.612	1.487	0	pointing	Trial3	pointing/STIM_004.jpg
1968.97	1.494	1	pointing	Trial3	pointing/STIM_005.jpg
1973.38	1.21	1	pointing	Trial3	pointing/STIM_005.jpg
1978.035	1.295	0	pointing	Trial3	pointing/STIM_005.jpg
1981.413	0.923	1	pointing	Trial3	pointing/STIM_005.jpg
1986.131	1.119	1	pointing	Trial3	pointing/STIM_005.jpg
1991.077	1.051	1	pointing	Trial3	pointing/STIM_005.jpg
1995.526	1.208	1	pointing	Trial3	pointing/STIM_006.jpg
2000.454	0.909	1	pointing	Trial3	pointing/STIM_006.jpg
2004.617	1.345	1	pointing	Trial3	pointing/STIM_006.jpg
2008.089	0.881	1	pointing	Trial3	pointing/STIM_006.jpg
2012.41	1.199	1	pointing	Trial3	pointing/STIM_006.jpg
2016.543	1.257	1	pointing	Trial3	pointing/STIM_006.jpg
2019.957	0.908	1	pointing	Trial3	pointing/STIM_007.jpg
2023.245	1.198	1	pointing	Trial3	pointing/STIM_007.jpg
2028.198	1.417	0	pointing	Trial3	pointing/STIM_007.jpg
2033.124	1.066	1	pointing	Trial3	pointing/STIM_007.jpg
2037.571	0.837	0	pointing	Trial3	pointing/STIM_007.jpg
2041.88	1.214	0	pointing	Trial3	pointing/STIM_007.jpg
2046.422	0.887	1	pointing	Trial3	pointing/STIM_008.jpg
2050.733	1.154	1	pointing	Trial3	pointing/STIM_008.jpg
2054.553	1.036	1	pointing	Trial3	pointing/STIM_008.jpg
2059.288	1.45	1	pointing	Trial3	pointing/STIM_008.jpg
2063.441	1.034	1	pointing	Trial3	pointing/STIM_008.jpg
2067.974	0.896	1	pointing	Trial3	pointing/STIM_008.jpg
2072.102	1.474	1	pointing	Trial3	pointing/STIM_009.jpg
2075.909	1.244	1	pointing	Trial3	pointing/STIM_009.jpg
2079.551	1.034	1	pointing	Trial3	pointing/STIM_009.jpg
2083.865	1.314	0	pointing	Trial3	pointing/STIM_009.jpg
2088.729	0.916	1	pointing	Trial3	pointing/STIM_009.jpg
2093.001	1.45	1	pointing	Trial3	pointing/STIM_009.jpg
2097.248	1.065	1	pointing	Trial3	pointing/STIM_010.jpg
2101.691	0.839	1	pointing	Trial3	pointing/STIM_010.jpg
2105.491	1.176	1	pointing	Trial3	pointing/STIM_010.jpg
2108.751	1.178	1	pointing	Trial3	pointing/STIM_010.jpg
2113.128	0.865	1	pointing	Trial3	pointing/STIM_010.jpg
2116.018	1.298	1	pointing	Trial3	pointing/STIM_010.jpg
2119.986	1.243	1	pointing	Trial3	pointing/STIM_011.jpg
2123.821	0.87	0	pointing	Trial3	pointing/STIM_011.jpg
2127.358	0.911	1	pointing	Trial3	pointing/STIM_011.jpg
2131.405	1.106	0	pointing	Trial3	pointing/STIM_011.jpg
2135.849	1.185	1	pointing	Trial3	pointing/STIM_011.jpg
2139.281	1.171	1	pointing	Trial3	pointing/STIM_011.jpg
