onset	duration	response_time_ms	trial_type	learning_stage	stimulus	response_port
0.0	2.353	2353.4	navigation	Trial1	navigation/STIM_000.jpg	100
5.882	4.184	4184.0	navigation	Trial1	navigation/STIM_000.jpg	99
13.452	3.951	3950.8	navigation	Trial1	navigation/STIM_000.jpg	100
20.683	2.288	2287.9	navigation	Trial1	navigation/STIM_000.jpg	100
26.827	3.674	3673.8	navigation	Trial1	navigation/STIM_000.jpg	99
34.693	3.089	3089.2	navigation	Trial1	navigation/STIM_000.jpg	99
40.683	4.507	4506.6	navigation	Trial1	navigation/STIM_001.jpg	100
48.229	3.093	3092.9	navigation	Trial1	navigation/STIM_001.jpg	100
53.777	3.101	3100.8	navigation	Trial1	navigation/STIM_001.jpg	99
60.539	1.9	1900.5	navigation	Trial1	navigation/STIM_001.jpg	100
65.202	1.432	1431.7	navigation	Trial1	navigation/STIM_001.jpg	99
70.21	2.756	2756.4	navigation	Trial1	navigation/STIM_001.jpg	100
75.564	4.204	4203.6	navigation	Trial1	navigation/STIM_002.jpg	100
83.715	2.587	2586.8	navigation	Trial1	navigation/STIM_002.jpg	99
88.674	2.584	2584.1	navigation	Trial1	navigation/STIM_002.jpg	99
95.116	2.315	2314.6	navigation	Trial1	navigation/STIM_002.jpg	99
100.415	2.95	2950.5	navigation	Trial1	navigation/STIM_002.jpg	99
107.168	2.143	2143.4	navigation	Trial1	navigation/STIM_002.jpg	99
112.514	2.069	2068.7	navigation	Trial1	navigation/STIM_003.jpg	100
117.795	3.337	3337.2	navigation	Trial1	navigation/STIM_003.jpg	100
123.529	3.681	3680.7	navigation	Trial1	navigation/STIM_003.jpg	100
131.07	3.814	3813.6	navigation	Trial1	navigation/STIM_003.jpg	100
138.856	1.915	1915.4	navigation	Trial1	navigation/STIM_003.jpg	99
142.969	1.8	1799.8	navigation	Trial1	navigation/STIM_003.jpg	100
147.517	2.209	2209.0	navigation	Trial1	navigation/STIM_004.jpg	100
153.886	3.925	3924.9	navigation	Trial1	navigation/STIM_004.jpg	99
160.357	2.128	2127.9	navigation	Trial1	navigation/STIM_004.jpg	100
166.216	3.321	3321.3	navigation	Trial1	navigation/STIM_004.jpg	100
173.543	1.57	1570.5	navigation	Trial1	navigation/STIM_004.jpg	100
179.13	2.688	2688.4	navigation	Trial1	navigation/STIM_004.jpg	99
184.601	4.411	4411.1	navigation	Trial1	navigation/STIM_005.jpg	100
192.713	3.14	3139.9	navigation	Trial1	navigation/STIM_005.jpg	99
199.678	2.983	2983.2	navigation	Trial1	navigation/STIM_005.jpg	100
204.935	2.821	2821.4	navigation	Trial1	navigation/STIM_005.jpg	100
210.385	2.946	2946.4	navigation	Trial1	navigation/STIM_005.jpg	99
217.144	1.645	1644.7	navigation	Trial1	navigation/STIM_005.jpg	100
221.271	2.891	2890.6	navigation	Trial1	navigation/STIM_006.jpg	100
227.608	3.735	3735.3	navigation	Trial1	navigation/STIM_006.jpg	100
233.993	3.056	3055.5	navigation	Trial1	navigation/STIM_006.jpg	100
239.672	3.374	3373.8	navigation	Trial1	navigation/STIM_006.jpg	100
245.867	2.396	2395.5	navigation	Trial1	navigation/STIM_006.jpg	100
250.971	1.888	1887.6	navigation	Trial1	navigation/STIM_006.jpg	99
256.704	3.774	3773.7	navigation	Trial1	navigation/STIM_007.jpg	99
263.287	3.882	3882.3	navigation	Trial1	navigation/STIM_007.jpg	100
270.323	3.544	3544.2	navigation	Trial1	navigation/STIM_007.jpg	100
276.729	1.689	1688.8	navigation	Trial1	navigation/STIM_007.jpg	99
281.954	2.734	2734.5	navigation	Trial1	navigation/STIM_007.jpg	99
288.723	3.044	3044.4	navigation	Trial1	navigation/STIM_007.jpg	100
294.755	2.535	2534.6	navigation	Trial1	navigation/STIM_008.jpg	100
300.212	2.606	2605.9	navigation	Trial1	navigation/STIM_008.jpg	99
306.674	3.05	3049.7	navigation	Trial1	navigation/STIM_008.jpg	99
313.054	1.61	1610.3	navigation	Trial1	navigation/STIM_008.jpg	100
318.027	2.795	2795.3	navigation	Trial1	navigation/STIM_008.jpg	99
324.993	1.786	1786.0	navigation	Trial1	navigation/STIM_008.jpg	99
329.083	3.208	3207.7	navigation	Trial1	navigation/STIM_009.jpg	100
335.95	3.008	3008.2	navigation	Trial1	navigation/STIM_009.jpg	99
342.083	1.744	1744.2	navigation	Trial1	navigation/STIM_009.jpg	100
346.028	3.332	3332.3	navigation	Trial1	navigation/STIM_009.jpg	99
353.581	1.84	1840.1	navigation	Trial1	navigation/STIM_009.jpg	100
358.155	2.021	2021.4	navigation	Trial1	navigation/STIM_009.jpg	100
362.645	3.826	3825.7	navigation	Trial1	navigation/STIM_010.jpg	100
368.902	3.199	3199.4	navigation	Trial1	navigation/STIM_010.jpg	99
374.732	1.64	1640.3	navigation	Trial1	navigation/STIM_010.jpg	100
379.18	3.244	3244.5	navigation	Trial1	navigation/STIM_010.jpg	99
385.631	2.419	2419.3	navigation	Trial1	navigation/STIM_010.jpg	99
391.544	1.823	1823.0	navigation	Trial1	navigation/STIM_010.jpg	100
397.24	2.575	2574.6	navigation	Trial1	navigation/STIM_011.jpg	100
402.382	2.001	2001.3	navigation	Trial1	navigation/STIM_011.jpg	99
408.086	2.907	2906.7	navigation	Trial1	navigation/STIM_011.jpg	100
413.822	1.596	1595.5	navigation	Trial1	navigation/STIM_011.jpg	100
418.409	2.357	2356.6	navigation	Trial1	navigation/STIM_011.jpg	100
423.319	2.208	2207.9	navigation	Trial1	navigation/STIM_011.jpg	99
428.983	1.28	1279.6	pointing	Trial1	pointing/STIM_000.jpg	99
433.656	0.777	777.4	pointing	Trial1	pointing/STIM_000.jpg	99
437.667	0.846	846.4	pointing	Trial1	pointing/STIM_000.jpg	100
441.92	0.779	779.2	pointing	Trial1	pointing/STIM_000.jpg	99
445.111	1.251	1250.8	pointing	Trial1	pointing/STIM_000.jpg	100
449.037	0.959	959.3	pointing	Trial1	pointing/STIM_000.jpg	100
452.994	1.194	1193.5	pointing	Trial1	pointing/STIM_001.jpg	100
457.965	1.109	1109.2	pointing	Trial1	pointing/STIM_001.jpg	100
462.736	0.91	909.5	pointing	Trial1	pointing/STIM_001.jpg	99
467.177	1.075	1075.1	pointing	Trial1	pointing/STIM_001.jpg	99
472.057	0.928	927.9	pointing	Trial1	pointing/STIM_001.jpg	100
476.954	1.087	1086.7	pointing	Trial1	pointing/STIM_001.jpg	99
481.747	0.932	932.2	pointing	Trial1	pointing/STIM_002.jpg	100
485.451	1.286	1285.9	pointing	Trial1	pointing/STIM_002.jpg	99
490.842	1.288	1287.6	pointing	Trial1	pointing/STIM_002.jpg	99
496.013	0.812	812.3	pointing	Trial1	pointing/STIM_002.jpg	99
499.976	1.031	1031.1	pointing	Trial1	pointing/STIM_002.jpg	99
503.342	1.172	1172.4	pointing	Trial1	pointing/STIM_002.jpg	100
507.178	0.884	884.5	pointing	Trial1	pointing/STIM_003.jpg	100
512.162	0.845	844.8	pointing	Trial1	pointing/STIM_003.jpg	99
515.917	0.902	902.4	pointing	Trial1	pointing/STIM_003.jpg	99
520.539	1.16	1159.7	pointing	Trial1	pointing/STIM_003.jpg	100
525.185	1.179	1179.3	pointing	Trial1	pointing/STIM_003.jpg	99
529.194	1.326	1326.2	pointing	Trial1	pointing/STIM_003.jpg	100
533.739	1.192	1192.2	pointing	Trial1	pointing/STIM_004.jpg	100
538.316	0.878	877.8	pointing	Trial1	pointing/STIM_004.jpg	99
542.55	0.926	926.5	pointing	Trial1	pointing/STIM_004.jpg	99
547.297	1.049	1049.3	pointing	Trial1	pointing/STIM_004.jpg	99
551.914	1.359	1359.4	pointing	Trial1	pointing/STIM_004.jpg	99
555.385	1.076	1076.2	pointing	Trial1	pointing/STIM_004.jpg	99
559.341	1.08	1080.5	pointing	Trial1	pointing/STIM_005.jpg	99
563.207	0.875	875.3	pointing	Trial1	pointing/STIM_005.jpg	99
567.028	0.943	943.3	pointing	Trial1	pointing/STIM_005.jpg	100
570.519	1.193	1192.9	pointing	Trial1	pointing/STIM_005.jpg	99
575.713	0.962	962.5	pointing	Trial1	pointing/STIM_005.jpg	100
580.68	0.898	898.2	pointing	Trial1	pointing/STIM_005.jpg	99
583.829	0.905	905.3	pointing	Trial1	pointing/STIM_006.jpg	99
587.868	0.687	687.2	pointing	Trial1	pointing/STIM_006.jpg	100
591.263	1.001	1001.2	pointing	Trial1	pointing/STIM_006.jpg	100
594.928	0.953	953.4	pointing	Trial1	pointing/STIM_006.jpg	100
599.869	1.085	1085.3	pointing	Trial1	pointing/STIM_006.jpg	100
604.315	0.91	909.7	pointing	Trial1	pointing/STIM_006.jpg	100
609.117	1.191	1190.9	pointing	Trial1	pointing/STIM_007.jpg	99
614.199	1.336	1336.3	pointing	Trial1	pointing/STIM_007.jpg	99
619.19	0.914	914.2	pointing	Trial1	pointing/STIM_007.jpg	99
623.013	1.307	1307.1	pointing	Trial1	pointing/STIM_007.jpg	99
627.717	1.111	1111.0	pointing	Trial1	pointing/STIM_007.jpg	99
631.746	1.093	1092.8	pointing	Trial1	pointing/STIM_007.jpg	99
635.382	1.351	1350.8	pointing	Trial1	pointing/STIM_008.jpg	99
640.699	0.983	982.6	pointing	Trial1	pointing/STIM_008.jpg	100
644.282	1.384	1384.4	pointing	Trial1	pointing/STIM_008.jpg	99
649.253	1.08	1080.3	pointing	Trial1	pointing/STIM_008.jpg	99
654.408	1.076	1076.4	pointing	Trial1	pointing/STIM_008.jpg	99
658.896	1.09	1090.2	pointing	Trial1	pointing/STIM_008.jpg	99
662.284	1.128	1128.2	pointing	Trial1	pointing/STIM_009.jpg	99
667.384	1.224	1224.3	pointing	Trial1	pointing/STIM_009.jpg	100
670.805	1.241	1241.4	pointing	Trial1	pointing/STIM_009.jpg	99
675.942	1.236	1235.6	pointing	Trial1	pointing/STIM_009.jpg	99
679.396	0.703	702.9	pointing	Trial1	pointing/STIM_009.jpg	100
683.795	1.282	1281.9	pointing	Trial1	pointing/STIM_009.jpg	100
688.547	1.248	1247.9	pointing	Trial1	pointing/STIM_010.jpg	100
693.695	1.158	1157.7	pointing	Trial1	pointing/STIM_010.jpg	100
697.397	1.078	1078.5	pointing	Trial1	pointing/STIM_010.jpg	100
702.233	1.276	1276.3	pointing	Trial1	pointing/STIM_010.jpg	100
706.782	1.184	1183.8	pointing	Trial1	pointing/STIM_010.jpg	99
710.19	0.861	860.7	pointing	Trial1	pointing/STIM_010.jpg	100
714.11	0.991	991.4	pointing	Trial1	pointing/STIM_011.jpg	100
718.337	0.86	860.3	pointing	Trial1	pointing/STIM_011.jpg	99
722.179	0.945	945.2	pointing	Trial1	pointing/STIM_011.jpg	100
725.374	0.849	848.9	pointing	Trial1	pointing/STIM_011.jpg	100
728.458	1.107	1106.8	pointing	Trial1	pointing/STIM_011.jpg	99
732.637	0.93	930.0	pointing	Trial1	pointing/STIM_011.jpg	100
737.094	3.16	3159.6	navigation	Trial2	navigation/STIM_000.jpg	99
744.064	2.575	2575.2	navigation	Trial2	navigation/STIM_000.jpg	100
750.548	1.852	1851.7	navigation	Trial2	navigation/STIM_000.jpg	100
755.33	2.359	2359.1	navigation	Trial2	navigation/STIM_000.jpg	99
761.563	3.178	3178.2	navigation	Trial2	navigation/STIM_000.jpg	99
768.805	2.693	2693.3	navigation	Trial2	navigation/STIM_000.jpg	99
775.731	2.758	2757.8	navigation	Trial2	navigation/STIM_001.jpg	99
781.002	2.147	2147.1	navigation	Trial2	navigation/STIM_001.jpg	100
786.835	2.682	2681.8	navigation	Trial2	navigation/STIM_001.jpg	99
793.459	2.509	2509.0	navigation	Trial2	navigation/STIM_001.jpg	99
800.078	2.013	2013.0	navigation	Trial2	navigation/STIM_001.jpg	100
804.443	2.925	2924.8	navigation	Trial2	navigation/STIM_001.jpg	100
809.745	1.98	1979.5	navigation	Trial2	navigation/STIM_002.jpg	99
814.942	2.875	2875.1	navigation	Trial2	navigation/STIM_002.jpg	100
820.345	1.729	1728.9	navigation	Trial2	navigation/STIM_002.jpg	100
825.453	1.636	1635.9	navigation	Trial2	navigation/STIM_002.jpg	99
830.392	1.373	1372.9	navigation	Trial2	navigation/STIM_002.jpg	99
835.546	1.438	1437.8	navigation	Trial2	navigation/STIM_002.jpg	100
839.749	1.635	1635.4	navigation	Trial2	navigation/STIM_003.jpg	99
843.655	3.553	3553.1	navigation	Trial2	navigation/STIM_003.jpg	100
850.858	1.99	1989.6	navigation	Trial2	navigation/STIM_003.jpg	99
856.805	2.387	2386.8	navigation	Trial2	navigation/STIM_003.jpg	100
863.269	1.632	1632.4	navigation	Trial2	navigation/STIM_003.jpg	99
867.974	1.39	1390.3	navigation	Trial2	navigation/STIM_003.jpg	100
872.01	2.381	2380.7	navigation	Trial2	navigation/STIM_004.jpg	100
877.024	2.413	2413.0	navigation	Trial2	navigation/STIM_004.jpg	100
882.161	2.0	1999.7	navigation	Trial2	navigation/STIM_004.jpg	99
887.57	3.0	2999.7	navigation	Trial2	navigation/STIM_004.jpg	99
892.945	1.409	1408.8	navigation	Trial2	navigation/STIM_004.jpg	99
896.9	1.532	1531.6	navigation	Trial2	navigation/STIM_004.jpg	100
902.161	3.036	3035.8	navigation	Trial2	navigation/STIM_005.jpg	99
908.798	2.683	2682.7	navigation	Trial2	navigation/STIM_005.jpg	99
915.793	2.897	2897.1	navigation	Trial2	navigation/STIM_005.jpg	99
921.737	1.733	1732.8	navigation	Trial2	navigation/STIM_005.jpg	100
927.596	1.465	1464.9	navigation	Trial2	navigation/STIM_005.jpg	99
931.371	1.852	1852.3	navigation	Trial2	navigation/STIM_005.jpg	99
936.517	1.956	1956.5	navigation	Trial2	navigation/STIM_006.jpg	100
942.097	2.781	2781.0	navigation	Trial2	navigation/STIM_006.jpg	99
947.13	1.607	1606.9	navigation	Trial2	navigation/STIM_006.jpg	99
951.263	1.345	1344.8	navigation	Trial2	navigation/STIM_006.jpg	99
956.808	3.066	3065.5	navigation	Trial2	navigation/STIM_006.jpg	100
962.541	2.221	2221.2	navigation	Trial2	navigation/STIM_006.jpg	100
968.793	1.636	1636.2	navigation	Trial2	navigation/STIM_007.jpg	99
974.032	3.355	3355.2	navigation	Trial2	navigation/STIM_007.jpg	99
981.253	2.164	2163.6	navigation	Trial2	navigation/STIM_007.jpg	100
987.409	1.865	1864.7	navigation	Trial2	navigation/STIM_007.jpg	99
992.205	3.096	3095.5	navigation	Trial2	navigation/STIM_007.jpg	100
998.859	2.205	2204.8	navigation	Trial2	navigation/STIM_007.jpg	99
1005.255	2.26	2260.5	navigation	Trial2	navigation/STIM_008.jpg	99
1009.976	2.904	2904.0	navigation	Trial2	navigation/STIM_008.jpg	100
1015.993	1.807	1806.8	navigation	Trial2	navigation/STIM_008.jpg	99
1021.291	2.62	2619.6	navigation	Trial2	navigation/STIM_008.jpg	99
1027.493	2.326	2325.5	navigation	Trial2	navigation/STIM_008.jpg	100
1033.32	1.765	1765.4	navigation	Trial2	navigation/STIM_008.jpg	99
1039.159	2.034	2034.3	navigation	Trial2	navigation/STIM_009.jpg	99
1043.432	1.987	1987.3	navigation	Trial2	navigation/STIM_009.jpg	100
1048.83	3.29	3289.8	navigation	Trial2	navigation/STIM_009.jpg	99
1054.879	1.539	1538.6	navigation	Trial2	navigation/STIM_009.jpg	99
1058.833	2.259	2258.7	navigation	Trial2	navigation/STIM_009.jpg	100
1063.539	1.862	1862.0	navigation	Trial2	navigation/STIM_009.jpg	100
1068.326	2.643	2643.1	navigation	Trial2	navigation/STIM_010.jpg	100
1073.922	1.711	1710.8	navigation	Trial2	navigation/STIM_010.jpg	99
1078.263	1.856	1856.4	navigation	Trial2	navigation/STIM_010.jpg	100
1084.224	1.803	1802.6	navigation	Trial2	navigation/STIM_010.jpg	99
1089.154	1.754	1754.1	navigation	Trial2	navigation/STIM_010.jpg	99
1094.788	2.757	2756.9	navigation	Trial2	navigation/STIM_010.jpg	100
1100.229	3.045	3044.7	navigation	Trial2	navigation/STIM_011.jpg	100
1106.379	2.409	2409.0	navigation	Trial2	navigation/STIM_011.jpg	99
1111.866	1.388	1387.6	navigation	Trial2	navigation/STIM_011.jpg	100
1116.422	1.767	1766.9	navigation	Trial2	navigation/STIM_011.jpg	100
1121.346	2.558	2558.1	navigation	Trial2	navigation/STIM_011.jpg	100
1126.543	1.875	1875.0	navigation	Trial2	navigation/STIM_011.jpg	99
1131.969	1.082	1081.9	pointing	Trial2	pointing/STIM_000.jpg	99
1135.994	1.176	1176.3	pointing	Trial2	pointing/STIM_000.jpg	100
1139.535	0.897	896.8	pointing	Trial2	pointing/STIM_000.jpg	99
1142.945	0.841	840.7	pointing	Trial2	pointing/STIM_000.jpg	100
1147.048	0.758	757.7	pointing	Trial2	pointing/STIM_000.jpg	99
1151.546	1.237	1237.4	pointing	Trial2	pointing/STIM_000.jpg	100
1155.116	0.762	761.7	pointing	Trial2	pointing/STIM_001.jpg	100
1159.296	0.745	744.7	pointing	Trial2	pointing/STIM_001.jpg	100
1163.587	1.194	1193.5	pointing	Trial2	pointing/STIM_001.jpg	99
1167.027	1.18	1179.7	pointing	Trial2	pointing/STIM_001.jpg	99
1172.051	1.214	1214.2	pointing	Trial2	pointing/STIM_001.jpg	99
1176.691	1.17	1170.1	pointing	Trial2	pointing/STIM_001.jpg	99
1181.484	1.319	1319.1	pointing	Trial2	pointing/STIM_002.jpg	100
1186.223	0.992	991.8	pointing	Trial2	pointing/STIM_002.jpg	99
1190.792	1.147	1147.3	pointing	Trial2	pointing/STIM_002.jpg	100
1195.365	0.93	930.3	pointing	Trial2	pointing/STIM_002.jpg	100
1200.183	1.298	1298.4	pointing	Trial2	pointing/STIM_002.jpg	100
1205.454	1.288	1288.4	pointing	Trial2	pointing/STIM_002.jpg	100
1209.734	1.142	1141.8	pointing	Trial2	pointing/STIM_003.jpg	99
1214.617	0.775	774.9	pointing	Trial2	pointing/STIM_003.jpg	100
1218.401	0.962	962.1	pointing	Trial2	pointing/STIM_003.jpg	100
1221.671	1.343	1342.8	pointing	Trial2	pointing/STIM_003.jpg	100
1226.39	0.896	896.1	pointing	Trial2	pointing/STIM_003.jpg	99
1230.136	1.195	1194.7	pointing	Trial2	pointing/STIM_003.jpg	99
1233.762	1.354	1353.9	pointing	Trial2	pointing/STIM_004.jpg	100
1239.106	1.049	1048.8	pointing	Trial2	pointing/STIM_004.jpg	100
1243.115	0.892	891.8	pointing	Trial2	pointing/STIM_004.jpg	100
1248.103	1.094	1094.2	pointing	Trial2	pointing/STIM_004.jpg	99
1251.873	0.859	859.2	pointing	Trial2	pointing/STIM_004.jpg	99
1255.198	1.338	1337.5	pointing	Trial2	pointing/STIM_004.jpg	100
1258.969	1.019	1019.3	pointing	Trial2	pointing/STIM_005.jpg	100
1262.941	0.881	880.9	pointing	Trial2	pointing/STIM_005.jpg	99
1267.019	1.396	1395.9	pointing	Trial2	pointing/STIM_005.jpg	100
1270.529	0.997	996.9	pointing	Trial2	pointing/STIM_005.jpg	100
1273.753	0.909	909.0	pointing	Trial2	pointing/STIM_005.jpg	99
1277.177	1.194	1194.2	pointing	Trial2	pointing/STIM_005.jpg	100
1281.078	0.699	699.0	pointing	Trial2	pointing/STIM_006.jpg	100
1284.684	1.27	1270.4	pointing	Trial2	pointing/STIM_006.jpg	100
1288.949	0.792	791.6	pointing	Trial2	pointing/STIM_006.jpg	99
1291.858	1.321	1321.2	pointing	Trial2	pointing/STIM_006.jpg	100
1295.421	1.017	1016.8	pointing	Trial2	pointing/STIM_006.jpg	100
1300.238	1.209	1208.9	pointing	Trial2	pointing/STIM_006.jpg	100
1303.612	1.023	1023.2	pointing	Trial2	pointing/STIM_007.jpg	100
1308.026	1.333	1333.2	pointing	Trial2	pointing/STIM_007.jpg	99
1311.63	1.343	1342.6	pointing	Trial2	pointing/STIM_007.jpg	99
1316.224	1.019	1019.0	pointing	Trial2	pointing/STIM_007.jpg	100
1319.768	1.226	1226.5	pointing	Trial2	pointing/STIM_007.jpg	99
1324.346	1.182	1181.8	pointing	Trial2	pointing/STIM_007.jpg	99
1327.801	1.198	1198.4	pointing	Trial2	pointing/STIM_008.jpg	99
1331.552	1.304	1304.4	pointing	Trial2	pointing/STIM_008.jpg	100
1336.439	1.238	1238.2	pointing	Trial2	pointing/STIM_008.jpg	100
1341.226	1.321	1320.9	pointing	Trial2	pointing/STIM_008.jpg	99
1345.276	1.076	1075.6	pointing	Trial2	pointing/STIM_008.jpg	99
1348.8	1.089	1089.0	pointing	Trial2	pointing/STIM_008.jpg	99
1353.492	1.034	1033.8	pointing	Trial2	pointing/STIM_009.jpg	100
1357.897	0.896	896.3	pointing	Trial2	pointing/STIM_009.jpg	99
1362.422	0.821	821.2	pointing	Trial2	pointing/STIM_009.jpg	99
1365.69	1.242	1242.0	pointing	Trial2	pointing/STIM_009.jpg	100
1370.197	0.842	842.1	pointing	Trial2	pointing/STIM_009.jpg	100
1374.495	0.872	871.8	pointing	Trial2	pointing/STIM_009.jpg	99
1378.11	1.016	1016.4	pointing	Trial2	pointing/STIM_010.jpg	100
1382.91	0.864	863.9	pointing	Trial2	pointing/STIM_010.jpg	99
1386.427	0.793	793.2	pointing	Trial2	pointing/STIM_010.jpg	99
1390.633	1.08	1080.4	pointing	Trial2	pointing/STIM_010.jpg	100
1395.776	0.951	951.1	pointing	Trial2	pointing/STIM_010.jpg	100
1399.037	0.738	737.8	pointing	Trial2	pointing/STIM_010.jpg	100
1402.126	0.88	879.9	pointing	Trial2	pointing/STIM_011.jpg	100
1406.801	0.813	812.8	pointing	Trial2	pointing/STIM_011.jpg	99
1410.977	1.348	1348.3	pointing	Trial2	pointing/STIM_011.jpg	99
1416.31	0.8	799.6	pointing	Trial2	pointing/STIM_011.jpg	99
1419.45	1.072	1071.9	pointing	Trial2	pointing/STIM_011.jpg	100
1423.194	0.828	827.9	pointing	Trial2	pointing/STIM_011.jpg	100
1426.434	2.469	2468.9	navigation	Trial3	navigation/STIM_000.jpg	99
1432.719	2.581	2580.7	navigation	Trial3	navigation/STIM_000.jpg	100
1437.745	2.945	2944.7	navigation	Trial3	navigation/STIM_000.jpg	99
1444.051	2.799	2798.9	navigation	Trial3	navigation/STIM_000.jpg	100
1449.92	1.429	1429.2	navigation	Trial3	navigation/STIM_000.jpg	99
1453.6	2.944	2943.7	navigation	Trial3	navigation/STIM_000.jpg	100
1459.485	2.716	2715.7	navigation	Trial3	navigation/STIM_001.jpg	99
1465.596	2.872	2872.4	navigation	Trial3	navigation/STIM_001.jpg	100
1472.462	2.288	2288.5	navigation	Trial3	navigation/STIM_001.jpg	100
1477.896	2.148	2148.2	navigation	Trial3	navigation/STIM_001.jpg	99
1483.893	1.39	1390.5	navigation	Trial3	navigation/STIM_001.jpg	100
1488.872	1.536	1535.7	navigation	Trial3	navigation/STIM_001.jpg	99
1493.725	1.52	1519.5	navigation	Trial3	navigation/STIM_002.jpg	100
1498.359	1.482	1482.5	navigation	Trial3	navigation/STIM_002.jpg	99
1502.962	2.698	2698.2	navigation	Trial3	navigation/STIM_002.jpg	99
1508.904	1.345	1345.0	navigation	Trial3	navigation/STIM_002.jpg	100
1512.464	1.397	1397.1	navigation	Trial3	navigation/STIM_002.jpg	100
1517.534	2.441	2441.1	navigation	Trial3	navigation/STIM_002.jpg	100
1522.842	2.465	2464.7	navigation	Trial3	navigation/STIM_003.jpg	99
1527.88	1.386	1385.9	navigation	Trial3	navigation/STIM_003.jpg	100
1532.155	2.961	2961.1	navigation	Trial3	navigation/STIM_003.jpg	100
1539.296	2.812	2812.4	navigation	Trial3	navigation/STIM_003.jpg	99
1545.487	1.481	1480.8	navigation	Trial3	navigation/STIM_003.jpg	99
1550.037	2.604	2604.4	navigation	Trial3	navigation/STIM_003.jpg	99
1555.94	3.026	3026.3	navigation	Trial3	navigation/STIM_004.jpg	100
1561.933	2.082	2082.2	navigation	Trial3	navigation/STIM_004.jpg	99
1567.593	1.923	1923.4	navigation	Trial3	navigation/STIM_004.jpg	99
1572.99	1.377	1376.7	navigation	Trial3	navigation/STIM_004.jpg	100
1576.534	1.497	1497.3	navigation	Trial3	navigation/STIM_004.jpg	100
1581.825	2.647	2646.8	navigation	Trial3	navigation/STIM_004.jpg	100
1587.511	2.415	2414.9	navigation	Trial3	navigation/STIM_005.jpg	99
1593.617	1.604	1604.2	navigation	Trial3	navigation/STIM_005.jpg	100
1597.609	2.185	2185.2	navigation	Trial3	navigation/STIM_005.jpg	99
1602.622	3.179	3179.3	navigation	Trial3	navigation/STIM_005.jpg	100
1609.293	2.182	2182.4	navigation	Trial3	navigation/STIM_005.jpg	99
1615.436	2.835	2835.3	navigation	Trial3	navigation/STIM_005.jpg	100
1621.918	2.279	2278.6	navigation	Trial3	navigation/STIM_006.jpg	99
1627.176	2.12	2120.3	navigation	Trial3	navigation/STIM_006.jpg	100
1631.577	2.942	2941.9	navigation	Trial3	navigation/STIM_006.jpg	99
1637.732	2.634	2634.1	navigation	Trial3	navigation/STIM_006.jpg	100
1642.701	1.5	1499.5	navigation	Trial3	navigation/STIM_006.jpg	99
1646.872	2.69	2689.8	navigation	Trial3	navigation/STIM_006.jpg	99
1652.045	1.916	1915.7	navigation	Trial3	navigation/STIM_007.jpg	99
1656.298	1.8	1799.7	navigation	Trial3	navigation/STIM_007.jpg	99
1662.302	1.743	1742.8	navigation	Trial3	navigation/STIM_007.jpg	100
1667.575	2.07	2069.6	navigation	Trial3	navigation/STIM_007.jpg	99
1673.68	2.095	2095.1	navigation	Trial3	navigation/STIM_007.jpg	99
1678.47	2.805	2805.4	navigation	Trial3	navigation/STIM_007.jpg	99
1684.391	2.086	2085.7	navigation	Trial3	navigation/STIM_008.jpg	100
1689.133	2.056	2056.0	navigation	Trial3	navigation/STIM_008.jpg	99
1694.004	3.239	3239.3	navigation	Trial3	navigation/STIM_008.jpg	100
1700.133	1.93	1930.2	navigation	Trial3	navigation/STIM_008.jpg	100
1706.285	3.085	3085.3	navigation	Trial3	navigation/STIM_008.jpg	99
1712.194	3.002	3001.8	navigation	Trial3	navigation/STIM_008.jpg	99
1719.198	2.648	2647.9	navigation	Trial3	navigation/STIM_009.jpg	100
1725.129	1.32	1319.9	navigation	Trial3	navigation/STIM_009.jpg	100
1728.668	1.333	1333.2	navigation	Trial3	navigation/STIM_009.jpg	100
1732.608	1.617	1617.0	navigation	Trial3	navigation/STIM_009.jpg	99
1737.266	2.337	2336.6	navigation	Trial3	navigation/STIM_009.jpg	99
1743.515	2.014	2013.6	navigation	Trial3	navigation/STIM_009.jpg	99
1747.958	2.847	2847.3	navigation	Trial3	navigation/STIM_010.jpg	99
1754.929	2.712	2711.8	navigation	Trial3	navigation/STIM_010.jpg	99
1760.3	3.058	3057.7	navigation	Trial3	navigation/STIM_010.jpg	99
1766.646	3.09	3090.5	navigation	Trial3	navigation/STIM_010.jpg	100
1772.836	1.28	1279.9	navigation	Trial3	navigation/STIM_010.jpg	99
1776.738	2.531	2530.6	navigation	Trial3	navigation/STIM_010.jpg	99
1782.604	2.263	2263.0	navigation	Trial3	navigation/STIM_011.jpg	100
1787.896	1.775	1774.9	navigation	Trial3	navigation/STIM_011.jpg	99
1792.951	1.364	1363.5	navigation	Trial3	navigation/STIM_011.jpg	100
1796.7	1.458	1457.7	navigation	Trial3	navigation/STIM_011.jpg	99
1800.564	2.088	2088.5	navigation	Trial3	navigation/STIM_011.jpg	99
1806.823	2.685	2685.2	navigation	Trial3	navigation/STIM_011.jpg	100
1812.834	1.214	1213.7	pointing	Trial3	pointing/STIM_000.jpg	99
1817.049	0.84	839.8	pointing	Trial3	pointing/STIM_000.jpg	99
1820.301	1.085	1085.3	pointing	Trial3	pointing/STIM_000.jpg	99
1825.253	0.997	997.0	pointing	Trial3	pointing/STIM_000.jpg	99
1829.565	0.99	990.3	pointing	Trial3	pointing/STIM_000.jpg	100
1834.62	0.927	926.6	pointing	Trial3	pointing/STIM_000.jpg	100
1837.724	1.232	1231.5	pointing	Trial3	pointing/STIM_001.jpg	99
1841.609	1.228	1228.5	pointing	Trial3	pointing/STIM_001.jpg	99
1845.082	1.376	1375.6	pointing	Trial3	pointing/STIM_001.jpg	99
1849.615	0.981	980.8	pointing	Trial3	pointing/STIM_001.jpg	99
1854.478	1.105	1105.0	pointing	Trial3	pointing/STIM_001.jpg	100
1859.016	1.078	1077.6	pointing	Trial3	pointing/STIM_001.jpg	100
1863.293	1.342	1342.4	pointing	Trial3	pointing/STIM_002.jpg	100
1868.688	0.99	989.6	pointing	Trial3	pointing/STIM_002.jpg	100
1872.588	0.995	995.1	pointing	Trial3	pointing/STIM_002.jpg	100
1877.142	1.265	1264.8	pointing	Trial3	pointing/STIM_002.jpg	99
1881.177	1.017	1017.3	pointing	Trial3	pointing/STIM_002.jpg	100
1885.351	1.26	1259.9	pointing	Trial3	pointing/STIM_002.jpg	99
1889.008	1.063	1062.8	pointing	Trial3	pointing/STIM_003.jpg	99
1892.773	1.074	1074.0	pointing	Trial3	pointing/STIM_003.jpg	99
1896.04	0.829	828.9	pointing	Trial3	pointing/STIM_003.jpg	100
1901.023	1.261	1261.4	pointing	Trial3	pointing/STIM_003.jpg	100
1905.18	0.84	839.7	pointing	Trial3	pointing/STIM_003.jpg	99
1909.727	1.191	1191.0	pointing	Trial3	pointing/STIM_003.jpg	99
1913.35	0.949	949.4	pointing	Trial3	pointing/STIM_004.jpg	99
1917.4	1.311	1311.2	pointing	Trial3	pointing/STIM_004.jpg	99
1922.029	1.029	1029.2	pointing	Trial3	pointing/STIM_004.jpg	99
1925.795	1.168	1168.4	pointing	Trial3	pointing/STIM_004.jpg	99
1929.351	0.744	744.4	pointing	Trial3	pointing/STIM_004.jpg	100
1934.157	1.132	1131.9	pointing	Trial3	pointing/STIM_004.jpg	100
1937.891	0.849	849.2	pointing	Trial3	pointing/STIM_005.jpg	99
1942.559	1.332	1331.7	pointing	Trial3	pointing/STIM_005.jpg	100
1947.337	0.968	968.0	pointing	Trial3	pointing/STIM_005.jpg	99
1950.791	1.299	1299.2	pointing	Trial3	pointing/STIM_005.jpg	99
1954.992	0.806	806.0	pointing	Trial3	pointing/STIM_005.jpg	100
1958.47	0.746	746.1	pointing	Trial3	pointing/STIM_005.jpg	100
1961.366	0.924	923.7	pointing	Trial3	pointing/STIM_006.jpg	99
1966.071	0.815	815.0	pointing	Trial3	pointing/STIM_006.jpg	100
1970.016	0.994	993.9	pointing	Trial3	pointing/STIM_006.jpg	100
1973.285	0.898	898.2	pointing	Trial3	pointing/STIM_006.jpg	99
1976.521	0.769	769.4	pointing	Trial3	pointing/STIM_006.jpg	100
1980.154	1.128	1127.8	pointing	Trial3	pointing/STIM_006.jpg	100
1984.409	0.833	833.2	pointing	Trial3	pointing/STIM_007.jpg	99
1988.469	1.114	1113.9	pointing	Trial3	pointing/STIM_007.jpg	99
1992.671	1.288	1287.5	pointing	Trial3	pointing/STIM_007.jpg	99
1996.212	1.26	1259.5	pointing	Trial3	pointing/STIM_007.jpg	99
2000.921	0.93	930.0	pointing	Trial3	pointing/STIM_007.jpg	100
2004.852	0.948	948.3	pointing	Trial3	pointing/STIM_007.jpg	99
2008.65	1.114	1113.8	pointing	Trial3	pointing/STIM_008.jpg	99
2013.423	1.362	1362.2	pointing	Trial3	pointing/STIM_008.jpg	99
2017.993	1.005	1005.0	pointing	Trial3	pointing/STIM_008.jpg	99
2022.411	1.063	1062.8	pointing	Trial3	pointing/STIM_008.jpg	100
2027.486	1.252	1252.4	pointing	Trial3	pointing/STIM_008.jpg	99
2031.024	1.176	1175.6	pointing	Trial3	pointing/STIM_008.jpg	99
2036.274	0.809	808.8	pointing	Trial3	pointing/STIM_009.jpg	100
2040.975	1.061	1060.6	pointing	Trial3	pointing/STIM_009.jpg	100
2045.973	1.264	1264.2	pointing	Trial3	pointing/STIM_009.jpg	99
2049.868	0.791	790.7	pointing	Trial3	pointing/STIM_009.jpg	100
2053.318	1.014	1014.3	pointing	Trial3	pointing/STIM_009.jpg	99
2057.44	0.928	928.1	pointing	Trial3	pointing/STIM_009.jpg	100
2060.97	0.783	783.4	pointing	Trial3	pointing/STIM_010.jpg	100
2065.066	1.229	1229.4	pointing	Trial3	pointing/STIM_010.jpg	100
2068.729	0.995	994.8	pointing	Trial3	pointing/STIM_010.jpg	100
2072.045	1.317	1317.1	pointing	Trial3	pointing/STIM_010.jpg	100
2076.466	0.752	751.8	pointing	Trial3	pointing/STIM_010.jpg	100
2081.144	1.295	1294.8	pointing	Trial3	pointing/STIM_010.jpg	100
2086.523	1.283	1282.8	pointing	Trial3	pointing/STIM_011.jpg	99
2090.127	1.016	1016.4	pointing	Trial3	pointing/STIM_011.jpg	99
2095.18	0.863	863.3	pointing	Trial3	pointing/STIM_011.jpg	100
2098.599	1.32	1319.8	pointing	Trial3	pointing/STIM_011.jpg	100
2103.237	0.94	939.6	pointing	Trial3	pointing/STIM_011.jpg	99
2106.55	0.825	825.2	pointing	Trial3	pointing/STIM_011.jpg	99
