onset	duration	accuracy	trial_type	learning_stage	stimulus
0.0	1.88	correct	regulate	Run1	regulate/STIM_000.jpg
5.05	1.658	correct	regulate	Run1	regulate/STIM_000.jpg
9.592	2.954	correct	regulate	Run1	regulate/STIM_000.jpg
14.928	2.614	correct	regulate	Run1	regulate/STIM_000.jpg
19.961	1.475	correct	regulate	Run1	regulate/STIM_001.jpg
24.464	2.341	correct	regulate	Run1	regulate/STIM_001.jpg
29.479	1.462	correct	regulate	Run1	regulate/STIM_001.jpg
33.513	2.608	incorrect	regulate	Run1	regulate/STIM_001.jpg
38.422	2.1	correct	regulate	Run1	regulate/STIM_002.jpg
43.247	2.801	incorrect	regulate	Run1	regulate/STIM_002.jpg
48.352	2.953	incorrect	regulate	Run1	regulate/STIM_002.jpg
54.382	2.632	correct	regulate	Run1	regulate/STIM_002.jpg
59.897	2.766	correct	regulate	Run1	regulate/STIM_003.jpg
66.29	1.599	correct	regulate	Run1	regulate/STIM_003.jpg
70.447	2.748	incorrect	regulate	Run1	regulate/STIM_003.jpg
75.294	2.17	correct	regulate	Run1	regulate/STIM_003.jpg
80.572	3.268	correct	regulate	Run1	regulate/STIM_004.jpg
87.59	2.415	correct	regulate	Run1	regulate/STIM_004.jpg
93.102	3.074	correct	regulate	Run1	regulate/STIM_004.jpg
98.73	2.598	incorrect	regulate	Run1	regulate/STIM_004.jpg
105.344	2.234	correct	regulate	Run1	regulate/STIM_005.jpg
110.658	2.669	correct	regulate	Run1	regulate/STIM_005.jpg
115.768	2.297	correct	regulate	Run1	regulate/STIM_005.jpg
121.405	2.39	incorrect	regulate	Run1	regulate/STIM_005.jpg
126.807	3.054	correct	regulate	Run1	regulate/STIM_006.jpg
133.042	1.678	correct	regulate	Run1	regulate/STIM_006.jpg
138.383	2.318	correct	regulate	Run1	regulate/STIM_006.jpg
144.559	2.18	correct	regulate	Run1	regulate/STIM_006.jpg
150.482	3.212	correct	regulate	Run1	regulate/STIM_007.jpg
156.166	1.974	incorrect	regulate	Run1	regulate/STIM_007.jpg
160.464	2.278	correct	regulate	Run1	regulate/STIM_007.jpg
166.488	2.134	correct	regulate	Run1	regulate/STIM_007.jpg
172.302	1.879	correct	regulate	Run1	regulate/STIM_008.jpg
176.728	1.927	correct	regulate	Run1	regulate/STIM_008.jpg
181.553	2.735	correct	regulate	Run1	regulate/STIM_008.jpg
187.033	1.706	incorrect	regulate	Run1	regulate/STIM_008.jpg
191.316	3.308	correct	regulate	Run1	regulate/STIM_009.jpg
197.18	2.437	incorrect	regulate	Run1	regulate/STIM_009.jpg
203.242	2.46	incorrect	regulate	Run1	regulate/STIM_009.jpg
208.697	1.753	correct	regulate	Run1	regulate/STIM_009.jpg
213.356	1.666	correct	regulate	Run1	regulate/STIM_010.jpg
218.258	1.564	incorrect	regulate	Run1	regulate/STIM_010.jpg
222.994	2.126	correct	regulate	Run1	regulate/STIM_010.jpg
227.484	1.697	correct	regulate	Run1	regulate/STIM_010.jpg
232.893	3.38	correct	regulate	Run1	regulate/STIM_011.jpg
240.32	2.944	incorrect	regulate	Run1	regulate/STIM_011.jpg
246.571	1.925	correct	regulate	Run1	regulate/STIM_011.jpg
251.308	2.317	correct	regulate	Run1	regulate/STIM_011.jpg
256.331	1.47	correct	regulate	Run1	regulate/STIM_012.jpg
260.459	2.715	incorrect	regulate	Run1	regulate/STIM_012.jpg
265.605	2.388	correct	regulate	Run1	regulate/STIM_012.jpg
270.806	2.481	incorrect	regulate	Run1	regulate/STIM_012.jpg
275.662	3.108	correct	regulate	Run1	regulate/STIM_013.jpg
281.389	2.327	correct	regulate	Run1	regulate/STIM_013.jpg
287.148	1.44	correct	regulate	Run1	regulate/STIM_013.jpg
292.535	1.51	correct	regulate	Run1	regulate/STIM_013.jpg
297.819	3.271	incorrect	regulate	Run1	regulate/STIM_014.jpg
303.449	3.042	correct	regulate	Run1	regulate/STIM_014.jpg
309.655	2.555	incorrect	regulate	Run1	regulate/STIM_014.jpg
314.352	1.645	incorrect	regulate	Run1	regulate/STIM_014.jpg
319.002	1.715	correct	regulate	Run1	regulate/STIM_015.jpg
323.927	2.529	correct	regulate	Run1	regulate/STIM_015.jpg
328.719	1.838	correct	regulate	Run1	regulate/STIM_015.jpg
333.73	1.429	incorrect	regulate	Run1	regulate/STIM_015.jpg
337.679	3.163	correct	regulate	Run1	regulate/STIM_016.jpg
344.878	3.235	correct	regulate	Run1	regulate/STIM_016.jpg
351.345	2.517	correct	regulate	Run1	regulate/STIM_016.jpg
356.557	2.505	incorrect	regulate	Run1	regulate/STIM_016.jpg
362.433	2.237	correct	regulate	Run1	regulate/STIM_017.jpg
368.012	2.173	correct	regulate	Run1	regulate/STIM_017.jpg
372.491	2.432	correct	regulate	Run1	regulate/STIM_017.jpg
378.926	2.237	correct	regulate	Run1	regulate/STIM_017.jpg
384.555	2.977	incorrect	regulate	Run1	regulate/STIM_018.jpg
390.052	1.754	correct	regulate	Run1	regulate/STIM_018.jpg
395.26	1.913	correct	regulate	Run1	regulate/STIM_018.jpg
400.754	2.78	correct	regulate	Run1	regulate/STIM_018.jpg
406.09	2.921	correct	regulate	Run1	regulate/STIM_019.jpg
411.958	3.171	incorrect	regulate	Run1	regulate/STIM_019.jpg
418.561	2.193	correct	regulate	Run1	regulate/STIM_019.jpg
424.128	2.368	correct	regulate	Run1	regulate/STIM_019.jpg
429.675	2.392	incorrect	regulate	Run1	regulate/STIM_020.jpg
434.875	1.818	incorrect	regulate	Run1	regulate/STIM_020.jpg
439.502	2.068	incorrect	regulate	Run1	regulate/STIM_020.jpg
444.877	1.32	correct	regulate	Run1	regulate/STIM_020.jpg
448.59	2.07	correct	regulate	Run1	regulate/STIM_021.jpg
453.923	2.03	correct	regulate	Run1	regulate/STIM_021.jpg
458.284	1.809	correct	regulate	Run1	regulate/STIM_021.jpg
463.386	1.872	correct	regulate	Run1	regulate/STIM_021.jpg
468.451	2.203	correct	regulate	Run1	regulate/STIM_022.jpg
472.876	2.472	correct	regulate	Run1	regulate/STIM_022.jpg
478.76	2.062	correct	regulate	Run1	regulate/STIM_022.jpg
484.3	2.207	correct	regulate	Run1	regulate/STIM_022.jpg
489.084	2.486	correct	regulate	Run1	regulate/STIM_023.jpg
493.923	2.325	correct	regulate	Run1	regulate/STIM_023.jpg
498.807	2.494	correct	regulate	Run1	regulate/STIM_023.jpg
504.766	2.867	correct	regulate	Run1	regulate/STIM_023.jpg
511.06	2.416	correct	regulate	Run1	regulate/STIM_024.jpg
515.897	2.563	correct	regulate	Run1	regulate/STIM_024.jpg
522.503	1.842	correct	regulate	Run1	regulate/STIM_024.jpg
528.334	2.745	correct	regulate	Run1	regulate/STIM_024.jpg
534.242	3.204	correct	regulate	Run1	regulate/STIM_025.jpg
540.757	2.007	correct	regulate	Run1	regulate/STIM_025.jpg
545.005	2.588	correct	regulate	Run1	regulate/STIM_025.jpg
550.416	2.805	correct	regulate	Run1	regulate/STIM_025.jpg
556.479	3.42	correct	regulate	Run1	regulate/STIM_026.jpg
562.301	2.774	correct	regulate	Run1	regulate/STIM_026.jpg
569.058	2.498	correct	regulate	Run1	regulate/STIM_026.jpg
574.047	1.934	correct	regulate	Run1	regulate/STIM_026.jpg
578.908	3.086	correct	regulate	Run1	regulate/STIM_027.jpg
585.287	1.881	correct	regulate	Run1	regulate/STIM_027.jpg
590.556	3.063	correct	regulate	Run1	regulate/STIM_027.jpg
597.054	2.103	correct	regulate	Run1	regulate/STIM_027.jpg
601.953	3.236	correct	regulate	Run1	regulate/STIM_028.jpg
607.424	1.9	correct	regulate	Run1	regulate/STIM_028.jpg
611.833	2.038	correct	regulate	Run1	regulate/STIM_028.jpg
616.272	1.921	correct	regulate	Run1	regulate/STIM_028.jpg
620.695	2.798	incorrect	regulate	Run1	regulate/STIM_029.jpg
626.813	1.59	correct	regulate	Run1	regulate/STIM_029.jpg
630.996	2.28	incorrect	regulate	Run1	regulate/STIM_029.jpg
637.14	2.374	correct	regulate	Run1	regulate/STIM_029.jpg
641.767	1.136	correct	observe	Run1	observe/STIM_000.jpg
645.904	1.312	correct	observe	Run1	observe/STIM_000.jpg
649.501	1.476	correct	observe	Run1	observe/STIM_000.jpg
653.62	1.498	correct	observe	Run1	observe/STIM_000.jpg
657.337	1.381	correct	observe	Run1	observe/STIM_001.jpg
662.646	1.452	correct	observe	Run1	observe/STIM_001.jpg
666.664	1.213	correct	observe	Run1	observe/STIM_001.jpg
670.597	1.337	correct	observe	Run1	observe/STIM_001.jpg
674.23	1.277	correct	observe	Run1	observe/STIM_002.jpg
679.469	1.404	correct	observe	Run1	observe/STIM_002.jpg
683.033	1.297	correct	observe	Run1	observe/STIM_002.jpg
688.222	1.381	correct	observe	Run1	observe/STIM_002.jpg
692.33	0.971	correct	observe	Run1	observe/STIM_003.jpg
696.722	1.145	correct	observe	Run1	observe/STIM_003.jpg
701.009	0.994	correct	observe	Run1	observe/STIM_003.jpg
705.418	1.289	correct	observe	Run1	observe/STIM_003.jpg
708.842	1.213	correct	observe	Run1	observe/STIM_004.jpg
713.547	1.216	correct	observe	Run1	observe/STIM_004.jpg
717.317	0.96	correct	observe	Run1	observe/STIM_004.jpg
721.906	0.936	correct	observe	Run1	observe/STIM_004.jpg
724.913	1.554	correct	observe	Run1	observe/STIM_005.jpg
728.583	0.927	incorrect	observe	Run1	observe/STIM_005.jpg
732.407	1.204	correct	observe	Run1	observe/STIM_005.jpg
736.347	1.136	incorrect	observe	Run1	observe/STIM_005.jpg
740.046	1.506	incorrect	observe	Run1	observe/STIM_006.jpg
744.283	1.486	incorrect	observe	Run1	observe/STIM_006.jpg
749.566	1.114	correct	observe	Run1	observe/STIM_006.jpg
752.977	1.441	correct	observe	Run1	observe/STIM_006.jpg
757.959	1.129	correct	observe	Run1	observe/STIM_007.jpg
762.591	1.062	correct	observe	Run1	observe/STIM_007.jpg
766.643	1.316	incorrect	observe	Run1	observe/STIM_007.jpg
770.831	0.846	incorrect	observe	Run1	observe/STIM_007.jpg
773.792	0.93	correct	observe	Run1	observe/STIM_008.jpg
777.643	1.522	correct	observe	Run1	observe/STIM_008.jpg
783.079	1.166	correct	observe	Run1	observe/STIM_008.jpg
786.518	1.225	correct	observe	Run1	observe/STIM_008.jpg
790.398	0.863	correct	observe	Run1	observe/STIM_009.jpg
794.455	1.27	correct	observe	Run1	observe/STIM_009.jpg
799.368	0.952	correct	observe	Run1	observe/STIM_009.jpg
802.777	1.395	correct	observe	Run1	observe/STIM_009.jpg
807.314	0.991	correct	observe	Run1	observe/STIM_010.jpg
810.483	1.089	correct	observe	Run1	observe/STIM_010.jpg
813.811	1.496	correct	observe	Run1	observe/STIM_010.jpg
817.797	1.027	correct	observe	Run1	observe/STIM_010.jpg
821.135	1.072	correct	observe	Run1	observe/STIM_011.jpg
825.523	1.388	correct	observe	Run1	observe/STIM_011.jpg
829.514	0.809	correct	observe	Run1	observe/STIM_011.jpg
832.399	1.356	correct	observe	Run1	observe/STIM_011.jpg
837.341	1.27	correct	observe	Run1	observe/STIM_012.jpg
842.22	1.236	correct	observe	Run1	observe/STIM_012.jpg
846.373	1.525	correct	observe	Run1	observe/STIM_012.jpg
850.072	1.519	correct	observe	Run1	observe/STIM_012.jpg
854.957	1.144	incorrect	observe	Run1	observe/STIM_013.jpg
859.39	0.816	correct	observe	Run1	observe/STIM_013.jpg
864.006	1.021	correct	observe	Run1	observe/STIM_013.jpg
867.164	0.888	correct	observe	Run1	observe/STIM_013.jpg
871.962	1.448	correct	observe	Run1	observe/STIM_014.jpg
875.813	1.413	correct	observe	Run1	observe/STIM_014.jpg
881.192	1.228	correct	observe	Run1	observe/STIM_014.jpg
885.545	0.919	correct	observe	Run1	observe/STIM_014.jpg
888.941	1.404	correct	observe	Run1	observe/STIM_015.jpg
894.202	0.902	correct	observe	Run1	observe/STIM_015.jpg
897.897	0.783	correct	observe	Run1	observe/STIM_015.jpg
901.203	0.872	correct	observe	Run1	observe/STIM_015.jpg
904.766	1.383	correct	observe	Run1	observe/STIM_016.jpg
908.851	0.891	correct	observe	Run1	observe/STIM_016.jpg
912.931	0.952	correct	observe	Run1	observe/STIM_016.jpg
917.029	1.042	correct	observe	Run1	observe/STIM_016.jpg
920.161	0.866	correct	observe	Run1	observe/STIM_017.jpg
924.673	1.096	incorrect	observe	Run1	observe/STIM_017.jpg
929.521	1.061	correct	observe	Run1	observe/STIM_017.jpg
933.955	0.826	correct	observe	Run1	observe/STIM_017.jpg
937.841	1.49	correct	observe	Run1	observe/STIM_018.jpg
942.843	0.972	correct	observe	Run1	observe/STIM_018.jpg
946.068	0.961	correct	observe	Run1	observe/STIM_018.jpg
949.757	1.286	correct	observe	Run1	observe/STIM_018.jpg
954.869	0.883	incorrect	observe	Run1	observe/STIM_019.jpg
958.412	0.988	correct	observe	Run1	observe/STIM_019.jpg
961.636	0.841	correct	observe	Run1	observe/STIM_019.jpg
965.256	1.037	correct	observe	Run1	observe/STIM_019.jpg
969.645	1.905	correct	regulate	Run2	regulate/STIM_000.jpg
974.377	2.187	correct	regulate	Run2	regulate/STIM_000.jpg
979.086	2.212	correct	regulate	Run2	regulate/STIM_000.jpg
983.897	1.714	correct	regulate	Run2	regulate/STIM_000.jpg
987.816	2.543	incorrect	regulate	Run2	regulate/STIM_001.jpg
993.886	1.733	correct	regulate	Run2	regulate/STIM_001.jpg
999.471	1.493	correct	regulate	Run2	regulate/STIM_001.jpg
1004.283	1.897	incorrect	regulate	Run2	regulate/STIM_001.jpg
1009.854	2.896	correct	regulate	Run2	regulate/STIM_002.jpg
1015.378	1.705	correct	regulate	Run2	regulate/STIM_002.jpg
1019.746	1.776	correct	regulate	Run2	regulate/STIM_002.jpg
1024.739	2.109	correct	regulate	Run2	regulate/STIM_002.jpg
1029.079	2.41	correct	regulate	Run2	regulate/STIM_003.jpg
1035.455	1.201	correct	regulate	Run2	regulate/STIM_003.jpg
1039.047	1.288	correct	regulate	Run2	regulate/STIM_003.jpg
1044.336	1.18	correct	regulate	Run2	regulate/STIM_003.jpg
1049.402	1.495	correct	regulate	Run2	regulate/STIM_004.jpg
1053.039	2.486	correct	regulate	Run2	regulate/STIM_004.jpg
1059.276	1.382	correct	regulate	Run2	regulate/STIM_004.jpg
1064.419	1.669	correct	regulate	Run2	regulate/STIM_004.jpg
1068.854	1.512	correct	regulate	Run2	regulate/STIM_005.jpg
1074.199	2.065	incorrect	regulate	Run2	regulate/STIM_005.jpg
1079.391	1.47	correct	regulate	Run2	regulate/STIM_005.jpg
1083.65	1.852	correct	regulate	Run2	regulate/STIM_005.jpg
1088.006	2.075	correct	regulate	Run2	regulate/STIM_006.jpg
1093.319	1.911	incorrect	regulate	Run2	regulate/STIM_006.jpg
1098.595	1.57	correct	regulate	Run2	regulate/STIM_006.jpg
1103.613	1.137	incorrect	regulate	Run2	regulate/STIM_006.jpg
1106.782	1.399	correct	regulate	Run2	regulate/STIM_007.jpg
1112.06	1.394	correct	regulate	Run2	regulate/STIM_007.jpg
1117.184	1.926	correct	regulate	Run2	regulate/STIM_007.jpg
1121.826	1.515	correct	regulate	Run2	regulate/STIM_007.jpg
1126.515	2.39	correct	regulate	Run2	regulate/STIM_008.jpg
1132.881	2.556	incorrect	regulate	Run2	regulate/STIM_008.jpg
1138.595	1.888	correct	regulate	Run2	regulate/STIM_008.jpg
1144.397	1.935	correct	regulate	Run2	regulate/STIM_008.jpg
1148.375	2.431	correct	regulate	Run2	regulate/STIM_009.jpg
1153.266	1.977	correct	regulate	Run2	regulate/STIM_009.jpg
1158.317	1.337	correct	regulate	Run2	regulate/STIM_009.jpg
1161.859	2.11	correct	regulate	Run2	regulate/STIM_009.jpg
1166.189	2.715	correct	regulate	Run2	regulate/STIM_010.jpg
1171.449	2.384	correct	regulate	Run2	regulate/STIM_010.jpg
1177.415	1.404	correct	regulate	Run2	regulate/STIM_010.jpg
1181.347	1.455	correct	regulate	Run2	regulate/STIM_010.jpg
1185.896	2.744	correct	regulate	Run2	regulate/STIM_011.jpg
1190.804	2.203	correct	regulate	Run2	regulate/STIM_011.jpg
1195.92	2.519	correct	regulate	Run2	regulate/STIM_011.jpg
1200.787	1.15	correct	regulate	Run2	regulate/STIM_011.jpg
1205.549	2.895	incorrect	regulate	Run2	regulate/STIM_012.jpg
1210.991	2.002	correct	regulate	Run2	regulate/STIM_012.jpg
1215.159	2.132	correct	regulate	Run2	regulate/STIM_012.jpg
1219.498	2.281	correct	regulate	Run2	regulate/STIM_012.jpg
1225.801	1.982	correct	regulate	Run2	regulate/STIM_013.jpg
1231.251	2.118	correct	regulate	Run2	regulate/STIM_013.jpg
1237.406	2.406	incorrect	regulate	Run2	regulate/STIM_013.jpg
1242.315	1.154	correct	regulate	Run2	regulate/STIM_013.jpg
1247.036	2.725	incorrect	regulate	Run2	regulate/STIM_014.jpg
1251.981	1.594	correct	regulate	Run2	regulate/STIM_014.jpg
1255.805	1.714	correct	regulate	Run2	regulate/STIM_014.jpg
1261.473	2.014	correct	regulate	Run2	regulate/STIM_014.jpg
1265.532	1.543	correct	regulate	Run2	regulate/STIM_015.jpg
1270.925	1.325	incorrect	regulate	Run2	regulate/STIM_015.jpg
1274.634	2.126	correct	regulate	Run2	regulate/STIM_015.jpg
1279.789	1.492	incorrect	regulate	Run2	regulate/STIM_015.jpg
1284.806	2.112	correct	regulate	Run2	regulate/STIM_016.jpg
1290.495	1.736	correct	regulate	Run2	regulate/STIM_016.jpg
1295.936	1.174	correct	regulate	Run2	regulate/STIM_016.jpg
1300.602	2.014	correct	regulate	Run2	regulate/STIM_016.jpg
1306.281	1.729	incorrect	regulate	Run2	regulate/STIM_017.jpg
1311.436	2.032	incorrect	regulate	Run2	regulate/STIM_017.jpg
1315.767	1.778	correct	regulate	Run2	regulate/STIM_017.jpg
1320.223	1.49	correct	regulate	Run2	regulate/STIM_017.jpg
1325.553	2.54	correct	regulate	Run2	regulate/STIM_018.jpg
1331.853	2.398	correct	regulate	Run2	regulate/STIM_018.jpg
1337.584	1.96	correct	regulate	Run2	regulate/STIM_018.jpg
1343.223	1.037	correct	regulate	Run2	regulate/STIM_018.jpg
1346.754	1.306	correct	regulate	Run2	regulate/STIM_019.jpg
1350.257	2.186	correct	regulate	Run2	regulate/STIM_019.jpg
1354.938	2.257	correct	regulate	Run2	regulate/STIM_019.jpg
1359.359	1.138	correct	regulate	Run2	regulate/STIM_019.jpg
1362.526	1.786	correct	regulate	Run2	regulate/STIM_020.jpg
1366.714	1.88	correct	regulate	Run2	regulate/STIM_020.jpg
1372.569	2.036	correct	regulate	Run2	regulate/STIM_020.jpg
1378.595	2.311	correct	regulate	Run2	regulate/STIM_020.jpg
1384.682	2.173	correct	regulate	Run2	regulate/STIM_021.jpg
1389.068	1.691	correct	regulate	Run2	regulate/STIM_021.jpg
1394.758	2.416	correct	regulate	Run2	regulate/STIM_021.jpg
1399.467	1.265	correct	regulate	Run2	regulate/STIM_021.jpg
1404.642	1.454	correct	regulate	Run2	regulate/STIM_022.jpg
1408.452	1.754	correct	regulate	Run2	regulate/STIM_022.jpg
1412.472	1.336	correct	regulate	Run2	regulate/STIM_022.jpg
1416.249	2.056	correct	regulate	Run2	regulate/STIM_022.jpg
1421.467	1.46	correct	regulate	Run2	regulate/STIM_023.jpg
1426.102	1.78	correct	regulate	Run2	regulate/STIM_023.jpg
1430.764	2.17	correct	regulate	Run2	regulate/STIM_023.jpg
1435.735	1.971	incorrect	regulate	Run2	regulate/STIM_023.jpg
1441.002	1.277	correct	regulate	Run2	regulate/STIM_024.jpg
1445.254	1.871	correct	regulate	Run2	regulate/STIM_024.jpg
1449.355	2.018	correct	regulate	Run2	regulate/STIM_024.jpg
1454.983	1.73	correct	regulate	Run2	regulate/STIM_024.jpg
1459.297	2.379	correct	regulate	Run2	regulate/STIM_025.jpg
1464.677	2.566	correct	regulate	Run2	regulate/STIM_025.jpg
1470.418	1.656	correct	regulate	Run2	regulate/STIM_025.jpg
1474.227	1.242	correct	regulate	Run2	regulate/STIM_025.jpg
1479.288	2.385	incorrect	regulate	Run2	regulate/STIM_026.jpg
1484.732	2.395	correct	regulate	Run2	regulate/STIM_026.jpg
1490.902	2.23	correct	regulate	Run2	regulate/STIM_026.jpg
1495.862	1.997	correct	regulate	Run2	regulate/STIM_026.jpg
1501.322	1.298	correct	regulate	Run2	regulate/STIM_027.jpg
1505.392	1.457	correct	regulate	Run2	regulate/STIM_027.jpg
1509.664	1.341	correct	regulate	Run2	regulate/STIM_027.jpg
1514.235	1.731	correct	regulate	Run2	regulate/STIM_027.jpg
1518.236	1.927	correct	regulate	Run2	regulate/STIM_028.jpg
1522.955	2.691	correct	regulate	Run2	regulate/STIM_028.jpg
1529.693	2.462	correct	regulate	Run2	regulate/STIM_028.jpg
1534.796	1.543	correct	regulate	Run2	regulate/STIM_028.jpg
1539.998	2.335	correct	regulate	Run2	regulate/STIM_029.jpg
1546.141	2.274	correct	regulate	Run2	regulate/STIM_029.jpg
1551.026	1.836	correct	regulate	Run2	regulate/STIM_029.jpg
1555.584	2.175	correct	regulate	Run2	regulate/STIM_029.jpg
1561.27	1.131	correct	observe	Run2	observe/STIM_000.jpg
1566.314	1.048	correct	observe	Run2	observe/STIM_000.jpg
1570.736	0.914	incorrect	observe	Run2	observe/STIM_000.jpg
1574.064	1.168	correct	observe	Run2	observe/STIM_000.jpg
1577.607	0.979	incorrect	observe	Run2	observe/STIM_001.jpg
1581.884	1.462	correct	observe	Run2	observe/STIM_001.jpg
1585.719	0.916	correct	observe	Run2	observe/STIM_001.jpg
1589.376	0.952	correct	observe	Run2	observe/STIM_001.jpg
1593.127	1.066	correct	observe	Run2	observe/STIM_002.jpg
1596.568	1.388	correct	observe	Run2	observe/STIM_002.jpg
1601.674	1.432	correct	observe	Run2	observe/STIM_002.jpg
1605.917	0.993	correct	observe	Run2	observe/STIM_002.jpg
1609.74	1.257	correct	observe	Run2	observe/STIM_003.jpg
1613.125	1.547	correct	observe	Run2	observe/STIM_003.jpg
1618.546	1.422	correct	observe	Run2	observe/STIM_003.jpg
1622.593	1.431	correct	observe	Run2	observe/STIM_003.jpg
1626.927	1.481	correct	observe	Run2	observe/STIM_004.jpg
1631.293	1.498	correct	observe	Run2	observe/STIM_004.jpg
1635.673	1.483	correct	observe	Run2	observe/STIM_004.jpg
1639.468	1.457	correct	observe	Run2	observe/STIM_004.jpg
1644.414	0.948	correct	observe	Run2	observe/STIM_005.jpg
1649.232	1.513	correct	observe	Run2	observe/STIM_005.jpg
1653.001	0.911	incorrect	observe	Run2	observe/STIM_005.jpg
1657.592	1.142	correct	observe	Run2	observe/STIM_005.jpg
1662.628	1.331	incorrect	observe	Run2	observe/STIM_006.jpg
1666.562	1.281	correct	observe	Run2	observe/STIM_006.jpg
1671.351	1.148	correct	observe	Run2	observe/STIM_006.jpg
1676.267	1.34	incorrect	observe	Run2	observe/STIM_006.jpg
1679.769	1.377	correct	observe	Run2	observe/STIM_007.jpg
1684.139	1.152	correct	observe	Run2	observe/STIM_007.jpg
1687.954	1.479	correct	observe	Run2	observe/STIM_007.jpg
1691.934	1.07	correct	observe	Run2	observe/STIM_007.jpg
1695.656	1.506	incorrect	observe	Run2	observe/STIM_008.jpg
1701.001	1.166	correct	observe	Run2	observe/STIM_008.jpg
1704.479	1.51	correct	observe	Run2	observe/STIM_008.jpg
1709.778	1.43	correct	observe	Run2	observe/STIM_008.jpg
1713.241	1.262	correct	observe	Run2	observe/STIM_009.jpg
1718.405	0.821	correct	observe	Run2	observe/STIM_009.jpg
1722.524	0.939	correct	observe	Run2	observe/STIM_009.jpg
1727.276	0.821	incorrect	observe	Run2	observe/STIM_009.jpg
1730.291	1.01	correct	observe	Run2	observe/STIM_010.jpg
1734.767	1.14	correct	observe	Run2	observe/STIM_010.jpg
1739.204	0.925	correct	observe	Run2	observe/STIM_010.jpg
1742.465	0.972	correct	observe	Run2	observe/STIM_010.jpg
1746.586	1.524	correct	observe	Run2	observe/STIM_011.jpg
1752.14	1.06	incorrect	observe	Run2	observe/STIM_011.jpg
1756.625	1.354	correct	observe	Run2	observe/STIM_011.jpg
1760.343	1.448	correct	observe	Run2	observe/STIM_011.jpg
1765.234	1.111	correct	observe	Run2	observe/STIM_012.jpg
1769.178	1.411	incorrect	observe	Run2	observe/STIM_012.jpg
1773.531	1.183	incorrect	observe	Run2	observe/STIM_012.jpg
1776.86	1.089	correct	observe	Run2	observe/STIM_012.jpg
1780.358	1.441	correct	observe	Run2	observe/STIM_013.jpg
1785.278	1.457	incorrect	observe	Run2	observe/STIM_013.jpg
1789.128	1.336	correct	observe	Run2	observe/STIM_013.jpg
1793.187	1.104	correct	observe	Run2	observe/STIM_013.jpg
1797.055	1.424	incorrect	observe	Run2	observe/STIM_014.jpg
1802.049	1.373	correct	observe	Run2	observe/STIM_014.jpg
1806.746	0.988	correct	observe	Run2	observe/STIM_014.jpg
1810.004	1.153	correct	observe	Run2	observe/STIM_014.jpg
1814.607	1.548	correct	observe	Run2	observe/STIM_015.jpg
1819.648	1.032	correct	observe	Run2	observe/STIM_015.jpg
1822.989	1.246	correct	observe	Run2	observe/STIM_015.jpg
1828.195	1.198	correct	observe	Run2	observe/STIM_015.jpg
1831.816	1.225	correct	observe	Run2	observe/STIM_016.jpg
1835.667	0.962	correct	observe	Run2	observe/STIM_016.jpg
1839.127	0.97	correct	observe	Run2	observe/STIM_016.jpg
1843.076	0.82	correct	observe	Run2	observe/STIM_016.jpg
1845.978	1.166	correct	observe	Run2	observe/STIM_017.jpg
1850.585	1.149	correct	observe	Run2	observe/STIM_017.jpg
1854.461	1.382	correct	observe	Run2	observe/STIM_017.jpg
1858.148	1.368	correct	observe	Run2	observe/STIM_017.jpg
1863.381	1.099	correct	observe	Run2	observe/STIM_018.jpg
1867.895	1.404	correct	observe	Run2	observe/STIM_018.jpg
1872.495	1.383	correct	observe	Run2	observe/STIM_018.jpg
1877.874	1.053	correct	observe	Run2	observe/STIM_018.jpg
1882.125	1.465	correct	observe	Run2	observe/STIM_019.jpg
1887.545	1.369	correct	observe	Run2	observe/STIM_019.jpg
1892.551	0.833	correct	observe	Run2	observe/STIM_019.jpg
1896.156	0.999	correct	observe	Run2	observe/STIM_019.jpg
1899.309	1.204	correct	regulate	Run3	regulate/STIM_000.jpg
1903.756	2.034	correct	regulate	Run3	regulate/STIM_000.jpg
1909.497	1.337	correct	regulate	Run3	regulate/STIM_000.jpg
1914.219	1.186	correct	regulate	Run3	regulate/STIM_000.jpg
1918.097	2.236	correct	regulate	Run3	regulate/STIM_001.jpg
1922.408	1.334	incorrect	regulate	Run3	regulate/STIM_001.jpg
1926.078	2.164	correct	regulate	Run3	regulate/STIM_001.jpg
1930.399	1.463	correct	regulate	Run3	regulate/STIM_001.jpg
1935.026	1.116	correct	regulate	Run3	regulate/STIM_002.jpg
1939.538	2.292	correct	regulate	Run3	regulate/STIM_002.jpg
1945.313	2.087	correct	regulate	Run3	regulate/STIM_002.jpg
1951.428	1.041	correct	regulate	Run3	regulate/STIM_002.jpg
1955.015	1.467	correct	regulate	Run3	regulate/STIM_003.jpg
1959.893	1.165	correct	regulate	Run3	regulate/STIM_003.jpg
1964.481	1.681	correct	regulate	Run3	regulate/STIM_003.jpg
1968.449	2.243	correct	regulate	Run3	regulate/STIM_003.jpg
1973.34	1.15	correct	regulate	Run3	regulate/STIM_004.jpg
1976.549	1.038	correct	regulate	Run3	regulate/STIM_004.jpg
1981.222	2.063	correct	regulate	Run3	regulate/STIM_004.jpg
1987.194	1.636	correct	regulate	Run3	regulate/STIM_004.jpg
1991.862	1.595	correct	regulate	Run3	regulate/STIM_005.jpg
1996.856	1.864	correct	regulate	Run3	regulate/STIM_005.jpg
2002.321	1.576	correct	regulate	Run3	regulate/STIM_005.jpg
2007.777	2.324	correct	regulate	Run3	regulate/STIM_005.jpg
2013.23	1.752	correct	regulate	Run3	regulate/STIM_006.jpg
2018.421	1.203	correct	regulate	Run3	regulate/STIM_006.jpg
2021.982	1.674	correct	regulate	Run3	regulate/STIM_006.jpg
2025.702	2.204	correct	regulate	Run3	regulate/STIM_006.jpg
2030.391	1.954	correct	regulate	Run3	regulate/STIM_007.jpg
2034.74	1.188	correct	regulate	Run3	regulate/STIM_007.jpg
2039.285	2.323	correct	regulate	Run3	regulate/STIM_007.jpg
2045.444	1.363	correct	regulate	Run3	regulate/STIM_007.jpg
2049.652	2.342	correct	regulate	Run3	regulate/STIM_008.jpg
2054.276	2.079	correct	regulate	Run3	regulate/STIM_008.jpg
2059.574	1.498	correct	regulate	Run3	regulate/STIM_008.jpg
2063.784	1.09	correct	regulate	Run3	regulate/STIM_008.jpg
2068.383	1.267	correct	regulate	Run3	regulate/STIM_009.jpg
2072.087	1.614	correct	regulate	Run3	regulate/STIM_009.jpg
2076.158	2.027	correct	regulate	Run3	regulate/STIM_009.jpg
2082.001	1.435	correct	regulate	Run3	regulate/STIM_009.jpg
2086.701	1.589	correct	regulate	Run3	regulate/STIM_010.jpg
2091.992	1.201	correct	regulate	Run3	regulate/STIM_010.jpg
2095.338	2.216	correct	regulate	Run3	regulate/STIM_010.jpg
2100.384	2.231	correct	regulate	Run3	regulate/STIM_010.jpg
2104.928	1.726	correct	regulate	Run3	regulate/STIM_011.jpg
2109.115	2.358	correct	regulate	Run3	regulate/STIM_011.jpg
2114.218	1.504	correct	regulate	Run3	regulate/STIM_011.jpg
2119.644	2.035	correct	regulate	Run3	regulate/STIM_011.jpg
2124.019	1.493	correct	regulate	Run3	regulate/STIM_012.jpg
2128.697	1.202	correct	regulate	Run3	regulate/STIM_012.jpg
2132.072	1.966	correct	regulate	Run3	regulate/STIM_012.jpg
2136.526	2.324	correct	regulate	Run3	regulate/STIM_012.jpg
2140.9	1.429	correct	regulate	Run3	regulate/STIM_013.jpg
2145.035	1.602	correct	regulate	Run3	regulate/STIM_013.jpg
2149.22	2.192	correct	regulate	Run3	regulate/STIM_013.jpg
2154.672	1.316	correct	regulate	Run3	regulate/STIM_013.jpg
2158.451	1.497	correct	regulate	Run3	regulate/STIM_014.jpg
2162.15	1.048	incorrect	regulate	Run3	regulate/STIM_014.jpg
2166.48	1.331	incorrect	regulate	Run3	regulate/STIM_014.jpg
2170.293	2.286	correct	regulate	Run3	regulate/STIM_014.jpg
2176.26	1.728	correct	regulate	Run3	regulate/STIM_015.jpg
2181.029	1.327	correct	regulate	Run3	regulate/STIM_015.jpg
2184.852	2.296	correct	regulate	Run3	regulate/STIM_015.jpg
2190.254	1.416	correct	regulate	Run3	regulate/STIM_015.jpg
2194.869	1.123	correct	regulate	Run3	regulate/STIM_016.jpg
2199.389	2.072	correct	regulate	Run3	regulate/STIM_016.jpg
2204.884	2.364	correct	regulate	Run3	regulate/STIM_016.jpg
2209.353	1.485	correct	regulate	Run3	regulate/STIM_016.jpg
2213.132	1.807	correct	regulate	Run3	regulate/STIM_017.jpg
2218.269	1.445	correct	regulate	Run3	regulate/STIM_017.jpg
2223.311	1.467	correct	regulate	Run3	regulate/STIM_017.jpg
2228.743	1.206	correct	regulate	Run3	regulate/STIM_017.jpg
2233.644	1.069	correct	regulate	Run3	regulate/STIM_018.jpg
2237.912	2.312	correct	regulate	Run3	regulate/STIM_018.jpg
2243.976	1.264	correct	regulate	Run3	regulate/STIM_018.jpg
2248.632	1.89	incorrect	regulate	Run3	regulate/STIM_018.jpg
2254.345	1.537	correct	regulate	Run3	regulate/STIM_019.jpg
2258.335	1.096	correct	regulate	Run3	regulate/STIM_019.jpg
2262.126	2.35	correct	regulate	Run3	regulate/STIM_019.jpg
2267.578	1.901	correct	regulate	Run3	regulate/STIM_019.jpg
2273.47	2.396	correct	regulate	Run3	regulate/STIM_020.jpg
2278.129	1.637	correct	regulate	Run3	regulate/STIM_020.jpg
2282.137	2.304	correct	regulate	Run3	regulate/STIM_020.jpg
2287.321	1.112	correct	regulate	Run3	regulate/STIM_020.jpg
2291.934	2.311	correct	regulate	Run3	regulate/STIM_021.jpg
2296.807	1.719	correct	regulate	Run3	regulate/STIM_021.jpg
2301.431	1.992	correct	regulate	Run3	regulate/STIM_021.jpg
2305.866	1.278	correct	regulate	Run3	regulate/STIM_021.jpg
2309.212	1.728	correct	regulate	Run3	regulate/STIM_022.jpg
2313.188	1.507	correct	regulate	Run3	regulate/STIM_022.jpg
2316.886	1.961	correct	regulate	Run3	regulate/STIM_022.jpg
2321.333	2.318	correct	regulate	Run3	regulate/STIM_022.jpg
2325.786	2.332	correct	regulate	Run3	regulate/STIM_023.jpg
2331.625	1.194	correct	regulate	Run3	regulate/STIM_023.jpg
2335.24	1.14	correct	regulate	Run3	regulate/STIM_023.jpg
2339.508	1.65	correct	regulate	Run3	regulate/STIM_023.jpg
2343.62	1.757	correct	regulate	Run3	regulate/STIM_024.jpg
2348.35	2.382	correct	regulate	Run3	regulate/STIM_024.jpg
2354.155	1.986	correct	regulate	Run3	regulate/STIM_024.jpg
2359.984	1.158	correct	regulate	Run3	regulate/STIM_024.jpg
2364.701	1.983	correct	regulate	Run3	regulate/STIM_025.jpg
2369.835	1.487	correct	regulate	Run3	regulate/STIM_025.jpg
2373.767	1.509	correct	regulate	Run3	regulate/STIM_025.jpg
2377.405	1.282	correct	regulate	Run3	regulate/STIM_025.jpg
2381.595	1.074	correct	regulate	Run3	regulate/STIM_026.jpg
2384.91	1.677	correct	regulate	Run3	regulate/STIM_026.jpg
2389.679	1.904	correct	regulate	Run3	regulate/STIM_026.jpg
2394.614	2.374	correct	regulate	Run3	regulate/STIM_026.jpg
2400.493	1.332	correct	regulate	Run3	regulate/STIM_027.jpg
2405.232	1.752	correct	regulate	Run3	regulate/STIM_027.jpg
2410.24	1.855	correct	regulate	Run3	regulate/STIM_027.jpg
2415.637	1.895	correct	regulate	Run3	regulate/STIM_027.jpg
2421.396	1.029	correct	regulate	Run3	regulate/STIM_028.jpg
2425.635	1.451	correct	regulate	Run3	regulate/STIM_028.jpg
2430.133	2.098	incorrect	regulate	Run3	regulate/STIM_028.jpg
2434.95	1.071	correct	regulate	Run3	regulate/STIM_028.jpg
2439.717	1.876	correct	regulate	Run3	regulate/STIM_029.jpg
2443.688	2.077	correct	regulate	Run3	regulate/STIM_029.jpg
2448.092	1.879	correct	regulate	Run3	regulate/STIM_029.jpg
2452.951	1.035	correct	regulate	Run3	regulate/STIM_029.jpg
2456.997	1.116	correct	observe	Run3	observe/STIM_000.jpg
2460.573	1.423	correct	observe	Run3	observe/STIM_000.jpg
2465.184	1.002	correct	observe	Run3	observe/STIM_000.jpg
2469.2	1.481	incorrect	observe	Run3	observe/STIM_000.jpg
2472.827	1.124	incorrect	observe	Run3	observe/STIM_001.jpg
2476.386	1.545	correct	observe	Run3	observe/STIM_001.jpg
2481.748	1.451	correct	observe	Run3	observe/STIM_001.jpg
2487.218	1.074	correct	observe	Run3	observe/STIM_001.jpg
2490.625	1.102	correct	observe	Run3	observe/STIM_002.jpg
2494.895	0.824	correct	observe	Run3	observe/STIM_002.jpg
2497.836	0.789	correct	observe	Run3	observe/STIM_002.jpg
2501.715	0.908	correct	observe	Run3	observe/STIM_002.jpg
2506.487	0.828	correct	observe	Run3	observe/STIM_003.jpg
2510.451	1.485	correct	observe	Run3	observe/STIM_003.jpg
2515.021	1.23	correct	observe	Run3	observe/STIM_003.jpg
2518.362	1.089	incorrect	observe	Run3	observe/STIM_003.jpg
2522.058	1.009	correct	observe	Run3	observe/STIM_004.jpg
2525.814	0.887	correct	observe	Run3	observe/STIM_004.jpg
2529.982	1.165	correct	observe	Run3	observe/STIM_004.jpg
2535.131	1.125	correct	observe	Run3	observe/STIM_004.jpg
2538.353	1.066	correct	observe	Run3	observe/STIM_005.jpg
2543.224	1.474	correct	observe	Run3	observe/STIM_005.jpg
2548.586	1.433	correct	observe	Run3	observe/STIM_005.jpg
2553.88	1.032	correct	observe	Run3	observe/STIM_005.jpg
2558.672	0.961	correct	observe	Run3	observe/STIM_006.jpg
2563.13	1.204	correct	observe	Run3	observe/STIM_006.jpg
2567.663	0.802	correct	observe	Run3	observe/STIM_006.jpg
2570.888	1.461	correct	observe	Run3	observe/STIM_006.jpg
2575.269	1.37	correct	observe	Run3	observe/STIM_007.jpg
2578.695	0.835	correct	observe	Run3	observe/STIM_007.jpg
2583.485	1.417	correct	observe	Run3	observe/STIM_007.jpg
2588.829	1.138	correct	observe	Run3	observe/STIM_007.jpg
2592.382	1.47	correct	observe	Run3	observe/STIM_008.jpg
2596.06	1.127	correct	observe	Run3	observe/STIM_008.jpg
2600.182	0.988	correct	observe	Run3	observe/STIM_008.jpg
2604.999	1.344	incorrect	observe	Run3	observe/STIM_008.jpg
2610.208	0.988	incorrect	observe	Run3	observe/STIM_009.jpg
2613.994	1.092	correct	observe	Run3	observe/STIM_009.jpg
2618.58	1.472	correct	observe	Run3	observe/STIM_009.jpg
2623.135	1.315	correct	observe	Run3	observe/STIM_009.jpg
2627.946	1.136	correct	observe	Run3	observe/STIM_010.jpg
2631.568	1.564	correct	observe	Run3	observe/STIM_010.jpg
2636.855	0.822	correct	observe	Run3	observe/STIM_010.jpg
2640.617	1.178	correct	observe	Run3	observe/STIM_010.jpg
2644.491	1.552	correct	observe	Run3	observe/STIM_011.jpg
2649.554	0.812	correct	observe	Run3	observe/STIM_011.jpg
2653.19	1.153	correct	observe	Run3	observe/STIM_011.jpg
2657.882	0.832	correct	observe	Run3	observe/STIM_011.jpg
2661.319	1.098	correct	observe	Run3	observe/STIM_012.jpg
2666.005	0.868	correct	observe	Run3	observe/STIM_012.jpg
2670.254	1.228	correct	observe	Run3	observe/STIM_012.jpg
2674.785	1.507	correct	observe	Run3	observe/STIM_012.jpg
2678.566	0.79	correct	observe	Run3	observe/STIM_013.jpg
2682.123	0.826	correct	observe	Run3	observe/STIM_013.jpg
2685.882	0.872	correct	observe	Run3	observe/STIM_013.jpg
2690.009	1.511	incorrect	observe	Run3	observe/STIM_013.jpg
2694.893	0.862	correct	observe	Run3	observe/STIM_014.jpg
2698.542	1.132	correct	observe	Run3	observe/STIM_014.jpg
2702.024	1.144	correct	observe	Run3	observe/STIM_014.jpg
2705.313	1.326	correct	observe	Run3	observe/STIM_014.jpg
2709.638	0.993	correct	observe	Run3	observe/STIM_015.jpg
2714.359	0.994	incorrect	observe	Run3	observe/STIM_015.jpg
2719.067	0.796	correct	observe	Run3	observe/STIM_015.jpg
2723.325	0.87	correct	observe	Run3	observe/STIM_015.jpg
2727.107	1.069	correct	observe	Run3	observe/STIM_016.jpg
2731.857	1.53	incorrect	observe	Run3	observe/STIM_016.jpg
2737.317	1.417	correct	observe	Run3	observe/STIM_016.jpg
2741.395	1.429	correct	observe	Run3	observe/STIM_016.jpg
2746.548	1.217	correct	observe	Run3	observe/STIM_017.jpg
2750.305	1.077	correct	observe	Run3	observe/STIM_017.jpg
2753.834	0.932	correct	observe	Run3	observe/STIM_017.jpg
2758.651	0.968	correct	observe	Run3	observe/STIM_017.jpg
2762.714	1.201	correct	observe	Run3	observe/STIM_018.jpg
2767.794	1.27	correct	observe	Run3	observe/STIM_018.jpg
2772.037	1.247	correct	observe	Run3	observe/STIM_018.jpg
2776.394	1.307	correct	observe	Run3	observe/STIM_018.jpg
2779.765	1.391	correct	observe	Run3	observe/STIM_019.jpg
2784.065	1.384	incorrect	observe	Run3	observe/STIM_019.jpg
2789.037	1.547	correct	observe	Run3	observe/STIM_019.jpg
2792.874	1.016	correct	observe	Run3	observe/STIM_019.jpg
