onset	duration	response_time_ms	trial_type	learning_stage	stimulus	response_port
0.0	3.549	3549.2	regulate	Run1	regulate/STIM_000.jpg	99
6.713	1.694	1694.3	regulate	Run1	regulate/STIM_000.jpg	99
12.297	1.991	1990.8	regulate	Run1	regulate/STIM_000.jpg	100
16.425	1.729	1728.6	regulate	Run1	regulate/STIM_000.jpg	100
21.163	2.788	2787.7	regulate	Run1	regulate/STIM_001.jpg	99
27.405	3.1	3100.5	regulate	Run1	regulate/STIM_001.jpg	100
34.201	2.131	2131.4	regulate	Run1	regulate/STIM_001.jpg	100
39.305	1.621	1621.1	regulate	Run1	regulate/STIM_001.jpg	100
43.825	2.954	2953.7	regulate	Run1	regulate/STIM_002.jpg	99
49.904	3.636	3636.1	regulate	Run1	regulate/STIM_002.jpg	99
55.569	2.111	2110.6	regulate	Run1	regulate/STIM_002.jpg	100
60.302	3.075	3075.1	regulate	Run1	regulate/STIM_002.jpg	99
66.591	1.698	1697.5	regulate	Run1	regulate/STIM_003.jpg	100
71.319	2.548	2547.6	regulate	Run1	regulate/STIM_003.jpg	100
75.905	1.812	1811.7	regulate	Run1	regulate/STIM_003.jpg	99
81.068	2.492	2492.3	regulate	Run1	regulate/STIM_003.jpg	99
87.231	2.34	2340.3	regulate	Run1	regulate/STIM_004.jpg	99
91.94	2.336	2336.5	regulate	Run1	regulate/STIM_004.jpg	99
96.562	3.469	3469.4	regulate	Run1	regulate/STIM_004.jpg	100
102.197	2.43	2429.8	regulate	Run1	regulate/STIM_004.jpg	100
107.052	3.793	3793.0	regulate	Run1	regulate/STIM_005.jpg	100
114.056	3.26	3260.4	regulate	Run1	regulate/STIM_005.jpg	100
120.985	2.477	2477.4	regulate	Run1	regulate/STIM_005.jpg	99
126.549	3.03	3030.0	regulate	Run1	regulate/STIM_005.jpg	100
132.822	2.869	2869.1	regulate	Run1	regulate/STIM_006.jpg	100
139.624	2.485	2484.8	regulate	Run1	regulate/STIM_006.jpg	99
145.812	3.004	3004.3	regulate	Run1	regulate/STIM_006.jpg	100
151.681	1.614	1613.5	regulate	Run1	regulate/STIM_006.jpg	99
157.204	3.051	3051.1	regulate	Run1	regulate/STIM_007.jpg	99
163.225	1.713	1713.1	regulate	Run1	regulate/STIM_007.jpg	100
167.47	2.828	2827.8	regulate	Run1	regulate/STIM_007.jpg	99
172.601	3.303	3303.1	regulate	Run1	regulate/STIM_007.jpg	100
179.144	3.258	3257.9	regulate	Run1	regulate/STIM_008.jpg	100
184.442	2.628	2627.6	regulate	Run1	regulate/STIM_008.jpg	99
190.813	3.03	3029.5	regulate	Run1	regulate/STIM_008.jpg	100
196.391	2.73	2729.7	regulate	Run1	regulate/STIM_008.jpg	100
202.209	3.32	3319.5	regulate	Run1	regulate/STIM_009.jpg	99
209.113	1.864	1864.4	regulate	Run1	regulate/STIM_009.jpg	99
213.793	2.221	2221.3	regulate	Run1	regulate/STIM_009.jpg	99
219.974	1.457	1456.8	regulate	Run1	regulate/STIM_009.jpg	99
225.208	2.035	2034.6	regulate	Run1	regulate/STIM_010.jpg	99
230.935	2.409	2408.7	regulate	Run1	regulate/STIM_010.jpg	100
237.324	3.492	3491.6	regulate	Run1	regulate/STIM_010.jpg	100
243.45	3.053	3052.6	regulate	Run1	regulate/STIM_010.jpg	100
250.146	3.039	3038.6	regulate	Run1	regulate/STIM_011.jpg	99
257.129	2.28	2280.2	regulate	Run1	regulate/STIM_011.jpg	100
261.801	3.194	3194.2	regulate	Run1	regulate/STIM_011.jpg	99
268.47	2.308	2308.2	regulate	Run1	regulate/STIM_011.jpg	100
272.959	1.713	1713.0	regulate	Run1	regulate/STIM_012.jpg	99
278.344	2.912	2912.0	regulate	Run1	regulate/STIM_012.jpg	99
284.381	2.088	2088.0	regulate	Run1	regulate/STIM_012.jpg	100
289.479	2.018	2018.5	regulate	Run1	regulate/STIM_012.jpg	100
294.232	3.731	3731.1	regulate	Run1	regulate/STIM_013.jpg	99
300.192	3.009	3008.9	regulate	Run1	regulate/STIM_013.jpg	100
307.127	2.716	2716.0	regulate	Run1	regulate/STIM_013.jpg	100
312.084	3.26	3260.1	regulate	Run1	regulate/STIM_013.jpg	99
318.628	3.646	3646.5	regulate	Run1	regulate/STIM_014.jpg	99
325.204	2.872	2872.2	regulate	Run1	regulate/STIM_014.jpg	99
330.153	1.869	1868.9	regulate	Run1	regulate/STIM_014.jpg	100
334.252	1.988	1987.7	regulate	Run1	regulate/STIM_014.jpg	99
340.116	3.622	3621.9	regulate	Run1	regulate/STIM_015.jpg	100
347.172	3.395	3394.7	regulate	Run1	regulate/STIM_015.jpg	99
353.508	2.807	2807.2	regulate	Run1	regulate/STIM_015.jpg	99
359.758	2.746	2746.2	regulate	Run1	regulate/STIM_015.jpg	100
365.884	2.262	2262.1	regulate	Run1	regulate/STIM_016.jpg	99
371.777	1.882	1881.7	regulate	Run1	regulate/STIM_016.jpg	99
377.019	2.742	2741.6	regulate	Run1	regulate/STIM_016.jpg	99
382.413	2.025	2025.2	regulate	Run1	regulate/STIM_016.jpg	99
387.9	1.675	1674.6	regulate	Run1	regulate/STIM_017.jpg	100
393.36	3.667	3667.1	regulate	Run1	regulate/STIM_017.jpg	100
399.833	1.705	1704.7	regulate	Run1	regulate/STIM_017.jpg	100
403.912	1.558	1557.9	regulate	Run1	regulate/STIM_017.jpg	100
409.399	3.417	3417.2	regulate	Run1	regulate/STIM_018.jpg	99
415.091	3.495	3495.3	regulate	Run1	regulate/STIM_018.jpg	100
421.306	3.045	3044.6	regulate	Run1	regulate/STIM_018.jpg	100
428.104	2.744	2743.8	regulate	Run1	regulate/STIM_018.jpg	100
432.883	2.457	2457.1	regulate	Run1	regulate/STIM_019.jpg	100
438.8	3.379	3378.8	regulate	Run1	regulate/STIM_019.jpg	99
445.272	3.412	3411.7	regulate	Run1	regulate/STIM_019.jpg	99
451.38	2.183	2183.2	regulate	Run1	regulate/STIM_019.jpg	100
456.47	2.566	2566.3	regulate	Run1	regulate/STIM_020.jpg	99
461.719	2.297	2296.8	regulate	Run1	regulate/STIM_020.jpg	100
467.955	3.106	3106.4	regulate	Run1	regulate/STIM_020.jpg	100
474.565	1.942	1942.5	regulate	Run1	regulate/STIM_020.jpg	99
480.304	2.66	2659.5	regulate	Run1	regulate/STIM_021.jpg	100
485.227	2.629	2629.3	regulate	Run1	regulate/STIM_021.jpg	100
491.002	2.861	2861.3	regulate	Run1	regulate/STIM_021.jpg	99
496.447	2.888	2888.0	regulate	Run1	regulate/STIM_021.jpg	99
503.075	3.803	3803.4	regulate	Run1	regulate/STIM_022.jpg	100
508.934	2.848	2847.7	regulate	Run1	regulate/STIM_022.jpg	100
515.509	3.316	3315.8	regulate	Run1	regulate/STIM_022.jpg	100
522.373	3.252	3252.5	regulate	Run1	regulate/STIM_022.jpg	100
528.866	2.202	2201.5	regulate	Run1	regulate/STIM_023.jpg	100
533.951	3.542	3541.6	regulate	Run1	regulate/STIM_023.jpg	100
540.569	3.498	3498.5	regulate	Run1	regulate/STIM_023.jpg	100
546.769	3.108	3108.2	regulate	Run1	regulate/STIM_023.jpg	99
552.325	2.428	2427.9	regulate	Run1	regulate/STIM_024.jpg	100
558.493	3.346	3345.6	regulate	Run1	regulate/STIM_024.jpg	99
565.753	2.609	2609.4	regulate	Run1	regulate/STIM_024.jpg	99
571.826	1.762	1761.9	regulate	Run1	regulate/STIM_024.jpg	99
575.868	1.99	1990.0	regulate	Run1	regulate/STIM_025.jpg	100
581.457	3.609	3609.4	regulate	Run1	regulate/STIM_025.jpg	99
588.855	2.298	2297.7	regulate	Run1	regulate/STIM_025.jpg	100
594.401	3.022	3022.4	regulate	Run1	regulate/STIM_025.jpg	100
600.879	2.807	2807.4	regulate	Run1	regulate/STIM_026.jpg	100
606.831	2.574	2574.4	regulate	Run1	regulate/STIM_026.jpg	99
613.33	1.587	1587.0	regulate	Run1	regulate/STIM_026.jpg	100
617.003	2.451	2451.1	regulate	Run1	regulate/STIM_026.jpg	99
621.457	2.934	2934.3	regulate	Run1	regulate/STIM_027.jpg	99
626.796	3.53	3529.9	regulate	Run1	regulate/STIM_027.jpg	99
634.062	2.333	2333.0	regulate	Run1	regulate/STIM_027.jpg	100
639.129	1.565	1565.1	regulate	Run1	regulate/STIM_027.jpg	100
643.378	3.156	3155.6	regulate	Run1	regulate/STIM_028.jpg	100
649.03	2.221	2220.6	regulate	Run1	regulate/STIM_028.jpg	99
654.046	1.535	1535.0	regulate	Run1	regulate/STIM_028.jpg	100
659.247	1.455	1454.6	regulate	Run1	regulate/STIM_028.jpg	100
664.55	1.833	1833.0	regulate	Run1	regulate/STIM_029.jpg	100
669.656	3.591	3590.7	regulate	Run1	regulate/STIM_029.jpg	99
676.281	2.702	2701.7	regulate	Run1	regulate/STIM_029.jpg	100
681.677	1.636	1636.3	regulate	Run1	regulate/STIM_029.jpg	100
686.59	1.45	1449.7	observe	Run1	observe/STIM_000.jpg	99
690.595	0.892	892.1	observe	Run1	observe/STIM_000.jpg	99
693.947	1.176	1175.6	observe	Run1	observe/STIM_000.jpg	99
698.462	1.671	1671.2	observe	Run1	observe/STIM_000.jpg	99
702.868	1.248	1247.7	observe	Run1	observe/STIM_001.jpg	99
706.572	0.936	936.0	observe	Run1	observe/STIM_001.jpg	99
710.502	1.333	1332.7	observe	Run1	observe/STIM_001.jpg	100
714.073	1.036	1035.7	observe	Run1	observe/STIM_001.jpg	99
718.054	1.577	1577.4	observe	Run1	observe/STIM_002.jpg	100
723.51	1.454	1454.2	observe	Run1	observe/STIM_002.jpg	100
727.104	1.226	1225.9	observe	Run1	observe/STIM_002.jpg	99
731.072	1.339	1339.1	observe	Run1	observe/STIM_002.jpg	99
735.491	1.382	1381.7	observe	Run1	observe/STIM_003.jpg	100
740.846	1.092	1092.3	observe	Run1	observe/STIM_003.jpg	100
745.867	1.181	1180.9	observe	Run1	observe/STIM_003.jpg	100
751.01	1.123	1122.7	observe	Run1	observe/STIM_003.jpg	99
755.674	1.35	1349.7	observe	Run1	observe/STIM_004.jpg	100
760.576	1.641	1640.9	observe	Run1	observe/STIM_004.jpg	99
765.614	1.272	1271.9	observe	Run1	observe/STIM_004.jpg	99
769.764	1.313	1312.9	observe	Run1	observe/STIM_004.jpg	100
774.283	1.031	1030.9	observe	Run1	observe/STIM_005.jpg	99
777.96	1.462	1461.9	observe	Run1	observe/STIM_005.jpg	100
781.519	1.334	1333.6	observe	Run1	observe/STIM_005.jpg	99
785.74	1.597	1597.4	observe	Run1	observe/STIM_005.jpg	99
790.104	1.32	1320.5	observe	Run1	observe/STIM_006.jpg	100
794.464	1.066	1066.3	observe	Run1	observe/STIM_006.jpg	100
798.284	1.363	1362.7	observe	Run1	observe/STIM_006.jpg	100
802.494	1.072	1071.8	observe	Run1	observe/STIM_006.jpg	99
806.271	1.254	1254.1	observe	Run1	observe/STIM_007.jpg	100
811.124	1.218	1217.5	observe	Run1	observe/STIM_007.jpg	99
814.475	1.538	1538.5	observe	Run1	observe/STIM_007.jpg	100
818.811	1.203	1203.1	observe	Run1	observe/STIM_007.jpg	100
823.938	1.077	1077.1	observe	Run1	observe/STIM_008.jpg	100
828.465	1.309	1309.2	observe	Run1	observe/STIM_008.jpg	99
832.694	1.254	1254.3	observe	Run1	observe/STIM_008.jpg	100
837.134	1.353	1352.6	observe	Run1	observe/STIM_008.jpg	100
840.918	0.904	903.8	observe	Run1	observe/STIM_009.jpg	99
844.219	1.507	1506.9	observe	Run1	observe/STIM_009.jpg	100
848.548	1.253	1252.6	observe	Run1	observe/STIM_009.jpg	100
851.952	1.371	1371.2	observe	Run1	observe/STIM_009.jpg	100
856.225	0.932	932.3	observe	Run1	observe/STIM_010.jpg	99
859.307	1.166	1165.5	observe	Run1	observe/STIM_010.jpg	99
864.371	1.183	1183.3	observe	Run1	observe/STIM_010.jpg	99
867.725	1.72	1719.9	observe	Run1	observe/STIM_010.jpg	100
873.174	1.645	1644.8	observe	Run1	observe/STIM_011.jpg	99
877.66	1.573	1572.7	observe	Run1	observe/STIM_011.jpg	99
881.298	1.1	1100.5	observe	Run1	observe/STIM_011.jpg	99
884.424	1.629	1628.6	observe	Run1	observe/STIM_011.jpg	99
889.897	0.945	944.9	observe	Run1	observe/STIM_012.jpg	100
894.543	1.587	1587.1	observe	Run1	observe/STIM_012.jpg	99
898.195	0.947	946.7	observe	Run1	observe/STIM_012.jpg	99
902.361	1.326	1325.7	observe	Run1	observe/STIM_012.jpg	99
905.832	0.967	967.2	observe	Run1	observe/STIM_013.jpg	99
909.482	1.438	1438.2	observe	Run1	observe/STIM_013.jpg	100
913.058	1.23	1229.9	observe	Run1	observe/STIM_013.jpg	99
917.836	1.752	1752.5	observe	Run1	observe/STIM_013.jpg	100
922.605	1.192	1192.5	observe	Run1	observe/STIM_014.jpg	99
925.819	1.564	1564.1	observe	Run1	observe/STIM_014.jpg	100
930.575	1.538	1537.7	observe	Run1	observe/STIM_014.jpg	100
935.793	1.328	1327.5	observe	Run1	observe/STIM_014.jpg	100
939.556	1.706	1706.3	observe	Run1	observe/STIM_015.jpg	100
944.413	1.117	1117.3	observe	Run1	observe/STIM_015.jpg	100
948.496	1.744	1744.3	observe	Run1	observe/STIM_015.jpg	99
953.871	1.481	1481.4	observe	Run1	observe/STIM_015.jpg	99
959.318	1.352	1351.6	observe	Run1	observe/STIM_016.jpg	99
963.465	1.412	1412.2	observe	Run1	observe/STIM_016.jpg	100
967.581	1.15	1150.3	observe	Run1	observe/STIM_016.jpg	99
971.175	1.354	1354.2	observe	Run1	observe/STIM_016.jpg	99
976.021	1.389	1389.1	observe	Run1	observe/STIM_017.jpg	100
980.134	1.039	1038.9	observe	Run1	observe/STIM_017.jpg	100
984.85	1.595	1595.3	observe	Run1	observe/STIM_017.jpg	100
990.001	1.044	1043.5	observe	Run1	observe/STIM_017.jpg	100
994.306	1.145	1144.6	observe	Run1	observe/STIM_018.jpg	100
998.477	1.588	1588.5	observe	Run1	observe/STIM_018.jpg	100
1002.818	1.058	1057.8	observe	Run1	observe/STIM_018.jpg	99
1006.913	1.705	1705.0	observe	Run1	observe/STIM_018.jpg	99
1010.845	1.668	1667.9	observe	Run1	observe/STIM_019.jpg	100
1015.327	1.101	1100.8	observe	Run1	observe/STIM_019.jpg	99
1019.948	1.201	1201.0	observe	Run1	observe/STIM_019.jpg	99
1023.473	0.91	909.9	observe	Run1	observe/STIM_019.jpg	99
1027.777	2.735	2734.7	regulate	Run2	regulate/STIM_000.jpg	100
1033.54	2.1	2099.6	regulate	Run2	regulate/STIM_000.jpg	100
1039.116	1.407	1407.3	regulate	Run2	regulate/STIM_000.jpg	99
1043.625	2.218	2218.2	regulate	Run2	regulate/STIM_000.jpg	99
1049.624	2.847	2847.3	regulate	Run2	regulate/STIM_001.jpg	100
1054.811	2.385	2385.3	regulate	Run2	regulate/STIM_001.jpg	100
1060.892	2.016	2016.3	regulate	Run2	regulate/STIM_001.jpg	100
1065.023	1.878	1877.6	regulate	Run2	regulate/STIM_001.jpg	100
1069.672	1.844	1843.8	regulate	Run2	regulate/STIM_002.jpg	100
1073.524	2.554	2553.7	regulate	Run2	regulate/STIM_002.jpg	100
1079.265	2.04	2040.3	regulate	Run2	regulate/STIM_002.jpg	100
1084.586	2.605	2605.4	regulate	Run2	regulate/STIM_002.jpg	99
1090.081	2.228	2227.7	regulate	Run2	regulate/STIM_003.jpg	100
1095.879	1.538	1538.5	regulate	Run2	regulate/STIM_003.jpg	99
1100.822	2.394	2393.8	regulate	Run2	regulate/STIM_003.jpg	100
1106.324	1.885	1885.3	regulate	Run2	regulate/STIM_003.jpg	99
1112.193	2.465	2464.8	regulate	Run2	regulate/STIM_004.jpg	99
1117.929	1.844	1844.1	regulate	Run2	regulate/STIM_004.jpg	99
1121.895	1.281	1281.4	regulate	Run2	regulate/STIM_004.jpg	99
1126.014	2.353	2353.1	regulate	Run2	regulate/STIM_004.jpg	99
1131.636	1.898	1897.9	regulate	Run2	regulate/STIM_005.jpg	99
1136.028	2.15	2150.4	regulate	Run2	regulate/STIM_005.jpg	99
1141.233	2.773	2772.6	regulate	Run2	regulate/STIM_005.jpg	99
1146.341	2.615	2615.1	regulate	Run2	regulate/STIM_005.jpg	100
1152.01	1.452	1452.3	regulate	Run2	regulate/STIM_006.jpg	99
1156.864	1.698	1698.5	regulate	Run2	regulate/STIM_006.jpg	99
1161.883	2.657	2657.0	regulate	Run2	regulate/STIM_006.jpg	99
1166.576	1.493	1492.7	regulate	Run2	regulate/STIM_006.jpg	100
1170.264	3.044	3043.7	regulate	Run2	regulate/STIM_007.jpg	99
1176.406	1.664	1664.1	regulate	Run2	regulate/STIM_007.jpg	99
1180.305	1.456	1456.2	regulate	Run2	regulate/STIM_007.jpg	99
1184.667	1.405	1404.6	regulate	Run2	regulate/STIM_007.jpg	100
1189.469	2.607	2606.8	regulate	Run2	regulate/STIM_008.jpg	99
1194.575	1.714	1714.4	regulate	Run2	regulate/STIM_008.jpg	99
1198.331	1.718	1718.0	regulate	Run2	regulate/STIM_008.jpg	99
1203.763	1.912	1912.0	regulate	Run2	regulate/STIM_008.jpg	100
1209.53	1.75	1750.2	regulate	Run2	regulate/STIM_009.jpg	100
1215.028	1.77	1770.0	regulate	Run2	regulate/STIM_009.jpg	100
1220.259	2.332	2332.2	regulate	Run2	regulate/STIM_009.jpg	99
1224.627	2.063	2063.3	regulate	Run2	regulate/STIM_009.jpg	100
1230.636	2.114	2113.5	regulate	Run2	regulate/STIM_010.jpg	99
1235.215	1.797	1797.0	regulate	Run2	regulate/STIM_010.jpg	99
1240.147	1.924	1924.0	regulate	Run2	regulate/STIM_010.jpg	99
1244.495	2.601	2600.9	regulate	Run2	regulate/STIM_010.jpg	100
1250.918	2.858	2858.5	regulate	Run2	regulate/STIM_011.jpg	100
1257.205	2.549	2549.0	regulate	Run2	regulate/STIM_011.jpg	100
1262.676	2.249	2248.8	regulate	Run2	regulate/STIM_011.jpg	99
1267.749	1.563	1563.4	regulate	Run2	regulate/STIM_011.jpg	99
1273.154	2.991	2991.2	regulate	Run2	regulate/STIM_012.jpg	99
1279.704	2.928	2927.5	regulate	Run2	regulate/STIM_012.jpg	99
1284.684	2.21	2209.5	regulate	Run2	regulate/STIM_012.jpg	100
1289.081	2.072	2072.0	regulate	Run2	regulate/STIM_012.jpg	100
1293.517	1.555	1554.7	regulate	Run2	regulate/STIM_013.jpg	99
1298.935	2.664	2663.8	regulate	Run2	regulate/STIM_013.jpg	100
1304.364	2.452	2452.3	regulate	Run2	regulate/STIM_013.jpg	100
1310.561	1.272	1271.5	regulate	Run2	regulate/STIM_013.jpg	100
1315.214	1.762	1761.9	regulate	Run2	regulate/STIM_014.jpg	100
1320.63	1.682	1682.5	regulate	Run2	regulate/STIM_014.jpg	99
1325.914	2.489	2488.9	regulate	Run2	regulate/STIM_014.jpg	99
1331.514	1.688	1687.6	regulate	Run2	regulate/STIM_014.jpg	100
1336.765	2.163	2162.9	regulate	Run2	regulate/STIM_015.jpg	99
1341.728	2.451	2451.3	regulate	Run2	regulate/STIM_015.jpg	100
1346.697	2.531	2530.7	regulate	Run2	regulate/STIM_015.jpg	100
1352.585	1.962	1962.2	regulate	Run2	regulate/STIM_015.jpg	99
1357.516	2.879	2878.7	regulate	Run2	regulate/STIM_016.jpg	99
1363.449	2.636	2636.0	regulate	Run2	regulate/STIM_016.jpg	100
1369.233	2.309	2308.7	regulate	Run2	regulate/STIM_016.jpg	99
1374.78	1.498	1497.7	regulate	Run2	regulate/STIM_016.jpg	99
1378.938	2.29	2290.0	regulate	Run2	regulate/STIM_017.jpg	99
1383.398	2.097	2097.0	regulate	Run2	regulate/STIM_017.jpg	99
1388.99	1.382	1382.1	regulate	Run2	regulate/STIM_017.jpg	100
1394.316	1.5	1500.5	regulate	Run2	regulate/STIM_017.jpg	99
1398.791	1.438	1437.8	regulate	Run2	regulate/STIM_018.jpg	100
1402.51	1.974	1974.5	regulate	Run2	regulate/STIM_018.jpg	99
1407.976	1.302	1302.4	regulate	Run2	regulate/STIM_018.jpg	100
1412.318	2.676	2675.9	regulate	Run2	regulate/STIM_018.jpg	100
1417.997	2.153	2153.2	regulate	Run2	regulate/STIM_019.jpg	100
1423.605	2.424	2423.7	regulate	Run2	regulate/STIM_019.jpg	99
1429.675	2.724	2724.1	regulate	Run2	regulate/STIM_019.jpg	99
1435.182	2.439	2438.8	regulate	Run2	regulate/STIM_019.jpg	100
1440.53	2.32	2319.5	regulate	Run2	regulate/STIM_020.jpg	99
1445.956	2.658	2658.1	regulate	Run2	regulate/STIM_020.jpg	99
1450.634	1.486	1486.1	regulate	Run2	regulate/STIM_020.jpg	99
1454.759	2.639	2639.2	regulate	Run2	regulate/STIM_020.jpg	99
1460.388	1.885	1884.7	regulate	Run2	regulate/STIM_021.jpg	99
1464.927	1.461	1460.6	regulate	Run2	regulate/STIM_021.jpg	100
1469.964	2.359	2359.3	regulate	Run2	regulate/STIM_021.jpg	99
1475.245	1.174	1173.9	regulate	Run2	regulate/STIM_021.jpg	100
1479.959	1.643	1642.6	regulate	Run2	regulate/STIM_022.jpg	100
1485.159	2.134	2134.2	regulate	Run2	regulate/STIM_022.jpg	99
1491.135	1.912	1911.9	regulate	Run2	regulate/STIM_022.jpg	99
1497.036	2.136	2136.3	regulate	Run2	regulate/STIM_022.jpg	99
1502.53	2.005	2004.7	regulate	Run2	regulate/STIM_023.jpg	99
1508.013	3.06	3059.6	regulate	Run2	regulate/STIM_023.jpg	100
1514.01	1.593	1592.8	regulate	Run2	regulate/STIM_023.jpg	100
1517.768	1.556	1556.2	regulate	Run2	regulate/STIM_023.jpg	99
1521.715	3.104	3103.8	regulate	Run2	regulate/STIM_024.jpg	100
1527.288	1.618	1618.0	regulate	Run2	regulate/STIM_024.jpg	99
1531.963	1.897	1896.9	regulate	Run2	regulate/STIM_024.jpg	100
1536.517	1.98	1980.4	regulate	Run2	regulate/STIM_024.jpg	100
1542.173	3.184	3183.6	regulate	Run2	regulate/STIM_025.jpg	99
1548.555	1.998	1998.0	regulate	Run2	regulate/STIM_025.jpg	99
1552.696	1.367	1366.9	regulate	Run2	regulate/STIM_025.jpg	99
1556.352	2.446	2446.0	regulate	Run2	regulate/STIM_025.jpg	99
1562.206	2.33	2330.2	regulate	Run2	regulate/STIM_026.jpg	100
1566.934	2.781	2781.1	regulate	Run2	regulate/STIM_026.jpg	100
1572.095	1.896	1896.4	regulate	Run2	regulate/STIM_026.jpg	99
1576.685	1.633	1633.2	regulate	Run2	regulate/STIM_026.jpg	100
1581.67	3.273	3273.3	regulate	Run2	regulate/STIM_027.jpg	100
1587.743	2.364	2363.8	regulate	Run2	regulate/STIM_027.jpg	99
1593.892	2.579	2578.9	regulate	Run2	regulate/STIM_027.jpg	99
1599.254	1.744	1743.6	regulate	Run2	regulate/STIM_027.jpg	99
1604.894	1.532	1532.1	regulate	Run2	regulate/STIM_028.jpg	100
1608.882	1.936	1936.0	regulate	Run2	regulate/STIM_028.jpg	99
1613.224	1.737	1737.4	regulate	Run2	regulate/STIM_028.jpg	100
1618.855	1.345	1344.6	regulate	Run2	regulate/STIM_028.jpg	99
1622.981	1.908	1908.4	regulate	Run2	regulate/STIM_029.jpg	100
1627.879	2.359	2358.8	regulate	Run2	regulate/STIM_029.jpg	100
1633.136	1.466	1465.9	regulate	Run2	regulate/STIM_029.jpg	100
1636.689	2.128	2127.7	regulate	Run2	regulate/STIM_029.jpg	100
1640.859	1.211	1211.4	observe	Run2	observe/STIM_000.jpg	99
1644.782	1.566	1566.0	observe	Run2	observe/STIM_000.jpg	99
1649.987	0.998	997.6	observe	Run2	observe/STIM_000.jpg	99
1653.033	1.588	1588.1	observe	Run2	observe/STIM_000.jpg	99
1657.255	1.61	1609.6	observe	Run2	observe/STIM_001.jpg	99
1661.672	1.331	1330.8	observe	Run2	observe/STIM_001.jpg	100
1665.943	1.775	1774.6	observe	Run2	observe/STIM_001.jpg	99
1670.876	1.624	1623.8	observe	Run2	observe/STIM_001.jpg	99
1676.137	1.318	1318.1	observe	Run2	observe/STIM_002.jpg	100
1680.48	1.725	1725.0	observe	Run2	observe/STIM_002.jpg	99
1685.744	1.482	1481.8	observe	Run2	observe/STIM_002.jpg	100
1690.149	1.091	1091.1	observe	Run2	observe/STIM_002.jpg	99
1694.248	1.295	1294.7	observe	Run2	observe/STIM_003.jpg	99
1698.579	1.766	1766.5	observe	Run2	observe/STIM_003.jpg	99
1704.047	1.472	1471.9	observe	Run2	observe/STIM_003.jpg	100
1708.693	1.772	1771.7	observe	Run2	observe/STIM_003.jpg	99
1714.109	1.484	1484.3	observe	Run2	observe/STIM_004.jpg	100
1718.884	1.011	1011.1	observe	Run2	observe/STIM_004.jpg	100
1721.987	1.058	1058.3	observe	Run2	observe/STIM_004.jpg	99
1726.688	1.541	1541.3	observe	Run2	observe/STIM_004.jpg	99
1730.845	1.419	1419.2	observe	Run2	observe/STIM_005.jpg	99
1734.898	1.097	1096.8	observe	Run2	observe/STIM_005.jpg	100
1738.699	1.077	1077.0	observe	Run2	observe/STIM_005.jpg	100
1742.002	1.357	1356.8	observe	Run2	observe/STIM_005.jpg	100
1745.864	1.482	1482.4	observe	Run2	observe/STIM_006.jpg	99
1750.971	1.422	1421.8	observe	Run2	observe/STIM_006.jpg	99
1755.531	0.909	908.8	observe	Run2	observe/STIM_006.jpg	100
1759.584	1.726	1725.8	observe	Run2	observe/STIM_006.jpg	99
1764.125	1.072	1072.3	observe	Run2	observe/STIM_007.jpg	99
1768.692	1.046	1046.4	observe	Run2	observe/STIM_007.jpg	99
1771.941	1.678	1677.6	observe	Run2	observe/STIM_007.jpg	100
1776.64	1.239	1238.7	observe	Run2	observe/STIM_007.jpg	100
1781.541	1.402	1401.5	observe	Run2	observe/STIM_008.jpg	100
1786.885	0.926	925.5	observe	Run2	observe/STIM_008.jpg	100
1790.923	1.65	1649.9	observe	Run2	observe/STIM_008.jpg	100
1796.169	1.734	1734.5	observe	Run2	observe/STIM_008.jpg	99
1800.395	1.203	1203.3	observe	Run2	observe/STIM_009.jpg	100
1804.704	1.244	1243.7	observe	Run2	observe/STIM_009.jpg	100
1808.725	1.114	1113.7	observe	Run2	observe/STIM_009.jpg	100
1813.0	1.376	1375.5	observe	Run2	observe/STIM_009.jpg	100
1818.261	1.515	1514.7	observe	Run2	observe/STIM_010.jpg	100
1822.273	1.274	1274.1	observe	Run2	observe/STIM_010.jpg	99
1826.061	1.674	1674.4	observe	Run2	observe/STIM_010.jpg	100
1830.471	1.581	1580.7	observe	Run2	observe/STIM_010.jpg	100
1835.711	1.416	1415.9	observe	Run2	observe/STIM_011.jpg	99
1840.89	0.896	896.0	observe	Run2	observe/STIM_011.jpg	100
1845.178	1.692	1691.6	observe	Run2	observe/STIM_011.jpg	99
1850.461	1.244	1243.5	observe	Run2	observe/STIM_011.jpg	99
1854.268	0.94	939.6	observe	Run2	observe/STIM_012.jpg	100
1858.43	1.249	1248.6	observe	Run2	observe/STIM_012.jpg	100
1861.748	1.298	1298.0	observe	Run2	observe/STIM_012.jpg	99
1866.317	1.016	1015.5	observe	Run2	observe/STIM_012.jpg	100
1870.064	1.454	1454.3	observe	Run2	observe/STIM_013.jpg	100
1874.719	0.966	965.6	observe	Run2	observe/STIM_013.jpg	100
1877.712	1.448	1447.6	observe	Run2	observe/STIM_013.jpg	100
1883.076	0.945	944.7	observe	Run2	observe/STIM_013.jpg	100
1887.245	1.606	1605.6	observe	Run2	observe/STIM_014.jpg	100
1891.648	1.358	1357.8	observe	Run2	observe/STIM_014.jpg	100
1895.883	1.689	1689.2	observe	Run2	observe/STIM_014.jpg	99
1900.337	1.266	1266.3	observe	Run2	observe/STIM_014.jpg	100
1905.088	1.721	1720.8	observe	Run2	observe/STIM_015.jpg	99
1909.913	1.774	1774.5	observe	Run2	observe/STIM_015.jpg	99
1914.868	1.412	1412.3	observe	Run2	observe/STIM_015.jpg	99
1918.975	1.552	1552.3	observe	Run2	observe/STIM_015.jpg	100
1923.518	1.488	1487.6	observe	Run2	observe/STIM_016.jpg	99
1928.075	0.893	893.3	observe	Run2	observe/STIM_016.jpg	99
1931.298	1.214	1214.1	observe	Run2	observe/STIM_016.jpg	100
1935.762	1.054	1054.3	observe	Run2	observe/STIM_016.jpg	99
1939.615	1.38	1380.0	observe	Run2	observe/STIM_017.jpg	100
1943.491	1.351	1351.4	observe	Run2	observe/STIM_017.jpg	100
1947.669	1.469	1469.0	observe	Run2	observe/STIM_017.jpg	100
1951.805	1.782	1782.3	observe	Run2	observe/STIM_017.jpg	100
1957.297	1.359	1358.6	observe	Run2	observe/STIM_018.jpg	99
1961.1	1.64	1639.8	observe	Run2	observe/STIM_018.jpg	99
1965.387	1.355	1355.3	observe	Run2	observe/STIM_018.jpg	100
1970.517	1.07	1069.7	observe	Run2	observe/STIM_018.jpg	100
1974.767	1.09	1090.4	observe	Run2	observe/STIM_019.jpg	100
1978.972	1.428	1427.9	observe	Run2	observe/STIM_019.jpg	100
1982.635	1.65	1650.5	observe	Run2	observe/STIM_019.jpg	99
1988.012	1.61	1610.5	observe	Run2	observe/STIM_019.jpg	99
1992.087	2.33	2329.8	regulate	Run3	regulate/STIM_000.jpg	100
1998.26	1.338	1338.1	regulate	Run3	regulate/STIM_000.jpg	100
2002.837	1.646	1645.8	regulate	Run3	regulate/STIM_000.jpg	99
2006.63	1.305	1304.8	regulate	Run3	regulate/STIM_000.jpg	100
2010.336	1.408	1407.7	regulate	Run3	regulate/STIM_001.jpg	99
2015.429	1.767	1766.9	regulate	Run3	regulate/STIM_001.jpg	100
2019.961	1.551	1551.2	regulate	Run3	regulate/STIM_001.jpg	100
2025.309	2.504	2503.6	regulate	Run3	regulate/STIM_001.jpg	100
2029.94	1.835	1834.9	regulate	Run3	regulate/STIM_002.jpg	99
2035.37	1.522	1521.6	regulate	Run3	regulate/STIM_002.jpg	99
2039.616	1.245	1244.8	regulate	Run3	regulate/STIM_002.jpg	100
2043.647	1.565	1565.2	regulate	Run3	regulate/STIM_002.jpg	99
2047.999	1.723	1723.1	regulate	Run3	regulate/STIM_003.jpg	100
2052.618	1.904	1903.5	regulate	Run3	regulate/STIM_003.jpg	99
2057.541	1.815	1815.3	regulate	Run3	regulate/STIM_003.jpg	100
2063.139	2.05	2050.5	regulate	Run3	regulate/STIM_003.jpg	99
2068.59	2.276	2275.5	regulate	Run3	regulate/STIM_004.jpg	100
2074.069	1.76	1760.0	regulate	Run3	regulate/STIM_004.jpg	100
2078.158	1.186	1186.5	regulate	Run3	regulate/STIM_004.jpg	99
2082.08	1.972	1972.5	regulate	Run3	regulate/STIM_004.jpg	100
2087.131	2.314	2314.3	regulate	Run3	regulate/STIM_005.jpg	100
2092.795	1.345	1345.3	regulate	Run3	regulate/STIM_005.jpg	99
2097.387	1.179	1178.6	regulate	Run3	regulate/STIM_005.jpg	99
2101.211	1.489	1489.1	regulate	Run3	regulate/STIM_005.jpg	99
2105.592	1.827	1826.9	regulate	Run3	regulate/STIM_006.jpg	99
2110.759	2.408	2407.9	regulate	Run3	regulate/STIM_006.jpg	99
2116.88	2.009	2008.6	regulate	Run3	regulate/STIM_006.jpg	100
2121.975	1.733	1733.2	regulate	Run3	regulate/STIM_006.jpg	100
2127.445	2.693	2692.7	regulate	Run3	regulate/STIM_007.jpg	99
2132.66	2.393	2392.7	regulate	Run3	regulate/STIM_007.jpg	100
2138.621	2.2	2200.0	regulate	Run3	regulate/STIM_007.jpg	99
2143.672	1.627	1626.6	regulate	Run3	regulate/STIM_007.jpg	99
2148.204	1.583	1582.7	regulate	Run3	regulate/STIM_008.jpg	100
2153.375	1.633	1632.7	regulate	Run3	regulate/STIM_008.jpg	100
2158.862	1.693	1693.4	regulate	Run3	regulate/STIM_008.jpg	99
2162.782	2.511	2511.1	regulate	Run3	regulate/STIM_008.jpg	99
2167.51	2.563	2562.9	regulate	Run3	regulate/STIM_009.jpg	100
2173.764	2.52	2520.5	regulate	Run3	regulate/STIM_009.jpg	99
2178.624	1.705	1705.0	regulate	Run3	regulate/STIM_009.jpg	99
2182.344	1.505	1504.7	regulate	Run3	regulate/STIM_009.jpg	100
2186.146	1.6	1599.5	regulate	Run3	regulate/STIM_010.jpg	100
2191.408	1.537	1537.2	regulate	Run3	regulate/STIM_010.jpg	100
2195.415	1.232	1232.4	regulate	Run3	regulate/STIM_010.jpg	100
2200.062	2.384	2383.6	regulate	Run3	regulate/STIM_010.jpg	100
2204.57	1.44	1440.0	regulate	Run3	regulate/STIM_011.jpg	99
2209.409	2.113	2113.4	regulate	Run3	regulate/STIM_011.jpg	100
2215.375	2.532	2532.2	regulate	Run3	regulate/STIM_011.jpg	99
2220.324	2.197	2197.4	regulate	Run3	regulate/STIM_011.jpg	99
2224.737	1.999	1998.7	regulate	Run3	regulate/STIM_012.jpg	100
2230.405	1.265	1265.2	regulate	Run3	regulate/STIM_012.jpg	100
2234.367	2.027	2026.7	regulate	Run3	regulate/STIM_012.jpg	99
2238.992	1.665	1665.4	regulate	Run3	regulate/STIM_012.jpg	99
2243.552	2.663	2663.4	regulate	Run3	regulate/STIM_013.jpg	99
2248.562	1.931	1930.9	regulate	Run3	regulate/STIM_013.jpg	100
2253.499	2.01	2009.7	regulate	Run3	regulate/STIM_013.jpg	100
2259.232	2.702	2702.0	regulate	Run3	regulate/STIM_013.jpg	99
2264.133	2.233	2232.6	regulate	Run3	regulate/STIM_014.jpg	99
2270.363	1.729	1728.9	regulate	Run3	regulate/STIM_014.jpg	100
2276.074	2.131	2130.7	regulate	Run3	regulate/STIM_014.jpg	100
2282.116	2.625	2625.0	regulate	Run3	regulate/STIM_014.jpg	100
2286.848	1.847	1846.7	regulate	Run3	regulate/STIM_015.jpg	99
2291.015	1.583	1582.9	regulate	Run3	regulate/STIM_015.jpg	99
2295.03	1.52	1519.6	regulate	Run3	regulate/STIM_015.jpg	99
2300.542	2.712	2712.1	regulate	Run3	regulate/STIM_015.jpg	100
2305.57	2.631	2630.7	regulate	Run3	regulate/STIM_016.jpg	100
2311.044	2.72	2720.3	regulate	Run3	regulate/STIM_016.jpg	99
2316.846	2.621	2621.3	regulate	Run3	regulate/STIM_016.jpg	100
2323.033	1.311	1311.4	regulate	Run3	regulate/STIM_016.jpg	99
2327.856	1.252	1252.1	regulate	Run3	regulate/STIM_017.jpg	99
2331.814	2.497	2497.4	regulate	Run3	regulate/STIM_017.jpg	99
2336.467	1.963	1962.8	regulate	Run3	regulate/STIM_017.jpg	100
2340.815	2.398	2397.9	regulate	Run3	regulate/STIM_017.jpg	100
2347.046	1.522	1521.8	regulate	Run3	regulate/STIM_018.jpg	100
2351.176	1.729	1729.0	regulate	Run3	regulate/STIM_018.jpg	99
2355.452	2.316	2315.6	regulate	Run3	regulate/STIM_018.jpg	99
2361.498	1.382	1382.2	regulate	Run3	regulate/STIM_018.jpg	100
2365.836	2.673	2673.3	regulate	Run3	regulate/STIM_019.jpg	99
2371.796	1.887	1886.6	regulate	Run3	regulate/STIM_019.jpg	99
2376.003	2.097	2096.6	regulate	Run3	regulate/STIM_019.jpg	99
2380.952	2.663	2663.0	regulate	Run3	regulate/STIM_019.jpg	99
2387.308	2.29	2289.6	regulate	Run3	regulate/STIM_020.jpg	100
2391.702	1.949	1949.3	regulate	Run3	regulate/STIM_020.jpg	99
2396.265	1.482	1481.8	regulate	Run3	regulate/STIM_020.jpg	99
2401.089	1.37	1369.7	regulate	Run3	regulate/STIM_020.jpg	100
2405.693	1.892	1892.5	regulate	Run3	regulate/STIM_021.jpg	100
2410.929	1.248	1247.8	regulate	Run3	regulate/STIM_021.jpg	100
2414.418	2.455	2455.2	regulate	Run3	regulate/STIM_021.jpg	100
2420.792	1.329	1328.7	regulate	Run3	regulate/STIM_021.jpg	99
2424.511	2.169	2168.6	regulate	Run3	regulate/STIM_022.jpg	99
2429.47	2.28	2280.5	regulate	Run3	regulate/STIM_022.jpg	100
2434.636	1.266	1265.6	regulate	Run3	regulate/STIM_022.jpg	99
2438.602	1.941	1941.2	regulate	Run3	regulate/STIM_022.jpg	99
2444.515	2.207	2206.7	regulate	Run3	regulate/STIM_023.jpg	100
2449.641	2.648	2647.6	regulate	Run3	regulate/STIM_023.jpg	99
2454.687	2.663	2663.1	regulate	Run3	regulate/STIM_023.jpg	99
2460.357	2.35	2350.3	regulate	Run3	regulate/STIM_023.jpg	100
2464.808	1.927	1927.0	regulate	Run3	regulate/STIM_024.jpg	100
2469.937	1.463	1463.0	regulate	Run3	regulate/STIM_024.jpg	100
2475.073	2.077	2077.0	regulate	Run3	regulate/STIM_024.jpg	100
2479.372	2.668	2668.1	regulate	Run3	regulate/STIM_024.jpg	99
2484.135	2.291	2290.8	regulate	Run3	regulate/STIM_025.jpg	99
2490.282	1.213	1212.8	regulate	Run3	regulate/STIM_025.jpg	100
2494.484	1.692	1691.9	regulate	Run3	regulate/STIM_025.jpg	99
2498.861	2.73	2729.5	regulate	Run3	regulate/STIM_025.jpg	99
2505.07	2.655	2655.1	regulate	Run3	regulate/STIM_026.jpg	99
2510.096	2.226	2225.8	regulate	Run3	regulate/STIM_026.jpg	100
2514.637	1.327	1327.1	regulate	Run3	regulate/STIM_026.jpg	99
2518.811	1.215	1214.9	regulate	Run3	regulate/STIM_026.jpg	100
2522.345	2.618	2618.3	regulate	Run3	regulate/STIM_027.jpg	99
2528.243	1.495	1494.7	regulate	Run3	regulate/STIM_027.jpg	100
2532.235	2.302	2302.0	regulate	Run3	regulate/STIM_027.jpg	100
2537.74	1.658	1657.7	regulate	Run3	regulate/STIM_027.jpg	100
2541.577	2.137	2136.8	regulate	Run3	regulate/STIM_028.jpg	100
2547.051	2.13	2130.3	regulate	Run3	regulate/STIM_028.jpg	99
2552.081	2.548	2548.3	regulate	Run3	regulate/STIM_028.jpg	100
2558.428	1.29	1289.5	regulate	Run3	regulate/STIM_028.jpg	100
2563.195	1.849	1849.4	regulate	Run3	regulate/STIM_029.jpg	100
2567.759	1.653	1652.9	regulate	Run3	regulate/STIM_029.jpg	99
2573.385	2.33	2329.5	regulate	Run3	regulate/STIM_029.jpg	99
2578.349	1.723	1723.0	regulate	Run3	regulate/STIM_029.jpg	99
2582.751	0.931	930.7	observe	Run3	observe/STIM_000.jpg	100
2587.143	1.421	1420.8	observe	Run3	observe/STIM_000.jpg	100
2592.52	1.571	1571.1	observe	Run3	observe/STIM_000.jpg	99
2596.249	1.05	1050.2	observe	Run3	observe/STIM_000.jpg	99
2601.284	0.945	945.1	observe	Run3	observe/STIM_001.jpg	100
2604.319	1.169	1169.1	observe	Run3	observe/STIM_001.jpg	99
2608.085	1.43	1430.2	observe	Run3	observe/STIM_001.jpg	99
2611.699	1.055	1055.2	observe	Run3	observe/STIM_001.jpg	99
2615.145	1.32	1319.5	observe	Run3	observe/STIM_002.jpg	99
2620.201	1.439	1439.4	observe	Run3	observe/STIM_002.jpg	100
2624.348	1.413	1412.9	observe	Run3	observe/STIM_002.jpg	100
2629.751	1.413	1412.9	observe	Run3	observe/STIM_002.jpg	100
2634.363	1.102	1101.5	observe	Run3	observe/STIM_003.jpg	99
2637.732	1.182	1181.9	observe	Run3	observe/STIM_003.jpg	99
2642.473	1.15	1150.3	observe	Run3	observe/STIM_003.jpg	99
2646.092	1.64	1640.2	observe	Run3	observe/STIM_003.jpg	99
2651.0	0.997	996.9	observe	Run3	observe/STIM_004.jpg	99
2654.372	1.491	1490.9	observe	Run3	observe/STIM_004.jpg	99
2658.13	1.264	1264.1	observe	Run3	observe/STIM_004.jpg	99
2661.961	1.594	1594.1	observe	Run3	observe/STIM_004.jpg	100
2665.743	1.778	1777.5	observe	Run3	observe/STIM_005.jpg	99
2669.836	1.173	1172.6	observe	Run3	observe/STIM_005.jpg	100
2674.948	1.749	1748.6	observe	Run3	observe/STIM_005.jpg	99
2679.109	1.49	1489.9	observe	Run3	observe/STIM_005.jpg	100
2684.036	1.018	1017.8	observe	Run3	observe/STIM_006.jpg	100
2688.591	1.391	1390.7	observe	Run3	observe/STIM_006.jpg	99
2693.182	1.454	1454.3	observe	Run3	observe/STIM_006.jpg	99
2698.604	0.926	926.4	observe	Run3	observe/STIM_006.jpg	99
2701.992	1.373	1372.7	observe	Run3	observe/STIM_007.jpg	100
2706.516	1.588	1587.5	observe	Run3	observe/STIM_007.jpg	99
2710.792	1.587	1586.9	observe	Run3	observe/STIM_007.jpg	99
2715.975	1.26	1259.7	observe	Run3	observe/STIM_007.jpg	100
2719.775	1.607	1607.4	observe	Run3	observe/STIM_008.jpg	99
2724.852	1.195	1195.2	observe	Run3	observe/STIM_008.jpg	99
2729.998	1.173	1172.6	observe	Run3	observe/STIM_008.jpg	99
2733.777	1.072	1071.5	observe	Run3	observe/STIM_008.jpg	100
2737.624	1.59	1590.4	observe	Run3	observe/STIM_009.jpg	100
2741.752	1.174	1174.0	observe	Run3	observe/STIM_009.jpg	99
2745.545	1.04	1040.3	observe	Run3	observe/STIM_009.jpg	100
2750.149	0.892	891.5	observe	Run3	observe/STIM_009.jpg	99
2753.803	1.418	1418.3	observe	Run3	observe/STIM_010.jpg	99
2757.866	1.782	1781.8	observe	Run3	observe/STIM_010.jpg	100
2762.286	1.576	1575.9	observe	Run3	observe/STIM_010.jpg	100
2766.343	0.948	947.6	observe	Run3	observe/STIM_010.jpg	99
2770.966	1.662	1661.6	observe	Run3	observe/STIM_011.jpg	99
2776.431	1.388	1388.4	observe	Run3	observe/STIM_011.jpg	99
2781.019	1.751	1750.9	observe	Run3	observe/STIM_011.jpg	100
2785.569	1.69	1690.5	observe	Run3	observe/STIM_011.jpg	99
2789.416	1.363	1362.9	observe	Run3	observe/STIM_012.jpg	100
2793.724	1.677	1677.0	observe	Run3	observe/STIM_012.jpg	100
2798.177	1.409	1408.8	observe	Run3	observe/STIM_012.jpg	100
2801.996	1.108	1108.2	observe	Run3	observe/STIM_012.jpg	99
2805.964	1.431	1431.2	observe	Run3	observe/STIM_013.jpg	99
2809.722	1.493	1493.1	observe	Run3	observe/STIM_013.jpg	100
2814.908	1.336	1335.9	observe	Run3	observe/STIM_013.jpg	100
2819.647	1.584	1584.4	observe	Run3	observe/STIM_013.jpg	100
2825.111	0.979	979.1	observe	Run3	observe/STIM_014.jpg	100
2828.212	1.682	1681.6	observe	Run3	observe/STIM_014.jpg	100
2832.456	1.761	1761.4	observe	Run3	observe/STIM_014.jpg	99
2838.176	1.069	1069.2	observe	Run3	observe/STIM_014.jpg	100
2843.215	1.464	1463.5	observe	Run3	observe/STIM_015.jpg	100
2846.924	1.139	1138.6	observe	Run3	observe/STIM_015.jpg	100
2851.787	1.617	1617.4	observe	Run3	observe/STIM_015.jpg	100
2856.451	1.662	1661.5	observe	Run3	observe/STIM_015.jpg	100
2860.894	1.496	1496.3	observe	Run3	observe/STIM_016.jpg	100
2865.044	1.766	1766.4	observe	Run3	observe/STIM_016.jpg	99
2870.227	1.314	1314.5	observe	Run3	observe/STIM_016.jpg	100
2873.623	0.946	945.8	observe	Run3	observe/STIM_016.jpg	99
2878.561	1.725	1725.0	observe	Run3	observe/STIM_017.jpg	99
2883.849	1.754	1754.4	observe	Run3	observe/STIM_017.jpg	99
2889.191	1.576	1576.5	observe	Run3	observe/STIM_017.jpg	99
2893.33	0.99	990.4	observe	Run3	observe/STIM_017.jpg	100
2896.4	1.328	1327.8	observe	Run3	observe/STIM_018.jpg	99
2899.98	1.645	1645.4	observe	Run3	observe/STIM_018.jpg	99
2904.212	1.768	1768.2	observe	Run3	observe/STIM_018.jpg	99
2909.962	0.899	899.1	observe	Run3	observe/STIM_018.jpg	100
2914.167	1.32	1320.5	observe	Run3	observe/STIM_019.jpg	100
2918.361	1.082	1081.6	observe	Run3	observe/STIM_019.jpg	100
2922.66	1.561	1561.2	observe	Run3	observe/STIM_019.jpg	100
2927.986	1.415	1415.3	observe	Run3	observe/STIM_019.jpg	99
