onset	duration	accuracy	trial_type	learning_stage	stimulus
0.0	1.614	incorrect	generate	Run1	generate/STIM_000.jpg
5.009	1.987	correct	generate	Run1	generate/STIM_000.jpg
9.164	1.692	correct	generate	Run1	generate/STIM_000.jpg
14.726	1.094	correct	generate	Run1	generate/STIM_000.jpg
18.695	1.734	correct	generate	Run1	generate/STIM_000.jpg
23.937	2.143	correct	generate	Run1	generate/STIM_001.jpg
29.719	1.58	correct	generate	Run1	generate/STIM_001.jpg
34.301	1.854	correct	generate	Run1	generate/STIM_001.jpg
38.741	2.341	correct	generate	Run1	generate/STIM_001.jpg
44.518	1.766	correct	generate	Run1	generate/STIM_001.jpg
49.267	1.726	incorrect	generate	Run1	generate/STIM_002.jpg
53.638	1.948	correct	generate	Run1	generate/STIM_002.jpg
58.937	2.648	incorrect	generate	Run1	generate/STIM_002.jpg
65.262	1.952	correct	generate	Run1	generate/STIM_002.jpg
69.823	1.318	correct	generate	Run1	generate/STIM_002.jpg
74.857	1.485	incorrect	generate	Run1	generate/STIM_003.jpg
80.112	1.954	correct	generate	Run1	generate/STIM_003.jpg
85.979	1.155	correct	generate	Run1	generate/STIM_003.jpg
90.642	2.402	correct	generate	Run1	generate/STIM_003.jpg
95.16	2.043	correct	generate	Run1	generate/STIM_003.jpg
99.733	1.225	correct	generate	Run1	generate/STIM_004.jpg
103.072	1.613	correct	generate	Run1	generate/STIM_004.jpg
107.748	1.817	correct	generate	Run1	generate/STIM_004.jpg
112.736	1.136	correct	generate	Run1	generate/STIM_004.jpg
117.32	1.228	correct	generate	Run1	generate/STIM_004.jpg
121.63	1.215	correct	generate	Run1	generate/STIM_005.jpg
125.3	2.75	correct	generate	Run1	generate/STIM_005.jpg
130.776	1.865	incorrect	generate	Run1	generate/STIM_005.jpg
136.141	1.11	correct	generate	Run1	generate/STIM_005.jpg
140.34	1.203	correct	generate	Run1	generate/STIM_005.jpg
144.69	2.619	incorrect	generate	Run1	generate/STIM_006.jpg
150.492	1.943	incorrect	generate	Run1	generate/STIM_006.jpg
155.327	2.528	correct	generate	Run1	generate/STIM_006.jpg
160.862	1.072	correct	generate	Run1	generate/STIM_006.jpg
165.822	1.857	correct	generate	Run1	generate/STIM_006.jpg
170.545	2.371	incorrect	generate	Run1	generate/STIM_007.jpg
176.477	1.645	correct	generate	Run1	generate/STIM_007.jpg
180.699	1.796	incorrect	generate	Run1	generate/STIM_007.jpg
186.405	2.217	incorrect	generate	Run1	generate/STIM_007.jpg
191.894	2.061	correct	generate	Run1	generate/STIM_007.jpg
196.273	2.326	incorrect	generate	Run1	generate/STIM_008.jpg
200.65	1.433	correct	generate	Run1	generate/STIM_008.jpg
204.623	2.473	incorrect	generate	Run1	generate/STIM_008.jpg
209.501	2.448	correct	generate	Run1	generate/STIM_008.jpg
215.75	1.323	correct	generate	Run1	generate/STIM_008.jpg
219.405	1.495	correct	generate	Run1	generate/STIM_009.jpg
223.451	2.19	incorrect	generate	Run1	generate/STIM_009.jpg
229.047	1.156	incorrect	generate	Run1	generate/STIM_009.jpg
232.79	1.294	incorrect	generate	Run1	generate/STIM_009.jpg
236.571	1.716	correct	generate	Run1	generate/STIM_009.jpg
241.401	2.59	correct	generate	Run1	generate/STIM_010.jpg
246.604	1.66	correct	generate	Run1	generate/STIM_010.jpg
251.925	1.928	correct	generate	Run1	generate/STIM_010.jpg
255.908	1.321	correct	generate	Run1	generate/STIM_010.jpg
261.008	1.222	incorrect	generate	Run1	generate/STIM_010.jpg
265.742	1.405	correct	generate	Run1	generate/STIM_011.jpg
270.519	1.458	incorrect	generate	Run1	generate/STIM_011.jpg
275.376	1.587	correct	generate	Run1	generate/STIM_011.jpg
279.812	2.103	correct	generate	Run1	generate/STIM_011.jpg
285.222	1.705	correct	generate	Run1	generate/STIM_011.jpg
290.727	2.702	correct	generate	Run1	generate/STIM_012.jpg
296.951	1.846	correct	generate	Run1	generate/STIM_012.jpg
302.612	1.237	correct	generate	Run1	generate/STIM_012.jpg
306.09	1.2	correct	generate	Run1	generate/STIM_012.jpg
311.159	1.468	correct	generate	Run1	generate/STIM_012.jpg
315.738	1.556	incorrect	generate	Run1	generate/STIM_013.jpg
321.15	2.15	correct	generate	Run1	generate/STIM_013.jpg
325.767	1.676	correct	generate	Run1	generate/STIM_013.jpg
331.115	2.371	incorrect	generate	Run1	generate/STIM_013.jpg
337.215	2.162	correct	generate	Run1	generate/STIM_013.jpg
341.721	2.901	incorrect	generate	Run1	generate/STIM_014.jpg
347.797	2.71	correct	generate	Run1	generate/STIM_014.jpg
354.007	1.906	incorrect	generate	Run1	generate/STIM_014.jpg
359.101	1.583	correct	generate	Run1	generate/STIM_014.jpg
364.619	1.406	correct	generate	Run1	generate/STIM_014.jpg
369.432	1.281	incorrect	generate	Run1	generate/STIM_015.jpg
373.375	1.195	correct	generate	Run1	generate/STIM_015.jpg
377.736	1.852	correct	generate	Run1	generate/STIM_015.jpg
383.172	2.047	correct	generate	Run1	generate/STIM_015.jpg
388.364	1.893	correct	generate	Run1	generate/STIM_015.jpg
394.121	1.712	correct	generate	Run1	generate/STIM_016.jpg
399.353	1.567	incorrect	generate	Run1	generate/STIM_016.jpg
403.331	1.216	correct	generate	Run1	generate/STIM_016.jpg
406.574	1.795	correct	generate	Run1	generate/STIM_016.jpg
411.253	1.906	incorrect	generate	Run1	generate/STIM_016.jpg
416.987	1.487	incorrect	generate	Run1	generate/STIM_017.jpg
421.857	2.099	correct	generate	Run1	generate/STIM_017.jpg
427.972	1.1	correct	generate	Run1	generate/STIM_017.jpg
432.01	1.152	correct	generate	Run1	generate/STIM_017.jpg
436.959	1.297	incorrect	generate	Run1	generate/STIM_017.jpg
441.139	1.253	correct	generate	Run1	generate/STIM_018.jpg
445.354	2.049	incorrect	generate	Run1	generate/STIM_018.jpg
450.089	1.619	correct	generate	Run1	generate/STIM_018.jpg
454.36	1.776	correct	generate	Run1	generate/STIM_018.jpg
458.458	2.306	correct	generate	Run1	generate/STIM_018.jpg
463.92	2.427	correct	generate	Run1	generate/STIM_019.jpg
469.606	1.792	correct	generate	Run1	generate/STIM_019.jpg
475.357	2.497	correct	generate	Run1	generate/STIM_019.jpg
481.642	1.9	correct	generate	Run1	generate/STIM_019.jpg
486.396	1.589	correct	generate	Run1	generate/STIM_019.jpg
491.583	1.753	correct	generate	Run1	generate/STIM_020.jpg
497.057	1.244	correct	generate	Run1	generate/STIM_020.jpg
502.124	1.383	incorrect	generate	Run1	generate/STIM_020.jpg
506.49	1.362	correct	generate	Run1	generate/STIM_020.jpg
510.675	2.183	correct	generate	Run1	generate/STIM_020.jpg
515.285	1.379	correct	generate	Run1	generate/STIM_021.jpg
518.921	2.8	incorrect	generate	Run1	generate/STIM_021.jpg
524.675	1.723	correct	generate	Run1	generate/STIM_021.jpg
529.769	2.021	incorrect	generate	Run1	generate/STIM_021.jpg
534.519	1.635	correct	generate	Run1	generate/STIM_021.jpg
539.769	1.914	incorrect	generate	Run1	generate/STIM_022.jpg
544.567	1.505	correct	generate	Run1	generate/STIM_022.jpg
549.165	1.179	correct	generate	Run1	generate/STIM_022.jpg
553.541	1.334	correct	generate	Run1	generate/STIM_022.jpg
557.555	1.083	correct	generate	Run1	generate/STIM_022.jpg
562.597	2.124	correct	generate	Run1	generate/STIM_023.jpg
567.286	2.348	correct	generate	Run1	generate/STIM_023.jpg
573.214	2.003	incorrect	generate	Run1	generate/STIM_023.jpg
579.142	1.588	correct	generate	Run1	generate/STIM_023.jpg
584.439	1.923	correct	generate	Run1	generate/STIM_023.jpg
589.225	2.054	incorrect	generate	Run1	generate/STIM_024.jpg
594.844	1.157	incorrect	generate	Run1	generate/STIM_024.jpg
598.502	2.355	correct	generate	Run1	generate/STIM_024.jpg
602.936	1.258	correct	generate	Run1	generate/STIM_024.jpg
607.227	1.931	correct	generate	Run1	generate/STIM_024.jpg
612.457	0.644	correct	repeat	Run1	repeat/STIM_000.jpg
615.58	0.827	correct	repeat	Run1	repeat/STIM_000.jpg
620.316	0.686	correct	repeat	Run1	repeat/STIM_000.jpg
623.806	0.868	correct	repeat	Run1	repeat/STIM_000.jpg
628.009	0.544	correct	repeat	Run1	repeat/STIM_000.jpg
631.096	0.624	correct	repeat	Run1	repeat/STIM_001.jpg
635.492	0.854	correct	repeat	Run1	repeat/STIM_001.jpg
640.3	0.678	correct	repeat	Run1	repeat/STIM_001.jpg
644.8	0.78	correct	repeat	Run1	repeat/STIM_001.jpg
649.517	0.556	correct	repeat	Run1	repeat/STIM_001.jpg
652.514	0.966	correct	repeat	Run1	repeat/STIM_002.jpg
657.138	0.64	correct	repeat	Run1	repeat/STIM_002.jpg
661.181	0.649	correct	repeat	Run1	repeat/STIM_002.jpg
665.581	0.748	incorrect	repeat	Run1	repeat/STIM_002.jpg
668.985	0.519	correct	repeat	Run1	repeat/STIM_002.jpg
671.562	0.518	correct	repeat	Run1	repeat/STIM_003.jpg
674.64	0.894	correct	repeat	Run1	repeat/STIM_003.jpg
679.491	0.711	correct	repeat	Run1	repeat/STIM_003.jpg
682.643	0.717	correct	repeat	Run1	repeat/STIM_003.jpg
685.506	0.518	correct	repeat	Run1	repeat/STIM_003.jpg
688.353	0.825	correct	repeat	Run1	repeat/STIM_004.jpg
692.391	0.963	correct	repeat	Run1	repeat/STIM_004.jpg
696.872	0.607	correct	repeat	Run1	repeat/STIM_004.jpg
700.242	0.899	correct	repeat	Run1	repeat/STIM_004.jpg
703.503	0.681	correct	repeat	Run1	repeat/STIM_004.jpg
706.919	0.554	correct	repeat	Run1	repeat/STIM_005.jpg
710.456	0.579	correct	repeat	Run1	repeat/STIM_005.jpg
714.849	0.837	correct	repeat	Run1	repeat/STIM_005.jpg
719.114	0.567	correct	repeat	Run1	repeat/STIM_005.jpg
722.399	0.796	correct	repeat	Run1	repeat/STIM_005.jpg
727.047	0.647	correct	repeat	Run1	repeat/STIM_006.jpg
730.013	0.527	correct	repeat	Run1	repeat/STIM_006.jpg
734.31	0.758	correct	repeat	Run1	repeat/STIM_006.jpg
737.348	0.507	correct	repeat	Run1	repeat/STIM_006.jpg
740.573	0.536	correct	repeat	Run1	repeat/STIM_006.jpg
743.97	0.716	correct	repeat	Run1	repeat/STIM_007.jpg
748.569	0.911	correct	repeat	Run1	repeat/STIM_007.jpg
752.379	0.663	correct	repeat	Run1	repeat/STIM_007.jpg
755.441	0.784	correct	repeat	Run1	repeat/STIM_007.jpg
758.354	0.934	correct	repeat	Run1	repeat/STIM_007.jpg
763.297	0.959	correct	repeat	Run1	repeat/STIM_008.jpg
767.149	0.979	correct	repeat	Run1	repeat/STIM_008.jpg
771.914	0.509	correct	repeat	Run1	repeat/STIM_008.jpg
776.136	0.712	correct	repeat	Run1	repeat/STIM_008.jpg
780.445	0.948	correct	repeat	Run1	repeat/STIM_008.jpg
784.985	0.661	correct	repeat	Run1	repeat/STIM_009.jpg
788.557	0.612	correct	repeat	Run1	repeat/STIM_009.jpg
791.714	0.933	correct	repeat	Run1	repeat/STIM_009.jpg
796.446	0.975	correct	repeat	Run1	repeat/STIM_009.jpg
799.776	0.873	correct	repeat	Run1	repeat/STIM_009.jpg
804.315	0.585	correct	repeat	Run1	repeat/STIM_010.jpg
808.821	0.666	correct	repeat	Run1	repeat/STIM_010.jpg
812.131	0.822	incorrect	repeat	Run1	repeat/STIM_010.jpg
815.206	0.798	correct	repeat	Run1	repeat/STIM_010.jpg
819.265	0.516	correct	repeat	Run1	repeat/STIM_010.jpg
822.369	0.683	correct	repeat	Run1	repeat/STIM_011.jpg
826.964	0.862	correct	repeat	Run1	repeat/STIM_011.jpg
830.539	0.571	correct	repeat	Run1	repeat/STIM_011.jpg
834.849	0.978	correct	repeat	Run1	repeat/STIM_011.jpg
839.797	0.864	correct	repeat	Run1	repeat/STIM_011.jpg
842.904	0.945	correct	repeat	Run1	repeat/STIM_012.jpg
846.629	0.857	correct	repeat	Run1	repeat/STIM_012.jpg
850.271	0.541	correct	repeat	Run1	repeat/STIM_012.jpg
853.446	0.513	correct	repeat	Run1	repeat/STIM_012.jpg
856.385	0.844	correct	repeat	Run1	repeat/STIM_012.jpg
860.068	0.899	correct	repeat	Run1	repeat/STIM_013.jpg
864.306	0.861	correct	repeat	Run1	repeat/STIM_013.jpg
867.281	0.912	correct	repeat	Run1	repeat/STIM_013.jpg
871.559	0.918	correct	repeat	Run1	repeat/STIM_013.jpg
875.079	0.574	correct	repeat	Run1	repeat/STIM_013.jpg
878.85	0.806	correct	repeat	Run1	repeat/STIM_014.jpg
882.055	0.932	correct	repeat	Run1	repeat/STIM_014.jpg
884.997	0.843	correct	repeat	Run1	repeat/STIM_014.jpg
889.139	0.914	correct	repeat	Run1	repeat/STIM_014.jpg
894.062	0.923	correct	repeat	Run1	repeat/STIM_014.jpg
897.202	1.729	correct	generate	Run2	generate/STIM_000.jpg
901.088	1.024	incorrect	generate	Run2	generate/STIM_000.jpg
904.134	1.64	incorrect	generate	Run2	generate/STIM_000.jpg
907.819	1.123	correct	generate	Run2	generate/STIM_000.jpg
912.836	1.187	correct	generate	Run2	generate/STIM_000.jpg
916.781	1.491	correct	generate	Run2	generate/STIM_001.jpg
921.159	1.633	correct	generate	Run2	generate/STIM_001.jpg
926.538	1.294	correct	generate	Run2	generate/STIM_001.jpg
930.648	1.244	correct	generate	Run2	generate/STIM_001.jpg
934.481	1.257	correct	generate	Run2	generate/STIM_001.jpg
938.375	2.362	correct	generate	Run2	generate/STIM_002.jpg
944.736	1.155	incorrect	generate	Run2	generate/STIM_002.jpg
949.665	1.063	correct	generate	Run2	generate/STIM_002.jpg
953.404	1.658	correct	generate	Run2	generate/STIM_002.jpg
958.103	1.167	incorrect	generate	Run2	generate/STIM_002.jpg
961.71	1.697	correct	generate	Run2	generate/STIM_003.jpg
965.685	1.101	correct	generate	Run2	generate/STIM_003.jpg
970.243	1.078	correct	generate	Run2	generate/STIM_003.jpg
974.722	0.922	correct	generate	Run2	generate/STIM_003.jpg
979.179	1.105	correct	generate	Run2	generate/STIM_003.jpg
983.98	2.277	correct	generate	Run2	generate/STIM_004.jpg
990.213	1.737	correct	generate	Run2	generate/STIM_004.jpg
995.544	1.828	correct	generate	Run2	generate/STIM_004.jpg
1000.886	1.974	correct	generate	Run2	generate/STIM_004.jpg
1006.272	1.265	correct	generate	Run2	generate/STIM_004.jpg
1009.923	2.522	correct	generate	Run2	generate/STIM_005.jpg
1016.2	2.142	correct	generate	Run2	generate/STIM_005.jpg
1020.955	1.101	correct	generate	Run2	generate/STIM_005.jpg
1024.182	1.813	incorrect	generate	Run2	generate/STIM_005.jpg
1028.36	1.985	correct	generate	Run2	generate/STIM_005.jpg
1032.987	2.13	correct	generate	Run2	generate/STIM_006.jpg
1038.355	1.901	correct	generate	Run2	generate/STIM_006.jpg
1043.385	1.17	correct	generate	Run2	generate/STIM_006.jpg
1048.026	1.871	correct	generate	Run2	generate/STIM_006.jpg
1052.481	2.052	correct	generate	Run2	generate/STIM_006.jpg
1057.557	2.034	correct	generate	Run2	generate/STIM_007.jpg
1063.011	1.732	correct	generate	Run2	generate/STIM_007.jpg
1068.431	1.577	correct	generate	Run2	generate/STIM_007.jpg
1073.874	1.13	correct	generate	Run2	generate/STIM_007.jpg
1078.631	1.255	correct	generate	Run2	generate/STIM_007.jpg
1083.163	1.571	correct	generate	Run2	generate/STIM_008.jpg
1087.97	1.127	correct	generate	Run2	generate/STIM_008.jpg
1092.724	1.742	correct	generate	Run2	generate/STIM_008.jpg
1097.861	1.184	correct	generate	Run2	generate/STIM_008.jpg
1102.355	1.713	correct	generate	Run2	generate/STIM_008.jpg
1107.202	2.02	correct	generate	Run2	generate/STIM_009.jpg
1112.489	1.279	correct	generate	Run2	generate/STIM_009.jpg
1117.56	2.208	correct	generate	Run2	generate/STIM_009.jpg
1122.062	1.88	correct	generate	Run2	generate/STIM_009.jpg
1126.547	2.071	correct	generate	Run2	generate/STIM_009.jpg
1130.772	1.684	correct	generate	Run2	generate/STIM_010.jpg
1136.137	2.109	correct	generate	Run2	generate/STIM_010.jpg
1141.212	2.157	correct	generate	Run2	generate/STIM_010.jpg
1146.523	1.431	correct	generate	Run2	generate/STIM_010.jpg
1150.0	1.338	correct	generate	Run2	generate/STIM_010.jpg
1154.415	1.287	incorrect	generate	Run2	generate/STIM_011.jpg
1157.838	1.006	correct	generate	Run2	generate/STIM_011.jpg
1160.968	2.053	correct	generate	Run2	generate/STIM_011.jpg
1165.487	1.017	incorrect	generate	Run2	generate/STIM_011.jpg
1169.575	1.076	correct	generate	Run2	generate/STIM_011.jpg
1173.505	2.523	correct	generate	Run2	generate/STIM_012.jpg
1178.354	1.259	correct	generate	Run2	generate/STIM_012.jpg
1183.047	1.851	correct	generate	Run2	generate/STIM_012.jpg
1187.574	1.103	correct	generate	Run2	generate/STIM_012.jpg
1190.962	1.438	incorrect	generate	Run2	generate/STIM_012.jpg
1195.586	2.082	correct	generate	Run2	generate/STIM_013.jpg
1200.341	1.309	correct	generate	Run2	generate/STIM_013.jpg
1204.264	1.659	correct	generate	Run2	generate/STIM_013.jpg
1208.915	1.712	correct	generate	Run2	generate/STIM_013.jpg
1214.281	1.24	correct	generate	Run2	generate/STIM_013.jpg
1218.539	2.385	correct	generate	Run2	generate/STIM_014.jpg
1222.993	1.96	correct	generate	Run2	generate/STIM_014.jpg
1228.418	2.005	correct	generate	Run2	generate/STIM_014.jpg
1233.78	1.525	correct	generate	Run2	generate/STIM_014.jpg
1237.395	1.731	correct	generate	Run2	generate/STIM_014.jpg
1242.75	1.043	correct	generate	Run2	generate/STIM_015.jpg
1246.369	1.358	incorrect	generate	Run2	generate/STIM_015.jpg
1251.552	2.094	correct	generate	Run2	generate/STIM_015.jpg
1257.0	1.153	incorrect	generate	Run2	generate/STIM_015.jpg
1261.432	0.85	correct	generate	Run2	generate/STIM_015.jpg
1266.002	1.327	correct	generate	Run2	generate/STIM_016.jpg
1269.76	2.289	incorrect	generate	Run2	generate/STIM_016.jpg
1276.015	2.082	correct	generate	Run2	generate/STIM_016.jpg
1280.172	0.881	correct	generate	Run2	generate/STIM_016.jpg
1284.093	2.057	correct	generate	Run2	generate/STIM_016.jpg
1288.663	1.678	correct	generate	Run2	generate/STIM_017.jpg
1292.889	1.18	incorrect	generate	Run2	generate/STIM_017.jpg
1296.189	1.904	correct	generate	Run2	generate/STIM_017.jpg
1300.542	1.63	correct	generate	Run2	generate/STIM_017.jpg
1304.573	0.974	correct	generate	Run2	generate/STIM_017.jpg
1308.603	1.641	incorrect	generate	Run2	generate/STIM_018.jpg
1312.849	1.66	correct	generate	Run2	generate/STIM_018.jpg
1317.083	1.108	correct	generate	Run2	generate/STIM_018.jpg
1320.317	1.18	correct	generate	Run2	generate/STIM_018.jpg
1323.774	2.013	correct	generate	Run2	generate/STIM_018.jpg
1329.406	2.046	correct	generate	Run2	generate/STIM_019.jpg
1334.399	1.298	correct	generate	Run2	generate/STIM_019.jpg
1339.255	1.711	correct	generate	Run2	generate/STIM_019.jpg
1343.547	0.832	correct	generate	Run2	generate/STIM_019.jpg
1346.934	0.943	correct	generate	Run2	generate/STIM_019.jpg
1351.51	1.531	incorrect	generate	Run2	generate/STIM_020.jpg
1355.165	2.322	correct	generate	Run2	generate/STIM_020.jpg
1360.6	1.147	correct	generate	Run2	generate/STIM_020.jpg
1363.82	1.312	correct	generate	Run2	generate/STIM_020.jpg
1368.633	1.989	correct	generate	Run2	generate/STIM_020.jpg
1374.075	1.798	correct	generate	Run2	generate/STIM_021.jpg
1378.357	1.95	correct	generate	Run2	generate/STIM_021.jpg
1383.878	2.105	correct	generate	Run2	generate/STIM_021.jpg
1388.642	1.948	correct	generate	Run2	generate/STIM_021.jpg
1393.574	1.61	correct	generate	Run2	generate/STIM_021.jpg
1397.881	2.03	correct	generate	Run2	generate/STIM_022.jpg
1403.557	1.001	incorrect	generate	Run2	generate/STIM_022.jpg
1407.064	1.306	incorrect	generate	Run2	generate/STIM_022.jpg
1411.058	1.54	incorrect	generate	Run2	generate/STIM_022.jpg
1415.109	2.017	correct	generate	Run2	generate/STIM_022.jpg
1419.613	1.396	correct	generate	Run2	generate/STIM_023.jpg
1424.524	2.253	correct	generate	Run2	generate/STIM_023.jpg
1429.631	1.615	incorrect	generate	Run2	generate/STIM_023.jpg
1434.433	1.921	correct	generate	Run2	generate/STIM_023.jpg
1438.477	1.748	correct	generate	Run2	generate/STIM_023.jpg
1443.033	2.083	correct	generate	Run2	generate/STIM_024.jpg
1447.341	1.092	incorrect	generate	Run2	generate/STIM_024.jpg
1451.188	2.212	correct	generate	Run2	generate/STIM_024.jpg
1456.061	1.362	incorrect	generate	Run2	generate/STIM_024.jpg
1460.684	1.416	correct	generate	Run2	generate/STIM_024.jpg
1465.117	0.805	correct	repeat	Run2	repeat/STIM_000.jpg
1468.33	0.73	correct	repeat	Run2	repeat/STIM_000.jpg
1472.513	0.613	correct	repeat	Run2	repeat/STIM_000.jpg
1476.203	0.676	incorrect	repeat	Run2	repeat/STIM_000.jpg
1480.882	0.641	correct	repeat	Run2	repeat/STIM_000.jpg
1485.143	0.596	correct	repeat	Run2	repeat/STIM_001.jpg
1488.172	0.795	correct	repeat	Run2	repeat/STIM_001.jpg
1491.155	0.954	correct	repeat	Run2	repeat/STIM_001.jpg
1495.821	0.706	correct	repeat	Run2	repeat/STIM_001.jpg
1499.155	0.774	correct	repeat	Run2	repeat/STIM_001.jpg
1501.952	0.701	correct	repeat	Run2	repeat/STIM_002.jpg
1506.24	0.891	correct	repeat	Run2	repeat/STIM_002.jpg
1510.297	0.698	correct	repeat	Run2	repeat/STIM_002.jpg
1514.676	0.866	correct	repeat	Run2	repeat/STIM_002.jpg
1518.359	0.514	correct	repeat	Run2	repeat/STIM_002.jpg
1521.03	0.683	correct	repeat	Run2	repeat/STIM_003.jpg
1524.962	0.969	correct	repeat	Run2	repeat/STIM_003.jpg
1528.496	0.936	correct	repeat	Run2	repeat/STIM_003.jpg
1532.73	0.512	correct	repeat	Run2	repeat/STIM_003.jpg
1536.014	0.773	correct	repeat	Run2	repeat/STIM_003.jpg
1540.508	0.881	correct	repeat	Run2	repeat/STIM_004.jpg
1544.893	0.864	correct	repeat	Run2	repeat/STIM_004.jpg
1548.778	0.661	correct	repeat	Run2	repeat/STIM_004.jpg
1551.766	0.984	correct	repeat	Run2	repeat/STIM_004.jpg
1555.04	0.835	correct	repeat	Run2	repeat/STIM_004.jpg
1558.518	0.965	correct	repeat	Run2	repeat/STIM_005.jpg
1562.616	0.67	correct	repeat	Run2	repeat/STIM_005.jpg
1565.818	0.697	correct	repeat	Run2	repeat/STIM_005.jpg
1569.577	0.766	correct	repeat	Run2	repeat/STIM_005.jpg
1572.436	0.847	correct	repeat	Run2	repeat/STIM_005.jpg
1575.413	0.818	correct	repeat	Run2	repeat/STIM_006.jpg
1579.131	0.615	incorrect	repeat	Run2	repeat/STIM_006.jpg
1582.353	0.718	correct	repeat	Run2	repeat/STIM_006.jpg
1585.842	0.675	correct	repeat	Run2	repeat/STIM_006.jpg
1588.606	0.707	correct	repeat	Run2	repeat/STIM_006.jpg
1593.197	0.989	correct	repeat	Run2	repeat/STIM_007.jpg
1596.264	0.658	correct	repeat	Run2	repeat/STIM_007.jpg
1599.292	0.801	correct	repeat	Run2	repeat/STIM_007.jpg
1603.71	0.858	correct	repeat	Run2	repeat/STIM_007.jpg
1608.166	0.69	correct	repeat	Run2	repeat/STIM_007.jpg
1611.915	0.642	correct	repeat	Run2	repeat/STIM_008.jpg
1615.112	0.766	correct	repeat	Run2	repeat/STIM_008.jpg
1617.899	0.843	correct	repeat	Run2	repeat/STIM_008.jpg
1621.995	0.866	correct	repeat	Run2	repeat/STIM_008.jpg
1625.052	0.88	correct	repeat	Run2	repeat/STIM_008.jpg
1628.52	0.498	correct	repeat	Run2	repeat/STIM_009.jpg
1632.065	0.845	correct	repeat	Run2	repeat/STIM_009.jpg
1636.052	0.799	correct	repeat	Run2	repeat/STIM_009.jpg
1639.17	0.607	correct	repeat	Run2	repeat/STIM_009.jpg
1643.624	0.68	correct	repeat	Run2	repeat/STIM_009.jpg
1647.241	0.881	correct	repeat	Run2	repeat/STIM_010.jpg
1650.99	0.745	correct	repeat	Run2	repeat/STIM_010.jpg
1655.736	0.837	correct	repeat	Run2	repeat/STIM_010.jpg
1659.529	0.955	correct	repeat	Run2	repeat/STIM_010.jpg
1664.282	0.589	correct	repeat	Run2	repeat/STIM_010.jpg
1668.701	0.817	correct	repeat	Run2	repeat/STIM_011.jpg
1672.492	0.63	correct	repeat	Run2	repeat/STIM_011.jpg
1675.197	0.972	correct	repeat	Run2	repeat/STIM_011.jpg
1678.86	0.704	correct	repeat	Run2	repeat/STIM_011.jpg
1682.458	0.888	correct	repeat	Run2	repeat/STIM_011.jpg
1685.475	0.496	incorrect	repeat	Run2	repeat/STIM_012.jpg
1689.603	0.713	correct	repeat	Run2	repeat/STIM_012.jpg
1692.915	0.892	correct	repeat	Run2	repeat/STIM_012.jpg
1697.587	0.661	correct	repeat	Run2	repeat/STIM_012.jpg
1700.524	0.566	correct	repeat	Run2	repeat/STIM_012.jpg
1703.144	0.585	correct	repeat	Run2	repeat/STIM_013.jpg
1706.841	0.578	correct	repeat	Run2	repeat/STIM_013.jpg
1711.017	0.81	correct	repeat	Run2	repeat/STIM_013.jpg
1714.502	0.537	correct	repeat	Run2	repeat/STIM_013.jpg
1718.548	0.852	correct	repeat	Run2	repeat/STIM_013.jpg
1722.507	0.825	correct	repeat	Run2	repeat/STIM_014.jpg
1726.286	0.891	correct	repeat	Run2	repeat/STIM_014.jpg
1730.407	0.522	correct	repeat	Run2	repeat/STIM_014.jpg
1733.174	0.615	correct	repeat	Run2	repeat/STIM_014.jpg
1735.98	0.669	correct	repeat	Run2	repeat/STIM_014.jpg
1740.308	1.342	correct	generate	Run3	generate/STIM_000.jpg
1745.654	1.665	correct	generate	Run3	generate/STIM_000.jpg
1749.529	1.373	correct	generate	Run3	generate/STIM_000.jpg
1753.078	1.794	incorrect	generate	Run3	generate/STIM_000.jpg
1757.414	0.849	correct	generate	Run3	generate/STIM_000.jpg
1760.802	1.523	correct	generate	Run3	generate/STIM_001.jpg
1766.27	0.878	correct	generate	Run3	generate/STIM_001.jpg
1769.6	1.974	correct	generate	Run3	generate/STIM_001.jpg
1774.192	1.043	correct	generate	Run3	generate/STIM_001.jpg
1779.067	1.985	correct	generate	Run3	generate/STIM_001.jpg
1783.533	1.924	correct	generate	Run3	generate/STIM_002.jpg
1788.954	1.21	correct	generate	Run3	generate/STIM_002.jpg
1793.476	1.429	correct	generate	Run3	generate/STIM_002.jpg
1798.482	1.654	correct	generate	Run3	generate/STIM_002.jpg
1803.798	1.954	correct	generate	Run3	generate/STIM_002.jpg
1808.067	2.01	correct	generate	Run3	generate/STIM_003.jpg
1813.906	1.471	correct	generate	Run3	generate/STIM_003.jpg
1818.579	1.86	correct	generate	Run3	generate/STIM_003.jpg
1824.072	1.796	correct	generate	Run3	generate/STIM_003.jpg
1828.135	1.177	correct	generate	Run3	generate/STIM_003.jpg
1833.046	0.929	correct	generate	Run3	generate/STIM_004.jpg
1837.184	1.507	correct	generate	Run3	generate/STIM_004.jpg
1842.379	1.836	correct	generate	Run3	generate/STIM_004.jpg
1847.191	1.043	correct	generate	Run3	generate/STIM_004.jpg
1852.181	1.632	correct	generate	Run3	generate/STIM_004.jpg
1857.364	1.938	correct	generate	Run3	generate/STIM_005.jpg
1861.526	1.489	correct	generate	Run3	generate/STIM_005.jpg
1866.648	1.441	correct	generate	Run3	generate/STIM_005.jpg
1871.782	1.146	correct	generate	Run3	generate/STIM_005.jpg
1875.857	1.236	correct	generate	Run3	generate/STIM_005.jpg
1879.795	1.006	correct	generate	Run3	generate/STIM_006.jpg
1883.829	0.879	correct	generate	Run3	generate/STIM_006.jpg
1887.997	2.072	correct	generate	Run3	generate/STIM_006.jpg
1892.45	1.624	correct	generate	Run3	generate/STIM_006.jpg
1897.338	0.889	correct	generate	Run3	generate/STIM_006.jpg
1902.212	1.94	incorrect	generate	Run3	generate/STIM_007.jpg
1907.657	1.861	correct	generate	Run3	generate/STIM_007.jpg
1912.89	1.652	correct	generate	Run3	generate/STIM_007.jpg
1917.609	0.833	correct	generate	Run3	generate/STIM_007.jpg
1922.21	1.853	correct	generate	Run3	generate/STIM_007.jpg
1927.68	1.376	correct	generate	Run3	generate/STIM_008.jpg
1931.927	1.056	correct	generate	Run3	generate/STIM_008.jpg
1936.571	1.926	correct	generate	Run3	generate/STIM_008.jpg
1941.942	1.262	correct	generate	Run3	generate/STIM_008.jpg
1945.389	1.255	correct	generate	Run3	generate/STIM_008.jpg
1948.901	0.863	correct	generate	Run3	generate/STIM_009.jpg
1953.063	0.957	correct	generate	Run3	generate/STIM_009.jpg
1957.834	1.061	correct	generate	Run3	generate/STIM_009.jpg
1961.134	1.989	correct	generate	Run3	generate/STIM_009.jpg
1965.352	1.698	correct	generate	Run3	generate/STIM_009.jpg
1970.42	1.858	correct	generate	Run3	generate/STIM_010.jpg
1975.992	1.295	correct	generate	Run3	generate/STIM_010.jpg
1979.757	2.074	correct	generate	Run3	generate/STIM_010.jpg
1984.192	1.619	correct	generate	Run3	generate/STIM_010.jpg
1988.565	1.007	correct	generate	Run3	generate/STIM_010.jpg
1993.482	1.501	correct	generate	Run3	generate/STIM_011.jpg
1998.812	1.617	incorrect	generate	Run3	generate/STIM_011.jpg
2003.577	1.819	correct	generate	Run3	generate/STIM_011.jpg
2008.062	1.803	correct	generate	Run3	generate/STIM_011.jpg
2012.229	1.226	incorrect	generate	Run3	generate/STIM_011.jpg
2017.165	1.773	incorrect	generate	Run3	generate/STIM_012.jpg
2022.486	0.849	correct	generate	Run3	generate/STIM_012.jpg
2026.84	1.28	incorrect	generate	Run3	generate/STIM_012.jpg
2031.056	1.298	correct	generate	Run3	generate/STIM_012.jpg
2034.502	1.917	correct	generate	Run3	generate/STIM_012.jpg
2039.707	1.9	correct	generate	Run3	generate/STIM_013.jpg
2045.087	1.378	correct	generate	Run3	generate/STIM_013.jpg
2048.849	1.996	correct	generate	Run3	generate/STIM_013.jpg
2053.387	1.589	correct	generate	Run3	generate/STIM_013.jpg
2057.788	1.546	correct	generate	Run3	generate/STIM_013.jpg
2061.502	1.126	correct	generate	Run3	generate/STIM_014.jpg
2065.277	1.168	correct	generate	Run3	generate/STIM_014.jpg
2070.366	1.396	incorrect	generate	Run3	generate/STIM_014.jpg
2074.682	1.121	correct	generate	Run3	generate/STIM_014.jpg
2077.958	1.451	correct	generate	Run3	generate/STIM_014.jpg
2082.357	1.708	correct	generate	Run3	generate/STIM_015.jpg
2086.807	1.991	correct	generate	Run3	generate/STIM_015.jpg
2091.634	1.054	correct	generate	Run3	generate/STIM_015.jpg
2095.615	1.592	correct	generate	Run3	generate/STIM_015.jpg
2101.176	1.941	correct	generate	Run3	generate/STIM_015.jpg
2106.921	1.605	correct	generate	Run3	generate/STIM_016.jpg
2111.75	1.678	correct	generate	Run3	generate/STIM_016.jpg
2117.305	1.559	correct	generate	Run3	generate/STIM_016.jpg
2121.285	1.99	correct	generate	Run3	generate/STIM_016.jpg
2126.116	1.065	correct	generate	Run3	generate/STIM_016.jpg
2131.18	0.948	correct	generate	Run3	generate/STIM_017.jpg
2134.874	1.588	correct	generate	Run3	generate/STIM_017.jpg
2138.634	0.91	incorrect	generate	Run3	generate/STIM_017.jpg
2143.126	1.798	correct	generate	Run3	generate/STIM_017.jpg
2148.382	1.027	correct	generate	Run3	generate/STIM_017.jpg
2151.757	1.826	correct	generate	Run3	generate/STIM_018.jpg
2157.186	1.347	correct	generate	Run3	generate/STIM_018.jpg
2161.13	1.282	correct	generate	Run3	generate/STIM_018.jpg
2165.586	0.997	correct	generate	Run3	generate/STIM_018.jpg
2170.307	1.026	correct	generate	Run3	generate/STIM_018.jpg
2174.209	1.834	correct	generate	Run3	generate/STIM_019.jpg
2178.777	0.99	correct	generate	Run3	generate/STIM_019.jpg
2182.536	0.9	correct	generate	Run3	generate/STIM_019.jpg
2186.021	1.377	correct	generate	Run3	generate/STIM_019.jpg
2191.392	1.201	correct	generate	Run3	generate/STIM_019.jpg
2194.901	1.96	correct	generate	Run3	generate/STIM_020.jpg
2200.296	1.535	correct	generate	Run3	generate/STIM_020.jpg
2204.465	2.074	correct	generate	Run3	generate/STIM_020.jpg
2210.253	1.698	correct	generate	Run3	generate/STIM_020.jpg
2215.785	1.015	correct	generate	Run3	generate/STIM_020.jpg
2219.155	1.086	correct	generate	Run3	generate/STIM_021.jpg
2222.827	1.567	correct	generate	Run3	generate/STIM_021.jpg
2228.023	1.437	incorrect	generate	Run3	generate/STIM_021.jpg
2231.905	0.904	correct	generate	Run3	generate/STIM_021.jpg
2235.029	1.261	correct	generate	Run3	generate/STIM_021.jpg
2239.539	1.724	correct	generate	Run3	generate/STIM_022.jpg
2245.209	1.754	correct	generate	Run3	generate/STIM_022.jpg
2249.421	1.32	incorrect	generate	Run3	generate/STIM_022.jpg
2252.89	0.903	correct	generate	Run3	generate/STIM_022.jpg
2257.342	1.928	correct	generate	Run3	generate/STIM_022.jpg
2262.178	1.8	correct	generate	Run3	generate/STIM_023.jpg
2267.076	1.228	correct	generate	Run3	generate/STIM_023.jpg
2270.438	1.788	correct	generate	Run3	generate/STIM_023.jpg
2275.819	0.854	correct	generate	Run3	generate/STIM_023.jpg
2280.241	1.388	correct	generate	Run3	generate/STIM_023.jpg
2285.448	1.842	correct	generate	Run3	generate/STIM_024.jpg
2290.441	1.171	correct	generate	Run3	generate/STIM_024.jpg
2294.765	1.721	correct	generate	Run3	generate/STIM_024.jpg
2300.274	0.939	correct	generate	Run3	generate/STIM_024.jpg
2304.002	1.833	correct	generate	Run3	generate/STIM_024.jpg
2309.558	0.674	correct	repeat	Run3	repeat/STIM_000.jpg
2314.007	0.982	correct	repeat	Run3	repeat/STIM_000.jpg
2317.587	0.601	correct	repeat	Run3	repeat/STIM_000.jpg
2321.989	0.8	correct	repeat	Run3	repeat/STIM_000.jpg
2326.398	0.6	correct	repeat	Run3	repeat/STIM_000.jpg
2329.756	0.903	correct	repeat	Run3	repeat/STIM_001.jpg
2334.608	0.762	correct	repeat	Run3	repeat/STIM_001.jpg
2338.197	0.75	correct	repeat	Run3	repeat/STIM_001.jpg
2341.198	0.55	correct	repeat	Run3	repeat/STIM_001.jpg
2344.732	0.603	correct	repeat	Run3	repeat/STIM_001.jpg
2347.472	0.828	correct	repeat	Run3	repeat/STIM_002.jpg
2350.37	0.811	correct	repeat	Run3	repeat/STIM_002.jpg
2353.47	0.632	correct	repeat	Run3	repeat/STIM_002.jpg
2357.394	0.785	correct	repeat	Run3	repeat/STIM_002.jpg
2360.919	0.904	correct	repeat	Run3	repeat/STIM_002.jpg
2365.127	0.688	correct	repeat	Run3	repeat/STIM_003.jpg
2369.713	0.735	correct	repeat	Run3	repeat/STIM_003.jpg
2374.053	0.912	correct	repeat	Run3	repeat/STIM_003.jpg
2376.976	0.699	correct	repeat	Run3	repeat/STIM_003.jpg
2381.137	0.522	correct	repeat	Run3	repeat/STIM_003.jpg
2385.079	0.958	correct	repeat	Run3	repeat/STIM_004.jpg
2388.395	0.59	correct	repeat	Run3	repeat/STIM_004.jpg
2390.999	0.729	correct	repeat	Run3	repeat/STIM_004.jpg
2395.394	0.835	correct	repeat	Run3	repeat/STIM_004.jpg
2399.832	0.912	correct	repeat	Run3	repeat/STIM_004.jpg
2403.477	0.576	correct	repeat	Run3	repeat/STIM_005.jpg
2407.726	0.888	correct	repeat	Run3	repeat/STIM_005.jpg
2412.242	0.746	incorrect	repeat	Run3	repeat/STIM_005.jpg
2416.417	0.524	correct	repeat	Run3	repeat/STIM_005.jpg
2420.616	0.583	correct	repeat	Run3	repeat/STIM_005.jpg
2423.727	0.735	correct	repeat	Run3	repeat/STIM_006.jpg
2428.054	0.888	correct	repeat	Run3	repeat/STIM_006.jpg
2432.799	0.987	correct	repeat	Run3	repeat/STIM_006.jpg
2436.868	0.765	correct	repeat	Run3	repeat/STIM_006.jpg
2439.88	0.545	incorrect	repeat	Run3	repeat/STIM_006.jpg
2443.619	0.525	correct	repeat	Run3	repeat/STIM_007.jpg
2446.321	0.609	incorrect	repeat	Run3	repeat/STIM_007.jpg
2450.002	0.572	correct	repeat	Run3	repeat/STIM_007.jpg
2452.75	0.678	correct	repeat	Run3	repeat/STIM_007.jpg
2456.117	0.906	correct	repeat	Run3	repeat/STIM_007.jpg
2459.579	0.774	correct	repeat	Run3	repeat/STIM_008.jpg
2463.348	0.799	correct	repeat	Run3	repeat/STIM_008.jpg
2466.857	0.608	correct	repeat	Run3	repeat/STIM_008.jpg
2470.317	0.672	correct	repeat	Run3	repeat/STIM_008.jpg
2474.546	0.721	correct	repeat	Run3	repeat/STIM_008.jpg
2477.66	0.989	correct	repeat	Run3	repeat/STIM_009.jpg
2481.215	0.652	correct	repeat	Run3	repeat/STIM_009.jpg
2485.059	0.917	correct	repeat	Run3	repeat/STIM_009.jpg
2488.091	0.853	correct	repeat	Run3	repeat/STIM_009.jpg
2491.818	0.952	incorrect	repeat	Run3	repeat/STIM_009.jpg
2496.288	0.687	correct	repeat	Run3	repeat/STIM_010.jpg
2500.124	0.642	correct	repeat	Run3	repeat/STIM_010.jpg
2504.463	0.851	correct	repeat	Run3	repeat/STIM_010.jpg
2508.411	0.541	correct	repeat	Run3	repeat/STIM_010.jpg
2511.972	0.534	incorrect	repeat	Run3	repeat/STIM_010.jpg
2515.429	0.774	correct	repeat	Run3	repeat/STIM_011.jpg
2519.079	0.857	correct	repeat	Run3	repeat/STIM_011.jpg
2523.397	0.96	correct	repeat	Run3	repeat/STIM_011.jpg
2526.909	0.897	correct	repeat	Run3	repeat/STIM_011.jpg
2530.024	0.538	correct	repeat	Run3	repeat/STIM_011.jpg
2533.414	0.739	correct	repeat	Run3	repeat/STIM_012.jpg
2537.895	0.944	correct	repeat	Run3	repeat/STIM_012.jpg
2541.406	0.782	correct	repeat	Run3	repeat/STIM_012.jpg
2546.001	0.579	correct	repeat	Run3	repeat/STIM_012.jpg
2550.104	0.884	correct	repeat	Run3	repeat/STIM_012.jpg
2553.528	0.74	correct	repeat	Run3	repeat/STIM_013.jpg
2558.214	0.964	correct	repeat	Run3	repeat/STIM_013.jpg
2562.903	0.727	correct	repeat	Run3	repeat/STIM_013.jpg
2567.557	0.917	correct	repeat	Run3	repeat/STIM_013.jpg
2571.558	0.594	correct	repeat	Run3	repeat/STIM_013.jpg
2574.336	0.912	correct	repeat	Run3	repeat/STIM_014.jpg
2578.667	0.716	correct	repeat	Run3	repeat/STIM_014.jpg
2582.293	0.855	correct	repeat	Run3	repeat/STIM_014.jpg
2585.782	0.743	correct	repeat	Run3	repeat/STIM_014.jpg
2588.762	0.57	correct	repeat	Run3	repeat/STIM_014.jpg
2592.75	1.166	correct	generate	Run4	generate/STIM_000.jpg
2597.883	1.724	correct	generate	Run4	generate/STIM_000.jpg
2603.451	1.721	correct	generate	Run4	generate/STIM_000.jpg
2608.527	1.603	correct	generate	Run4	generate/STIM_000.jpg
2613.356	1.325	correct	generate	Run4	generate/STIM_000.jpg
2618.406	2.064	correct	generate	Run4	generate/STIM_001.jpg
2622.985	1.962	correct	generate	Run4	generate/STIM_001.jpg
2627.604	1.164	correct	generate	Run4	generate/STIM_001.jpg
2632.442	1.671	correct	generate	Run4	generate/STIM_001.jpg
2636.562	1.974	correct	generate	Run4	generate/STIM_001.jpg
2640.959	1.647	correct	generate	Run4	generate/STIM_002.jpg
2646.455	1.286	correct	generate	Run4	generate/STIM_002.jpg
2651.669	0.928	correct	generate	Run4	generate/STIM_002.jpg
2655.368	1.074	correct	generate	Run4	generate/STIM_002.jpg
2659.816	0.997	correct	generate	Run4	generate/STIM_002.jpg
2663.432	0.948	correct	generate	Run4	generate/STIM_003.jpg
2668.168	1.58	correct	generate	Run4	generate/STIM_003.jpg
2673.759	1.699	correct	generate	Run4	generate/STIM_003.jpg
2678.863	2.009	correct	generate	Run4	generate/STIM_003.jpg
2683.225	1.01	correct	generate	Run4	generate/STIM_003.jpg
2686.506	0.969	correct	generate	Run4	generate/STIM_004.jpg
2690.977	0.894	correct	generate	Run4	generate/STIM_004.jpg
2694.837	1.793	correct	generate	Run4	generate/STIM_004.jpg
2698.85	1.612	correct	generate	Run4	generate/STIM_004.jpg
2702.675	1.787	correct	generate	Run4	generate/STIM_004.jpg
2707.249	1.694	correct	generate	Run4	generate/STIM_005.jpg
2712.905	1.492	correct	generate	Run4	generate/STIM_005.jpg
2717.813	1.635	correct	generate	Run4	generate/STIM_005.jpg
2723.392	0.848	correct	generate	Run4	generate/STIM_005.jpg
2727.29	1.557	correct	generate	Run4	generate/STIM_005.jpg
2731.921	1.607	correct	generate	Run4	generate/STIM_006.jpg
2737.292	1.465	correct	generate	Run4	generate/STIM_006.jpg
2742.53	0.957	correct	generate	Run4	generate/STIM_006.jpg
2747.278	1.561	correct	generate	Run4	generate/STIM_006.jpg
2752.278	0.938	correct	generate	Run4	generate/STIM_006.jpg
2755.823	1.335	correct	generate	Run4	generate/STIM_007.jpg
2760.894	1.557	correct	generate	Run4	generate/STIM_007.jpg
2765.836	1.895	correct	generate	Run4	generate/STIM_007.jpg
2770.245	1.061	correct	generate	Run4	generate/STIM_007.jpg
2775.031	1.552	correct	generate	Run4	generate/STIM_007.jpg
2780.301	1.692	correct	generate	Run4	generate/STIM_008.jpg
2784.381	1.45	correct	generate	Run4	generate/STIM_008.jpg
2789.104	1.881	correct	generate	Run4	generate/STIM_008.jpg
2794.231	1.817	correct	generate	Run4	generate/STIM_008.jpg
2798.586	1.417	correct	generate	Run4	generate/STIM_008.jpg
2802.971	2.032	correct	generate	Run4	generate/STIM_009.jpg
2808.609	1.039	correct	generate	Run4	generate/STIM_009.jpg
2812.799	1.788	correct	generate	Run4	generate/STIM_009.jpg
2817.674	1.771	incorrect	generate	Run4	generate/STIM_009.jpg
2822.674	1.925	correct	generate	Run4	generate/STIM_009.jpg
2826.851	1.235	incorrect	generate	Run4	generate/STIM_010.jpg
2831.758	1.694	correct	generate	Run4	generate/STIM_010.jpg
2836.09	1.477	correct	generate	Run4	generate/STIM_010.jpg
2840.977	1.24	correct	generate	Run4	generate/STIM_010.jpg
2846.169	1.308	correct	generate	Run4	generate/STIM_010.jpg
2851.228	2.031	correct	generate	Run4	generate/STIM_011.jpg
2855.308	2.041	correct	generate	Run4	generate/STIM_011.jpg
2860.17	1.588	correct	generate	Run4	generate/STIM_011.jpg
2865.406	1.172	correct	generate	Run4	generate/STIM_011.jpg
2869.609	1.574	correct	generate	Run4	generate/STIM_011.jpg
2873.539	1.009	correct	generate	Run4	generate/STIM_012.jpg
2877.33	1.704	correct	generate	Run4	generate/STIM_012.jpg
2881.912	1.881	correct	generate	Run4	generate/STIM_012.jpg
2886.088	1.052	correct	generate	Run4	generate/STIM_012.jpg
2889.418	1.875	correct	generate	Run4	generate/STIM_012.jpg
2894.771	2.003	correct	generate	Run4	generate/STIM_013.jpg
2898.839	1.564	correct	generate	Run4	generate/STIM_013.jpg
2902.593	1.204	correct	generate	Run4	generate/STIM_013.jpg
2906.429	1.842	correct	generate	Run4	generate/STIM_013.jpg
2910.975	1.688	correct	generate	Run4	generate/STIM_013.jpg
2914.894	0.91	correct	generate	Run4	generate/STIM_014.jpg
2919.601	1.911	correct	generate	Run4	generate/STIM_014.jpg
2924.291	1.719	correct	generate	Run4	generate/STIM_014.jpg
2928.867	1.67	correct	generate	Run4	generate/STIM_014.jpg
2933.278	1.318	correct	generate	Run4	generate/STIM_014.jpg
2938.168	1.094	correct	generate	Run4	generate/STIM_015.jpg
2942.369	1.58	correct	generate	Run4	generate/STIM_015.jpg
2946.64	1.31	correct	generate	Run4	generate/STIM_015.jpg
2950.432	1.486	correct	generate	Run4	generate/STIM_015.jpg
2955.651	1.45	correct	generate	Run4	generate/STIM_015.jpg
2959.147	1.004	incorrect	generate	Run4	generate/STIM_016.jpg
2962.844	1.431	correct	generate	Run4	generate/STIM_016.jpg
2967.112	1.673	correct	generate	Run4	generate/STIM_016.jpg
2972.745	1.466	correct	generate	Run4	generate/STIM_016.jpg
2976.815	1.294	correct	generate	Run4	generate/STIM_016.jpg
2980.653	1.011	correct	generate	Run4	generate/STIM_017.jpg
2985.406	1.2	correct	generate	Run4	generate/STIM_017.jpg
2989.934	1.316	correct	generate	Run4	generate/STIM_017.jpg
2995.234	1.441	correct	generate	Run4	generate/STIM_017.jpg
2999.54	1.067	correct	generate	Run4	generate/STIM_017.jpg
3003.144	0.834	correct	generate	Run4	generate/STIM_018.jpg
3006.247	1.921	correct	generate	Run4	generate/STIM_018.jpg
3010.836	1.514	correct	generate	Run4	generate/STIM_018.jpg
3014.899	1.899	correct	generate	Run4	generate/STIM_018.jpg
3020.75	1.987	correct	generate	Run4	generate/STIM_018.jpg
3026.585	1.182	correct	generate	Run4	generate/STIM_019.jpg
3030.292	1.169	correct	generate	Run4	generate/STIM_019.jpg
3033.742	1.826	correct	generate	Run4	generate/STIM_019.jpg
3038.447	1.494	correct	generate	Run4	generate/STIM_019.jpg
3042.928	1.523	correct	generate	Run4	generate/STIM_019.jpg
3048.021	1.818	correct	generate	Run4	generate/STIM_020.jpg
3053.155	1.083	correct	generate	Run4	generate/STIM_020.jpg
3056.929	1.534	correct	generate	Run4	generate/STIM_020.jpg
3061.692	1.317	correct	generate	Run4	generate/STIM_020.jpg
3065.965	1.858	correct	generate	Run4	generate/STIM_020.jpg
3070.953	1.902	correct	generate	Run4	generate/STIM_021.jpg
3076.056	1.629	correct	generate	Run4	generate/STIM_021.jpg
3080.892	1.17	correct	generate	Run4	generate/STIM_021.jpg
3084.283	2.002	correct	generate	Run4	generate/STIM_021.jpg
3089.805	1.716	correct	generate	Run4	generate/STIM_021.jpg
3093.794	0.882	correct	generate	Run4	generate/STIM_022.jpg
3098.309	1.117	correct	generate	Run4	generate/STIM_022.jpg
3102.982	1.464	correct	generate	Run4	generate/STIM_022.jpg
3106.623	1.562	correct	generate	Run4	generate/STIM_022.jpg
3110.856	1.32	correct	generate	Run4	generate/STIM_022.jpg
3115.813	1.089	correct	generate	Run4	generate/STIM_023.jpg
3120.147	1.257	correct	generate	Run4	generate/STIM_023.jpg
3125.251	1.777	correct	generate	Run4	generate/STIM_023.jpg
3130.588	1.709	correct	generate	Run4	generate/STIM_023.jpg
3134.429	1.919	correct	generate	Run4	generate/STIM_023.jpg
3138.583	1.604	correct	generate	Run4	generate/STIM_024.jpg
3144.006	0.882	correct	generate	Run4	generate/STIM_024.jpg
3148.33	1.563	correct	generate	Run4	generate/STIM_024.jpg
3153.272	1.353	correct	generate	Run4	generate/STIM_024.jpg
3158.054	1.991	correct	generate	Run4	generate/STIM_024.jpg
3162.697	0.759	correct	repeat	Run4	repeat/STIM_000.jpg
3166.28	0.733	correct	repeat	Run4	repeat/STIM_000.jpg
3169.573	0.505	correct	repeat	Run4	repeat/STIM_000.jpg
3173.365	0.749	correct	repeat	Run4	repeat/STIM_000.jpg
3177.308	0.502	correct	repeat	Run4	repeat/STIM_000.jpg
3181.707	0.961	correct	repeat	Run4	repeat/STIM_001.jpg
3186.274	0.58	correct	repeat	Run4	repeat/STIM_001.jpg
3189.488	0.932	correct	repeat	Run4	repeat/STIM_001.jpg
3192.937	0.885	correct	repeat	Run4	repeat/STIM_001.jpg
3196.129	0.774	correct	repeat	Run4	repeat/STIM_001.jpg
3199.685	0.667	correct	repeat	Run4	repeat/STIM_002.jpg
3202.418	0.893	correct	repeat	Run4	repeat/STIM_002.jpg
3205.95	0.85	correct	repeat	Run4	repeat/STIM_002.jpg
3209.47	0.954	correct	repeat	Run4	repeat/STIM_002.jpg
3213.188	0.71	correct	repeat	Run4	repeat/STIM_002.jpg
3217.903	0.901	correct	repeat	Run4	repeat/STIM_003.jpg
3222.748	0.868	correct	repeat	Run4	repeat/STIM_003.jpg
3227.085	0.532	correct	repeat	Run4	repeat/STIM_003.jpg
3230.122	0.507	correct	repeat	Run4	repeat/STIM_003.jpg
3233.788	0.877	correct	repeat	Run4	repeat/STIM_003.jpg
3237.199	0.794	correct	repeat	Run4	repeat/STIM_004.jpg
3241.67	0.666	correct	repeat	Run4	repeat/STIM_004.jpg
3246.226	0.57	correct	repeat	Run4	repeat/STIM_004.jpg
3249.49	0.705	correct	repeat	Run4	repeat/STIM_004.jpg
3253.204	0.872	correct	repeat	Run4	repeat/STIM_004.jpg
3256.898	0.578	correct	repeat	Run4	repeat/STIM_005.jpg
3260.248	0.981	correct	repeat	Run4	repeat/STIM_005.jpg
3263.5	0.631	correct	repeat	Run4	repeat/STIM_005.jpg
3266.33	0.727	correct	repeat	Run4	repeat/STIM_005.jpg
3269.156	0.58	correct	repeat	Run4	repeat/STIM_005.jpg
3272.452	0.631	correct	repeat	Run4	repeat/STIM_006.jpg
3276.06	0.581	incorrect	repeat	Run4	repeat/STIM_006.jpg
3280.326	0.76	correct	repeat	Run4	repeat/STIM_006.jpg
3284.36	0.665	incorrect	repeat	Run4	repeat/STIM_006.jpg
3287.078	0.887	correct	repeat	Run4	repeat/STIM_006.jpg
3290.013	0.687	correct	repeat	Run4	repeat/STIM_007.jpg
3294.257	0.908	correct	repeat	Run4	repeat/STIM_007.jpg
3297.785	0.941	correct	repeat	Run4	repeat/STIM_007.jpg
3302.498	0.967	correct	repeat	Run4	repeat/STIM_007.jpg
3307.289	0.535	correct	repeat	Run4	repeat/STIM_007.jpg
3311.623	0.729	correct	repeat	Run4	repeat/STIM_008.jpg
3314.456	0.927	correct	repeat	Run4	repeat/STIM_008.jpg
3318.982	0.785	correct	repeat	Run4	repeat/STIM_008.jpg
3322.903	0.814	correct	repeat	Run4	repeat/STIM_008.jpg
3326.088	0.596	correct	repeat	Run4	repeat/STIM_008.jpg
3329.417	0.956	correct	repeat	Run4	repeat/STIM_009.jpg
3332.593	0.585	correct	repeat	Run4	repeat/STIM_009.jpg
3335.982	0.892	correct	repeat	Run4	repeat/STIM_009.jpg
3340.416	0.719	correct	repeat	Run4	repeat/STIM_009.jpg
3343.869	0.651	correct	repeat	Run4	repeat/STIM_009.jpg
3346.662	0.708	correct	repeat	Run4	repeat/STIM_010.jpg
3351.125	0.65	incorrect	repeat	Run4	repeat/STIM_010.jpg
3354.039	0.69	correct	repeat	Run4	repeat/STIM_010.jpg
3357.875	0.695	correct	repeat	Run4	repeat/STIM_010.jpg
3362.117	0.916	correct	repeat	Run4	repeat/STIM_010.jpg
3366.105	0.657	correct	repeat	Run4	repeat/STIM_011.jpg
3370.507	0.758	correct	repeat	Run4	repeat/STIM_011.jpg
3373.917	0.635	correct	repeat	Run4	repeat/STIM_011.jpg
3378.534	0.96	correct	repeat	Run4	repeat/STIM_011.jpg
3381.947	0.578	correct	repeat	Run4	repeat/STIM_011.jpg
3385.485	0.607	correct	repeat	Run4	repeat/STIM_012.jpg
3389.41	0.724	correct	repeat	Run4	repeat/STIM_012.jpg
3393.963	0.651	correct	repeat	Run4	repeat/STIM_012.jpg
3397.725	0.91	correct	repeat	Run4	repeat/STIM_012.jpg
3402.228	0.509	correct	repeat	Run4	repeat/STIM_012.jpg
3405.951	0.878	correct	repeat	Run4	repeat/STIM_013.jpg
3409.042	0.637	correct	repeat	Run4	repeat/STIM_013.jpg
3412.872	0.572	correct	repeat	Run4	repeat/STIM_013.jpg
3415.463	0.947	correct	repeat	Run4	repeat/STIM_013.jpg
3418.502	0.655	correct	repeat	Run4	repeat/STIM_013.jpg
3422.219	0.983	correct	repeat	Run4	repeat/STIM_014.jpg
3425.337	0.77	correct	repeat	Run4	repeat/STIM_014.jpg
3429.434	0.739	correct	repeat	Run4	repeat/STIM_014.jpg
3433.202	0.521	correct	repeat	Run4	repeat/STIM_014.jpg
3437.513	0.95	correct	repeat	Run4	repeat/STIM_014.jpg
