onset	duration	accuracy_binary	trial_type	learning_stage	stimulus
0.0	1.397	0	generate	Run1	generate/STIM_000.jpg
5.103	1.817	1	generate	Run1	generate/STIM_000.jpg
9.234	1.536	1	generate	Run1	generate/STIM_000.jpg
13.56	1.728	1	generate	Run1	generate/STIM_000.jpg
18.94	1.833	1	generate	Run1	generate/STIM_000.jpg
24.732	1.776	1	generate	Run1	generate/STIM_001.jpg
29.532	1.445	1	generate	Run1	generate/STIM_001.jpg
33.981	1.51	1	generate	Run1	generate/STIM_001.jpg
38.97	1.126	1	generate	Run1	generate/STIM_001.jpg
43.892	1.985	1	generate	Run1	generate/STIM_001.jpg
48.316	2.453	0	generate	Run1	generate/STIM_002.jpg
53.441	2.391	0	generate	Run1	generate/STIM_002.jpg
58.201	1.615	0	generate	Run1	generate/STIM_002.jpg
62.09	1.305	1	generate	Run1	generate/STIM_002.jpg
66.85	2.129	1	generate	Run1	generate/STIM_002.jpg
72.316	1.556	0	generate	Run1	generate/STIM_003.jpg
76.704	1.035	1	generate	Run1	generate/STIM_003.jpg
80.485	1.219	0	generate	Run1	generate/STIM_003.jpg
84.604	0.919	1	generate	Run1	generate/STIM_003.jpg
87.747	1.782	1	generate	Run1	generate/STIM_003.jpg
93.276	1.516	1	generate	Run1	generate/STIM_004.jpg
98.672	1.528	1	generate	Run1	generate/STIM_004.jpg
103.895	1.291	1	generate	Run1	generate/STIM_004.jpg
108.319	1.925	1	generate	Run1	generate/STIM_004.jpg
113.649	1.625	1	generate	Run1	generate/STIM_004.jpg
118.111	2.088	1	generate	Run1	generate/STIM_005.jpg
122.649	1.115	1	generate	Run1	generate/STIM_005.jpg
126.161	2.244	1	generate	Run1	generate/STIM_005.jpg
131.941	1.278	1	generate	Run1	generate/STIM_005.jpg
135.646	1.412	1	generate	Run1	generate/STIM_005.jpg
140.671	2.068	1	generate	Run1	generate/STIM_006.jpg
145.146	1.033	0	generate	Run1	generate/STIM_006.jpg
148.556	2.088	1	generate	Run1	generate/STIM_006.jpg
153.641	1.371	1	generate	Run1	generate/STIM_006.jpg
158.502	1.187	1	generate	Run1	generate/STIM_006.jpg
163.338	1.81	1	generate	Run1	generate/STIM_007.jpg
169.139	2.098	1	generate	Run1	generate/STIM_007.jpg
173.96	1.315	0	generate	Run1	generate/STIM_007.jpg
178.63	2.226	1	generate	Run1	generate/STIM_007.jpg
183.698	2.084	1	generate	Run1	generate/STIM_007.jpg
188.395	2.254	0	generate	Run1	generate/STIM_008.jpg
193.879	1.955	1	generate	Run1	generate/STIM_008.jpg
198.792	2.406	0	generate	Run1	generate/STIM_008.jpg
203.351	1.358	1	generate	Run1	generate/STIM_008.jpg
206.839	1.739	1	generate	Run1	generate/STIM_008.jpg
211.474	1.449	1	generate	Run1	generate/STIM_009.jpg
214.998	2.481	1	generate	Run1	generate/STIM_009.jpg
220.302	2.019	0	generate	Run1	generate/STIM_009.jpg
225.435	0.978	1	generate	Run1	generate/STIM_009.jpg
229.869	1.918	1	generate	Run1	generate/STIM_009.jpg
234.386	2.432	1	generate	Run1	generate/STIM_010.jpg
240.547	2.521	1	generate	Run1	generate/STIM_010.jpg
245.883	1.424	0	generate	Run1	generate/STIM_010.jpg
249.68	1.562	1	generate	Run1	generate/STIM_010.jpg
255.047	1.585	0	generate	Run1	generate/STIM_010.jpg
259.185	2.627	1	generate	Run1	generate/STIM_011.jpg
264.736	2.504	0	generate	Run1	generate/STIM_011.jpg
269.665	1.09	1	generate	Run1	generate/STIM_011.jpg
273.324	1.827	1	generate	Run1	generate/STIM_011.jpg
278.102	1.671	0	generate	Run1	generate/STIM_011.jpg
281.891	1.168	1	generate	Run1	generate/STIM_012.jpg
285.57	2.3	1	generate	Run1	generate/STIM_012.jpg
291.74	2.403	1	generate	Run1	generate/STIM_012.jpg
297.34	0.958	1	generate	Run1	generate/STIM_012.jpg
300.401	1.996	1	generate	Run1	generate/STIM_012.jpg
305.681	1.833	0	generate	Run1	generate/STIM_013.jpg
310.298	1.41	0	generate	Run1	generate/STIM_013.jpg
314.756	1.034	0	generate	Run1	generate/STIM_013.jpg
319.442	2.207	1	generate	Run1	generate/STIM_013.jpg
325.421	0.974	1	generate	Run1	generate/STIM_013.jpg
330.076	1.273	0	generate	Run1	generate/STIM_014.jpg
334.107	2.058	1	generate	Run1	generate/STIM_014.jpg
339.595	1.187	0	generate	Run1	generate/STIM_014.jpg
344.022	1.497	1	generate	Run1	generate/STIM_014.jpg
349.392	1.222	1	generate	Run1	generate/STIM_014.jpg
354.003	2.114	0	generate	Run1	generate/STIM_015.jpg
358.484	1.704	1	generate	Run1	generate/STIM_015.jpg
363.748	1.217	1	generate	Run1	generate/STIM_015.jpg
367.477	1.421	1	generate	Run1	generate/STIM_015.jpg
371.834	1.785	1	generate	Run1	generate/STIM_015.jpg
377.259	2.472	1	generate	Run1	generate/STIM_016.jpg
383.326	1.202	0	generate	Run1	generate/STIM_016.jpg
387.206	1.897	1	generate	Run1	generate/STIM_016.jpg
391.194	0.911	1	generate	Run1	generate/STIM_016.jpg
395.005	1.36	1	generate	Run1	generate/STIM_016.jpg
398.746	1.612	0	generate	Run1	generate/STIM_017.jpg
403.491	1.407	1	generate	Run1	generate/STIM_017.jpg
408.233	2.145	1	generate	Run1	generate/STIM_017.jpg
414.187	1.449	1	generate	Run1	generate/STIM_017.jpg
419.157	1.956	0	generate	Run1	generate/STIM_017.jpg
424.151	2.288	1	generate	Run1	generate/STIM_018.jpg
430.15	1.301	1	generate	Run1	generate/STIM_018.jpg
434.606	2.378	1	generate	Run1	generate/STIM_018.jpg
440.271	0.951	1	generate	Run1	generate/STIM_018.jpg
443.259	0.859	1	generate	Run1	generate/STIM_018.jpg
446.816	1.684	1	generate	Run1	generate/STIM_019.jpg
452.458	1.28	1	generate	Run1	generate/STIM_019.jpg
456.173	1.814	1	generate	Run1	generate/STIM_019.jpg
461.507	1.539	1	generate	Run1	generate/STIM_019.jpg
466.645	1.671	1	generate	Run1	generate/STIM_019.jpg
472.05	2.086	1	generate	Run1	generate/STIM_020.jpg
477.301	1.569	1	generate	Run1	generate/STIM_020.jpg
481.707	2.284	0	generate	Run1	generate/STIM_020.jpg
486.94	1.876	1	generate	Run1	generate/STIM_020.jpg
492.25	1.578	1	generate	Run1	generate/STIM_020.jpg
496.986	2.218	1	generate	Run1	generate/STIM_021.jpg
502.315	2.213	0	generate	Run1	generate/STIM_021.jpg
506.839	2.251	1	generate	Run1	generate/STIM_021.jpg
511.459	1.396	0	generate	Run1	generate/STIM_021.jpg
515.18	0.964	1	generate	Run1	generate/STIM_021.jpg
519.328	1.832	0	generate	Run1	generate/STIM_022.jpg
523.76	2.153	1	generate	Run1	generate/STIM_022.jpg
529.613	1.814	1	generate	Run1	generate/STIM_022.jpg
533.703	1.754	1	generate	Run1	generate/STIM_022.jpg
538.344	1.562	1	generate	Run1	generate/STIM_022.jpg
543.33	1.813	1	generate	Run1	generate/STIM_023.jpg
548.656	2.174	1	generate	Run1	generate/STIM_023.jpg
554.129	2.122	0	generate	Run1	generate/STIM_023.jpg
558.531	1.93	1	generate	Run1	generate/STIM_023.jpg
562.695	1.452	1	generate	Run1	generate/STIM_023.jpg
567.283	2.602	0	generate	Run1	generate/STIM_024.jpg
572.275	1.573	0	generate	Run1	generate/STIM_024.jpg
576.299	1.988	1	generate	Run1	generate/STIM_024.jpg
580.718	1.499	1	generate	Run1	generate/STIM_024.jpg
585.734	0.901	1	generate	Run1	generate/STIM_024.jpg
589.037	0.629	1	repeat	Run1	repeat/STIM_000.jpg
591.989	0.698	1	repeat	Run1	repeat/STIM_000.jpg
596.549	0.679	1	repeat	Run1	repeat/STIM_000.jpg
599.439	0.619	1	repeat	Run1	repeat/STIM_000.jpg
602.933	0.768	1	repeat	Run1	repeat/STIM_000.jpg
607.443	0.845	1	repeat	Run1	repeat/STIM_001.jpg
611.744	0.892	1	repeat	Run1	repeat/STIM_001.jpg
615.394	0.756	1	repeat	Run1	repeat/STIM_001.jpg
619.283	0.77	1	repeat	Run1	repeat/STIM_001.jpg
623.121	0.537	1	repeat	Run1	repeat/STIM_001.jpg
627.207	0.765	1	repeat	Run1	repeat/STIM_002.jpg
631.049	0.8	1	repeat	Run1	repeat/STIM_002.jpg
635.837	0.745	1	repeat	Run1	repeat/STIM_002.jpg
639.27	0.859	0	repeat	Run1	repeat/STIM_002.jpg
643.994	0.73	1	repeat	Run1	repeat/STIM_002.jpg
647.472	0.534	1	repeat	Run1	repeat/STIM_003.jpg
650.522	0.482	1	repeat	Run1	repeat/STIM_003.jpg
653.805	0.832	1	repeat	Run1	repeat/STIM_003.jpg
657.593	0.859	1	repeat	Run1	repeat/STIM_003.jpg
661.882	0.752	1	repeat	Run1	repeat/STIM_003.jpg
665.12	0.871	1	repeat	Run1	repeat/STIM_004.jpg
668.315	0.55	1	repeat	Run1	repeat/STIM_004.jpg
672.793	0.459	1	repeat	Run1	repeat/STIM_004.jpg
677.013	0.574	1	repeat	Run1	repeat/STIM_004.jpg
681.426	0.793	1	repeat	Run1	repeat/STIM_004.jpg
685.227	0.521	1	repeat	Run1	repeat/STIM_005.jpg
688.154	0.837	1	repeat	Run1	repeat/STIM_005.jpg
692.305	0.447	1	repeat	Run1	repeat/STIM_005.jpg
695.524	0.724	1	repeat	Run1	repeat/STIM_005.jpg
699.753	0.742	1	repeat	Run1	repeat/STIM_005.jpg
703.992	0.592	1	repeat	Run1	repeat/STIM_006.jpg
706.911	0.646	1	repeat	Run1	repeat/STIM_006.jpg
710.848	0.859	1	repeat	Run1	repeat/STIM_006.jpg
713.959	0.654	0	repeat	Run1	repeat/STIM_006.jpg
716.644	0.488	1	repeat	Run1	repeat/STIM_006.jpg
720.563	0.854	1	repeat	Run1	repeat/STIM_007.jpg
724.493	0.616	1	repeat	Run1	repeat/STIM_007.jpg
727.544	0.88	1	repeat	Run1	repeat/STIM_007.jpg
731.092	0.663	1	repeat	Run1	repeat/STIM_007.jpg
735.111	0.709	1	repeat	Run1	repeat/STIM_007.jpg
738.796	0.567	1	repeat	Run1	repeat/STIM_008.jpg
743.311	0.821	1	repeat	Run1	repeat/STIM_008.jpg
746.914	0.568	1	repeat	Run1	repeat/STIM_008.jpg
750.739	0.662	1	repeat	Run1	repeat/STIM_008.jpg
754.887	0.761	1	repeat	Run1	repeat/STIM_008.jpg
757.772	0.657	1	repeat	Run1	repeat/STIM_009.jpg
761.905	0.881	1	repeat	Run1	repeat/STIM_009.jpg
766.377	0.815	1	repeat	Run1	repeat/STIM_009.jpg
771.121	0.62	1	repeat	Run1	repeat/STIM_009.jpg
774.895	0.86	1	repeat	Run1	repeat/STIM_009.jpg
778.183	0.699	1	repeat	Run1	repeat/STIM_010.jpg
782.474	0.799	1	repeat	Run1	repeat/STIM_010.jpg
785.933	0.81	0	repeat	Run1	repeat/STIM_010.jpg
790.032	0.835	1	repeat	Run1	repeat/STIM_010.jpg
793.171	0.708	1	repeat	Run1	repeat/STIM_010.jpg
796.346	0.713	1	repeat	Run1	repeat/STIM_011.jpg
799.398	0.745	1	repeat	Run1	repeat/STIM_011.jpg
804.062	0.551	1	repeat	Run1	repeat/STIM_011.jpg
807.965	0.605	1	repeat	Run1	repeat/STIM_011.jpg
811.085	0.654	1	repeat	Run1	repeat/STIM_011.jpg
814.263	0.605	1	repeat	Run1	repeat/STIM_012.jpg
817.27	0.708	1	repeat	Run1	repeat/STIM_012.jpg
821.06	0.701	1	repeat	Run1	repeat/STIM_012.jpg
825.382	0.555	1	repeat	Run1	repeat/STIM_012.jpg
828.097	0.545	1	repeat	Run1	repeat/STIM_012.jpg
831.065	0.652	1	repeat	Run1	repeat/STIM_013.jpg
834.16	0.875	1	repeat	Run1	repeat/STIM_013.jpg
838.473	0.8	1	repeat	Run1	repeat/STIM_013.jpg
841.96	0.633	1	repeat	Run1	repeat/STIM_013.jpg
846.001	0.569	1	repeat	Run1	repeat/STIM_013.jpg
848.804	0.553	1	repeat	Run1	repeat/STIM_014.jpg
852.172	0.76	1	repeat	Run1	repeat/STIM_014.jpg
855.422	0.703	1	repeat	Run1	repeat/STIM_014.jpg
860.114	0.803	1	repeat	Run1	repeat/STIM_014.jpg
864.367	0.698	1	repeat	Run1	repeat/STIM_014.jpg
867.74	1.27	1	generate	Run2	generate/STIM_000.jpg
872.618	2.077	1	generate	Run2	generate/STIM_000.jpg
878.209	1.902	0	generate	Run2	generate/STIM_000.jpg
883.194	0.88	1	generate	Run2	generate/STIM_000.jpg
886.84	1.845	1	generate	Run2	generate/STIM_000.jpg
890.836	1.009	1	generate	Run2	generate/STIM_001.jpg
895.231	1.531	1	generate	Run2	generate/STIM_001.jpg
899.256	0.9	1	generate	Run2	generate/STIM_001.jpg
903.146	1.5	1	generate	Run2	generate/STIM_001.jpg
907.537	1.862	1	generate	Run2	generate/STIM_001.jpg
912.176	1.125	0	generate	Run2	generate/STIM_002.jpg
916.159	1.915	0	generate	Run2	generate/STIM_002.jpg
921.653	1.299	1	generate	Run2	generate/STIM_002.jpg
925.042	1.725	1	generate	Run2	generate/STIM_002.jpg
929.319	1.324	0	generate	Run2	generate/STIM_002.jpg
933.564	1.167	1	generate	Run2	generate/STIM_003.jpg
936.855	1.21	1	generate	Run2	generate/STIM_003.jpg
940.22	1.238	1	generate	Run2	generate/STIM_003.jpg
943.812	1.735	1	generate	Run2	generate/STIM_003.jpg
948.881	1.324	1	generate	Run2	generate/STIM_003.jpg
953.031	1.218	1	generate	Run2	generate/STIM_004.jpg
957.796	1.762	1	generate	Run2	generate/STIM_004.jpg
963.222	1.676	1	generate	Run2	generate/STIM_004.jpg
967.306	1.34	1	generate	Run2	generate/STIM_004.jpg
972.028	1.145	1	generate	Run2	generate/STIM_004.jpg
977.01	1.091	1	generate	Run2	generate/STIM_005.jpg
981.629	0.929	1	generate	Run2	generate/STIM_005.jpg
985.339	1.78	1	generate	Run2	generate/STIM_005.jpg
991.104	1.769	0	generate	Run2	generate/STIM_005.jpg
995.646	0.948	1	generate	Run2	generate/STIM_005.jpg
999.898	1.386	1	generate	Run2	generate/STIM_006.jpg
1004.805	1.964	1	generate	Run2	generate/STIM_006.jpg
1008.93	1.569	1	generate	Run2	generate/STIM_006.jpg
1013.431	1.686	1	generate	Run2	generate/STIM_006.jpg
1018.236	1.752	1	generate	Run2	generate/STIM_006.jpg
1023.975	0.999	1	generate	Run2	generate/STIM_007.jpg
1028.15	1.432	1	generate	Run2	generate/STIM_007.jpg
1032.71	1.088	1	generate	Run2	generate/STIM_007.jpg
1036.758	0.765	1	generate	Run2	generate/STIM_007.jpg
1041.259	1.721	1	generate	Run2	generate/STIM_007.jpg
1046.107	0.952	1	generate	Run2	generate/STIM_008.jpg
1050.876	1.078	1	generate	Run2	generate/STIM_008.jpg
1054.115	1.798	0	generate	Run2	generate/STIM_008.jpg
1059.849	1.473	1	generate	Run2	generate/STIM_008.jpg
1065.186	1.14	1	generate	Run2	generate/STIM_008.jpg
1069.685	2.009	1	generate	Run2	generate/STIM_009.jpg
1075.333	1.804	1	generate	Run2	generate/STIM_009.jpg
1080.935	1.498	1	generate	Run2	generate/STIM_009.jpg
1085.386	1.406	1	generate	Run2	generate/STIM_009.jpg
1089.422	1.494	1	generate	Run2	generate/STIM_009.jpg
1093.398	2.061	1	generate	Run2	generate/STIM_010.jpg
1098.459	1.389	1	generate	Run2	generate/STIM_010.jpg
1102.326	1.739	1	generate	Run2	generate/STIM_010.jpg
1106.805	1.462	1	generate	Run2	generate/STIM_010.jpg
1110.991	1.205	1	generate	Run2	generate/STIM_010.jpg
1115.576	1.902	0	generate	Run2	generate/STIM_011.jpg
1119.585	1.438	1	generate	Run2	generate/STIM_011.jpg
1123.874	1.246	1	generate	Run2	generate/STIM_011.jpg
1127.212	1.574	0	generate	Run2	generate/STIM_011.jpg
1132.498	1.145	0	generate	Run2	generate/STIM_011.jpg
1137.214	2.035	0	generate	Run2	generate/STIM_012.jpg
1142.125	1.504	1	generate	Run2	generate/STIM_012.jpg
1145.872	1.82	1	generate	Run2	generate/STIM_012.jpg
1150.305	1.538	1	generate	Run2	generate/STIM_012.jpg
1154.881	1.719	0	generate	Run2	generate/STIM_012.jpg
1160.493	1.418	1	generate	Run2	generate/STIM_013.jpg
1163.994	1.93	1	generate	Run2	generate/STIM_013.jpg
1168.288	0.895	1	generate	Run2	generate/STIM_013.jpg
1172.541	1.172	1	generate	Run2	generate/STIM_013.jpg
1176.373	1.777	1	generate	Run2	generate/STIM_013.jpg
1181.244	1.5	1	generate	Run2	generate/STIM_014.jpg
1185.269	1.136	1	generate	Run2	generate/STIM_014.jpg
1189.571	1.911	1	generate	Run2	generate/STIM_014.jpg
1194.237	1.595	1	generate	Run2	generate/STIM_014.jpg
1199.195	1.171	1	generate	Run2	generate/STIM_014.jpg
1202.892	2.114	1	generate	Run2	generate/STIM_015.jpg
1208.838	1.159	0	generate	Run2	generate/STIM_015.jpg
1212.216	0.988	1	generate	Run2	generate/STIM_015.jpg
1215.616	1.671	1	generate	Run2	generate/STIM_015.jpg
1220.038	1.614	1	generate	Run2	generate/STIM_015.jpg
1224.061	1.417	1	generate	Run2	generate/STIM_016.jpg
1228.886	1.984	0	generate	Run2	generate/STIM_016.jpg
1234.198	1.722	1	generate	Run2	generate/STIM_016.jpg
1239.765	1.294	1	generate	Run2	generate/STIM_016.jpg
1243.897	1.229	1	generate	Run2	generate/STIM_016.jpg
1248.424	2.176	1	generate	Run2	generate/STIM_017.jpg
1253.796	1.494	0	generate	Run2	generate/STIM_017.jpg
1257.754	1.387	1	generate	Run2	generate/STIM_017.jpg
1262.287	1.753	1	generate	Run2	generate/STIM_017.jpg
1267.314	1.631	1	generate	Run2	generate/STIM_017.jpg
1271.687	2.201	0	generate	Run2	generate/STIM_018.jpg
1277.65	1.023	0	generate	Run2	generate/STIM_018.jpg
1282.067	1.726	1	generate	Run2	generate/STIM_018.jpg
1285.999	1.212	0	generate	Run2	generate/STIM_018.jpg
1290.186	1.267	1	generate	Run2	generate/STIM_018.jpg
1293.555	0.986	1	generate	Run2	generate/STIM_019.jpg
1297.467	1.945	1	generate	Run2	generate/STIM_019.jpg
1302.318	1.029	1	generate	Run2	generate/STIM_019.jpg
1307.229	0.842	1	generate	Run2	generate/STIM_019.jpg
1311.334	1.002	1	generate	Run2	generate/STIM_019.jpg
1315.517	1.63	0	generate	Run2	generate/STIM_020.jpg
1320.128	1.657	1	generate	Run2	generate/STIM_020.jpg
1325.365	1.112	1	generate	Run2	generate/STIM_020.jpg
1329.909	0.771	1	generate	Run2	generate/STIM_020.jpg
1334.039	1.069	1	generate	Run2	generate/STIM_020.jpg
1337.982	1.882	0	generate	Run2	generate/STIM_021.jpg
1343.697	0.872	1	generate	Run2	generate/STIM_021.jpg
1346.681	1.145	0	generate	Run2	generate/STIM_021.jpg
1350.891	1.762	1	generate	Run2	generate/STIM_021.jpg
1356.59	1.246	1	generate	Run2	generate/STIM_021.jpg
1361.146	1.19	1	generate	Run2	generate/STIM_022.jpg
1365.933	1.154	1	generate	Run2	generate/STIM_022.jpg
1370.537	0.993	0	generate	Run2	generate/STIM_022.jpg
1374.785	0.893	1	generate	Run2	generate/STIM_022.jpg
1378.598	1.39	1	generate	Run2	generate/STIM_022.jpg
1383.281	1.647	1	generate	Run2	generate/STIM_023.jpg
1388.508	1.96	1	generate	Run2	generate/STIM_023.jpg
1393.083	0.809	0	generate	Run2	generate/STIM_023.jpg
1397.715	1.241	0	generate	Run2	generate/STIM_023.jpg
1402.719	1.392	1	generate	Run2	generate/STIM_023.jpg
1406.704	1.033	1	generate	Run2	generate/STIM_024.jpg
1411.484	0.956	0	generate	Run2	generate/STIM_024.jpg
1414.527	1.391	1	generate	Run2	generate/STIM_024.jpg
1419.769	1.8	0	generate	Run2	generate/STIM_024.jpg
1425.516	1.539	1	generate	Run2	generate/STIM_024.jpg
1430.346	0.464	1	repeat	Run2	repeat/STIM_000.jpg
1433.607	0.689	1	repeat	Run2	repeat/STIM_000.jpg
1436.931	0.872	1	repeat	Run2	repeat/STIM_000.jpg
1440.669	0.582	0	repeat	Run2	repeat/STIM_000.jpg
1443.851	0.782	1	repeat	Run2	repeat/STIM_000.jpg
1448.231	0.65	1	repeat	Run2	repeat/STIM_001.jpg
1451.248	0.769	1	repeat	Run2	repeat/STIM_001.jpg
1454.249	0.698	1	repeat	Run2	repeat/STIM_001.jpg
1458.434	0.465	1	repeat	Run2	repeat/STIM_001.jpg
1461.0	0.671	1	repeat	Run2	repeat/STIM_001.jpg
1464.385	0.803	1	repeat	Run2	repeat/STIM_002.jpg
1467.897	0.579	1	repeat	Run2	repeat/STIM_002.jpg
1472.173	0.58	1	repeat	Run2	repeat/STIM_002.jpg
1476.561	0.614	1	repeat	Run2	repeat/STIM_002.jpg
1479.677	0.531	1	repeat	Run2	repeat/STIM_002.jpg
1482.957	0.519	1	repeat	Run2	repeat/STIM_003.jpg
1485.957	0.582	1	repeat	Run2	repeat/STIM_003.jpg
1490.229	0.724	1	repeat	Run2	repeat/STIM_003.jpg
1494.533	0.452	1	repeat	Run2	repeat/STIM_003.jpg
1498.044	0.773	1	repeat	Run2	repeat/STIM_003.jpg
1501.056	0.87	1	repeat	Run2	repeat/STIM_004.jpg
1504.154	0.729	1	repeat	Run2	repeat/STIM_004.jpg
1508.398	0.53	1	repeat	Run2	repeat/STIM_004.jpg
1512.892	0.731	1	repeat	Run2	repeat/STIM_004.jpg
1516.196	0.776	1	repeat	Run2	repeat/STIM_004.jpg
1519.066	0.762	1	repeat	Run2	repeat/STIM_005.jpg
1521.936	0.496	1	repeat	Run2	repeat/STIM_005.jpg
1524.794	0.821	1	repeat	Run2	repeat/STIM_005.jpg
1527.781	0.664	1	repeat	Run2	repeat/STIM_005.jpg
1530.716	0.679	1	repeat	Run2	repeat/STIM_005.jpg
1533.86	0.689	1	repeat	Run2	repeat/STIM_006.jpg
1538.52	0.891	0	repeat	Run2	repeat/STIM_006.jpg
1543.172	0.694	1	repeat	Run2	repeat/STIM_006.jpg
1547.636	0.742	1	repeat	Run2	repeat/STIM_006.jpg
1552.284	0.777	1	repeat	Run2	repeat/STIM_006.jpg
1556.244	0.773	1	repeat	Run2	repeat/STIM_007.jpg
1559.646	0.722	1	repeat	Run2	repeat/STIM_007.jpg
1563.531	0.552	1	repeat	Run2	repeat/STIM_007.jpg
1568.021	0.825	1	repeat	Run2	repeat/STIM_007.jpg
1571.933	0.553	1	repeat	Run2	repeat/STIM_007.jpg
1575.248	0.579	1	repeat	Run2	repeat/STIM_008.jpg
1578.47	0.81	1	repeat	Run2	repeat/STIM_008.jpg
1583.04	0.488	1	repeat	Run2	repeat/STIM_008.jpg
1585.86	0.676	1	repeat	Run2	repeat/STIM_008.jpg
1590.064	0.85	1	repeat	Run2	repeat/STIM_008.jpg
1593.725	0.65	1	repeat	Run2	repeat/STIM_009.jpg
1596.578	0.73	1	repeat	Run2	repeat/STIM_009.jpg
1600.601	0.577	1	repeat	Run2	repeat/STIM_009.jpg
1604.211	0.647	1	repeat	Run2	repeat/STIM_009.jpg
1608.741	0.823	0	repeat	Run2	repeat/STIM_009.jpg
1612.712	0.67	1	repeat	Run2	repeat/STIM_010.jpg
1617.192	0.505	1	repeat	Run2	repeat/STIM_010.jpg
1620.092	0.856	1	repeat	Run2	repeat/STIM_010.jpg
1623.291	0.744	1	repeat	Run2	repeat/STIM_010.jpg
1626.375	0.751	1	repeat	Run2	repeat/STIM_010.jpg
1629.777	0.716	1	repeat	Run2	repeat/STIM_011.jpg
1633.876	0.788	1	repeat	Run2	repeat/STIM_011.jpg
1637.215	0.513	1	repeat	Run2	repeat/STIM_011.jpg
1641.117	0.574	1	repeat	Run2	repeat/STIM_011.jpg
1645.234	0.765	1	repeat	Run2	repeat/STIM_011.jpg
1649.535	0.693	0	repeat	Run2	repeat/STIM_012.jpg
1652.238	0.493	1	repeat	Run2	repeat/STIM_012.jpg
1655.18	0.517	1	repeat	Run2	repeat/STIM_012.jpg
1659.462	0.856	1	repeat	Run2	repeat/STIM_012.jpg
1663.676	0.811	1	repeat	Run2	repeat/STIM_012.jpg
1667.969	0.868	1	repeat	Run2	repeat/STIM_013.jpg
1670.902	0.735	1	repeat	Run2	repeat/STIM_013.jpg
1674.809	0.466	1	repeat	Run2	repeat/STIM_013.jpg
1678.059	0.863	1	repeat	Run2	repeat/STIM_013.jpg
1681.218	0.737	1	repeat	Run2	repeat/STIM_013.jpg
1685.698	0.77	1	repeat	Run2	repeat/STIM_014.jpg
1689.775	0.828	1	repeat	Run2	repeat/STIM_014.jpg
1693.336	0.874	1	repeat	Run2	repeat/STIM_014.jpg
1696.36	0.578	0	repeat	Run2	repeat/STIM_014.jpg
1700.207	0.614	1	repeat	Run2	repeat/STIM_014.jpg
1703.34	0.917	1	generate	Run3	generate/STIM_000.jpg
1706.675	1.132	0	generate	Run3	generate/STIM_000.jpg
1711.583	0.904	1	generate	Run3	generate/STIM_000.jpg
1714.812	1.284	0	generate	Run3	generate/STIM_000.jpg
1719.24	0.848	1	generate	Run3	generate/STIM_000.jpg
1722.168	1.853	1	generate	Run3	generate/STIM_001.jpg
1727.531	1.013	1	generate	Run3	generate/STIM_001.jpg
1730.704	1.039	1	generate	Run3	generate/STIM_001.jpg
1734.375	0.872	1	generate	Run3	generate/STIM_001.jpg
1738.229	1.006	1	generate	Run3	generate/STIM_001.jpg
1741.431	1.088	0	generate	Run3	generate/STIM_002.jpg
1745.296	1.238	0	generate	Run3	generate/STIM_002.jpg
1749.34	0.842	0	generate	Run3	generate/STIM_002.jpg
1753.486	0.941	1	generate	Run3	generate/STIM_002.jpg
1757.937	1.115	1	generate	Run3	generate/STIM_002.jpg
1762.991	1.316	1	generate	Run3	generate/STIM_003.jpg
1767.146	1.383	1	generate	Run3	generate/STIM_003.jpg
1771.851	1.487	1	generate	Run3	generate/STIM_003.jpg
1777.303	1.108	1	generate	Run3	generate/STIM_003.jpg
1780.517	1.855	1	generate	Run3	generate/STIM_003.jpg
1785.145	1.671	1	generate	Run3	generate/STIM_004.jpg
1790.482	1.002	1	generate	Run3	generate/STIM_004.jpg
1794.323	1.657	1	generate	Run3	generate/STIM_004.jpg
1798.606	1.309	1	generate	Run3	generate/STIM_004.jpg
1802.607	1.098	1	generate	Run3	generate/STIM_004.jpg
1805.964	1.421	1	generate	Run3	generate/STIM_005.jpg
1810.987	1.541	1	generate	Run3	generate/STIM_005.jpg
1814.762	1.58	1	generate	Run3	generate/STIM_005.jpg
1819.712	0.937	1	generate	Run3	generate/STIM_005.jpg
1823.6	1.55	1	generate	Run3	generate/STIM_005.jpg
1828.781	0.817	1	generate	Run3	generate/STIM_006.jpg
1833.595	1.145	1	generate	Run3	generate/STIM_006.jpg
1836.757	1.735	1	generate	Run3	generate/STIM_006.jpg
1841.583	1.444	1	generate	Run3	generate/STIM_006.jpg
1846.292	0.998	1	generate	Run3	generate/STIM_006.jpg
1850.052	1.584	0	generate	Run3	generate/STIM_007.jpg
1854.346	1.363	1	generate	Run3	generate/STIM_007.jpg
1858.16	1.443	1	generate	Run3	generate/STIM_007.jpg
1863.085	1.693	1	generate	Run3	generate/STIM_007.jpg
1867.027	0.772	1	generate	Run3	generate/STIM_007.jpg
1870.403	1.633	1	generate	Run3	generate/STIM_008.jpg
1874.165	0.836	1	generate	Run3	generate/STIM_008.jpg
1878.054	1.066	1	generate	Run3	generate/STIM_008.jpg
1882.518	1.1	1	generate	Run3	generate/STIM_008.jpg
1887.554	1.284	1	generate	Run3	generate/STIM_008.jpg
1891.448	1.144	1	generate	Run3	generate/STIM_009.jpg
1895.486	0.971	1	generate	Run3	generate/STIM_009.jpg
1898.67	1.662	1	generate	Run3	generate/STIM_009.jpg
1904.25	1.079	1	generate	Run3	generate/STIM_009.jpg
1908.285	1.679	1	generate	Run3	generate/STIM_009.jpg
1913.298	1.242	0	generate	Run3	generate/STIM_010.jpg
1918.313	1.048	1	generate	Run3	generate/STIM_010.jpg
1923.326	1.611	1	generate	Run3	generate/STIM_010.jpg
1928.929	1.854	1	generate	Run3	generate/STIM_010.jpg
1934.283	1.227	1	generate	Run3	generate/STIM_010.jpg
1937.966	1.1	1	generate	Run3	generate/STIM_011.jpg
1941.18	0.8	1	generate	Run3	generate/STIM_011.jpg
1944.135	1.565	1	generate	Run3	generate/STIM_011.jpg
1948.244	1.35	1	generate	Run3	generate/STIM_011.jpg
1952.308	1.205	0	generate	Run3	generate/STIM_011.jpg
1957.216	1.49	0	generate	Run3	generate/STIM_012.jpg
1961.042	1.055	1	generate	Run3	generate/STIM_012.jpg
1964.619	1.794	0	generate	Run3	generate/STIM_012.jpg
1969.389	1.746	1	generate	Run3	generate/STIM_012.jpg
1974.721	0.861	1	generate	Run3	generate/STIM_012.jpg
1977.745	1.568	1	generate	Run3	generate/STIM_013.jpg
1982.122	1.731	1	generate	Run3	generate/STIM_013.jpg
1987.008	0.858	1	generate	Run3	generate/STIM_013.jpg
1990.193	1.307	1	generate	Run3	generate/STIM_013.jpg
1993.974	1.694	1	generate	Run3	generate/STIM_013.jpg
1998.583	0.773	0	generate	Run3	generate/STIM_014.jpg
2003.098	1.233	1	generate	Run3	generate/STIM_014.jpg
2007.452	1.048	0	generate	Run3	generate/STIM_014.jpg
2011.071	1.54	1	generate	Run3	generate/STIM_014.jpg
2014.809	1.029	1	generate	Run3	generate/STIM_014.jpg
2018.962	1.339	1	generate	Run3	generate/STIM_015.jpg
2023.6	1.489	1	generate	Run3	generate/STIM_015.jpg
2027.918	1.664	1	generate	Run3	generate/STIM_015.jpg
2032.943	1.097	1	generate	Run3	generate/STIM_015.jpg
2036.558	0.848	1	generate	Run3	generate/STIM_015.jpg
2039.428	1.395	1	generate	Run3	generate/STIM_016.jpg
2042.912	1.387	1	generate	Run3	generate/STIM_016.jpg
2047.227	1.034	1	generate	Run3	generate/STIM_016.jpg
2051.477	1.095	1	generate	Run3	generate/STIM_016.jpg
2056.304	1.248	1	generate	Run3	generate/STIM_016.jpg
2061.313	1.12	1	generate	Run3	generate/STIM_017.jpg
2064.888	1.569	1	generate	Run3	generate/STIM_017.jpg
2069.904	1.535	0	generate	Run3	generate/STIM_017.jpg
2074.665	1.866	1	generate	Run3	generate/STIM_017.jpg
2079.403	1.025	1	generate	Run3	generate/STIM_017.jpg
2084.141	0.766	1	generate	Run3	generate/STIM_018.jpg
2087.8	1.76	1	generate	Run3	generate/STIM_018.jpg
2093.315	1.265	1	generate	Run3	generate/STIM_018.jpg
2096.74	1.795	1	generate	Run3	generate/STIM_018.jpg
2102.179	1.428	1	generate	Run3	generate/STIM_018.jpg
2107.083	0.836	1	generate	Run3	generate/STIM_019.jpg
2111.441	0.853	1	generate	Run3	generate/STIM_019.jpg
2114.4	1.204	1	generate	Run3	generate/STIM_019.jpg
2118.18	1.146	1	generate	Run3	generate/STIM_019.jpg
2122.046	1.372	1	generate	Run3	generate/STIM_019.jpg
2125.946	1.776	1	generate	Run3	generate/STIM_020.jpg
2131.442	1.699	1	generate	Run3	generate/STIM_020.jpg
2136.255	1.779	1	generate	Run3	generate/STIM_020.jpg
2140.957	1.418	1	generate	Run3	generate/STIM_020.jpg
2145.211	1.631	1	generate	Run3	generate/STIM_020.jpg
2150.615	0.909	1	generate	Run3	generate/STIM_021.jpg
2155.075	1.39	1	generate	Run3	generate/STIM_021.jpg
2160.039	1.506	0	generate	Run3	generate/STIM_021.jpg
2164.61	0.822	1	generate	Run3	generate/STIM_021.jpg
2168.869	1.158	1	generate	Run3	generate/STIM_021.jpg
2173.393	1.578	1	generate	Run3	generate/STIM_022.jpg
2178.116	1.54	1	generate	Run3	generate/STIM_022.jpg
2183.08	1.4	0	generate	Run3	generate/STIM_022.jpg
2187.795	1.742	1	generate	Run3	generate/STIM_022.jpg
2192.119	1.021	1	generate	Run3	generate/STIM_022.jpg
2196.554	1.317	1	generate	Run3	generate/STIM_023.jpg
2201.184	1.442	1	generate	Run3	generate/STIM_023.jpg
2204.875	1.033	1	generate	Run3	generate/STIM_023.jpg
2209.568	1.671	1	generate	Run3	generate/STIM_023.jpg
2213.385	1.769	1	generate	Run3	generate/STIM_023.jpg
2218.069	1.266	1	generate	Run3	generate/STIM_024.jpg
2221.366	1.43	1	generate	Run3	generate/STIM_024.jpg
2226.776	1.449	1	generate	Run3	generate/STIM_024.jpg
2231.615	1.32	1	generate	Run3	generate/STIM_024.jpg
2236.492	1.569	1	generate	Run3	generate/STIM_024.jpg
2241.734	0.883	1	repeat	Run3	repeat/STIM_000.jpg
2244.967	0.735	1	repeat	Run3	repeat/STIM_000.jpg
2248.024	0.546	1	repeat	Run3	repeat/STIM_000.jpg
2252.184	0.825	1	repeat	Run3	repeat/STIM_000.jpg
2255.056	0.689	1	repeat	Run3	repeat/STIM_000.jpg
2259.488	0.757	1	repeat	Run3	repeat/STIM_001.jpg
2263.83	0.688	1	repeat	Run3	repeat/STIM_001.jpg
2266.655	0.726	1	repeat	Run3	repeat/STIM_001.jpg
2270.407	0.831	1	repeat	Run3	repeat/STIM_001.jpg
2274.205	0.481	1	repeat	Run3	repeat/STIM_001.jpg
2278.458	0.498	1	repeat	Run3	repeat/STIM_002.jpg
2281.391	0.857	1	repeat	Run3	repeat/STIM_002.jpg
2285.3	0.783	1	repeat	Run3	repeat/STIM_002.jpg
2289.274	0.757	1	repeat	Run3	repeat/STIM_002.jpg
2292.84	0.49	1	repeat	Run3	repeat/STIM_002.jpg
2296.169	0.717	1	repeat	Run3	repeat/STIM_003.jpg
2300.131	0.767	1	repeat	Run3	repeat/STIM_003.jpg
2304.644	0.629	1	repeat	Run3	repeat/STIM_003.jpg
2308.24	0.802	1	repeat	Run3	repeat/STIM_003.jpg
2312.908	0.686	1	repeat	Run3	repeat/STIM_003.jpg
2317.454	0.705	1	repeat	Run3	repeat/STIM_004.jpg
2321.33	0.624	1	repeat	Run3	repeat/STIM_004.jpg
2324.096	0.603	1	repeat	Run3	repeat/STIM_004.jpg
2327.76	0.696	1	repeat	Run3	repeat/STIM_004.jpg
2330.703	0.855	1	repeat	Run3	repeat/STIM_004.jpg
2333.578	0.623	1	repeat	Run3	repeat/STIM_005.jpg
2337.015	0.766	1	repeat	Run3	repeat/STIM_005.jpg
2340.3	0.619	0	repeat	Run3	repeat/STIM_005.jpg
2344.882	0.742	1	repeat	Run3	repeat/STIM_005.jpg
2348.62	0.856	1	repeat	Run3	repeat/STIM_005.jpg
2353.289	0.797	1	repeat	Run3	repeat/STIM_006.jpg
2356.859	0.666	1	repeat	Run3	repeat/STIM_006.jpg
2360.866	0.453	1	repeat	Run3	repeat/STIM_006.jpg
2365.176	0.678	1	repeat	Run3	repeat/STIM_006.jpg
2368.082	0.522	0	repeat	Run3	repeat/STIM_006.jpg
2372.222	0.768	1	repeat	Run3	repeat/STIM_007.jpg
2376.401	0.618	0	repeat	Run3	repeat/STIM_007.jpg
2379.061	0.476	1	repeat	Run3	repeat/STIM_007.jpg
2383.01	0.462	1	repeat	Run3	repeat/STIM_007.jpg
2387.428	0.663	0	repeat	Run3	repeat/STIM_007.jpg
2391.304	0.571	1	repeat	Run3	repeat/STIM_008.jpg
2394.354	0.825	1	repeat	Run3	repeat/STIM_008.jpg
2398.201	0.49	1	repeat	Run3	repeat/STIM_008.jpg
2401.182	0.693	1	repeat	Run3	repeat/STIM_008.jpg
2404.6	0.605	1	repeat	Run3	repeat/STIM_008.jpg
2408.628	0.855	1	repeat	Run3	repeat/STIM_009.jpg
2411.831	0.861	1	repeat	Run3	repeat/STIM_009.jpg
2415.218	0.728	1	repeat	Run3	repeat/STIM_009.jpg
2419.302	0.761	1	repeat	Run3	repeat/STIM_009.jpg
2423.663	0.45	1	repeat	Run3	repeat/STIM_009.jpg
2426.757	0.698	1	repeat	Run3	repeat/STIM_010.jpg
2429.672	0.52	1	repeat	Run3	repeat/STIM_010.jpg
2434.191	0.743	1	repeat	Run3	repeat/STIM_010.jpg
2437.058	0.655	1	repeat	Run3	repeat/STIM_010.jpg
2440.413	0.544	0	repeat	Run3	repeat/STIM_010.jpg
2444.618	0.628	1	repeat	Run3	repeat/STIM_011.jpg
2449.191	0.666	1	repeat	Run3	repeat/STIM_011.jpg
2452.455	0.609	1	repeat	Run3	repeat/STIM_011.jpg
2456.963	0.546	1	repeat	Run3	repeat/STIM_011.jpg
2461.464	0.469	1	repeat	Run3	repeat/STIM_011.jpg
2465.465	0.552	1	repeat	Run3	repeat/STIM_012.jpg
2468.065	0.708	1	repeat	Run3	repeat/STIM_012.jpg
2470.888	0.533	1	repeat	Run3	repeat/STIM_012.jpg
2474.389	0.776	1	repeat	Run3	repeat/STIM_012.jpg
2477.512	0.812	1	repeat	Run3	repeat/STIM_012.jpg
2482.124	0.614	1	repeat	Run3	repeat/STIM_013.jpg
2486.332	0.522	1	repeat	Run3	repeat/STIM_013.jpg
2490.214	0.569	1	repeat	Run3	repeat/STIM_013.jpg
2493.2	0.669	1	repeat	Run3	repeat/STIM_013.jpg
2496.618	0.669	1	repeat	Run3	repeat/STIM_013.jpg
2500.685	0.653	1	repeat	Run3	repeat/STIM_014.jpg
2504.633	0.525	1	repeat	Run3	repeat/STIM_014.jpg
2507.941	0.817	1	repeat	Run3	repeat/STIM_014.jpg
2511.892	0.801	1	repeat	Run3	repeat/STIM_014.jpg
2515.008	0.449	1	repeat	Run3	repeat/STIM_014.jpg
2517.515	1.386	1	generate	Run4	generate/STIM_000.jpg
2521.574	1.212	1	generate	Run4	generate/STIM_000.jpg
2525.852	1.575	1	generate	Run4	generate/STIM_000.jpg
2530.211	0.765	1	generate	Run4	generate/STIM_000.jpg
2534.49	1.066	1	generate	Run4	generate/STIM_000.jpg
2538.189	1.202	1	generate	Run4	generate/STIM_001.jpg
2543.194	1.859	1	generate	Run4	generate/STIM_001.jpg
2548.674	1.212	1	generate	Run4	generate/STIM_001.jpg
2553.552	1.02	1	generate	Run4	generate/STIM_001.jpg
2556.992	1.274	1	generate	Run4	generate/STIM_001.jpg
2560.508	0.935	1	generate	Run4	generate/STIM_002.jpg
2563.609	1.204	1	generate	Run4	generate/STIM_002.jpg
2567.55	0.928	1	generate	Run4	generate/STIM_002.jpg
2572.279	1.284	1	generate	Run4	generate/STIM_002.jpg
2577.225	1.19	1	generate	Run4	generate/STIM_002.jpg
2580.596	0.893	1	generate	Run4	generate/STIM_003.jpg
2584.234	1.766	1	generate	Run4	generate/STIM_003.jpg
2589.117	1.728	1	generate	Run4	generate/STIM_003.jpg
2594.384	0.929	1	generate	Run4	generate/STIM_003.jpg
2597.423	1.676	1	generate	Run4	generate/STIM_003.jpg
2601.421	1.41	1	generate	Run4	generate/STIM_004.jpg
2605.201	1.521	1	generate	Run4	generate/STIM_004.jpg
2609.336	1.05	1	generate	Run4	generate/STIM_004.jpg
2612.702	1.705	1	generate	Run4	generate/STIM_004.jpg
2616.684	1.635	1	generate	Run4	generate/STIM_004.jpg
2622.305	1.014	1	generate	Run4	generate/STIM_005.jpg
2626.552	1.531	0	generate	Run4	generate/STIM_005.jpg
2631.308	1.021	1	generate	Run4	generate/STIM_005.jpg
2635.699	1.458	1	generate	Run4	generate/STIM_005.jpg
2641.119	1.499	1	generate	Run4	generate/STIM_005.jpg
2646.571	0.837	1	generate	Run4	generate/STIM_006.jpg
2649.9	0.991	1	generate	Run4	generate/STIM_006.jpg
2652.967	0.991	1	generate	Run4	generate/STIM_006.jpg
2657.414	1.073	1	generate	Run4	generate/STIM_006.jpg
2660.648	1.579	1	generate	Run4	generate/STIM_006.jpg
2665.882	1.713	1	generate	Run4	generate/STIM_007.jpg
2669.684	1.464	1	generate	Run4	generate/STIM_007.jpg
2673.543	1.295	1	generate	Run4	generate/STIM_007.jpg
2677.185	1.026	1	generate	Run4	generate/STIM_007.jpg
2681.661	1.596	1	generate	Run4	generate/STIM_007.jpg
2685.893	1.062	1	generate	Run4	generate/STIM_008.jpg
2690.699	1.654	1	generate	Run4	generate/STIM_008.jpg
2694.633	1.024	1	generate	Run4	generate/STIM_008.jpg
2698.512	1.212	1	generate	Run4	generate/STIM_008.jpg
2702.9	0.893	1	generate	Run4	generate/STIM_008.jpg
2707.378	0.785	1	generate	Run4	generate/STIM_009.jpg
2711.372	1.449	1	generate	Run4	generate/STIM_009.jpg
2715.249	1.476	1	generate	Run4	generate/STIM_009.jpg
2719.294	1.872	0	generate	Run4	generate/STIM_009.jpg
2725.157	1.137	1	generate	Run4	generate/STIM_009.jpg
2730.15	1.114	0	generate	Run4	generate/STIM_010.jpg
2733.563	1.291	1	generate	Run4	generate/STIM_010.jpg
2738.126	1.711	1	generate	Run4	generate/STIM_010.jpg
2742.734	1.31	1	generate	Run4	generate/STIM_010.jpg
2746.366	0.766	1	generate	Run4	generate/STIM_010.jpg
2750.156	1.474	1	generate	Run4	generate/STIM_011.jpg
2754.03	1.641	1	generate	Run4	generate/STIM_011.jpg
2759.32	1.079	1	generate	Run4	generate/STIM_011.jpg
2762.551	1.118	1	generate	Run4	generate/STIM_011.jpg
2767.374	1.46	1	generate	Run4	generate/STIM_011.jpg
2772.651	1.137	1	generate	Run4	generate/STIM_012.jpg
2776.489	1.647	1	generate	Run4	generate/STIM_012.jpg
2781.653	1.13	1	generate	Run4	generate/STIM_012.jpg
2785.143	1.075	1	generate	Run4	generate/STIM_012.jpg
2788.413	1.469	1	generate	Run4	generate/STIM_012.jpg
2793.008	0.943	1	generate	Run4	generate/STIM_013.jpg
2796.284	1.362	1	generate	Run4	generate/STIM_013.jpg
2800.269	1.074	1	generate	Run4	generate/STIM_013.jpg
2804.326	0.853	1	generate	Run4	generate/STIM_013.jpg
2808.659	1.019	0	generate	Run4	generate/STIM_013.jpg
2813.006	0.946	1	generate	Run4	generate/STIM_014.jpg
2816.422	1.286	1	generate	Run4	generate/STIM_014.jpg
2820.59	1.542	1	generate	Run4	generate/STIM_014.jpg
2825.489	1.607	1	generate	Run4	generate/STIM_014.jpg
2830.223	1.758	1	generate	Run4	generate/STIM_014.jpg
2835.585	1.528	1	generate	Run4	generate/STIM_015.jpg
2839.518	1.769	1	generate	Run4	generate/STIM_015.jpg
2845.092	1.313	1	generate	Run4	generate/STIM_015.jpg
2849.442	1.09	1	generate	Run4	generate/STIM_015.jpg
2854.379	1.471	1	generate	Run4	generate/STIM_015.jpg
2858.769	1.758	1	generate	Run4	generate/STIM_016.jpg
2862.564	1.404	1	generate	Run4	generate/STIM_016.jpg
2867.195	0.852	1	generate	Run4	generate/STIM_016.jpg
2870.11	1.836	1	generate	Run4	generate/STIM_016.jpg
2875.032	1.177	1	generate	Run4	generate/STIM_016.jpg
2879.521	1.027	1	generate	Run4	generate/STIM_017.jpg
2882.748	1.856	1	generate	Run4	generate/STIM_017.jpg
2887.509	1.709	1	generate	Run4	generate/STIM_017.jpg
2893.125	1.152	1	generate	Run4	generate/STIM_017.jpg
2896.78	0.77	1	generate	Run4	generate/STIM_017.jpg
2900.574	1.499	1	generate	Run4	generate/STIM_018.jpg
2905.866	1.062	1	generate	Run4	generate/STIM_018.jpg
2910.732	1.27	1	generate	Run4	generate/STIM_018.jpg
2915.009	1.637	1	generate	Run4	generate/STIM_018.jpg
2919.933	1.49	1	generate	Run4	generate/STIM_018.jpg
2923.989	1.3	0	generate	Run4	generate/STIM_019.jpg
2928.599	1.197	1	generate	Run4	generate/STIM_019.jpg
2932.582	1.124	1	generate	Run4	generate/STIM_019.jpg
2935.871	1.327	1	generate	Run4	generate/STIM_019.jpg
2939.604	1.177	1	generate	Run4	generate/STIM_019.jpg
2943.839	1.396	1	generate	Run4	generate/STIM_020.jpg
2947.635	1.209	1	generate	Run4	generate/STIM_020.jpg
2952.449	1.486	1	generate	Run4	generate/STIM_020.jpg
2956.781	1.842	1	generate	Run4	generate/STIM_020.jpg
2961.751	1.813	1	generate	Run4	generate/STIM_020.jpg
2965.916	1.668	1	generate	Run4	generate/STIM_021.jpg
2969.965	1.255	1	generate	Run4	generate/STIM_021.jpg
2973.774	1.584	1	generate	Run4	generate/STIM_021.jpg
2978.738	1.66	1	generate	Run4	generate/STIM_021.jpg
2983.926	1.67	1	generate	Run4	generate/STIM_021.jpg
2988.844	0.948	1	generate	Run4	generate/STIM_022.jpg
2991.995	1.42	1	generate	Run4	generate/STIM_022.jpg
2996.141	1.07	1	generate	Run4	generate/STIM_022.jpg
3001.086	1.402	0	generate	Run4	generate/STIM_022.jpg
3005.356	1.205	1	generate	Run4	generate/STIM_022.jpg
3008.915	1.85	1	generate	Run4	generate/STIM_023.jpg
3012.787	0.98	1	generate	Run4	generate/STIM_023.jpg
3017.157	1.564	1	generate	Run4	generate/STIM_023.jpg
3022.535	0.823	1	generate	Run4	generate/STIM_023.jpg
3026.42	1.672	1	generate	Run4	generate/STIM_023.jpg
3030.453	1.061	1	generate	Run4	generate/STIM_024.jpg
3034.894	1.082	1	generate	Run4	generate/STIM_024.jpg
3038.733	1.421	1	generate	Run4	generate/STIM_024.jpg
3043.857	1.388	1	generate	Run4	generate/STIM_024.jpg
3048.504	1.567	1	generate	Run4	generate/STIM_024.jpg
3053.084	0.467	1	repeat	Run4	repeat/STIM_000.jpg
3056.046	0.858	1	repeat	Run4	repeat/STIM_000.jpg
3059.24	0.638	1	repeat	Run4	repeat/STIM_000.jpg
3063.538	0.863	1	repeat	Run4	repeat/STIM_000.jpg
3068.302	0.549	1	repeat	Run4	repeat/STIM_000.jpg
3072.399	0.792	1	repeat	Run4	repeat/STIM_001.jpg
3076.884	0.722	1	repeat	Run4	repeat/STIM_001.jpg
3079.852	0.475	1	repeat	Run4	repeat/STIM_001.jpg
3084.108	0.724	1	repeat	Run4	repeat/STIM_001.jpg
3087.909	0.66	1	repeat	Run4	repeat/STIM_001.jpg
3091.401	0.519	1	repeat	Run4	repeat/STIM_002.jpg
3095.484	0.452	1	repeat	Run4	repeat/STIM_002.jpg
3099.086	0.496	1	repeat	Run4	repeat/STIM_002.jpg
3101.614	0.652	1	repeat	Run4	repeat/STIM_002.jpg
3104.379	0.808	1	repeat	Run4	repeat/STIM_002.jpg
3108.277	0.787	1	repeat	Run4	repeat/STIM_003.jpg
3112.732	0.633	1	repeat	Run4	repeat/STIM_003.jpg
3116.18	0.485	1	repeat	Run4	repeat/STIM_003.jpg
3119.763	0.825	1	repeat	Run4	repeat/STIM_003.jpg
3124.162	0.589	1	repeat	Run4	repeat/STIM_003.jpg
3128.337	0.447	1	repeat	Run4	repeat/STIM_004.jpg
3132.312	0.546	1	repeat	Run4	repeat/STIM_004.jpg
3135.433	0.548	1	repeat	Run4	repeat/STIM_004.jpg
3139.059	0.676	1	repeat	Run4	repeat/STIM_004.jpg
3143.063	0.828	1	repeat	Run4	repeat/STIM_004.jpg
3147.875	0.766	1	repeat	Run4	repeat/STIM_005.jpg
3151.043	0.487	1	repeat	Run4	repeat/STIM_005.jpg
3153.693	0.797	1	repeat	Run4	repeat/STIM_005.jpg
3157.738	0.754	1	repeat	Run4	repeat/STIM_005.jpg
3162.463	0.798	1	repeat	Run4	repeat/STIM_005.jpg
3166.81	0.71	1	repeat	Run4	repeat/STIM_006.jpg
3171.319	0.477	0	repeat	Run4	repeat/STIM_006.jpg
3175.361	0.659	1	repeat	Run4	repeat/STIM_006.jpg
3179.637	0.525	0	repeat	Run4	repeat/STIM_006.jpg
3183.934	0.559	1	repeat	Run4	repeat/STIM_006.jpg
3188.351	0.74	1	repeat	Run4	repeat/STIM_007.jpg
3192.219	0.878	1	repeat	Run4	repeat/STIM_007.jpg
3195.397	0.6	1	repeat	Run4	repeat/STIM_007.jpg
3198.959	0.722	1	repeat	Run4	repeat/STIM_007.jpg
3202.181	0.782	1	repeat	Run4	repeat/STIM_007.jpg
3206.579	0.494	1	repeat	Run4	repeat/STIM_008.jpg
3209.518	0.838	1	repeat	Run4	repeat/STIM_008.jpg
3214.228	0.809	1	repeat	Run4	repeat/STIM_008.jpg
3217.796	0.574	1	repeat	Run4	repeat/STIM_008.jpg
3220.796	0.723	1	repeat	Run4	repeat/STIM_008.jpg
3223.594	0.65	1	repeat	Run4	repeat/STIM_009.jpg
3227.794	0.804	1	repeat	Run4	repeat/STIM_009.jpg
3232.467	0.727	1	repeat	Run4	repeat/STIM_009.jpg
3236.06	0.704	1	repeat	Run4	repeat/STIM_009.jpg
3240.683	0.527	1	repeat	Run4	repeat/STIM_009.jpg
3244.562	0.698	1	repeat	Run4	repeat/STIM_010.jpg
3248.534	0.776	0	repeat	Run4	repeat/STIM_010.jpg
3251.315	0.562	1	repeat	Run4	repeat/STIM_010.jpg
3255.065	0.705	1	repeat	Run4	repeat/STIM_010.jpg
3259.231	0.878	1	repeat	Run4	repeat/STIM_010.jpg
3263.095	0.792	0	repeat	Run4	repeat/STIM_011.jpg
3267.254	0.612	1	repeat	Run4	repeat/STIM_011.jpg
3270.89	0.519	1	repeat	Run4	repeat/STIM_011.jpg
3273.578	0.553	1	repeat	Run4	repeat/STIM_011.jpg
3276.605	0.587	1	repeat	Run4	repeat/STIM_011.jpg
3279.296	0.53	1	repeat	Run4	repeat/STIM_012.jpg
3282.61	0.827	1	repeat	Run4	repeat/STIM_012.jpg
3285.913	0.748	1	repeat	Run4	repeat/STIM_012.jpg
3289.96	0.776	1	repeat	Run4	repeat/STIM_012.jpg
3293.303	0.577	1	repeat	Run4	repeat/STIM_012.jpg
3297.188	0.695	1	repeat	Run4	repeat/STIM_013.jpg
3300.483	0.817	1	repeat	Run4	repeat/STIM_013.jpg
3303.478	0.785	1	repeat	Run4	repeat/STIM_013.jpg
3307.416	0.741	1	repeat	Run4	repeat/STIM_013.jpg
3311.841	0.487	1	repeat	Run4	repeat/STIM_013.jpg
3316.007	0.727	1	repeat	Run4	repeat/STIM_014.jpg
3319.564	0.763	1	repeat	Run4	repeat/STIM_014.jpg
3323.251	0.488	1	repeat	Run4	repeat/STIM_014.jpg
3327.475	0.775	1	repeat	Run4	repeat/STIM_014.jpg
3331.238	0.892	1	repeat	Run4	repeat/STIM_014.jpg
