onset	duration	accuracy_binary	trial_type	learning_stage	stimulus
0.0	1.614	0	generate	Run1	generate/STIM_000.jpg
5.009	1.987	1	generate	Run1	generate/STIM_000.jpg
9.164	1.692	1	generate	Run1	generate/STIM_000.jpg
14.726	1.094	1	generate	Run1	generate/STIM_000.jpg
18.695	1.734	1	generate	Run1	generate/STIM_000.jpg
23.937	2.143	1	generate	Run1	generate/STIM_001.jpg
29.719	1.58	1	generate	Run1	generate/STIM_001.jpg
34.301	1.854	1	generate	Run1	generate/STIM_001.jpg
38.741	2.341	1	generate	Run1	generate/STIM_001.jpg
44.518	1.766	1	generate	Run1	generate/STIM_001.jpg
49.267	1.726	0	generate	Run1	generate/STIM_002.jpg
53.638	1.948	1	generate	Run1	generate/STIM_002.jpg
58.937	2.648	0	generate	Run1	generate/STIM_002.jpg
65.262	1.952	1	generate	Run1	generate/STIM_002.jpg
69.823	1.318	1	generate	Run1	generate/STIM_002.jpg
74.857	1.485	0	generate	Run1	generate/STIM_003.jpg
80.112	1.954	1	generate	Run1	generate/STIM_003.jpg
85.979	1.155	1	generate	Run1	generate/STIM_003.jpg
90.642	2.402	1	generate	Run1	generate/STIM_003.jpg
95.16	2.043	1	generate	Run1	generate/STIM_003.jpg
99.733	1.225	1	generate	Run1	generate/STIM_004.jpg
103.072	1.613	1	generate	Run1	generate/STIM_004.jpg
107.748	1.817	1	generate	Run1	generate/STIM_004.jpg
112.736	1.136	1	generate	Run1	generate/STIM_004.jpg
117.32	1.228	1	generate	Run1	generate/STIM_004.jpg
121.63	1.215	1	generate	Run1	generate/STIM_005.jpg
125.3	2.75	1	generate	Run1	generate/STIM_005.jpg
130.776	1.865	0	generate	Run1	generate/STIM_005.jpg
136.141	1.11	1	generate	Run1	generate/STIM_005.jpg
140.34	1.203	1	generate	Run1	generate/STIM_005.jpg
144.69	2.619	0	generate	Run1	generate/STIM_006.jpg
150.492	1.943	0	generate	Run1	generate/STIM_006.jpg
155.327	2.528	1	generate	Run1	generate/STIM_006.jpg
160.862	1.072	1	generate	Run1	generate/STIM_006.jpg
165.822	1.857	1	generate	Run1	generate/STIM_006.jpg
170.545	2.371	0	generate	Run1	generate/STIM_007.jpg
176.477	1.645	1	generate	Run1	generate/STIM_007.jpg
180.699	1.796	0	generate	Run1	generate/STIM_007.jpg
186.405	2.217	0	generate	Run1	generate/STIM_007.jpg
191.894	2.061	1	generate	Run1	generate/STIM_007.jpg
196.273	2.326	0	generate	Run1	generate/STIM_008.jpg
200.65	1.433	1	generate	Run1	generate/STIM_008.jpg
204.623	2.473	0	generate	Run1	generate/STIM_008.jpg
209.501	2.448	1	generate	Run1	generate/STIM_008.jpg
215.75	1.323	1	generate	Run1	generate/STIM_008.jpg
219.405	1.495	1	generate	Run1	generate/STIM_009.jpg
223.451	2.19	0	generate	Run1	generate/STIM_009.jpg
229.047	1.156	0	generate	Run1	generate/STIM_009.jpg
232.79	1.294	0	generate	Run1	generate/STIM_009.jpg
236.571	1.716	1	generate	Run1	generate/STIM_009.jpg
241.401	2.59	1	generate	Run1	generate/STIM_010.jpg
246.604	1.66	1	generate	Run1	generate/STIM_010.jpg
251.925	1.928	1	generate	Run1	generate/STIM_010.jpg
255.908	1.321	1	generate	Run1	generate/STIM_010.jpg
261.008	1.222	0	generate	Run1	generate/STIM_010.jpg
265.742	1.405	1	generate	Run1	generate/STIM_011.jpg
270.519	1.458	0	generate	Run1	generate/STIM_011.jpg
275.376	1.587	1	generate	Run1	generate/STIM_011.jpg
279.812	2.103	1	generate	Run1	generate/STIM_011.jpg
285.222	1.705	1	generate	Run1	generate/STIM_011.jpg
290.727	2.702	1	generate	Run1	generate/STIM_012.jpg
296.951	1.846	1	generate	Run1	generate/STIM_012.jpg
302.612	1.237	1	generate	Run1	generate/STIM_012.jpg
306.09	1.2	1	generate	Run1	generate/STIM_012.jpg
311.159	1.468	1	generate	Run1	generate/STIM_012.jpg
315.738	1.556	0	generate	Run1	generate/STIM_013.jpg
321.15	2.15	1	generate	Run1	generate/STIM_013.jpg
325.767	1.676	1	generate	Run1	generate/STIM_013.jpg
331.115	2.371	0	generate	Run1	generate/STIM_013.jpg
337.215	2.162	1	generate	Run1	generate/STIM_013.jpg
341.721	2.901	0	generate	Run1	generate/STIM_014.jpg
347.797	2.71	1	generate	Run1	generate/STIM_014.jpg
354.007	1.906	0	generate	Run1	generate/STIM_014.jpg
359.101	1.583	1	generate	Run1	generate/STIM_014.jpg
364.619	1.406	1	generate	Run1	generate/STIM_014.jpg
369.432	1.281	0	generate	Run1	generate/STIM_015.jpg
373.375	1.195	1	generate	Run1	generate/STIM_015.jpg
377.736	1.852	1	generate	Run1	generate/STIM_015.jpg
383.172	2.047	1	generate	Run1	generate/STIM_015.jpg
388.364	1.893	1	generate	Run1	generate/STIM_015.jpg
394.121	1.712	1	generate	Run1	generate/STIM_016.jpg
399.353	1.567	0	generate	Run1	generate/STIM_016.jpg
403.331	1.216	1	generate	Run1	generate/STIM_016.jpg
406.574	1.795	1	generate	Run1	generate/STIM_016.jpg
411.253	1.906	0	generate	Run1	generate/STIM_016.jpg
416.987	1.487	0	generate	Run1	generate/STIM_017.jpg
421.857	2.099	1	generate	Run1	generate/STIM_017.jpg
427.972	1.1	1	generate	Run1	generate/STIM_017.jpg
432.01	1.152	1	generate	Run1	generate/STIM_017.jpg
436.959	1.297	0	generate	Run1	generate/STIM_017.jpg
441.139	1.253	1	generate	Run1	generate/STIM_018.jpg
445.354	2.049	0	generate	Run1	generate/STIM_018.jpg
450.089	1.619	1	generate	Run1	generate/STIM_018.jpg
454.36	1.776	1	generate	Run1	generate/STIM_018.jpg
458.458	2.306	1	generate	Run1	generate/STIM_018.jpg
463.92	2.427	1	generate	Run1	generate/STIM_019.jpg
469.606	1.792	1	generate	Run1	generate/STIM_019.jpg
475.357	2.497	1	generate	Run1	generate/STIM_019.jpg
481.642	1.9	1	generate	Run1	generate/STIM_019.jpg
486.396	1.589	1	generate	Run1	generate/STIM_019.jpg
491.583	1.753	1	generate	Run1	generate/STIM_020.jpg
497.057	1.244	1	generate	Run1	generate/STIM_020.jpg
502.124	1.383	0	generate	Run1	generate/STIM_020.jpg
506.49	1.362	1	generate	Run1	generate/STIM_020.jpg
510.675	2.183	1	generate	Run1	generate/STIM_020.jpg
515.285	1.379	1	generate	Run1	generate/STIM_021.jpg
518.921	2.8	0	generate	Run1	generate/STIM_021.jpg
524.675	1.723	1	generate	Run1	generate/STIM_021.jpg
529.769	2.021	0	generate	Run1	generate/STIM_021.jpg
534.519	1.635	1	generate	Run1	generate/STIM_021.jpg
539.769	1.914	0	generate	Run1	generate/STIM_022.jpg
544.567	1.505	1	generate	Run1	generate/STIM_022.jpg
549.165	1.179	1	generate	Run1	generate/STIM_022.jpg
553.541	1.334	1	generate	Run1	generate/STIM_022.jpg
557.555	1.083	1	generate	Run1	generate/STIM_022.jpg
562.597	2.124	1	generate	Run1	generate/STIM_023.jpg
567.286	2.348	1	generate	Run1	generate/STIM_023.jpg
573.214	2.003	0	generate	Run1	generate/STIM_023.jpg
579.142	1.588	1	generate	Run1	generate/STIM_023.jpg
584.439	1.923	1	generate	Run1	generate/STIM_023.jpg
589.225	2.054	0	generate	Run1	generate/STIM_024.jpg
594.844	1.157	0	generate	Run1	generate/STIM_024.jpg
598.502	2.355	1	generate	Run1	generate/STIM_024.jpg
602.936	1.258	1	generate	Run1	generate/STIM_024.jpg
607.227	1.931	1	generate	Run1	generate/STIM_024.jpg
612.457	0.644	1	repeat	Run1	repeat/STIM_000.jpg
615.58	0.827	1	repeat	Run1	repeat/STIM_000.jpg
620.316	0.686	1	repeat	Run1	repeat/STIM_000.jpg
623.806	0.868	1	repeat	Run1	repeat/STIM_000.jpg
628.009	0.544	1	repeat	Run1	repeat/STIM_000.jpg
631.096	0.624	1	repeat	Run1	repeat/STIM_001.jpg
635.492	0.854	1	repeat	Run1	repeat/STIM_001.jpg
640.3	0.678	1	repeat	Run1	repeat/STIM_001.jpg
644.8	0.78	1	repeat	Run1	repeat/STIM_001.jpg
649.517	0.556	1	repeat	Run1	repeat/STIM_001.jpg
652.514	0.966	1	repeat	Run1	repeat/STIM_002.jpg
657.138	0.64	1	repeat	Run1	repeat/STIM_002.jpg
661.181	0.649	1	repeat	Run1	repeat/STIM_002.jpg
665.581	0.748	0	repeat	Run1	repeat/STIM_002.jpg
668.985	0.519	1	repeat	Run1	repeat/STIM_002.jpg
671.562	0.518	1	repeat	Run1	repeat/STIM_003.jpg
674.64	0.894	1	repeat	Run1	repeat/STIM_003.jpg
679.491	0.711	1	repeat	Run1	repeat/STIM_003.jpg
682.643	0.717	1	repeat	Run1	repeat/STIM_003.jpg
685.506	0.518	1	repeat	Run1	repeat/STIM_003.jpg
688.353	0.825	1	repeat	Run1	repeat/STIM_004.jpg
692.391	0.963	1	repeat	Run1	repeat/STIM_004.jpg
696.872	0.607	1	repeat	Run1	repeat/STIM_004.jpg
700.242	0.899	1	repeat	Run1	repeat/STIM_004.jpg
703.503	0.681	1	repeat	Run1	repeat/STIM_004.jpg
706.919	0.554	1	repeat	Run1	repeat/STIM_005.jpg
710.456	0.579	1	repeat	Run1	repeat/STIM_005.jpg
714.849	0.837	1	repeat	Run1	repeat/STIM_005.jpg
719.114	0.567	1	repeat	Run1	repeat/STIM_005.jpg
722.399	0.796	1	repeat	Run1	repeat/STIM_005.jpg
727.047	0.647	1	repeat	Run1	repeat/STIM_006.jpg
730.013	0.527	1	repeat	Run1	repeat/STIM_006.jpg
734.31	0.758	1	repeat	Run1	repeat/STIM_006.jpg
737.348	0.507	1	repeat	Run1	repeat/STIM_006.jpg
740.573	0.536	1	repeat	Run1	repeat/STIM_006.jpg
743.97	0.716	1	repeat	Run1	repeat/STIM_007.jpg
748.569	0.911	1	repeat	Run1	repeat/STIM_007.jpg
752.379	0.663	1	repeat	Run1	repeat/STIM_007.jpg
755.441	0.784	1	repeat	Run1	repeat/STIM_007.jpg
758.354	0.934	1	repeat	Run1	repeat/STIM_007.jpg
763.297	0.959	1	repeat	Run1	repeat/STIM_008.jpg
767.149	0.979	1	repeat	Run1	repeat/STIM_008.jpg
771.914	0.509	1	repeat	Run1	repeat/STIM_008.jpg
776.136	0.712	1	repeat	Run1	repeat/STIM_008.jpg
780.445	0.948	1	repeat	Run1	repeat/STIM_008.jpg
784.985	0.661	1	repeat	Run1	repeat/STIM_009.jpg
788.557	0.612	1	repeat	Run1	repeat/STIM_009.jpg
791.714	0.933	1	repeat	Run1	repeat/STIM_009.jpg
796.446	0.975	1	repeat	Run1	repeat/STIM_009.jpg
799.776	0.873	1	repeat	Run1	repeat/STIM_009.jpg
804.315	0.585	1	repeat	Run1	repeat/STIM_010.jpg
808.821	0.666	1	repeat	Run1	repeat/STIM_010.jpg
812.131	0.822	0	repeat	Run1	repeat/STIM_010.jpg
815.206	0.798	1	repeat	Run1	repeat/STIM_010.jpg
819.265	0.516	1	repeat	Run1	repeat/STIM_010.jpg
822.369	0.683	1	repeat	Run1	repeat/STIM_011.jpg
826.964	0.862	1	repeat	Run1	repeat/STIM_011.jpg
830.539	0.571	1	repeat	Run1	repeat/STIM_011.jpg
834.849	0.978	1	repeat	Run1	repeat/STIM_011.jpg
839.797	0.864	1	repeat	Run1	repeat/STIM_011.jpg
842.904	0.945	1	repeat	Run1	repeat/STIM_012.jpg
846.629	0.857	1	repeat	Run1	repeat/STIM_012.jpg
850.271	0.541	1	repeat	Run1	repeat/STIM_012.jpg
853.446	0.513	1	repeat	Run1	repeat/STIM_012.jpg
856.385	0.844	1	repeat	Run1	repeat/STIM_012.jpg
860.068	0.899	1	repeat	Run1	repeat/STIM_013.jpg
864.306	0.861	1	repeat	Run1	repeat/STIM_013.jpg
867.281	0.912	1	repeat	Run1	repeat/STIM_013.jpg
871.559	0.918	1	repeat	Run1	repeat/STIM_013.jpg
875.079	0.574	1	repeat	Run1	repeat/STIM_013.jpg
878.85	0.806	1	repeat	Run1	repeat/STIM_014.jpg
882.055	0.932	1	repeat	Run1	repeat/STIM_014.jpg
884.997	0.843	1	repeat	Run1	repeat/STIM_014.jpg
889.139	0.914	1	repeat	Run1	repeat/STIM_014.jpg
894.062	0.923	1	repeat	Run1	repeat/STIM_014.jpg
897.202	1.729	1	generate	Run2	generate/STIM_000.jpg
901.088	1.024	0	generate	Run2	generate/STIM_000.jpg
904.134	1.64	0	generate	Run2	generate/STIM_000.jpg
907.819	1.123	1	generate	Run2	generate/STIM_000.jpg
912.836	1.187	1	generate	Run2	generate/STIM_000.jpg
916.781	1.491	1	generate	Run2	generate/STIM_001.jpg
921.159	1.633	1	generate	Run2	generate/STIM_001.jpg
926.538	1.294	1	generate	Run2	generate/STIM_001.jpg
930.648	1.244	1	generate	Run2	generate/STIM_001.jpg
934.481	1.257	1	generate	Run2	generate/STIM_001.jpg
938.375	2.362	1	generate	Run2	generate/STIM_002.jpg
944.736	1.155	0	generate	Run2	generate/STIM_002.jpg
949.665	1.063	1	generate	Run2	generate/STIM_002.jpg
953.404	1.658	1	generate	Run2	generate/STIM_002.jpg
958.103	1.167	0	generate	Run2	generate/STIM_002.jpg
961.71	1.697	1	generate	Run2	generate/STIM_003.jpg
965.685	1.101	1	generate	Run2	generate/STIM_003.jpg
970.243	1.078	1	generate	Run2	generate/STIM_003.jpg
974.722	0.922	1	generate	Run2	generate/STIM_003.jpg
979.179	1.105	1	generate	Run2	generate/STIM_003.jpg
983.98	2.277	1	generate	Run2	generate/STIM_004.jpg
990.213	1.737	1	generate	Run2	generate/STIM_004.jpg
995.544	1.828	1	generate	Run2	generate/STIM_004.jpg
1000.886	1.974	1	generate	Run2	generate/STIM_004.jpg
1006.272	1.265	1	generate	Run2	generate/STIM_004.jpg
1009.923	2.522	1	generate	Run2	generate/STIM_005.jpg
1016.2	2.142	1	generate	Run2	generate/STIM_005.jpg
1020.955	1.101	1	generate	Run2	generate/STIM_005.jpg
1024.182	1.813	0	generate	Run2	generate/STIM_005.jpg
1028.36	1.985	1	generate	Run2	generate/STIM_005.jpg
1032.987	2.13	1	generate	Run2	generate/STIM_006.jpg
1038.355	1.901	1	generate	Run2	generate/STIM_006.jpg
1043.385	1.17	1	generate	Run2	generate/STIM_006.jpg
1048.026	1.871	1	generate	Run2	generate/STIM_006.jpg
1052.481	2.052	1	generate	Run2	generate/STIM_006.jpg
1057.557	2.034	1	generate	Run2	generate/STIM_007.jpg
1063.011	1.732	1	generate	Run2	generate/STIM_007.jpg
1068.431	1.577	1	generate	Run2	generate/STIM_007.jpg
1073.874	1.13	1	generate	Run2	generate/STIM_007.jpg
1078.631	1.255	1	generate	Run2	generate/STIM_007.jpg
1083.163	1.571	1	generate	Run2	generate/STIM_008.jpg
1087.97	1.127	1	generate	Run2	generate/STIM_008.jpg
1092.724	1.742	1	generate	Run2	generate/STIM_008.jpg
1097.861	1.184	1	generate	Run2	generate/STIM_008.jpg
1102.355	1.713	1	generate	Run2	generate/STIM_008.jpg
1107.202	2.02	1	generate	Run2	generate/STIM_009.jpg
1112.489	1.279	1	generate	Run2	generate/STIM_009.jpg
1117.56	2.208	1	generate	Run2	generate/STIM_009.jpg
1122.062	1.88	1	generate	Run2	generate/STIM_009.jpg
1126.547	2.071	1	generate	Run2	generate/STIM_009.jpg
1130.772	1.684	1	generate	Run2	generate/STIM_010.jpg
1136.137	2.109	1	generate	Run2	generate/STIM_010.jpg
1141.212	2.157	1	generate	Run2	generate/STIM_010.jpg
1146.523	1.431	1	generate	Run2	generate/STIM_010.jpg
1150.0	1.338	1	generate	Run2	generate/STIM_010.jpg
1154.415	1.287	0	generate	Run2	generate/STIM_011.jpg
1157.838	1.006	1	generate	Run2	generate/STIM_011.jpg
1160.968	2.053	1	generate	Run2	generate/STIM_011.jpg
1165.487	1.017	0	generate	Run2	generate/STIM_011.jpg
1169.575	1.076	1	generate	Run2	generate/STIM_011.jpg
1173.505	2.523	1	generate	Run2	generate/STIM_012.jpg
1178.354	1.259	1	generate	Run2	generate/STIM_012.jpg
1183.047	1.851	1	generate	Run2	generate/STIM_012.jpg
1187.574	1.103	1	generate	Run2	generate/STIM_012.jpg
1190.962	1.438	0	generate	Run2	generate/STIM_012.jpg
1195.586	2.082	1	generate	Run2	generate/STIM_013.jpg
1200.341	1.309	1	generate	Run2	generate/STIM_013.jpg
1204.264	1.659	1	generate	Run2	generate/STIM_013.jpg
1208.915	1.712	1	generate	Run2	generate/STIM_013.jpg
1214.281	1.24	1	generate	Run2	generate/STIM_013.jpg
1218.539	2.385	1	generate	Run2	generate/STIM_014.jpg
1222.993	1.96	1	generate	Run2	generate/STIM_014.jpg
1228.418	2.005	1	generate	Run2	generate/STIM_014.jpg
1233.78	1.525	1	generate	Run2	generate/STIM_014.jpg
1237.395	1.731	1	generate	Run2	generate/STIM_014.jpg
1242.75	1.043	1	generate	Run2	generate/STIM_015.jpg
1246.369	1.358	0	generate	Run2	generate/STIM_015.jpg
1251.552	2.094	1	generate	Run2	generate/STIM_015.jpg
1257.0	1.153	0	generate	Run2	generate/STIM_015.jpg
1261.432	0.85	1	generate	Run2	generate/STIM_015.jpg
1266.002	1.327	1	generate	Run2	generate/STIM_016.jpg
1269.76	2.289	0	generate	Run2	generate/STIM_016.jpg
1276.015	2.082	1	generate	Run2	generate/STIM_016.jpg
1280.172	0.881	1	generate	Run2	generate/STIM_016.jpg
1284.093	2.057	1	generate	Run2	generate/STIM_016.jpg
1288.663	1.678	1	generate	Run2	generate/STIM_017.jpg
1292.889	1.18	0	generate	Run2	generate/STIM_017.jpg
1296.189	1.904	1	generate	Run2	generate/STIM_017.jpg
1300.542	1.63	1	generate	Run2	generate/STIM_017.jpg
1304.573	0.974	1	generate	Run2	generate/STIM_017.jpg
1308.603	1.641	0	generate	Run2	generate/STIM_018.jpg
1312.849	1.66	1	generate	Run2	generate/STIM_018.jpg
1317.083	1.108	1	generate	Run2	generate/STIM_018.jpg
1320.317	1.18	1	generate	Run2	generate/STIM_018.jpg
1323.774	2.013	1	generate	Run2	generate/STIM_018.jpg
1329.406	2.046	1	generate	Run2	generate/STIM_019.jpg
1334.399	1.298	1	generate	Run2	generate/STIM_019.jpg
1339.255	1.711	1	generate	Run2	generate/STIM_019.jpg
1343.547	0.832	1	generate	Run2	generate/STIM_019.jpg
1346.934	0.943	1	generate	Run2	generate/STIM_019.jpg
1351.51	1.531	0	generate	Run2	generate/STIM_020.jpg
1355.165	2.322	1	generate	Run2	generate/STIM_020.jpg
1360.6	1.147	1	generate	Run2	generate/STIM_020.jpg
1363.82	1.312	1	generate	Run2	generate/STIM_020.jpg
1368.633	1.989	1	generate	Run2	generate/STIM_020.jpg
1374.075	1.798	1	generate	Run2	generate/STIM_021.jpg
1378.357	1.95	1	generate	Run2	generate/STIM_021.jpg
1383.878	2.105	1	generate	Run2	generate/STIM_021.jpg
1388.642	1.948	1	generate	Run2	generate/STIM_021.jpg
1393.574	1.61	1	generate	Run2	generate/STIM_021.jpg
1397.881	2.03	1	generate	Run2	generate/STIM_022.jpg
1403.557	1.001	0	generate	Run2	generate/STIM_022.jpg
1407.064	1.306	0	generate	Run2	generate/STIM_022.jpg
1411.058	1.54	0	generate	Run2	generate/STIM_022.jpg
1415.109	2.017	1	generate	Run2	generate/STIM_022.jpg
1419.613	1.396	1	generate	Run2	generate/STIM_023.jpg
1424.524	2.253	1	generate	Run2	generate/STIM_023.jpg
1429.631	1.615	0	generate	Run2	generate/STIM_023.jpg
1434.433	1.921	1	generate	Run2	generate/STIM_023.jpg
1438.477	1.748	1	generate	Run2	generate/STIM_023.jpg
1443.033	2.083	1	generate	Run2	generate/STIM_024.jpg
1447.341	1.092	0	generate	Run2	generate/STIM_024.jpg
1451.188	2.212	1	generate	Run2	generate/STIM_024.jpg
1456.061	1.362	0	generate	Run2	generate/STIM_024.jpg
1460.684	1.416	1	generate	Run2	generate/STIM_024.jpg
1465.117	0.805	1	repeat	Run2	repeat/STIM_000.jpg
1468.33	0.73	1	repeat	Run2	repeat/STIM_000.jpg
1472.513	0.613	1	repeat	Run2	repeat/STIM_000.jpg
1476.203	0.676	0	repeat	Run2	repeat/STIM_000.jpg
1480.882	0.641	1	repeat	Run2	repeat/STIM_000.jpg
1485.143	0.596	1	repeat	Run2	repeat/STIM_001.jpg
1488.172	0.795	1	repeat	Run2	repeat/STIM_001.jpg
1491.155	0.954	1	repeat	Run2	repeat/STIM_001.jpg
1495.821	0.706	1	repeat	Run2	repeat/STIM_001.jpg
1499.155	0.774	1	repeat	Run2	repeat/STIM_001.jpg
1501.952	0.701	1	repeat	Run2	repeat/STIM_002.jpg
1506.24	0.891	1	repeat	Run2	repeat/STIM_002.jpg
1510.297	0.698	1	repeat	Run2	repeat/STIM_002.jpg
1514.676	0.866	1	repeat	Run2	repeat/STIM_002.jpg
1518.359	0.514	1	repeat	Run2	repeat/STIM_002.jpg
1521.03	0.683	1	repeat	Run2	repeat/STIM_003.jpg
1524.962	0.969	1	repeat	Run2	repeat/STIM_003.jpg
1528.496	0.936	1	repeat	Run2	repeat/STIM_003.jpg
1532.73	0.512	1	repeat	Run2	repeat/STIM_003.jpg
1536.014	0.773	1	repeat	Run2	repeat/STIM_003.jpg
1540.508	0.881	1	repeat	Run2	repeat/STIM_004.jpg
1544.893	0.864	1	repeat	Run2	repeat/STIM_004.jpg
1548.778	0.661	1	repeat	Run2	repeat/STIM_004.jpg
1551.766	0.984	1	repeat	Run2	repeat/STIM_004.jpg
1555.04	0.835	1	repeat	Run2	repeat/STIM_004.jpg
1558.518	0.965	1	repeat	Run2	repeat/STIM_005.jpg
1562.616	0.67	1	repeat	Run2	repeat/STIM_005.jpg
1565.818	0.697	1	repeat	Run2	repeat/STIM_005.jpg
1569.577	0.766	1	repeat	Run2	repeat/STIM_005.jpg
1572.436	0.847	1	repeat	Run2	repeat/STIM_005.jpg
1575.413	0.818	1	repeat	Run2	repeat/STIM_006.jpg
1579.131	0.615	0	repeat	Run2	repeat/STIM_006.jpg
1582.353	0.718	1	repeat	Run2	repeat/STIM_006.jpg
1585.842	0.675	1	repeat	Run2	repeat/STIM_006.jpg
1588.606	0.707	1	repeat	Run2	repeat/STIM_006.jpg
1593.197	0.989	1	repeat	Run2	repeat/STIM_007.jpg
1596.264	0.658	1	repeat	Run2	repeat/STIM_007.jpg
1599.292	0.801	1	repeat	Run2	repeat/STIM_007.jpg
1603.71	0.858	1	repeat	Run2	repeat/STIM_007.jpg
1608.166	0.69	1	repeat	Run2	repeat/STIM_007.jpg
1611.915	0.642	1	repeat	Run2	repeat/STIM_008.jpg
1615.112	0.766	1	repeat	Run2	repeat/STIM_008.jpg
1617.899	0.843	1	repeat	Run2	repeat/STIM_008.jpg
1621.995	0.866	1	repeat	Run2	repeat/STIM_008.jpg
1625.052	0.88	1	repeat	Run2	repeat/STIM_008.jpg
1628.52	0.498	1	repeat	Run2	repeat/STIM_009.jpg
1632.065	0.845	1	repeat	Run2	repeat/STIM_009.jpg
1636.052	0.799	1	repeat	Run2	repeat/STIM_009.jpg
1639.17	0.607	1	repeat	Run2	repeat/STIM_009.jpg
1643.624	0.68	1	repeat	Run2	repeat/STIM_009.jpg
1647.241	0.881	1	repeat	Run2	repeat/STIM_010.jpg
1650.99	0.745	1	repeat	Run2	repeat/STIM_010.jpg
1655.736	0.837	1	repeat	Run2	repeat/STIM_010.jpg
1659.529	0.955	1	repeat	Run2	repeat/STIM_010.jpg
1664.282	0.589	1	repeat	Run2	repeat/STIM_010.jpg
1668.701	0.817	1	repeat	Run2	repeat/STIM_011.jpg
1672.492	0.63	1	repeat	Run2	repeat/STIM_011.jpg
1675.197	0.972	1	repeat	Run2	repeat/STIM_011.jpg
1678.86	0.704	1	repeat	Run2	repeat/STIM_011.jpg
1682.458	0.888	1	repeat	Run2	repeat/STIM_011.jpg
1685.475	0.496	0	repeat	Run2	repeat/STIM_012.jpg
1689.603	0.713	1	repeat	Run2	repeat/STIM_012.jpg
1692.915	0.892	1	repeat	Run2	repeat/STIM_012.jpg
1697.587	0.661	1	repeat	Run2	repeat/STIM_012.jpg
1700.524	0.566	1	repeat	Run2	repeat/STIM_012.jpg
1703.144	0.585	1	repeat	Run2	repeat/STIM_013.jpg
1706.841	0.578	1	repeat	Run2	repeat/STIM_013.jpg
1711.017	0.81	1	repeat	Run2	repeat/STIM_013.jpg
1714.502	0.537	1	repeat	Run2	repeat/STIM_013.jpg
1718.548	0.852	1	repeat	Run2	repeat/STIM_013.jpg
1722.507	0.825	1	repeat	Run2	repeat/STIM_014.jpg
1726.286	0.891	1	repeat	Run2	repeat/STIM_014.jpg
1730.407	0.522	1	repeat	Run2	repeat/STIM_014.jpg
1733.174	0.615	1	repeat	Run2	repeat/STIM_014.jpg
1735.98	0.669	1	repeat	Run2	repeat/STIM_014.jpg
1740.308	1.342	1	generate	Run3	generate/STIM_000.jpg
1745.654	1.665	1	generate	Run3	generate/STIM_000.jpg
1749.529	1.373	1	generate	Run3	generate/STIM_000.jpg
1753.078	1.794	0	generate	Run3	generate/STIM_000.jpg
1757.414	0.849	1	generate	Run3	generate/STIM_000.jpg
1760.802	1.523	1	generate	Run3	generate/STIM_001.jpg
1766.27	0.878	1	generate	Run3	generate/STIM_001.jpg
1769.6	1.974	1	generate	Run3	generate/STIM_001.jpg
1774.192	1.043	1	generate	Run3	generate/STIM_001.jpg
1779.067	1.985	1	generate	Run3	generate/STIM_001.jpg
1783.533	1.924	1	generate	Run3	generate/STIM_002.jpg
1788.954	1.21	1	generate	Run3	generate/STIM_002.jpg
1793.476	1.429	1	generate	Run3	generate/STIM_002.jpg
1798.482	1.654	1	generate	Run3	generate/STIM_002.jpg
1803.798	1.954	1	generate	Run3	generate/STIM_002.jpg
1808.067	2.01	1	generate	Run3	generate/STIM_003.jpg
1813.906	1.471	1	generate	Run3	generate/STIM_003.jpg
1818.579	1.86	1	generate	Run3	generate/STIM_003.jpg
1824.072	1.796	1	generate	Run3	generate/STIM_003.jpg
1828.135	1.177	1	generate	Run3	generate/STIM_003.jpg
1833.046	0.929	1	generate	Run3	generate/STIM_004.jpg
1837.184	1.507	1	generate	Run3	generate/STIM_004.jpg
1842.379	1.836	1	generate	Run3	generate/STIM_004.jpg
1847.191	1.043	1	generate	Run3	generate/STIM_004.jpg
1852.181	1.632	1	generate	Run3	generate/STIM_004.jpg
1857.364	1.938	1	generate	Run3	generate/STIM_005.jpg
1861.526	1.489	1	generate	Run3	generate/STIM_005.jpg
1866.648	1.441	1	generate	Run3	generate/STIM_005.jpg
1871.782	1.146	1	generate	Run3	generate/STIM_005.jpg
1875.857	1.236	1	generate	Run3	generate/STIM_005.jpg
1879.795	1.006	1	generate	Run3	generate/STIM_006.jpg
1883.829	0.879	1	generate	Run3	generate/STIM_006.jpg
1887.997	2.072	1	generate	Run3	generate/STIM_006.jpg
1892.45	1.624	1	generate	Run3	generate/STIM_006.jpg
1897.338	0.889	1	generate	Run3	generate/STIM_006.jpg
1902.212	1.94	0	generate	Run3	generate/STIM_007.jpg
1907.657	1.861	1	generate	Run3	generate/STIM_007.jpg
1912.89	1.652	1	generate	Run3	generate/STIM_007.jpg
1917.609	0.833	1	generate	Run3	generate/STIM_007.jpg
1922.21	1.853	1	generate	Run3	generate/STIM_007.jpg
1927.68	1.376	1	generate	Run3	generate/STIM_008.jpg
1931.927	1.056	1	generate	Run3	generate/STIM_008.jpg
1936.571	1.926	1	generate	Run3	generate/STIM_008.jpg
1941.942	1.262	1	generate	Run3	generate/STIM_008.jpg
1945.389	1.255	1	generate	Run3	generate/STIM_008.jpg
1948.901	0.863	1	generate	Run3	generate/STIM_009.jpg
1953.063	0.957	1	generate	Run3	generate/STIM_009.jpg
1957.834	1.061	1	generate	Run3	generate/STIM_009.jpg
1961.134	1.989	1	generate	Run3	generate/STIM_009.jpg
1965.352	1.698	1	generate	Run3	generate/STIM_009.jpg
1970.42	1.858	1	generate	Run3	generate/STIM_010.jpg
1975.992	1.295	1	generate	Run3	generate/STIM_010.jpg
1979.757	2.074	1	generate	Run3	generate/STIM_010.jpg
1984.192	1.619	1	generate	Run3	generate/STIM_010.jpg
1988.565	1.007	1	generate	Run3	generate/STIM_010.jpg
1993.482	1.501	1	generate	Run3	generate/STIM_011.jpg
1998.812	1.617	0	generate	Run3	generate/STIM_011.jpg
2003.577	1.819	1	generate	Run3	generate/STIM_011.jpg
2008.062	1.803	1	generate	Run3	generate/STIM_011.jpg
2012.229	1.226	0	generate	Run3	generate/STIM_011.jpg
2017.165	1.773	0	generate	Run3	generate/STIM_012.jpg
2022.486	0.849	1	generate	Run3	generate/STIM_012.jpg
2026.84	1.28	0	generate	Run3	generate/STIM_012.jpg
2031.056	1.298	1	generate	Run3	generate/STIM_012.jpg
2034.502	1.917	1	generate	Run3	generate/STIM_012.jpg
2039.707	1.9	1	generate	Run3	generate/STIM_013.jpg
2045.087	1.378	1	generate	Run3	generate/STIM_013.jpg
2048.849	1.996	1	generate	Run3	generate/STIM_013.jpg
2053.387	1.589	1	generate	Run3	generate/STIM_013.jpg
2057.788	1.546	1	generate	Run3	generate/STIM_013.jpg
2061.502	1.126	1	generate	Run3	generate/STIM_014.jpg
2065.277	1.168	1	generate	Run3	generate/STIM_014.jpg
2070.366	1.396	0	generate	Run3	generate/STIM_014.jpg
2074.682	1.121	1	generate	Run3	generate/STIM_014.jpg
2077.958	1.451	1	generate	Run3	generate/STIM_014.jpg
2082.357	1.708	1	generate	Run3	generate/STIM_015.jpg
2086.807	1.991	1	generate	Run3	generate/STIM_015.jpg
2091.634	1.054	1	generate	Run3	generate/STIM_015.jpg
2095.615	1.592	1	generate	Run3	generate/STIM_015.jpg
2101.176	1.941	1	generate	Run3	generate/STIM_015.jpg
2106.921	1.605	1	generate	Run3	generate/STIM_016.jpg
2111.75	1.678	1	generate	Run3	generate/STIM_016.jpg
2117.305	1.559	1	generate	Run3	generate/STIM_016.jpg
2121.285	1.99	1	generate	Run3	generate/STIM_016.jpg
2126.116	1.065	1	generate	Run3	generate/STIM_016.jpg
2131.18	0.948	1	generate	Run3	generate/STIM_017.jpg
2134.874	1.588	1	generate	Run3	generate/STIM_017.jpg
2138.634	0.91	0	generate	Run3	generate/STIM_017.jpg
2143.126	1.798	1	generate	Run3	generate/STIM_017.jpg
2148.382	1.027	1	generate	Run3	generate/STIM_017.jpg
2151.757	1.826	1	generate	Run3	generate/STIM_018.jpg
2157.186	1.347	1	generate	Run3	generate/STIM_018.jpg
2161.13	1.282	1	generate	Run3	generate/STIM_018.jpg
2165.586	0.997	1	generate	Run3	generate/STIM_018.jpg
2170.307	1.026	1	generate	Run3	generate/STIM_018.jpg
2174.209	1.834	1	generate	Run3	generate/STIM_019.jpg
2178.777	0.99	1	generate	Run3	generate/STIM_019.jpg
2182.536	0.9	1	generate	Run3	generate/STIM_019.jpg
2186.021	1.377	1	generate	Run3	generate/STIM_019.jpg
2191.392	1.201	1	generate	Run3	generate/STIM_019.jpg
2194.901	1.96	1	generate	Run3	generate/STIM_020.jpg
2200.296	1.535	1	generate	Run3	generate/STIM_020.jpg
2204.465	2.074	1	generate	Run3	generate/STIM_020.jpg
2210.253	1.698	1	generate	Run3	generate/STIM_020.jpg
2215.785	1.015	1	generate	Run3	generate/STIM_020.jpg
2219.155	1.086	1	generate	Run3	generate/STIM_021.jpg
2222.827	1.567	1	generate	Run3	generate/STIM_021.jpg
2228.023	1.437	0	generate	Run3	generate/STIM_021.jpg
2231.905	0.904	1	generate	Run3	generate/STIM_021.jpg
2235.029	1.261	1	generate	Run3	generate/STIM_021.jpg
2239.539	1.724	1	generate	Run3	generate/STIM_022.jpg
2245.209	1.754	1	generate	Run3	generate/STIM_022.jpg
2249.421	1.32	0	generate	Run3	generate/STIM_022.jpg
2252.89	0.903	1	generate	Run3	generate/STIM_022.jpg
2257.342	1.928	1	generate	Run3	generate/STIM_022.jpg
2262.178	1.8	1	generate	Run3	generate/STIM_023.jpg
2267.076	1.228	1	generate	Run3	generate/STIM_023.jpg
2270.438	1.788	1	generate	Run3	generate/STIM_023.jpg
2275.819	0.854	1	generate	Run3	generate/STIM_023.jpg
2280.241	1.388	1	generate	Run3	generate/STIM_023.jpg
2285.448	1.842	1	generate	Run3	generate/STIM_024.jpg
2290.441	1.171	1	generate	Run3	generate/STIM_024.jpg
2294.765	1.721	1	generate	Run3	generate/STIM_024.jpg
2300.274	0.939	1	generate	Run3	generate/STIM_024.jpg
2304.002	1.833	1	generate	Run3	generate/STIM_024.jpg
2309.558	0.674	1	repeat	Run3	repeat/STIM_000.jpg
2314.007	0.982	1	repeat	Run3	repeat/STIM_000.jpg
2317.587	0.601	1	repeat	Run3	repeat/STIM_000.jpg
2321.989	0.8	1	repeat	Run3	repeat/STIM_000.jpg
2326.398	0.6	1	repeat	Run3	repeat/STIM_000.jpg
2329.756	0.903	1	repeat	Run3	repeat/STIM_001.jpg
2334.608	0.762	1	repeat	Run3	repeat/STIM_001.jpg
2338.197	0.75	1	repeat	Run3	repeat/STIM_001.jpg
2341.198	0.55	1	repeat	Run3	repeat/STIM_001.jpg
2344.732	0.603	1	repeat	Run3	repeat/STIM_001.jpg
2347.472	0.828	1	repeat	Run3	repeat/STIM_002.jpg
2350.37	0.811	1	repeat	Run3	repeat/STIM_002.jpg
2353.47	0.632	1	repeat	Run3	repeat/STIM_002.jpg
2357.394	0.785	1	repeat	Run3	repeat/STIM_002.jpg
2360.919	0.904	1	repeat	Run3	repeat/STIM_002.jpg
2365.127	0.688	1	repeat	Run3	repeat/STIM_003.jpg
2369.713	0.735	1	repeat	Run3	repeat/STIM_003.jpg
2374.053	0.912	1	repeat	Run3	repeat/STIM_003.jpg
2376.976	0.699	1	repeat	Run3	repeat/STIM_003.jpg
2381.137	0.522	1	repeat	Run3	repeat/STIM_003.jpg
2385.079	0.958	1	repeat	Run3	repeat/STIM_004.jpg
2388.395	0.59	1	repeat	Run3	repeat/STIM_004.jpg
2390.999	0.729	1	repeat	Run3	repeat/STIM_004.jpg
2395.394	0.835	1	repeat	Run3	repeat/STIM_004.jpg
2399.832	0.912	1	repeat	Run3	repeat/STIM_004.jpg
2403.477	0.576	1	repeat	Run3	repeat/STIM_005.jpg
2407.726	0.888	1	repeat	Run3	repeat/STIM_005.jpg
2412.242	0.746	0	repeat	Run3	repeat/STIM_005.jpg
2416.417	0.524	1	repeat	Run3	repeat/STIM_005.jpg
2420.616	0.583	1	repeat	Run3	repeat/STIM_005.jpg
2423.727	0.735	1	repeat	Run3	repeat/STIM_006.jpg
2428.054	0.888	1	repeat	Run3	repeat/STIM_006.jpg
2432.799	0.987	1	repeat	Run3	repeat/STIM_006.jpg
2436.868	0.765	1	repeat	Run3	repeat/STIM_006.jpg
2439.88	0.545	0	repeat	Run3	repeat/STIM_006.jpg
2443.619	0.525	1	repeat	Run3	repeat/STIM_007.jpg
2446.321	0.609	0	repeat	Run3	repeat/STIM_007.jpg
2450.002	0.572	1	repeat	Run3	repeat/STIM_007.jpg
2452.75	0.678	1	repeat	Run3	repeat/STIM_007.jpg
2456.117	0.906	1	repeat	Run3	repeat/STIM_007.jpg
2459.579	0.774	1	repeat	Run3	repeat/STIM_008.jpg
2463.348	0.799	1	repeat	Run3	repeat/STIM_008.jpg
2466.857	0.608	1	repeat	Run3	repeat/STIM_008.jpg
2470.317	0.672	1	repeat	Run3	repeat/STIM_008.jpg
2474.546	0.721	1	repeat	Run3	repeat/STIM_008.jpg
2477.66	0.989	1	repeat	Run3	repeat/STIM_009.jpg
2481.215	0.652	1	repeat	Run3	repeat/STIM_009.jpg
2485.059	0.917	1	repeat	Run3	repeat/STIM_009.jpg
2488.091	0.853	1	repeat	Run3	repeat/STIM_009.jpg
2491.818	0.952	0	repeat	Run3	repeat/STIM_009.jpg
2496.288	0.687	1	repeat	Run3	repeat/STIM_010.jpg
2500.124	0.642	1	repeat	Run3	repeat/STIM_010.jpg
2504.463	0.851	1	repeat	Run3	repeat/STIM_010.jpg
2508.411	0.541	1	repeat	Run3	repeat/STIM_010.jpg
2511.972	0.534	0	repeat	Run3	repeat/STIM_010.jpg
2515.429	0.774	1	repeat	Run3	repeat/STIM_011.jpg
2519.079	0.857	1	repeat	Run3	repeat/STIM_011.jpg
2523.397	0.96	1	repeat	Run3	repeat/STIM_011.jpg
2526.909	0.897	1	repeat	Run3	repeat/STIM_011.jpg
2530.024	0.538	1	repeat	Run3	repeat/STIM_011.jpg
2533.414	0.739	1	repeat	Run3	repeat/STIM_012.jpg
2537.895	0.944	1	repeat	Run3	repeat/STIM_012.jpg
2541.406	0.782	1	repeat	Run3	repeat/STIM_012.jpg
2546.001	0.579	1	repeat	Run3	repeat/STIM_012.jpg
2550.104	0.884	1	repeat	Run3	repeat/STIM_012.jpg
2553.528	0.74	1	repeat	Run3	repeat/STIM_013.jpg
2558.214	0.964	1	repeat	Run3	repeat/STIM_013.jpg
2562.903	0.727	1	repeat	Run3	repeat/STIM_013.jpg
2567.557	0.917	1	repeat	Run3	repeat/STIM_013.jpg
2571.558	0.594	1	repeat	Run3	repeat/STIM_013.jpg
2574.336	0.912	1	repeat	Run3	repeat/STIM_014.jpg
2578.667	0.716	1	repeat	Run3	repeat/STIM_014.jpg
2582.293	0.855	1	repeat	Run3	repeat/STIM_014.jpg
2585.782	0.743	1	repeat	Run3	repeat/STIM_014.jpg
2588.762	0.57	1	repeat	Run3	repeat/STIM_014.jpg
2592.75	1.166	1	generate	Run4	generate/STIM_000.jpg
2597.883	1.724	1	generate	Run4	generate/STIM_000.jpg
2603.451	1.721	1	generate	Run4	generate/STIM_000.jpg
2608.527	1.603	1	generate	Run4	generate/STIM_000.jpg
2613.356	1.325	1	generate	Run4	generate/STIM_000.jpg
2618.406	2.064	1	generate	Run4	generate/STIM_001.jpg
2622.985	1.962	1	generate	Run4	generate/STIM_001.jpg
2627.604	1.164	1	generate	Run4	generate/STIM_001.jpg
2632.442	1.671	1	generate	Run4	generate/STIM_001.jpg
2636.562	1.974	1	generate	Run4	generate/STIM_001.jpg
2640.959	1.647	1	generate	Run4	generate/STIM_002.jpg
2646.455	1.286	1	generate	Run4	generate/STIM_002.jpg
2651.669	0.928	1	generate	Run4	generate/STIM_002.jpg
2655.368	1.074	1	generate	Run4	generate/STIM_002.jpg
2659.816	0.997	1	generate	Run4	generate/STIM_002.jpg
2663.432	0.948	1	generate	Run4	generate/STIM_003.jpg
2668.168	1.58	1	generate	Run4	generate/STIM_003.jpg
2673.759	1.699	1	generate	Run4	generate/STIM_003.jpg
2678.863	2.009	1	generate	Run4	generate/STIM_003.jpg
2683.225	1.01	1	generate	Run4	generate/STIM_003.jpg
2686.506	0.969	1	generate	Run4	generate/STIM_004.jpg
2690.977	0.894	1	generate	Run4	generate/STIM_004.jpg
2694.837	1.793	1	generate	Run4	generate/STIM_004.jpg
2698.85	1.612	1	generate	Run4	generate/STIM_004.jpg
2702.675	1.787	1	generate	Run4	generate/STIM_004.jpg
2707.249	1.694	1	generate	Run4	generate/STIM_005.jpg
2712.905	1.492	1	generate	Run4	generate/STIM_005.jpg
2717.813	1.635	1	generate	Run4	generate/STIM_005.jpg
2723.392	0.848	1	generate	Run4	generate/STIM_005.jpg
2727.29	1.557	1	generate	Run4	generate/STIM_005.jpg
2731.921	1.607	1	generate	Run4	generate/STIM_006.jpg
2737.292	1.465	1	generate	Run4	generate/STIM_006.jpg
2742.53	0.957	1	generate	Run4	generate/STIM_006.jpg
2747.278	1.561	1	generate	Run4	generate/STIM_006.jpg
2752.278	0.938	1	generate	Run4	generate/STIM_006.jpg
2755.823	1.335	1	generate	Run4	generate/STIM_007.jpg
2760.894	1.557	1	generate	Run4	generate/STIM_007.jpg
2765.836	1.895	1	generate	Run4	generate/STIM_007.jpg
2770.245	1.061	1	generate	Run4	generate/STIM_007.jpg
2775.031	1.552	1	generate	Run4	generate/STIM_007.jpg
2780.301	1.692	1	generate	Run4	generate/STIM_008.jpg
2784.381	1.45	1	generate	Run4	generate/STIM_008.jpg
2789.104	1.881	1	generate	Run4	generate/STIM_008.jpg
2794.231	1.817	1	generate	Run4	generate/STIM_008.jpg
2798.586	1.417	1	generate	Run4	generate/STIM_008.jpg
2802.971	2.032	1	generate	Run4	generate/STIM_009.jpg
2808.609	1.039	1	generate	Run4	generate/STIM_009.jpg
2812.799	1.788	1	generate	Run4	generate/STIM_009.jpg
2817.674	1.771	0	generate	Run4	generate/STIM_009.jpg
2822.674	1.925	1	generate	Run4	generate/STIM_009.jpg
2826.851	1.235	0	generate	Run4	generate/STIM_010.jpg
2831.758	1.694	1	generate	Run4	generate/STIM_010.jpg
2836.09	1.477	1	generate	Run4	generate/STIM_010.jpg
2840.977	1.24	1	generate	Run4	generate/STIM_010.jpg
2846.169	1.308	1	generate	Run4	generate/STIM_010.jpg
2851.228	2.031	1	generate	Run4	generate/STIM_011.jpg
2855.308	2.041	1	generate	Run4	generate/STIM_011.jpg
2860.17	1.588	1	generate	Run4	generate/STIM_011.jpg
2865.406	1.172	1	generate	Run4	generate/STIM_011.jpg
2869.609	1.574	1	generate	Run4	generate/STIM_011.jpg
2873.539	1.009	1	generate	Run4	generate/STIM_012.jpg
2877.33	1.704	1	generate	Run4	generate/STIM_012.jpg
2881.912	1.881	1	generate	Run4	generate/STIM_012.jpg
2886.088	1.052	1	generate	Run4	generate/STIM_012.jpg
2889.418	1.875	1	generate	Run4	generate/STIM_012.jpg
2894.771	2.003	1	generate	Run4	generate/STIM_013.jpg
2898.839	1.564	1	generate	Run4	generate/STIM_013.jpg
2902.593	1.204	1	generate	Run4	generate/STIM_013.jpg
2906.429	1.842	1	generate	Run4	generate/STIM_013.jpg
2910.975	1.688	1	generate	Run4	generate/STIM_013.jpg
2914.894	0.91	1	generate	Run4	generate/STIM_014.jpg
2919.601	1.911	1	generate	Run4	generate/STIM_014.jpg
2924.291	1.719	1	generate	Run4	generate/STIM_014.jpg
2928.867	1.67	1	generate	Run4	generate/STIM_014.jpg
2933.278	1.318	1	generate	Run4	generate/STIM_014.jpg
2938.168	1.094	1	generate	Run4	generate/STIM_015.jpg
2942.369	1.58	1	generate	Run4	generate/STIM_015.jpg
2946.64	1.31	1	generate	Run4	generate/STIM_015.jpg
2950.432	1.486	1	generate	Run4	generate/STIM_015.jpg
2955.651	1.45	1	generate	Run4	generate/STIM_015.jpg
2959.147	1.004	0	generate	Run4	generate/STIM_016.jpg
2962.844	1.431	1	generate	Run4	generate/STIM_016.jpg
2967.112	1.673	1	generate	Run4	generate/STIM_016.jpg
2972.745	1.466	1	generate	Run4	generate/STIM_016.jpg
2976.815	1.294	1	generate	Run4	generate/STIM_016.jpg
2980.653	1.011	1	generate	Run4	generate/STIM_017.jpg
2985.406	1.2	1	generate	Run4	generate/STIM_017.jpg
2989.934	1.316	1	generate	Run4	generate/STIM_017.jpg
2995.234	1.441	1	generate	Run4	generate/STIM_017.jpg
2999.54	1.067	1	generate	Run4	generate/STIM_017.jpg
3003.144	0.834	1	generate	Run4	generate/STIM_018.jpg
3006.247	1.921	1	generate	Run4	generate/STIM_018.jpg
3010.836	1.514	1	generate	Run4	generate/STIM_018.jpg
3014.899	1.899	1	generate	Run4	generate/STIM_018.jpg
3020.75	1.987	1	generate	Run4	generate/STIM_018.jpg
3026.585	1.182	1	generate	Run4	generate/STIM_019.jpg
3030.292	1.169	1	generate	Run4	generate/STIM_019.jpg
3033.742	1.826	1	generate	Run4	generate/STIM_019.jpg
3038.447	1.494	1	generate	Run4	generate/STIM_019.jpg
3042.928	1.523	1	generate	Run4	generate/STIM_019.jpg
3048.021	1.818	1	generate	Run4	generate/STIM_020.jpg
3053.155	1.083	1	generate	Run4	generate/STIM_020.jpg
3056.929	1.534	1	generate	Run4	generate/STIM_020.jpg
3061.692	1.317	1	generate	Run4	generate/STIM_020.jpg
3065.965	1.858	1	generate	Run4	generate/STIM_020.jpg
3070.953	1.902	1	generate	Run4	generate/STIM_021.jpg
3076.056	1.629	1	generate	Run4	generate/STIM_021.jpg
3080.892	1.17	1	generate	Run4	generate/STIM_021.jpg
3084.283	2.002	1	generate	Run4	generate/STIM_021.jpg
3089.805	1.716	1	generate	Run4	generate/STIM_021.jpg
3093.794	0.882	1	generate	Run4	generate/STIM_022.jpg
3098.309	1.117	1	generate	Run4	generate/STIM_022.jpg
3102.982	1.464	1	generate	Run4	generate/STIM_022.jpg
3106.623	1.562	1	generate	Run4	generate/STIM_022.jpg
3110.856	1.32	1	generate	Run4	generate/STIM_022.jpg
3115.813	1.089	1	generate	Run4	generate/STIM_023.jpg
3120.147	1.257	1	generate	Run4	generate/STIM_023.jpg
3125.251	1.777	1	generate	Run4	generate/STIM_023.jpg
3130.588	1.709	1	generate	Run4	generate/STIM_023.jpg
3134.429	1.919	1	generate	Run4	generate/STIM_023.jpg
3138.583	1.604	1	generate	Run4	generate/STIM_024.jpg
3144.006	0.882	1	generate	Run4	generate/STIM_024.jpg
3148.33	1.563	1	generate	Run4	generate/STIM_024.jpg
3153.272	1.353	1	generate	Run4	generate/STIM_024.jpg
3158.054	1.991	1	generate	Run4	generate/STIM_024.jpg
3162.697	0.759	1	repeat	Run4	repeat/STIM_000.jpg
3166.28	0.733	1	repeat	Run4	repeat/STIM_000.jpg
3169.573	0.505	1	repeat	Run4	repeat/STIM_000.jpg
3173.365	0.749	1	repeat	Run4	repeat/STIM_000.jpg
3177.308	0.502	1	repeat	Run4	repeat/STIM_000.jpg
3181.707	0.961	1	repeat	Run4	repeat/STIM_001.jpg
3186.274	0.58	1	repeat	Run4	repeat/STIM_001.jpg
3189.488	0.932	1	repeat	Run4	repeat/STIM_001.jpg
3192.937	0.885	1	repeat	Run4	repeat/STIM_001.jpg
3196.129	0.774	1	repeat	Run4	repeat/STIM_001.jpg
3199.685	0.667	1	repeat	Run4	repeat/STIM_002.jpg
3202.418	0.893	1	repeat	Run4	repeat/STIM_002.jpg
3205.95	0.85	1	repeat	Run4	repeat/STIM_002.jpg
3209.47	0.954	1	repeat	Run4	repeat/STIM_002.jpg
3213.188	0.71	1	repeat	Run4	repeat/STIM_002.jpg
3217.903	0.901	1	repeat	Run4	repeat/STIM_003.jpg
3222.748	0.868	1	repeat	Run4	repeat/STIM_003.jpg
3227.085	0.532	1	repeat	Run4	repeat/STIM_003.jpg
3230.122	0.507	1	repeat	Run4	repeat/STIM_003.jpg
3233.788	0.877	1	repeat	Run4	repeat/STIM_003.jpg
3237.199	0.794	1	repeat	Run4	repeat/STIM_004.jpg
3241.67	0.666	1	repeat	Run4	repeat/STIM_004.jpg
3246.226	0.57	1	repeat	Run4	repeat/STIM_004.jpg
3249.49	0.705	1	repeat	Run4	repeat/STIM_004.jpg
3253.204	0.872	1	repeat	Run4	repeat/STIM_004.jpg
3256.898	0.578	1	repeat	Run4	repeat/STIM_005.jpg
3260.248	0.981	1	repeat	Run4	repeat/STIM_005.jpg
3263.5	0.631	1	repeat	Run4	repeat/STIM_005.jpg
3266.33	0.727	1	repeat	Run4	repeat/STIM_005.jpg
3269.156	0.58	1	repeat	Run4	repeat/STIM_005.jpg
3272.452	0.631	1	repeat	Run4	repeat/STIM_006.jpg
3276.06	0.581	0	repeat	Run4	repeat/STIM_006.jpg
3280.326	0.76	1	repeat	Run4	repeat/STIM_006.jpg
3284.36	0.665	0	repeat	Run4	repeat/STIM_006.jpg
3287.078	0.887	1	repeat	Run4	repeat/STIM_006.jpg
3290.013	0.687	1	repeat	Run4	repeat/STIM_007.jpg
3294.257	0.908	1	repeat	Run4	repeat/STIM_007.jpg
3297.785	0.941	1	repeat	Run4	repeat/STIM_007.jpg
3302.498	0.967	1	repeat	Run4	repeat/STIM_007.jpg
3307.289	0.535	1	repeat	Run4	repeat/STIM_007.jpg
3311.623	0.729	1	repeat	Run4	repeat/STIM_008.jpg
3314.456	0.927	1	repeat	Run4	repeat/STIM_008.jpg
3318.982	0.785	1	repeat	Run4	repeat/STIM_008.jpg
3322.903	0.814	1	repeat	Run4	repeat/STIM_008.jpg
3326.088	0.596	1	repeat	Run4	repeat/STIM_008.jpg
3329.417	0.956	1	repeat	Run4	repeat/STIM_009.jpg
3332.593	0.585	1	repeat	Run4	repeat/STIM_009.jpg
3335.982	0.892	1	repeat	Run4	repeat/STIM_009.jpg
3340.416	0.719	1	repeat	Run4	repeat/STIM_009.jpg
3343.869	0.651	1	repeat	Run4	repeat/STIM_009.jpg
3346.662	0.708	1	repeat	Run4	repeat/STIM_010.jpg
3351.125	0.65	0	repeat	Run4	repeat/STIM_010.jpg
3354.039	0.69	1	repeat	Run4	repeat/STIM_010.jpg
3357.875	0.695	1	repeat	Run4	repeat/STIM_010.jpg
3362.117	0.916	1	repeat	Run4	repeat/STIM_010.jpg
3366.105	0.657	1	repeat	Run4	repeat/STIM_011.jpg
3370.507	0.758	1	repeat	Run4	repeat/STIM_011.jpg
3373.917	0.635	1	repeat	Run4	repeat/STIM_011.jpg
3378.534	0.96	1	repeat	Run4	repeat/STIM_011.jpg
3381.947	0.578	1	repeat	Run4	repeat/STIM_011.jpg
3385.485	0.607	1	repeat	Run4	repeat/STIM_012.jpg
3389.41	0.724	1	repeat	Run4	repeat/STIM_012.jpg
3393.963	0.651	1	repeat	Run4	repeat/STIM_012.jpg
3397.725	0.91	1	repeat	Run4	repeat/STIM_012.jpg
3402.228	0.509	1	repeat	Run4	repeat/STIM_012.jpg
3405.951	0.878	1	repeat	Run4	repeat/STIM_013.jpg
3409.042	0.637	1	repeat	Run4	repeat/STIM_013.jpg
3412.872	0.572	1	repeat	Run4	repeat/STIM_013.jpg
3415.463	0.947	1	repeat	Run4	repeat/STIM_013.jpg
3418.502	0.655	1	repeat	Run4	repeat/STIM_013.jpg
3422.219	0.983	1	repeat	Run4	repeat/STIM_014.jpg
3425.337	0.77	1	repeat	Run4	repeat/STIM_014.jpg
3429.434	0.739	1	repeat	Run4	repeat/STIM_014.jpg
3433.202	0.521	1	repeat	Run4	repeat/STIM_014.jpg
3437.513	0.95	1	repeat	Run4	repeat/STIM_014.jpg
