onset	duration	response_time_ms	trial_type	learning_stage	stimulus	response_port
0.0	1.397	1397.1	generate	Run1	generate/STIM_000.jpg	99
5.103	1.817	1816.7	generate	Run1	generate/STIM_000.jpg	100
9.234	1.536	1535.9	generate	Run1	generate/STIM_000.jpg	100
13.56	1.728	1728.5	generate	Run1	generate/STIM_000.jpg	100
18.94	1.833	1833.0	generate	Run1	generate/STIM_000.jpg	100
24.732	1.776	1775.6	generate	Run1	generate/STIM_001.jpg	100
29.532	1.445	1444.9	generate	Run1	generate/STIM_001.jpg	100
33.981	1.51	1510.2	generate	Run1	generate/STIM_001.jpg	99
38.97	1.126	1125.6	generate	Run1	generate/STIM_001.jpg	100
43.892	1.985	1985.2	generate	Run1	generate/STIM_001.jpg	100
48.316	2.453	2453.0	generate	Run1	generate/STIM_002.jpg	99
53.441	2.391	2391.4	generate	Run1	generate/STIM_002.jpg	100
58.201	1.615	1615.0	generate	Run1	generate/STIM_002.jpg	99
62.09	1.305	1305.3	generate	Run1	generate/STIM_002.jpg	99
66.85	2.129	2129.2	generate	Run1	generate/STIM_002.jpg	100
72.316	1.556	1555.8	generate	Run1	generate/STIM_003.jpg	100
76.704	1.035	1035.4	generate	Run1	generate/STIM_003.jpg	100
80.485	1.219	1219.0	generate	Run1	generate/STIM_003.jpg	100
84.604	0.919	918.9	generate	Run1	generate/STIM_003.jpg	100
87.747	1.782	1782.5	generate	Run1	generate/STIM_003.jpg	99
93.276	1.516	1515.8	generate	Run1	generate/STIM_004.jpg	99
98.672	1.528	1528.4	generate	Run1	generate/STIM_004.jpg	99
103.895	1.291	1291.3	generate	Run1	generate/STIM_004.jpg	100
108.319	1.925	1925.4	generate	Run1	generate/STIM_004.jpg	100
113.649	1.625	1625.1	generate	Run1	generate/STIM_004.jpg	99
118.111	2.088	2087.5	generate	Run1	generate/STIM_005.jpg	100
122.649	1.115	1115.3	generate	Run1	generate/STIM_005.jpg	100
126.161	2.244	2243.5	generate	Run1	generate/STIM_005.jpg	100
131.941	1.278	1278.5	generate	Run1	generate/STIM_005.jpg	100
135.646	1.412	1412.3	generate	Run1	generate/STIM_005.jpg	100
140.671	2.068	2068.1	generate	Run1	generate/STIM_006.jpg	100
145.146	1.033	1032.9	generate	Run1	generate/STIM_006.jpg	99
148.556	2.088	2087.8	generate	Run1	generate/STIM_006.jpg	99
153.641	1.371	1371.2	generate	Run1	generate/STIM_006.jpg	99
158.502	1.187	1187.4	generate	Run1	generate/STIM_006.jpg	100
163.338	1.81	1810.1	generate	Run1	generate/STIM_007.jpg	99
169.139	2.098	2098.1	generate	Run1	generate/STIM_007.jpg	100
173.96	1.315	1314.9	generate	Run1	generate/STIM_007.jpg	100
178.63	2.226	2225.5	generate	Run1	generate/STIM_007.jpg	99
183.698	2.084	2084.2	generate	Run1	generate/STIM_007.jpg	99
188.395	2.254	2253.9	generate	Run1	generate/STIM_008.jpg	99
193.879	1.955	1954.8	generate	Run1	generate/STIM_008.jpg	100
198.792	2.406	2406.2	generate	Run1	generate/STIM_008.jpg	99
203.351	1.358	1358.4	generate	Run1	generate/STIM_008.jpg	99
206.839	1.739	1738.7	generate	Run1	generate/STIM_008.jpg	99
211.474	1.449	1448.9	generate	Run1	generate/STIM_009.jpg	100
214.998	2.481	2481.4	generate	Run1	generate/STIM_009.jpg	99
220.302	2.019	2019.4	generate	Run1	generate/STIM_009.jpg	100
225.435	0.978	977.6	generate	Run1	generate/STIM_009.jpg	100
229.869	1.918	1917.8	generate	Run1	generate/STIM_009.jpg	100
234.386	2.432	2432.3	generate	Run1	generate/STIM_010.jpg	100
240.547	2.521	2520.7	generate	Run1	generate/STIM_010.jpg	99
245.883	1.424	1423.5	generate	Run1	generate/STIM_010.jpg	100
249.68	1.562	1562.5	generate	Run1	generate/STIM_010.jpg	99
255.047	1.585	1585.3	generate	Run1	generate/STIM_010.jpg	100
259.185	2.627	2627.1	generate	Run1	generate/STIM_011.jpg	99
264.736	2.504	2504.5	generate	Run1	generate/STIM_011.jpg	100
269.665	1.09	1089.7	generate	Run1	generate/STIM_011.jpg	100
273.324	1.827	1827.1	generate	Run1	generate/STIM_011.jpg	99
278.102	1.671	1671.0	generate	Run1	generate/STIM_011.jpg	99
281.891	1.168	1167.8	generate	Run1	generate/STIM_012.jpg	99
285.57	2.3	2300.5	generate	Run1	generate/STIM_012.jpg	99
291.74	2.403	2403.2	generate	Run1	generate/STIM_012.jpg	99
297.34	0.958	958.5	generate	Run1	generate/STIM_012.jpg	99
300.401	1.996	1996.0	generate	Run1	generate/STIM_012.jpg	100
305.681	1.833	1832.7	generate	Run1	generate/STIM_013.jpg	99
310.298	1.41	1410.2	generate	Run1	generate/STIM_013.jpg	100
314.756	1.034	1033.8	generate	Run1	generate/STIM_013.jpg	99
319.442	2.207	2207.2	generate	Run1	generate/STIM_013.jpg	99
325.421	0.974	973.9	generate	Run1	generate/STIM_013.jpg	99
330.076	1.273	1273.3	generate	Run1	generate/STIM_014.jpg	100
334.107	2.058	2058.3	generate	Run1	generate/STIM_014.jpg	100
339.595	1.187	1186.8	generate	Run1	generate/STIM_014.jpg	100
344.022	1.497	1497.1	generate	Run1	generate/STIM_014.jpg	100
349.392	1.222	1222.4	generate	Run1	generate/STIM_014.jpg	100
354.003	2.114	2113.9	generate	Run1	generate/STIM_015.jpg	99
358.484	1.704	1704.3	generate	Run1	generate/STIM_015.jpg	100
363.748	1.217	1216.8	generate	Run1	generate/STIM_015.jpg	99
367.477	1.421	1420.7	generate	Run1	generate/STIM_015.jpg	100
371.834	1.785	1785.4	generate	Run1	generate/STIM_015.jpg	100
377.259	2.472	2472.3	generate	Run1	generate/STIM_016.jpg	100
383.326	1.202	1202.2	generate	Run1	generate/STIM_016.jpg	99
387.206	1.897	1897.1	generate	Run1	generate/STIM_016.jpg	99
391.194	0.911	911.3	generate	Run1	generate/STIM_016.jpg	99
395.005	1.36	1360.3	generate	Run1	generate/STIM_016.jpg	100
398.746	1.612	1611.7	generate	Run1	generate/STIM_017.jpg	100
403.491	1.407	1407.0	generate	Run1	generate/STIM_017.jpg	100
408.233	2.145	2144.7	generate	Run1	generate/STIM_017.jpg	100
414.187	1.449	1449.4	generate	Run1	generate/STIM_017.jpg	99
419.157	1.956	1955.5	generate	Run1	generate/STIM_017.jpg	100
424.151	2.288	2288.1	generate	Run1	generate/STIM_018.jpg	99
430.15	1.301	1301.3	generate	Run1	generate/STIM_018.jpg	100
434.606	2.378	2377.9	generate	Run1	generate/STIM_018.jpg	100
440.271	0.951	951.1	generate	Run1	generate/STIM_018.jpg	100
443.259	0.859	858.9	generate	Run1	generate/STIM_018.jpg	100
446.816	1.684	1683.6	generate	Run1	generate/STIM_019.jpg	100
452.458	1.28	1279.7	generate	Run1	generate/STIM_019.jpg	99
456.173	1.814	1813.6	generate	Run1	generate/STIM_019.jpg	100
461.507	1.539	1539.2	generate	Run1	generate/STIM_019.jpg	100
466.645	1.671	1670.6	generate	Run1	generate/STIM_019.jpg	99
472.05	2.086	2086.0	generate	Run1	generate/STIM_020.jpg	99
477.301	1.569	1569.0	generate	Run1	generate/STIM_020.jpg	99
481.707	2.284	2284.0	generate	Run1	generate/STIM_020.jpg	100
486.94	1.876	1876.4	generate	Run1	generate/STIM_020.jpg	99
492.25	1.578	1578.4	generate	Run1	generate/STIM_020.jpg	99
496.986	2.218	2217.9	generate	Run1	generate/STIM_021.jpg	99
502.315	2.213	2213.4	generate	Run1	generate/STIM_021.jpg	100
506.839	2.251	2250.6	generate	Run1	generate/STIM_021.jpg	100
511.459	1.396	1395.6	generate	Run1	generate/STIM_021.jpg	100
515.18	0.964	964.0	generate	Run1	generate/STIM_021.jpg	100
519.328	1.832	1832.4	generate	Run1	generate/STIM_022.jpg	100
523.76	2.153	2152.9	generate	Run1	generate/STIM_022.jpg	99
529.613	1.814	1813.6	generate	Run1	generate/STIM_022.jpg	99
533.703	1.754	1753.7	generate	Run1	generate/STIM_022.jpg	100
538.344	1.562	1562.1	generate	Run1	generate/STIM_022.jpg	99
543.33	1.813	1812.8	generate	Run1	generate/STIM_023.jpg	100
548.656	2.174	2174.4	generate	Run1	generate/STIM_023.jpg	100
554.129	2.122	2121.9	generate	Run1	generate/STIM_023.jpg	99
558.531	1.93	1929.8	generate	Run1	generate/STIM_023.jpg	99
562.695	1.452	1451.5	generate	Run1	generate/STIM_023.jpg	99
567.283	2.602	2601.9	generate	Run1	generate/STIM_024.jpg	99
572.275	1.573	1573.3	generate	Run1	generate/STIM_024.jpg	100
576.299	1.988	1988.1	generate	Run1	generate/STIM_024.jpg	100
580.718	1.499	1498.6	generate	Run1	generate/STIM_024.jpg	99
585.734	0.901	900.7	generate	Run1	generate/STIM_024.jpg	100
589.037	0.629	629.3	repeat	Run1	repeat/STIM_000.jpg	99
591.989	0.698	697.6	repeat	Run1	repeat/STIM_000.jpg	100
596.549	0.679	678.8	repeat	Run1	repeat/STIM_000.jpg	99
599.439	0.619	619.4	repeat	Run1	repeat/STIM_000.jpg	100
602.933	0.768	767.8	repeat	Run1	repeat/STIM_000.jpg	99
607.443	0.845	845.0	repeat	Run1	repeat/STIM_001.jpg	100
611.744	0.892	892.3	repeat	Run1	repeat/STIM_001.jpg	99
615.394	0.756	756.0	repeat	Run1	repeat/STIM_001.jpg	99
619.283	0.77	769.7	repeat	Run1	repeat/STIM_001.jpg	100
623.121	0.537	537.3	repeat	Run1	repeat/STIM_001.jpg	99
627.207	0.765	765.0	repeat	Run1	repeat/STIM_002.jpg	100
631.049	0.8	799.7	repeat	Run1	repeat/STIM_002.jpg	99
635.837	0.745	744.6	repeat	Run1	repeat/STIM_002.jpg	100
639.27	0.859	859.4	repeat	Run1	repeat/STIM_002.jpg	99
643.994	0.73	730.0	repeat	Run1	repeat/STIM_002.jpg	100
647.472	0.534	533.9	repeat	Run1	repeat/STIM_003.jpg	100
650.522	0.482	482.3	repeat	Run1	repeat/STIM_003.jpg	100
653.805	0.832	831.8	repeat	Run1	repeat/STIM_003.jpg	100
657.593	0.859	858.8	repeat	Run1	repeat/STIM_003.jpg	100
661.882	0.752	752.5	repeat	Run1	repeat/STIM_003.jpg	100
665.12	0.871	871.4	repeat	Run1	repeat/STIM_004.jpg	100
668.315	0.55	549.6	repeat	Run1	repeat/STIM_004.jpg	99
672.793	0.459	459.1	repeat	Run1	repeat/STIM_004.jpg	99
677.013	0.574	573.9	repeat	Run1	repeat/STIM_004.jpg	99
681.426	0.793	793.2	repeat	Run1	repeat/STIM_004.jpg	99
685.227	0.521	521.1	repeat	Run1	repeat/STIM_005.jpg	100
688.154	0.837	836.6	repeat	Run1	repeat/STIM_005.jpg	100
692.305	0.447	447.3	repeat	Run1	repeat/STIM_005.jpg	99
695.524	0.724	724.0	repeat	Run1	repeat/STIM_005.jpg	100
699.753	0.742	742.3	repeat	Run1	repeat/STIM_005.jpg	99
703.992	0.592	591.5	repeat	Run1	repeat/STIM_006.jpg	100
706.911	0.646	645.6	repeat	Run1	repeat/STIM_006.jpg	99
710.848	0.859	859.0	repeat	Run1	repeat/STIM_006.jpg	99
713.959	0.654	653.9	repeat	Run1	repeat/STIM_006.jpg	100
716.644	0.488	488.3	repeat	Run1	repeat/STIM_006.jpg	100
720.563	0.854	854.3	repeat	Run1	repeat/STIM_007.jpg	100
724.493	0.616	616.3	repeat	Run1	repeat/STIM_007.jpg	100
727.544	0.88	879.8	repeat	Run1	repeat/STIM_007.jpg	99
731.092	0.663	662.9	repeat	Run1	repeat/STIM_007.jpg	99
735.111	0.709	708.8	repeat	Run1	repeat/STIM_007.jpg	100
738.796	0.567	567.2	repeat	Run1	repeat/STIM_008.jpg	100
743.311	0.821	821.1	repeat	Run1	repeat/STIM_008.jpg	99
746.914	0.568	567.5	repeat	Run1	repeat/STIM_008.jpg	100
750.739	0.662	662.2	repeat	Run1	repeat/STIM_008.jpg	99
754.887	0.761	761.0	repeat	Run1	repeat/STIM_008.jpg	100
757.772	0.657	657.2	repeat	Run1	repeat/STIM_009.jpg	100
761.905	0.881	881.0	repeat	Run1	repeat/STIM_009.jpg	100
766.377	0.815	814.7	repeat	Run1	repeat/STIM_009.jpg	100
771.121	0.62	620.5	repeat	Run1	repeat/STIM_009.jpg	99
774.895	0.86	859.6	repeat	Run1	repeat/STIM_009.jpg	100
778.183	0.699	698.9	repeat	Run1	repeat/STIM_010.jpg	100
782.474	0.799	799.2	repeat	Run1	repeat/STIM_010.jpg	99
785.933	0.81	809.7	repeat	Run1	repeat/STIM_010.jpg	100
790.032	0.835	835.4	repeat	Run1	repeat/STIM_010.jpg	99
793.171	0.708	707.7	repeat	Run1	repeat/STIM_010.jpg	100
796.346	0.713	713.2	repeat	Run1	repeat/STIM_011.jpg	100
799.398	0.745	744.7	repeat	Run1	repeat/STIM_011.jpg	100
804.062	0.551	550.9	repeat	Run1	repeat/STIM_011.jpg	99
807.965	0.605	604.7	repeat	Run1	repeat/STIM_011.jpg	99
811.085	0.654	653.7	repeat	Run1	repeat/STIM_011.jpg	100
814.263	0.605	605.2	repeat	Run1	repeat/STIM_012.jpg	99
817.27	0.708	708.0	repeat	Run1	repeat/STIM_012.jpg	99
821.06	0.701	701.1	repeat	Run1	repeat/STIM_012.jpg	100
825.382	0.555	555.0	repeat	Run1	repeat/STIM_012.jpg	100
828.097	0.545	544.6	repeat	Run1	repeat/STIM_012.jpg	100
831.065	0.652	651.9	repeat	Run1	repeat/STIM_013.jpg	99
834.16	0.875	874.8	repeat	Run1	repeat/STIM_013.jpg	99
838.473	0.8	800.1	repeat	Run1	repeat/STIM_013.jpg	100
841.96	0.633	633.4	repeat	Run1	repeat/STIM_013.jpg	100
846.001	0.569	569.1	repeat	Run1	repeat/STIM_013.jpg	100
848.804	0.553	553.1	repeat	Run1	repeat/STIM_014.jpg	99
852.172	0.76	760.5	repeat	Run1	repeat/STIM_014.jpg	100
855.422	0.703	703.0	repeat	Run1	repeat/STIM_014.jpg	100
860.114	0.803	802.9	repeat	Run1	repeat/STIM_014.jpg	99
864.367	0.698	697.9	repeat	Run1	repeat/STIM_014.jpg	100
867.74	1.27	1269.7	generate	Run2	generate/STIM_000.jpg	99
872.618	2.077	2076.6	generate	Run2	generate/STIM_000.jpg	100
878.209	1.902	1902.2	generate	Run2	generate/STIM_000.jpg	99
883.194	0.88	879.8	generate	Run2	generate/STIM_000.jpg	99
886.84	1.845	1845.0	generate	Run2	generate/STIM_000.jpg	100
890.836	1.009	1009.1	generate	Run2	generate/STIM_001.jpg	99
895.231	1.531	1530.8	generate	Run2	generate/STIM_001.jpg	100
899.256	0.9	900.1	generate	Run2	generate/STIM_001.jpg	99
903.146	1.5	1499.7	generate	Run2	generate/STIM_001.jpg	99
907.537	1.862	1862.0	generate	Run2	generate/STIM_001.jpg	99
912.176	1.125	1124.6	generate	Run2	generate/STIM_002.jpg	100
916.159	1.915	1914.9	generate	Run2	generate/STIM_002.jpg	99
921.653	1.299	1298.6	generate	Run2	generate/STIM_002.jpg	99
925.042	1.725	1725.4	generate	Run2	generate/STIM_002.jpg	100
929.319	1.324	1324.5	generate	Run2	generate/STIM_002.jpg	100
933.564	1.167	1167.0	generate	Run2	generate/STIM_003.jpg	99
936.855	1.21	1210.3	generate	Run2	generate/STIM_003.jpg	99
940.22	1.238	1238.4	generate	Run2	generate/STIM_003.jpg	100
943.812	1.735	1735.3	generate	Run2	generate/STIM_003.jpg	100
948.881	1.324	1323.6	generate	Run2	generate/STIM_003.jpg	99
953.031	1.218	1217.6	generate	Run2	generate/STIM_004.jpg	99
957.796	1.762	1761.6	generate	Run2	generate/STIM_004.jpg	100
963.222	1.676	1676.5	generate	Run2	generate/STIM_004.jpg	100
967.306	1.34	1339.6	generate	Run2	generate/STIM_004.jpg	100
972.028	1.145	1145.4	generate	Run2	generate/STIM_004.jpg	100
977.01	1.091	1090.6	generate	Run2	generate/STIM_005.jpg	99
981.629	0.929	929.2	generate	Run2	generate/STIM_005.jpg	99
985.339	1.78	1779.9	generate	Run2	generate/STIM_005.jpg	100
991.104	1.769	1769.2	generate	Run2	generate/STIM_005.jpg	100
995.646	0.948	948.0	generate	Run2	generate/STIM_005.jpg	100
999.898	1.386	1385.5	generate	Run2	generate/STIM_006.jpg	100
1004.805	1.964	1964.5	generate	Run2	generate/STIM_006.jpg	100
1008.93	1.569	1569.0	generate	Run2	generate/STIM_006.jpg	100
1013.431	1.686	1686.3	generate	Run2	generate/STIM_006.jpg	100
1018.236	1.752	1752.3	generate	Run2	generate/STIM_006.jpg	99
1023.975	0.999	998.6	generate	Run2	generate/STIM_007.jpg	99
1028.15	1.432	1432.5	generate	Run2	generate/STIM_007.jpg	100
1032.71	1.088	1088.4	generate	Run2	generate/STIM_007.jpg	100
1036.758	0.765	765.3	generate	Run2	generate/STIM_007.jpg	100
1041.259	1.721	1720.7	generate	Run2	generate/STIM_007.jpg	99
1046.107	0.952	951.5	generate	Run2	generate/STIM_008.jpg	100
1050.876	1.078	1078.5	generate	Run2	generate/STIM_008.jpg	100
1054.115	1.798	1797.8	generate	Run2	generate/STIM_008.jpg	99
1059.849	1.473	1473.4	generate	Run2	generate/STIM_008.jpg	99
1065.186	1.14	1140.1	generate	Run2	generate/STIM_008.jpg	99
1069.685	2.009	2009.3	generate	Run2	generate/STIM_009.jpg	100
1075.333	1.804	1804.5	generate	Run2	generate/STIM_009.jpg	100
1080.935	1.498	1497.8	generate	Run2	generate/STIM_009.jpg	100
1085.386	1.406	1406.0	generate	Run2	generate/STIM_009.jpg	100
1089.422	1.494	1493.9	generate	Run2	generate/STIM_009.jpg	100
1093.398	2.061	2060.6	generate	Run2	generate/STIM_010.jpg	100
1098.459	1.389	1388.7	generate	Run2	generate/STIM_010.jpg	100
1102.326	1.739	1738.9	generate	Run2	generate/STIM_010.jpg	99
1106.805	1.462	1461.5	generate	Run2	generate/STIM_010.jpg	99
1110.991	1.205	1204.8	generate	Run2	generate/STIM_010.jpg	99
1115.576	1.902	1901.9	generate	Run2	generate/STIM_011.jpg	99
1119.585	1.438	1438.1	generate	Run2	generate/STIM_011.jpg	100
1123.874	1.246	1245.8	generate	Run2	generate/STIM_011.jpg	100
1127.212	1.574	1573.8	generate	Run2	generate/STIM_011.jpg	99
1132.498	1.145	1145.1	generate	Run2	generate/STIM_011.jpg	100
1137.214	2.035	2035.2	generate	Run2	generate/STIM_012.jpg	99
1142.125	1.504	1503.8	generate	Run2	generate/STIM_012.jpg	99
1145.872	1.82	1819.6	generate	Run2	generate/STIM_012.jpg	99
1150.305	1.538	1537.7	generate	Run2	generate/STIM_012.jpg	99
1154.881	1.719	1719.3	generate	Run2	generate/STIM_012.jpg	100
1160.493	1.418	1417.8	generate	Run2	generate/STIM_013.jpg	99
1163.994	1.93	1929.6	generate	Run2	generate/STIM_013.jpg	99
1168.288	0.895	894.7	generate	Run2	generate/STIM_013.jpg	99
1172.541	1.172	1172.3	generate	Run2	generate/STIM_013.jpg	100
1176.373	1.777	1776.6	generate	Run2	generate/STIM_013.jpg	100
1181.244	1.5	1499.8	generate	Run2	generate/STIM_014.jpg	100
1185.269	1.136	1136.4	generate	Run2	generate/STIM_014.jpg	100
1189.571	1.911	1910.9	generate	Run2	generate/STIM_014.jpg	100
1194.237	1.595	1594.8	generate	Run2	generate/STIM_014.jpg	100
1199.195	1.171	1171.4	generate	Run2	generate/STIM_014.jpg	100
1202.892	2.114	2114.4	generate	Run2	generate/STIM_015.jpg	100
1208.838	1.159	1158.7	generate	Run2	generate/STIM_015.jpg	99
1212.216	0.988	988.0	generate	Run2	generate/STIM_015.jpg	100
1215.616	1.671	1670.8	generate	Run2	generate/STIM_015.jpg	100
1220.038	1.614	1614.0	generate	Run2	generate/STIM_015.jpg	99
1224.061	1.417	1417.1	generate	Run2	generate/STIM_016.jpg	100
1228.886	1.984	1984.5	generate	Run2	generate/STIM_016.jpg	99
1234.198	1.722	1722.5	generate	Run2	generate/STIM_016.jpg	99
1239.765	1.294	1294.3	generate	Run2	generate/STIM_016.jpg	100
1243.897	1.229	1228.8	generate	Run2	generate/STIM_016.jpg	99
1248.424	2.176	2175.7	generate	Run2	generate/STIM_017.jpg	99
1253.796	1.494	1494.5	generate	Run2	generate/STIM_017.jpg	100
1257.754	1.387	1386.9	generate	Run2	generate/STIM_017.jpg	99
1262.287	1.753	1752.8	generate	Run2	generate/STIM_017.jpg	100
1267.314	1.631	1630.9	generate	Run2	generate/STIM_017.jpg	99
1271.687	2.201	2201.0	generate	Run2	generate/STIM_018.jpg	99
1277.65	1.023	1023.3	generate	Run2	generate/STIM_018.jpg	99
1282.067	1.726	1726.5	generate	Run2	generate/STIM_018.jpg	100
1285.999	1.212	1211.6	generate	Run2	generate/STIM_018.jpg	100
1290.186	1.267	1266.9	generate	Run2	generate/STIM_018.jpg	99
1293.555	0.986	985.8	generate	Run2	generate/STIM_019.jpg	100
1297.467	1.945	1945.1	generate	Run2	generate/STIM_019.jpg	100
1302.318	1.029	1028.6	generate	Run2	generate/STIM_019.jpg	99
1307.229	0.842	842.5	generate	Run2	generate/STIM_019.jpg	99
1311.334	1.002	1002.2	generate	Run2	generate/STIM_019.jpg	100
1315.517	1.63	1630.0	generate	Run2	generate/STIM_020.jpg	99
1320.128	1.657	1657.1	generate	Run2	generate/STIM_020.jpg	100
1325.365	1.112	1111.6	generate	Run2	generate/STIM_020.jpg	100
1329.909	0.771	770.8	generate	Run2	generate/STIM_020.jpg	100
1334.039	1.069	1069.1	generate	Run2	generate/STIM_020.jpg	100
1337.982	1.882	1882.4	generate	Run2	generate/STIM_021.jpg	100
1343.697	0.872	871.5	generate	Run2	generate/STIM_021.jpg	99
1346.681	1.145	1145.4	generate	Run2	generate/STIM_021.jpg	99
1350.891	1.762	1762.5	generate	Run2	generate/STIM_021.jpg	99
1356.59	1.246	1245.5	generate	Run2	generate/STIM_021.jpg	100
1361.146	1.19	1189.9	generate	Run2	generate/STIM_022.jpg	100
1365.933	1.154	1153.9	generate	Run2	generate/STIM_022.jpg	100
1370.537	0.993	993.4	generate	Run2	generate/STIM_022.jpg	100
1374.785	0.893	893.2	generate	Run2	generate/STIM_022.jpg	100
1378.598	1.39	1389.8	generate	Run2	generate/STIM_022.jpg	99
1383.281	1.647	1647.2	generate	Run2	generate/STIM_023.jpg	100
1388.508	1.96	1959.6	generate	Run2	generate/STIM_023.jpg	99
1393.083	0.809	808.6	generate	Run2	generate/STIM_023.jpg	100
1397.715	1.241	1241.0	generate	Run2	generate/STIM_023.jpg	99
1402.719	1.392	1391.7	generate	Run2	generate/STIM_023.jpg	99
1406.704	1.033	1033.4	generate	Run2	generate/STIM_024.jpg	99
1411.484	0.956	955.7	generate	Run2	generate/STIM_024.jpg	99
1414.527	1.391	1390.9	generate	Run2	generate/STIM_024.jpg	100
1419.769	1.8	1800.1	generate	Run2	generate/STIM_024.jpg	99
1425.516	1.539	1539.0	generate	Run2	generate/STIM_024.jpg	99
1430.346	0.464	464.4	repeat	Run2	repeat/STIM_000.jpg	99
1433.607	0.689	688.6	repeat	Run2	repeat/STIM_000.jpg	99
1436.931	0.872	871.5	repeat	Run2	repeat/STIM_000.jpg	100
1440.669	0.582	581.8	repeat	Run2	repeat/STIM_000.jpg	100
1443.851	0.782	782.0	repeat	Run2	repeat/STIM_000.jpg	99
1448.231	0.65	649.6	repeat	Run2	repeat/STIM_001.jpg	100
1451.248	0.769	768.6	repeat	Run2	repeat/STIM_001.jpg	100
1454.249	0.698	698.3	repeat	Run2	repeat/STIM_001.jpg	99
1458.434	0.465	465.3	repeat	Run2	repeat/STIM_001.jpg	99
1461.0	0.671	671.4	repeat	Run2	repeat/STIM_001.jpg	100
1464.385	0.803	803.2	repeat	Run2	repeat/STIM_002.jpg	99
1467.897	0.579	578.9	repeat	Run2	repeat/STIM_002.jpg	99
1472.173	0.58	579.8	repeat	Run2	repeat/STIM_002.jpg	100
1476.561	0.614	613.7	repeat	Run2	repeat/STIM_002.jpg	99
1479.677	0.531	530.7	repeat	Run2	repeat/STIM_002.jpg	99
1482.957	0.519	518.9	repeat	Run2	repeat/STIM_003.jpg	99
1485.957	0.582	581.7	repeat	Run2	repeat/STIM_003.jpg	100
1490.229	0.724	723.8	repeat	Run2	repeat/STIM_003.jpg	99
1494.533	0.452	452.4	repeat	Run2	repeat/STIM_003.jpg	100
1498.044	0.773	773.3	repeat	Run2	repeat/STIM_003.jpg	99
1501.056	0.87	869.8	repeat	Run2	repeat/STIM_004.jpg	100
1504.154	0.729	729.2	repeat	Run2	repeat/STIM_004.jpg	99
1508.398	0.53	529.9	repeat	Run2	repeat/STIM_004.jpg	100
1512.892	0.731	730.9	repeat	Run2	repeat/STIM_004.jpg	99
1516.196	0.776	776.0	repeat	Run2	repeat/STIM_004.jpg	99
1519.066	0.762	762.4	repeat	Run2	repeat/STIM_005.jpg	100
1521.936	0.496	495.5	repeat	Run2	repeat/STIM_005.jpg	100
1524.794	0.821	821.2	repeat	Run2	repeat/STIM_005.jpg	99
1527.781	0.664	664.5	repeat	Run2	repeat/STIM_005.jpg	100
1530.716	0.679	678.9	repeat	Run2	repeat/STIM_005.jpg	100
1533.86	0.689	688.7	repeat	Run2	repeat/STIM_006.jpg	99
1538.52	0.891	890.6	repeat	Run2	repeat/STIM_006.jpg	100
1543.172	0.694	694.2	repeat	Run2	repeat/STIM_006.jpg	100
1547.636	0.742	742.0	repeat	Run2	repeat/STIM_006.jpg	100
1552.284	0.777	777.4	repeat	Run2	repeat/STIM_006.jpg	99
1556.244	0.773	772.6	repeat	Run2	repeat/STIM_007.jpg	100
1559.646	0.722	721.6	repeat	Run2	repeat/STIM_007.jpg	100
1563.531	0.552	552.1	repeat	Run2	repeat/STIM_007.jpg	99
1568.021	0.825	825.1	repeat	Run2	repeat/STIM_007.jpg	99
1571.933	0.553	553.4	repeat	Run2	repeat/STIM_007.jpg	99
1575.248	0.579	579.2	repeat	Run2	repeat/STIM_008.jpg	99
1578.47	0.81	810.3	repeat	Run2	repeat/STIM_008.jpg	99
1583.04	0.488	487.9	repeat	Run2	repeat/STIM_008.jpg	99
1585.86	0.676	676.2	repeat	Run2	repeat/STIM_008.jpg	100
1590.064	0.85	850.5	repeat	Run2	repeat/STIM_008.jpg	99
1593.725	0.65	650.2	repeat	Run2	repeat/STIM_009.jpg	100
1596.578	0.73	729.8	repeat	Run2	repeat/STIM_009.jpg	99
1600.601	0.577	576.6	repeat	Run2	repeat/STIM_009.jpg	100
1604.211	0.647	647.1	repeat	Run2	repeat/STIM_009.jpg	100
1608.741	0.823	823.3	repeat	Run2	repeat/STIM_009.jpg	99
1612.712	0.67	670.2	repeat	Run2	repeat/STIM_010.jpg	99
1617.192	0.505	504.9	repeat	Run2	repeat/STIM_010.jpg	100
1620.092	0.856	856.5	repeat	Run2	repeat/STIM_010.jpg	99
1623.291	0.744	744.5	repeat	Run2	repeat/STIM_010.jpg	99
1626.375	0.751	751.1	repeat	Run2	repeat/STIM_010.jpg	100
1629.777	0.716	716.4	repeat	Run2	repeat/STIM_011.jpg	100
1633.876	0.788	787.5	repeat	Run2	repeat/STIM_011.jpg	99
1637.215	0.513	513.2	repeat	Run2	repeat/STIM_011.jpg	99
1641.117	0.574	574.5	repeat	Run2	repeat/STIM_011.jpg	100
1645.234	0.765	764.6	repeat	Run2	repeat/STIM_011.jpg	99
1649.535	0.693	693.4	repeat	Run2	repeat/STIM_012.jpg	100
1652.238	0.493	493.0	repeat	Run2	repeat/STIM_012.jpg	99
1655.18	0.517	517.3	repeat	Run2	repeat/STIM_012.jpg	99
1659.462	0.856	855.9	repeat	Run2	repeat/STIM_012.jpg	99
1663.676	0.811	811.0	repeat	Run2	repeat/STIM_012.jpg	99
1667.969	0.868	867.6	repeat	Run2	repeat/STIM_013.jpg	99
1670.902	0.735	734.6	repeat	Run2	repeat/STIM_013.jpg	100
1674.809	0.466	465.7	repeat	Run2	repeat/STIM_013.jpg	100
1678.059	0.863	862.6	repeat	Run2	repeat/STIM_013.jpg	100
1681.218	0.737	737.3	repeat	Run2	repeat/STIM_013.jpg	100
1685.698	0.77	770.4	repeat	Run2	repeat/STIM_014.jpg	100
1689.775	0.828	828.2	repeat	Run2	repeat/STIM_014.jpg	99
1693.336	0.874	873.7	repeat	Run2	repeat/STIM_014.jpg	99
1696.36	0.578	578.2	repeat	Run2	repeat/STIM_014.jpg	99
1700.207	0.614	613.7	repeat	Run2	repeat/STIM_014.jpg	99
1703.34	0.917	916.8	generate	Run3	generate/STIM_000.jpg	100
1706.675	1.132	1132.0	generate	Run3	generate/STIM_000.jpg	100
1711.583	0.904	903.5	generate	Run3	generate/STIM_000.jpg	99
1714.812	1.284	1283.9	generate	Run3	generate/STIM_000.jpg	100
1719.24	0.848	848.4	generate	Run3	generate/STIM_000.jpg	100
1722.168	1.853	1852.9	generate	Run3	generate/STIM_001.jpg	99
1727.531	1.013	1013.3	generate	Run3	generate/STIM_001.jpg	100
1730.704	1.039	1039.1	generate	Run3	generate/STIM_001.jpg	99
1734.375	0.872	872.3	generate	Run3	generate/STIM_001.jpg	99
1738.229	1.006	1005.7	generate	Run3	generate/STIM_001.jpg	99
1741.431	1.088	1088.4	generate	Run3	generate/STIM_002.jpg	99
1745.296	1.238	1237.9	generate	Run3	generate/STIM_002.jpg	100
1749.34	0.842	842.4	generate	Run3	generate/STIM_002.jpg	99
1753.486	0.941	940.9	generate	Run3	generate/STIM_002.jpg	100
1757.937	1.115	1114.7	generate	Run3	generate/STIM_002.jpg	100
1762.991	1.316	1315.9	generate	Run3	generate/STIM_003.jpg	99
1767.146	1.383	1383.4	generate	Run3	generate/STIM_003.jpg	100
1771.851	1.487	1487.3	generate	Run3	generate/STIM_003.jpg	99
1777.303	1.108	1107.7	generate	Run3	generate/STIM_003.jpg	100
1780.517	1.855	1855.4	generate	Run3	generate/STIM_003.jpg	99
1785.145	1.671	1671.0	generate	Run3	generate/STIM_004.jpg	99
1790.482	1.002	1002.4	generate	Run3	generate/STIM_004.jpg	99
1794.323	1.657	1657.0	generate	Run3	generate/STIM_004.jpg	100
1798.606	1.309	1308.7	generate	Run3	generate/STIM_004.jpg	100
1802.607	1.098	1098.5	generate	Run3	generate/STIM_004.jpg	99
1805.964	1.421	1420.9	generate	Run3	generate/STIM_005.jpg	99
1810.987	1.541	1540.7	generate	Run3	generate/STIM_005.jpg	99
1814.762	1.58	1579.9	generate	Run3	generate/STIM_005.jpg	99
1819.712	0.937	936.6	generate	Run3	generate/STIM_005.jpg	100
1823.6	1.55	1550.3	generate	Run3	generate/STIM_005.jpg	100
1828.781	0.817	817.1	generate	Run3	generate/STIM_006.jpg	100
1833.595	1.145	1144.8	generate	Run3	generate/STIM_006.jpg	99
1836.757	1.735	1734.8	generate	Run3	generate/STIM_006.jpg	99
1841.583	1.444	1443.5	generate	Run3	generate/STIM_006.jpg	99
1846.292	0.998	998.2	generate	Run3	generate/STIM_006.jpg	100
1850.052	1.584	1584.1	generate	Run3	generate/STIM_007.jpg	99
1854.346	1.363	1363.3	generate	Run3	generate/STIM_007.jpg	100
1858.16	1.443	1443.3	generate	Run3	generate/STIM_007.jpg	100
1863.085	1.693	1692.8	generate	Run3	generate/STIM_007.jpg	100
1867.027	0.772	771.8	generate	Run3	generate/STIM_007.jpg	99
1870.403	1.633	1632.7	generate	Run3	generate/STIM_008.jpg	100
1874.165	0.836	836.4	generate	Run3	generate/STIM_008.jpg	100
1878.054	1.066	1066.3	generate	Run3	generate/STIM_008.jpg	99
1882.518	1.1	1100.2	generate	Run3	generate/STIM_008.jpg	100
1887.554	1.284	1283.6	generate	Run3	generate/STIM_008.jpg	100
1891.448	1.144	1143.8	generate	Run3	generate/STIM_009.jpg	100
1895.486	0.971	971.3	generate	Run3	generate/STIM_009.jpg	99
1898.67	1.662	1662.2	generate	Run3	generate/STIM_009.jpg	100
1904.25	1.079	1079.3	generate	Run3	generate/STIM_009.jpg	99
1908.285	1.679	1679.4	generate	Run3	generate/STIM_009.jpg	100
1913.298	1.242	1242.1	generate	Run3	generate/STIM_010.jpg	99
1918.313	1.048	1048.3	generate	Run3	generate/STIM_010.jpg	99
1923.326	1.611	1610.8	generate	Run3	generate/STIM_010.jpg	100
1928.929	1.854	1853.9	generate	Run3	generate/STIM_010.jpg	100
1934.283	1.227	1226.6	generate	Run3	generate/STIM_010.jpg	100
1937.966	1.1	1100.0	generate	Run3	generate/STIM_011.jpg	100
1941.18	0.8	800.5	generate	Run3	generate/STIM_011.jpg	99
1944.135	1.565	1565.4	generate	Run3	generate/STIM_011.jpg	99
1948.244	1.35	1350.1	generate	Run3	generate/STIM_011.jpg	100
1952.308	1.205	1204.8	generate	Run3	generate/STIM_011.jpg	100
1957.216	1.49	1490.4	generate	Run3	generate/STIM_012.jpg	99
1961.042	1.055	1054.8	generate	Run3	generate/STIM_012.jpg	99
1964.619	1.794	1794.5	generate	Run3	generate/STIM_012.jpg	100
1969.389	1.746	1746.4	generate	Run3	generate/STIM_012.jpg	99
1974.721	0.861	860.6	generate	Run3	generate/STIM_012.jpg	99
1977.745	1.568	1567.7	generate	Run3	generate/STIM_013.jpg	99
1982.122	1.731	1731.3	generate	Run3	generate/STIM_013.jpg	100
1987.008	0.858	858.2	generate	Run3	generate/STIM_013.jpg	100
1990.193	1.307	1307.0	generate	Run3	generate/STIM_013.jpg	99
1993.974	1.694	1693.9	generate	Run3	generate/STIM_013.jpg	99
1998.583	0.773	773.0	generate	Run3	generate/STIM_014.jpg	100
2003.098	1.233	1233.2	generate	Run3	generate/STIM_014.jpg	99
2007.452	1.048	1048.4	generate	Run3	generate/STIM_014.jpg	100
2011.071	1.54	1539.6	generate	Run3	generate/STIM_014.jpg	100
2014.809	1.029	1029.0	generate	Run3	generate/STIM_014.jpg	100
2018.962	1.339	1338.7	generate	Run3	generate/STIM_015.jpg	100
2023.6	1.489	1488.9	generate	Run3	generate/STIM_015.jpg	99
2027.918	1.664	1663.6	generate	Run3	generate/STIM_015.jpg	100
2032.943	1.097	1097.1	generate	Run3	generate/STIM_015.jpg	99
2036.558	0.848	848.2	generate	Run3	generate/STIM_015.jpg	100
2039.428	1.395	1395.4	generate	Run3	generate/STIM_016.jpg	100
2042.912	1.387	1387.2	generate	Run3	generate/STIM_016.jpg	100
2047.227	1.034	1034.4	generate	Run3	generate/STIM_016.jpg	100
2051.477	1.095	1095.2	generate	Run3	generate/STIM_016.jpg	99
2056.304	1.248	1248.5	generate	Run3	generate/STIM_016.jpg	100
2061.313	1.12	1119.6	generate	Run3	generate/STIM_017.jpg	100
2064.888	1.569	1569.3	generate	Run3	generate/STIM_017.jpg	100
2069.904	1.535	1535.4	generate	Run3	generate/STIM_017.jpg	100
2074.665	1.866	1865.9	generate	Run3	generate/STIM_017.jpg	99
2079.403	1.025	1025.1	generate	Run3	generate/STIM_017.jpg	99
2084.141	0.766	765.7	generate	Run3	generate/STIM_018.jpg	100
2087.8	1.76	1760.3	generate	Run3	generate/STIM_018.jpg	100
2093.315	1.265	1265.1	generate	Run3	generate/STIM_018.jpg	100
2096.74	1.795	1795.0	generate	Run3	generate/STIM_018.jpg	99
2102.179	1.428	1427.8	generate	Run3	generate/STIM_018.jpg	99
2107.083	0.836	835.7	generate	Run3	generate/STIM_019.jpg	100
2111.441	0.853	852.6	generate	Run3	generate/STIM_019.jpg	100
2114.4	1.204	1203.7	generate	Run3	generate/STIM_019.jpg	100
2118.18	1.146	1146.4	generate	Run3	generate/STIM_019.jpg	99
2122.046	1.372	1371.6	generate	Run3	generate/STIM_019.jpg	100
2125.946	1.776	1776.5	generate	Run3	generate/STIM_020.jpg	99
2131.442	1.699	1699.0	generate	Run3	generate/STIM_020.jpg	99
2136.255	1.779	1778.6	generate	Run3	generate/STIM_020.jpg	100
2140.957	1.418	1417.6	generate	Run3	generate/STIM_020.jpg	100
2145.211	1.631	1631.2	generate	Run3	generate/STIM_020.jpg	100
2150.615	0.909	909.3	generate	Run3	generate/STIM_021.jpg	100
2155.075	1.39	1390.3	generate	Run3	generate/STIM_021.jpg	100
2160.039	1.506	1506.0	generate	Run3	generate/STIM_021.jpg	99
2164.61	0.822	822.2	generate	Run3	generate/STIM_021.jpg	99
2168.869	1.158	1157.8	generate	Run3	generate/STIM_021.jpg	100
2173.393	1.578	1578.4	generate	Run3	generate/STIM_022.jpg	99
2178.116	1.54	1539.8	generate	Run3	generate/STIM_022.jpg	99
2183.08	1.4	1400.5	generate	Run3	generate/STIM_022.jpg	99
2187.795	1.742	1742.4	generate	Run3	generate/STIM_022.jpg	99
2192.119	1.021	1020.8	generate	Run3	generate/STIM_022.jpg	100
2196.554	1.317	1316.9	generate	Run3	generate/STIM_023.jpg	99
2201.184	1.442	1442.5	generate	Run3	generate/STIM_023.jpg	99
2204.875	1.033	1033.0	generate	Run3	generate/STIM_023.jpg	100
2209.568	1.671	1670.6	generate	Run3	generate/STIM_023.jpg	99
2213.385	1.769	1768.7	generate	Run3	generate/STIM_023.jpg	99
2218.069	1.266	1265.9	generate	Run3	generate/STIM_024.jpg	100
2221.366	1.43	1430.3	generate	Run3	generate/STIM_024.jpg	100
2226.776	1.449	1449.3	generate	Run3	generate/STIM_024.jpg	100
2231.615	1.32	1320.0	generate	Run3	generate/STIM_024.jpg	100
2236.492	1.569	1568.8	generate	Run3	generate/STIM_024.jpg	99
2241.734	0.883	882.9	repeat	Run3	repeat/STIM_000.jpg	100
2244.967	0.735	734.6	repeat	Run3	repeat/STIM_000.jpg	99
2248.024	0.546	546.4	repeat	Run3	repeat/STIM_000.jpg	100
2252.184	0.825	825.4	repeat	Run3	repeat/STIM_000.jpg	100
2255.056	0.689	689.0	repeat	Run3	repeat/STIM_000.jpg	100
2259.488	0.757	756.6	repeat	Run3	repeat/STIM_001.jpg	100
2263.83	0.688	688.2	repeat	Run3	repeat/STIM_001.jpg	100
2266.655	0.726	725.5	repeat	Run3	repeat/STIM_001.jpg	100
2270.407	0.831	831.0	repeat	Run3	repeat/STIM_001.jpg	100
2274.205	0.481	481.1	repeat	Run3	repeat/STIM_001.jpg	99
2278.458	0.498	497.6	repeat	Run3	repeat/STIM_002.jpg	99
2281.391	0.857	857.2	repeat	Run3	repeat/STIM_002.jpg	99
2285.3	0.783	782.9	repeat	Run3	repeat/STIM_002.jpg	99
2289.274	0.757	757.0	repeat	Run3	repeat/STIM_002.jpg	99
2292.84	0.49	490.4	repeat	Run3	repeat/STIM_002.jpg	99
2296.169	0.717	716.6	repeat	Run3	repeat/STIM_003.jpg	99
2300.131	0.767	767.0	repeat	Run3	repeat/STIM_003.jpg	100
2304.644	0.629	628.7	repeat	Run3	repeat/STIM_003.jpg	100
2308.24	0.802	801.6	repeat	Run3	repeat/STIM_003.jpg	99
2312.908	0.686	685.9	repeat	Run3	repeat/STIM_003.jpg	99
2317.454	0.705	705.1	repeat	Run3	repeat/STIM_004.jpg	99
2321.33	0.624	624.2	repeat	Run3	repeat/STIM_004.jpg	99
2324.096	0.603	603.0	repeat	Run3	repeat/STIM_004.jpg	99
2327.76	0.696	696.0	repeat	Run3	repeat/STIM_004.jpg	100
2330.703	0.855	855.0	repeat	Run3	repeat/STIM_004.jpg	100
2333.578	0.623	622.8	repeat	Run3	repeat/STIM_005.jpg	100
2337.015	0.766	766.4	repeat	Run3	repeat/STIM_005.jpg	100
2340.3	0.619	619.1	repeat	Run3	repeat/STIM_005.jpg	100
2344.882	0.742	741.5	repeat	Run3	repeat/STIM_005.jpg	100
2348.62	0.856	855.5	repeat	Run3	repeat/STIM_005.jpg	99
2353.289	0.797	796.7	repeat	Run3	repeat/STIM_006.jpg	100
2356.859	0.666	665.5	repeat	Run3	repeat/STIM_006.jpg	100
2360.866	0.453	453.2	repeat	Run3	repeat/STIM_006.jpg	99
2365.176	0.678	677.7	repeat	Run3	repeat/STIM_006.jpg	100
2368.082	0.522	521.6	repeat	Run3	repeat/STIM_006.jpg	99
2372.222	0.768	768.2	repeat	Run3	repeat/STIM_007.jpg	99
2376.401	0.618	618.4	repeat	Run3	repeat/STIM_007.jpg	100
2379.061	0.476	476.0	repeat	Run3	repeat/STIM_007.jpg	99
2383.01	0.462	462.1	repeat	Run3	repeat/STIM_007.jpg	100
2387.428	0.663	662.8	repeat	Run3	repeat/STIM_007.jpg	100
2391.304	0.571	571.2	repeat	Run3	repeat/STIM_008.jpg	100
2394.354	0.825	824.9	repeat	Run3	repeat/STIM_008.jpg	100
2398.201	0.49	490.3	repeat	Run3	repeat/STIM_008.jpg	99
2401.182	0.693	693.0	repeat	Run3	repeat/STIM_008.jpg	100
2404.6	0.605	605.0	repeat	Run3	repeat/STIM_008.jpg	100
2408.628	0.855	854.9	repeat	Run3	repeat/STIM_009.jpg	99
2411.831	0.861	861.3	repeat	Run3	repeat/STIM_009.jpg	100
2415.218	0.728	727.5	repeat	Run3	repeat/STIM_009.jpg	99
2419.302	0.761	761.2	repeat	Run3	repeat/STIM_009.jpg	99
2423.663	0.45	449.9	repeat	Run3	repeat/STIM_009.jpg	99
2426.757	0.698	698.5	repeat	Run3	repeat/STIM_010.jpg	99
2429.672	0.52	520.3	repeat	Run3	repeat/STIM_010.jpg	99
2434.191	0.743	742.9	repeat	Run3	repeat/STIM_010.jpg	99
2437.058	0.655	655.3	repeat	Run3	repeat/STIM_010.jpg	100
2440.413	0.544	544.5	repeat	Run3	repeat/STIM_010.jpg	99
2444.618	0.628	628.0	repeat	Run3	repeat/STIM_011.jpg	99
2449.191	0.666	666.2	repeat	Run3	repeat/STIM_011.jpg	99
2452.455	0.609	609.2	repeat	Run3	repeat/STIM_011.jpg	100
2456.963	0.546	545.7	repeat	Run3	repeat/STIM_011.jpg	100
2461.464	0.469	469.2	repeat	Run3	repeat/STIM_011.jpg	99
2465.465	0.552	551.6	repeat	Run3	repeat/STIM_012.jpg	100
2468.065	0.708	708.5	repeat	Run3	repeat/STIM_012.jpg	99
2470.888	0.533	532.9	repeat	Run3	repeat/STIM_012.jpg	100
2474.389	0.776	776.1	repeat	Run3	repeat/STIM_012.jpg	99
2477.512	0.812	811.6	repeat	Run3	repeat/STIM_012.jpg	100
2482.124	0.614	614.4	repeat	Run3	repeat/STIM_013.jpg	99
2486.332	0.522	522.4	repeat	Run3	repeat/STIM_013.jpg	99
2490.214	0.569	569.2	repeat	Run3	repeat/STIM_013.jpg	99
2493.2	0.669	668.9	repeat	Run3	repeat/STIM_013.jpg	100
2496.618	0.669	669.0	repeat	Run3	repeat/STIM_013.jpg	99
2500.685	0.653	652.6	repeat	Run3	repeat/STIM_014.jpg	99
2504.633	0.525	524.9	repeat	Run3	repeat/STIM_014.jpg	100
2507.941	0.817	816.7	repeat	Run3	repeat/STIM_014.jpg	100
2511.892	0.801	800.9	repeat	Run3	repeat/STIM_014.jpg	100
2515.008	0.449	448.8	repeat	Run3	repeat/STIM_014.jpg	99
2517.515	1.386	1386.3	generate	Run4	generate/STIM_000.jpg	99
2521.574	1.212	1211.9	generate	Run4	generate/STIM_000.jpg	99
2525.852	1.575	1574.6	generate	Run4	generate/STIM_000.jpg	100
2530.211	0.765	765.4	generate	Run4	generate/STIM_000.jpg	100
2534.49	1.066	1065.7	generate	Run4	generate/STIM_000.jpg	100
2538.189	1.202	1202.4	generate	Run4	generate/STIM_001.jpg	100
2543.194	1.859	1858.6	generate	Run4	generate/STIM_001.jpg	100
2548.674	1.212	1211.5	generate	Run4	generate/STIM_001.jpg	99
2553.552	1.02	1020.0	generate	Run4	generate/STIM_001.jpg	99
2556.992	1.274	1273.5	generate	Run4	generate/STIM_001.jpg	99
2560.508	0.935	935.3	generate	Run4	generate/STIM_002.jpg	99
2563.609	1.204	1203.7	generate	Run4	generate/STIM_002.jpg	100
2567.55	0.928	927.9	generate	Run4	generate/STIM_002.jpg	99
2572.279	1.284	1284.4	generate	Run4	generate/STIM_002.jpg	99
2577.225	1.19	1189.6	generate	Run4	generate/STIM_002.jpg	100
2580.596	0.893	892.7	generate	Run4	generate/STIM_003.jpg	99
2584.234	1.766	1765.9	generate	Run4	generate/STIM_003.jpg	99
2589.117	1.728	1727.8	generate	Run4	generate/STIM_003.jpg	99
2594.384	0.929	929.2	generate	Run4	generate/STIM_003.jpg	100
2597.423	1.676	1675.8	generate	Run4	generate/STIM_003.jpg	100
2601.421	1.41	1410.2	generate	Run4	generate/STIM_004.jpg	100
2605.201	1.521	1521.1	generate	Run4	generate/STIM_004.jpg	100
2609.336	1.05	1049.6	generate	Run4	generate/STIM_004.jpg	99
2612.702	1.705	1705.2	generate	Run4	generate/STIM_004.jpg	99
2616.684	1.635	1635.3	generate	Run4	generate/STIM_004.jpg	99
2622.305	1.014	1014.0	generate	Run4	generate/STIM_005.jpg	99
2626.552	1.531	1531.1	generate	Run4	generate/STIM_005.jpg	99
2631.308	1.021	1020.6	generate	Run4	generate/STIM_005.jpg	99
2635.699	1.458	1458.1	generate	Run4	generate/STIM_005.jpg	100
2641.119	1.499	1498.7	generate	Run4	generate/STIM_005.jpg	100
2646.571	0.837	837.2	generate	Run4	generate/STIM_006.jpg	99
2649.9	0.991	991.4	generate	Run4	generate/STIM_006.jpg	99
2652.967	0.991	991.1	generate	Run4	generate/STIM_006.jpg	99
2657.414	1.073	1073.2	generate	Run4	generate/STIM_006.jpg	99
2660.648	1.579	1578.8	generate	Run4	generate/STIM_006.jpg	99
2665.882	1.713	1712.8	generate	Run4	generate/STIM_007.jpg	99
2669.684	1.464	1463.8	generate	Run4	generate/STIM_007.jpg	99
2673.543	1.295	1294.9	generate	Run4	generate/STIM_007.jpg	99
2677.185	1.026	1025.7	generate	Run4	generate/STIM_007.jpg	99
2681.661	1.596	1596.1	generate	Run4	generate/STIM_007.jpg	100
2685.893	1.062	1061.5	generate	Run4	generate/STIM_008.jpg	99
2690.699	1.654	1653.8	generate	Run4	generate/STIM_008.jpg	100
2694.633	1.024	1023.6	generate	Run4	generate/STIM_008.jpg	99
2698.512	1.212	1212.1	generate	Run4	generate/STIM_008.jpg	100
2702.9	0.893	892.8	generate	Run4	generate/STIM_008.jpg	100
2707.378	0.785	785.1	generate	Run4	generate/STIM_009.jpg	100
2711.372	1.449	1449.4	generate	Run4	generate/STIM_009.jpg	100
2715.249	1.476	1476.4	generate	Run4	generate/STIM_009.jpg	99
2719.294	1.872	1872.0	generate	Run4	generate/STIM_009.jpg	99
2725.157	1.137	1136.6	generate	Run4	generate/STIM_009.jpg	99
2730.15	1.114	1113.6	generate	Run4	generate/STIM_010.jpg	99
2733.563	1.291	1291.2	generate	Run4	generate/STIM_010.jpg	100
2738.126	1.711	1711.3	generate	Run4	generate/STIM_010.jpg	100
2742.734	1.31	1309.9	generate	Run4	generate/STIM_010.jpg	100
2746.366	0.766	765.9	generate	Run4	generate/STIM_010.jpg	99
2750.156	1.474	1473.6	generate	Run4	generate/STIM_011.jpg	100
2754.03	1.641	1641.1	generate	Run4	generate/STIM_011.jpg	99
2759.32	1.079	1079.1	generate	Run4	generate/STIM_011.jpg	100
2762.551	1.118	1117.5	generate	Run4	generate/STIM_011.jpg	100
2767.374	1.46	1459.8	generate	Run4	generate/STIM_011.jpg	100
2772.651	1.137	1137.4	generate	Run4	generate/STIM_012.jpg	99
2776.489	1.647	1647.1	generate	Run4	generate/STIM_012.jpg	100
2781.653	1.13	1129.8	generate	Run4	generate/STIM_012.jpg	100
2785.143	1.075	1075.3	generate	Run4	generate/STIM_012.jpg	100
2788.413	1.469	1469.0	generate	Run4	generate/STIM_012.jpg	100
2793.008	0.943	943.0	generate	Run4	generate/STIM_013.jpg	100
2796.284	1.362	1362.2	generate	Run4	generate/STIM_013.jpg	99
2800.269	1.074	1074.5	generate	Run4	generate/STIM_013.jpg	100
2804.326	0.853	853.1	generate	Run4	generate/STIM_013.jpg	99
2808.659	1.019	1018.7	generate	Run4	generate/STIM_013.jpg	100
2813.006	0.946	945.8	generate	Run4	generate/STIM_014.jpg	99
2816.422	1.286	1285.9	generate	Run4	generate/STIM_014.jpg	100
2820.59	1.542	1542.4	generate	Run4	generate/STIM_014.jpg	100
2825.489	1.607	1607.4	generate	Run4	generate/STIM_014.jpg	99
2830.223	1.758	1757.9	generate	Run4	generate/STIM_014.jpg	99
2835.585	1.528	1528.2	generate	Run4	generate/STIM_015.jpg	100
2839.518	1.769	1769.1	generate	Run4	generate/STIM_015.jpg	99
2845.092	1.313	1312.9	generate	Run4	generate/STIM_015.jpg	100
2849.442	1.09	1089.5	generate	Run4	generate/STIM_015.jpg	100
2854.379	1.471	1470.9	generate	Run4	generate/STIM_015.jpg	100
2858.769	1.758	1757.7	generate	Run4	generate/STIM_016.jpg	99
2862.564	1.404	1404.5	generate	Run4	generate/STIM_016.jpg	100
2867.195	0.852	851.6	generate	Run4	generate/STIM_016.jpg	99
2870.11	1.836	1835.7	generate	Run4	generate/STIM_016.jpg	99
2875.032	1.177	1177.2	generate	Run4	generate/STIM_016.jpg	100
2879.521	1.027	1027.1	generate	Run4	generate/STIM_017.jpg	99
2882.748	1.856	1856.4	generate	Run4	generate/STIM_017.jpg	99
2887.509	1.709	1708.6	generate	Run4	generate/STIM_017.jpg	99
2893.125	1.152	1152.4	generate	Run4	generate/STIM_017.jpg	99
2896.78	0.77	769.5	generate	Run4	generate/STIM_017.jpg	100
2900.574	1.499	1498.6	generate	Run4	generate/STIM_018.jpg	99
2905.866	1.062	1062.4	generate	Run4	generate/STIM_018.jpg	99
2910.732	1.27	1270.2	generate	Run4	generate/STIM_018.jpg	100
2915.009	1.637	1637.2	generate	Run4	generate/STIM_018.jpg	99
2919.933	1.49	1489.9	generate	Run4	generate/STIM_018.jpg	100
2923.989	1.3	1299.8	generate	Run4	generate/STIM_019.jpg	100
2928.599	1.197	1197.2	generate	Run4	generate/STIM_019.jpg	99
2932.582	1.124	1124.5	generate	Run4	generate/STIM_019.jpg	100
2935.871	1.327	1326.6	generate	Run4	generate/STIM_019.jpg	100
2939.604	1.177	1176.9	generate	Run4	generate/STIM_019.jpg	100
2943.839	1.396	1396.2	generate	Run4	generate/STIM_020.jpg	100
2947.635	1.209	1208.8	generate	Run4	generate/STIM_020.jpg	100
2952.449	1.486	1485.9	generate	Run4	generate/STIM_020.jpg	99
2956.781	1.842	1842.1	generate	Run4	generate/STIM_020.jpg	99
2961.751	1.813	1813.3	generate	Run4	generate/STIM_020.jpg	99
2965.916	1.668	1668.3	generate	Run4	generate/STIM_021.jpg	100
2969.965	1.255	1255.2	generate	Run4	generate/STIM_021.jpg	100
2973.774	1.584	1583.9	generate	Run4	generate/STIM_021.jpg	100
2978.738	1.66	1660.4	generate	Run4	generate/STIM_021.jpg	100
2983.926	1.67	1669.7	generate	Run4	generate/STIM_021.jpg	99
2988.844	0.948	948.0	generate	Run4	generate/STIM_022.jpg	100
2991.995	1.42	1420.2	generate	Run4	generate/STIM_022.jpg	100
2996.141	1.07	1070.1	generate	Run4	generate/STIM_022.jpg	99
3001.086	1.402	1402.0	generate	Run4	generate/STIM_022.jpg	99
3005.356	1.205	1205.1	generate	Run4	generate/STIM_022.jpg	99
3008.915	1.85	1849.7	generate	Run4	generate/STIM_023.jpg	100
3012.787	0.98	979.7	generate	Run4	generate/STIM_023.jpg	99
3017.157	1.564	1564.4	generate	Run4	generate/STIM_023.jpg	99
3022.535	0.823	822.7	generate	Run4	generate/STIM_023.jpg	100
3026.42	1.672	1672.3	generate	Run4	generate/STIM_023.jpg	100
3030.453	1.061	1060.8	generate	Run4	generate/STIM_024.jpg	99
3034.894	1.082	1081.9	generate	Run4	generate/STIM_024.jpg	100
3038.733	1.421	1421.4	generate	Run4	generate/STIM_024.jpg	100
3043.857	1.388	1388.3	generate	Run4	generate/STIM_024.jpg	99
3048.504	1.567	1567.1	generate	Run4	generate/STIM_024.jpg	100
3053.084	0.467	467.2	repeat	Run4	repeat/STIM_000.jpg	100
3056.046	0.858	858.4	repeat	Run4	repeat/STIM_000.jpg	100
3059.24	0.638	638.0	repeat	Run4	repeat/STIM_000.jpg	99
3063.538	0.863	863.3	repeat	Run4	repeat/STIM_000.jpg	99
3068.302	0.549	549.0	repeat	Run4	repeat/STIM_000.jpg	100
3072.399	0.792	792.0	repeat	Run4	repeat/STIM_001.jpg	100
3076.884	0.722	721.7	repeat	Run4	repeat/STIM_001.jpg	100
3079.852	0.475	475.3	repeat	Run4	repeat/STIM_001.jpg	100
3084.108	0.724	724.4	repeat	Run4	repeat/STIM_001.jpg	99
3087.909	0.66	659.8	repeat	Run4	repeat/STIM_001.jpg	99
3091.401	0.519	518.8	repeat	Run4	repeat/STIM_002.jpg	99
3095.484	0.452	451.5	repeat	Run4	repeat/STIM_002.jpg	99
3099.086	0.496	495.5	repeat	Run4	repeat/STIM_002.jpg	99
3101.614	0.652	652.1	repeat	Run4	repeat/STIM_002.jpg	100
3104.379	0.808	807.9	repeat	Run4	repeat/STIM_002.jpg	100
3108.277	0.787	787.2	repeat	Run4	repeat/STIM_003.jpg	99
3112.732	0.633	633.1	repeat	Run4	repeat/STIM_003.jpg	99
3116.18	0.485	485.3	repeat	Run4	repeat/STIM_003.jpg	100
3119.763	0.825	824.6	repeat	Run4	repeat/STIM_003.jpg	100
3124.162	0.589	589.0	repeat	Run4	repeat/STIM_003.jpg	100
3128.337	0.447	446.8	repeat	Run4	repeat/STIM_004.jpg	99
3132.312	0.546	546.0	repeat	Run4	repeat/STIM_004.jpg	100
3135.433	0.548	548.4	repeat	Run4	repeat/STIM_004.jpg	99
3139.059	0.676	675.7	repeat	Run4	repeat/STIM_004.jpg	100
3143.063	0.828	828.0	repeat	Run4	repeat/STIM_004.jpg	99
3147.875	0.766	765.8	repeat	Run4	repeat/STIM_005.jpg	100
3151.043	0.487	487.2	repeat	Run4	repeat/STIM_005.jpg	99
3153.693	0.797	796.7	repeat	Run4	repeat/STIM_005.jpg	100
3157.738	0.754	754.1	repeat	Run4	repeat/STIM_005.jpg	100
3162.463	0.798	797.9	repeat	Run4	repeat/STIM_005.jpg	100
3166.81	0.71	709.8	repeat	Run4	repeat/STIM_006.jpg	99
3171.319	0.477	477.1	repeat	Run4	repeat/STIM_006.jpg	99
3175.361	0.659	658.7	repeat	Run4	repeat/STIM_006.jpg	100
3179.637	0.525	525.2	repeat	Run4	repeat/STIM_006.jpg	100
3183.934	0.559	558.6	repeat	Run4	repeat/STIM_006.jpg	100
3188.351	0.74	740.1	repeat	Run4	repeat/STIM_007.jpg	99
3192.219	0.878	877.5	repeat	Run4	repeat/STIM_007.jpg	99
3195.397	0.6	600.2	repeat	Run4	repeat/STIM_007.jpg	99
3198.959	0.722	722.1	repeat	Run4	repeat/STIM_007.jpg	100
3202.181	0.782	781.7	repeat	Run4	repeat/STIM_007.jpg	100
3206.579	0.494	494.4	repeat	Run4	repeat/STIM_008.jpg	99
3209.518	0.838	838.4	repeat	Run4	repeat/STIM_008.jpg	100
3214.228	0.809	809.0	repeat	Run4	repeat/STIM_008.jpg	99
3217.796	0.574	574.3	repeat	Run4	repeat/STIM_008.jpg	99
3220.796	0.723	723.3	repeat	Run4	repeat/STIM_008.jpg	100
3223.594	0.65	650.3	repeat	Run4	repeat/STIM_009.jpg	99
3227.794	0.804	803.7	repeat	Run4	repeat/STIM_009.jpg	99
3232.467	0.727	727.2	repeat	Run4	repeat/STIM_009.jpg	99
3236.06	0.704	704.3	repeat	Run4	repeat/STIM_009.jpg	100
3240.683	0.527	526.8	repeat	Run4	repeat/STIM_009.jpg	99
3244.562	0.698	698.4	repeat	Run4	repeat/STIM_010.jpg	99
3248.534	0.776	775.5	repeat	Run4	repeat/STIM_010.jpg	99
3251.315	0.562	562.5	repeat	Run4	repeat/STIM_010.jpg	99
3255.065	0.705	705.4	repeat	Run4	repeat/STIM_010.jpg	100
3259.231	0.878	877.8	repeat	Run4	repeat/STIM_010.jpg	99
3263.095	0.792	792.2	repeat	Run4	repeat/STIM_011.jpg	99
3267.254	0.612	611.8	repeat	Run4	repeat/STIM_011.jpg	100
3270.89	0.519	518.9	repeat	Run4	repeat/STIM_011.jpg	99
3273.578	0.553	553.4	repeat	Run4	repeat/STIM_011.jpg	99
3276.605	0.587	586.7	repeat	Run4	repeat/STIM_011.jpg	99
3279.296	0.53	529.6	repeat	Run4	repeat/STIM_012.jpg	99
3282.61	0.827	827.0	repeat	Run4	repeat/STIM_012.jpg	100
3285.913	0.748	747.8	repeat	Run4	repeat/STIM_012.jpg	99
3289.96	0.776	775.9	repeat	Run4	repeat/STIM_012.jpg	100
3293.303	0.577	577.4	repeat	Run4	repeat/STIM_012.jpg	100
3297.188	0.695	694.6	repeat	Run4	repeat/STIM_013.jpg	99
3300.483	0.817	816.9	repeat	Run4	repeat/STIM_013.jpg	100
3303.478	0.785	785.2	repeat	Run4	repeat/STIM_013.jpg	100
3307.416	0.741	741.0	repeat	Run4	repeat/STIM_013.jpg	100
3311.841	0.487	487.4	repeat	Run4	repeat/STIM_013.jpg	99
3316.007	0.727	727.3	repeat	Run4	repeat/STIM_014.jpg	99
3319.564	0.763	763.4	repeat	Run4	repeat/STIM_014.jpg	99
3323.251	0.488	488.3	repeat	Run4	repeat/STIM_014.jpg	99
3327.475	0.775	774.6	repeat	Run4	repeat/STIM_014.jpg	100
3331.238	0.892	892.3	repeat	Run4	repeat/STIM_014.jpg	99
