onset	duration	response_time_ms	trial_type	learning_stage	stimulus	response_port
0.0	1.614	1614.4	generate	Run1	generate/STIM_000.jpg	99
5.009	1.987	1986.9	generate	Run1	generate/STIM_000.jpg	100
9.164	1.692	1692.4	generate	Run1	generate/STIM_000.jpg	100
14.726	1.094	1093.9	generate	Run1	generate/STIM_000.jpg	100
18.695	1.734	1734.4	generate	Run1	generate/STIM_000.jpg	100
23.937	2.143	2142.7	generate	Run1	generate/STIM_001.jpg	100
29.719	1.58	1579.6	generate	Run1	generate/STIM_001.jpg	100
34.301	1.854	1854.5	generate	Run1	generate/STIM_001.jpg	99
38.741	2.341	2340.8	generate	Run1	generate/STIM_001.jpg	100
44.518	1.766	1766.2	generate	Run1	generate/STIM_001.jpg	100
49.267	1.726	1725.5	generate	Run1	generate/STIM_002.jpg	99
53.638	1.948	1948.3	generate	Run1	generate/STIM_002.jpg	100
58.937	2.648	2648.5	generate	Run1	generate/STIM_002.jpg	99
65.262	1.952	1952.3	generate	Run1	generate/STIM_002.jpg	99
69.823	1.318	1318.0	generate	Run1	generate/STIM_002.jpg	100
74.857	1.485	1484.9	generate	Run1	generate/STIM_003.jpg	100
80.112	1.954	1954.2	generate	Run1	generate/STIM_003.jpg	100
85.979	1.155	1154.8	generate	Run1	generate/STIM_003.jpg	100
90.642	2.402	2402.0	generate	Run1	generate/STIM_003.jpg	100
95.16	2.043	2043.2	generate	Run1	generate/STIM_003.jpg	99
99.733	1.225	1224.8	generate	Run1	generate/STIM_004.jpg	99
103.072	1.613	1613.4	generate	Run1	generate/STIM_004.jpg	99
107.748	1.817	1817.0	generate	Run1	generate/STIM_004.jpg	100
112.736	1.136	1135.9	generate	Run1	generate/STIM_004.jpg	100
117.32	1.228	1228.2	generate	Run1	generate/STIM_004.jpg	99
121.63	1.215	1214.8	generate	Run1	generate/STIM_005.jpg	100
125.3	2.75	2749.5	generate	Run1	generate/STIM_005.jpg	100
130.776	1.865	1865.2	generate	Run1	generate/STIM_005.jpg	100
136.141	1.11	1109.7	generate	Run1	generate/STIM_005.jpg	100
140.34	1.203	1203.3	generate	Run1	generate/STIM_005.jpg	100
144.69	2.619	2619.3	generate	Run1	generate/STIM_006.jpg	100
150.492	1.943	1943.3	generate	Run1	generate/STIM_006.jpg	99
155.327	2.528	2528.2	generate	Run1	generate/STIM_006.jpg	99
160.862	1.072	1072.5	generate	Run1	generate/STIM_006.jpg	99
165.822	1.857	1857.2	generate	Run1	generate/STIM_006.jpg	100
170.545	2.371	2370.6	generate	Run1	generate/STIM_007.jpg	99
176.477	1.645	1644.6	generate	Run1	generate/STIM_007.jpg	100
180.699	1.796	1795.8	generate	Run1	generate/STIM_007.jpg	100
186.405	2.217	2217.0	generate	Run1	generate/STIM_007.jpg	99
191.894	2.061	2060.7	generate	Run1	generate/STIM_007.jpg	99
196.273	2.326	2326.1	generate	Run1	generate/STIM_008.jpg	99
200.65	1.433	1433.0	generate	Run1	generate/STIM_008.jpg	100
204.623	2.473	2473.4	generate	Run1	generate/STIM_008.jpg	99
209.501	2.448	2447.6	generate	Run1	generate/STIM_008.jpg	99
215.75	1.323	1323.0	generate	Run1	generate/STIM_008.jpg	99
219.405	1.495	1494.8	generate	Run1	generate/STIM_009.jpg	100
223.451	2.19	2189.9	generate	Run1	generate/STIM_009.jpg	99
229.047	1.156	1155.8	generate	Run1	generate/STIM_009.jpg	100
232.79	1.294	1293.9	generate	Run1	generate/STIM_009.jpg	100
236.571	1.716	1716.5	generate	Run1	generate/STIM_009.jpg	100
241.401	2.59	2590.1	generate	Run1	generate/STIM_010.jpg	100
246.604	1.66	1660.1	generate	Run1	generate/STIM_010.jpg	99
251.925	1.928	1928.5	generate	Run1	generate/STIM_010.jpg	100
255.908	1.321	1321.3	generate	Run1	generate/STIM_010.jpg	99
261.008	1.222	1222.4	generate	Run1	generate/STIM_010.jpg	100
265.742	1.405	1405.4	generate	Run1	generate/STIM_011.jpg	99
270.519	1.458	1457.6	generate	Run1	generate/STIM_011.jpg	100
275.376	1.587	1587.3	generate	Run1	generate/STIM_011.jpg	100
279.812	2.103	2103.3	generate	Run1	generate/STIM_011.jpg	99
285.222	1.705	1705.0	generate	Run1	generate/STIM_011.jpg	99
290.727	2.702	2701.9	generate	Run1	generate/STIM_012.jpg	99
296.951	1.846	1846.0	generate	Run1	generate/STIM_012.jpg	99
302.612	1.237	1237.0	generate	Run1	generate/STIM_012.jpg	99
306.09	1.2	1199.9	generate	Run1	generate/STIM_012.jpg	99
311.159	1.468	1468.5	generate	Run1	generate/STIM_012.jpg	100
315.738	1.556	1556.1	generate	Run1	generate/STIM_013.jpg	99
321.15	2.15	2149.8	generate	Run1	generate/STIM_013.jpg	100
325.767	1.676	1676.5	generate	Run1	generate/STIM_013.jpg	99
331.115	2.371	2371.3	generate	Run1	generate/STIM_013.jpg	99
337.215	2.162	2161.9	generate	Run1	generate/STIM_013.jpg	99
341.721	2.901	2901.4	generate	Run1	generate/STIM_014.jpg	100
347.797	2.71	2710.1	generate	Run1	generate/STIM_014.jpg	100
354.007	1.906	1906.0	generate	Run1	generate/STIM_014.jpg	100
359.101	1.583	1582.7	generate	Run1	generate/STIM_014.jpg	100
364.619	1.406	1405.6	generate	Run1	generate/STIM_014.jpg	100
369.432	1.281	1281.1	generate	Run1	generate/STIM_015.jpg	99
373.375	1.195	1194.8	generate	Run1	generate/STIM_015.jpg	100
377.736	1.852	1852.2	generate	Run1	generate/STIM_015.jpg	99
383.172	2.047	2046.8	generate	Run1	generate/STIM_015.jpg	100
388.364	1.893	1893.3	generate	Run1	generate/STIM_015.jpg	100
394.121	1.712	1711.8	generate	Run1	generate/STIM_016.jpg	100
399.353	1.567	1567.0	generate	Run1	generate/STIM_016.jpg	99
403.331	1.216	1215.7	generate	Run1	generate/STIM_016.jpg	99
406.574	1.795	1795.1	generate	Run1	generate/STIM_016.jpg	99
411.253	1.906	1906.1	generate	Run1	generate/STIM_016.jpg	100
416.987	1.487	1486.9	generate	Run1	generate/STIM_017.jpg	100
421.857	2.099	2098.9	generate	Run1	generate/STIM_017.jpg	100
427.972	1.1	1100.3	generate	Run1	generate/STIM_017.jpg	100
432.01	1.152	1151.9	generate	Run1	generate/STIM_017.jpg	99
436.959	1.297	1296.8	generate	Run1	generate/STIM_017.jpg	100
441.139	1.253	1253.2	generate	Run1	generate/STIM_018.jpg	99
445.354	2.049	2049.0	generate	Run1	generate/STIM_018.jpg	100
450.089	1.619	1619.1	generate	Run1	generate/STIM_018.jpg	100
454.36	1.776	1775.8	generate	Run1	generate/STIM_018.jpg	100
458.458	2.306	2306.1	generate	Run1	generate/STIM_018.jpg	100
463.92	2.427	2427.0	generate	Run1	generate/STIM_019.jpg	100
469.606	1.792	1792.3	generate	Run1	generate/STIM_019.jpg	99
475.357	2.497	2496.7	generate	Run1	generate/STIM_019.jpg	100
481.642	1.9	1900.0	generate	Run1	generate/STIM_019.jpg	100
486.396	1.589	1588.8	generate	Run1	generate/STIM_019.jpg	99
491.583	1.753	1753.2	generate	Run1	generate/STIM_020.jpg	99
497.057	1.244	1243.6	generate	Run1	generate/STIM_020.jpg	99
502.124	1.383	1382.6	generate	Run1	generate/STIM_020.jpg	100
506.49	1.362	1362.0	generate	Run1	generate/STIM_020.jpg	99
510.675	2.183	2183.1	generate	Run1	generate/STIM_020.jpg	99
515.285	1.379	1379.1	generate	Run1	generate/STIM_021.jpg	99
518.921	2.8	2800.3	generate	Run1	generate/STIM_021.jpg	100
524.675	1.723	1722.6	generate	Run1	generate/STIM_021.jpg	100
529.769	2.021	2020.5	generate	Run1	generate/STIM_021.jpg	100
534.519	1.635	1634.6	generate	Run1	generate/STIM_021.jpg	100
539.769	1.914	1914.1	generate	Run1	generate/STIM_022.jpg	100
544.567	1.505	1505.3	generate	Run1	generate/STIM_022.jpg	99
549.165	1.179	1178.7	generate	Run1	generate/STIM_022.jpg	99
553.541	1.334	1333.5	generate	Run1	generate/STIM_022.jpg	100
557.555	1.083	1082.6	generate	Run1	generate/STIM_022.jpg	99
562.597	2.124	2124.2	generate	Run1	generate/STIM_023.jpg	100
567.286	2.348	2348.2	generate	Run1	generate/STIM_023.jpg	100
573.214	2.003	2002.8	generate	Run1	generate/STIM_023.jpg	99
579.142	1.588	1587.6	generate	Run1	generate/STIM_023.jpg	99
584.439	1.923	1922.6	generate	Run1	generate/STIM_023.jpg	99
589.225	2.054	2054.0	generate	Run1	generate/STIM_024.jpg	99
594.844	1.157	1157.4	generate	Run1	generate/STIM_024.jpg	100
598.502	2.355	2354.8	generate	Run1	generate/STIM_024.jpg	100
602.936	1.258	1258.5	generate	Run1	generate/STIM_024.jpg	99
607.227	1.931	1931.3	generate	Run1	generate/STIM_024.jpg	100
612.457	0.644	643.8	repeat	Run1	repeat/STIM_000.jpg	99
615.58	0.827	826.6	repeat	Run1	repeat/STIM_000.jpg	100
620.316	0.686	686.3	repeat	Run1	repeat/STIM_000.jpg	99
623.806	0.868	867.8	repeat	Run1	repeat/STIM_000.jpg	100
628.009	0.544	544.3	repeat	Run1	repeat/STIM_000.jpg	99
631.096	0.624	623.9	repeat	Run1	repeat/STIM_001.jpg	100
635.492	0.854	853.9	repeat	Run1	repeat/STIM_001.jpg	99
640.3	0.678	678.5	repeat	Run1	repeat/STIM_001.jpg	99
644.8	0.78	780.0	repeat	Run1	repeat/STIM_001.jpg	100
649.517	0.556	555.8	repeat	Run1	repeat/STIM_001.jpg	99
652.514	0.966	966.5	repeat	Run1	repeat/STIM_002.jpg	100
657.138	0.64	640.4	repeat	Run1	repeat/STIM_002.jpg	99
661.181	0.649	649.3	repeat	Run1	repeat/STIM_002.jpg	100
665.581	0.748	747.5	repeat	Run1	repeat/STIM_002.jpg	99
668.985	0.519	519.2	repeat	Run1	repeat/STIM_002.jpg	100
671.562	0.518	517.9	repeat	Run1	repeat/STIM_003.jpg	100
674.64	0.894	893.7	repeat	Run1	repeat/STIM_003.jpg	100
679.491	0.711	710.9	repeat	Run1	repeat/STIM_003.jpg	100
682.643	0.717	716.6	repeat	Run1	repeat/STIM_003.jpg	100
685.506	0.518	518.5	repeat	Run1	repeat/STIM_003.jpg	100
688.353	0.825	824.9	repeat	Run1	repeat/STIM_004.jpg	100
692.391	0.963	963.1	repeat	Run1	repeat/STIM_004.jpg	99
696.872	0.607	606.8	repeat	Run1	repeat/STIM_004.jpg	99
700.242	0.899	898.9	repeat	Run1	repeat/STIM_004.jpg	99
703.503	0.681	681.2	repeat	Run1	repeat/STIM_004.jpg	99
706.919	0.554	553.5	repeat	Run1	repeat/STIM_005.jpg	100
710.456	0.579	579.1	repeat	Run1	repeat/STIM_005.jpg	100
714.849	0.837	837.2	repeat	Run1	repeat/STIM_005.jpg	99
719.114	0.567	566.9	repeat	Run1	repeat/STIM_005.jpg	100
722.399	0.796	795.5	repeat	Run1	repeat/STIM_005.jpg	99
727.047	0.647	647.2	repeat	Run1	repeat/STIM_006.jpg	100
730.013	0.527	526.8	repeat	Run1	repeat/STIM_006.jpg	99
734.31	0.758	757.8	repeat	Run1	repeat/STIM_006.jpg	99
737.348	0.507	507.1	repeat	Run1	repeat/STIM_006.jpg	100
740.573	0.536	536.4	repeat	Run1	repeat/STIM_006.jpg	100
743.97	0.716	716.1	repeat	Run1	repeat/STIM_007.jpg	100
748.569	0.911	910.7	repeat	Run1	repeat/STIM_007.jpg	100
752.379	0.663	662.6	repeat	Run1	repeat/STIM_007.jpg	99
755.441	0.784	783.7	repeat	Run1	repeat/STIM_007.jpg	99
758.354	0.934	933.5	repeat	Run1	repeat/STIM_007.jpg	100
763.297	0.959	959.0	repeat	Run1	repeat/STIM_008.jpg	100
767.149	0.979	978.6	repeat	Run1	repeat/STIM_008.jpg	99
771.914	0.509	509.4	repeat	Run1	repeat/STIM_008.jpg	100
776.136	0.712	712.2	repeat	Run1	repeat/STIM_008.jpg	99
780.445	0.948	947.9	repeat	Run1	repeat/STIM_008.jpg	100
784.985	0.661	660.6	repeat	Run1	repeat/STIM_009.jpg	100
788.557	0.612	612.5	repeat	Run1	repeat/STIM_009.jpg	100
791.714	0.933	933.3	repeat	Run1	repeat/STIM_009.jpg	100
796.446	0.975	975.4	repeat	Run1	repeat/STIM_009.jpg	99
799.776	0.873	872.9	repeat	Run1	repeat/STIM_009.jpg	100
804.315	0.585	585.4	repeat	Run1	repeat/STIM_010.jpg	100
808.821	0.666	665.8	repeat	Run1	repeat/STIM_010.jpg	99
812.131	0.822	821.6	repeat	Run1	repeat/STIM_010.jpg	100
815.206	0.798	798.4	repeat	Run1	repeat/STIM_010.jpg	99
819.265	0.516	516.1	repeat	Run1	repeat/STIM_010.jpg	100
822.369	0.683	683.4	repeat	Run1	repeat/STIM_011.jpg	100
826.964	0.862	862.2	repeat	Run1	repeat/STIM_011.jpg	100
830.539	0.571	571.2	repeat	Run1	repeat/STIM_011.jpg	99
834.849	0.978	978.0	repeat	Run1	repeat/STIM_011.jpg	99
839.797	0.864	863.8	repeat	Run1	repeat/STIM_011.jpg	100
842.904	0.945	945.4	repeat	Run1	repeat/STIM_012.jpg	99
846.629	0.857	857.3	repeat	Run1	repeat/STIM_012.jpg	99
850.271	0.541	540.7	repeat	Run1	repeat/STIM_012.jpg	100
853.446	0.513	513.1	repeat	Run1	repeat/STIM_012.jpg	100
856.385	0.844	844.5	repeat	Run1	repeat/STIM_012.jpg	100
860.068	0.899	899.0	repeat	Run1	repeat/STIM_013.jpg	99
864.306	0.861	860.7	repeat	Run1	repeat/STIM_013.jpg	99
867.281	0.912	912.4	repeat	Run1	repeat/STIM_013.jpg	100
871.559	0.918	917.6	repeat	Run1	repeat/STIM_013.jpg	100
875.079	0.574	574.4	repeat	Run1	repeat/STIM_013.jpg	100
878.85	0.806	806.0	repeat	Run1	repeat/STIM_014.jpg	99
882.055	0.932	931.7	repeat	Run1	repeat/STIM_014.jpg	100
884.997	0.843	843.2	repeat	Run1	repeat/STIM_014.jpg	100
889.139	0.914	914.3	repeat	Run1	repeat/STIM_014.jpg	99
894.062	0.923	923.2	repeat	Run1	repeat/STIM_014.jpg	100
897.202	1.729	1728.7	generate	Run2	generate/STIM_000.jpg	99
901.088	1.024	1024.4	generate	Run2	generate/STIM_000.jpg	100
904.134	1.64	1640.1	generate	Run2	generate/STIM_000.jpg	99
907.819	1.123	1123.1	generate	Run2	generate/STIM_000.jpg	99
912.836	1.187	1186.8	generate	Run2	generate/STIM_000.jpg	100
916.781	1.491	1491.3	generate	Run2	generate/STIM_001.jpg	99
921.159	1.633	1632.6	generate	Run2	generate/STIM_001.jpg	100
926.538	1.294	1293.8	generate	Run2	generate/STIM_001.jpg	99
930.648	1.244	1243.7	generate	Run2	generate/STIM_001.jpg	99
934.481	1.257	1257.0	generate	Run2	generate/STIM_001.jpg	99
938.375	2.362	2362.0	generate	Run2	generate/STIM_002.jpg	100
944.736	1.155	1155.4	generate	Run2	generate/STIM_002.jpg	99
949.665	1.063	1063.3	generate	Run2	generate/STIM_002.jpg	99
953.404	1.658	1657.9	generate	Run2	generate/STIM_002.jpg	100
958.103	1.167	1167.1	generate	Run2	generate/STIM_002.jpg	100
961.71	1.697	1696.6	generate	Run2	generate/STIM_003.jpg	99
965.685	1.101	1101.3	generate	Run2	generate/STIM_003.jpg	99
970.243	1.078	1078.1	generate	Run2	generate/STIM_003.jpg	100
974.722	0.922	922.1	generate	Run2	generate/STIM_003.jpg	100
979.179	1.105	1105.3	generate	Run2	generate/STIM_003.jpg	99
983.98	2.277	2276.9	generate	Run2	generate/STIM_004.jpg	99
990.213	1.737	1736.9	generate	Run2	generate/STIM_004.jpg	100
995.544	1.828	1828.4	generate	Run2	generate/STIM_004.jpg	100
1000.886	1.974	1973.8	generate	Run2	generate/STIM_004.jpg	100
1006.272	1.265	1264.8	generate	Run2	generate/STIM_004.jpg	100
1009.923	2.522	2522.3	generate	Run2	generate/STIM_005.jpg	99
1016.2	2.142	2141.5	generate	Run2	generate/STIM_005.jpg	99
1020.955	1.101	1100.9	generate	Run2	generate/STIM_005.jpg	100
1024.182	1.813	1813.4	generate	Run2	generate/STIM_005.jpg	100
1028.36	1.985	1985.0	generate	Run2	generate/STIM_005.jpg	100
1032.987	2.13	2129.7	generate	Run2	generate/STIM_006.jpg	100
1038.355	1.901	1900.6	generate	Run2	generate/STIM_006.jpg	100
1043.385	1.17	1169.7	generate	Run2	generate/STIM_006.jpg	100
1048.026	1.871	1871.0	generate	Run2	generate/STIM_006.jpg	100
1052.481	2.052	2051.9	generate	Run2	generate/STIM_006.jpg	99
1057.557	2.034	2034.0	generate	Run2	generate/STIM_007.jpg	99
1063.011	1.732	1732.3	generate	Run2	generate/STIM_007.jpg	100
1068.431	1.577	1576.6	generate	Run2	generate/STIM_007.jpg	100
1073.874	1.13	1129.9	generate	Run2	generate/STIM_007.jpg	100
1078.631	1.255	1255.2	generate	Run2	generate/STIM_007.jpg	99
1083.163	1.571	1570.7	generate	Run2	generate/STIM_008.jpg	100
1087.97	1.127	1126.9	generate	Run2	generate/STIM_008.jpg	100
1092.724	1.742	1742.4	generate	Run2	generate/STIM_008.jpg	99
1097.861	1.184	1184.5	generate	Run2	generate/STIM_008.jpg	99
1102.355	1.713	1713.1	generate	Run2	generate/STIM_008.jpg	99
1107.202	2.02	2019.8	generate	Run2	generate/STIM_009.jpg	100
1112.489	1.279	1279.2	generate	Run2	generate/STIM_009.jpg	100
1117.56	2.208	2207.5	generate	Run2	generate/STIM_009.jpg	100
1122.062	1.88	1879.8	generate	Run2	generate/STIM_009.jpg	100
1126.547	2.071	2070.9	generate	Run2	generate/STIM_009.jpg	100
1130.772	1.684	1683.7	generate	Run2	generate/STIM_010.jpg	100
1136.137	2.109	2109.4	generate	Run2	generate/STIM_010.jpg	100
1141.212	2.157	2157.2	generate	Run2	generate/STIM_010.jpg	99
1146.523	1.431	1431.0	generate	Run2	generate/STIM_010.jpg	99
1150.0	1.338	1338.0	generate	Run2	generate/STIM_010.jpg	99
1154.415	1.287	1286.8	generate	Run2	generate/STIM_011.jpg	99
1157.838	1.006	1005.8	generate	Run2	generate/STIM_011.jpg	100
1160.968	2.053	2053.3	generate	Run2	generate/STIM_011.jpg	100
1165.487	1.017	1017.0	generate	Run2	generate/STIM_011.jpg	99
1169.575	1.076	1076.4	generate	Run2	generate/STIM_011.jpg	100
1173.505	2.523	2522.6	generate	Run2	generate/STIM_012.jpg	99
1178.354	1.259	1258.8	generate	Run2	generate/STIM_012.jpg	99
1183.047	1.851	1850.6	generate	Run2	generate/STIM_012.jpg	99
1187.574	1.103	1102.9	generate	Run2	generate/STIM_012.jpg	99
1190.962	1.438	1437.8	generate	Run2	generate/STIM_012.jpg	100
1195.586	2.082	2081.9	generate	Run2	generate/STIM_013.jpg	99
1200.341	1.309	1309.3	generate	Run2	generate/STIM_013.jpg	99
1204.264	1.659	1658.9	generate	Run2	generate/STIM_013.jpg	99
1208.915	1.712	1712.4	generate	Run2	generate/STIM_013.jpg	100
1214.281	1.24	1240.3	generate	Run2	generate/STIM_013.jpg	100
1218.539	2.385	2385.4	generate	Run2	generate/STIM_014.jpg	100
1222.993	1.96	1959.7	generate	Run2	generate/STIM_014.jpg	100
1228.418	2.005	2005.3	generate	Run2	generate/STIM_014.jpg	100
1233.78	1.525	1524.7	generate	Run2	generate/STIM_014.jpg	100
1237.395	1.731	1731.1	generate	Run2	generate/STIM_014.jpg	100
1242.75	1.043	1043.2	generate	Run2	generate/STIM_015.jpg	100
1246.369	1.358	1358.5	generate	Run2	generate/STIM_015.jpg	99
1251.552	2.094	2093.5	generate	Run2	generate/STIM_015.jpg	100
1257.0	1.153	1152.7	generate	Run2	generate/STIM_015.jpg	100
1261.432	0.85	850.0	generate	Run2	generate/STIM_015.jpg	99
1266.002	1.327	1326.7	generate	Run2	generate/STIM_016.jpg	100
1269.76	2.289	2288.8	generate	Run2	generate/STIM_016.jpg	99
1276.015	2.082	2081.5	generate	Run2	generate/STIM_016.jpg	99
1280.172	0.881	880.7	generate	Run2	generate/STIM_016.jpg	100
1284.093	2.057	2056.9	generate	Run2	generate/STIM_016.jpg	99
1288.663	1.678	1677.7	generate	Run2	generate/STIM_017.jpg	99
1292.889	1.18	1179.5	generate	Run2	generate/STIM_017.jpg	100
1296.189	1.904	1904.2	generate	Run2	generate/STIM_017.jpg	99
1300.542	1.63	1630.3	generate	Run2	generate/STIM_017.jpg	100
1304.573	0.974	974.1	generate	Run2	generate/STIM_017.jpg	99
1308.603	1.641	1641.1	generate	Run2	generate/STIM_018.jpg	99
1312.849	1.66	1660.1	generate	Run2	generate/STIM_018.jpg	99
1317.083	1.108	1107.6	generate	Run2	generate/STIM_018.jpg	100
1320.317	1.18	1180.5	generate	Run2	generate/STIM_018.jpg	100
1323.774	2.013	2013.1	generate	Run2	generate/STIM_018.jpg	99
1329.406	2.046	2045.6	generate	Run2	generate/STIM_019.jpg	100
1334.399	1.298	1297.8	generate	Run2	generate/STIM_019.jpg	100
1339.255	1.711	1711.2	generate	Run2	generate/STIM_019.jpg	99
1343.547	0.832	831.9	generate	Run2	generate/STIM_019.jpg	99
1346.934	0.943	942.6	generate	Run2	generate/STIM_019.jpg	100
1351.51	1.531	1531.1	generate	Run2	generate/STIM_020.jpg	99
1355.165	2.322	2322.2	generate	Run2	generate/STIM_020.jpg	100
1360.6	1.147	1146.6	generate	Run2	generate/STIM_020.jpg	100
1363.82	1.312	1312.4	generate	Run2	generate/STIM_020.jpg	100
1368.633	1.989	1988.6	generate	Run2	generate/STIM_020.jpg	100
1374.075	1.798	1798.4	generate	Run2	generate/STIM_021.jpg	100
1378.357	1.95	1950.1	generate	Run2	generate/STIM_021.jpg	99
1383.878	2.105	2104.7	generate	Run2	generate/STIM_021.jpg	99
1388.642	1.948	1947.8	generate	Run2	generate/STIM_021.jpg	99
1393.574	1.61	1610.3	generate	Run2	generate/STIM_021.jpg	100
1397.881	2.03	2029.8	generate	Run2	generate/STIM_022.jpg	100
1403.557	1.001	1001.2	generate	Run2	generate/STIM_022.jpg	100
1407.064	1.306	1306.3	generate	Run2	generate/STIM_022.jpg	100
1411.058	1.54	1539.5	generate	Run2	generate/STIM_022.jpg	100
1415.109	2.017	2016.6	generate	Run2	generate/STIM_022.jpg	99
1419.613	1.396	1396.5	generate	Run2	generate/STIM_023.jpg	100
1424.524	2.253	2253.3	generate	Run2	generate/STIM_023.jpg	99
1429.631	1.615	1615.4	generate	Run2	generate/STIM_023.jpg	100
1434.433	1.921	1921.4	generate	Run2	generate/STIM_023.jpg	99
1438.477	1.748	1748.3	generate	Run2	generate/STIM_023.jpg	99
1443.033	2.083	2082.6	generate	Run2	generate/STIM_024.jpg	99
1447.341	1.092	1092.3	generate	Run2	generate/STIM_024.jpg	99
1451.188	2.212	2212.0	generate	Run2	generate/STIM_024.jpg	100
1456.061	1.362	1361.8	generate	Run2	generate/STIM_024.jpg	99
1460.684	1.416	1415.6	generate	Run2	generate/STIM_024.jpg	99
1465.117	0.805	804.7	repeat	Run2	repeat/STIM_000.jpg	99
1468.33	0.73	730.2	repeat	Run2	repeat/STIM_000.jpg	99
1472.513	0.613	612.8	repeat	Run2	repeat/STIM_000.jpg	100
1476.203	0.676	675.6	repeat	Run2	repeat/STIM_000.jpg	100
1480.882	0.641	641.0	repeat	Run2	repeat/STIM_000.jpg	99
1485.143	0.596	596.2	repeat	Run2	repeat/STIM_001.jpg	100
1488.172	0.795	794.9	repeat	Run2	repeat/STIM_001.jpg	100
1491.155	0.954	953.6	repeat	Run2	repeat/STIM_001.jpg	99
1495.821	0.706	706.1	repeat	Run2	repeat/STIM_001.jpg	99
1499.155	0.774	773.9	repeat	Run2	repeat/STIM_001.jpg	100
1501.952	0.701	701.4	repeat	Run2	repeat/STIM_002.jpg	99
1506.24	0.891	890.9	repeat	Run2	repeat/STIM_002.jpg	99
1510.297	0.698	697.7	repeat	Run2	repeat/STIM_002.jpg	100
1514.676	0.866	866.3	repeat	Run2	repeat/STIM_002.jpg	99
1518.359	0.514	514.3	repeat	Run2	repeat/STIM_002.jpg	99
1521.03	0.683	682.6	repeat	Run2	repeat/STIM_003.jpg	99
1524.962	0.969	968.6	repeat	Run2	repeat/STIM_003.jpg	100
1528.496	0.936	935.7	repeat	Run2	repeat/STIM_003.jpg	99
1532.73	0.512	512.1	repeat	Run2	repeat/STIM_003.jpg	100
1536.014	0.773	772.8	repeat	Run2	repeat/STIM_003.jpg	99
1540.508	0.881	881.0	repeat	Run2	repeat/STIM_004.jpg	100
1544.893	0.864	864.3	repeat	Run2	repeat/STIM_004.jpg	99
1548.778	0.661	661.2	repeat	Run2	repeat/STIM_004.jpg	100
1551.766	0.984	984.2	repeat	Run2	repeat/STIM_004.jpg	99
1555.04	0.835	834.7	repeat	Run2	repeat/STIM_004.jpg	99
1558.518	0.965	965.2	repeat	Run2	repeat/STIM_005.jpg	100
1562.616	0.67	670.2	repeat	Run2	repeat/STIM_005.jpg	100
1565.818	0.697	697.0	repeat	Run2	repeat/STIM_005.jpg	99
1569.577	0.766	765.9	repeat	Run2	repeat/STIM_005.jpg	100
1572.436	0.847	847.0	repeat	Run2	repeat/STIM_005.jpg	100
1575.413	0.818	817.8	repeat	Run2	repeat/STIM_006.jpg	99
1579.131	0.615	615.4	repeat	Run2	repeat/STIM_006.jpg	100
1582.353	0.718	717.7	repeat	Run2	repeat/STIM_006.jpg	100
1585.842	0.675	674.9	repeat	Run2	repeat/STIM_006.jpg	100
1588.606	0.707	707.3	repeat	Run2	repeat/STIM_006.jpg	99
1593.197	0.989	989.4	repeat	Run2	repeat/STIM_007.jpg	100
1596.264	0.658	657.7	repeat	Run2	repeat/STIM_007.jpg	100
1599.292	0.801	800.7	repeat	Run2	repeat/STIM_007.jpg	99
1603.71	0.858	858.0	repeat	Run2	repeat/STIM_007.jpg	99
1608.166	0.69	690.4	repeat	Run2	repeat/STIM_007.jpg	99
1611.915	0.642	641.5	repeat	Run2	repeat/STIM_008.jpg	99
1615.112	0.766	766.4	repeat	Run2	repeat/STIM_008.jpg	99
1617.899	0.843	843.1	repeat	Run2	repeat/STIM_008.jpg	99
1621.995	0.866	866.4	repeat	Run2	repeat/STIM_008.jpg	100
1625.052	0.88	880.2	repeat	Run2	repeat/STIM_008.jpg	99
1628.52	0.498	497.7	repeat	Run2	repeat/STIM_009.jpg	100
1632.065	0.845	845.2	repeat	Run2	repeat/STIM_009.jpg	99
1636.052	0.799	799.4	repeat	Run2	repeat/STIM_009.jpg	100
1639.17	0.607	607.3	repeat	Run2	repeat/STIM_009.jpg	100
1643.624	0.68	679.7	repeat	Run2	repeat/STIM_009.jpg	99
1647.241	0.881	880.9	repeat	Run2	repeat/STIM_010.jpg	99
1650.99	0.745	744.7	repeat	Run2	repeat/STIM_010.jpg	100
1655.736	0.837	837.0	repeat	Run2	repeat/STIM_010.jpg	99
1659.529	0.955	954.8	repeat	Run2	repeat/STIM_010.jpg	99
1664.282	0.589	589.4	repeat	Run2	repeat/STIM_010.jpg	100
1668.701	0.817	817.2	repeat	Run2	repeat/STIM_011.jpg	100
1672.492	0.63	630.0	repeat	Run2	repeat/STIM_011.jpg	99
1675.197	0.972	972.2	repeat	Run2	repeat/STIM_011.jpg	99
1678.86	0.704	703.8	repeat	Run2	repeat/STIM_011.jpg	100
1682.458	0.888	888.4	repeat	Run2	repeat/STIM_011.jpg	99
1685.475	0.496	496.2	repeat	Run2	repeat/STIM_012.jpg	100
1689.603	0.713	713.0	repeat	Run2	repeat/STIM_012.jpg	99
1692.915	0.892	892.2	repeat	Run2	repeat/STIM_012.jpg	99
1697.587	0.661	661.2	repeat	Run2	repeat/STIM_012.jpg	99
1700.524	0.566	566.0	repeat	Run2	repeat/STIM_012.jpg	99
1703.144	0.585	585.2	repeat	Run2	repeat/STIM_013.jpg	99
1706.841	0.578	577.9	repeat	Run2	repeat/STIM_013.jpg	100
1711.017	0.81	809.9	repeat	Run2	repeat/STIM_013.jpg	100
1714.502	0.537	537.4	repeat	Run2	repeat/STIM_013.jpg	100
1718.548	0.852	851.8	repeat	Run2	repeat/STIM_013.jpg	100
1722.507	0.825	825.1	repeat	Run2	repeat/STIM_014.jpg	100
1726.286	0.891	891.4	repeat	Run2	repeat/STIM_014.jpg	99
1730.407	0.522	521.9	repeat	Run2	repeat/STIM_014.jpg	99
1733.174	0.615	615.0	repeat	Run2	repeat/STIM_014.jpg	99
1735.98	0.669	669.1	repeat	Run2	repeat/STIM_014.jpg	99
1740.308	1.342	1342.1	generate	Run3	generate/STIM_000.jpg	100
1745.654	1.665	1665.1	generate	Run3	generate/STIM_000.jpg	100
1749.529	1.373	1372.6	generate	Run3	generate/STIM_000.jpg	99
1753.078	1.794	1794.2	generate	Run3	generate/STIM_000.jpg	100
1757.414	0.849	848.7	generate	Run3	generate/STIM_000.jpg	100
1760.802	1.523	1522.6	generate	Run3	generate/STIM_001.jpg	99
1766.27	0.878	878.0	generate	Run3	generate/STIM_001.jpg	100
1769.6	1.974	1973.7	generate	Run3	generate/STIM_001.jpg	99
1774.192	1.043	1043.3	generate	Run3	generate/STIM_001.jpg	99
1779.067	1.985	1985.4	generate	Run3	generate/STIM_001.jpg	99
1783.533	1.924	1923.5	generate	Run3	generate/STIM_002.jpg	99
1788.954	1.21	1210.1	generate	Run3	generate/STIM_002.jpg	100
1793.476	1.429	1429.2	generate	Run3	generate/STIM_002.jpg	99
1798.482	1.654	1654.5	generate	Run3	generate/STIM_002.jpg	100
1803.798	1.954	1953.6	generate	Run3	generate/STIM_002.jpg	100
1808.067	2.01	2010.4	generate	Run3	generate/STIM_003.jpg	99
1813.906	1.471	1471.1	generate	Run3	generate/STIM_003.jpg	100
1818.579	1.86	1860.0	generate	Run3	generate/STIM_003.jpg	99
1824.072	1.796	1796.1	generate	Run3	generate/STIM_003.jpg	100
1828.135	1.177	1177.3	generate	Run3	generate/STIM_003.jpg	99
1833.046	0.929	928.7	generate	Run3	generate/STIM_004.jpg	99
1837.184	1.507	1506.9	generate	Run3	generate/STIM_004.jpg	99
1842.379	1.836	1835.8	generate	Run3	generate/STIM_004.jpg	100
1847.191	1.043	1043.3	generate	Run3	generate/STIM_004.jpg	100
1852.181	1.632	1631.7	generate	Run3	generate/STIM_004.jpg	99
1857.364	1.938	1938.0	generate	Run3	generate/STIM_005.jpg	99
1861.526	1.489	1488.6	generate	Run3	generate/STIM_005.jpg	99
1866.648	1.441	1441.2	generate	Run3	generate/STIM_005.jpg	99
1871.782	1.146	1145.6	generate	Run3	generate/STIM_005.jpg	100
1875.857	1.236	1236.1	generate	Run3	generate/STIM_005.jpg	100
1879.795	1.006	1006.0	generate	Run3	generate/STIM_006.jpg	100
1883.829	0.879	879.3	generate	Run3	generate/STIM_006.jpg	99
1887.997	2.072	2072.5	generate	Run3	generate/STIM_006.jpg	99
1892.45	1.624	1623.5	generate	Run3	generate/STIM_006.jpg	99
1897.338	0.889	888.8	generate	Run3	generate/STIM_006.jpg	100
1902.212	1.94	1939.8	generate	Run3	generate/STIM_007.jpg	99
1907.657	1.861	1861.2	generate	Run3	generate/STIM_007.jpg	100
1912.89	1.652	1651.7	generate	Run3	generate/STIM_007.jpg	100
1917.609	0.833	832.8	generate	Run3	generate/STIM_007.jpg	100
1922.21	1.853	1852.8	generate	Run3	generate/STIM_007.jpg	99
1927.68	1.376	1376.1	generate	Run3	generate/STIM_008.jpg	100
1931.927	1.056	1055.7	generate	Run3	generate/STIM_008.jpg	100
1936.571	1.926	1926.3	generate	Run3	generate/STIM_008.jpg	99
1941.942	1.262	1261.7	generate	Run3	generate/STIM_008.jpg	100
1945.389	1.255	1254.7	generate	Run3	generate/STIM_008.jpg	100
1948.901	0.863	863.3	generate	Run3	generate/STIM_009.jpg	100
1953.063	0.957	957.4	generate	Run3	generate/STIM_009.jpg	99
1957.834	1.061	1061.3	generate	Run3	generate/STIM_009.jpg	100
1961.134	1.989	1989.1	generate	Run3	generate/STIM_009.jpg	99
1965.352	1.698	1697.8	generate	Run3	generate/STIM_009.jpg	100
1970.42	1.858	1857.7	generate	Run3	generate/STIM_010.jpg	99
1975.992	1.295	1294.6	generate	Run3	generate/STIM_010.jpg	99
1979.757	2.074	2074.3	generate	Run3	generate/STIM_010.jpg	100
1984.192	1.619	1619.1	generate	Run3	generate/STIM_010.jpg	100
1988.565	1.007	1006.6	generate	Run3	generate/STIM_010.jpg	100
1993.482	1.501	1501.3	generate	Run3	generate/STIM_011.jpg	100
1998.812	1.617	1617.4	generate	Run3	generate/STIM_011.jpg	99
2003.577	1.819	1819.0	generate	Run3	generate/STIM_011.jpg	99
2008.062	1.803	1802.7	generate	Run3	generate/STIM_011.jpg	100
2012.229	1.226	1226.0	generate	Run3	generate/STIM_011.jpg	100
2017.165	1.773	1773.3	generate	Run3	generate/STIM_012.jpg	99
2022.486	0.849	849.4	generate	Run3	generate/STIM_012.jpg	99
2026.84	1.28	1280.1	generate	Run3	generate/STIM_012.jpg	100
2031.056	1.298	1298.5	generate	Run3	generate/STIM_012.jpg	99
2034.502	1.917	1916.9	generate	Run3	generate/STIM_012.jpg	99
2039.707	1.9	1900.3	generate	Run3	generate/STIM_013.jpg	99
2045.087	1.378	1377.7	generate	Run3	generate/STIM_013.jpg	100
2048.849	1.996	1996.0	generate	Run3	generate/STIM_013.jpg	100
2053.387	1.589	1589.3	generate	Run3	generate/STIM_013.jpg	99
2057.788	1.546	1546.0	generate	Run3	generate/STIM_013.jpg	99
2061.502	1.126	1125.5	generate	Run3	generate/STIM_014.jpg	100
2065.277	1.168	1168.1	generate	Run3	generate/STIM_014.jpg	99
2070.366	1.396	1396.2	generate	Run3	generate/STIM_014.jpg	100
2074.682	1.121	1120.8	generate	Run3	generate/STIM_014.jpg	100
2077.958	1.451	1450.6	generate	Run3	generate/STIM_014.jpg	100
2082.357	1.708	1707.6	generate	Run3	generate/STIM_015.jpg	100
2086.807	1.991	1991.0	generate	Run3	generate/STIM_015.jpg	99
2091.634	1.054	1054.2	generate	Run3	generate/STIM_015.jpg	100
2095.615	1.592	1592.4	generate	Run3	generate/STIM_015.jpg	99
2101.176	1.941	1940.6	generate	Run3	generate/STIM_015.jpg	100
2106.921	1.605	1604.8	generate	Run3	generate/STIM_016.jpg	100
2111.75	1.678	1678.5	generate	Run3	generate/STIM_016.jpg	100
2117.305	1.559	1559.1	generate	Run3	generate/STIM_016.jpg	100
2121.285	1.99	1990.4	generate	Run3	generate/STIM_016.jpg	99
2126.116	1.065	1064.8	generate	Run3	generate/STIM_016.jpg	100
2131.18	0.948	947.7	generate	Run3	generate/STIM_017.jpg	100
2134.874	1.588	1587.6	generate	Run3	generate/STIM_017.jpg	100
2138.634	0.91	910.3	generate	Run3	generate/STIM_017.jpg	100
2143.126	1.798	1798.2	generate	Run3	generate/STIM_017.jpg	99
2148.382	1.027	1026.7	generate	Run3	generate/STIM_017.jpg	99
2151.757	1.826	1826.3	generate	Run3	generate/STIM_018.jpg	100
2157.186	1.347	1346.7	generate	Run3	generate/STIM_018.jpg	100
2161.13	1.282	1281.7	generate	Run3	generate/STIM_018.jpg	100
2165.586	0.997	996.7	generate	Run3	generate/STIM_018.jpg	99
2170.307	1.026	1026.0	generate	Run3	generate/STIM_018.jpg	99
2174.209	1.834	1833.9	generate	Run3	generate/STIM_019.jpg	100
2178.777	0.99	990.4	generate	Run3	generate/STIM_019.jpg	100
2182.536	0.9	899.6	generate	Run3	generate/STIM_019.jpg	100
2186.021	1.377	1376.7	generate	Run3	generate/STIM_019.jpg	99
2191.392	1.201	1200.7	generate	Run3	generate/STIM_019.jpg	100
2194.901	1.96	1959.5	generate	Run3	generate/STIM_020.jpg	99
2200.296	1.535	1534.7	generate	Run3	generate/STIM_020.jpg	99
2204.465	2.074	2074.3	generate	Run3	generate/STIM_020.jpg	100
2210.253	1.698	1698.2	generate	Run3	generate/STIM_020.jpg	100
2215.785	1.015	1015.1	generate	Run3	generate/STIM_020.jpg	100
2219.155	1.086	1085.6	generate	Run3	generate/STIM_021.jpg	100
2222.827	1.567	1567.0	generate	Run3	generate/STIM_021.jpg	100
2228.023	1.437	1437.1	generate	Run3	generate/STIM_021.jpg	99
2231.905	0.904	904.4	generate	Run3	generate/STIM_021.jpg	99
2235.029	1.261	1261.0	generate	Run3	generate/STIM_021.jpg	100
2239.539	1.724	1724.1	generate	Run3	generate/STIM_022.jpg	99
2245.209	1.754	1754.5	generate	Run3	generate/STIM_022.jpg	99
2249.421	1.32	1319.5	generate	Run3	generate/STIM_022.jpg	99
2252.89	0.903	903.2	generate	Run3	generate/STIM_022.jpg	99
2257.342	1.928	1928.4	generate	Run3	generate/STIM_022.jpg	100
2262.178	1.8	1800.2	generate	Run3	generate/STIM_023.jpg	99
2267.076	1.228	1228.2	generate	Run3	generate/STIM_023.jpg	99
2270.438	1.788	1787.7	generate	Run3	generate/STIM_023.jpg	100
2275.819	0.854	854.3	generate	Run3	generate/STIM_023.jpg	99
2280.241	1.388	1388.3	generate	Run3	generate/STIM_023.jpg	99
2285.448	1.842	1841.9	generate	Run3	generate/STIM_024.jpg	100
2290.441	1.171	1171.3	generate	Run3	generate/STIM_024.jpg	100
2294.765	1.721	1720.7	generate	Run3	generate/STIM_024.jpg	100
2300.274	0.939	938.7	generate	Run3	generate/STIM_024.jpg	100
2304.002	1.833	1833.4	generate	Run3	generate/STIM_024.jpg	99
2309.558	0.674	674.1	repeat	Run3	repeat/STIM_000.jpg	100
2314.007	0.982	982.4	repeat	Run3	repeat/STIM_000.jpg	99
2317.587	0.601	601.0	repeat	Run3	repeat/STIM_000.jpg	100
2321.989	0.8	800.2	repeat	Run3	repeat/STIM_000.jpg	100
2326.398	0.6	600.1	repeat	Run3	repeat/STIM_000.jpg	100
2329.756	0.903	902.9	repeat	Run3	repeat/STIM_001.jpg	100
2334.608	0.762	762.2	repeat	Run3	repeat/STIM_001.jpg	100
2338.197	0.75	750.5	repeat	Run3	repeat/STIM_001.jpg	100
2341.198	0.55	550.4	repeat	Run3	repeat/STIM_001.jpg	100
2344.732	0.603	603.1	repeat	Run3	repeat/STIM_001.jpg	99
2347.472	0.828	828.1	repeat	Run3	repeat/STIM_002.jpg	99
2350.37	0.811	810.6	repeat	Run3	repeat/STIM_002.jpg	99
2353.47	0.632	631.5	repeat	Run3	repeat/STIM_002.jpg	99
2357.394	0.785	785.0	repeat	Run3	repeat/STIM_002.jpg	99
2360.919	0.904	904.3	repeat	Run3	repeat/STIM_002.jpg	99
2365.127	0.688	688.0	repeat	Run3	repeat/STIM_003.jpg	99
2369.713	0.735	735.1	repeat	Run3	repeat/STIM_003.jpg	100
2374.053	0.912	912.4	repeat	Run3	repeat/STIM_003.jpg	100
2376.976	0.699	698.7	repeat	Run3	repeat/STIM_003.jpg	99
2381.137	0.522	521.6	repeat	Run3	repeat/STIM_003.jpg	99
2385.079	0.958	958.2	repeat	Run3	repeat/STIM_004.jpg	99
2388.395	0.59	589.6	repeat	Run3	repeat/STIM_004.jpg	99
2390.999	0.729	728.7	repeat	Run3	repeat/STIM_004.jpg	99
2395.394	0.835	834.9	repeat	Run3	repeat/STIM_004.jpg	100
2399.832	0.912	912.3	repeat	Run3	repeat/STIM_004.jpg	100
2403.477	0.576	576.1	repeat	Run3	repeat/STIM_005.jpg	100
2407.726	0.888	888.0	repeat	Run3	repeat/STIM_005.jpg	100
2412.242	0.746	746.4	repeat	Run3	repeat/STIM_005.jpg	100
2416.417	0.524	523.9	repeat	Run3	repeat/STIM_005.jpg	100
2420.616	0.583	583.2	repeat	Run3	repeat/STIM_005.jpg	99
2423.727	0.735	735.0	repeat	Run3	repeat/STIM_006.jpg	100
2428.054	0.888	888.4	repeat	Run3	repeat/STIM_006.jpg	100
2432.799	0.987	986.6	repeat	Run3	repeat/STIM_006.jpg	99
2436.868	0.765	764.6	repeat	Run3	repeat/STIM_006.jpg	100
2439.88	0.545	544.6	repeat	Run3	repeat/STIM_006.jpg	99
2443.619	0.525	524.7	repeat	Run3	repeat/STIM_007.jpg	99
2446.321	0.609	609.2	repeat	Run3	repeat/STIM_007.jpg	100
2450.002	0.572	572.1	repeat	Run3	repeat/STIM_007.jpg	99
2452.75	0.678	677.8	repeat	Run3	repeat/STIM_007.jpg	100
2456.117	0.906	905.8	repeat	Run3	repeat/STIM_007.jpg	100
2459.579	0.774	774.0	repeat	Run3	repeat/STIM_008.jpg	100
2463.348	0.799	799.3	repeat	Run3	repeat/STIM_008.jpg	100
2466.857	0.608	607.6	repeat	Run3	repeat/STIM_008.jpg	99
2470.317	0.672	671.6	repeat	Run3	repeat/STIM_008.jpg	100
2474.546	0.721	721.0	repeat	Run3	repeat/STIM_008.jpg	100
2477.66	0.989	988.9	repeat	Run3	repeat/STIM_009.jpg	99
2481.215	0.652	651.6	repeat	Run3	repeat/STIM_009.jpg	100
2485.059	0.917	917.1	repeat	Run3	repeat/STIM_009.jpg	99
2488.091	0.853	853.1	repeat	Run3	repeat/STIM_009.jpg	99
2491.818	0.952	951.9	repeat	Run3	repeat/STIM_009.jpg	99
2496.288	0.687	686.7	repeat	Run3	repeat/STIM_010.jpg	99
2500.124	0.642	642.2	repeat	Run3	repeat/STIM_010.jpg	99
2504.463	0.851	851.0	repeat	Run3	repeat/STIM_010.jpg	99
2508.411	0.541	541.3	repeat	Run3	repeat/STIM_010.jpg	100
2511.972	0.534	534.1	repeat	Run3	repeat/STIM_010.jpg	99
2515.429	0.774	773.6	repeat	Run3	repeat/STIM_011.jpg	99
2519.079	0.857	857.0	repeat	Run3	repeat/STIM_011.jpg	99
2523.397	0.96	960.2	repeat	Run3	repeat/STIM_011.jpg	100
2526.909	0.897	896.8	repeat	Run3	repeat/STIM_011.jpg	100
2530.024	0.538	538.2	repeat	Run3	repeat/STIM_011.jpg	99
2533.414	0.739	739.4	repeat	Run3	repeat/STIM_012.jpg	100
2537.895	0.944	944.1	repeat	Run3	repeat/STIM_012.jpg	99
2541.406	0.782	781.6	repeat	Run3	repeat/STIM_012.jpg	100
2546.001	0.579	579.2	repeat	Run3	repeat/STIM_012.jpg	99
2550.104	0.884	884.1	repeat	Run3	repeat/STIM_012.jpg	100
2553.528	0.74	740.5	repeat	Run3	repeat/STIM_013.jpg	99
2558.214	0.964	964.2	repeat	Run3	repeat/STIM_013.jpg	99
2562.903	0.727	727.2	repeat	Run3	repeat/STIM_013.jpg	99
2567.557	0.917	916.7	repeat	Run3	repeat/STIM_013.jpg	100
2571.558	0.594	593.6	repeat	Run3	repeat/STIM_013.jpg	99
2574.336	0.912	912.1	repeat	Run3	repeat/STIM_014.jpg	99
2578.667	0.716	716.3	repeat	Run3	repeat/STIM_014.jpg	100
2582.293	0.855	854.6	repeat	Run3	repeat/STIM_014.jpg	100
2585.782	0.743	742.9	repeat	Run3	repeat/STIM_014.jpg	100
2588.762	0.57	569.7	repeat	Run3	repeat/STIM_014.jpg	99
2592.75	1.166	1166.5	generate	Run4	generate/STIM_000.jpg	99
2597.883	1.724	1724.2	generate	Run4	generate/STIM_000.jpg	99
2603.451	1.721	1721.2	generate	Run4	generate/STIM_000.jpg	100
2608.527	1.603	1603.3	generate	Run4	generate/STIM_000.jpg	100
2613.356	1.325	1324.7	generate	Run4	generate/STIM_000.jpg	100
2618.406	2.064	2064.3	generate	Run4	generate/STIM_001.jpg	100
2622.985	1.962	1962.2	generate	Run4	generate/STIM_001.jpg	100
2627.604	1.164	1164.5	generate	Run4	generate/STIM_001.jpg	99
2632.442	1.671	1670.7	generate	Run4	generate/STIM_001.jpg	99
2636.562	1.974	1974.0	generate	Run4	generate/STIM_001.jpg	99
2640.959	1.647	1647.1	generate	Run4	generate/STIM_002.jpg	99
2646.455	1.286	1285.5	generate	Run4	generate/STIM_002.jpg	100
2651.669	0.928	927.8	generate	Run4	generate/STIM_002.jpg	99
2655.368	1.074	1074.0	generate	Run4	generate/STIM_002.jpg	99
2659.816	0.997	996.8	generate	Run4	generate/STIM_002.jpg	100
2663.432	0.948	947.9	generate	Run4	generate/STIM_003.jpg	99
2668.168	1.58	1580.3	generate	Run4	generate/STIM_003.jpg	99
2673.759	1.699	1698.7	generate	Run4	generate/STIM_003.jpg	99
2678.863	2.009	2008.5	generate	Run4	generate/STIM_003.jpg	100
2683.225	1.01	1010.1	generate	Run4	generate/STIM_003.jpg	100
2686.506	0.969	969.0	generate	Run4	generate/STIM_004.jpg	100
2690.977	0.894	894.4	generate	Run4	generate/STIM_004.jpg	100
2694.837	1.793	1793.1	generate	Run4	generate/STIM_004.jpg	99
2698.85	1.612	1611.8	generate	Run4	generate/STIM_004.jpg	99
2702.675	1.787	1787.1	generate	Run4	generate/STIM_004.jpg	99
2707.249	1.694	1694.3	generate	Run4	generate/STIM_005.jpg	99
2712.905	1.492	1492.0	generate	Run4	generate/STIM_005.jpg	99
2717.813	1.635	1635.2	generate	Run4	generate/STIM_005.jpg	99
2723.392	0.848	848.5	generate	Run4	generate/STIM_005.jpg	100
2727.29	1.557	1556.8	generate	Run4	generate/STIM_005.jpg	100
2731.921	1.607	1607.1	generate	Run4	generate/STIM_006.jpg	99
2737.292	1.465	1465.4	generate	Run4	generate/STIM_006.jpg	99
2742.53	0.957	956.6	generate	Run4	generate/STIM_006.jpg	99
2747.278	1.561	1560.8	generate	Run4	generate/STIM_006.jpg	99
2752.278	0.938	937.6	generate	Run4	generate/STIM_006.jpg	99
2755.823	1.335	1335.0	generate	Run4	generate/STIM_007.jpg	99
2760.894	1.557	1556.6	generate	Run4	generate/STIM_007.jpg	99
2765.836	1.895	1894.8	generate	Run4	generate/STIM_007.jpg	99
2770.245	1.061	1060.9	generate	Run4	generate/STIM_007.jpg	99
2775.031	1.552	1551.9	generate	Run4	generate/STIM_007.jpg	100
2780.301	1.692	1692.1	generate	Run4	generate/STIM_008.jpg	99
2784.381	1.45	1450.3	generate	Run4	generate/STIM_008.jpg	100
2789.104	1.881	1880.8	generate	Run4	generate/STIM_008.jpg	99
2794.231	1.817	1817.3	generate	Run4	generate/STIM_008.jpg	100
2798.586	1.417	1417.3	generate	Run4	generate/STIM_008.jpg	100
2802.971	2.032	2031.9	generate	Run4	generate/STIM_009.jpg	100
2808.609	1.039	1038.8	generate	Run4	generate/STIM_009.jpg	100
2812.799	1.788	1788.4	generate	Run4	generate/STIM_009.jpg	99
2817.674	1.771	1770.9	generate	Run4	generate/STIM_009.jpg	99
2822.674	1.925	1925.2	generate	Run4	generate/STIM_009.jpg	99
2826.851	1.235	1235.3	generate	Run4	generate/STIM_010.jpg	99
2831.758	1.694	1693.9	generate	Run4	generate/STIM_010.jpg	100
2836.09	1.477	1476.7	generate	Run4	generate/STIM_010.jpg	100
2840.977	1.24	1239.7	generate	Run4	generate/STIM_010.jpg	100
2846.169	1.308	1307.6	generate	Run4	generate/STIM_010.jpg	99
2851.228	2.031	2031.5	generate	Run4	generate/STIM_011.jpg	100
2855.308	2.041	2040.6	generate	Run4	generate/STIM_011.jpg	99
2860.17	1.588	1587.9	generate	Run4	generate/STIM_011.jpg	100
2865.406	1.172	1172.2	generate	Run4	generate/STIM_011.jpg	100
2869.609	1.574	1573.7	generate	Run4	generate/STIM_011.jpg	100
2873.539	1.009	1009.4	generate	Run4	generate/STIM_012.jpg	99
2877.33	1.704	1703.7	generate	Run4	generate/STIM_012.jpg	100
2881.912	1.881	1880.9	generate	Run4	generate/STIM_012.jpg	100
2886.088	1.052	1051.6	generate	Run4	generate/STIM_012.jpg	100
2889.418	1.875	1874.8	generate	Run4	generate/STIM_012.jpg	100
2894.771	2.003	2002.9	generate	Run4	generate/STIM_013.jpg	100
2898.839	1.564	1563.7	generate	Run4	generate/STIM_013.jpg	99
2902.593	1.204	1203.6	generate	Run4	generate/STIM_013.jpg	100
2906.429	1.842	1842.2	generate	Run4	generate/STIM_013.jpg	99
2910.975	1.688	1688.3	generate	Run4	generate/STIM_013.jpg	100
2914.894	0.91	910.1	generate	Run4	generate/STIM_014.jpg	99
2919.601	1.911	1911.2	generate	Run4	generate/STIM_014.jpg	100
2924.291	1.719	1719.1	generate	Run4	generate/STIM_014.jpg	100
2928.867	1.67	1670.0	generate	Run4	generate/STIM_014.jpg	99
2933.278	1.318	1317.6	generate	Run4	generate/STIM_014.jpg	99
2938.168	1.094	1094.0	generate	Run4	generate/STIM_015.jpg	100
2942.369	1.58	1580.1	generate	Run4	generate/STIM_015.jpg	99
2946.64	1.31	1310.4	generate	Run4	generate/STIM_015.jpg	100
2950.432	1.486	1485.9	generate	Run4	generate/STIM_015.jpg	100
2955.651	1.45	1450.1	generate	Run4	generate/STIM_015.jpg	100
2959.147	1.004	1003.7	generate	Run4	generate/STIM_016.jpg	99
2962.844	1.431	1431.4	generate	Run4	generate/STIM_016.jpg	100
2967.112	1.673	1672.7	generate	Run4	generate/STIM_016.jpg	99
2972.745	1.466	1465.5	generate	Run4	generate/STIM_016.jpg	99
2976.815	1.294	1294.2	generate	Run4	generate/STIM_016.jpg	100
2980.653	1.011	1011.2	generate	Run4	generate/STIM_017.jpg	99
2985.406	1.2	1200.0	generate	Run4	generate/STIM_017.jpg	99
2989.934	1.316	1316.4	generate	Run4	generate/STIM_017.jpg	99
2995.234	1.441	1441.2	generate	Run4	generate/STIM_017.jpg	99
2999.54	1.067	1067.0	generate	Run4	generate/STIM_017.jpg	100
3003.144	0.834	834.0	generate	Run4	generate/STIM_018.jpg	99
3006.247	1.921	1920.7	generate	Run4	generate/STIM_018.jpg	99
3010.836	1.514	1513.5	generate	Run4	generate/STIM_018.jpg	100
3014.899	1.899	1898.8	generate	Run4	generate/STIM_018.jpg	99
3020.75	1.987	1987.3	generate	Run4	generate/STIM_018.jpg	100
3026.585	1.182	1181.9	generate	Run4	generate/STIM_019.jpg	100
3030.292	1.169	1168.9	generate	Run4	generate/STIM_019.jpg	99
3033.742	1.826	1826.1	generate	Run4	generate/STIM_019.jpg	100
3038.447	1.494	1493.8	generate	Run4	generate/STIM_019.jpg	100
3042.928	1.523	1523.4	generate	Run4	generate/STIM_019.jpg	100
3048.021	1.818	1818.4	generate	Run4	generate/STIM_020.jpg	100
3053.155	1.083	1083.3	generate	Run4	generate/STIM_020.jpg	100
3056.929	1.534	1533.8	generate	Run4	generate/STIM_020.jpg	99
3061.692	1.317	1317.0	generate	Run4	generate/STIM_020.jpg	99
3065.965	1.858	1858.3	generate	Run4	generate/STIM_020.jpg	99
3070.953	1.902	1902.3	generate	Run4	generate/STIM_021.jpg	100
3076.056	1.629	1629.2	generate	Run4	generate/STIM_021.jpg	100
3080.892	1.17	1169.9	generate	Run4	generate/STIM_021.jpg	100
3084.283	2.002	2002.4	generate	Run4	generate/STIM_021.jpg	100
3089.805	1.716	1716.5	generate	Run4	generate/STIM_021.jpg	99
3093.794	0.882	881.5	generate	Run4	generate/STIM_022.jpg	100
3098.309	1.117	1117.2	generate	Run4	generate/STIM_022.jpg	100
3102.982	1.464	1464.3	generate	Run4	generate/STIM_022.jpg	99
3106.623	1.562	1561.7	generate	Run4	generate/STIM_022.jpg	99
3110.856	1.32	1320.2	generate	Run4	generate/STIM_022.jpg	99
3115.813	1.089	1088.8	generate	Run4	generate/STIM_023.jpg	100
3120.147	1.257	1257.0	generate	Run4	generate/STIM_023.jpg	99
3125.251	1.777	1777.2	generate	Run4	generate/STIM_023.jpg	99
3130.588	1.709	1708.8	generate	Run4	generate/STIM_023.jpg	100
3134.429	1.919	1918.9	generate	Run4	generate/STIM_023.jpg	100
3138.583	1.604	1604.0	generate	Run4	generate/STIM_024.jpg	99
3144.006	0.882	882.2	generate	Run4	generate/STIM_024.jpg	100
3148.33	1.563	1562.7	generate	Run4	generate/STIM_024.jpg	100
3153.272	1.353	1352.8	generate	Run4	generate/STIM_024.jpg	99
3158.054	1.991	1990.7	generate	Run4	generate/STIM_024.jpg	100
3162.697	0.759	758.8	repeat	Run4	repeat/STIM_000.jpg	100
3166.28	0.733	732.7	repeat	Run4	repeat/STIM_000.jpg	100
3169.573	0.505	505.0	repeat	Run4	repeat/STIM_000.jpg	99
3173.365	0.749	749.0	repeat	Run4	repeat/STIM_000.jpg	99
3177.308	0.502	502.1	repeat	Run4	repeat/STIM_000.jpg	100
3181.707	0.961	960.8	repeat	Run4	repeat/STIM_001.jpg	100
3186.274	0.58	580.5	repeat	Run4	repeat/STIM_001.jpg	100
3189.488	0.932	931.6	repeat	Run4	repeat/STIM_001.jpg	100
3192.937	0.885	885.2	repeat	Run4	repeat/STIM_001.jpg	99
3196.129	0.774	774.2	repeat	Run4	repeat/STIM_001.jpg	99
3199.685	0.667	666.9	repeat	Run4	repeat/STIM_002.jpg	99
3202.418	0.893	892.8	repeat	Run4	repeat/STIM_002.jpg	99
3205.95	0.85	850.0	repeat	Run4	repeat/STIM_002.jpg	99
3209.47	0.954	954.1	repeat	Run4	repeat/STIM_002.jpg	100
3213.188	0.71	709.6	repeat	Run4	repeat/STIM_002.jpg	100
3217.903	0.901	901.1	repeat	Run4	repeat/STIM_003.jpg	99
3222.748	0.868	867.9	repeat	Run4	repeat/STIM_003.jpg	99
3227.085	0.532	532.0	repeat	Run4	repeat/STIM_003.jpg	100
3230.122	0.507	507.4	repeat	Run4	repeat/STIM_003.jpg	100
3233.788	0.877	877.1	repeat	Run4	repeat/STIM_003.jpg	100
3237.199	0.794	794.2	repeat	Run4	repeat/STIM_004.jpg	99
3241.67	0.666	665.9	repeat	Run4	repeat/STIM_004.jpg	100
3246.226	0.57	570.1	repeat	Run4	repeat/STIM_004.jpg	99
3249.49	0.705	705.1	repeat	Run4	repeat/STIM_004.jpg	100
3253.204	0.872	871.9	repeat	Run4	repeat/STIM_004.jpg	99
3256.898	0.578	578.3	repeat	Run4	repeat/STIM_005.jpg	100
3260.248	0.981	981.1	repeat	Run4	repeat/STIM_005.jpg	99
3263.5	0.631	631.1	repeat	Run4	repeat/STIM_005.jpg	100
3266.33	0.727	726.6	repeat	Run4	repeat/STIM_005.jpg	100
3269.156	0.58	580.4	repeat	Run4	repeat/STIM_005.jpg	100
3272.452	0.631	631.3	repeat	Run4	repeat/STIM_006.jpg	99
3276.06	0.581	580.9	repeat	Run4	repeat/STIM_006.jpg	99
3280.326	0.76	759.5	repeat	Run4	repeat/STIM_006.jpg	100
3284.36	0.665	665.3	repeat	Run4	repeat/STIM_006.jpg	100
3287.078	0.887	887.2	repeat	Run4	repeat/STIM_006.jpg	100
3290.013	0.687	687.1	repeat	Run4	repeat/STIM_007.jpg	99
3294.257	0.908	908.2	repeat	Run4	repeat/STIM_007.jpg	99
3297.785	0.941	941.3	repeat	Run4	repeat/STIM_007.jpg	99
3302.498	0.967	967.2	repeat	Run4	repeat/STIM_007.jpg	100
3307.289	0.535	535.1	repeat	Run4	repeat/STIM_007.jpg	100
3311.623	0.729	729.2	repeat	Run4	repeat/STIM_008.jpg	99
3314.456	0.927	926.8	repeat	Run4	repeat/STIM_008.jpg	100
3318.982	0.785	784.8	repeat	Run4	repeat/STIM_008.jpg	99
3322.903	0.814	814.4	repeat	Run4	repeat/STIM_008.jpg	99
3326.088	0.596	596.4	repeat	Run4	repeat/STIM_008.jpg	100
3329.417	0.956	955.7	repeat	Run4	repeat/STIM_009.jpg	99
3332.593	0.585	585.1	repeat	Run4	repeat/STIM_009.jpg	99
3335.982	0.892	892.0	repeat	Run4	repeat/STIM_009.jpg	99
3340.416	0.719	719.2	repeat	Run4	repeat/STIM_009.jpg	100
3343.869	0.651	651.3	repeat	Run4	repeat/STIM_009.jpg	99
3346.662	0.708	707.8	repeat	Run4	repeat/STIM_010.jpg	99
3351.125	0.65	649.6	repeat	Run4	repeat/STIM_010.jpg	99
3354.039	0.69	689.5	repeat	Run4	repeat/STIM_010.jpg	99
3357.875	0.695	694.8	repeat	Run4	repeat/STIM_010.jpg	100
3362.117	0.916	915.5	repeat	Run4	repeat/STIM_010.jpg	99
3366.105	0.657	656.7	repeat	Run4	repeat/STIM_011.jpg	99
3370.507	0.758	758.4	repeat	Run4	repeat/STIM_011.jpg	100
3373.917	0.635	635.1	repeat	Run4	repeat/STIM_011.jpg	99
3378.534	0.96	959.8	repeat	Run4	repeat/STIM_011.jpg	99
3381.947	0.578	578.4	repeat	Run4	repeat/STIM_011.jpg	99
3385.485	0.607	607.3	repeat	Run4	repeat/STIM_012.jpg	99
3389.41	0.724	724.3	repeat	Run4	repeat/STIM_012.jpg	100
3393.963	0.651	651.0	repeat	Run4	repeat/STIM_012.jpg	99
3397.725	0.91	909.6	repeat	Run4	repeat/STIM_012.jpg	100
3402.228	0.509	508.7	repeat	Run4	repeat/STIM_012.jpg	100
3405.951	0.878	877.7	repeat	Run4	repeat/STIM_013.jpg	99
3409.042	0.637	636.8	repeat	Run4	repeat/STIM_013.jpg	100
3412.872	0.572	572.3	repeat	Run4	repeat/STIM_013.jpg	100
3415.463	0.947	947.0	repeat	Run4	repeat/STIM_013.jpg	100
3418.502	0.655	655.3	repeat	Run4	repeat/STIM_013.jpg	99
3422.219	0.983	983.0	repeat	Run4	repeat/STIM_014.jpg	99
3425.337	0.77	770.3	repeat	Run4	repeat/STIM_014.jpg	99
3429.434	0.739	738.6	repeat	Run4	repeat/STIM_014.jpg	99
3433.202	0.521	520.8	repeat	Run4	repeat/STIM_014.jpg	100
3437.513	0.95	949.6	repeat	Run4	repeat/STIM_014.jpg	99
