onset	duration	response_time_ms	trial_type	learning_stage	stimulus	response_port
0.0	3.052	3051.7	navigation	Trial1	navigation/STIM_000.jpg	99
6.018	2.05	2050.5	navigation	Trial1	navigation/STIM_000.jpg	99
11.821	2.398	2398.0	navigation	Trial1	navigation/STIM_000.jpg	100
16.888	1.533	1533.0	navigation	Trial1	navigation/STIM_000.jpg	100
21.452	1.66	1660.3	navigation	Trial1	navigation/STIM_000.jpg	99
26.149	1.987	1986.9	navigation	Trial1	navigation/STIM_000.jpg	100
30.651	3.708	3708.5	navigation	Trial1	navigation/STIM_001.jpg	100
38.575	3.954	3954.3	navigation	Trial1	navigation/STIM_001.jpg	99
45.207	1.712	1712.1	navigation	Trial1	navigation/STIM_001.jpg	99
51.003	3.617	3617.4	navigation	Trial1	navigation/STIM_001.jpg	100
57.396	1.555	1555.3	navigation	Trial1	navigation/STIM_001.jpg	99
61.307	3.269	3268.8	navigation	Trial1	navigation/STIM_001.jpg	100
68.377	3.13	3130.5	navigation	Trial1	navigation/STIM_002.jpg	99
75.322	1.744	1744.0	navigation	Trial1	navigation/STIM_002.jpg	99
80.452	3.067	3066.7	navigation	Trial1	navigation/STIM_002.jpg	100
87.42	2.251	2250.6	navigation	Trial1	navigation/STIM_002.jpg	100
92.137	3.337	3336.7	navigation	Trial1	navigation/STIM_002.jpg	99
98.43	2.93	2929.6	navigation	Trial1	navigation/STIM_002.jpg	100
105.011	3.137	3137.1	navigation	Trial1	navigation/STIM_003.jpg	99
110.528	3.284	3284.4	navigation	Trial1	navigation/STIM_003.jpg	99
117.848	3.203	3203.3	navigation	Trial1	navigation/STIM_003.jpg	100
124.384	2.517	2517.4	navigation	Trial1	navigation/STIM_003.jpg	100
130.306	2.63	2630.4	navigation	Trial1	navigation/STIM_003.jpg	99
135.996	1.595	1595.3	navigation	Trial1	navigation/STIM_003.jpg	99
141.341	2.293	2293.2	navigation	Trial1	navigation/STIM_004.jpg	99
146.182	3.262	3261.7	navigation	Trial1	navigation/STIM_004.jpg	99
152.675	3.544	3543.6	navigation	Trial1	navigation/STIM_004.jpg	99
158.72	2.218	2218.2	navigation	Trial1	navigation/STIM_004.jpg	99
163.527	2.104	2104.2	navigation	Trial1	navigation/STIM_004.jpg	99
168.415	2.523	2522.9	navigation	Trial1	navigation/STIM_004.jpg	99
174.457	3.322	3322.4	navigation	Trial1	navigation/STIM_005.jpg	100
181.18	2.471	2471.2	navigation	Trial1	navigation/STIM_005.jpg	99
186.942	2.675	2674.6	navigation	Trial1	navigation/STIM_005.jpg	100
192.395	2.733	2732.9	navigation	Trial1	navigation/STIM_005.jpg	100
198.101	2.667	2667.3	navigation	Trial1	navigation/STIM_005.jpg	100
204.983	2.321	2321.3	navigation	Trial1	navigation/STIM_005.jpg	100
210.979	3.73	3730.3	navigation	Trial1	navigation/STIM_006.jpg	100
218.227	1.738	1738.1	navigation	Trial1	navigation/STIM_006.jpg	100
223.399	3.328	3328.1	navigation	Trial1	navigation/STIM_006.jpg	99
229.877	3.62	3619.5	navigation	Trial1	navigation/STIM_006.jpg	100
236.543	3.146	3145.9	navigation	Trial1	navigation/STIM_006.jpg	100
242.362	2.299	2298.8	navigation	Trial1	navigation/STIM_006.jpg	100
247.746	3.249	3249.3	navigation	Trial1	navigation/STIM_007.jpg	99
254.75	4.19	4189.5	navigation	Trial1	navigation/STIM_007.jpg	99
262.639	1.615	1614.7	navigation	Trial1	navigation/STIM_007.jpg	99
266.886	2.483	2482.9	navigation	Trial1	navigation/STIM_007.jpg	100
272.436	3.323	3323.4	navigation	Trial1	navigation/STIM_007.jpg	100
278.766	2.086	2086.3	navigation	Trial1	navigation/STIM_007.jpg	99
283.898	4.392	4392.1	navigation	Trial1	navigation/STIM_008.jpg	100
291.305	2.893	2893.4	navigation	Trial1	navigation/STIM_008.jpg	100
296.601	3.067	3067.2	navigation	Trial1	navigation/STIM_008.jpg	100
302.631	1.523	1523.1	navigation	Trial1	navigation/STIM_008.jpg	100
307.206	1.718	1718.5	navigation	Trial1	navigation/STIM_008.jpg	99
312.36	2.039	2038.6	navigation	Trial1	navigation/STIM_008.jpg	100
318.259	4.422	4421.5	navigation	Trial1	navigation/STIM_009.jpg	100
327.073	2.57	2570.2	navigation	Trial1	navigation/STIM_009.jpg	100
332.396	2.539	2539.2	navigation	Trial1	navigation/STIM_009.jpg	99
339.101	2.358	2357.5	navigation	Trial1	navigation/STIM_009.jpg	100
344.037	2.072	2072.2	navigation	Trial1	navigation/STIM_009.jpg	100
349.168	2.555	2554.8	navigation	Trial1	navigation/STIM_009.jpg	100
355.719	3.56	3559.5	navigation	Trial1	navigation/STIM_010.jpg	99
362.89	2.345	2344.8	navigation	Trial1	navigation/STIM_010.jpg	99
368.497	2.164	2164.5	navigation	Trial1	navigation/STIM_010.jpg	100
374.457	3.524	3524.5	navigation	Trial1	navigation/STIM_010.jpg	99
380.851	1.824	1823.5	navigation	Trial1	navigation/STIM_010.jpg	100
386.124	2.254	2254.1	navigation	Trial1	navigation/STIM_010.jpg	100
391.48	3.181	3181.4	navigation	Trial1	navigation/STIM_011.jpg	99
398.519	2.054	2053.7	navigation	Trial1	navigation/STIM_011.jpg	99
404.31	2.728	2728.1	navigation	Trial1	navigation/STIM_011.jpg	100
410.636	3.504	3503.5	navigation	Trial1	navigation/STIM_011.jpg	99
417.37	2.764	2764.1	navigation	Trial1	navigation/STIM_011.jpg	99
423.437	2.844	2844.2	navigation	Trial1	navigation/STIM_011.jpg	100
429.912	0.964	963.6	pointing	Trial1	pointing/STIM_000.jpg	99
434.272	1.293	1293.2	pointing	Trial1	pointing/STIM_000.jpg	99
438.278	1.052	1051.7	pointing	Trial1	pointing/STIM_000.jpg	100
442.05	1.082	1082.4	pointing	Trial1	pointing/STIM_000.jpg	99
446.159	1.293	1293.1	pointing	Trial1	pointing/STIM_000.jpg	99
449.698	1.123	1123.1	pointing	Trial1	pointing/STIM_000.jpg	99
453.668	0.8	799.7	pointing	Trial1	pointing/STIM_001.jpg	99
457.918	0.88	879.9	pointing	Trial1	pointing/STIM_001.jpg	100
462.716	0.749	748.7	pointing	Trial1	pointing/STIM_001.jpg	99
467.112	0.971	970.9	pointing	Trial1	pointing/STIM_001.jpg	99
471.542	0.804	804.3	pointing	Trial1	pointing/STIM_001.jpg	99
475.595	1.02	1019.9	pointing	Trial1	pointing/STIM_001.jpg	100
479.504	0.941	941.2	pointing	Trial1	pointing/STIM_002.jpg	100
484.556	1.242	1242.0	pointing	Trial1	pointing/STIM_002.jpg	99
488.707	0.913	912.7	pointing	Trial1	pointing/STIM_002.jpg	99
492.528	0.782	782.2	pointing	Trial1	pointing/STIM_002.jpg	99
496.343	0.842	841.7	pointing	Trial1	pointing/STIM_002.jpg	100
500.616	1.282	1282.2	pointing	Trial1	pointing/STIM_002.jpg	99
505.63	1.01	1010.1	pointing	Trial1	pointing/STIM_003.jpg	100
509.435	0.994	994.1	pointing	Trial1	pointing/STIM_003.jpg	99
513.659	1.041	1041.1	pointing	Trial1	pointing/STIM_003.jpg	100
517.463	1.154	1153.5	pointing	Trial1	pointing/STIM_003.jpg	99
521.048	0.976	976.4	pointing	Trial1	pointing/STIM_003.jpg	99
524.485	1.179	1179.3	pointing	Trial1	pointing/STIM_003.jpg	100
528.484	1.284	1284.1	pointing	Trial1	pointing/STIM_004.jpg	100
533.409	1.317	1316.6	pointing	Trial1	pointing/STIM_004.jpg	99
538.349	0.964	964.2	pointing	Trial1	pointing/STIM_004.jpg	100
543.096	1.287	1286.7	pointing	Trial1	pointing/STIM_004.jpg	99
548.057	0.785	785.0	pointing	Trial1	pointing/STIM_004.jpg	100
552.728	0.893	893.4	pointing	Trial1	pointing/STIM_004.jpg	99
556.378	1.079	1078.6	pointing	Trial1	pointing/STIM_005.jpg	100
561.455	1.031	1031.2	pointing	Trial1	pointing/STIM_005.jpg	100
565.833	1.124	1123.7	pointing	Trial1	pointing/STIM_005.jpg	100
570.939	0.976	976.2	pointing	Trial1	pointing/STIM_005.jpg	99
575.015	1.209	1208.7	pointing	Trial1	pointing/STIM_005.jpg	99
578.848	1.068	1067.7	pointing	Trial1	pointing/STIM_005.jpg	99
583.73	0.942	942.3	pointing	Trial1	pointing/STIM_006.jpg	99
587.916	0.797	797.1	pointing	Trial1	pointing/STIM_006.jpg	100
591.516	1.097	1097.1	pointing	Trial1	pointing/STIM_006.jpg	99
595.64	1.16	1160.1	pointing	Trial1	pointing/STIM_006.jpg	99
600.912	1.027	1026.6	pointing	Trial1	pointing/STIM_006.jpg	99
604.063	1.293	1292.6	pointing	Trial1	pointing/STIM_006.jpg	99
609.18	0.719	719.3	pointing	Trial1	pointing/STIM_007.jpg	99
613.665	1.068	1068.3	pointing	Trial1	pointing/STIM_007.jpg	99
617.594	0.936	935.8	pointing	Trial1	pointing/STIM_007.jpg	100
622.55	1.154	1154.4	pointing	Trial1	pointing/STIM_007.jpg	100
626.096	0.789	789.1	pointing	Trial1	pointing/STIM_007.jpg	100
629.978	0.833	832.8	pointing	Trial1	pointing/STIM_007.jpg	99
633.305	1.213	1213.2	pointing	Trial1	pointing/STIM_008.jpg	99
638.53	1.15	1150.3	pointing	Trial1	pointing/STIM_008.jpg	100
642.75	0.992	991.5	pointing	Trial1	pointing/STIM_008.jpg	99
647.637	1.086	1086.2	pointing	Trial1	pointing/STIM_008.jpg	99
651.78	1.116	1116.1	pointing	Trial1	pointing/STIM_008.jpg	99
655.776	1.078	1078.2	pointing	Trial1	pointing/STIM_008.jpg	99
659.812	0.912	911.9	pointing	Trial1	pointing/STIM_009.jpg	100
663.694	1.233	1232.9	pointing	Trial1	pointing/STIM_009.jpg	100
668.087	1.278	1277.5	pointing	Trial1	pointing/STIM_009.jpg	99
672.086	0.984	984.1	pointing	Trial1	pointing/STIM_009.jpg	99
675.372	1.276	1276.5	pointing	Trial1	pointing/STIM_009.jpg	99
678.902	1.115	1115.3	pointing	Trial1	pointing/STIM_009.jpg	100
683.95	1.014	1013.6	pointing	Trial1	pointing/STIM_010.jpg	99
687.4	1.281	1280.8	pointing	Trial1	pointing/STIM_010.jpg	99
692.762	0.919	918.7	pointing	Trial1	pointing/STIM_010.jpg	100
696.082	1.084	1083.6	pointing	Trial1	pointing/STIM_010.jpg	99
699.739	1.254	1253.5	pointing	Trial1	pointing/STIM_010.jpg	99
704.624	0.752	751.9	pointing	Trial1	pointing/STIM_010.jpg	99
708.656	1.256	1256.3	pointing	Trial1	pointing/STIM_011.jpg	99
713.194	1.196	1195.7	pointing	Trial1	pointing/STIM_011.jpg	99
718.159	1.177	1176.6	pointing	Trial1	pointing/STIM_011.jpg	99
721.885	0.859	858.7	pointing	Trial1	pointing/STIM_011.jpg	100
725.072	1.119	1118.6	pointing	Trial1	pointing/STIM_011.jpg	100
729.034	0.835	835.0	pointing	Trial1	pointing/STIM_011.jpg	100
733.066	2.269	2268.8	navigation	Trial2	navigation/STIM_000.jpg	99
738.151	2.548	2548.3	navigation	Trial2	navigation/STIM_000.jpg	99
744.435	2.676	2675.6	navigation	Trial2	navigation/STIM_000.jpg	100
749.555	1.857	1857.3	navigation	Trial2	navigation/STIM_000.jpg	99
755.437	1.894	1894.5	navigation	Trial2	navigation/STIM_000.jpg	99
760.271	1.29	1290.5	navigation	Trial2	navigation/STIM_000.jpg	99
764.802	1.79	1789.8	navigation	Trial2	navigation/STIM_001.jpg	100
769.855	2.561	2561.2	navigation	Trial2	navigation/STIM_001.jpg	100
775.267	2.467	2466.6	navigation	Trial2	navigation/STIM_001.jpg	99
780.681	2.613	2612.6	navigation	Trial2	navigation/STIM_001.jpg	100
787.433	1.251	1250.9	navigation	Trial2	navigation/STIM_001.jpg	100
792.404	1.902	1902.1	navigation	Trial2	navigation/STIM_001.jpg	99
798.356	3.436	3436.2	navigation	Trial2	navigation/STIM_002.jpg	99
805.398	2.847	2846.9	navigation	Trial2	navigation/STIM_002.jpg	100
811.947	2.457	2457.1	navigation	Trial2	navigation/STIM_002.jpg	100
818.565	2.593	2593.4	navigation	Trial2	navigation/STIM_002.jpg	100
824.942	2.874	2873.5	navigation	Trial2	navigation/STIM_002.jpg	99
831.638	2.063	2063.3	navigation	Trial2	navigation/STIM_002.jpg	100
836.528	2.052	2052.1	navigation	Trial2	navigation/STIM_003.jpg	99
842.601	3.235	3234.6	navigation	Trial2	navigation/STIM_003.jpg	100
848.923	1.715	1715.1	navigation	Trial2	navigation/STIM_003.jpg	100
853.713	1.78	1780.5	navigation	Trial2	navigation/STIM_003.jpg	100
858.449	1.287	1286.7	navigation	Trial2	navigation/STIM_003.jpg	99
863.563	2.144	2143.7	navigation	Trial2	navigation/STIM_003.jpg	100
869.561	2.053	2053.0	navigation	Trial2	navigation/STIM_004.jpg	100
874.272	2.226	2225.9	navigation	Trial2	navigation/STIM_004.jpg	99
879.765	2.146	2146.2	navigation	Trial2	navigation/STIM_004.jpg	99
885.431	2.418	2418.1	navigation	Trial2	navigation/STIM_004.jpg	100
890.673	2.936	2936.4	navigation	Trial2	navigation/STIM_004.jpg	100
896.443	1.808	1807.7	navigation	Trial2	navigation/STIM_004.jpg	99
901.78	3.003	3003.3	navigation	Trial2	navigation/STIM_005.jpg	100
908.029	1.94	1939.9	navigation	Trial2	navigation/STIM_005.jpg	99
912.791	2.096	2096.3	navigation	Trial2	navigation/STIM_005.jpg	100
918.089	1.889	1889.0	navigation	Trial2	navigation/STIM_005.jpg	100
923.76	2.665	2665.2	navigation	Trial2	navigation/STIM_005.jpg	99
928.762	2.876	2876.4	navigation	Trial2	navigation/STIM_005.jpg	100
934.958	2.882	2881.8	navigation	Trial2	navigation/STIM_006.jpg	99
940.477	2.823	2823.2	navigation	Trial2	navigation/STIM_006.jpg	100
947.172	2.049	2048.8	navigation	Trial2	navigation/STIM_006.jpg	99
951.85	2.827	2827.3	navigation	Trial2	navigation/STIM_006.jpg	100
957.668	2.112	2112.1	navigation	Trial2	navigation/STIM_006.jpg	100
962.928	2.965	2964.7	navigation	Trial2	navigation/STIM_006.jpg	100
969.671	2.059	2058.6	navigation	Trial2	navigation/STIM_007.jpg	100
974.944	3.097	3097.4	navigation	Trial2	navigation/STIM_007.jpg	99
981.905	1.43	1430.0	navigation	Trial2	navigation/STIM_007.jpg	100
986.844	1.95	1950.0	navigation	Trial2	navigation/STIM_007.jpg	100
992.277	2.579	2579.2	navigation	Trial2	navigation/STIM_007.jpg	99
998.768	1.456	1455.7	navigation	Trial2	navigation/STIM_007.jpg	99
1002.401	1.571	1571.0	navigation	Trial2	navigation/STIM_008.jpg	100
1007.362	2.047	2047.1	navigation	Trial2	navigation/STIM_008.jpg	100
1013.027	1.846	1845.9	navigation	Trial2	navigation/STIM_008.jpg	100
1017.426	3.025	3025.0	navigation	Trial2	navigation/STIM_008.jpg	100
1024.519	1.944	1944.0	navigation	Trial2	navigation/STIM_008.jpg	99
1030.552	1.691	1691.3	navigation	Trial2	navigation/STIM_008.jpg	100
1036.015	2.942	2942.4	navigation	Trial2	navigation/STIM_009.jpg	100
1041.661	2.797	2796.9	navigation	Trial2	navigation/STIM_009.jpg	99
1047.049	1.817	1817.0	navigation	Trial2	navigation/STIM_009.jpg	100
1051.754	1.38	1380.0	navigation	Trial2	navigation/STIM_009.jpg	99
1055.731	1.843	1843.2	navigation	Trial2	navigation/STIM_009.jpg	99
1060.213	1.787	1787.0	navigation	Trial2	navigation/STIM_009.jpg	99
1065.452	2.954	2954.0	navigation	Trial2	navigation/STIM_010.jpg	99
1071.39	1.516	1515.7	navigation	Trial2	navigation/STIM_010.jpg	100
1075.43	2.186	2186.0	navigation	Trial2	navigation/STIM_010.jpg	99
1080.947	1.306	1305.7	navigation	Trial2	navigation/STIM_010.jpg	100
1085.819	2.172	2172.0	navigation	Trial2	navigation/STIM_010.jpg	99
1090.545	2.993	2993.1	navigation	Trial2	navigation/STIM_010.jpg	100
1096.333	2.882	2881.8	navigation	Trial2	navigation/STIM_011.jpg	100
1102.789	2.011	2011.2	navigation	Trial2	navigation/STIM_011.jpg	100
1107.582	2.723	2723.3	navigation	Trial2	navigation/STIM_011.jpg	99
1113.571	1.453	1452.7	navigation	Trial2	navigation/STIM_011.jpg	100
1117.566	2.479	2478.8	navigation	Trial2	navigation/STIM_011.jpg	99
1122.619	2.44	2439.7	navigation	Trial2	navigation/STIM_011.jpg	99
1128.092	0.851	851.3	pointing	Trial2	pointing/STIM_000.jpg	100
1132.42	1.235	1235.1	pointing	Trial2	pointing/STIM_000.jpg	99
1137.231	1.176	1176.1	pointing	Trial2	pointing/STIM_000.jpg	99
1142.12	1.132	1132.4	pointing	Trial2	pointing/STIM_000.jpg	99
1146.913	0.852	852.2	pointing	Trial2	pointing/STIM_000.jpg	100
1150.812	1.241	1241.3	pointing	Trial2	pointing/STIM_000.jpg	100
1156.136	0.823	822.9	pointing	Trial2	pointing/STIM_001.jpg	100
1160.073	1.154	1154.1	pointing	Trial2	pointing/STIM_001.jpg	100
1164.336	0.929	929.0	pointing	Trial2	pointing/STIM_001.jpg	99
1168.06	1.26	1259.7	pointing	Trial2	pointing/STIM_001.jpg	99
1172.991	1.059	1059.0	pointing	Trial2	pointing/STIM_001.jpg	99
1177.819	1.284	1284.0	pointing	Trial2	pointing/STIM_001.jpg	99
1182.361	0.977	977.0	pointing	Trial2	pointing/STIM_002.jpg	100
1186.962	0.976	976.5	pointing	Trial2	pointing/STIM_002.jpg	100
1190.143	1.12	1119.5	pointing	Trial2	pointing/STIM_002.jpg	99
1193.575	1.253	1252.7	pointing	Trial2	pointing/STIM_002.jpg	100
1197.507	1.167	1167.0	pointing	Trial2	pointing/STIM_002.jpg	99
1202.603	1.029	1029.3	pointing	Trial2	pointing/STIM_002.jpg	99
1205.852	0.799	799.3	pointing	Trial2	pointing/STIM_003.jpg	100
1210.592	1.17	1170.0	pointing	Trial2	pointing/STIM_003.jpg	99
1214.035	0.859	858.7	pointing	Trial2	pointing/STIM_003.jpg	100
1218.497	0.807	806.9	pointing	Trial2	pointing/STIM_003.jpg	100
1221.44	1.071	1070.8	pointing	Trial2	pointing/STIM_003.jpg	99
1226.039	1.185	1185.4	pointing	Trial2	pointing/STIM_003.jpg	99
1230.809	0.815	815.1	pointing	Trial2	pointing/STIM_004.jpg	100
1234.345	0.736	735.5	pointing	Trial2	pointing/STIM_004.jpg	100
1238.793	1.258	1257.5	pointing	Trial2	pointing/STIM_004.jpg	99
1243.063	0.986	986.5	pointing	Trial2	pointing/STIM_004.jpg	99
1247.029	1.001	1001.1	pointing	Trial2	pointing/STIM_004.jpg	100
1250.782	1.083	1082.7	pointing	Trial2	pointing/STIM_004.jpg	99
1255.117	0.743	742.9	pointing	Trial2	pointing/STIM_005.jpg	99
1258.23	1.037	1036.9	pointing	Trial2	pointing/STIM_005.jpg	100
1262.019	0.868	867.6	pointing	Trial2	pointing/STIM_005.jpg	99
1266.7	0.738	738.5	pointing	Trial2	pointing/STIM_005.jpg	100
1269.878	1.093	1092.6	pointing	Trial2	pointing/STIM_005.jpg	99
1274.216	0.885	885.2	pointing	Trial2	pointing/STIM_005.jpg	99
1277.283	0.949	949.3	pointing	Trial2	pointing/STIM_006.jpg	100
1281.638	0.927	927.0	pointing	Trial2	pointing/STIM_006.jpg	99
1286.612	1.003	1002.9	pointing	Trial2	pointing/STIM_006.jpg	99
1290.843	0.809	808.9	pointing	Trial2	pointing/STIM_006.jpg	100
1295.487	1.169	1169.0	pointing	Trial2	pointing/STIM_006.jpg	100
1300.619	1.338	1338.3	pointing	Trial2	pointing/STIM_006.jpg	99
1305.474	1.042	1042.3	pointing	Trial2	pointing/STIM_007.jpg	100
1309.215	1.318	1318.5	pointing	Trial2	pointing/STIM_007.jpg	99
1313.361	1.087	1086.9	pointing	Trial2	pointing/STIM_007.jpg	100
1316.73	1.121	1121.0	pointing	Trial2	pointing/STIM_007.jpg	100
1321.795	1.112	1112.3	pointing	Trial2	pointing/STIM_007.jpg	99
1325.328	1.109	1108.9	pointing	Trial2	pointing/STIM_007.jpg	100
1330.196	1.046	1045.8	pointing	Trial2	pointing/STIM_008.jpg	99
1334.722	1.197	1197.2	pointing	Trial2	pointing/STIM_008.jpg	99
1339.908	1.169	1169.3	pointing	Trial2	pointing/STIM_008.jpg	99
1344.623	0.725	724.9	pointing	Trial2	pointing/STIM_008.jpg	99
1348.707	0.818	818.3	pointing	Trial2	pointing/STIM_008.jpg	99
1352.966	0.742	741.5	pointing	Trial2	pointing/STIM_008.jpg	100
1356.177	0.843	843.3	pointing	Trial2	pointing/STIM_009.jpg	100
1359.265	0.825	825.2	pointing	Trial2	pointing/STIM_009.jpg	99
1362.791	1.326	1326.2	pointing	Trial2	pointing/STIM_009.jpg	99
1366.521	1.015	1014.6	pointing	Trial2	pointing/STIM_009.jpg	99
1370.949	1.075	1075.2	pointing	Trial2	pointing/STIM_009.jpg	100
1375.734	1.223	1223.4	pointing	Trial2	pointing/STIM_009.jpg	99
1380.761	1.06	1059.7	pointing	Trial2	pointing/STIM_010.jpg	99
1384.347	0.881	881.2	pointing	Trial2	pointing/STIM_010.jpg	100
1387.727	1.095	1094.7	pointing	Trial2	pointing/STIM_010.jpg	99
1392.536	1.046	1045.6	pointing	Trial2	pointing/STIM_010.jpg	100
1396.533	1.268	1268.1	pointing	Trial2	pointing/STIM_010.jpg	99
1401.365	1.181	1181.3	pointing	Trial2	pointing/STIM_010.jpg	99
1405.788	0.992	991.7	pointing	Trial2	pointing/STIM_011.jpg	99
1410.057	1.14	1139.9	pointing	Trial2	pointing/STIM_011.jpg	100
1414.435	1.324	1324.0	pointing	Trial2	pointing/STIM_011.jpg	99
1417.982	0.747	746.7	pointing	Trial2	pointing/STIM_011.jpg	100
1421.046	1.004	1003.6	pointing	Trial2	pointing/STIM_011.jpg	99
1424.645	0.891	891.2	pointing	Trial2	pointing/STIM_011.jpg	100
1429.06	2.238	2238.2	navigation	Trial3	navigation/STIM_000.jpg	100
1435.093	2.354	2353.5	navigation	Trial3	navigation/STIM_000.jpg	99
1440.15	1.396	1395.8	navigation	Trial3	navigation/STIM_000.jpg	99
1444.387	2.195	2194.8	navigation	Trial3	navigation/STIM_000.jpg	99
1449.85	1.913	1913.3	navigation	Trial3	navigation/STIM_000.jpg	100
1454.468	2.059	2058.8	navigation	Trial3	navigation/STIM_000.jpg	99
1459.831	1.598	1598.4	navigation	Trial3	navigation/STIM_001.jpg	99
1465.287	2.208	2208.3	navigation	Trial3	navigation/STIM_001.jpg	99
1471.692	1.81	1809.5	navigation	Trial3	navigation/STIM_001.jpg	100
1477.121	1.963	1963.3	navigation	Trial3	navigation/STIM_001.jpg	99
1483.071	3.061	3061.4	navigation	Trial3	navigation/STIM_001.jpg	100
1488.882	1.497	1496.7	navigation	Trial3	navigation/STIM_001.jpg	99
1494.527	2.341	2340.7	navigation	Trial3	navigation/STIM_002.jpg	99
1500.402	1.915	1914.7	navigation	Trial3	navigation/STIM_002.jpg	100
1504.983	3.083	3082.7	navigation	Trial3	navigation/STIM_002.jpg	99
1511.253	2.918	2918.4	navigation	Trial3	navigation/STIM_002.jpg	99
1517.856	1.755	1754.8	navigation	Trial3	navigation/STIM_002.jpg	100
1523.144	1.278	1278.2	navigation	Trial3	navigation/STIM_002.jpg	100
1527.905	1.639	1638.9	navigation	Trial3	navigation/STIM_003.jpg	99
1533.111	1.495	1495.0	navigation	Trial3	navigation/STIM_003.jpg	99
1537.17	2.15	2149.8	navigation	Trial3	navigation/STIM_003.jpg	99
1543.049	1.959	1958.9	navigation	Trial3	navigation/STIM_003.jpg	100
1549.171	1.265	1264.7	navigation	Trial3	navigation/STIM_003.jpg	100
1553.985	2.119	2118.6	navigation	Trial3	navigation/STIM_003.jpg	100
1559.545	1.836	1836.5	navigation	Trial3	navigation/STIM_004.jpg	99
1564.78	2.01	2010.5	navigation	Trial3	navigation/STIM_004.jpg	100
1569.037	2.889	2888.8	navigation	Trial3	navigation/STIM_004.jpg	99
1574.746	2.629	2628.7	navigation	Trial3	navigation/STIM_004.jpg	100
1579.744	1.487	1487.1	navigation	Trial3	navigation/STIM_004.jpg	100
1584.505	2.549	2548.6	navigation	Trial3	navigation/STIM_004.jpg	100
1590.322	2.08	2079.7	navigation	Trial3	navigation/STIM_005.jpg	100
1595.954	2.788	2788.3	navigation	Trial3	navigation/STIM_005.jpg	100
1601.752	2.179	2179.2	navigation	Trial3	navigation/STIM_005.jpg	99
1607.61	1.635	1634.9	navigation	Trial3	navigation/STIM_005.jpg	100
1612.926	2.614	2613.7	navigation	Trial3	navigation/STIM_005.jpg	99
1617.946	1.262	1262.5	navigation	Trial3	navigation/STIM_005.jpg	99
1621.678	1.4	1400.0	navigation	Trial3	navigation/STIM_006.jpg	99
1626.104	2.182	2181.9	navigation	Trial3	navigation/STIM_006.jpg	99
1630.872	1.257	1257.1	navigation	Trial3	navigation/STIM_006.jpg	100
1634.76	1.812	1812.0	navigation	Trial3	navigation/STIM_006.jpg	99
1639.132	2.213	2212.7	navigation	Trial3	navigation/STIM_006.jpg	99
1643.956	1.734	1734.4	navigation	Trial3	navigation/STIM_006.jpg	100
1649.306	1.403	1403.0	navigation	Trial3	navigation/STIM_007.jpg	99
1654.463	1.724	1724.2	navigation	Trial3	navigation/STIM_007.jpg	99
1658.794	2.543	2542.9	navigation	Trial3	navigation/STIM_007.jpg	99
1664.529	1.619	1618.8	navigation	Trial3	navigation/STIM_007.jpg	100
1670.172	3.015	3014.7	navigation	Trial3	navigation/STIM_007.jpg	100
1676.771	1.459	1459.0	navigation	Trial3	navigation/STIM_007.jpg	100
1681.448	2.065	2065.2	navigation	Trial3	navigation/STIM_008.jpg	99
1687.083	1.638	1637.6	navigation	Trial3	navigation/STIM_008.jpg	100
1691.385	1.394	1394.5	navigation	Trial3	navigation/STIM_008.jpg	100
1695.817	1.569	1568.9	navigation	Trial3	navigation/STIM_008.jpg	99
1700.702	1.955	1954.9	navigation	Trial3	navigation/STIM_008.jpg	99
1706.467	2.408	2408.1	navigation	Trial3	navigation/STIM_008.jpg	100
1713.144	1.639	1639.4	navigation	Trial3	navigation/STIM_009.jpg	99
1718.074	2.196	2195.7	navigation	Trial3	navigation/STIM_009.jpg	100
1723.485	1.872	1872.5	navigation	Trial3	navigation/STIM_009.jpg	99
1729.096	2.874	2873.6	navigation	Trial3	navigation/STIM_009.jpg	99
1735.552	2.111	2110.9	navigation	Trial3	navigation/STIM_009.jpg	100
1740.782	1.268	1267.5	navigation	Trial3	navigation/STIM_009.jpg	100
1746.169	1.859	1859.4	navigation	Trial3	navigation/STIM_010.jpg	100
1750.912	1.559	1559.4	navigation	Trial3	navigation/STIM_010.jpg	99
1756.43	2.794	2794.0	navigation	Trial3	navigation/STIM_010.jpg	99
1762.618	2.87	2869.9	navigation	Trial3	navigation/STIM_010.jpg	100
1769.739	2.244	2244.4	navigation	Trial3	navigation/STIM_010.jpg	100
1774.379	2.622	2622.4	navigation	Trial3	navigation/STIM_010.jpg	99
1780.633	2.414	2414.2	navigation	Trial3	navigation/STIM_011.jpg	100
1786.885	2.351	2350.6	navigation	Trial3	navigation/STIM_011.jpg	99
1792.443	1.283	1283.0	navigation	Trial3	navigation/STIM_011.jpg	99
1797.395	1.485	1485.3	navigation	Trial3	navigation/STIM_011.jpg	99
1802.804	2.39	2390.3	navigation	Trial3	navigation/STIM_011.jpg	99
1809.361	2.303	2303.4	navigation	Trial3	navigation/STIM_011.jpg	99
1815.653	0.834	834.2	pointing	Trial3	pointing/STIM_000.jpg	100
1818.97	1.087	1086.9	pointing	Trial3	pointing/STIM_000.jpg	100
1823.475	0.736	735.6	pointing	Trial3	pointing/STIM_000.jpg	99
1827.666	0.846	846.3	pointing	Trial3	pointing/STIM_000.jpg	99
1831.0	0.918	917.9	pointing	Trial3	pointing/STIM_000.jpg	100
1834.959	0.812	812.2	pointing	Trial3	pointing/STIM_000.jpg	100
1839.728	1.009	1008.9	pointing	Trial3	pointing/STIM_001.jpg	100
1843.476	1.232	1232.3	pointing	Trial3	pointing/STIM_001.jpg	99
1848.551	1.192	1191.8	pointing	Trial3	pointing/STIM_001.jpg	100
1852.679	1.124	1124.1	pointing	Trial3	pointing/STIM_001.jpg	99
1856.634	0.755	754.8	pointing	Trial3	pointing/STIM_001.jpg	99
1859.566	1.133	1132.7	pointing	Trial3	pointing/STIM_001.jpg	99
1864.835	0.8	800.5	pointing	Trial3	pointing/STIM_002.jpg	100
1869.209	0.862	862.0	pointing	Trial3	pointing/STIM_002.jpg	99
1872.256	0.802	801.8	pointing	Trial3	pointing/STIM_002.jpg	100
1875.48	0.986	985.8	pointing	Trial3	pointing/STIM_002.jpg	99
1878.973	0.791	791.0	pointing	Trial3	pointing/STIM_002.jpg	100
1883.068	0.856	856.1	pointing	Trial3	pointing/STIM_002.jpg	100
1887.992	0.959	958.7	pointing	Trial3	pointing/STIM_003.jpg	99
1891.593	1.122	1122.0	pointing	Trial3	pointing/STIM_003.jpg	99
1896.359	0.975	974.7	pointing	Trial3	pointing/STIM_003.jpg	99
1900.549	1.235	1235.2	pointing	Trial3	pointing/STIM_003.jpg	99
1904.468	0.787	787.0	pointing	Trial3	pointing/STIM_003.jpg	100
1908.927	1.252	1252.5	pointing	Trial3	pointing/STIM_003.jpg	100
1912.468	0.924	924.1	pointing	Trial3	pointing/STIM_004.jpg	100
1915.925	0.979	979.4	pointing	Trial3	pointing/STIM_004.jpg	100
1920.122	1.164	1164.2	pointing	Trial3	pointing/STIM_004.jpg	99
1923.586	1.007	1007.4	pointing	Trial3	pointing/STIM_004.jpg	99
1927.967	0.862	862.0	pointing	Trial3	pointing/STIM_004.jpg	100
1931.598	0.724	723.9	pointing	Trial3	pointing/STIM_004.jpg	99
1935.161	0.986	985.6	pointing	Trial3	pointing/STIM_005.jpg	100
1938.673	1.029	1029.2	pointing	Trial3	pointing/STIM_005.jpg	99
1943.014	0.966	965.7	pointing	Trial3	pointing/STIM_005.jpg	99
1946.356	0.997	996.7	pointing	Trial3	pointing/STIM_005.jpg	100
1949.498	1.321	1321.0	pointing	Trial3	pointing/STIM_005.jpg	100
1953.4	1.234	1234.4	pointing	Trial3	pointing/STIM_005.jpg	99
1958.267	1.252	1251.5	pointing	Trial3	pointing/STIM_006.jpg	100
1962.923	1.059	1058.7	pointing	Trial3	pointing/STIM_006.jpg	99
1966.674	1.165	1165.4	pointing	Trial3	pointing/STIM_006.jpg	100
1970.665	1.21	1209.7	pointing	Trial3	pointing/STIM_006.jpg	100
1975.89	0.719	719.1	pointing	Trial3	pointing/STIM_006.jpg	99
1978.87	0.754	753.6	pointing	Trial3	pointing/STIM_006.jpg	100
1982.507	1.141	1140.6	pointing	Trial3	pointing/STIM_007.jpg	100
1986.114	0.788	788.5	pointing	Trial3	pointing/STIM_007.jpg	100
1989.321	1.174	1174.3	pointing	Trial3	pointing/STIM_007.jpg	99
1992.804	1.269	1269.2	pointing	Trial3	pointing/STIM_007.jpg	100
1996.827	0.731	731.1	pointing	Trial3	pointing/STIM_007.jpg	100
2001.095	1.225	1224.8	pointing	Trial3	pointing/STIM_007.jpg	99
2005.402	1.313	1312.9	pointing	Trial3	pointing/STIM_008.jpg	100
2009.772	1.206	1206.2	pointing	Trial3	pointing/STIM_008.jpg	100
2013.632	0.774	773.8	pointing	Trial3	pointing/STIM_008.jpg	100
2017.461	0.987	987.2	pointing	Trial3	pointing/STIM_008.jpg	100
2020.921	1.169	1169.4	pointing	Trial3	pointing/STIM_008.jpg	100
2025.54	1.02	1019.9	pointing	Trial3	pointing/STIM_008.jpg	100
2028.91	0.814	813.7	pointing	Trial3	pointing/STIM_009.jpg	100
2033.406	1.043	1042.9	pointing	Trial3	pointing/STIM_009.jpg	100
2038.561	0.97	969.8	pointing	Trial3	pointing/STIM_009.jpg	99
2041.7	1.331	1331.4	pointing	Trial3	pointing/STIM_009.jpg	100
2046.399	0.797	797.2	pointing	Trial3	pointing/STIM_009.jpg	99
2051.289	1.307	1307.2	pointing	Trial3	pointing/STIM_009.jpg	99
2056.736	1.292	1291.8	pointing	Trial3	pointing/STIM_010.jpg	100
2061.695	0.99	990.4	pointing	Trial3	pointing/STIM_010.jpg	100
2066.11	0.908	907.8	pointing	Trial3	pointing/STIM_010.jpg	100
2069.682	0.88	880.4	pointing	Trial3	pointing/STIM_010.jpg	99
2074.368	1.318	1317.5	pointing	Trial3	pointing/STIM_010.jpg	99
2078.09	1.158	1157.7	pointing	Trial3	pointing/STIM_010.jpg	100
2082.933	1.137	1136.8	pointing	Trial3	pointing/STIM_011.jpg	99
2087.318	0.817	817.0	pointing	Trial3	pointing/STIM_011.jpg	99
2091.854	0.984	983.8	pointing	Trial3	pointing/STIM_011.jpg	99
2095.394	1.073	1073.4	pointing	Trial3	pointing/STIM_011.jpg	99
2100.025	0.894	894.2	pointing	Trial3	pointing/STIM_011.jpg	99
2103.631	0.864	863.7	pointing	Trial3	pointing/STIM_011.jpg	100
