onset	duration	response_time_ms	trial_type	learning_stage	stimulus	response_port
0.0	1.435	1435.3	generate	Run1	generate/STIM_000.jpg	99
5.432	2.43	2429.9	generate	Run1	generate/STIM_000.jpg	100
12.089	1.778	1777.6	generate	Run1	generate/STIM_000.jpg	99
16.32	1.162	1161.8	generate	Run1	generate/STIM_000.jpg	100
20.239	1.452	1451.9	generate	Run1	generate/STIM_000.jpg	100
25.115	1.422	1421.9	generate	Run1	generate/STIM_001.jpg	99
29.695	1.515	1514.9	generate	Run1	generate/STIM_001.jpg	100
33.885	1.8	1799.8	generate	Run1	generate/STIM_001.jpg	99
38.009	1.672	1672.5	generate	Run1	generate/STIM_001.jpg	99
42.325	1.196	1195.6	generate	Run1	generate/STIM_001.jpg	99
47.061	2.542	2541.9	generate	Run1	generate/STIM_002.jpg	100
51.958	1.182	1182.5	generate	Run1	generate/STIM_002.jpg	99
55.875	1.121	1120.6	generate	Run1	generate/STIM_002.jpg	100
59.239	1.34	1340.1	generate	Run1	generate/STIM_002.jpg	99
64.318	1.843	1842.7	generate	Run1	generate/STIM_002.jpg	99
68.763	2.378	2378.1	generate	Run1	generate/STIM_003.jpg	99
74.812	2.229	2228.9	generate	Run1	generate/STIM_003.jpg	100
81.059	2.398	2398.4	generate	Run1	generate/STIM_003.jpg	99
85.717	1.201	1201.1	generate	Run1	generate/STIM_003.jpg	100
90.787	1.786	1786.5	generate	Run1	generate/STIM_003.jpg	100
94.881	2.141	2141.2	generate	Run1	generate/STIM_004.jpg	100
101.169	1.376	1376.2	generate	Run1	generate/STIM_004.jpg	100
106.54	1.736	1736.3	generate	Run1	generate/STIM_004.jpg	99
110.865	2.234	2234.5	generate	Run1	generate/STIM_004.jpg	100
117.003	1.612	1611.9	generate	Run1	generate/STIM_004.jpg	99
121.221	2.496	2495.9	generate	Run1	generate/STIM_005.jpg	100
126.284	1.068	1068.2	generate	Run1	generate/STIM_005.jpg	99
131.044	1.298	1297.6	generate	Run1	generate/STIM_005.jpg	100
134.59	2.074	2073.9	generate	Run1	generate/STIM_005.jpg	99
139.019	2.118	2118.2	generate	Run1	generate/STIM_005.jpg	99
145.162	2.138	2137.8	generate	Run1	generate/STIM_006.jpg	100
150.144	2.347	2346.9	generate	Run1	generate/STIM_006.jpg	99
155.835	1.475	1475.1	generate	Run1	generate/STIM_006.jpg	99
160.887	2.288	2287.6	generate	Run1	generate/STIM_006.jpg	100
165.654	1.51	1510.5	generate	Run1	generate/STIM_006.jpg	100
169.55	2.229	2229.0	generate	Run1	generate/STIM_007.jpg	99
174.184	2.355	2354.9	generate	Run1	generate/STIM_007.jpg	100
179.137	1.335	1334.8	generate	Run1	generate/STIM_007.jpg	99
183.59	1.622	1621.9	generate	Run1	generate/STIM_007.jpg	100
188.449	1.756	1756.5	generate	Run1	generate/STIM_007.jpg	100
194.29	2.6	2599.8	generate	Run1	generate/STIM_008.jpg	100
200.265	1.543	1543.3	generate	Run1	generate/STIM_008.jpg	100
205.588	1.999	1999.2	generate	Run1	generate/STIM_008.jpg	99
211.465	1.988	1987.9	generate	Run1	generate/STIM_008.jpg	99
217.527	1.874	1873.8	generate	Run1	generate/STIM_008.jpg	100
222.157	2.438	2437.5	generate	Run1	generate/STIM_009.jpg	100
228.232	2.421	2420.8	generate	Run1	generate/STIM_009.jpg	100
233.138	1.38	1379.5	generate	Run1	generate/STIM_009.jpg	100
238.37	1.027	1026.7	generate	Run1	generate/STIM_009.jpg	100
242.526	1.96	1959.8	generate	Run1	generate/STIM_009.jpg	100
247.958	2.119	2118.6	generate	Run1	generate/STIM_010.jpg	99
253.207	2.286	2286.2	generate	Run1	generate/STIM_010.jpg	100
259.124	2.281	2280.6	generate	Run1	generate/STIM_010.jpg	100
264.643	1.343	1343.4	generate	Run1	generate/STIM_010.jpg	100
269.459	1.788	1788.1	generate	Run1	generate/STIM_010.jpg	99
273.837	1.703	1703.3	generate	Run1	generate/STIM_011.jpg	100
278.249	1.227	1227.4	generate	Run1	generate/STIM_011.jpg	99
281.972	2.36	2359.9	generate	Run1	generate/STIM_011.jpg	100
287.748	2.288	2288.4	generate	Run1	generate/STIM_011.jpg	100
292.884	1.759	1759.3	generate	Run1	generate/STIM_011.jpg	100
297.862	2.124	2123.5	generate	Run1	generate/STIM_012.jpg	99
303.507	1.311	1311.3	generate	Run1	generate/STIM_012.jpg	100
307.749	1.297	1297.3	generate	Run1	generate/STIM_012.jpg	99
311.683	1.84	1840.1	generate	Run1	generate/STIM_012.jpg	99
317.22	1.781	1781.3	generate	Run1	generate/STIM_012.jpg	100
321.88	2.07	2069.7	generate	Run1	generate/STIM_013.jpg	99
326.408	2.221	2220.9	generate	Run1	generate/STIM_013.jpg	100
332.564	2.44	2440.4	generate	Run1	generate/STIM_013.jpg	99
338.211	1.764	1764.1	generate	Run1	generate/STIM_013.jpg	100
343.827	1.608	1608.1	generate	Run1	generate/STIM_013.jpg	100
348.433	2.333	2332.6	generate	Run1	generate/STIM_014.jpg	99
353.113	1.709	1709.4	generate	Run1	generate/STIM_014.jpg	100
357.061	1.708	1708.5	generate	Run1	generate/STIM_014.jpg	99
361.314	0.991	991.2	generate	Run1	generate/STIM_014.jpg	100
366.298	1.771	1771.0	generate	Run1	generate/STIM_014.jpg	99
371.58	2.605	2604.6	generate	Run1	generate/STIM_015.jpg	99
377.602	1.438	1438.5	generate	Run1	generate/STIM_015.jpg	100
381.463	2.31	2310.2	generate	Run1	generate/STIM_015.jpg	99
387.696	1.997	1997.4	generate	Run1	generate/STIM_015.jpg	99
393.868	2.039	2039.4	generate	Run1	generate/STIM_015.jpg	100
400.005	1.868	1867.5	generate	Run1	generate/STIM_016.jpg	100
405.523	1.708	1708.4	generate	Run1	generate/STIM_016.jpg	100
410.467	2.007	2006.7	generate	Run1	generate/STIM_016.jpg	99
415.497	2.273	2272.9	generate	Run1	generate/STIM_016.jpg	99
420.651	1.865	1864.9	generate	Run1	generate/STIM_016.jpg	100
426.666	1.724	1724.1	generate	Run1	generate/STIM_017.jpg	99
432.52	2.528	2528.0	generate	Run1	generate/STIM_017.jpg	100
437.58	2.407	2407.0	generate	Run1	generate/STIM_017.jpg	99
444.24	0.984	984.5	generate	Run1	generate/STIM_017.jpg	100
448.637	1.805	1805.0	generate	Run1	generate/STIM_017.jpg	100
454.358	1.503	1503.2	generate	Run1	generate/STIM_018.jpg	100
458.865	2.564	2563.7	generate	Run1	generate/STIM_018.jpg	100
465.479	1.002	1002.3	generate	Run1	generate/STIM_018.jpg	99
470.231	1.238	1238.3	generate	Run1	generate/STIM_018.jpg	100
473.969	2.133	2132.6	generate	Run1	generate/STIM_018.jpg	100
479.916	2.494	2494.1	generate	Run1	generate/STIM_019.jpg	100
485.064	1.766	1766.3	generate	Run1	generate/STIM_019.jpg	99
490.893	1.106	1106.4	generate	Run1	generate/STIM_019.jpg	99
494.619	0.991	990.9	generate	Run1	generate/STIM_019.jpg	100
498.82	1.417	1416.7	generate	Run1	generate/STIM_019.jpg	99
503.167	2.494	2494.3	generate	Run1	generate/STIM_020.jpg	99
508.735	1.84	1839.9	generate	Run1	generate/STIM_020.jpg	100
514.421	1.905	1905.4	generate	Run1	generate/STIM_020.jpg	100
519.007	0.94	939.9	generate	Run1	generate/STIM_020.jpg	99
523.939	1.591	1591.0	generate	Run1	generate/STIM_020.jpg	100
529.227	1.226	1226.4	generate	Run1	generate/STIM_021.jpg	99
533.497	1.338	1337.6	generate	Run1	generate/STIM_021.jpg	99
538.185	2.24	2240.0	generate	Run1	generate/STIM_021.jpg	100
544.61	1.758	1758.0	generate	Run1	generate/STIM_021.jpg	100
549.499	1.824	1823.8	generate	Run1	generate/STIM_021.jpg	100
553.655	1.309	1309.3	generate	Run1	generate/STIM_022.jpg	100
558.934	1.924	1923.5	generate	Run1	generate/STIM_022.jpg	100
564.776	2.016	2015.7	generate	Run1	generate/STIM_022.jpg	99
570.287	1.98	1980.2	generate	Run1	generate/STIM_022.jpg	100
576.214	1.362	1362.5	generate	Run1	generate/STIM_022.jpg	100
580.384	2.395	2395.2	generate	Run1	generate/STIM_023.jpg	100
585.594	1.638	1637.9	generate	Run1	generate/STIM_023.jpg	100
590.212	2.15	2150.2	generate	Run1	generate/STIM_023.jpg	100
595.858	1.043	1042.7	generate	Run1	generate/STIM_023.jpg	99
599.996	2.149	2148.6	generate	Run1	generate/STIM_023.jpg	99
605.291	2.526	2526.0	generate	Run1	generate/STIM_024.jpg	99
611.337	1.549	1549.0	generate	Run1	generate/STIM_024.jpg	99
615.518	2.34	2340.0	generate	Run1	generate/STIM_024.jpg	100
621.816	1.005	1004.8	generate	Run1	generate/STIM_024.jpg	99
624.979	1.66	1660.0	generate	Run1	generate/STIM_024.jpg	100
630.14	0.814	814.0	repeat	Run1	repeat/STIM_000.jpg	100
633.668	0.704	704.3	repeat	Run1	repeat/STIM_000.jpg	100
636.755	0.533	532.6	repeat	Run1	repeat/STIM_000.jpg	100
640.754	0.475	474.9	repeat	Run1	repeat/STIM_000.jpg	100
644.315	0.494	493.7	repeat	Run1	repeat/STIM_000.jpg	100
648.462	0.485	485.4	repeat	Run1	repeat/STIM_001.jpg	99
652.345	0.536	535.8	repeat	Run1	repeat/STIM_001.jpg	100
655.817	0.835	835.4	repeat	Run1	repeat/STIM_001.jpg	99
659.687	0.866	865.6	repeat	Run1	repeat/STIM_001.jpg	99
663.88	0.752	752.5	repeat	Run1	repeat/STIM_001.jpg	99
666.783	0.731	731.1	repeat	Run1	repeat/STIM_002.jpg	99
671.019	0.862	862.3	repeat	Run1	repeat/STIM_002.jpg	99
674.281	0.612	611.9	repeat	Run1	repeat/STIM_002.jpg	100
678.138	0.889	888.6	repeat	Run1	repeat/STIM_002.jpg	99
681.648	0.511	511.1	repeat	Run1	repeat/STIM_002.jpg	99
684.238	0.854	853.7	repeat	Run1	repeat/STIM_003.jpg	99
688.149	0.889	889.4	repeat	Run1	repeat/STIM_003.jpg	99
692.613	0.633	632.9	repeat	Run1	repeat/STIM_003.jpg	99
697.208	0.806	806.2	repeat	Run1	repeat/STIM_003.jpg	100
701.394	0.789	788.9	repeat	Run1	repeat/STIM_003.jpg	100
705.56	0.488	488.3	repeat	Run1	repeat/STIM_004.jpg	100
708.893	0.676	675.9	repeat	Run1	repeat/STIM_004.jpg	99
713.489	0.727	726.6	repeat	Run1	repeat/STIM_004.jpg	100
716.922	0.781	780.6	repeat	Run1	repeat/STIM_004.jpg	99
720.288	0.823	822.6	repeat	Run1	repeat/STIM_004.jpg	100
724.119	0.619	619.1	repeat	Run1	repeat/STIM_005.jpg	99
727.93	0.458	457.9	repeat	Run1	repeat/STIM_005.jpg	100
732.132	0.605	604.6	repeat	Run1	repeat/STIM_005.jpg	100
735.758	0.83	830.5	repeat	Run1	repeat/STIM_005.jpg	99
740.479	0.467	466.7	repeat	Run1	repeat/STIM_005.jpg	100
743.011	0.534	533.9	repeat	Run1	repeat/STIM_006.jpg	100
747.276	0.775	774.7	repeat	Run1	repeat/STIM_006.jpg	99
752.056	0.566	565.7	repeat	Run1	repeat/STIM_006.jpg	99
756.112	0.737	736.8	repeat	Run1	repeat/STIM_006.jpg	99
759.198	0.608	608.1	repeat	Run1	repeat/STIM_006.jpg	100
762.185	0.761	761.2	repeat	Run1	repeat/STIM_007.jpg	100
766.906	0.792	791.8	repeat	Run1	repeat/STIM_007.jpg	100
771.547	0.624	623.6	repeat	Run1	repeat/STIM_007.jpg	100
774.258	0.7	699.5	repeat	Run1	repeat/STIM_007.jpg	99
778.789	0.518	518.4	repeat	Run1	repeat/STIM_007.jpg	99
782.94	0.537	537.3	repeat	Run1	repeat/STIM_008.jpg	99
785.751	0.771	771.2	repeat	Run1	repeat/STIM_008.jpg	100
789.395	0.871	871.4	repeat	Run1	repeat/STIM_008.jpg	100
794.021	0.863	863.3	repeat	Run1	repeat/STIM_008.jpg	99
798.238	0.802	802.2	repeat	Run1	repeat/STIM_008.jpg	99
802.328	0.517	517.0	repeat	Run1	repeat/STIM_009.jpg	100
805.735	0.756	755.8	repeat	Run1	repeat/STIM_009.jpg	99
809.93	0.551	550.6	repeat	Run1	repeat/STIM_009.jpg	99
812.617	0.888	887.9	repeat	Run1	repeat/STIM_009.jpg	99
817.087	0.71	710.5	repeat	Run1	repeat/STIM_009.jpg	99
820.522	0.81	809.9	repeat	Run1	repeat/STIM_010.jpg	99
823.874	0.48	479.6	repeat	Run1	repeat/STIM_010.jpg	99
828.31	0.598	598.4	repeat	Run1	repeat/STIM_010.jpg	100
832.613	0.808	807.9	repeat	Run1	repeat/STIM_010.jpg	100
835.811	0.642	642.0	repeat	Run1	repeat/STIM_010.jpg	99
839.771	0.608	608.0	repeat	Run1	repeat/STIM_011.jpg	100
843.058	0.823	823.2	repeat	Run1	repeat/STIM_011.jpg	99
846.854	0.849	849.4	repeat	Run1	repeat/STIM_011.jpg	100
850.558	0.591	590.6	repeat	Run1	repeat/STIM_011.jpg	100
853.885	0.854	853.6	repeat	Run1	repeat/STIM_011.jpg	99
857.01	0.746	745.6	repeat	Run1	repeat/STIM_012.jpg	99
860.522	0.594	594.3	repeat	Run1	repeat/STIM_012.jpg	100
863.32	0.572	572.3	repeat	Run1	repeat/STIM_012.jpg	99
867.694	0.904	904.2	repeat	Run1	repeat/STIM_012.jpg	100
872.321	0.826	826.5	repeat	Run1	repeat/STIM_012.jpg	100
875.994	0.832	831.8	repeat	Run1	repeat/STIM_013.jpg	99
879.652	0.493	493.3	repeat	Run1	repeat/STIM_013.jpg	99
883.442	0.577	577.4	repeat	Run1	repeat/STIM_013.jpg	100
886.945	0.537	537.2	repeat	Run1	repeat/STIM_013.jpg	100
890.697	0.458	457.9	repeat	Run1	repeat/STIM_013.jpg	99
893.21	0.675	675.4	repeat	Run1	repeat/STIM_014.jpg	100
896.853	0.531	530.7	repeat	Run1	repeat/STIM_014.jpg	100
901.002	0.639	638.8	repeat	Run1	repeat/STIM_014.jpg	100
904.216	0.499	498.8	repeat	Run1	repeat/STIM_014.jpg	99
906.95	0.881	880.8	repeat	Run1	repeat/STIM_014.jpg	100
911.365	1.847	1847.3	generate	Run2	generate/STIM_000.jpg	100
915.689	2.106	2106.1	generate	Run2	generate/STIM_000.jpg	99
920.299	1.053	1053.0	generate	Run2	generate/STIM_000.jpg	99
923.695	1.153	1152.8	generate	Run2	generate/STIM_000.jpg	99
927.261	1.554	1554.4	generate	Run2	generate/STIM_000.jpg	100
932.599	1.893	1892.6	generate	Run2	generate/STIM_001.jpg	100
938.57	1.921	1921.4	generate	Run2	generate/STIM_001.jpg	99
943.774	1.868	1867.8	generate	Run2	generate/STIM_001.jpg	100
949.217	1.895	1894.8	generate	Run2	generate/STIM_001.jpg	100
955.019	1.088	1088.4	generate	Run2	generate/STIM_001.jpg	100
959.447	1.178	1177.5	generate	Run2	generate/STIM_002.jpg	100
964.36	2.071	2071.1	generate	Run2	generate/STIM_002.jpg	100
969.812	1.834	1834.2	generate	Run2	generate/STIM_002.jpg	99
973.925	0.933	933.2	generate	Run2	generate/STIM_002.jpg	100
977.239	1.016	1015.8	generate	Run2	generate/STIM_002.jpg	100
982.19	1.894	1894.5	generate	Run2	generate/STIM_003.jpg	99
987.742	1.672	1672.2	generate	Run2	generate/STIM_003.jpg	99
992.461	1.306	1305.9	generate	Run2	generate/STIM_003.jpg	100
997.871	1.599	1598.8	generate	Run2	generate/STIM_003.jpg	100
1002.977	0.952	952.4	generate	Run2	generate/STIM_003.jpg	100
1007.861	0.958	957.8	generate	Run2	generate/STIM_004.jpg	100
1011.599	1.187	1187.3	generate	Run2	generate/STIM_004.jpg	100
1015.376	0.875	874.8	generate	Run2	generate/STIM_004.jpg	99
1019.376	0.952	951.9	generate	Run2	generate/STIM_004.jpg	100
1023.807	1.207	1206.7	generate	Run2	generate/STIM_004.jpg	99
1028.643	2.267	2267.3	generate	Run2	generate/STIM_005.jpg	99
1034.296	1.926	1925.5	generate	Run2	generate/STIM_005.jpg	100
1038.851	0.922	921.8	generate	Run2	generate/STIM_005.jpg	99
1043.469	1.655	1655.2	generate	Run2	generate/STIM_005.jpg	99
1047.915	1.61	1609.9	generate	Run2	generate/STIM_005.jpg	100
1051.84	2.056	2055.6	generate	Run2	generate/STIM_006.jpg	99
1057.017	1.361	1361.2	generate	Run2	generate/STIM_006.jpg	99
1061.466	1.498	1497.5	generate	Run2	generate/STIM_006.jpg	99
1066.636	1.065	1064.7	generate	Run2	generate/STIM_006.jpg	99
1070.85	1.593	1593.4	generate	Run2	generate/STIM_006.jpg	100
1075.697	1.27	1270.2	generate	Run2	generate/STIM_007.jpg	99
1080.324	1.543	1543.2	generate	Run2	generate/STIM_007.jpg	99
1085.869	1.442	1441.9	generate	Run2	generate/STIM_007.jpg	100
1090.442	1.079	1079.4	generate	Run2	generate/STIM_007.jpg	100
1095.319	0.888	887.5	generate	Run2	generate/STIM_007.jpg	99
1099.654	2.203	2202.9	generate	Run2	generate/STIM_008.jpg	100
1105.033	1.081	1081.3	generate	Run2	generate/STIM_008.jpg	100
1110.065	1.59	1590.2	generate	Run2	generate/STIM_008.jpg	100
1114.328	1.293	1293.2	generate	Run2	generate/STIM_008.jpg	99
1118.081	1.156	1156.3	generate	Run2	generate/STIM_008.jpg	100
1121.952	1.962	1961.7	generate	Run2	generate/STIM_009.jpg	100
1127.833	1.439	1438.9	generate	Run2	generate/STIM_009.jpg	100
1133.421	1.494	1493.8	generate	Run2	generate/STIM_009.jpg	99
1138.279	0.998	998.2	generate	Run2	generate/STIM_009.jpg	99
1143.013	1.481	1480.8	generate	Run2	generate/STIM_009.jpg	99
1148.117	1.314	1313.8	generate	Run2	generate/STIM_010.jpg	100
1153.285	2.017	2017.4	generate	Run2	generate/STIM_010.jpg	99
1159.049	0.876	876.1	generate	Run2	generate/STIM_010.jpg	100
1163.524	1.601	1600.7	generate	Run2	generate/STIM_010.jpg	99
1167.965	1.681	1681.4	generate	Run2	generate/STIM_010.jpg	100
1172.941	1.23	1229.5	generate	Run2	generate/STIM_011.jpg	100
1176.455	2.105	2105.3	generate	Run2	generate/STIM_011.jpg	99
1181.099	1.05	1049.5	generate	Run2	generate/STIM_011.jpg	99
1185.202	1.626	1626.0	generate	Run2	generate/STIM_011.jpg	100
1189.814	1.854	1853.6	generate	Run2	generate/STIM_011.jpg	99
1194.839	1.135	1134.9	generate	Run2	generate/STIM_012.jpg	99
1199.172	0.877	877.1	generate	Run2	generate/STIM_012.jpg	99
1202.786	1.367	1367.2	generate	Run2	generate/STIM_012.jpg	100
1207.999	0.915	915.1	generate	Run2	generate/STIM_012.jpg	99
1212.833	1.476	1476.5	generate	Run2	generate/STIM_012.jpg	99
1218.033	2.027	2027.4	generate	Run2	generate/STIM_013.jpg	100
1223.263	1.157	1157.4	generate	Run2	generate/STIM_013.jpg	99
1228.136	1.236	1236.3	generate	Run2	generate/STIM_013.jpg	99
1231.97	1.335	1334.8	generate	Run2	generate/STIM_013.jpg	100
1236.972	1.354	1353.6	generate	Run2	generate/STIM_013.jpg	99
1242.246	2.194	2193.5	generate	Run2	generate/STIM_014.jpg	100
1248.016	1.207	1207.2	generate	Run2	generate/STIM_014.jpg	100
1252.794	1.126	1126.1	generate	Run2	generate/STIM_014.jpg	100
1256.086	1.073	1073.2	generate	Run2	generate/STIM_014.jpg	100
1260.741	0.763	763.0	generate	Run2	generate/STIM_014.jpg	100
1264.364	2.1	2099.9	generate	Run2	generate/STIM_015.jpg	99
1269.196	2.117	2117.4	generate	Run2	generate/STIM_015.jpg	99
1273.547	1.128	1127.9	generate	Run2	generate/STIM_015.jpg	100
1277.546	1.731	1731.2	generate	Run2	generate/STIM_015.jpg	99
1283.087	1.57	1569.5	generate	Run2	generate/STIM_015.jpg	100
1288.428	1.653	1652.9	generate	Run2	generate/STIM_016.jpg	99
1293.108	1.638	1638.0	generate	Run2	generate/STIM_016.jpg	99
1297.715	1.971	1970.8	generate	Run2	generate/STIM_016.jpg	99
1302.384	0.846	846.1	generate	Run2	generate/STIM_016.jpg	100
1306.316	0.935	935.1	generate	Run2	generate/STIM_016.jpg	100
1311.348	1.876	1875.8	generate	Run2	generate/STIM_017.jpg	100
1315.651	1.663	1662.6	generate	Run2	generate/STIM_017.jpg	100
1321.333	1.639	1638.8	generate	Run2	generate/STIM_017.jpg	99
1325.479	1.711	1711.0	generate	Run2	generate/STIM_017.jpg	99
1330.151	1.172	1171.7	generate	Run2	generate/STIM_017.jpg	99
1334.631	1.676	1676.4	generate	Run2	generate/STIM_018.jpg	100
1339.067	1.261	1261.0	generate	Run2	generate/STIM_018.jpg	99
1343.117	0.898	897.6	generate	Run2	generate/STIM_018.jpg	100
1346.248	1.757	1757.1	generate	Run2	generate/STIM_018.jpg	100
1351.257	1.555	1555.0	generate	Run2	generate/STIM_018.jpg	100
1355.65	0.931	931.2	generate	Run2	generate/STIM_019.jpg	100
1359.858	1.96	1960.2	generate	Run2	generate/STIM_019.jpg	100
1365.456	1.159	1159.4	generate	Run2	generate/STIM_019.jpg	100
1368.748	1.855	1855.4	generate	Run2	generate/STIM_019.jpg	99
1372.82	1.666	1666.0	generate	Run2	generate/STIM_019.jpg	100
1378.373	1.22	1219.8	generate	Run2	generate/STIM_020.jpg	99
1382.203	1.341	1340.7	generate	Run2	generate/STIM_020.jpg	99
1387.002	1.84	1840.1	generate	Run2	generate/STIM_020.jpg	99
1391.216	1.278	1278.0	generate	Run2	generate/STIM_020.jpg	99
1395.671	1.371	1371.0	generate	Run2	generate/STIM_020.jpg	100
1400.403	1.664	1664.1	generate	Run2	generate/STIM_021.jpg	100
1405.419	1.745	1744.8	generate	Run2	generate/STIM_021.jpg	99
1410.998	1.691	1691.0	generate	Run2	generate/STIM_021.jpg	99
1416.37	1.312	1312.1	generate	Run2	generate/STIM_021.jpg	99
1421.776	1.379	1379.3	generate	Run2	generate/STIM_021.jpg	100
1425.433	1.176	1176.1	generate	Run2	generate/STIM_022.jpg	100
1428.773	0.943	943.1	generate	Run2	generate/STIM_022.jpg	100
1432.722	0.86	860.2	generate	Run2	generate/STIM_022.jpg	99
1436.943	1.628	1627.6	generate	Run2	generate/STIM_022.jpg	99
1441.539	1.539	1539.4	generate	Run2	generate/STIM_022.jpg	100
1446.296	0.927	927.3	generate	Run2	generate/STIM_023.jpg	99
1449.818	1.453	1453.3	generate	Run2	generate/STIM_023.jpg	100
1453.73	1.52	1519.6	generate	Run2	generate/STIM_023.jpg	100
1457.665	1.628	1628.1	generate	Run2	generate/STIM_023.jpg	99
1463.037	1.463	1463.2	generate	Run2	generate/STIM_023.jpg	100
1468.319	1.998	1997.8	generate	Run2	generate/STIM_024.jpg	99
1474.512	1.202	1202.3	generate	Run2	generate/STIM_024.jpg	100
1477.886	2.011	2011.1	generate	Run2	generate/STIM_024.jpg	100
1482.748	1.163	1162.9	generate	Run2	generate/STIM_024.jpg	99
1487.117	1.877	1877.4	generate	Run2	generate/STIM_024.jpg	99
1492.547	0.522	521.8	repeat	Run2	repeat/STIM_000.jpg	100
1496.766	0.752	752.2	repeat	Run2	repeat/STIM_000.jpg	99
1500.235	0.836	836.4	repeat	Run2	repeat/STIM_000.jpg	99
1504.603	0.598	598.0	repeat	Run2	repeat/STIM_000.jpg	99
1507.925	0.473	473.3	repeat	Run2	repeat/STIM_000.jpg	100
1511.966	0.619	619.3	repeat	Run2	repeat/STIM_001.jpg	100
1515.058	0.796	796.5	repeat	Run2	repeat/STIM_001.jpg	99
1519.181	0.705	704.6	repeat	Run2	repeat/STIM_001.jpg	100
1523.323	0.702	701.8	repeat	Run2	repeat/STIM_001.jpg	99
1527.652	0.56	560.2	repeat	Run2	repeat/STIM_001.jpg	100
1530.946	0.77	769.9	repeat	Run2	repeat/STIM_002.jpg	99
1535.284	0.692	691.7	repeat	Run2	repeat/STIM_002.jpg	99
1538.265	0.6	599.9	repeat	Run2	repeat/STIM_002.jpg	100
1542.647	0.901	901.4	repeat	Run2	repeat/STIM_002.jpg	99
1547.228	0.55	549.6	repeat	Run2	repeat/STIM_002.jpg	99
1550.159	0.723	722.8	repeat	Run2	repeat/STIM_003.jpg	99
1554.033	0.614	614.3	repeat	Run2	repeat/STIM_003.jpg	100
1556.814	0.581	581.1	repeat	Run2	repeat/STIM_003.jpg	100
1561.422	0.872	872.1	repeat	Run2	repeat/STIM_003.jpg	100
1564.563	0.592	591.7	repeat	Run2	repeat/STIM_003.jpg	99
1568.453	0.486	486.1	repeat	Run2	repeat/STIM_004.jpg	99
1571.774	0.75	750.1	repeat	Run2	repeat/STIM_004.jpg	100
1576.233	0.804	803.6	repeat	Run2	repeat/STIM_004.jpg	99
1580.103	0.876	875.9	repeat	Run2	repeat/STIM_004.jpg	99
1584.269	0.755	754.8	repeat	Run2	repeat/STIM_004.jpg	99
1588.518	0.717	717.2	repeat	Run2	repeat/STIM_005.jpg	100
1592.701	0.461	461.3	repeat	Run2	repeat/STIM_005.jpg	100
1595.681	0.667	666.8	repeat	Run2	repeat/STIM_005.jpg	100
1598.614	0.7	700.3	repeat	Run2	repeat/STIM_005.jpg	100
1601.454	0.692	692.4	repeat	Run2	repeat/STIM_005.jpg	100
1604.522	0.868	867.9	repeat	Run2	repeat/STIM_006.jpg	100
1608.462	0.744	744.3	repeat	Run2	repeat/STIM_006.jpg	99
1611.656	0.619	619.4	repeat	Run2	repeat/STIM_006.jpg	99
1615.146	0.881	880.6	repeat	Run2	repeat/STIM_006.jpg	100
1618.501	0.876	876.3	repeat	Run2	repeat/STIM_006.jpg	99
1623.35	0.714	713.7	repeat	Run2	repeat/STIM_007.jpg	100
1626.573	0.676	676.5	repeat	Run2	repeat/STIM_007.jpg	99
1630.478	0.673	673.4	repeat	Run2	repeat/STIM_007.jpg	100
1633.586	0.732	731.5	repeat	Run2	repeat/STIM_007.jpg	100
1636.49	0.879	878.7	repeat	Run2	repeat/STIM_007.jpg	100
1641.157	0.85	849.7	repeat	Run2	repeat/STIM_008.jpg	100
1645.759	0.871	871.4	repeat	Run2	repeat/STIM_008.jpg	100
1649.444	0.563	563.2	repeat	Run2	repeat/STIM_008.jpg	100
1653.407	0.493	493.4	repeat	Run2	repeat/STIM_008.jpg	100
1657.204	0.713	712.7	repeat	Run2	repeat/STIM_008.jpg	99
1661.264	0.747	746.7	repeat	Run2	repeat/STIM_009.jpg	100
1665.78	0.772	772.5	repeat	Run2	repeat/STIM_009.jpg	100
1670.525	0.848	847.5	repeat	Run2	repeat/STIM_009.jpg	100
1673.914	0.686	685.9	repeat	Run2	repeat/STIM_009.jpg	100
1678.151	0.653	653.3	repeat	Run2	repeat/STIM_009.jpg	99
1682.616	0.812	812.5	repeat	Run2	repeat/STIM_010.jpg	99
1686.279	0.889	889.2	repeat	Run2	repeat/STIM_010.jpg	99
1690.996	0.472	472.2	repeat	Run2	repeat/STIM_010.jpg	99
1694.443	0.523	522.7	repeat	Run2	repeat/STIM_010.jpg	100
1697.754	0.754	753.6	repeat	Run2	repeat/STIM_010.jpg	99
1701.905	0.573	572.7	repeat	Run2	repeat/STIM_011.jpg	100
1704.901	0.563	563.4	repeat	Run2	repeat/STIM_011.jpg	100
1708.459	0.465	464.9	repeat	Run2	repeat/STIM_011.jpg	99
1711.567	0.778	778.2	repeat	Run2	repeat/STIM_011.jpg	100
1714.946	0.61	609.9	repeat	Run2	repeat/STIM_011.jpg	100
1718.097	0.682	682.5	repeat	Run2	repeat/STIM_012.jpg	99
1720.978	0.482	482.5	repeat	Run2	repeat/STIM_012.jpg	100
1723.868	0.626	625.8	repeat	Run2	repeat/STIM_012.jpg	100
1726.674	0.724	723.6	repeat	Run2	repeat/STIM_012.jpg	100
1730.031	0.453	453.3	repeat	Run2	repeat/STIM_012.jpg	100
1732.58	0.601	601.4	repeat	Run2	repeat/STIM_013.jpg	99
1735.652	0.825	824.9	repeat	Run2	repeat/STIM_013.jpg	100
1739.05	0.885	885.1	repeat	Run2	repeat/STIM_013.jpg	100
1742.269	0.716	715.8	repeat	Run2	repeat/STIM_013.jpg	100
1745.81	0.705	705.1	repeat	Run2	repeat/STIM_013.jpg	100
1750.548	0.605	605.1	repeat	Run2	repeat/STIM_014.jpg	99
1753.511	0.531	531.2	repeat	Run2	repeat/STIM_014.jpg	100
1756.442	0.761	760.6	repeat	Run2	repeat/STIM_014.jpg	100
1759.917	0.484	483.6	repeat	Run2	repeat/STIM_014.jpg	99
1762.935	0.625	624.7	repeat	Run2	repeat/STIM_014.jpg	100
1766.063	1.856	1856.1	generate	Run3	generate/STIM_000.jpg	99
1770.846	1.372	1372.0	generate	Run3	generate/STIM_000.jpg	100
1774.429	1.421	1420.7	generate	Run3	generate/STIM_000.jpg	100
1778.384	1.376	1376.1	generate	Run3	generate/STIM_000.jpg	100
1781.966	1.172	1171.9	generate	Run3	generate/STIM_000.jpg	100
1786.866	1.122	1121.5	generate	Run3	generate/STIM_001.jpg	100
1791.993	1.386	1385.9	generate	Run3	generate/STIM_001.jpg	99
1795.958	1.808	1808.5	generate	Run3	generate/STIM_001.jpg	99
1800.726	1.697	1696.7	generate	Run3	generate/STIM_001.jpg	100
1804.966	0.945	945.3	generate	Run3	generate/STIM_001.jpg	100
1809.932	1.466	1465.6	generate	Run3	generate/STIM_002.jpg	99
1814.864	1.821	1821.0	generate	Run3	generate/STIM_002.jpg	100
1819.026	1.654	1654.1	generate	Run3	generate/STIM_002.jpg	100
1824.673	0.997	997.0	generate	Run3	generate/STIM_002.jpg	100
1829.227	0.941	941.1	generate	Run3	generate/STIM_002.jpg	99
1834.006	1.612	1612.5	generate	Run3	generate/STIM_003.jpg	100
1838.842	1.537	1536.6	generate	Run3	generate/STIM_003.jpg	99
1843.427	0.978	978.4	generate	Run3	generate/STIM_003.jpg	99
1846.555	1.894	1893.8	generate	Run3	generate/STIM_003.jpg	100
1851.253	0.769	769.2	generate	Run3	generate/STIM_003.jpg	99
1854.409	1.655	1654.9	generate	Run3	generate/STIM_004.jpg	100
1858.81	1.194	1194.2	generate	Run3	generate/STIM_004.jpg	100
1862.967	1.168	1167.8	generate	Run3	generate/STIM_004.jpg	100
1867.322	1.306	1305.5	generate	Run3	generate/STIM_004.jpg	100
1870.969	1.009	1009.1	generate	Run3	generate/STIM_004.jpg	99
1874.352	1.645	1644.6	generate	Run3	generate/STIM_005.jpg	99
1878.993	1.699	1699.0	generate	Run3	generate/STIM_005.jpg	100
1883.881	1.402	1401.8	generate	Run3	generate/STIM_005.jpg	100
1887.747	1.221	1221.4	generate	Run3	generate/STIM_005.jpg	100
1892.452	1.327	1327.3	generate	Run3	generate/STIM_005.jpg	100
1895.981	1.774	1774.5	generate	Run3	generate/STIM_006.jpg	100
1901.675	1.857	1856.6	generate	Run3	generate/STIM_006.jpg	100
1906.564	1.242	1241.7	generate	Run3	generate/STIM_006.jpg	99
1911.88	1.167	1166.9	generate	Run3	generate/STIM_006.jpg	100
1916.86	1.298	1297.8	generate	Run3	generate/STIM_006.jpg	100
1921.509	1.889	1889.0	generate	Run3	generate/STIM_007.jpg	99
1927.301	1.672	1672.0	generate	Run3	generate/STIM_007.jpg	99
1932.507	1.299	1299.2	generate	Run3	generate/STIM_007.jpg	100
1937.717	1.097	1096.6	generate	Run3	generate/STIM_007.jpg	100
1941.364	1.656	1656.2	generate	Run3	generate/STIM_007.jpg	100
1945.283	1.257	1256.7	generate	Run3	generate/STIM_008.jpg	99
1950.46	1.041	1041.4	generate	Run3	generate/STIM_008.jpg	100
1954.662	0.773	772.8	generate	Run3	generate/STIM_008.jpg	99
1958.243	1.3	1299.7	generate	Run3	generate/STIM_008.jpg	100
1962.016	1.314	1314.5	generate	Run3	generate/STIM_008.jpg	100
1966.487	1.566	1566.2	generate	Run3	generate/STIM_009.jpg	99
1970.694	0.87	870.3	generate	Run3	generate/STIM_009.jpg	100
1974.903	1.153	1153.4	generate	Run3	generate/STIM_009.jpg	100
1979.045	0.816	815.5	generate	Run3	generate/STIM_009.jpg	99
1983.201	1.73	1729.9	generate	Run3	generate/STIM_009.jpg	100
1988.737	1.422	1422.1	generate	Run3	generate/STIM_010.jpg	100
1993.384	1.685	1684.9	generate	Run3	generate/STIM_010.jpg	100
1998.884	1.174	1173.5	generate	Run3	generate/STIM_010.jpg	100
2004.033	1.532	1531.7	generate	Run3	generate/STIM_010.jpg	100
2009.184	1.3	1300.2	generate	Run3	generate/STIM_010.jpg	100
2013.777	1.75	1749.9	generate	Run3	generate/STIM_011.jpg	99
2019.552	1.069	1069.1	generate	Run3	generate/STIM_011.jpg	100
2024.721	1.779	1779.2	generate	Run3	generate/STIM_011.jpg	100
2030.267	1.363	1363.3	generate	Run3	generate/STIM_011.jpg	99
2035.391	1.846	1845.8	generate	Run3	generate/STIM_011.jpg	100
2040.825	1.137	1136.6	generate	Run3	generate/STIM_012.jpg	100
2044.76	0.833	833.4	generate	Run3	generate/STIM_012.jpg	99
2048.263	1.662	1661.9	generate	Run3	generate/STIM_012.jpg	99
2053.173	1.668	1668.4	generate	Run3	generate/STIM_012.jpg	100
2057.325	1.297	1296.6	generate	Run3	generate/STIM_012.jpg	100
2061.167	1.533	1533.0	generate	Run3	generate/STIM_013.jpg	99
2066.125	0.82	819.6	generate	Run3	generate/STIM_013.jpg	100
2069.852	1.036	1036.3	generate	Run3	generate/STIM_013.jpg	100
2073.514	1.745	1745.0	generate	Run3	generate/STIM_013.jpg	100
2078.545	1.806	1805.5	generate	Run3	generate/STIM_013.jpg	99
2083.464	1.169	1169.2	generate	Run3	generate/STIM_014.jpg	99
2087.717	1.73	1729.9	generate	Run3	generate/STIM_014.jpg	100
2092.072	1.356	1356.5	generate	Run3	generate/STIM_014.jpg	100
2096.026	1.833	1833.1	generate	Run3	generate/STIM_014.jpg	100
2100.392	0.849	849.3	generate	Run3	generate/STIM_014.jpg	100
2104.584	1.782	1782.1	generate	Run3	generate/STIM_015.jpg	100
2110.136	1.661	1661.3	generate	Run3	generate/STIM_015.jpg	99
2114.757	0.97	969.5	generate	Run3	generate/STIM_015.jpg	99
2119.051	0.86	859.8	generate	Run3	generate/STIM_015.jpg	100
2123.536	1.766	1766.5	generate	Run3	generate/STIM_015.jpg	99
2128.668	1.484	1483.5	generate	Run3	generate/STIM_016.jpg	100
2132.975	0.98	980.3	generate	Run3	generate/STIM_016.jpg	99
2137.853	1.491	1491.2	generate	Run3	generate/STIM_016.jpg	100
2141.858	1.745	1744.7	generate	Run3	generate/STIM_016.jpg	99
2147.393	1.168	1168.0	generate	Run3	generate/STIM_016.jpg	100
2152.557	1.731	1730.9	generate	Run3	generate/STIM_017.jpg	99
2156.845	0.877	876.6	generate	Run3	generate/STIM_017.jpg	100
2161.161	1.19	1189.9	generate	Run3	generate/STIM_017.jpg	99
2166.305	1.722	1722.5	generate	Run3	generate/STIM_017.jpg	100
2171.592	1.508	1507.8	generate	Run3	generate/STIM_017.jpg	99
2176.708	0.828	827.6	generate	Run3	generate/STIM_018.jpg	99
2179.623	1.688	1688.3	generate	Run3	generate/STIM_018.jpg	99
2184.076	1.232	1232.1	generate	Run3	generate/STIM_018.jpg	100
2187.87	1.686	1686.1	generate	Run3	generate/STIM_018.jpg	100
2192.174	1.459	1458.6	generate	Run3	generate/STIM_018.jpg	100
2197.571	1.041	1041.1	generate	Run3	generate/STIM_019.jpg	99
2201.131	1.728	1727.5	generate	Run3	generate/STIM_019.jpg	100
2205.487	1.868	1868.4	generate	Run3	generate/STIM_019.jpg	99
2210.702	0.968	967.8	generate	Run3	generate/STIM_019.jpg	99
2215.217	1.864	1864.5	generate	Run3	generate/STIM_019.jpg	99
2219.559	1.161	1161.3	generate	Run3	generate/STIM_020.jpg	100
2224.601	1.583	1582.6	generate	Run3	generate/STIM_020.jpg	99
2229.522	0.963	962.7	generate	Run3	generate/STIM_020.jpg	99
2232.909	1.025	1024.8	generate	Run3	generate/STIM_020.jpg	99
2236.397	1.497	1497.0	generate	Run3	generate/STIM_020.jpg	100
2240.4	1.52	1520.3	generate	Run3	generate/STIM_021.jpg	100
2244.922	1.426	1425.9	generate	Run3	generate/STIM_021.jpg	99
2248.551	1.254	1253.8	generate	Run3	generate/STIM_021.jpg	100
2252.302	0.872	872.3	generate	Run3	generate/STIM_021.jpg	100
2256.165	1.69	1690.1	generate	Run3	generate/STIM_021.jpg	99
2261.373	1.396	1396.4	generate	Run3	generate/STIM_022.jpg	99
2265.13	1.361	1360.9	generate	Run3	generate/STIM_022.jpg	99
2270.022	1.65	1649.7	generate	Run3	generate/STIM_022.jpg	99
2275.789	1.264	1263.5	generate	Run3	generate/STIM_022.jpg	99
2280.828	0.992	991.9	generate	Run3	generate/STIM_022.jpg	100
2285.293	1.593	1592.9	generate	Run3	generate/STIM_023.jpg	99
2289.679	0.789	789.1	generate	Run3	generate/STIM_023.jpg	100
2293.988	1.651	1651.3	generate	Run3	generate/STIM_023.jpg	99
2299.261	1.833	1833.2	generate	Run3	generate/STIM_023.jpg	99
2304.564	1.839	1839.4	generate	Run3	generate/STIM_023.jpg	100
2309.416	1.137	1137.2	generate	Run3	generate/STIM_024.jpg	99
2313.438	1.27	1269.9	generate	Run3	generate/STIM_024.jpg	100
2318.788	0.765	765.2	generate	Run3	generate/STIM_024.jpg	99
2322.84	0.997	997.3	generate	Run3	generate/STIM_024.jpg	100
2327.224	1.431	1431.2	generate	Run3	generate/STIM_024.jpg	99
2331.788	0.872	871.6	repeat	Run3	repeat/STIM_000.jpg	100
2336.364	0.547	546.6	repeat	Run3	repeat/STIM_000.jpg	100
2339.822	0.476	475.8	repeat	Run3	repeat/STIM_000.jpg	99
2343.356	0.853	852.7	repeat	Run3	repeat/STIM_000.jpg	100
2347.66	0.466	465.6	repeat	Run3	repeat/STIM_000.jpg	99
2350.56	0.616	616.4	repeat	Run3	repeat/STIM_001.jpg	99
2354.992	0.462	462.1	repeat	Run3	repeat/STIM_001.jpg	100
2357.707	0.527	526.7	repeat	Run3	repeat/STIM_001.jpg	99
2362.052	0.489	489.1	repeat	Run3	repeat/STIM_001.jpg	99
2365.308	0.819	819.4	repeat	Run3	repeat/STIM_001.jpg	99
2369.617	0.462	461.8	repeat	Run3	repeat/STIM_002.jpg	100
2373.065	0.803	803.2	repeat	Run3	repeat/STIM_002.jpg	100
2376.547	0.533	533.1	repeat	Run3	repeat/STIM_002.jpg	99
2380.161	0.678	677.9	repeat	Run3	repeat/STIM_002.jpg	100
2383.534	0.487	487.0	repeat	Run3	repeat/STIM_002.jpg	99
2387.592	0.555	554.9	repeat	Run3	repeat/STIM_003.jpg	100
2390.639	0.55	549.8	repeat	Run3	repeat/STIM_003.jpg	99
2393.34	0.58	579.6	repeat	Run3	repeat/STIM_003.jpg	100
2396.22	0.589	588.6	repeat	Run3	repeat/STIM_003.jpg	100
2399.394	0.509	509.4	repeat	Run3	repeat/STIM_003.jpg	99
2403.307	0.818	818.5	repeat	Run3	repeat/STIM_004.jpg	100
2406.982	0.842	842.0	repeat	Run3	repeat/STIM_004.jpg	100
2409.99	0.554	553.9	repeat	Run3	repeat/STIM_004.jpg	100
2414.456	0.477	477.0	repeat	Run3	repeat/STIM_004.jpg	99
2417.563	0.506	505.6	repeat	Run3	repeat/STIM_004.jpg	99
2422.118	0.519	519.4	repeat	Run3	repeat/STIM_005.jpg	100
2426.104	0.811	810.6	repeat	Run3	repeat/STIM_005.jpg	100
2429.911	0.482	482.1	repeat	Run3	repeat/STIM_005.jpg	99
2434.088	0.901	900.8	repeat	Run3	repeat/STIM_005.jpg	99
2437.758	0.551	550.7	repeat	Run3	repeat/STIM_005.jpg	100
2442.181	0.54	539.9	repeat	Run3	repeat/STIM_006.jpg	99
2444.941	0.777	776.9	repeat	Run3	repeat/STIM_006.jpg	99
2448.16	0.8	800.2	repeat	Run3	repeat/STIM_006.jpg	99
2452.373	0.525	524.6	repeat	Run3	repeat/STIM_006.jpg	99
2455.351	0.883	883.1	repeat	Run3	repeat/STIM_006.jpg	99
2458.732	0.489	489.1	repeat	Run3	repeat/STIM_007.jpg	99
2462.839	0.672	672.4	repeat	Run3	repeat/STIM_007.jpg	100
2466.409	0.785	785.0	repeat	Run3	repeat/STIM_007.jpg	99
2469.503	0.72	720.4	repeat	Run3	repeat/STIM_007.jpg	99
2473.594	0.575	575.4	repeat	Run3	repeat/STIM_007.jpg	99
2476.492	0.739	738.7	repeat	Run3	repeat/STIM_008.jpg	99
2480.907	0.519	519.2	repeat	Run3	repeat/STIM_008.jpg	99
2484.396	0.785	784.6	repeat	Run3	repeat/STIM_008.jpg	99
2489.153	0.561	561.4	repeat	Run3	repeat/STIM_008.jpg	99
2493.761	0.764	763.5	repeat	Run3	repeat/STIM_008.jpg	99
2496.917	0.64	640.4	repeat	Run3	repeat/STIM_009.jpg	99
2500.954	0.65	649.5	repeat	Run3	repeat/STIM_009.jpg	99
2504.79	0.618	617.7	repeat	Run3	repeat/STIM_009.jpg	99
2509.061	0.794	794.1	repeat	Run3	repeat/STIM_009.jpg	100
2513.203	0.662	662.0	repeat	Run3	repeat/STIM_009.jpg	99
2515.938	0.784	784.5	repeat	Run3	repeat/STIM_010.jpg	99
2519.682	0.79	790.3	repeat	Run3	repeat/STIM_010.jpg	99
2523.875	0.76	759.9	repeat	Run3	repeat/STIM_010.jpg	99
2527.85	0.783	782.9	repeat	Run3	repeat/STIM_010.jpg	99
2531.589	0.85	849.7	repeat	Run3	repeat/STIM_010.jpg	99
2535.867	0.461	461.2	repeat	Run3	repeat/STIM_011.jpg	100
2539.501	0.854	853.9	repeat	Run3	repeat/STIM_011.jpg	100
2544.142	0.828	827.9	repeat	Run3	repeat/STIM_011.jpg	99
2548.608	0.833	833.4	repeat	Run3	repeat/STIM_011.jpg	100
2552.64	0.473	473.0	repeat	Run3	repeat/STIM_011.jpg	100
2556.481	0.591	591.1	repeat	Run3	repeat/STIM_012.jpg	99
2560.139	0.559	558.7	repeat	Run3	repeat/STIM_012.jpg	100
2564.606	0.627	627.0	repeat	Run3	repeat/STIM_012.jpg	100
2568.766	0.611	610.7	repeat	Run3	repeat/STIM_012.jpg	100
2571.715	0.807	807.3	repeat	Run3	repeat/STIM_012.jpg	99
2575.073	0.653	653.3	repeat	Run3	repeat/STIM_013.jpg	99
2579.53	0.556	556.5	repeat	Run3	repeat/STIM_013.jpg	100
2582.339	0.7	700.0	repeat	Run3	repeat/STIM_013.jpg	100
2585.744	0.638	638.5	repeat	Run3	repeat/STIM_013.jpg	100
2590.172	0.835	835.2	repeat	Run3	repeat/STIM_013.jpg	100
2595.028	0.802	802.1	repeat	Run3	repeat/STIM_014.jpg	100
2598.309	0.631	630.7	repeat	Run3	repeat/STIM_014.jpg	99
2601.275	0.79	790.1	repeat	Run3	repeat/STIM_014.jpg	99
2604.827	0.512	512.2	repeat	Run3	repeat/STIM_014.jpg	99
2608.614	0.518	518.2	repeat	Run3	repeat/STIM_014.jpg	100
2613.108	1.115	1115.2	generate	Run4	generate/STIM_000.jpg	100
2617.96	1.254	1253.8	generate	Run4	generate/STIM_000.jpg	99
2621.855	1.804	1803.6	generate	Run4	generate/STIM_000.jpg	99
2627.41	1.082	1082.5	generate	Run4	generate/STIM_000.jpg	100
2632.378	0.887	887.1	generate	Run4	generate/STIM_000.jpg	99
2636.371	1.377	1377.3	generate	Run4	generate/STIM_001.jpg	99
2640.187	1.735	1734.7	generate	Run4	generate/STIM_001.jpg	100
2645.869	1.294	1293.5	generate	Run4	generate/STIM_001.jpg	100
2650.706	1.307	1307.1	generate	Run4	generate/STIM_001.jpg	99
2654.471	0.971	971.3	generate	Run4	generate/STIM_001.jpg	100
2658.46	0.846	846.1	generate	Run4	generate/STIM_002.jpg	100
2662.623	1.051	1050.7	generate	Run4	generate/STIM_002.jpg	100
2666.576	1.382	1381.6	generate	Run4	generate/STIM_002.jpg	99
2670.871	1.07	1070.4	generate	Run4	generate/STIM_002.jpg	99
2674.832	1.521	1520.8	generate	Run4	generate/STIM_002.jpg	99
2680.422	1.594	1594.4	generate	Run4	generate/STIM_003.jpg	99
2684.563	1.499	1499.2	generate	Run4	generate/STIM_003.jpg	99
2689.814	1.452	1451.9	generate	Run4	generate/STIM_003.jpg	100
2693.741	1.466	1466.1	generate	Run4	generate/STIM_003.jpg	99
2697.536	1.334	1334.2	generate	Run4	generate/STIM_003.jpg	100
2701.478	1.502	1502.3	generate	Run4	generate/STIM_004.jpg	99
2706.299	1.498	1498.1	generate	Run4	generate/STIM_004.jpg	99
2711.892	1.094	1094.2	generate	Run4	generate/STIM_004.jpg	100
2715.567	1.514	1514.1	generate	Run4	generate/STIM_004.jpg	99
2720.171	1.579	1578.7	generate	Run4	generate/STIM_004.jpg	99
2725.009	1.11	1110.5	generate	Run4	generate/STIM_005.jpg	99
2729.805	1.836	1836.3	generate	Run4	generate/STIM_005.jpg	99
2734.757	1.435	1435.0	generate	Run4	generate/STIM_005.jpg	100
2740.207	0.922	922.0	generate	Run4	generate/STIM_005.jpg	99
2745.024	1.415	1415.4	generate	Run4	generate/STIM_005.jpg	100
2749.52	1.541	1540.9	generate	Run4	generate/STIM_006.jpg	99
2753.637	1.14	1140.5	generate	Run4	generate/STIM_006.jpg	99
2757.691	1.196	1196.3	generate	Run4	generate/STIM_006.jpg	99
2761.691	1.24	1240.4	generate	Run4	generate/STIM_006.jpg	100
2765.6	1.266	1266.0	generate	Run4	generate/STIM_006.jpg	99
2769.791	1.435	1435.1	generate	Run4	generate/STIM_007.jpg	100
2773.847	1.166	1166.4	generate	Run4	generate/STIM_007.jpg	100
2778.991	0.839	839.0	generate	Run4	generate/STIM_007.jpg	100
2783.715	0.822	821.9	generate	Run4	generate/STIM_007.jpg	100
2788.195	1.143	1143.3	generate	Run4	generate/STIM_007.jpg	100
2792.414	1.652	1652.5	generate	Run4	generate/STIM_008.jpg	100
2797.285	1.458	1457.5	generate	Run4	generate/STIM_008.jpg	100
2802.83	0.964	963.7	generate	Run4	generate/STIM_008.jpg	100
2807.411	1.395	1395.4	generate	Run4	generate/STIM_008.jpg	100
2811.217	0.912	911.5	generate	Run4	generate/STIM_008.jpg	99
2814.841	1.872	1872.3	generate	Run4	generate/STIM_009.jpg	100
2819.931	1.088	1087.9	generate	Run4	generate/STIM_009.jpg	100
2823.711	1.099	1099.2	generate	Run4	generate/STIM_009.jpg	99
2827.438	1.143	1143.4	generate	Run4	generate/STIM_009.jpg	100
2831.624	0.773	773.3	generate	Run4	generate/STIM_009.jpg	100
2835.223	1.589	1589.1	generate	Run4	generate/STIM_010.jpg	100
2840.721	0.927	927.2	generate	Run4	generate/STIM_010.jpg	100
2843.85	1.306	1305.6	generate	Run4	generate/STIM_010.jpg	99
2848.031	0.958	957.9	generate	Run4	generate/STIM_010.jpg	100
2851.319	1.626	1625.8	generate	Run4	generate/STIM_010.jpg	99
2856.824	1.313	1312.8	generate	Run4	generate/STIM_011.jpg	99
2860.991	1.486	1485.9	generate	Run4	generate/STIM_011.jpg	100
2866.361	1.358	1357.7	generate	Run4	generate/STIM_011.jpg	99
2870.878	1.052	1052.4	generate	Run4	generate/STIM_011.jpg	100
2874.761	1.201	1201.1	generate	Run4	generate/STIM_011.jpg	99
2879.018	0.874	873.8	generate	Run4	generate/STIM_012.jpg	100
2882.371	1.101	1100.9	generate	Run4	generate/STIM_012.jpg	100
2886.748	1.095	1095.3	generate	Run4	generate/STIM_012.jpg	99
2891.69	1.407	1406.8	generate	Run4	generate/STIM_012.jpg	99
2895.782	1.645	1645.3	generate	Run4	generate/STIM_012.jpg	100
2901.521	1.116	1116.2	generate	Run4	generate/STIM_013.jpg	99
2906.002	1.403	1403.4	generate	Run4	generate/STIM_013.jpg	100
2910.688	1.776	1775.7	generate	Run4	generate/STIM_013.jpg	100
2916.221	1.096	1096.2	generate	Run4	generate/STIM_013.jpg	100
2921.195	0.8	800.2	generate	Run4	generate/STIM_013.jpg	99
2925.483	0.906	905.6	generate	Run4	generate/STIM_014.jpg	99
2928.955	1.015	1015.4	generate	Run4	generate/STIM_014.jpg	99
2933.885	1.54	1540.3	generate	Run4	generate/STIM_014.jpg	99
2938.962	1.854	1853.5	generate	Run4	generate/STIM_014.jpg	100
2944.797	0.995	994.9	generate	Run4	generate/STIM_014.jpg	100
2949.421	0.884	883.6	generate	Run4	generate/STIM_015.jpg	99
2953.743	1.176	1175.5	generate	Run4	generate/STIM_015.jpg	99
2957.128	1.724	1724.4	generate	Run4	generate/STIM_015.jpg	99
2961.845	1.684	1683.5	generate	Run4	generate/STIM_015.jpg	99
2966.0	1.093	1092.8	generate	Run4	generate/STIM_015.jpg	100
2970.196	1.085	1085.2	generate	Run4	generate/STIM_016.jpg	100
2973.479	1.267	1266.9	generate	Run4	generate/STIM_016.jpg	99
2978.078	1.33	1329.8	generate	Run4	generate/STIM_016.jpg	100
2983.096	1.614	1614.5	generate	Run4	generate/STIM_016.jpg	99
2988.683	1.673	1673.0	generate	Run4	generate/STIM_016.jpg	100
2993.206	1.452	1452.4	generate	Run4	generate/STIM_017.jpg	100
2997.277	1.497	1496.8	generate	Run4	generate/STIM_017.jpg	100
3002.715	1.095	1094.9	generate	Run4	generate/STIM_017.jpg	99
3007.51	1.232	1232.1	generate	Run4	generate/STIM_017.jpg	100
3011.007	0.92	919.6	generate	Run4	generate/STIM_017.jpg	100
3015.269	1.188	1188.4	generate	Run4	generate/STIM_018.jpg	100
3019.679	1.534	1534.4	generate	Run4	generate/STIM_018.jpg	99
3024.76	1.027	1027.2	generate	Run4	generate/STIM_018.jpg	99
3029.433	1.662	1661.8	generate	Run4	generate/STIM_018.jpg	99
3034.612	0.784	784.2	generate	Run4	generate/STIM_018.jpg	99
3038.233	1.09	1089.8	generate	Run4	generate/STIM_019.jpg	100
3042.34	1.157	1157.2	generate	Run4	generate/STIM_019.jpg	100
3046.391	1.553	1552.8	generate	Run4	generate/STIM_019.jpg	100
3050.491	1.073	1073.2	generate	Run4	generate/STIM_019.jpg	99
3054.37	0.954	954.1	generate	Run4	generate/STIM_019.jpg	99
3059.033	0.814	813.9	generate	Run4	generate/STIM_020.jpg	100
3062.405	0.761	760.7	generate	Run4	generate/STIM_020.jpg	99
3066.768	0.814	813.6	generate	Run4	generate/STIM_020.jpg	100
3070.603	1.588	1587.5	generate	Run4	generate/STIM_020.jpg	99
3074.928	1.283	1282.6	generate	Run4	generate/STIM_020.jpg	99
3078.453	1.745	1745.2	generate	Run4	generate/STIM_021.jpg	99
3083.476	0.971	970.8	generate	Run4	generate/STIM_021.jpg	100
3087.316	0.888	888.5	generate	Run4	generate/STIM_021.jpg	99
3090.882	0.802	801.9	generate	Run4	generate/STIM_021.jpg	100
3095.678	1.551	1550.9	generate	Run4	generate/STIM_021.jpg	100
3099.746	1.712	1712.5	generate	Run4	generate/STIM_022.jpg	99
3104.601	1.153	1152.8	generate	Run4	generate/STIM_022.jpg	99
3108.419	0.831	830.8	generate	Run4	generate/STIM_022.jpg	100
3112.041	1.505	1504.6	generate	Run4	generate/STIM_022.jpg	100
3117.06	1.071	1071.1	generate	Run4	generate/STIM_022.jpg	100
3121.496	0.981	981.3	generate	Run4	generate/STIM_023.jpg	100
3126.254	1.418	1418.5	generate	Run4	generate/STIM_023.jpg	100
3131.583	0.908	907.5	generate	Run4	generate/STIM_023.jpg	99
3136.101	1.897	1897.4	generate	Run4	generate/STIM_023.jpg	100
3141.408	1.139	1138.6	generate	Run4	generate/STIM_023.jpg	100
3145.501	1.184	1184.0	generate	Run4	generate/STIM_024.jpg	99
3148.98	1.583	1583.2	generate	Run4	generate/STIM_024.jpg	100
3153.642	1.726	1725.8	generate	Run4	generate/STIM_024.jpg	99
3158.4	1.445	1444.7	generate	Run4	generate/STIM_024.jpg	100
3162.081	1.773	1772.7	generate	Run4	generate/STIM_024.jpg	99
3167.429	0.782	782.4	repeat	Run4	repeat/STIM_000.jpg	99
3170.563	0.557	556.6	repeat	Run4	repeat/STIM_000.jpg	100
3173.338	0.489	488.7	repeat	Run4	repeat/STIM_000.jpg	99
3176.106	0.783	783.4	repeat	Run4	repeat/STIM_000.jpg	99
3179.456	0.59	589.6	repeat	Run4	repeat/STIM_000.jpg	99
3183.729	0.753	752.7	repeat	Run4	repeat/STIM_001.jpg	100
3187.089	0.458	457.7	repeat	Run4	repeat/STIM_001.jpg	100
3189.914	0.768	768.3	repeat	Run4	repeat/STIM_001.jpg	99
3193.543	0.551	551.0	repeat	Run4	repeat/STIM_001.jpg	100
3197.202	0.618	618.1	repeat	Run4	repeat/STIM_001.jpg	99
3200.859	0.697	697.4	repeat	Run4	repeat/STIM_002.jpg	99
3205.406	0.619	618.8	repeat	Run4	repeat/STIM_002.jpg	99
3208.782	0.544	544.4	repeat	Run4	repeat/STIM_002.jpg	100
3211.858	0.511	510.9	repeat	Run4	repeat/STIM_002.jpg	100
3215.818	0.514	514.3	repeat	Run4	repeat/STIM_002.jpg	100
3219.604	0.679	679.4	repeat	Run4	repeat/STIM_003.jpg	100
3223.16	0.665	665.0	repeat	Run4	repeat/STIM_003.jpg	99
3227.368	0.501	501.2	repeat	Run4	repeat/STIM_003.jpg	99
3231.612	0.793	792.7	repeat	Run4	repeat/STIM_003.jpg	100
3235.347	0.679	678.9	repeat	Run4	repeat/STIM_003.jpg	99
3240.084	0.73	729.8	repeat	Run4	repeat/STIM_004.jpg	100
3243.045	0.482	482.0	repeat	Run4	repeat/STIM_004.jpg	100
3247.234	0.832	831.9	repeat	Run4	repeat/STIM_004.jpg	99
3250.925	0.711	711.2	repeat	Run4	repeat/STIM_004.jpg	100
3255.615	0.589	589.4	repeat	Run4	repeat/STIM_004.jpg	100
3258.69	0.691	691.3	repeat	Run4	repeat/STIM_005.jpg	100
3262.668	0.54	539.6	repeat	Run4	repeat/STIM_005.jpg	100
3265.296	0.776	775.7	repeat	Run4	repeat/STIM_005.jpg	99
3268.657	0.5	500.4	repeat	Run4	repeat/STIM_005.jpg	100
3272.014	0.698	697.8	repeat	Run4	repeat/STIM_005.jpg	100
3274.991	0.677	677.1	repeat	Run4	repeat/STIM_006.jpg	100
3278.993	0.549	548.6	repeat	Run4	repeat/STIM_006.jpg	100
3282.235	0.837	836.7	repeat	Run4	repeat/STIM_006.jpg	99
3287.119	0.529	528.8	repeat	Run4	repeat/STIM_006.jpg	99
3289.829	0.883	883.4	repeat	Run4	repeat/STIM_006.jpg	99
3294.751	0.804	804.0	repeat	Run4	repeat/STIM_007.jpg	100
3299.185	0.864	863.8	repeat	Run4	repeat/STIM_007.jpg	100
3303.758	0.646	646.1	repeat	Run4	repeat/STIM_007.jpg	100
3308.003	0.632	632.0	repeat	Run4	repeat/STIM_007.jpg	100
3311.52	0.689	688.8	repeat	Run4	repeat/STIM_007.jpg	100
3316.043	0.86	859.8	repeat	Run4	repeat/STIM_008.jpg	100
3319.514	0.68	679.8	repeat	Run4	repeat/STIM_008.jpg	100
3324.05	0.724	723.8	repeat	Run4	repeat/STIM_008.jpg	100
3326.99	0.644	644.2	repeat	Run4	repeat/STIM_008.jpg	100
3330.705	0.726	726.1	repeat	Run4	repeat/STIM_008.jpg	99
3334.419	0.649	648.6	repeat	Run4	repeat/STIM_009.jpg	99
3337.906	0.767	766.7	repeat	Run4	repeat/STIM_009.jpg	100
3341.22	0.708	707.8	repeat	Run4	repeat/STIM_009.jpg	99
3344.4	0.74	739.8	repeat	Run4	repeat/STIM_009.jpg	99
3349.16	0.69	690.2	repeat	Run4	repeat/STIM_009.jpg	100
3352.557	0.466	466.0	repeat	Run4	repeat/STIM_010.jpg	100
3356.072	0.546	546.1	repeat	Run4	repeat/STIM_010.jpg	99
3360.319	0.56	559.6	repeat	Run4	repeat/STIM_010.jpg	100
3364.048	0.845	845.4	repeat	Run4	repeat/STIM_010.jpg	100
3367.426	0.695	694.9	repeat	Run4	repeat/STIM_010.jpg	100
3371.217	0.83	829.9	repeat	Run4	repeat/STIM_011.jpg	100
3374.314	0.867	866.6	repeat	Run4	repeat/STIM_011.jpg	99
3378.094	0.517	517.0	repeat	Run4	repeat/STIM_011.jpg	99
3381.181	0.551	551.2	repeat	Run4	repeat/STIM_011.jpg	99
3384.038	0.608	607.7	repeat	Run4	repeat/STIM_011.jpg	100
3388.063	0.818	817.6	repeat	Run4	repeat/STIM_012.jpg	100
3392.631	0.52	520.5	repeat	Run4	repeat/STIM_012.jpg	100
3397.087	0.659	659.1	repeat	Run4	repeat/STIM_012.jpg	99
3400.973	0.882	882.5	repeat	Run4	repeat/STIM_012.jpg	100
3405.413	0.676	675.5	repeat	Run4	repeat/STIM_012.jpg	100
3410.088	0.895	895.4	repeat	Run4	repeat/STIM_013.jpg	99
3414.349	0.857	857.1	repeat	Run4	repeat/STIM_013.jpg	100
3418.265	0.718	718.3	repeat	Run4	repeat/STIM_013.jpg	99
3421.317	0.787	787.2	repeat	Run4	repeat/STIM_013.jpg	99
3424.479	0.459	459.3	repeat	Run4	repeat/STIM_013.jpg	99
3427.285	0.532	531.8	repeat	Run4	repeat/STIM_014.jpg	99
3430.201	0.854	854.0	repeat	Run4	repeat/STIM_014.jpg	100
3434.749	0.858	857.6	repeat	Run4	repeat/STIM_014.jpg	99
3439.422	0.759	758.6	repeat	Run4	repeat/STIM_014.jpg	100
3443.665	0.776	776.2	repeat	Run4	repeat/STIM_014.jpg	100
