onset	duration	accuracy_binary	trial_type	learning_stage	stimulus
0.0	1.514	1	generate	Run1	generate/STIM_000.jpg
4.342	1.778	1	generate	Run1	generate/STIM_000.jpg
9.856	1.663	0	generate	Run1	generate/STIM_000.jpg
13.689	1.71	1	generate	Run1	generate/STIM_000.jpg
18.266	0.809	1	generate	Run1	generate/STIM_000.jpg
22.883	1.62	1	generate	Run1	generate/STIM_001.jpg
28.035	1.39	1	generate	Run1	generate/STIM_001.jpg
32.028	1.044	1	generate	Run1	generate/STIM_001.jpg
35.625	0.83	1	generate	Run1	generate/STIM_001.jpg
39.613	1.781	1	generate	Run1	generate/STIM_001.jpg
43.944	2.053	0	generate	Run1	generate/STIM_002.jpg
49.22	2.212	1	generate	Run1	generate/STIM_002.jpg
55.019	1.174	1	generate	Run1	generate/STIM_002.jpg
59.553	1.684	1	generate	Run1	generate/STIM_002.jpg
63.608	1.603	1	generate	Run1	generate/STIM_002.jpg
68.281	2.315	1	generate	Run1	generate/STIM_003.jpg
74.59	1.558	1	generate	Run1	generate/STIM_003.jpg
78.864	1.272	1	generate	Run1	generate/STIM_003.jpg
83.029	1.029	0	generate	Run1	generate/STIM_003.jpg
87.018	1.468	1	generate	Run1	generate/STIM_003.jpg
90.914	2.169	1	generate	Run1	generate/STIM_004.jpg
95.826	1.939	1	generate	Run1	generate/STIM_004.jpg
100.21	1.993	1	generate	Run1	generate/STIM_004.jpg
106.15	1.814	1	generate	Run1	generate/STIM_004.jpg
110.439	0.912	1	generate	Run1	generate/STIM_004.jpg
113.773	2.248	1	generate	Run1	generate/STIM_005.jpg
119.365	1.456	1	generate	Run1	generate/STIM_005.jpg
122.879	0.906	1	generate	Run1	generate/STIM_005.jpg
126.109	0.87	1	generate	Run1	generate/STIM_005.jpg
129.62	1.108	1	generate	Run1	generate/STIM_005.jpg
132.975	1.5	1	generate	Run1	generate/STIM_006.jpg
137.197	1.6	1	generate	Run1	generate/STIM_006.jpg
141.251	0.986	0	generate	Run1	generate/STIM_006.jpg
144.307	1.289	1	generate	Run1	generate/STIM_006.jpg
148.205	1.456	1	generate	Run1	generate/STIM_006.jpg
152.896	1.924	1	generate	Run1	generate/STIM_007.jpg
158.761	1.902	1	generate	Run1	generate/STIM_007.jpg
163.181	0.924	1	generate	Run1	generate/STIM_007.jpg
167.114	1.466	1	generate	Run1	generate/STIM_007.jpg
172.36	1.152	0	generate	Run1	generate/STIM_007.jpg
175.736	1.348	1	generate	Run1	generate/STIM_008.jpg
179.302	2.03	1	generate	Run1	generate/STIM_008.jpg
184.271	1.814	0	generate	Run1	generate/STIM_008.jpg
188.64	1.843	1	generate	Run1	generate/STIM_008.jpg
193.895	1.059	1	generate	Run1	generate/STIM_008.jpg
198.413	1.792	0	generate	Run1	generate/STIM_009.jpg
202.858	1.717	1	generate	Run1	generate/STIM_009.jpg
207.3	1.933	1	generate	Run1	generate/STIM_009.jpg
211.852	1.983	1	generate	Run1	generate/STIM_009.jpg
216.397	1.11	1	generate	Run1	generate/STIM_009.jpg
220.786	1.23	1	generate	Run1	generate/STIM_010.jpg
226.01	2.209	1	generate	Run1	generate/STIM_010.jpg
231.085	1.251	1	generate	Run1	generate/STIM_010.jpg
235.816	1.432	1	generate	Run1	generate/STIM_010.jpg
240.999	1.416	1	generate	Run1	generate/STIM_010.jpg
246.322	2.297	1	generate	Run1	generate/STIM_011.jpg
251.721	1.338	1	generate	Run1	generate/STIM_011.jpg
256.2	0.854	1	generate	Run1	generate/STIM_011.jpg
260.874	1.662	1	generate	Run1	generate/STIM_011.jpg
265.685	1.471	1	generate	Run1	generate/STIM_011.jpg
270.973	1.174	1	generate	Run1	generate/STIM_012.jpg
274.156	1.355	1	generate	Run1	generate/STIM_012.jpg
278.771	1.53	1	generate	Run1	generate/STIM_012.jpg
282.992	1.041	1	generate	Run1	generate/STIM_012.jpg
287.824	1.436	1	generate	Run1	generate/STIM_012.jpg
292.797	2.346	1	generate	Run1	generate/STIM_013.jpg
298.026	0.976	1	generate	Run1	generate/STIM_013.jpg
301.335	1.347	1	generate	Run1	generate/STIM_013.jpg
306.583	1.863	1	generate	Run1	generate/STIM_013.jpg
311.397	1.574	1	generate	Run1	generate/STIM_013.jpg
316.473	2.088	1	generate	Run1	generate/STIM_014.jpg
320.646	1.977	1	generate	Run1	generate/STIM_014.jpg
325.607	1.746	1	generate	Run1	generate/STIM_014.jpg
331.319	1.547	1	generate	Run1	generate/STIM_014.jpg
336.583	1.263	1	generate	Run1	generate/STIM_014.jpg
341.342	0.946	1	generate	Run1	generate/STIM_015.jpg
344.488	1.614	1	generate	Run1	generate/STIM_015.jpg
349.064	1.808	1	generate	Run1	generate/STIM_015.jpg
353.152	1.818	1	generate	Run1	generate/STIM_015.jpg
358.343	1.228	0	generate	Run1	generate/STIM_015.jpg
362.527	1.193	1	generate	Run1	generate/STIM_016.jpg
366.444	1.926	1	generate	Run1	generate/STIM_016.jpg
370.567	1.505	1	generate	Run1	generate/STIM_016.jpg
374.085	1.071	1	generate	Run1	generate/STIM_016.jpg
378.127	1.42	1	generate	Run1	generate/STIM_016.jpg
383.347	1.889	1	generate	Run1	generate/STIM_017.jpg
387.791	1.24	0	generate	Run1	generate/STIM_017.jpg
391.842	1.63	1	generate	Run1	generate/STIM_017.jpg
397.118	1.974	1	generate	Run1	generate/STIM_017.jpg
401.806	1.298	1	generate	Run1	generate/STIM_017.jpg
406.452	1.859	1	generate	Run1	generate/STIM_018.jpg
410.917	1.746	1	generate	Run1	generate/STIM_018.jpg
415.528	1.798	1	generate	Run1	generate/STIM_018.jpg
420.783	1.273	1	generate	Run1	generate/STIM_018.jpg
425.327	0.93	1	generate	Run1	generate/STIM_018.jpg
430.14	1.039	1	generate	Run1	generate/STIM_019.jpg
434.597	2.203	1	generate	Run1	generate/STIM_019.jpg
439.35	1.331	1	generate	Run1	generate/STIM_019.jpg
443.229	0.83	1	generate	Run1	generate/STIM_019.jpg
447.133	0.902	1	generate	Run1	generate/STIM_019.jpg
450.712	1.561	1	generate	Run1	generate/STIM_020.jpg
455.509	1.813	0	generate	Run1	generate/STIM_020.jpg
460.776	1.195	1	generate	Run1	generate/STIM_020.jpg
465.714	1.132	1	generate	Run1	generate/STIM_020.jpg
470.234	0.768	1	generate	Run1	generate/STIM_020.jpg
473.846	1.1	1	generate	Run1	generate/STIM_021.jpg
478.296	1.36	1	generate	Run1	generate/STIM_021.jpg
483.344	1.111	1	generate	Run1	generate/STIM_021.jpg
488.431	0.978	1	generate	Run1	generate/STIM_021.jpg
493.158	1.275	1	generate	Run1	generate/STIM_021.jpg
496.454	1.815	1	generate	Run1	generate/STIM_022.jpg
501.15	1.016	1	generate	Run1	generate/STIM_022.jpg
506.034	1.025	1	generate	Run1	generate/STIM_022.jpg
510.005	1.126	1	generate	Run1	generate/STIM_022.jpg
513.505	1.625	1	generate	Run1	generate/STIM_022.jpg
518.749	1.633	1	generate	Run1	generate/STIM_023.jpg
524.009	1.563	1	generate	Run1	generate/STIM_023.jpg
528.958	2.079	1	generate	Run1	generate/STIM_023.jpg
534.144	1.872	1	generate	Run1	generate/STIM_023.jpg
539.847	1.725	1	generate	Run1	generate/STIM_023.jpg
544.833	2.205	0	generate	Run1	generate/STIM_024.jpg
550.837	1.627	1	generate	Run1	generate/STIM_024.jpg
555.834	1.466	1	generate	Run1	generate/STIM_024.jpg
559.355	1.412	1	generate	Run1	generate/STIM_024.jpg
563.237	1.532	1	generate	Run1	generate/STIM_024.jpg
568.166	0.606	1	repeat	Run1	repeat/STIM_000.jpg
571.276	0.696	1	repeat	Run1	repeat/STIM_000.jpg
574.83	0.698	1	repeat	Run1	repeat/STIM_000.jpg
578.453	0.714	1	repeat	Run1	repeat/STIM_000.jpg
581.6	0.647	1	repeat	Run1	repeat/STIM_000.jpg
585.447	0.441	1	repeat	Run1	repeat/STIM_001.jpg
588.14	0.511	1	repeat	Run1	repeat/STIM_001.jpg
591.415	0.555	1	repeat	Run1	repeat/STIM_001.jpg
595.245	0.51	1	repeat	Run1	repeat/STIM_001.jpg
598.303	0.652	1	repeat	Run1	repeat/STIM_001.jpg
602.658	0.652	1	repeat	Run1	repeat/STIM_002.jpg
606.907	0.437	1	repeat	Run1	repeat/STIM_002.jpg
609.994	0.625	1	repeat	Run1	repeat/STIM_002.jpg
614.171	0.54	1	repeat	Run1	repeat/STIM_002.jpg
618.436	0.577	1	repeat	Run1	repeat/STIM_002.jpg
621.42	0.576	1	repeat	Run1	repeat/STIM_003.jpg
625.847	0.439	1	repeat	Run1	repeat/STIM_003.jpg
628.856	0.65	1	repeat	Run1	repeat/STIM_003.jpg
633.117	0.57	1	repeat	Run1	repeat/STIM_003.jpg
637.238	0.637	1	repeat	Run1	repeat/STIM_003.jpg
641.678	0.627	1	repeat	Run1	repeat/STIM_004.jpg
644.724	0.509	1	repeat	Run1	repeat/STIM_004.jpg
648.013	0.515	1	repeat	Run1	repeat/STIM_004.jpg
651.651	0.433	1	repeat	Run1	repeat/STIM_004.jpg
654.545	0.469	1	repeat	Run1	repeat/STIM_004.jpg
657.276	0.571	1	repeat	Run1	repeat/STIM_005.jpg
661.238	0.549	1	repeat	Run1	repeat/STIM_005.jpg
664.608	0.625	1	repeat	Run1	repeat/STIM_005.jpg
667.802	0.422	1	repeat	Run1	repeat/STIM_005.jpg
670.353	0.456	1	repeat	Run1	repeat/STIM_005.jpg
673.221	0.684	1	repeat	Run1	repeat/STIM_006.jpg
677.155	0.499	1	repeat	Run1	repeat/STIM_006.jpg
681.607	0.483	1	repeat	Run1	repeat/STIM_006.jpg
684.312	0.397	1	repeat	Run1	repeat/STIM_006.jpg
686.934	0.563	1	repeat	Run1	repeat/STIM_006.jpg
691.303	0.515	1	repeat	Run1	repeat/STIM_007.jpg
694.827	0.498	1	repeat	Run1	repeat/STIM_007.jpg
697.511	0.575	1	repeat	Run1	repeat/STIM_007.jpg
700.31	0.406	1	repeat	Run1	repeat/STIM_007.jpg
703.152	0.541	1	repeat	Run1	repeat/STIM_007.jpg
706.59	0.548	1	repeat	Run1	repeat/STIM_008.jpg
709.244	0.578	1	repeat	Run1	repeat/STIM_008.jpg
712.861	0.629	1	repeat	Run1	repeat/STIM_008.jpg
716.295	0.441	1	repeat	Run1	repeat/STIM_008.jpg
718.741	0.522	1	repeat	Run1	repeat/STIM_008.jpg
722.92	0.687	1	repeat	Run1	repeat/STIM_009.jpg
726.344	0.664	1	repeat	Run1	repeat/STIM_009.jpg
729.965	0.727	1	repeat	Run1	repeat/STIM_009.jpg
733.895	0.534	1	repeat	Run1	repeat/STIM_009.jpg
737.397	0.646	1	repeat	Run1	repeat/STIM_009.jpg
740.971	0.564	1	repeat	Run1	repeat/STIM_010.jpg
743.956	0.555	1	repeat	Run1	repeat/STIM_010.jpg
747.386	0.695	1	repeat	Run1	repeat/STIM_010.jpg
751.249	0.438	1	repeat	Run1	repeat/STIM_010.jpg
754.149	0.745	1	repeat	Run1	repeat/STIM_010.jpg
758.006	0.737	1	repeat	Run1	repeat/STIM_011.jpg
761.865	0.592	0	repeat	Run1	repeat/STIM_011.jpg
764.476	0.755	1	repeat	Run1	repeat/STIM_011.jpg
767.99	0.736	1	repeat	Run1	repeat/STIM_011.jpg
771.676	0.51	1	repeat	Run1	repeat/STIM_011.jpg
775.979	0.626	1	repeat	Run1	repeat/STIM_012.jpg
780.45	0.536	1	repeat	Run1	repeat/STIM_012.jpg
784.393	0.708	1	repeat	Run1	repeat/STIM_012.jpg
787.619	0.464	1	repeat	Run1	repeat/STIM_012.jpg
791.609	0.419	1	repeat	Run1	repeat/STIM_012.jpg
794.798	0.704	1	repeat	Run1	repeat/STIM_013.jpg
797.901	0.764	1	repeat	Run1	repeat/STIM_013.jpg
800.752	0.611	1	repeat	Run1	repeat/STIM_013.jpg
804.648	0.506	1	repeat	Run1	repeat/STIM_013.jpg
808.503	0.484	1	repeat	Run1	repeat/STIM_013.jpg
811.542	0.612	1	repeat	Run1	repeat/STIM_014.jpg
815.653	0.462	0	repeat	Run1	repeat/STIM_014.jpg
819.109	0.451	1	repeat	Run1	repeat/STIM_014.jpg
821.938	0.582	1	repeat	Run1	repeat/STIM_014.jpg
825.573	0.745	1	repeat	Run1	repeat/STIM_014.jpg
828.962	1.236	0	generate	Run2	generate/STIM_000.jpg
832.312	0.783	1	generate	Run2	generate/STIM_000.jpg
835.817	0.835	1	generate	Run2	generate/STIM_000.jpg
839.242	1.015	1	generate	Run2	generate/STIM_000.jpg
844.143	1.44	1	generate	Run2	generate/STIM_000.jpg
847.694	1.995	1	generate	Run2	generate/STIM_001.jpg
853.386	0.945	1	generate	Run2	generate/STIM_001.jpg
858.264	1.594	1	generate	Run2	generate/STIM_001.jpg
863.505	1.254	1	generate	Run2	generate/STIM_001.jpg
868.555	1.447	1	generate	Run2	generate/STIM_001.jpg
873.049	1.26	1	generate	Run2	generate/STIM_002.jpg
877.257	0.88	1	generate	Run2	generate/STIM_002.jpg
881.203	0.831	1	generate	Run2	generate/STIM_002.jpg
884.255	1.109	1	generate	Run2	generate/STIM_002.jpg
888.298	0.873	1	generate	Run2	generate/STIM_002.jpg
892.556	1.974	1	generate	Run2	generate/STIM_003.jpg
896.976	1.779	1	generate	Run2	generate/STIM_003.jpg
901.625	1.308	1	generate	Run2	generate/STIM_003.jpg
905.893	1.02	1	generate	Run2	generate/STIM_003.jpg
910.272	1.144	1	generate	Run2	generate/STIM_003.jpg
914.837	0.93	1	generate	Run2	generate/STIM_004.jpg
918.273	1.443	1	generate	Run2	generate/STIM_004.jpg
923.455	1.264	1	generate	Run2	generate/STIM_004.jpg
928.001	0.885	1	generate	Run2	generate/STIM_004.jpg
932.637	1.107	1	generate	Run2	generate/STIM_004.jpg
937.534	0.817	1	generate	Run2	generate/STIM_005.jpg
940.973	1.65	1	generate	Run2	generate/STIM_005.jpg
945.565	0.947	1	generate	Run2	generate/STIM_005.jpg
950.104	1.293	1	generate	Run2	generate/STIM_005.jpg
953.663	1.355	1	generate	Run2	generate/STIM_005.jpg
957.937	1.646	1	generate	Run2	generate/STIM_006.jpg
962.676	1.475	1	generate	Run2	generate/STIM_006.jpg
967.003	1.121	1	generate	Run2	generate/STIM_006.jpg
971.411	1.299	1	generate	Run2	generate/STIM_006.jpg
975.098	0.908	1	generate	Run2	generate/STIM_006.jpg
978.461	0.976	1	generate	Run2	generate/STIM_007.jpg
981.944	1.015	1	generate	Run2	generate/STIM_007.jpg
986.312	1.043	1	generate	Run2	generate/STIM_007.jpg
990.07	0.849	1	generate	Run2	generate/STIM_007.jpg
993.132	1.112	1	generate	Run2	generate/STIM_007.jpg
996.681	1.926	1	generate	Run2	generate/STIM_008.jpg
1002.506	1.706	1	generate	Run2	generate/STIM_008.jpg
1008.103	1.203	1	generate	Run2	generate/STIM_008.jpg
1012.945	1.326	1	generate	Run2	generate/STIM_008.jpg
1017.654	1.486	1	generate	Run2	generate/STIM_008.jpg
1021.965	1.741	1	generate	Run2	generate/STIM_009.jpg
1027.239	1.473	0	generate	Run2	generate/STIM_009.jpg
1031.567	0.713	1	generate	Run2	generate/STIM_009.jpg
1034.65	0.91	1	generate	Run2	generate/STIM_009.jpg
1037.927	1.578	1	generate	Run2	generate/STIM_009.jpg
1043.047	1.062	1	generate	Run2	generate/STIM_010.jpg
1046.295	1.05	1	generate	Run2	generate/STIM_010.jpg
1050.499	1.448	1	generate	Run2	generate/STIM_010.jpg
1055.91	1.291	1	generate	Run2	generate/STIM_010.jpg
1060.35	1.588	1	generate	Run2	generate/STIM_010.jpg
1065.833	1.697	1	generate	Run2	generate/STIM_011.jpg
1070.849	0.92	1	generate	Run2	generate/STIM_011.jpg
1075.726	1.393	1	generate	Run2	generate/STIM_011.jpg
1079.327	1.162	1	generate	Run2	generate/STIM_011.jpg
1083.251	1.527	1	generate	Run2	generate/STIM_011.jpg
1088.482	1.219	1	generate	Run2	generate/STIM_012.jpg
1093.293	1.871	0	generate	Run2	generate/STIM_012.jpg
1097.521	0.722	1	generate	Run2	generate/STIM_012.jpg
1100.927	1.556	1	generate	Run2	generate/STIM_012.jpg
1105.584	1.189	1	generate	Run2	generate/STIM_012.jpg
1109.728	1.551	1	generate	Run2	generate/STIM_013.jpg
1114.292	1.483	1	generate	Run2	generate/STIM_013.jpg
1118.72	0.815	1	generate	Run2	generate/STIM_013.jpg
1122.98	0.852	1	generate	Run2	generate/STIM_013.jpg
1126.761	1.306	1	generate	Run2	generate/STIM_013.jpg
1131.178	1.497	1	generate	Run2	generate/STIM_014.jpg
1136.042	1.48	1	generate	Run2	generate/STIM_014.jpg
1139.617	1.574	1	generate	Run2	generate/STIM_014.jpg
1143.789	1.104	1	generate	Run2	generate/STIM_014.jpg
1147.195	0.928	1	generate	Run2	generate/STIM_014.jpg
1150.412	0.884	1	generate	Run2	generate/STIM_015.jpg
1155.105	1.207	1	generate	Run2	generate/STIM_015.jpg
1159.65	1.171	1	generate	Run2	generate/STIM_015.jpg
1162.981	1.141	1	generate	Run2	generate/STIM_015.jpg
1167.11	1.57	1	generate	Run2	generate/STIM_015.jpg
1172.084	1.399	1	generate	Run2	generate/STIM_016.jpg
1177.123	1.651	1	generate	Run2	generate/STIM_016.jpg
1182.598	0.938	1	generate	Run2	generate/STIM_016.jpg
1186.679	1.444	1	generate	Run2	generate/STIM_016.jpg
1190.75	1.488	1	generate	Run2	generate/STIM_016.jpg
1194.289	0.828	1	generate	Run2	generate/STIM_017.jpg
1197.126	1.2	1	generate	Run2	generate/STIM_017.jpg
1201.941	1.147	1	generate	Run2	generate/STIM_017.jpg
1206.946	1.182	1	generate	Run2	generate/STIM_017.jpg
1211.027	1.182	1	generate	Run2	generate/STIM_017.jpg
1215.003	1.768	1	generate	Run2	generate/STIM_018.jpg
1219.386	0.918	0	generate	Run2	generate/STIM_018.jpg
1223.723	0.728	1	generate	Run2	generate/STIM_018.jpg
1227.903	0.686	1	generate	Run2	generate/STIM_018.jpg
1231.79	1.616	1	generate	Run2	generate/STIM_018.jpg
1237.27	1.534	1	generate	Run2	generate/STIM_019.jpg
1242.587	1.399	1	generate	Run2	generate/STIM_019.jpg
1247.409	0.715	0	generate	Run2	generate/STIM_019.jpg
1251.84	1.005	1	generate	Run2	generate/STIM_019.jpg
1255.378	0.757	0	generate	Run2	generate/STIM_019.jpg
1260.135	1.745	1	generate	Run2	generate/STIM_020.jpg
1265.578	1.86	1	generate	Run2	generate/STIM_020.jpg
1269.641	0.721	1	generate	Run2	generate/STIM_020.jpg
1273.881	1.513	1	generate	Run2	generate/STIM_020.jpg
1278.394	1.46	1	generate	Run2	generate/STIM_020.jpg
1283.809	1.687	1	generate	Run2	generate/STIM_021.jpg
1289.229	1.18	1	generate	Run2	generate/STIM_021.jpg
1293.369	1.516	1	generate	Run2	generate/STIM_021.jpg
1298.329	0.743	1	generate	Run2	generate/STIM_021.jpg
1301.444	1.112	1	generate	Run2	generate/STIM_021.jpg
1305.245	1.961	1	generate	Run2	generate/STIM_022.jpg
1310.072	1.107	1	generate	Run2	generate/STIM_022.jpg
1314.567	1.017	1	generate	Run2	generate/STIM_022.jpg
1319.102	0.767	1	generate	Run2	generate/STIM_022.jpg
1323.648	1.008	1	generate	Run2	generate/STIM_022.jpg
1326.748	1.388	1	generate	Run2	generate/STIM_023.jpg
1330.911	1.514	1	generate	Run2	generate/STIM_023.jpg
1335.029	1.175	1	generate	Run2	generate/STIM_023.jpg
1338.93	0.998	1	generate	Run2	generate/STIM_023.jpg
1343.74	0.72	1	generate	Run2	generate/STIM_023.jpg
1346.756	1.84	1	generate	Run2	generate/STIM_024.jpg
1351.638	1.739	1	generate	Run2	generate/STIM_024.jpg
1356.744	1.035	1	generate	Run2	generate/STIM_024.jpg
1360.853	1.523	0	generate	Run2	generate/STIM_024.jpg
1366.364	0.941	1	generate	Run2	generate/STIM_024.jpg
1371.006	0.418	1	repeat	Run2	repeat/STIM_000.jpg
1373.642	0.777	1	repeat	Run2	repeat/STIM_000.jpg
1377.312	0.711	1	repeat	Run2	repeat/STIM_000.jpg
1380.384	0.42	1	repeat	Run2	repeat/STIM_000.jpg
1382.862	0.458	1	repeat	Run2	repeat/STIM_000.jpg
1386.541	0.602	1	repeat	Run2	repeat/STIM_001.jpg
1389.538	0.676	0	repeat	Run2	repeat/STIM_001.jpg
1394.187	0.402	1	repeat	Run2	repeat/STIM_001.jpg
1398.344	0.498	1	repeat	Run2	repeat/STIM_001.jpg
1402.834	0.687	1	repeat	Run2	repeat/STIM_001.jpg
1406.332	0.518	1	repeat	Run2	repeat/STIM_002.jpg
1408.984	0.404	1	repeat	Run2	repeat/STIM_002.jpg
1413.29	0.525	1	repeat	Run2	repeat/STIM_002.jpg
1417.326	0.459	1	repeat	Run2	repeat/STIM_002.jpg
1420.634	0.423	1	repeat	Run2	repeat/STIM_002.jpg
1424.4	0.485	1	repeat	Run2	repeat/STIM_003.jpg
1427.715	0.424	1	repeat	Run2	repeat/STIM_003.jpg
1430.569	0.676	1	repeat	Run2	repeat/STIM_003.jpg
1434.483	0.604	1	repeat	Run2	repeat/STIM_003.jpg
1437.943	0.441	1	repeat	Run2	repeat/STIM_003.jpg
1441.366	0.69	1	repeat	Run2	repeat/STIM_004.jpg
1445.093	0.415	1	repeat	Run2	repeat/STIM_004.jpg
1447.615	0.593	1	repeat	Run2	repeat/STIM_004.jpg
1450.402	0.639	1	repeat	Run2	repeat/STIM_004.jpg
1453.128	0.77	1	repeat	Run2	repeat/STIM_004.jpg
1457.62	0.609	1	repeat	Run2	repeat/STIM_005.jpg
1460.746	0.721	1	repeat	Run2	repeat/STIM_005.jpg
1463.799	0.442	1	repeat	Run2	repeat/STIM_005.jpg
1466.332	0.737	1	repeat	Run2	repeat/STIM_005.jpg
1470.353	0.453	1	repeat	Run2	repeat/STIM_005.jpg
1473.857	0.74	1	repeat	Run2	repeat/STIM_006.jpg
1477.796	0.72	1	repeat	Run2	repeat/STIM_006.jpg
1481.073	0.473	1	repeat	Run2	repeat/STIM_006.jpg
1485.139	0.544	1	repeat	Run2	repeat/STIM_006.jpg
1489.502	0.433	1	repeat	Run2	repeat/STIM_006.jpg
1492.134	0.453	1	repeat	Run2	repeat/STIM_007.jpg
1496.511	0.54	1	repeat	Run2	repeat/STIM_007.jpg
1500.613	0.559	1	repeat	Run2	repeat/STIM_007.jpg
1503.977	0.637	1	repeat	Run2	repeat/STIM_007.jpg
1507.448	0.658	1	repeat	Run2	repeat/STIM_007.jpg
1511.892	0.494	1	repeat	Run2	repeat/STIM_008.jpg
1515.736	0.574	1	repeat	Run2	repeat/STIM_008.jpg
1519.29	0.456	1	repeat	Run2	repeat/STIM_008.jpg
1522.844	0.666	1	repeat	Run2	repeat/STIM_008.jpg
1526.79	0.608	1	repeat	Run2	repeat/STIM_008.jpg
1530.109	0.426	1	repeat	Run2	repeat/STIM_009.jpg
1533.19	0.765	1	repeat	Run2	repeat/STIM_009.jpg
1537.653	0.609	1	repeat	Run2	repeat/STIM_009.jpg
1540.961	0.744	1	repeat	Run2	repeat/STIM_009.jpg
1545.142	0.604	1	repeat	Run2	repeat/STIM_009.jpg
1549.441	0.676	1	repeat	Run2	repeat/STIM_010.jpg
1553.2	0.462	1	repeat	Run2	repeat/STIM_010.jpg
1556.412	0.668	1	repeat	Run2	repeat/STIM_010.jpg
1560.561	0.444	1	repeat	Run2	repeat/STIM_010.jpg
1564.058	0.435	1	repeat	Run2	repeat/STIM_010.jpg
1567.478	0.776	1	repeat	Run2	repeat/STIM_011.jpg
1572.139	0.696	1	repeat	Run2	repeat/STIM_011.jpg
1576.558	0.676	0	repeat	Run2	repeat/STIM_011.jpg
1580.532	0.754	0	repeat	Run2	repeat/STIM_011.jpg
1584.615	0.612	1	repeat	Run2	repeat/STIM_011.jpg
1587.529	0.656	1	repeat	Run2	repeat/STIM_012.jpg
1591.231	0.532	1	repeat	Run2	repeat/STIM_012.jpg
1595.288	0.502	1	repeat	Run2	repeat/STIM_012.jpg
1597.844	0.63	1	repeat	Run2	repeat/STIM_012.jpg
1601.271	0.536	0	repeat	Run2	repeat/STIM_012.jpg
1604.949	0.606	1	repeat	Run2	repeat/STIM_013.jpg
1609.299	0.758	1	repeat	Run2	repeat/STIM_013.jpg
1614.032	0.663	1	repeat	Run2	repeat/STIM_013.jpg
1617.762	0.534	1	repeat	Run2	repeat/STIM_013.jpg
1620.953	0.622	1	repeat	Run2	repeat/STIM_013.jpg
1624.606	0.606	1	repeat	Run2	repeat/STIM_014.jpg
1628.415	0.602	1	repeat	Run2	repeat/STIM_014.jpg
1632.023	0.622	1	repeat	Run2	repeat/STIM_014.jpg
1635.597	0.546	1	repeat	Run2	repeat/STIM_014.jpg
1639.574	0.483	1	repeat	Run2	repeat/STIM_014.jpg
1642.376	1.588	1	generate	Run3	generate/STIM_000.jpg
1647.012	1.555	1	generate	Run3	generate/STIM_000.jpg
1650.663	1.053	1	generate	Run3	generate/STIM_000.jpg
1653.821	1.576	1	generate	Run3	generate/STIM_000.jpg
1657.609	1.229	1	generate	Run3	generate/STIM_000.jpg
1660.838	0.895	1	generate	Run3	generate/STIM_001.jpg
1665.171	1.626	1	generate	Run3	generate/STIM_001.jpg
1669.746	1.026	1	generate	Run3	generate/STIM_001.jpg
1673.741	1.599	1	generate	Run3	generate/STIM_001.jpg
1677.34	1.482	1	generate	Run3	generate/STIM_001.jpg
1682.175	0.856	1	generate	Run3	generate/STIM_002.jpg
1685.742	0.996	1	generate	Run3	generate/STIM_002.jpg
1688.753	0.914	1	generate	Run3	generate/STIM_002.jpg
1691.764	1.066	1	generate	Run3	generate/STIM_002.jpg
1696.609	0.782	1	generate	Run3	generate/STIM_002.jpg
1701.151	1.338	1	generate	Run3	generate/STIM_003.jpg
1706.482	1.204	1	generate	Run3	generate/STIM_003.jpg
1711.223	1.373	1	generate	Run3	generate/STIM_003.jpg
1716.291	0.764	1	generate	Run3	generate/STIM_003.jpg
1720.107	1.001	1	generate	Run3	generate/STIM_003.jpg
1724.495	1.215	1	generate	Run3	generate/STIM_004.jpg
1729.134	1.268	1	generate	Run3	generate/STIM_004.jpg
1732.475	1.104	1	generate	Run3	generate/STIM_004.jpg
1735.873	0.806	1	generate	Run3	generate/STIM_004.jpg
1739.693	0.936	1	generate	Run3	generate/STIM_004.jpg
1743.62	1.387	1	generate	Run3	generate/STIM_005.jpg
1748.929	0.847	1	generate	Run3	generate/STIM_005.jpg
1752.203	1.523	1	generate	Run3	generate/STIM_005.jpg
1757.158	1.51	1	generate	Run3	generate/STIM_005.jpg
1761.303	1.311	1	generate	Run3	generate/STIM_005.jpg
1765.288	1.118	1	generate	Run3	generate/STIM_006.jpg
1769.659	1.492	1	generate	Run3	generate/STIM_006.jpg
1774.806	1.366	1	generate	Run3	generate/STIM_006.jpg
1780.061	0.801	1	generate	Run3	generate/STIM_006.jpg
1784.239	0.958	1	generate	Run3	generate/STIM_006.jpg
1787.699	1.32	1	generate	Run3	generate/STIM_007.jpg
1791.447	1.271	1	generate	Run3	generate/STIM_007.jpg
1796.68	0.977	1	generate	Run3	generate/STIM_007.jpg
1799.977	1.329	1	generate	Run3	generate/STIM_007.jpg
1804.199	1.121	1	generate	Run3	generate/STIM_007.jpg
1809.119	0.663	1	generate	Run3	generate/STIM_008.jpg
1812.509	1.52	1	generate	Run3	generate/STIM_008.jpg
1817.965	1.26	1	generate	Run3	generate/STIM_008.jpg
1822.816	0.778	1	generate	Run3	generate/STIM_008.jpg
1826.757	1.059	1	generate	Run3	generate/STIM_008.jpg
1831.296	0.935	1	generate	Run3	generate/STIM_009.jpg
1835.092	0.994	1	generate	Run3	generate/STIM_009.jpg
1839.74	0.926	1	generate	Run3	generate/STIM_009.jpg
1844.267	0.887	1	generate	Run3	generate/STIM_009.jpg
1848.118	1.608	1	generate	Run3	generate/STIM_009.jpg
1852.718	1.106	1	generate	Run3	generate/STIM_010.jpg
1856.36	0.815	1	generate	Run3	generate/STIM_010.jpg
1859.538	1.032	1	generate	Run3	generate/STIM_010.jpg
1863.547	1.445	1	generate	Run3	generate/STIM_010.jpg
1867.111	1.502	1	generate	Run3	generate/STIM_010.jpg
1870.801	0.734	1	generate	Run3	generate/STIM_011.jpg
1875.104	1.312	1	generate	Run3	generate/STIM_011.jpg
1879.741	0.661	1	generate	Run3	generate/STIM_011.jpg
1884.011	0.772	1	generate	Run3	generate/STIM_011.jpg
1888.481	0.788	1	generate	Run3	generate/STIM_011.jpg
1891.693	0.678	1	generate	Run3	generate/STIM_012.jpg
1895.389	1.167	1	generate	Run3	generate/STIM_012.jpg
1899.539	1.28	1	generate	Run3	generate/STIM_012.jpg
1904.711	1.026	1	generate	Run3	generate/STIM_012.jpg
1908.893	0.958	1	generate	Run3	generate/STIM_012.jpg
1912.63	1.028	1	generate	Run3	generate/STIM_013.jpg
1916.888	1.555	1	generate	Run3	generate/STIM_013.jpg
1920.477	1.488	1	generate	Run3	generate/STIM_013.jpg
1925.235	1.391	1	generate	Run3	generate/STIM_013.jpg
1930.587	1.01	1	generate	Run3	generate/STIM_013.jpg
1934.814	1.516	1	generate	Run3	generate/STIM_014.jpg
1938.587	1.444	1	generate	Run3	generate/STIM_014.jpg
1942.516	1.165	1	generate	Run3	generate/STIM_014.jpg
1946.845	1.438	1	generate	Run3	generate/STIM_014.jpg
1951.916	0.841	1	generate	Run3	generate/STIM_014.jpg
1956.367	0.808	1	generate	Run3	generate/STIM_015.jpg
1960.614	0.688	1	generate	Run3	generate/STIM_015.jpg
1964.985	1.456	1	generate	Run3	generate/STIM_015.jpg
1968.897	1.391	1	generate	Run3	generate/STIM_015.jpg
1973.3	1.117	1	generate	Run3	generate/STIM_015.jpg
1978.392	1.42	1	generate	Run3	generate/STIM_016.jpg
1982.644	1.368	1	generate	Run3	generate/STIM_016.jpg
1986.054	1.641	0	generate	Run3	generate/STIM_016.jpg
1991.024	1.294	1	generate	Run3	generate/STIM_016.jpg
1995.818	1.43	1	generate	Run3	generate/STIM_016.jpg
1999.649	1.549	1	generate	Run3	generate/STIM_017.jpg
2004.168	1.111	1	generate	Run3	generate/STIM_017.jpg
2008.351	1.56	1	generate	Run3	generate/STIM_017.jpg
2013.189	0.967	1	generate	Run3	generate/STIM_017.jpg
2016.477	0.925	1	generate	Run3	generate/STIM_017.jpg
2020.445	0.879	1	generate	Run3	generate/STIM_018.jpg
2023.362	0.662	1	generate	Run3	generate/STIM_018.jpg
2027.621	0.965	1	generate	Run3	generate/STIM_018.jpg
2031.282	0.715	0	generate	Run3	generate/STIM_018.jpg
2034.327	1.545	1	generate	Run3	generate/STIM_018.jpg
2039.283	1.265	1	generate	Run3	generate/STIM_019.jpg
2044.213	0.756	1	generate	Run3	generate/STIM_019.jpg
2048.881	0.728	1	generate	Run3	generate/STIM_019.jpg
2052.222	1.544	1	generate	Run3	generate/STIM_019.jpg
2057.559	1.112	1	generate	Run3	generate/STIM_019.jpg
2061.395	1.6	1	generate	Run3	generate/STIM_020.jpg
2066.861	1.045	1	generate	Run3	generate/STIM_020.jpg
2070.811	1.245	1	generate	Run3	generate/STIM_020.jpg
2075.418	1.484	1	generate	Run3	generate/STIM_020.jpg
2079.934	0.765	0	generate	Run3	generate/STIM_020.jpg
2083.876	0.667	1	generate	Run3	generate/STIM_021.jpg
2087.292	0.954	1	generate	Run3	generate/STIM_021.jpg
2090.911	0.719	1	generate	Run3	generate/STIM_021.jpg
2094.872	0.761	1	generate	Run3	generate/STIM_021.jpg
2099.203	1.3	1	generate	Run3	generate/STIM_021.jpg
2104.003	1.185	1	generate	Run3	generate/STIM_022.jpg
2107.309	1.031	1	generate	Run3	generate/STIM_022.jpg
2112.166	1.34	1	generate	Run3	generate/STIM_022.jpg
2115.559	1.238	1	generate	Run3	generate/STIM_022.jpg
2120.05	1.2	1	generate	Run3	generate/STIM_022.jpg
2125.086	1.201	1	generate	Run3	generate/STIM_023.jpg
2128.899	0.701	1	generate	Run3	generate/STIM_023.jpg
2132.001	1.102	1	generate	Run3	generate/STIM_023.jpg
2135.872	0.843	1	generate	Run3	generate/STIM_023.jpg
2140.119	1.317	1	generate	Run3	generate/STIM_023.jpg
2143.987	1.495	1	generate	Run3	generate/STIM_024.jpg
2147.916	1.069	1	generate	Run3	generate/STIM_024.jpg
2151.035	1.278	1	generate	Run3	generate/STIM_024.jpg
2155.406	1.013	1	generate	Run3	generate/STIM_024.jpg
2160.187	1.076	1	generate	Run3	generate/STIM_024.jpg
2165.066	0.407	1	repeat	Run3	repeat/STIM_000.jpg
2168.321	0.511	1	repeat	Run3	repeat/STIM_000.jpg
2172.144	0.748	1	repeat	Run3	repeat/STIM_000.jpg
2175.298	0.579	1	repeat	Run3	repeat/STIM_000.jpg
2179.196	0.67	1	repeat	Run3	repeat/STIM_000.jpg
2182.8	0.684	1	repeat	Run3	repeat/STIM_001.jpg
2187.285	0.451	1	repeat	Run3	repeat/STIM_001.jpg
2191.146	0.71	1	repeat	Run3	repeat/STIM_001.jpg
2195.323	0.584	1	repeat	Run3	repeat/STIM_001.jpg
2199.217	0.728	1	repeat	Run3	repeat/STIM_001.jpg
2203.596	0.75	1	repeat	Run3	repeat/STIM_002.jpg
2207.455	0.476	1	repeat	Run3	repeat/STIM_002.jpg
2211.786	0.565	1	repeat	Run3	repeat/STIM_002.jpg
2215.58	0.597	1	repeat	Run3	repeat/STIM_002.jpg
2220.132	0.658	1	repeat	Run3	repeat/STIM_002.jpg
2224.527	0.764	1	repeat	Run3	repeat/STIM_003.jpg
2227.784	0.749	1	repeat	Run3	repeat/STIM_003.jpg
2231.392	0.752	1	repeat	Run3	repeat/STIM_003.jpg
2235.125	0.709	1	repeat	Run3	repeat/STIM_003.jpg
2239.22	0.518	1	repeat	Run3	repeat/STIM_003.jpg
2242.199	0.675	1	repeat	Run3	repeat/STIM_004.jpg
2245.556	0.718	1	repeat	Run3	repeat/STIM_004.jpg
2249.37	0.557	1	repeat	Run3	repeat/STIM_004.jpg
2253.852	0.639	1	repeat	Run3	repeat/STIM_004.jpg
2258.348	0.53	1	repeat	Run3	repeat/STIM_004.jpg
2262.842	0.758	1	repeat	Run3	repeat/STIM_005.jpg
2265.918	0.776	1	repeat	Run3	repeat/STIM_005.jpg
2269.539	0.719	1	repeat	Run3	repeat/STIM_005.jpg
2274.014	0.499	1	repeat	Run3	repeat/STIM_005.jpg
2277.707	0.544	1	repeat	Run3	repeat/STIM_005.jpg
2281.442	0.571	1	repeat	Run3	repeat/STIM_006.jpg
2285.534	0.675	1	repeat	Run3	repeat/STIM_006.jpg
2289.822	0.432	1	repeat	Run3	repeat/STIM_006.jpg
2293.784	0.643	1	repeat	Run3	repeat/STIM_006.jpg
2297.749	0.623	1	repeat	Run3	repeat/STIM_006.jpg
2301.493	0.515	1	repeat	Run3	repeat/STIM_007.jpg
2304.736	0.703	1	repeat	Run3	repeat/STIM_007.jpg
2308.266	0.566	1	repeat	Run3	repeat/STIM_007.jpg
2311.01	0.483	1	repeat	Run3	repeat/STIM_007.jpg
2313.759	0.67	1	repeat	Run3	repeat/STIM_007.jpg
2317.381	0.705	1	repeat	Run3	repeat/STIM_008.jpg
2321.604	0.613	1	repeat	Run3	repeat/STIM_008.jpg
2324.687	0.588	1	repeat	Run3	repeat/STIM_008.jpg
2328.236	0.717	1	repeat	Run3	repeat/STIM_008.jpg
2332.853	0.573	1	repeat	Run3	repeat/STIM_008.jpg
2336.17	0.51	1	repeat	Run3	repeat/STIM_009.jpg
2338.955	0.546	1	repeat	Run3	repeat/STIM_009.jpg
2341.528	0.644	1	repeat	Run3	repeat/STIM_009.jpg
2345.883	0.625	1	repeat	Run3	repeat/STIM_009.jpg
2349.758	0.589	1	repeat	Run3	repeat/STIM_009.jpg
2352.79	0.602	1	repeat	Run3	repeat/STIM_010.jpg
2357.236	0.448	1	repeat	Run3	repeat/STIM_010.jpg
2361.162	0.461	1	repeat	Run3	repeat/STIM_010.jpg
2365.483	0.745	1	repeat	Run3	repeat/STIM_010.jpg
2370.028	0.618	1	repeat	Run3	repeat/STIM_010.jpg
2374.243	0.609	1	repeat	Run3	repeat/STIM_011.jpg
2378.672	0.54	1	repeat	Run3	repeat/STIM_011.jpg
2382.553	0.713	1	repeat	Run3	repeat/STIM_011.jpg
2386.655	0.488	1	repeat	Run3	repeat/STIM_011.jpg
2390.42	0.642	1	repeat	Run3	repeat/STIM_011.jpg
2394.839	0.647	1	repeat	Run3	repeat/STIM_012.jpg
2397.684	0.763	1	repeat	Run3	repeat/STIM_012.jpg
2401.604	0.545	1	repeat	Run3	repeat/STIM_012.jpg
2404.98	0.696	1	repeat	Run3	repeat/STIM_012.jpg
2408.577	0.773	1	repeat	Run3	repeat/STIM_012.jpg
2412.245	0.574	1	repeat	Run3	repeat/STIM_013.jpg
2415.487	0.712	1	repeat	Run3	repeat/STIM_013.jpg
2419.854	0.557	1	repeat	Run3	repeat/STIM_013.jpg
2423.921	0.578	1	repeat	Run3	repeat/STIM_013.jpg
2427.016	0.686	0	repeat	Run3	repeat/STIM_013.jpg
2431.564	0.722	1	repeat	Run3	repeat/STIM_014.jpg
2435.017	0.65	1	repeat	Run3	repeat/STIM_014.jpg
2438.918	0.609	1	repeat	Run3	repeat/STIM_014.jpg
2443.408	0.624	1	repeat	Run3	repeat/STIM_014.jpg
2447.176	0.518	1	repeat	Run3	repeat/STIM_014.jpg
2449.893	1.609	1	generate	Run4	generate/STIM_000.jpg
2455.224	0.709	1	generate	Run4	generate/STIM_000.jpg
2459.487	0.835	1	generate	Run4	generate/STIM_000.jpg
2463.791	1.055	1	generate	Run4	generate/STIM_000.jpg
2468.428	0.815	0	generate	Run4	generate/STIM_000.jpg
2472.965	0.734	1	generate	Run4	generate/STIM_001.jpg
2477.279	1.189	1	generate	Run4	generate/STIM_001.jpg
2481.164	0.966	1	generate	Run4	generate/STIM_001.jpg
2485.005	0.798	0	generate	Run4	generate/STIM_001.jpg
2489.107	1.07	1	generate	Run4	generate/STIM_001.jpg
2493.666	1.415	1	generate	Run4	generate/STIM_002.jpg
2497.085	1.412	1	generate	Run4	generate/STIM_002.jpg
2501.755	0.762	1	generate	Run4	generate/STIM_002.jpg
2505.01	1.243	1	generate	Run4	generate/STIM_002.jpg
2509.242	1.046	1	generate	Run4	generate/STIM_002.jpg
2513.488	1.484	1	generate	Run4	generate/STIM_003.jpg
2518.491	1.453	1	generate	Run4	generate/STIM_003.jpg
2523.351	1.536	1	generate	Run4	generate/STIM_003.jpg
2527.424	1.579	1	generate	Run4	generate/STIM_003.jpg
2532.58	0.777	1	generate	Run4	generate/STIM_003.jpg
2536.472	1.243	1	generate	Run4	generate/STIM_004.jpg
2540.731	1.071	1	generate	Run4	generate/STIM_004.jpg
2543.814	1.385	1	generate	Run4	generate/STIM_004.jpg
2547.391	1.018	1	generate	Run4	generate/STIM_004.jpg
2551.82	0.694	1	generate	Run4	generate/STIM_004.jpg
2556.145	1.642	1	generate	Run4	generate/STIM_005.jpg
2560.51	1.206	1	generate	Run4	generate/STIM_005.jpg
2563.948	0.928	1	generate	Run4	generate/STIM_005.jpg
2567.022	1.62	1	generate	Run4	generate/STIM_005.jpg
2571.756	1.366	1	generate	Run4	generate/STIM_005.jpg
2576.136	1.558	1	generate	Run4	generate/STIM_006.jpg
2580.277	0.993	1	generate	Run4	generate/STIM_006.jpg
2585.236	1.23	1	generate	Run4	generate/STIM_006.jpg
2588.837	1.491	1	generate	Run4	generate/STIM_006.jpg
2592.437	0.739	1	generate	Run4	generate/STIM_006.jpg
2596.608	1.36	1	generate	Run4	generate/STIM_007.jpg
2600.555	1.471	1	generate	Run4	generate/STIM_007.jpg
2605.434	1.625	1	generate	Run4	generate/STIM_007.jpg
2610.436	1.419	1	generate	Run4	generate/STIM_007.jpg
2614.134	1.568	1	generate	Run4	generate/STIM_007.jpg
2618.507	1.028	1	generate	Run4	generate/STIM_008.jpg
2622.18	1.251	1	generate	Run4	generate/STIM_008.jpg
2626.272	1.082	1	generate	Run4	generate/STIM_008.jpg
2629.778	1.603	1	generate	Run4	generate/STIM_008.jpg
2634.387	1.534	1	generate	Run4	generate/STIM_008.jpg
2638.223	1.398	1	generate	Run4	generate/STIM_009.jpg
2642.088	0.974	1	generate	Run4	generate/STIM_009.jpg
2645.946	1.584	1	generate	Run4	generate/STIM_009.jpg
2651.41	1.306	1	generate	Run4	generate/STIM_009.jpg
2656.437	1.441	1	generate	Run4	generate/STIM_009.jpg
2659.911	1.39	1	generate	Run4	generate/STIM_010.jpg
2663.923	1.174	0	generate	Run4	generate/STIM_010.jpg
2667.116	1.489	1	generate	Run4	generate/STIM_010.jpg
2671.386	1.326	1	generate	Run4	generate/STIM_010.jpg
2676.307	0.884	1	generate	Run4	generate/STIM_010.jpg
2681.051	0.942	1	generate	Run4	generate/STIM_011.jpg
2685.626	1.13	1	generate	Run4	generate/STIM_011.jpg
2689.808	0.787	1	generate	Run4	generate/STIM_011.jpg
2693.709	1.142	0	generate	Run4	generate/STIM_011.jpg
2698.127	0.876	1	generate	Run4	generate/STIM_011.jpg
2702.527	0.924	1	generate	Run4	generate/STIM_012.jpg
2705.85	1.209	1	generate	Run4	generate/STIM_012.jpg
2709.17	1.574	1	generate	Run4	generate/STIM_012.jpg
2713.581	1.486	1	generate	Run4	generate/STIM_012.jpg
2718.857	1.064	1	generate	Run4	generate/STIM_012.jpg
2722.603	0.994	1	generate	Run4	generate/STIM_013.jpg
2726.734	1.07	1	generate	Run4	generate/STIM_013.jpg
2731.385	1.16	1	generate	Run4	generate/STIM_013.jpg
2736.411	1.178	1	generate	Run4	generate/STIM_013.jpg
2740.804	1.151	1	generate	Run4	generate/STIM_013.jpg
2744.712	0.854	1	generate	Run4	generate/STIM_014.jpg
2748.349	1.235	1	generate	Run4	generate/STIM_014.jpg
2753.506	1.356	1	generate	Run4	generate/STIM_014.jpg
2757.587	0.848	1	generate	Run4	generate/STIM_014.jpg
2760.456	1.242	1	generate	Run4	generate/STIM_014.jpg
2763.793	1.524	1	generate	Run4	generate/STIM_015.jpg
2769.012	1.405	1	generate	Run4	generate/STIM_015.jpg
2773.721	1.253	1	generate	Run4	generate/STIM_015.jpg
2778.434	1.308	1	generate	Run4	generate/STIM_015.jpg
2783.572	0.669	1	generate	Run4	generate/STIM_015.jpg
2787.424	1.498	1	generate	Run4	generate/STIM_016.jpg
2791.524	0.753	1	generate	Run4	generate/STIM_016.jpg
2796.094	1.466	1	generate	Run4	generate/STIM_016.jpg
2800.474	1.469	1	generate	Run4	generate/STIM_016.jpg
2804.993	0.819	1	generate	Run4	generate/STIM_016.jpg
2808.936	1.294	1	generate	Run4	generate/STIM_017.jpg
2812.727	0.958	1	generate	Run4	generate/STIM_017.jpg
2816.387	1.222	1	generate	Run4	generate/STIM_017.jpg
2820.379	1.074	1	generate	Run4	generate/STIM_017.jpg
2824.744	1.09	1	generate	Run4	generate/STIM_017.jpg
2828.977	1.617	1	generate	Run4	generate/STIM_018.jpg
2833.679	1.346	1	generate	Run4	generate/STIM_018.jpg
2838.157	1.308	1	generate	Run4	generate/STIM_018.jpg
2842.217	1.434	1	generate	Run4	generate/STIM_018.jpg
2846.763	1.028	1	generate	Run4	generate/STIM_018.jpg
2850.834	0.676	1	generate	Run4	generate/STIM_019.jpg
2854.823	1.184	1	generate	Run4	generate/STIM_019.jpg
2859.19	1.027	1	generate	Run4	generate/STIM_019.jpg
2863.666	1.48	1	generate	Run4	generate/STIM_019.jpg
2868.588	1.347	1	generate	Run4	generate/STIM_019.jpg
2873.082	0.676	1	generate	Run4	generate/STIM_020.jpg
2876.461	1.483	1	generate	Run4	generate/STIM_020.jpg
2881.415	1.113	1	generate	Run4	generate/STIM_020.jpg
2885.219	0.999	1	generate	Run4	generate/STIM_020.jpg
2888.824	0.883	1	generate	Run4	generate/STIM_020.jpg
2892.765	1.014	1	generate	Run4	generate/STIM_021.jpg
2896.558	0.906	1	generate	Run4	generate/STIM_021.jpg
2900.371	0.886	1	generate	Run4	generate/STIM_021.jpg
2903.744	0.703	1	generate	Run4	generate/STIM_021.jpg
2907.703	0.801	1	generate	Run4	generate/STIM_021.jpg
2912.501	1.444	1	generate	Run4	generate/STIM_022.jpg
2917.332	0.978	1	generate	Run4	generate/STIM_022.jpg
2921.745	1.631	1	generate	Run4	generate/STIM_022.jpg
2926.386	0.964	1	generate	Run4	generate/STIM_022.jpg
2929.399	0.659	1	generate	Run4	generate/STIM_022.jpg
2932.089	0.752	1	generate	Run4	generate/STIM_023.jpg
2935.216	1.307	1	generate	Run4	generate/STIM_023.jpg
2938.621	0.82	1	generate	Run4	generate/STIM_023.jpg
2942.259	1.18	1	generate	Run4	generate/STIM_023.jpg
2946.192	1.276	1	generate	Run4	generate/STIM_023.jpg
2950.603	1.033	1	generate	Run4	generate/STIM_024.jpg
2954.473	1.63	1	generate	Run4	generate/STIM_024.jpg
2958.152	0.875	1	generate	Run4	generate/STIM_024.jpg
2962.16	1.048	1	generate	Run4	generate/STIM_024.jpg
2966.765	1.362	1	generate	Run4	generate/STIM_024.jpg
2971.988	0.583	1	repeat	Run4	repeat/STIM_000.jpg
2975.572	0.392	1	repeat	Run4	repeat/STIM_000.jpg
2978.585	0.683	1	repeat	Run4	repeat/STIM_000.jpg
2981.44	0.512	1	repeat	Run4	repeat/STIM_000.jpg
2984.412	0.626	1	repeat	Run4	repeat/STIM_000.jpg
2988.93	0.551	1	repeat	Run4	repeat/STIM_001.jpg
2992.89	0.443	1	repeat	Run4	repeat/STIM_001.jpg
2996.966	0.762	1	repeat	Run4	repeat/STIM_001.jpg
2999.954	0.456	1	repeat	Run4	repeat/STIM_001.jpg
3003.585	0.436	1	repeat	Run4	repeat/STIM_001.jpg
3007.392	0.541	1	repeat	Run4	repeat/STIM_002.jpg
3011.085	0.724	1	repeat	Run4	repeat/STIM_002.jpg
3015.3	0.526	1	repeat	Run4	repeat/STIM_002.jpg
3018.142	0.62	1	repeat	Run4	repeat/STIM_002.jpg
3021.5	0.658	1	repeat	Run4	repeat/STIM_002.jpg
3025.609	0.48	1	repeat	Run4	repeat/STIM_003.jpg
3029.345	0.612	1	repeat	Run4	repeat/STIM_003.jpg
3031.959	0.443	1	repeat	Run4	repeat/STIM_003.jpg
3035.791	0.417	1	repeat	Run4	repeat/STIM_003.jpg
3039.086	0.614	1	repeat	Run4	repeat/STIM_003.jpg
3041.757	0.521	1	repeat	Run4	repeat/STIM_004.jpg
3045.709	0.462	1	repeat	Run4	repeat/STIM_004.jpg
3050.166	0.734	1	repeat	Run4	repeat/STIM_004.jpg
3054.592	0.76	1	repeat	Run4	repeat/STIM_004.jpg
3058.079	0.637	1	repeat	Run4	repeat/STIM_004.jpg
3062.144	0.413	1	repeat	Run4	repeat/STIM_005.jpg
3066.261	0.629	1	repeat	Run4	repeat/STIM_005.jpg
3069.272	0.596	1	repeat	Run4	repeat/STIM_005.jpg
3073.366	0.724	1	repeat	Run4	repeat/STIM_005.jpg
3077.021	0.592	1	repeat	Run4	repeat/STIM_005.jpg
3080.13	0.702	1	repeat	Run4	repeat/STIM_006.jpg
3083.523	0.464	1	repeat	Run4	repeat/STIM_006.jpg
3086.755	0.524	1	repeat	Run4	repeat/STIM_006.jpg
3090.02	0.449	1	repeat	Run4	repeat/STIM_006.jpg
3094.248	0.75	1	repeat	Run4	repeat/STIM_006.jpg
3098.498	0.47	1	repeat	Run4	repeat/STIM_007.jpg
3101.761	0.495	1	repeat	Run4	repeat/STIM_007.jpg
3104.891	0.479	1	repeat	Run4	repeat/STIM_007.jpg
3107.662	0.596	1	repeat	Run4	repeat/STIM_007.jpg
3111.23	0.403	1	repeat	Run4	repeat/STIM_007.jpg
3114.534	0.733	1	repeat	Run4	repeat/STIM_008.jpg
3117.877	0.592	1	repeat	Run4	repeat/STIM_008.jpg
3120.87	0.685	1	repeat	Run4	repeat/STIM_008.jpg
3124.021	0.694	1	repeat	Run4	repeat/STIM_008.jpg
3127.109	0.766	1	repeat	Run4	repeat/STIM_008.jpg
3130.919	0.664	1	repeat	Run4	repeat/STIM_009.jpg
3134.511	0.61	1	repeat	Run4	repeat/STIM_009.jpg
3138.467	0.53	1	repeat	Run4	repeat/STIM_009.jpg
3142.015	0.436	1	repeat	Run4	repeat/STIM_009.jpg
3146.045	0.517	1	repeat	Run4	repeat/STIM_009.jpg
3149.625	0.585	1	repeat	Run4	repeat/STIM_010.jpg
3152.722	0.479	1	repeat	Run4	repeat/STIM_010.jpg
3155.972	0.56	1	repeat	Run4	repeat/STIM_010.jpg
3160.061	0.502	0	repeat	Run4	repeat/STIM_010.jpg
3163.046	0.416	1	repeat	Run4	repeat/STIM_010.jpg
3167.355	0.639	1	repeat	Run4	repeat/STIM_011.jpg
3171.922	0.577	1	repeat	Run4	repeat/STIM_011.jpg
3175.843	0.608	1	repeat	Run4	repeat/STIM_011.jpg
3179.516	0.763	1	repeat	Run4	repeat/STIM_011.jpg
3183.595	0.434	1	repeat	Run4	repeat/STIM_011.jpg
3186.957	0.454	1	repeat	Run4	repeat/STIM_012.jpg
3190.054	0.484	1	repeat	Run4	repeat/STIM_012.jpg
3192.56	0.755	1	repeat	Run4	repeat/STIM_012.jpg
3195.531	0.558	1	repeat	Run4	repeat/STIM_012.jpg
3198.914	0.527	1	repeat	Run4	repeat/STIM_012.jpg
3202.205	0.723	1	repeat	Run4	repeat/STIM_013.jpg
3205.901	0.782	1	repeat	Run4	repeat/STIM_013.jpg
3210.621	0.557	1	repeat	Run4	repeat/STIM_013.jpg
3213.669	0.693	1	repeat	Run4	repeat/STIM_013.jpg
3217.512	0.549	1	repeat	Run4	repeat/STIM_013.jpg
3220.23	0.56	1	repeat	Run4	repeat/STIM_014.jpg
3224.226	0.606	1	repeat	Run4	repeat/STIM_014.jpg
3226.914	0.778	1	repeat	Run4	repeat/STIM_014.jpg
3230.002	0.568	1	repeat	Run4	repeat/STIM_014.jpg
3233.169	0.664	1	repeat	Run4	repeat/STIM_014.jpg
