onset	duration	accuracy	trial_type	learning_stage	stimulus
0.0	1.514	correct	generate	Run1	generate/STIM_000.jpg
4.342	1.778	correct	generate	Run1	generate/STIM_000.jpg
9.856	1.663	incorrect	generate	Run1	generate/STIM_000.jpg
13.689	1.71	correct	generate	Run1	generate/STIM_000.jpg
18.266	0.809	correct	generate	Run1	generate/STIM_000.jpg
22.883	1.62	correct	generate	Run1	generate/STIM_001.jpg
28.035	1.39	correct	generate	Run1	generate/STIM_001.jpg
32.028	1.044	correct	generate	Run1	generate/STIM_001.jpg
35.625	0.83	correct	generate	Run1	generate/STIM_001.jpg
39.613	1.781	correct	generate	Run1	generate/STIM_001.jpg
43.944	2.053	incorrect	generate	Run1	generate/STIM_002.jpg
49.22	2.212	correct	generate	Run1	generate/STIM_002.jpg
55.019	1.174	correct	generate	Run1	generate/STIM_002.jpg
59.553	1.684	correct	generate	Run1	generate/STIM_002.jpg
63.608	1.603	correct	generate	Run1	generate/STIM_002.jpg
68.281	2.315	correct	generate	Run1	generate/STIM_003.jpg
74.59	1.558	correct	generate	Run1	generate/STIM_003.jpg
78.864	1.272	correct	generate	Run1	generate/STIM_003.jpg
83.029	1.029	incorrect	generate	Run1	generate/STIM_003.jpg
87.018	1.468	correct	generate	Run1	generate/STIM_003.jpg
90.914	2.169	correct	generate	Run1	generate/STIM_004.jpg
95.826	1.939	correct	generate	Run1	generate/STIM_004.jpg
100.21	1.993	correct	generate	Run1	generate/STIM_004.jpg
106.15	1.814	correct	generate	Run1	generate/STIM_004.jpg
110.439	0.912	correct	generate	Run1	generate/STIM_004.jpg
113.773	2.248	correct	generate	Run1	generate/STIM_005.jpg
119.365	1.456	correct	generate	Run1	generate/STIM_005.jpg
122.879	0.906	correct	generate	Run1	generate/STIM_005.jpg
126.109	0.87	correct	generate	Run1	generate/STIM_005.jpg
129.62	1.108	correct	generate	Run1	generate/STIM_005.jpg
132.975	1.5	correct	generate	Run1	generate/STIM_006.jpg
137.197	1.6	correct	generate	Run1	generate/STIM_006.jpg
141.251	0.986	incorrect	generate	Run1	generate/STIM_006.jpg
144.307	1.289	correct	generate	Run1	generate/STIM_006.jpg
148.205	1.456	correct	generate	Run1	generate/STIM_006.jpg
152.896	1.924	correct	generate	Run1	generate/STIM_007.jpg
158.761	1.902	correct	generate	Run1	generate/STIM_007.jpg
163.181	0.924	correct	generate	Run1	generate/STIM_007.jpg
167.114	1.466	correct	generate	Run1	generate/STIM_007.jpg
172.36	1.152	incorrect	generate	Run1	generate/STIM_007.jpg
175.736	1.348	correct	generate	Run1	generate/STIM_008.jpg
179.302	2.03	correct	generate	Run1	generate/STIM_008.jpg
184.271	1.814	incorrect	generate	Run1	generate/STIM_008.jpg
188.64	1.843	correct	generate	Run1	generate/STIM_008.jpg
193.895	1.059	correct	generate	Run1	generate/STIM_008.jpg
198.413	1.792	incorrect	generate	Run1	generate/STIM_009.jpg
202.858	1.717	correct	generate	Run1	generate/STIM_009.jpg
207.3	1.933	correct	generate	Run1	generate/STIM_009.jpg
211.852	1.983	correct	generate	Run1	generate/STIM_009.jpg
216.397	1.11	correct	generate	Run1	generate/STIM_009.jpg
220.786	1.23	correct	generate	Run1	generate/STIM_010.jpg
226.01	2.209	correct	generate	Run1	generate/STIM_010.jpg
231.085	1.251	correct	generate	Run1	generate/STIM_010.jpg
235.816	1.432	correct	generate	Run1	generate/STIM_010.jpg
240.999	1.416	correct	generate	Run1	generate/STIM_010.jpg
246.322	2.297	correct	generate	Run1	generate/STIM_011.jpg
251.721	1.338	correct	generate	Run1	generate/STIM_011.jpg
256.2	0.854	correct	generate	Run1	generate/STIM_011.jpg
260.874	1.662	correct	generate	Run1	generate/STIM_011.jpg
265.685	1.471	correct	generate	Run1	generate/STIM_011.jpg
270.973	1.174	correct	generate	Run1	generate/STIM_012.jpg
274.156	1.355	correct	generate	Run1	generate/STIM_012.jpg
278.771	1.53	correct	generate	Run1	generate/STIM_012.jpg
282.992	1.041	correct	generate	Run1	generate/STIM_012.jpg
287.824	1.436	correct	generate	Run1	generate/STIM_012.jpg
292.797	2.346	correct	generate	Run1	generate/STIM_013.jpg
298.026	0.976	correct	generate	Run1	generate/STIM_013.jpg
301.335	1.347	correct	generate	Run1	generate/STIM_013.jpg
306.583	1.863	correct	generate	Run1	generate/STIM_013.jpg
311.397	1.574	correct	generate	Run1	generate/STIM_013.jpg
316.473	2.088	correct	generate	Run1	generate/STIM_014.jpg
320.646	1.977	correct	generate	Run1	generate/STIM_014.jpg
325.607	1.746	correct	generate	Run1	generate/STIM_014.jpg
331.319	1.547	correct	generate	Run1	generate/STIM_014.jpg
336.583	1.263	correct	generate	Run1	generate/STIM_014.jpg
341.342	0.946	correct	generate	Run1	generate/STIM_015.jpg
344.488	1.614	correct	generate	Run1	generate/STIM_015.jpg
349.064	1.808	correct	generate	Run1	generate/STIM_015.jpg
353.152	1.818	correct	generate	Run1	generate/STIM_015.jpg
358.343	1.228	incorrect	generate	Run1	generate/STIM_015.jpg
362.527	1.193	correct	generate	Run1	generate/STIM_016.jpg
366.444	1.926	correct	generate	Run1	generate/STIM_016.jpg
370.567	1.505	correct	generate	Run1	generate/STIM_016.jpg
374.085	1.071	correct	generate	Run1	generate/STIM_016.jpg
378.127	1.42	correct	generate	Run1	generate/STIM_016.jpg
383.347	1.889	correct	generate	Run1	generate/STIM_017.jpg
387.791	1.24	incorrect	generate	Run1	generate/STIM_017.jpg
391.842	1.63	correct	generate	Run1	generate/STIM_017.jpg
397.118	1.974	correct	generate	Run1	generate/STIM_017.jpg
401.806	1.298	correct	generate	Run1	generate/STIM_017.jpg
406.452	1.859	correct	generate	Run1	generate/STIM_018.jpg
410.917	1.746	correct	generate	Run1	generate/STIM_018.jpg
415.528	1.798	correct	generate	Run1	generate/STIM_018.jpg
420.783	1.273	correct	generate	Run1	generate/STIM_018.jpg
425.327	0.93	correct	generate	Run1	generate/STIM_018.jpg
430.14	1.039	correct	generate	Run1	generate/STIM_019.jpg
434.597	2.203	correct	generate	Run1	generate/STIM_019.jpg
439.35	1.331	correct	generate	Run1	generate/STIM_019.jpg
443.229	0.83	correct	generate	Run1	generate/STIM_019.jpg
447.133	0.902	correct	generate	Run1	generate/STIM_019.jpg
450.712	1.561	correct	generate	Run1	generate/STIM_020.jpg
455.509	1.813	incorrect	generate	Run1	generate/STIM_020.jpg
460.776	1.195	correct	generate	Run1	generate/STIM_020.jpg
465.714	1.132	correct	generate	Run1	generate/STIM_020.jpg
470.234	0.768	correct	generate	Run1	generate/STIM_020.jpg
473.846	1.1	correct	generate	Run1	generate/STIM_021.jpg
478.296	1.36	correct	generate	Run1	generate/STIM_021.jpg
483.344	1.111	correct	generate	Run1	generate/STIM_021.jpg
488.431	0.978	correct	generate	Run1	generate/STIM_021.jpg
493.158	1.275	correct	generate	Run1	generate/STIM_021.jpg
496.454	1.815	correct	generate	Run1	generate/STIM_022.jpg
501.15	1.016	correct	generate	Run1	generate/STIM_022.jpg
506.034	1.025	correct	generate	Run1	generate/STIM_022.jpg
510.005	1.126	correct	generate	Run1	generate/STIM_022.jpg
513.505	1.625	correct	generate	Run1	generate/STIM_022.jpg
518.749	1.633	correct	generate	Run1	generate/STIM_023.jpg
524.009	1.563	correct	generate	Run1	generate/STIM_023.jpg
528.958	2.079	correct	generate	Run1	generate/STIM_023.jpg
534.144	1.872	correct	generate	Run1	generate/STIM_023.jpg
539.847	1.725	correct	generate	Run1	generate/STIM_023.jpg
544.833	2.205	incorrect	generate	Run1	generate/STIM_024.jpg
550.837	1.627	correct	generate	Run1	generate/STIM_024.jpg
555.834	1.466	correct	generate	Run1	generate/STIM_024.jpg
559.355	1.412	correct	generate	Run1	generate/STIM_024.jpg
563.237	1.532	correct	generate	Run1	generate/STIM_024.jpg
568.166	0.606	correct	repeat	Run1	repeat/STIM_000.jpg
571.276	0.696	correct	repeat	Run1	repeat/STIM_000.jpg
574.83	0.698	correct	repeat	Run1	repeat/STIM_000.jpg
578.453	0.714	correct	repeat	Run1	repeat/STIM_000.jpg
581.6	0.647	correct	repeat	Run1	repeat/STIM_000.jpg
585.447	0.441	correct	repeat	Run1	repeat/STIM_001.jpg
588.14	0.511	correct	repeat	Run1	repeat/STIM_001.jpg
591.415	0.555	correct	repeat	Run1	repeat/STIM_001.jpg
595.245	0.51	correct	repeat	Run1	repeat/STIM_001.jpg
598.303	0.652	correct	repeat	Run1	repeat/STIM_001.jpg
602.658	0.652	correct	repeat	Run1	repeat/STIM_002.jpg
606.907	0.437	correct	repeat	Run1	repeat/STIM_002.jpg
609.994	0.625	correct	repeat	Run1	repeat/STIM_002.jpg
614.171	0.54	correct	repeat	Run1	repeat/STIM_002.jpg
618.436	0.577	correct	repeat	Run1	repeat/STIM_002.jpg
621.42	0.576	correct	repeat	Run1	repeat/STIM_003.jpg
625.847	0.439	correct	repeat	Run1	repeat/STIM_003.jpg
628.856	0.65	correct	repeat	Run1	repeat/STIM_003.jpg
633.117	0.57	correct	repeat	Run1	repeat/STIM_003.jpg
637.238	0.637	correct	repeat	Run1	repeat/STIM_003.jpg
641.678	0.627	correct	repeat	Run1	repeat/STIM_004.jpg
644.724	0.509	correct	repeat	Run1	repeat/STIM_004.jpg
648.013	0.515	correct	repeat	Run1	repeat/STIM_004.jpg
651.651	0.433	correct	repeat	Run1	repeat/STIM_004.jpg
654.545	0.469	correct	repeat	Run1	repeat/STIM_004.jpg
657.276	0.571	correct	repeat	Run1	repeat/STIM_005.jpg
661.238	0.549	correct	repeat	Run1	repeat/STIM_005.jpg
664.608	0.625	correct	repeat	Run1	repeat/STIM_005.jpg
667.802	0.422	correct	repeat	Run1	repeat/STIM_005.jpg
670.353	0.456	correct	repeat	Run1	repeat/STIM_005.jpg
673.221	0.684	correct	repeat	Run1	repeat/STIM_006.jpg
677.155	0.499	correct	repeat	Run1	repeat/STIM_006.jpg
681.607	0.483	correct	repeat	Run1	repeat/STIM_006.jpg
684.312	0.397	correct	repeat	Run1	repeat/STIM_006.jpg
686.934	0.563	correct	repeat	Run1	repeat/STIM_006.jpg
691.303	0.515	correct	repeat	Run1	repeat/STIM_007.jpg
694.827	0.498	correct	repeat	Run1	repeat/STIM_007.jpg
697.511	0.575	correct	repeat	Run1	repeat/STIM_007.jpg
700.31	0.406	correct	repeat	Run1	repeat/STIM_007.jpg
703.152	0.541	correct	repeat	Run1	repeat/STIM_007.jpg
706.59	0.548	correct	repeat	Run1	repeat/STIM_008.jpg
709.244	0.578	correct	repeat	Run1	repeat/STIM_008.jpg
712.861	0.629	correct	repeat	Run1	repeat/STIM_008.jpg
716.295	0.441	correct	repeat	Run1	repeat/STIM_008.jpg
718.741	0.522	correct	repeat	Run1	repeat/STIM_008.jpg
722.92	0.687	correct	repeat	Run1	repeat/STIM_009.jpg
726.344	0.664	correct	repeat	Run1	repeat/STIM_009.jpg
729.965	0.727	correct	repeat	Run1	repeat/STIM_009.jpg
733.895	0.534	correct	repeat	Run1	repeat/STIM_009.jpg
737.397	0.646	correct	repeat	Run1	repeat/STIM_009.jpg
740.971	0.564	correct	repeat	Run1	repeat/STIM_010.jpg
743.956	0.555	correct	repeat	Run1	repeat/STIM_010.jpg
747.386	0.695	correct	repeat	Run1	repeat/STIM_010.jpg
751.249	0.438	correct	repeat	Run1	repeat/STIM_010.jpg
754.149	0.745	correct	repeat	Run1	repeat/STIM_010.jpg
758.006	0.737	correct	repeat	Run1	repeat/STIM_011.jpg
761.865	0.592	incorrect	repeat	Run1	repeat/STIM_011.jpg
764.476	0.755	correct	repeat	Run1	repeat/STIM_011.jpg
767.99	0.736	correct	repeat	Run1	repeat/STIM_011.jpg
771.676	0.51	correct	repeat	Run1	repeat/STIM_011.jpg
775.979	0.626	correct	repeat	Run1	repeat/STIM_012.jpg
780.45	0.536	correct	repeat	Run1	repeat/STIM_012.jpg
784.393	0.708	correct	repeat	Run1	repeat/STIM_012.jpg
787.619	0.464	correct	repeat	Run1	repeat/STIM_012.jpg
791.609	0.419	correct	repeat	Run1	repeat/STIM_012.jpg
794.798	0.704	correct	repeat	Run1	repeat/STIM_013.jpg
797.901	0.764	correct	repeat	Run1	repeat/STIM_013.jpg
800.752	0.611	correct	repeat	Run1	repeat/STIM_013.jpg
804.648	0.506	correct	repeat	Run1	repeat/STIM_013.jpg
808.503	0.484	correct	repeat	Run1	repeat/STIM_013.jpg
811.542	0.612	correct	repeat	Run1	repeat/STIM_014.jpg
815.653	0.462	incorrect	repeat	Run1	repeat/STIM_014.jpg
819.109	0.451	correct	repeat	Run1	repeat/STIM_014.jpg
821.938	0.582	correct	repeat	Run1	repeat/STIM_014.jpg
825.573	0.745	correct	repeat	Run1	repeat/STIM_014.jpg
828.962	1.236	incorrect	generate	Run2	generate/STIM_000.jpg
832.312	0.783	correct	generate	Run2	generate/STIM_000.jpg
835.817	0.835	correct	generate	Run2	generate/STIM_000.jpg
839.242	1.015	correct	generate	Run2	generate/STIM_000.jpg
844.143	1.44	correct	generate	Run2	generate/STIM_000.jpg
847.694	1.995	correct	generate	Run2	generate/STIM_001.jpg
853.386	0.945	correct	generate	Run2	generate/STIM_001.jpg
858.264	1.594	correct	generate	Run2	generate/STIM_001.jpg
863.505	1.254	correct	generate	Run2	generate/STIM_001.jpg
868.555	1.447	correct	generate	Run2	generate/STIM_001.jpg
873.049	1.26	correct	generate	Run2	generate/STIM_002.jpg
877.257	0.88	correct	generate	Run2	generate/STIM_002.jpg
881.203	0.831	correct	generate	Run2	generate/STIM_002.jpg
884.255	1.109	correct	generate	Run2	generate/STIM_002.jpg
888.298	0.873	correct	generate	Run2	generate/STIM_002.jpg
892.556	1.974	correct	generate	Run2	generate/STIM_003.jpg
896.976	1.779	correct	generate	Run2	generate/STIM_003.jpg
901.625	1.308	correct	generate	Run2	generate/STIM_003.jpg
905.893	1.02	correct	generate	Run2	generate/STIM_003.jpg
910.272	1.144	correct	generate	Run2	generate/STIM_003.jpg
914.837	0.93	correct	generate	Run2	generate/STIM_004.jpg
918.273	1.443	correct	generate	Run2	generate/STIM_004.jpg
923.455	1.264	correct	generate	Run2	generate/STIM_004.jpg
928.001	0.885	correct	generate	Run2	generate/STIM_004.jpg
932.637	1.107	correct	generate	Run2	generate/STIM_004.jpg
937.534	0.817	correct	generate	Run2	generate/STIM_005.jpg
940.973	1.65	correct	generate	Run2	generate/STIM_005.jpg
945.565	0.947	correct	generate	Run2	generate/STIM_005.jpg
950.104	1.293	correct	generate	Run2	generate/STIM_005.jpg
953.663	1.355	correct	generate	Run2	generate/STIM_005.jpg
957.937	1.646	correct	generate	Run2	generate/STIM_006.jpg
962.676	1.475	correct	generate	Run2	generate/STIM_006.jpg
967.003	1.121	correct	generate	Run2	generate/STIM_006.jpg
971.411	1.299	correct	generate	Run2	generate/STIM_006.jpg
975.098	0.908	correct	generate	Run2	generate/STIM_006.jpg
978.461	0.976	correct	generate	Run2	generate/STIM_007.jpg
981.944	1.015	correct	generate	Run2	generate/STIM_007.jpg
986.312	1.043	correct	generate	Run2	generate/STIM_007.jpg
990.07	0.849	correct	generate	Run2	generate/STIM_007.jpg
993.132	1.112	correct	generate	Run2	generate/STIM_007.jpg
996.681	1.926	correct	generate	Run2	generate/STIM_008.jpg
1002.506	1.706	correct	generate	Run2	generate/STIM_008.jpg
1008.103	1.203	correct	generate	Run2	generate/STIM_008.jpg
1012.945	1.326	correct	generate	Run2	generate/STIM_008.jpg
1017.654	1.486	correct	generate	Run2	generate/STIM_008.jpg
1021.965	1.741	correct	generate	Run2	generate/STIM_009.jpg
1027.239	1.473	incorrect	generate	Run2	generate/STIM_009.jpg
1031.567	0.713	correct	generate	Run2	generate/STIM_009.jpg
1034.65	0.91	correct	generate	Run2	generate/STIM_009.jpg
1037.927	1.578	correct	generate	Run2	generate/STIM_009.jpg
1043.047	1.062	correct	generate	Run2	generate/STIM_010.jpg
1046.295	1.05	correct	generate	Run2	generate/STIM_010.jpg
1050.499	1.448	correct	generate	Run2	generate/STIM_010.jpg
1055.91	1.291	correct	generate	Run2	generate/STIM_010.jpg
1060.35	1.588	correct	generate	Run2	generate/STIM_010.jpg
1065.833	1.697	correct	generate	Run2	generate/STIM_011.jpg
1070.849	0.92	correct	generate	Run2	generate/STIM_011.jpg
1075.726	1.393	correct	generate	Run2	generate/STIM_011.jpg
1079.327	1.162	correct	generate	Run2	generate/STIM_011.jpg
1083.251	1.527	correct	generate	Run2	generate/STIM_011.jpg
1088.482	1.219	correct	generate	Run2	generate/STIM_012.jpg
1093.293	1.871	incorrect	generate	Run2	generate/STIM_012.jpg
1097.521	0.722	correct	generate	Run2	generate/STIM_012.jpg
1100.927	1.556	correct	generate	Run2	generate/STIM_012.jpg
1105.584	1.189	correct	generate	Run2	generate/STIM_012.jpg
1109.728	1.551	correct	generate	Run2	generate/STIM_013.jpg
1114.292	1.483	correct	generate	Run2	generate/STIM_013.jpg
1118.72	0.815	correct	generate	Run2	generate/STIM_013.jpg
1122.98	0.852	correct	generate	Run2	generate/STIM_013.jpg
1126.761	1.306	correct	generate	Run2	generate/STIM_013.jpg
1131.178	1.497	correct	generate	Run2	generate/STIM_014.jpg
1136.042	1.48	correct	generate	Run2	generate/STIM_014.jpg
1139.617	1.574	correct	generate	Run2	generate/STIM_014.jpg
1143.789	1.104	correct	generate	Run2	generate/STIM_014.jpg
1147.195	0.928	correct	generate	Run2	generate/STIM_014.jpg
1150.412	0.884	correct	generate	Run2	generate/STIM_015.jpg
1155.105	1.207	correct	generate	Run2	generate/STIM_015.jpg
1159.65	1.171	correct	generate	Run2	generate/STIM_015.jpg
1162.981	1.141	correct	generate	Run2	generate/STIM_015.jpg
1167.11	1.57	correct	generate	Run2	generate/STIM_015.jpg
1172.084	1.399	correct	generate	Run2	generate/STIM_016.jpg
1177.123	1.651	correct	generate	Run2	generate/STIM_016.jpg
1182.598	0.938	correct	generate	Run2	generate/STIM_016.jpg
1186.679	1.444	correct	generate	Run2	generate/STIM_016.jpg
1190.75	1.488	correct	generate	Run2	generate/STIM_016.jpg
1194.289	0.828	correct	generate	Run2	generate/STIM_017.jpg
1197.126	1.2	correct	generate	Run2	generate/STIM_017.jpg
1201.941	1.147	correct	generate	Run2	generate/STIM_017.jpg
1206.946	1.182	correct	generate	Run2	generate/STIM_017.jpg
1211.027	1.182	correct	generate	Run2	generate/STIM_017.jpg
1215.003	1.768	correct	generate	Run2	generate/STIM_018.jpg
1219.386	0.918	incorrect	generate	Run2	generate/STIM_018.jpg
1223.723	0.728	correct	generate	Run2	generate/STIM_018.jpg
1227.903	0.686	correct	generate	Run2	generate/STIM_018.jpg
1231.79	1.616	correct	generate	Run2	generate/STIM_018.jpg
1237.27	1.534	correct	generate	Run2	generate/STIM_019.jpg
1242.587	1.399	correct	generate	Run2	generate/STIM_019.jpg
1247.409	0.715	incorrect	generate	Run2	generate/STIM_019.jpg
1251.84	1.005	correct	generate	Run2	generate/STIM_019.jpg
1255.378	0.757	incorrect	generate	Run2	generate/STIM_019.jpg
1260.135	1.745	correct	generate	Run2	generate/STIM_020.jpg
1265.578	1.86	correct	generate	Run2	generate/STIM_020.jpg
1269.641	0.721	correct	generate	Run2	generate/STIM_020.jpg
1273.881	1.513	correct	generate	Run2	generate/STIM_020.jpg
1278.394	1.46	correct	generate	Run2	generate/STIM_020.jpg
1283.809	1.687	correct	generate	Run2	generate/STIM_021.jpg
1289.229	1.18	correct	generate	Run2	generate/STIM_021.jpg
1293.369	1.516	correct	generate	Run2	generate/STIM_021.jpg
1298.329	0.743	correct	generate	Run2	generate/STIM_021.jpg
1301.444	1.112	correct	generate	Run2	generate/STIM_021.jpg
1305.245	1.961	correct	generate	Run2	generate/STIM_022.jpg
1310.072	1.107	correct	generate	Run2	generate/STIM_022.jpg
1314.567	1.017	correct	generate	Run2	generate/STIM_022.jpg
1319.102	0.767	correct	generate	Run2	generate/STIM_022.jpg
1323.648	1.008	correct	generate	Run2	generate/STIM_022.jpg
1326.748	1.388	correct	generate	Run2	generate/STIM_023.jpg
1330.911	1.514	correct	generate	Run2	generate/STIM_023.jpg
1335.029	1.175	correct	generate	Run2	generate/STIM_023.jpg
1338.93	0.998	correct	generate	Run2	generate/STIM_023.jpg
1343.74	0.72	correct	generate	Run2	generate/STIM_023.jpg
1346.756	1.84	correct	generate	Run2	generate/STIM_024.jpg
1351.638	1.739	correct	generate	Run2	generate/STIM_024.jpg
1356.744	1.035	correct	generate	Run2	generate/STIM_024.jpg
1360.853	1.523	incorrect	generate	Run2	generate/STIM_024.jpg
1366.364	0.941	correct	generate	Run2	generate/STIM_024.jpg
1371.006	0.418	correct	repeat	Run2	repeat/STIM_000.jpg
1373.642	0.777	correct	repeat	Run2	repeat/STIM_000.jpg
1377.312	0.711	correct	repeat	Run2	repeat/STIM_000.jpg
1380.384	0.42	correct	repeat	Run2	repeat/STIM_000.jpg
1382.862	0.458	correct	repeat	Run2	repeat/STIM_000.jpg
1386.541	0.602	correct	repeat	Run2	repeat/STIM_001.jpg
1389.538	0.676	incorrect	repeat	Run2	repeat/STIM_001.jpg
1394.187	0.402	correct	repeat	Run2	repeat/STIM_001.jpg
1398.344	0.498	correct	repeat	Run2	repeat/STIM_001.jpg
1402.834	0.687	correct	repeat	Run2	repeat/STIM_001.jpg
1406.332	0.518	correct	repeat	Run2	repeat/STIM_002.jpg
1408.984	0.404	correct	repeat	Run2	repeat/STIM_002.jpg
1413.29	0.525	correct	repeat	Run2	repeat/STIM_002.jpg
1417.326	0.459	correct	repeat	Run2	repeat/STIM_002.jpg
1420.634	0.423	correct	repeat	Run2	repeat/STIM_002.jpg
1424.4	0.485	correct	repeat	Run2	repeat/STIM_003.jpg
1427.715	0.424	correct	repeat	Run2	repeat/STIM_003.jpg
1430.569	0.676	correct	repeat	Run2	repeat/STIM_003.jpg
1434.483	0.604	correct	repeat	Run2	repeat/STIM_003.jpg
1437.943	0.441	correct	repeat	Run2	repeat/STIM_003.jpg
1441.366	0.69	correct	repeat	Run2	repeat/STIM_004.jpg
1445.093	0.415	correct	repeat	Run2	repeat/STIM_004.jpg
1447.615	0.593	correct	repeat	Run2	repeat/STIM_004.jpg
1450.402	0.639	correct	repeat	Run2	repeat/STIM_004.jpg
1453.128	0.77	correct	repeat	Run2	repeat/STIM_004.jpg
1457.62	0.609	correct	repeat	Run2	repeat/STIM_005.jpg
1460.746	0.721	correct	repeat	Run2	repeat/STIM_005.jpg
1463.799	0.442	correct	repeat	Run2	repeat/STIM_005.jpg
1466.332	0.737	correct	repeat	Run2	repeat/STIM_005.jpg
1470.353	0.453	correct	repeat	Run2	repeat/STIM_005.jpg
1473.857	0.74	correct	repeat	Run2	repeat/STIM_006.jpg
1477.796	0.72	correct	repeat	Run2	repeat/STIM_006.jpg
1481.073	0.473	correct	repeat	Run2	repeat/STIM_006.jpg
1485.139	0.544	correct	repeat	Run2	repeat/STIM_006.jpg
1489.502	0.433	correct	repeat	Run2	repeat/STIM_006.jpg
1492.134	0.453	correct	repeat	Run2	repeat/STIM_007.jpg
1496.511	0.54	correct	repeat	Run2	repeat/STIM_007.jpg
1500.613	0.559	correct	repeat	Run2	repeat/STIM_007.jpg
1503.977	0.637	correct	repeat	Run2	repeat/STIM_007.jpg
1507.448	0.658	correct	repeat	Run2	repeat/STIM_007.jpg
1511.892	0.494	correct	repeat	Run2	repeat/STIM_008.jpg
1515.736	0.574	correct	repeat	Run2	repeat/STIM_008.jpg
1519.29	0.456	correct	repeat	Run2	repeat/STIM_008.jpg
1522.844	0.666	correct	repeat	Run2	repeat/STIM_008.jpg
1526.79	0.608	correct	repeat	Run2	repeat/STIM_008.jpg
1530.109	0.426	correct	repeat	Run2	repeat/STIM_009.jpg
1533.19	0.765	correct	repeat	Run2	repeat/STIM_009.jpg
1537.653	0.609	correct	repeat	Run2	repeat/STIM_009.jpg
1540.961	0.744	correct	repeat	Run2	repeat/STIM_009.jpg
1545.142	0.604	correct	repeat	Run2	repeat/STIM_009.jpg
1549.441	0.676	correct	repeat	Run2	repeat/STIM_010.jpg
1553.2	0.462	correct	repeat	Run2	repeat/STIM_010.jpg
1556.412	0.668	correct	repeat	Run2	repeat/STIM_010.jpg
1560.561	0.444	correct	repeat	Run2	repeat/STIM_010.jpg
1564.058	0.435	correct	repeat	Run2	repeat/STIM_010.jpg
1567.478	0.776	correct	repeat	Run2	repeat/STIM_011.jpg
1572.139	0.696	correct	repeat	Run2	repeat/STIM_011.jpg
1576.558	0.676	incorrect	repeat	Run2	repeat/STIM_011.jpg
1580.532	0.754	incorrect	repeat	Run2	repeat/STIM_011.jpg
1584.615	0.612	correct	repeat	Run2	repeat/STIM_011.jpg
1587.529	0.656	correct	repeat	Run2	repeat/STIM_012.jpg
1591.231	0.532	correct	repeat	Run2	repeat/STIM_012.jpg
1595.288	0.502	correct	repeat	Run2	repeat/STIM_012.jpg
1597.844	0.63	correct	repeat	Run2	repeat/STIM_012.jpg
1601.271	0.536	incorrect	repeat	Run2	repeat/STIM_012.jpg
1604.949	0.606	correct	repeat	Run2	repeat/STIM_013.jpg
1609.299	0.758	correct	repeat	Run2	repeat/STIM_013.jpg
1614.032	0.663	correct	repeat	Run2	repeat/STIM_013.jpg
1617.762	0.534	correct	repeat	Run2	repeat/STIM_013.jpg
1620.953	0.622	correct	repeat	Run2	repeat/STIM_013.jpg
1624.606	0.606	correct	repeat	Run2	repeat/STIM_014.jpg
1628.415	0.602	correct	repeat	Run2	repeat/STIM_014.jpg
1632.023	0.622	correct	repeat	Run2	repeat/STIM_014.jpg
1635.597	0.546	correct	repeat	Run2	repeat/STIM_014.jpg
1639.574	0.483	correct	repeat	Run2	repeat/STIM_014.jpg
1642.376	1.588	correct	generate	Run3	generate/STIM_000.jpg
1647.012	1.555	correct	generate	Run3	generate/STIM_000.jpg
1650.663	1.053	correct	generate	Run3	generate/STIM_000.jpg
1653.821	1.576	correct	generate	Run3	generate/STIM_000.jpg
1657.609	1.229	correct	generate	Run3	generate/STIM_000.jpg
1660.838	0.895	correct	generate	Run3	generate/STIM_001.jpg
1665.171	1.626	correct	generate	Run3	generate/STIM_001.jpg
1669.746	1.026	correct	generate	Run3	generate/STIM_001.jpg
1673.741	1.599	correct	generate	Run3	generate/STIM_001.jpg
1677.34	1.482	correct	generate	Run3	generate/STIM_001.jpg
1682.175	0.856	correct	generate	Run3	generate/STIM_002.jpg
1685.742	0.996	correct	generate	Run3	generate/STIM_002.jpg
1688.753	0.914	correct	generate	Run3	generate/STIM_002.jpg
1691.764	1.066	correct	generate	Run3	generate/STIM_002.jpg
1696.609	0.782	correct	generate	Run3	generate/STIM_002.jpg
1701.151	1.338	correct	generate	Run3	generate/STIM_003.jpg
1706.482	1.204	correct	generate	Run3	generate/STIM_003.jpg
1711.223	1.373	correct	generate	Run3	generate/STIM_003.jpg
1716.291	0.764	correct	generate	Run3	generate/STIM_003.jpg
1720.107	1.001	correct	generate	Run3	generate/STIM_003.jpg
1724.495	1.215	correct	generate	Run3	generate/STIM_004.jpg
1729.134	1.268	correct	generate	Run3	generate/STIM_004.jpg
1732.475	1.104	correct	generate	Run3	generate/STIM_004.jpg
1735.873	0.806	correct	generate	Run3	generate/STIM_004.jpg
1739.693	0.936	correct	generate	Run3	generate/STIM_004.jpg
1743.62	1.387	correct	generate	Run3	generate/STIM_005.jpg
1748.929	0.847	correct	generate	Run3	generate/STIM_005.jpg
1752.203	1.523	correct	generate	Run3	generate/STIM_005.jpg
1757.158	1.51	correct	generate	Run3	generate/STIM_005.jpg
1761.303	1.311	correct	generate	Run3	generate/STIM_005.jpg
1765.288	1.118	correct	generate	Run3	generate/STIM_006.jpg
1769.659	1.492	correct	generate	Run3	generate/STIM_006.jpg
1774.806	1.366	correct	generate	Run3	generate/STIM_006.jpg
1780.061	0.801	correct	generate	Run3	generate/STIM_006.jpg
1784.239	0.958	correct	generate	Run3	generate/STIM_006.jpg
1787.699	1.32	correct	generate	Run3	generate/STIM_007.jpg
1791.447	1.271	correct	generate	Run3	generate/STIM_007.jpg
1796.68	0.977	correct	generate	Run3	generate/STIM_007.jpg
1799.977	1.329	correct	generate	Run3	generate/STIM_007.jpg
1804.199	1.121	correct	generate	Run3	generate/STIM_007.jpg
1809.119	0.663	correct	generate	Run3	generate/STIM_008.jpg
1812.509	1.52	correct	generate	Run3	generate/STIM_008.jpg
1817.965	1.26	correct	generate	Run3	generate/STIM_008.jpg
1822.816	0.778	correct	generate	Run3	generate/STIM_008.jpg
1826.757	1.059	correct	generate	Run3	generate/STIM_008.jpg
1831.296	0.935	correct	generate	Run3	generate/STIM_009.jpg
1835.092	0.994	correct	generate	Run3	generate/STIM_009.jpg
1839.74	0.926	correct	generate	Run3	generate/STIM_009.jpg
1844.267	0.887	correct	generate	Run3	generate/STIM_009.jpg
1848.118	1.608	correct	generate	Run3	generate/STIM_009.jpg
1852.718	1.106	correct	generate	Run3	generate/STIM_010.jpg
1856.36	0.815	correct	generate	Run3	generate/STIM_010.jpg
1859.538	1.032	correct	generate	Run3	generate/STIM_010.jpg
1863.547	1.445	correct	generate	Run3	generate/STIM_010.jpg
1867.111	1.502	correct	generate	Run3	generate/STIM_010.jpg
1870.801	0.734	correct	generate	Run3	generate/STIM_011.jpg
1875.104	1.312	correct	generate	Run3	generate/STIM_011.jpg
1879.741	0.661	correct	generate	Run3	generate/STIM_011.jpg
1884.011	0.772	correct	generate	Run3	generate/STIM_011.jpg
1888.481	0.788	correct	generate	Run3	generate/STIM_011.jpg
1891.693	0.678	correct	generate	Run3	generate/STIM_012.jpg
1895.389	1.167	correct	generate	Run3	generate/STIM_012.jpg
1899.539	1.28	correct	generate	Run3	generate/STIM_012.jpg
1904.711	1.026	correct	generate	Run3	generate/STIM_012.jpg
1908.893	0.958	correct	generate	Run3	generate/STIM_012.jpg
1912.63	1.028	correct	generate	Run3	generate/STIM_013.jpg
1916.888	1.555	correct	generate	Run3	generate/STIM_013.jpg
1920.477	1.488	correct	generate	Run3	generate/STIM_013.jpg
1925.235	1.391	correct	generate	Run3	generate/STIM_013.jpg
1930.587	1.01	correct	generate	Run3	generate/STIM_013.jpg
1934.814	1.516	correct	generate	Run3	generate/STIM_014.jpg
1938.587	1.444	correct	generate	Run3	generate/STIM_014.jpg
1942.516	1.165	correct	generate	Run3	generate/STIM_014.jpg
1946.845	1.438	correct	generate	Run3	generate/STIM_014.jpg
1951.916	0.841	correct	generate	Run3	generate/STIM_014.jpg
1956.367	0.808	correct	generate	Run3	generate/STIM_015.jpg
1960.614	0.688	correct	generate	Run3	generate/STIM_015.jpg
1964.985	1.456	correct	generate	Run3	generate/STIM_015.jpg
1968.897	1.391	correct	generate	Run3	generate/STIM_015.jpg
1973.3	1.117	correct	generate	Run3	generate/STIM_015.jpg
1978.392	1.42	correct	generate	Run3	generate/STIM_016.jpg
1982.644	1.368	correct	generate	Run3	generate/STIM_016.jpg
1986.054	1.641	incorrect	generate	Run3	generate/STIM_016.jpg
1991.024	1.294	correct	generate	Run3	generate/STIM_016.jpg
1995.818	1.43	correct	generate	Run3	generate/STIM_016.jpg
1999.649	1.549	correct	generate	Run3	generate/STIM_017.jpg
2004.168	1.111	correct	generate	Run3	generate/STIM_017.jpg
2008.351	1.56	correct	generate	Run3	generate/STIM_017.jpg
2013.189	0.967	correct	generate	Run3	generate/STIM_017.jpg
2016.477	0.925	correct	generate	Run3	generate/STIM_017.jpg
2020.445	0.879	correct	generate	Run3	generate/STIM_018.jpg
2023.362	0.662	correct	generate	Run3	generate/STIM_018.jpg
2027.621	0.965	correct	generate	Run3	generate/STIM_018.jpg
2031.282	0.715	incorrect	generate	Run3	generate/STIM_018.jpg
2034.327	1.545	correct	generate	Run3	generate/STIM_018.jpg
2039.283	1.265	correct	generate	Run3	generate/STIM_019.jpg
2044.213	0.756	correct	generate	Run3	generate/STIM_019.jpg
2048.881	0.728	correct	generate	Run3	generate/STIM_019.jpg
2052.222	1.544	correct	generate	Run3	generate/STIM_019.jpg
2057.559	1.112	correct	generate	Run3	generate/STIM_019.jpg
2061.395	1.6	correct	generate	Run3	generate/STIM_020.jpg
2066.861	1.045	correct	generate	Run3	generate/STIM_020.jpg
2070.811	1.245	correct	generate	Run3	generate/STIM_020.jpg
2075.418	1.484	correct	generate	Run3	generate/STIM_020.jpg
2079.934	0.765	incorrect	generate	Run3	generate/STIM_020.jpg
2083.876	0.667	correct	generate	Run3	generate/STIM_021.jpg
2087.292	0.954	correct	generate	Run3	generate/STIM_021.jpg
2090.911	0.719	correct	generate	Run3	generate/STIM_021.jpg
2094.872	0.761	correct	generate	Run3	generate/STIM_021.jpg
2099.203	1.3	correct	generate	Run3	generate/STIM_021.jpg
2104.003	1.185	correct	generate	Run3	generate/STIM_022.jpg
2107.309	1.031	correct	generate	Run3	generate/STIM_022.jpg
2112.166	1.34	correct	generate	Run3	generate/STIM_022.jpg
2115.559	1.238	correct	generate	Run3	generate/STIM_022.jpg
2120.05	1.2	correct	generate	Run3	generate/STIM_022.jpg
2125.086	1.201	correct	generate	Run3	generate/STIM_023.jpg
2128.899	0.701	correct	generate	Run3	generate/STIM_023.jpg
2132.001	1.102	correct	generate	Run3	generate/STIM_023.jpg
2135.872	0.843	correct	generate	Run3	generate/STIM_023.jpg
2140.119	1.317	correct	generate	Run3	generate/STIM_023.jpg
2143.987	1.495	correct	generate	Run3	generate/STIM_024.jpg
2147.916	1.069	correct	generate	Run3	generate/STIM_024.jpg
2151.035	1.278	correct	generate	Run3	generate/STIM_024.jpg
2155.406	1.013	correct	generate	Run3	generate/STIM_024.jpg
2160.187	1.076	correct	generate	Run3	generate/STIM_024.jpg
2165.066	0.407	correct	repeat	Run3	repeat/STIM_000.jpg
2168.321	0.511	correct	repeat	Run3	repeat/STIM_000.jpg
2172.144	0.748	correct	repeat	Run3	repeat/STIM_000.jpg
2175.298	0.579	correct	repeat	Run3	repeat/STIM_000.jpg
2179.196	0.67	correct	repeat	Run3	repeat/STIM_000.jpg
2182.8	0.684	correct	repeat	Run3	repeat/STIM_001.jpg
2187.285	0.451	correct	repeat	Run3	repeat/STIM_001.jpg
2191.146	0.71	correct	repeat	Run3	repeat/STIM_001.jpg
2195.323	0.584	correct	repeat	Run3	repeat/STIM_001.jpg
2199.217	0.728	correct	repeat	Run3	repeat/STIM_001.jpg
2203.596	0.75	correct	repeat	Run3	repeat/STIM_002.jpg
2207.455	0.476	correct	repeat	Run3	repeat/STIM_002.jpg
2211.786	0.565	correct	repeat	Run3	repeat/STIM_002.jpg
2215.58	0.597	correct	repeat	Run3	repeat/STIM_002.jpg
2220.132	0.658	correct	repeat	Run3	repeat/STIM_002.jpg
2224.527	0.764	correct	repeat	Run3	repeat/STIM_003.jpg
2227.784	0.749	correct	repeat	Run3	repeat/STIM_003.jpg
2231.392	0.752	correct	repeat	Run3	repeat/STIM_003.jpg
2235.125	0.709	correct	repeat	Run3	repeat/STIM_003.jpg
2239.22	0.518	correct	repeat	Run3	repeat/STIM_003.jpg
2242.199	0.675	correct	repeat	Run3	repeat/STIM_004.jpg
2245.556	0.718	correct	repeat	Run3	repeat/STIM_004.jpg
2249.37	0.557	correct	repeat	Run3	repeat/STIM_004.jpg
2253.852	0.639	correct	repeat	Run3	repeat/STIM_004.jpg
2258.348	0.53	correct	repeat	Run3	repeat/STIM_004.jpg
2262.842	0.758	correct	repeat	Run3	repeat/STIM_005.jpg
2265.918	0.776	correct	repeat	Run3	repeat/STIM_005.jpg
2269.539	0.719	correct	repeat	Run3	repeat/STIM_005.jpg
2274.014	0.499	correct	repeat	Run3	repeat/STIM_005.jpg
2277.707	0.544	correct	repeat	Run3	repeat/STIM_005.jpg
2281.442	0.571	correct	repeat	Run3	repeat/STIM_006.jpg
2285.534	0.675	correct	repeat	Run3	repeat/STIM_006.jpg
2289.822	0.432	correct	repeat	Run3	repeat/STIM_006.jpg
2293.784	0.643	correct	repeat	Run3	repeat/STIM_006.jpg
2297.749	0.623	correct	repeat	Run3	repeat/STIM_006.jpg
2301.493	0.515	correct	repeat	Run3	repeat/STIM_007.jpg
2304.736	0.703	correct	repeat	Run3	repeat/STIM_007.jpg
2308.266	0.566	correct	repeat	Run3	repeat/STIM_007.jpg
2311.01	0.483	correct	repeat	Run3	repeat/STIM_007.jpg
2313.759	0.67	correct	repeat	Run3	repeat/STIM_007.jpg
2317.381	0.705	correct	repeat	Run3	repeat/STIM_008.jpg
2321.604	0.613	correct	repeat	Run3	repeat/STIM_008.jpg
2324.687	0.588	correct	repeat	Run3	repeat/STIM_008.jpg
2328.236	0.717	correct	repeat	Run3	repeat/STIM_008.jpg
2332.853	0.573	correct	repeat	Run3	repeat/STIM_008.jpg
2336.17	0.51	correct	repeat	Run3	repeat/STIM_009.jpg
2338.955	0.546	correct	repeat	Run3	repeat/STIM_009.jpg
2341.528	0.644	correct	repeat	Run3	repeat/STIM_009.jpg
2345.883	0.625	correct	repeat	Run3	repeat/STIM_009.jpg
2349.758	0.589	correct	repeat	Run3	repeat/STIM_009.jpg
2352.79	0.602	correct	repeat	Run3	repeat/STIM_010.jpg
2357.236	0.448	correct	repeat	Run3	repeat/STIM_010.jpg
2361.162	0.461	correct	repeat	Run3	repeat/STIM_010.jpg
2365.483	0.745	correct	repeat	Run3	repeat/STIM_010.jpg
2370.028	0.618	correct	repeat	Run3	repeat/STIM_010.jpg
2374.243	0.609	correct	repeat	Run3	repeat/STIM_011.jpg
2378.672	0.54	correct	repeat	Run3	repeat/STIM_011.jpg
2382.553	0.713	correct	repeat	Run3	repeat/STIM_011.jpg
2386.655	0.488	correct	repeat	Run3	repeat/STIM_011.jpg
2390.42	0.642	correct	repeat	Run3	repeat/STIM_011.jpg
2394.839	0.647	correct	repeat	Run3	repeat/STIM_012.jpg
2397.684	0.763	correct	repeat	Run3	repeat/STIM_012.jpg
2401.604	0.545	correct	repeat	Run3	repeat/STIM_012.jpg
2404.98	0.696	correct	repeat	Run3	repeat/STIM_012.jpg
2408.577	0.773	correct	repeat	Run3	repeat/STIM_012.jpg
2412.245	0.574	correct	repeat	Run3	repeat/STIM_013.jpg
2415.487	0.712	correct	repeat	Run3	repeat/STIM_013.jpg
2419.854	0.557	correct	repeat	Run3	repeat/STIM_013.jpg
2423.921	0.578	correct	repeat	Run3	repeat/STIM_013.jpg
2427.016	0.686	incorrect	repeat	Run3	repeat/STIM_013.jpg
2431.564	0.722	correct	repeat	Run3	repeat/STIM_014.jpg
2435.017	0.65	correct	repeat	Run3	repeat/STIM_014.jpg
2438.918	0.609	correct	repeat	Run3	repeat/STIM_014.jpg
2443.408	0.624	correct	repeat	Run3	repeat/STIM_014.jpg
2447.176	0.518	correct	repeat	Run3	repeat/STIM_014.jpg
2449.893	1.609	correct	generate	Run4	generate/STIM_000.jpg
2455.224	0.709	correct	generate	Run4	generate/STIM_000.jpg
2459.487	0.835	correct	generate	Run4	generate/STIM_000.jpg
2463.791	1.055	correct	generate	Run4	generate/STIM_000.jpg
2468.428	0.815	incorrect	generate	Run4	generate/STIM_000.jpg
2472.965	0.734	correct	generate	Run4	generate/STIM_001.jpg
2477.279	1.189	correct	generate	Run4	generate/STIM_001.jpg
2481.164	0.966	correct	generate	Run4	generate/STIM_001.jpg
2485.005	0.798	incorrect	generate	Run4	generate/STIM_001.jpg
2489.107	1.07	correct	generate	Run4	generate/STIM_001.jpg
2493.666	1.415	correct	generate	Run4	generate/STIM_002.jpg
2497.085	1.412	correct	generate	Run4	generate/STIM_002.jpg
2501.755	0.762	correct	generate	Run4	generate/STIM_002.jpg
2505.01	1.243	correct	generate	Run4	generate/STIM_002.jpg
2509.242	1.046	correct	generate	Run4	generate/STIM_002.jpg
2513.488	1.484	correct	generate	Run4	generate/STIM_003.jpg
2518.491	1.453	correct	generate	Run4	generate/STIM_003.jpg
2523.351	1.536	correct	generate	Run4	generate/STIM_003.jpg
2527.424	1.579	correct	generate	Run4	generate/STIM_003.jpg
2532.58	0.777	correct	generate	Run4	generate/STIM_003.jpg
2536.472	1.243	correct	generate	Run4	generate/STIM_004.jpg
2540.731	1.071	correct	generate	Run4	generate/STIM_004.jpg
2543.814	1.385	correct	generate	Run4	generate/STIM_004.jpg
2547.391	1.018	correct	generate	Run4	generate/STIM_004.jpg
2551.82	0.694	correct	generate	Run4	generate/STIM_004.jpg
2556.145	1.642	correct	generate	Run4	generate/STIM_005.jpg
2560.51	1.206	correct	generate	Run4	generate/STIM_005.jpg
2563.948	0.928	correct	generate	Run4	generate/STIM_005.jpg
2567.022	1.62	correct	generate	Run4	generate/STIM_005.jpg
2571.756	1.366	correct	generate	Run4	generate/STIM_005.jpg
2576.136	1.558	correct	generate	Run4	generate/STIM_006.jpg
2580.277	0.993	correct	generate	Run4	generate/STIM_006.jpg
2585.236	1.23	correct	generate	Run4	generate/STIM_006.jpg
2588.837	1.491	correct	generate	Run4	generate/STIM_006.jpg
2592.437	0.739	correct	generate	Run4	generate/STIM_006.jpg
2596.608	1.36	correct	generate	Run4	generate/STIM_007.jpg
2600.555	1.471	correct	generate	Run4	generate/STIM_007.jpg
2605.434	1.625	correct	generate	Run4	generate/STIM_007.jpg
2610.436	1.419	correct	generate	Run4	generate/STIM_007.jpg
2614.134	1.568	correct	generate	Run4	generate/STIM_007.jpg
2618.507	1.028	correct	generate	Run4	generate/STIM_008.jpg
2622.18	1.251	correct	generate	Run4	generate/STIM_008.jpg
2626.272	1.082	correct	generate	Run4	generate/STIM_008.jpg
2629.778	1.603	correct	generate	Run4	generate/STIM_008.jpg
2634.387	1.534	correct	generate	Run4	generate/STIM_008.jpg
2638.223	1.398	correct	generate	Run4	generate/STIM_009.jpg
2642.088	0.974	correct	generate	Run4	generate/STIM_009.jpg
2645.946	1.584	correct	generate	Run4	generate/STIM_009.jpg
2651.41	1.306	correct	generate	Run4	generate/STIM_009.jpg
2656.437	1.441	correct	generate	Run4	generate/STIM_009.jpg
2659.911	1.39	correct	generate	Run4	generate/STIM_010.jpg
2663.923	1.174	incorrect	generate	Run4	generate/STIM_010.jpg
2667.116	1.489	correct	generate	Run4	generate/STIM_010.jpg
2671.386	1.326	correct	generate	Run4	generate/STIM_010.jpg
2676.307	0.884	correct	generate	Run4	generate/STIM_010.jpg
2681.051	0.942	correct	generate	Run4	generate/STIM_011.jpg
2685.626	1.13	correct	generate	Run4	generate/STIM_011.jpg
2689.808	0.787	correct	generate	Run4	generate/STIM_011.jpg
2693.709	1.142	incorrect	generate	Run4	generate/STIM_011.jpg
2698.127	0.876	correct	generate	Run4	generate/STIM_011.jpg
2702.527	0.924	correct	generate	Run4	generate/STIM_012.jpg
2705.85	1.209	correct	generate	Run4	generate/STIM_012.jpg
2709.17	1.574	correct	generate	Run4	generate/STIM_012.jpg
2713.581	1.486	correct	generate	Run4	generate/STIM_012.jpg
2718.857	1.064	correct	generate	Run4	generate/STIM_012.jpg
2722.603	0.994	correct	generate	Run4	generate/STIM_013.jpg
2726.734	1.07	correct	generate	Run4	generate/STIM_013.jpg
2731.385	1.16	correct	generate	Run4	generate/STIM_013.jpg
2736.411	1.178	correct	generate	Run4	generate/STIM_013.jpg
2740.804	1.151	correct	generate	Run4	generate/STIM_013.jpg
2744.712	0.854	correct	generate	Run4	generate/STIM_014.jpg
2748.349	1.235	correct	generate	Run4	generate/STIM_014.jpg
2753.506	1.356	correct	generate	Run4	generate/STIM_014.jpg
2757.587	0.848	correct	generate	Run4	generate/STIM_014.jpg
2760.456	1.242	correct	generate	Run4	generate/STIM_014.jpg
2763.793	1.524	correct	generate	Run4	generate/STIM_015.jpg
2769.012	1.405	correct	generate	Run4	generate/STIM_015.jpg
2773.721	1.253	correct	generate	Run4	generate/STIM_015.jpg
2778.434	1.308	correct	generate	Run4	generate/STIM_015.jpg
2783.572	0.669	correct	generate	Run4	generate/STIM_015.jpg
2787.424	1.498	correct	generate	Run4	generate/STIM_016.jpg
2791.524	0.753	correct	generate	Run4	generate/STIM_016.jpg
2796.094	1.466	correct	generate	Run4	generate/STIM_016.jpg
2800.474	1.469	correct	generate	Run4	generate/STIM_016.jpg
2804.993	0.819	correct	generate	Run4	generate/STIM_016.jpg
2808.936	1.294	correct	generate	Run4	generate/STIM_017.jpg
2812.727	0.958	correct	generate	Run4	generate/STIM_017.jpg
2816.387	1.222	correct	generate	Run4	generate/STIM_017.jpg
2820.379	1.074	correct	generate	Run4	generate/STIM_017.jpg
2824.744	1.09	correct	generate	Run4	generate/STIM_017.jpg
2828.977	1.617	correct	generate	Run4	generate/STIM_018.jpg
2833.679	1.346	correct	generate	Run4	generate/STIM_018.jpg
2838.157	1.308	correct	generate	Run4	generate/STIM_018.jpg
2842.217	1.434	correct	generate	Run4	generate/STIM_018.jpg
2846.763	1.028	correct	generate	Run4	generate/STIM_018.jpg
2850.834	0.676	correct	generate	Run4	generate/STIM_019.jpg
2854.823	1.184	correct	generate	Run4	generate/STIM_019.jpg
2859.19	1.027	correct	generate	Run4	generate/STIM_019.jpg
2863.666	1.48	correct	generate	Run4	generate/STIM_019.jpg
2868.588	1.347	correct	generate	Run4	generate/STIM_019.jpg
2873.082	0.676	correct	generate	Run4	generate/STIM_020.jpg
2876.461	1.483	correct	generate	Run4	generate/STIM_020.jpg
2881.415	1.113	correct	generate	Run4	generate/STIM_020.jpg
2885.219	0.999	correct	generate	Run4	generate/STIM_020.jpg
2888.824	0.883	correct	generate	Run4	generate/STIM_020.jpg
2892.765	1.014	correct	generate	Run4	generate/STIM_021.jpg
2896.558	0.906	correct	generate	Run4	generate/STIM_021.jpg
2900.371	0.886	correct	generate	Run4	generate/STIM_021.jpg
2903.744	0.703	correct	generate	Run4	generate/STIM_021.jpg
2907.703	0.801	correct	generate	Run4	generate/STIM_021.jpg
2912.501	1.444	correct	generate	Run4	generate/STIM_022.jpg
2917.332	0.978	correct	generate	Run4	generate/STIM_022.jpg
2921.745	1.631	correct	generate	Run4	generate/STIM_022.jpg
2926.386	0.964	correct	generate	Run4	generate/STIM_022.jpg
2929.399	0.659	correct	generate	Run4	generate/STIM_022.jpg
2932.089	0.752	correct	generate	Run4	generate/STIM_023.jpg
2935.216	1.307	correct	generate	Run4	generate/STIM_023.jpg
2938.621	0.82	correct	generate	Run4	generate/STIM_023.jpg
2942.259	1.18	correct	generate	Run4	generate/STIM_023.jpg
2946.192	1.276	correct	generate	Run4	generate/STIM_023.jpg
2950.603	1.033	correct	generate	Run4	generate/STIM_024.jpg
2954.473	1.63	correct	generate	Run4	generate/STIM_024.jpg
2958.152	0.875	correct	generate	Run4	generate/STIM_024.jpg
2962.16	1.048	correct	generate	Run4	generate/STIM_024.jpg
2966.765	1.362	correct	generate	Run4	generate/STIM_024.jpg
2971.988	0.583	correct	repeat	Run4	repeat/STIM_000.jpg
2975.572	0.392	correct	repeat	Run4	repeat/STIM_000.jpg
2978.585	0.683	correct	repeat	Run4	repeat/STIM_000.jpg
2981.44	0.512	correct	repeat	Run4	repeat/STIM_000.jpg
2984.412	0.626	correct	repeat	Run4	repeat/STIM_000.jpg
2988.93	0.551	correct	repeat	Run4	repeat/STIM_001.jpg
2992.89	0.443	correct	repeat	Run4	repeat/STIM_001.jpg
2996.966	0.762	correct	repeat	Run4	repeat/STIM_001.jpg
2999.954	0.456	correct	repeat	Run4	repeat/STIM_001.jpg
3003.585	0.436	correct	repeat	Run4	repeat/STIM_001.jpg
3007.392	0.541	correct	repeat	Run4	repeat/STIM_002.jpg
3011.085	0.724	correct	repeat	Run4	repeat/STIM_002.jpg
3015.3	0.526	correct	repeat	Run4	repeat/STIM_002.jpg
3018.142	0.62	correct	repeat	Run4	repeat/STIM_002.jpg
3021.5	0.658	correct	repeat	Run4	repeat/STIM_002.jpg
3025.609	0.48	correct	repeat	Run4	repeat/STIM_003.jpg
3029.345	0.612	correct	repeat	Run4	repeat/STIM_003.jpg
3031.959	0.443	correct	repeat	Run4	repeat/STIM_003.jpg
3035.791	0.417	correct	repeat	Run4	repeat/STIM_003.jpg
3039.086	0.614	correct	repeat	Run4	repeat/STIM_003.jpg
3041.757	0.521	correct	repeat	Run4	repeat/STIM_004.jpg
3045.709	0.462	correct	repeat	Run4	repeat/STIM_004.jpg
3050.166	0.734	correct	repeat	Run4	repeat/STIM_004.jpg
3054.592	0.76	correct	repeat	Run4	repeat/STIM_004.jpg
3058.079	0.637	correct	repeat	Run4	repeat/STIM_004.jpg
3062.144	0.413	correct	repeat	Run4	repeat/STIM_005.jpg
3066.261	0.629	correct	repeat	Run4	repeat/STIM_005.jpg
3069.272	0.596	correct	repeat	Run4	repeat/STIM_005.jpg
3073.366	0.724	correct	repeat	Run4	repeat/STIM_005.jpg
3077.021	0.592	correct	repeat	Run4	repeat/STIM_005.jpg
3080.13	0.702	correct	repeat	Run4	repeat/STIM_006.jpg
3083.523	0.464	correct	repeat	Run4	repeat/STIM_006.jpg
3086.755	0.524	correct	repeat	Run4	repeat/STIM_006.jpg
3090.02	0.449	correct	repeat	Run4	repeat/STIM_006.jpg
3094.248	0.75	correct	repeat	Run4	repeat/STIM_006.jpg
3098.498	0.47	correct	repeat	Run4	repeat/STIM_007.jpg
3101.761	0.495	correct	repeat	Run4	repeat/STIM_007.jpg
3104.891	0.479	correct	repeat	Run4	repeat/STIM_007.jpg
3107.662	0.596	correct	repeat	Run4	repeat/STIM_007.jpg
3111.23	0.403	correct	repeat	Run4	repeat/STIM_007.jpg
3114.534	0.733	correct	repeat	Run4	repeat/STIM_008.jpg
3117.877	0.592	correct	repeat	Run4	repeat/STIM_008.jpg
3120.87	0.685	correct	repeat	Run4	repeat/STIM_008.jpg
3124.021	0.694	correct	repeat	Run4	repeat/STIM_008.jpg
3127.109	0.766	correct	repeat	Run4	repeat/STIM_008.jpg
3130.919	0.664	correct	repeat	Run4	repeat/STIM_009.jpg
3134.511	0.61	correct	repeat	Run4	repeat/STIM_009.jpg
3138.467	0.53	correct	repeat	Run4	repeat/STIM_009.jpg
3142.015	0.436	correct	repeat	Run4	repeat/STIM_009.jpg
3146.045	0.517	correct	repeat	Run4	repeat/STIM_009.jpg
3149.625	0.585	correct	repeat	Run4	repeat/STIM_010.jpg
3152.722	0.479	correct	repeat	Run4	repeat/STIM_010.jpg
3155.972	0.56	correct	repeat	Run4	repeat/STIM_010.jpg
3160.061	0.502	incorrect	repeat	Run4	repeat/STIM_010.jpg
3163.046	0.416	correct	repeat	Run4	repeat/STIM_010.jpg
3167.355	0.639	correct	repeat	Run4	repeat/STIM_011.jpg
3171.922	0.577	correct	repeat	Run4	repeat/STIM_011.jpg
3175.843	0.608	correct	repeat	Run4	repeat/STIM_011.jpg
3179.516	0.763	correct	repeat	Run4	repeat/STIM_011.jpg
3183.595	0.434	correct	repeat	Run4	repeat/STIM_011.jpg
3186.957	0.454	correct	repeat	Run4	repeat/STIM_012.jpg
3190.054	0.484	correct	repeat	Run4	repeat/STIM_012.jpg
3192.56	0.755	correct	repeat	Run4	repeat/STIM_012.jpg
3195.531	0.558	correct	repeat	Run4	repeat/STIM_012.jpg
3198.914	0.527	correct	repeat	Run4	repeat/STIM_012.jpg
3202.205	0.723	correct	repeat	Run4	repeat/STIM_013.jpg
3205.901	0.782	correct	repeat	Run4	repeat/STIM_013.jpg
3210.621	0.557	correct	repeat	Run4	repeat/STIM_013.jpg
3213.669	0.693	correct	repeat	Run4	repeat/STIM_013.jpg
3217.512	0.549	correct	repeat	Run4	repeat/STIM_013.jpg
3220.23	0.56	correct	repeat	Run4	repeat/STIM_014.jpg
3224.226	0.606	correct	repeat	Run4	repeat/STIM_014.jpg
3226.914	0.778	correct	repeat	Run4	repeat/STIM_014.jpg
3230.002	0.568	correct	repeat	Run4	repeat/STIM_014.jpg
3233.169	0.664	correct	repeat	Run4	repeat/STIM_014.jpg
