onset	duration	response_time_ms	trial_type	learning_stage	stimulus	response_port
0.0	0.962	961.8	2back	Block1	2back/STIM_000.jpg	99
3.532	0.586	585.7	2back	Block1	2back/STIM_000.jpg	99
7.152	0.548	548.0	2back	Block1	2back/STIM_000.jpg	100
9.866	1.197	1197.1	2back	Block1	2back/STIM_001.jpg	99
14.082	1.134	1133.6	2back	Block1	2back/STIM_001.jpg	100
18.626	1.103	1103.2	2back	Block1	2back/STIM_001.jpg	99
23.453	1.16	1159.7	2back	Block1	2back/STIM_002.jpg	100
27.309	1.18	1179.7	2back	Block1	2back/STIM_002.jpg	99
31.469	0.992	992.2	2back	Block1	2back/STIM_002.jpg	100
34.84	0.959	959.1	2back	Block1	2back/STIM_003.jpg	99
39.363	0.808	808.4	2back	Block1	2back/STIM_003.jpg	99
42.888	0.897	896.8	2back	Block1	2back/STIM_003.jpg	99
46.372	0.555	555.0	2back	Block1	2back/STIM_004.jpg	100
50.001	0.747	747.3	2back	Block1	2back/STIM_004.jpg	99
53.84	0.635	635.3	2back	Block1	2back/STIM_004.jpg	99
57.307	0.904	904.5	2back	Block1	2back/STIM_005.jpg	99
61.76	0.663	662.6	2back	Block1	2back/STIM_005.jpg	99
64.595	1.2	1199.8	2back	Block1	2back/STIM_005.jpg	99
68.669	0.997	997.2	2back	Block1	2back/STIM_006.jpg	99
73.167	0.968	967.7	2back	Block1	2back/STIM_006.jpg	100
77.408	0.936	935.9	2back	Block1	2back/STIM_006.jpg	99
80.771	1.215	1215.3	2back	Block1	2back/STIM_007.jpg	100
84.76	1.069	1068.9	2back	Block1	2back/STIM_007.jpg	100
88.727	1.096	1096.0	2back	Block1	2back/STIM_007.jpg	99
93.276	1.185	1185.1	2back	Block1	2back/STIM_008.jpg	99
98.382	0.638	637.9	2back	Block1	2back/STIM_008.jpg	100
102.724	0.623	622.6	2back	Block1	2back/STIM_008.jpg	100
105.722	0.903	903.1	2back	Block1	2back/STIM_009.jpg	99
110.459	0.728	727.9	2back	Block1	2back/STIM_009.jpg	99
114.142	0.66	660.0	2back	Block1	2back/STIM_009.jpg	100
118.47	0.785	785.1	2back	Block1	2back/STIM_010.jpg	99
122.391	1.161	1160.8	2back	Block1	2back/STIM_010.jpg	100
127.419	0.73	729.8	2back	Block1	2back/STIM_010.jpg	100
131.976	0.696	696.5	2back	Block1	2back/STIM_011.jpg	100
135.435	0.761	761.4	2back	Block1	2back/STIM_011.jpg	99
139.08	0.523	523.0	2back	Block1	2back/STIM_011.jpg	99
143.628	0.824	823.6	2back	Block1	2back/STIM_012.jpg	99
148.439	1.023	1023.2	2back	Block1	2back/STIM_012.jpg	100
152.13	0.912	911.6	2back	Block1	2back/STIM_012.jpg	100
157.114	0.869	868.7	2back	Block1	2back/STIM_013.jpg	100
162.0	0.929	929.2	2back	Block1	2back/STIM_013.jpg	100
165.451	0.568	568.1	2back	Block1	2back/STIM_013.jpg	100
168.121	0.712	711.7	2back	Block1	2back/STIM_014.jpg	100
171.33	1.187	1187.1	2back	Block1	2back/STIM_014.jpg	100
176.041	0.679	679.0	2back	Block1	2back/STIM_014.jpg	100
180.149	0.9	900.5	2back	Block1	2back/STIM_015.jpg	99
185.092	0.826	826.0	2back	Block1	2back/STIM_015.jpg	99
188.631	0.871	871.1	2back	Block1	2back/STIM_015.jpg	100
192.499	1.059	1058.6	2back	Block1	2back/STIM_016.jpg	100
197.447	0.822	822.5	2back	Block1	2back/STIM_016.jpg	99
202.235	0.82	820.5	2back	Block1	2back/STIM_016.jpg	99
206.973	1.202	1201.9	2back	Block1	2back/STIM_017.jpg	99
212.137	0.97	969.5	2back	Block1	2back/STIM_017.jpg	99
217.023	0.668	667.8	2back	Block1	2back/STIM_017.jpg	100
221.217	0.967	966.9	2back	Block1	2back/STIM_018.jpg	100
226.276	1.111	1110.8	2back	Block1	2back/STIM_018.jpg	100
231.428	0.915	915.4	2back	Block1	2back/STIM_018.jpg	99
236.296	0.724	723.6	2back	Block1	2back/STIM_019.jpg	100
239.779	1.279	1278.9	2back	Block1	2back/STIM_019.jpg	99
244.416	1.071	1070.8	2back	Block1	2back/STIM_019.jpg	99
249.344	0.507	507.5	2back	Block1	2back/STIM_020.jpg	99
252.811	0.978	978.0	2back	Block1	2back/STIM_020.jpg	99
257.728	0.953	953.2	2back	Block1	2back/STIM_020.jpg	99
261.422	0.941	940.9	2back	Block1	2back/STIM_021.jpg	99
266.001	1.188	1187.7	2back	Block1	2back/STIM_021.jpg	100
269.777	0.641	640.9	2back	Block1	2back/STIM_021.jpg	100
272.881	1.087	1086.9	2back	Block1	2back/STIM_022.jpg	99
277.678	0.907	907.0	2back	Block1	2back/STIM_022.jpg	99
281.241	1.0	1000.4	2back	Block1	2back/STIM_022.jpg	99
284.393	0.904	903.6	2back	Block1	2back/STIM_023.jpg	99
289.18	1.27	1269.9	2back	Block1	2back/STIM_023.jpg	100
293.051	1.014	1014.4	2back	Block1	2back/STIM_023.jpg	100
297.295	1.026	1025.5	2back	Block1	2back/STIM_024.jpg	99
302.342	0.534	534.0	2back	Block1	2back/STIM_024.jpg	100
306.415	0.988	988.5	2back	Block1	2back/STIM_024.jpg	99
309.984	1.242	1242.1	2back	Block1	2back/STIM_025.jpg	100
314.421	1.06	1060.2	2back	Block1	2back/STIM_025.jpg	100
317.699	0.767	766.8	2back	Block1	2back/STIM_025.jpg	100
322.255	1.093	1092.7	2back	Block1	2back/STIM_026.jpg	100
327.316	0.725	725.1	2back	Block1	2back/STIM_026.jpg	99
330.801	0.915	914.7	2back	Block1	2back/STIM_026.jpg	99
334.641	0.654	654.4	2back	Block1	2back/STIM_027.jpg	100
339.135	0.695	694.6	2back	Block1	2back/STIM_027.jpg	100
342.995	1.056	1055.5	2back	Block1	2back/STIM_027.jpg	100
347.773	0.846	846.4	2back	Block1	2back/STIM_028.jpg	99
351.023	0.977	976.9	2back	Block1	2back/STIM_028.jpg	100
355.8	0.709	708.7	2back	Block1	2back/STIM_028.jpg	99
358.688	1.257	1256.7	2back	Block1	2back/STIM_029.jpg	100
362.892	0.623	622.9	2back	Block1	2back/STIM_029.jpg	99
366.255	0.582	581.5	2back	Block1	2back/STIM_029.jpg	99
369.904	0.711	711.1	2back	Block1	2back/STIM_030.jpg	100
374.471	1.048	1047.5	2back	Block1	2back/STIM_030.jpg	99
378.076	0.762	761.7	2back	Block1	2back/STIM_030.jpg	99
381.353	0.766	765.5	2back	Block1	2back/STIM_031.jpg	100
385.776	1.147	1146.8	2back	Block1	2back/STIM_031.jpg	99
390.919	0.883	882.8	2back	Block1	2back/STIM_031.jpg	99
395.068	1.054	1054.5	2back	Block1	2back/STIM_032.jpg	100
399.611	0.964	964.1	2back	Block1	2back/STIM_032.jpg	99
403.887	0.677	676.6	2back	Block1	2back/STIM_032.jpg	99
408.604	0.95	950.4	2back	Block1	2back/STIM_033.jpg	100
411.759	0.763	762.6	2back	Block1	2back/STIM_033.jpg	100
415.706	0.715	714.9	2back	Block1	2back/STIM_033.jpg	100
419.328	1.179	1179.1	2back	Block1	2back/STIM_034.jpg	100
424.607	0.588	588.3	2back	Block1	2back/STIM_034.jpg	100
428.638	0.571	570.9	2back	Block1	2back/STIM_034.jpg	99
433.164	1.191	1191.0	2back	Block1	2back/STIM_035.jpg	100
437.003	0.649	648.6	2back	Block1	2back/STIM_035.jpg	99
440.791	0.846	846.1	2back	Block1	2back/STIM_035.jpg	99
443.868	1.257	1257.4	2back	Block1	2back/STIM_036.jpg	100
447.209	1.106	1106.1	2back	Block1	2back/STIM_036.jpg	100
451.958	0.799	799.1	2back	Block1	2back/STIM_036.jpg	100
455.951	0.831	831.0	2back	Block1	2back/STIM_037.jpg	99
460.363	0.726	725.8	2back	Block1	2back/STIM_037.jpg	100
464.859	0.776	776.2	2back	Block1	2back/STIM_037.jpg	99
468.402	1.001	1001.4	2back	Block1	2back/STIM_038.jpg	99
472.874	0.623	622.8	2back	Block1	2back/STIM_038.jpg	99
477.572	0.584	583.7	2back	Block1	2back/STIM_038.jpg	100
480.455	1.212	1212.3	2back	Block1	2back/STIM_039.jpg	99
484.549	0.79	790.4	2back	Block1	2back/STIM_039.jpg	100
489.337	0.815	815.3	2back	Block1	2back/STIM_039.jpg	99
493.537	0.618	617.5	0back	Block1	0back/STIM_000.jpg	99
497.628	0.53	530.3	0back	Block1	0back/STIM_000.jpg	100
500.619	0.76	760.4	0back	Block1	0back/STIM_000.jpg	99
503.913	0.5	500.3	0back	Block1	0back/STIM_001.jpg	100
506.786	0.46	459.9	0back	Block1	0back/STIM_001.jpg	99
511.24	0.483	483.0	0back	Block1	0back/STIM_001.jpg	100
514.242	0.418	418.3	0back	Block1	0back/STIM_002.jpg	99
517.761	0.404	404.3	0back	Block1	0back/STIM_002.jpg	99
522.094	0.474	473.5	0back	Block1	0back/STIM_002.jpg	99
525.798	0.52	519.5	0back	Block1	0back/STIM_003.jpg	100
529.244	0.542	541.5	0back	Block1	0back/STIM_003.jpg	100
532.103	0.451	450.9	0back	Block1	0back/STIM_003.jpg	100
535.218	0.76	759.5	0back	Block1	0back/STIM_004.jpg	100
539.123	0.394	394.2	0back	Block1	0back/STIM_004.jpg	100
541.836	0.545	545.1	0back	Block1	0back/STIM_004.jpg	99
544.692	0.423	422.6	0back	Block1	0back/STIM_005.jpg	99
548.573	0.675	675.1	0back	Block1	0back/STIM_005.jpg	99
552.038	0.464	463.9	0back	Block1	0back/STIM_005.jpg	100
554.611	0.7	699.7	0back	Block1	0back/STIM_006.jpg	100
558.88	0.451	450.9	0back	Block1	0back/STIM_006.jpg	100
563.105	0.473	473.0	0back	Block1	0back/STIM_006.jpg	100
565.981	0.618	618.2	0back	Block1	0back/STIM_007.jpg	99
570.023	0.372	371.8	0back	Block1	0back/STIM_007.jpg	100
574.091	0.396	396.5	0back	Block1	0back/STIM_007.jpg	100
577.27	0.565	565.1	0back	Block1	0back/STIM_008.jpg	100
581.619	0.739	739.4	0back	Block1	0back/STIM_008.jpg	99
586.318	0.65	649.9	0back	Block1	0back/STIM_008.jpg	100
590.597	0.656	656.0	0back	Block1	0back/STIM_009.jpg	99
594.009	0.488	488.4	0back	Block1	0back/STIM_009.jpg	99
597.707	0.659	658.6	0back	Block1	0back/STIM_009.jpg	99
601.997	0.621	620.6	0back	Block1	0back/STIM_010.jpg	100
605.981	0.425	425.2	0back	Block1	0back/STIM_010.jpg	100
608.55	0.339	339.2	0back	Block1	0back/STIM_010.jpg	99
611.402	0.676	675.5	0back	Block1	0back/STIM_011.jpg	100
614.232	0.545	545.0	0back	Block1	0back/STIM_011.jpg	100
617.241	0.781	780.9	0back	Block1	0back/STIM_011.jpg	100
621.477	0.575	575.4	0back	Block1	0back/STIM_012.jpg	99
624.13	0.491	491.0	0back	Block1	0back/STIM_012.jpg	100
627.626	0.589	589.3	0back	Block1	0back/STIM_012.jpg	100
630.995	0.584	583.5	0back	Block1	0back/STIM_013.jpg	100
634.337	0.786	785.6	0back	Block1	0back/STIM_013.jpg	99
638.571	0.438	438.1	0back	Block1	0back/STIM_013.jpg	100
641.083	0.635	635.4	0back	Block1	0back/STIM_014.jpg	99
644.826	0.573	573.2	0back	Block1	0back/STIM_014.jpg	99
649.074	0.716	716.5	0back	Block1	0back/STIM_014.jpg	100
653.257	0.518	518.5	0back	Block1	0back/STIM_015.jpg	100
656.445	0.385	384.7	0back	Block1	0back/STIM_015.jpg	99
660.44	0.584	583.7	0back	Block1	0back/STIM_015.jpg	99
663.49	0.756	756.4	0back	Block1	0back/STIM_016.jpg	99
667.42	0.494	494.5	0back	Block1	0back/STIM_016.jpg	100
670.714	0.472	471.9	0back	Block1	0back/STIM_016.jpg	100
674.744	0.705	704.9	0back	Block1	0back/STIM_017.jpg	100
677.801	0.434	434.3	0back	Block1	0back/STIM_017.jpg	100
681.888	0.418	418.4	0back	Block1	0back/STIM_017.jpg	100
685.039	0.642	641.9	0back	Block1	0back/STIM_018.jpg	99
689.511	0.377	376.6	0back	Block1	0back/STIM_018.jpg	99
693.792	0.604	604.4	0back	Block1	0back/STIM_018.jpg	99
698.047	0.653	653.4	0back	Block1	0back/STIM_019.jpg	99
701.639	0.513	512.6	0back	Block1	0back/STIM_019.jpg	99
705.531	0.52	520.0	0back	Block1	0back/STIM_019.jpg	100
709.684	1.058	1057.9	2back	Block2	2back/STIM_000.jpg	100
713.256	0.724	723.9	2back	Block2	2back/STIM_000.jpg	99
716.695	0.547	547.0	2back	Block2	2back/STIM_000.jpg	100
720.299	0.514	513.9	2back	Block2	2back/STIM_001.jpg	100
723.436	0.738	737.9	2back	Block2	2back/STIM_001.jpg	99
728.047	0.501	501.5	2back	Block2	2back/STIM_001.jpg	100
731.756	0.857	856.8	2back	Block2	2back/STIM_002.jpg	100
735.961	0.682	682.4	2back	Block2	2back/STIM_002.jpg	100
740.392	0.614	613.5	2back	Block2	2back/STIM_002.jpg	99
744.823	0.9	899.5	2back	Block2	2back/STIM_003.jpg	100
747.801	0.565	565.3	2back	Block2	2back/STIM_003.jpg	100
751.727	0.714	714.1	2back	Block2	2back/STIM_003.jpg	99
755.851	0.826	825.6	2back	Block2	2back/STIM_004.jpg	100
760.496	0.874	874.0	2back	Block2	2back/STIM_004.jpg	100
764.941	0.648	648.3	2back	Block2	2back/STIM_004.jpg	100
767.854	0.586	586.5	2back	Block2	2back/STIM_005.jpg	99
771.364	0.902	902.4	2back	Block2	2back/STIM_005.jpg	100
775.08	0.635	635.3	2back	Block2	2back/STIM_005.jpg	99
779.769	0.598	597.9	2back	Block2	2back/STIM_006.jpg	100
782.66	0.884	884.2	2back	Block2	2back/STIM_006.jpg	99
786.189	0.38	380.1	2back	Block2	2back/STIM_006.jpg	99
789.285	0.888	888.0	2back	Block2	2back/STIM_007.jpg	99
793.605	0.594	593.6	2back	Block2	2back/STIM_007.jpg	99
797.537	0.526	525.6	2back	Block2	2back/STIM_007.jpg	99
801.856	1.031	1031.0	2back	Block2	2back/STIM_008.jpg	99
806.801	0.898	897.5	2back	Block2	2back/STIM_008.jpg	99
811.373	0.847	847.2	2back	Block2	2back/STIM_008.jpg	100
816.243	0.621	620.8	2back	Block2	2back/STIM_009.jpg	100
820.086	0.567	567.1	2back	Block2	2back/STIM_009.jpg	99
824.572	0.49	490.5	2back	Block2	2back/STIM_009.jpg	99
827.435	0.573	573.0	2back	Block2	2back/STIM_010.jpg	99
831.674	0.676	676.2	2back	Block2	2back/STIM_010.jpg	99
834.918	0.862	861.6	2back	Block2	2back/STIM_010.jpg	99
838.557	0.57	569.6	2back	Block2	2back/STIM_011.jpg	99
841.528	0.674	674.3	2back	Block2	2back/STIM_011.jpg	99
844.868	0.506	505.7	2back	Block2	2back/STIM_011.jpg	100
848.193	0.441	440.6	2back	Block2	2back/STIM_012.jpg	100
852.126	0.614	613.5	2back	Block2	2back/STIM_012.jpg	100
856.552	0.662	661.7	2back	Block2	2back/STIM_012.jpg	99
860.508	0.641	641.3	2back	Block2	2back/STIM_013.jpg	99
863.994	0.743	743.0	2back	Block2	2back/STIM_013.jpg	100
868.183	0.632	631.9	2back	Block2	2back/STIM_013.jpg	99
871.67	1.158	1157.6	2back	Block2	2back/STIM_014.jpg	100
875.818	0.972	972.2	2back	Block2	2back/STIM_014.jpg	100
880.454	0.637	637.2	2back	Block2	2back/STIM_014.jpg	100
883.488	1.029	1029.2	2back	Block2	2back/STIM_015.jpg	100
888.425	0.821	820.9	2back	Block2	2back/STIM_015.jpg	99
892.529	0.683	683.1	2back	Block2	2back/STIM_015.jpg	100
895.799	0.587	587.0	2back	Block2	2back/STIM_016.jpg	99
900.269	0.811	810.7	2back	Block2	2back/STIM_016.jpg	100
903.22	0.538	537.7	2back	Block2	2back/STIM_016.jpg	99
907.388	0.898	897.7	2back	Block2	2back/STIM_017.jpg	100
911.442	1.046	1046.4	2back	Block2	2back/STIM_017.jpg	99
916.066	0.958	958.0	2back	Block2	2back/STIM_017.jpg	99
920.231	0.515	514.9	2back	Block2	2back/STIM_018.jpg	100
923.326	0.775	774.9	2back	Block2	2back/STIM_018.jpg	99
926.843	0.922	922.0	2back	Block2	2back/STIM_018.jpg	100
931.492	0.765	764.6	2back	Block2	2back/STIM_019.jpg	99
935.463	1.027	1027.0	2back	Block2	2back/STIM_019.jpg	99
940.442	0.693	692.8	2back	Block2	2back/STIM_019.jpg	100
943.72	0.648	647.7	2back	Block2	2back/STIM_020.jpg	100
946.886	1.05	1049.7	2back	Block2	2back/STIM_020.jpg	100
951.577	0.908	908.5	2back	Block2	2back/STIM_020.jpg	99
955.311	1.024	1023.9	2back	Block2	2back/STIM_021.jpg	100
959.329	0.564	563.7	2back	Block2	2back/STIM_021.jpg	99
962.82	0.842	841.8	2back	Block2	2back/STIM_021.jpg	99
966.766	1.003	1002.6	2back	Block2	2back/STIM_022.jpg	99
970.76	0.618	617.5	2back	Block2	2back/STIM_022.jpg	100
974.085	0.832	831.9	2back	Block2	2back/STIM_022.jpg	99
977.555	1.074	1073.8	2back	Block2	2back/STIM_023.jpg	100
981.408	0.878	878.0	2back	Block2	2back/STIM_023.jpg	100
985.351	0.441	440.9	2back	Block2	2back/STIM_023.jpg	99
989.082	0.928	927.9	2back	Block2	2back/STIM_024.jpg	99
992.918	0.466	466.1	2back	Block2	2back/STIM_024.jpg	99
996.401	0.549	548.8	2back	Block2	2back/STIM_024.jpg	100
999.408	0.873	872.7	2back	Block2	2back/STIM_025.jpg	99
1002.946	0.652	652.3	2back	Block2	2back/STIM_025.jpg	100
1006.226	0.748	748.4	2back	Block2	2back/STIM_025.jpg	99
1010.457	0.641	640.7	2back	Block2	2back/STIM_026.jpg	100
1013.68	0.79	789.6	2back	Block2	2back/STIM_026.jpg	100
1017.76	0.773	773.2	2back	Block2	2back/STIM_026.jpg	100
1021.834	1.116	1116.1	2back	Block2	2back/STIM_027.jpg	100
1025.653	0.737	737.1	2back	Block2	2back/STIM_027.jpg	100
1028.612	0.766	766.5	2back	Block2	2back/STIM_027.jpg	100
1032.099	0.963	962.9	2back	Block2	2back/STIM_028.jpg	99
1035.988	0.942	942.0	2back	Block2	2back/STIM_028.jpg	100
1040.669	0.82	820.3	2back	Block2	2back/STIM_028.jpg	100
1044.871	0.897	896.6	2back	Block2	2back/STIM_029.jpg	100
1048.164	0.728	728.5	2back	Block2	2back/STIM_029.jpg	100
1050.997	0.517	517.3	2back	Block2	2back/STIM_029.jpg	100
1055.423	0.518	518.0	2back	Block2	2back/STIM_030.jpg	99
1059.079	0.505	505.5	2back	Block2	2back/STIM_030.jpg	100
1061.742	0.441	441.0	2back	Block2	2back/STIM_030.jpg	100
1065.557	0.339	338.9	2back	Block2	2back/STIM_031.jpg	99
1068.681	0.779	779.4	2back	Block2	2back/STIM_031.jpg	100
1073.417	0.498	498.5	2back	Block2	2back/STIM_031.jpg	100
1076.793	0.635	635.3	2back	Block2	2back/STIM_032.jpg	100
1081.502	0.702	702.4	2back	Block2	2back/STIM_032.jpg	100
1085.478	0.406	405.5	2back	Block2	2back/STIM_032.jpg	99
1089.02	0.88	880.5	2back	Block2	2back/STIM_033.jpg	100
1093.979	0.827	826.8	2back	Block2	2back/STIM_033.jpg	100
1098.446	0.697	696.7	2back	Block2	2back/STIM_033.jpg	99
1101.522	0.661	661.4	2back	Block2	2back/STIM_034.jpg	100
1105.65	0.865	865.1	2back	Block2	2back/STIM_034.jpg	100
1110.129	0.495	494.8	2back	Block2	2back/STIM_034.jpg	100
1113.754	1.055	1054.6	2back	Block2	2back/STIM_035.jpg	100
1117.623	0.604	603.9	2back	Block2	2back/STIM_035.jpg	99
1121.578	0.502	502.5	2back	Block2	2back/STIM_035.jpg	100
1124.991	0.653	652.7	2back	Block2	2back/STIM_036.jpg	100
1129.142	0.4	400.5	2back	Block2	2back/STIM_036.jpg	100
1132.416	0.719	718.7	2back	Block2	2back/STIM_036.jpg	99
1135.315	1.093	1093.3	2back	Block2	2back/STIM_037.jpg	99
1140.138	0.576	575.8	2back	Block2	2back/STIM_037.jpg	100
1143.779	0.506	506.4	2back	Block2	2back/STIM_037.jpg	100
1147.499	1.052	1052.3	2back	Block2	2back/STIM_038.jpg	100
1151.572	0.652	651.5	2back	Block2	2back/STIM_038.jpg	100
1155.21	0.802	801.6	2back	Block2	2back/STIM_038.jpg	99
1159.402	0.666	666.1	2back	Block2	2back/STIM_039.jpg	99
1163.656	0.714	713.7	2back	Block2	2back/STIM_039.jpg	100
1167.86	0.745	745.3	2back	Block2	2back/STIM_039.jpg	100
1172.261	0.681	681.0	0back	Block2	0back/STIM_000.jpg	100
1175.481	0.566	565.5	0back	Block2	0back/STIM_000.jpg	100
1179.024	0.71	710.2	0back	Block2	0back/STIM_000.jpg	99
1183.689	0.494	494.5	0back	Block2	0back/STIM_001.jpg	100
1186.656	0.711	710.7	0back	Block2	0back/STIM_001.jpg	99
1190.597	0.619	618.8	0back	Block2	0back/STIM_001.jpg	100
1195.312	0.686	686.0	0back	Block2	0back/STIM_002.jpg	100
1199.54	0.73	730.2	0back	Block2	0back/STIM_002.jpg	100
1204.159	0.49	490.0	0back	Block2	0back/STIM_002.jpg	100
1207.014	0.521	521.4	0back	Block2	0back/STIM_003.jpg	99
1210.627	0.548	547.9	0back	Block2	0back/STIM_003.jpg	100
1214.965	0.573	572.8	0back	Block2	0back/STIM_003.jpg	99
1219.257	0.298	298.0	0back	Block2	0back/STIM_004.jpg	99
1222.172	0.528	528.0	0back	Block2	0back/STIM_004.jpg	99
1226.786	0.549	549.4	0back	Block2	0back/STIM_004.jpg	100
1229.892	0.612	612.4	0back	Block2	0back/STIM_005.jpg	100
1232.946	0.722	722.0	0back	Block2	0back/STIM_005.jpg	99
1237.547	0.774	773.7	0back	Block2	0back/STIM_005.jpg	99
1241.548	0.497	496.8	0back	Block2	0back/STIM_006.jpg	99
1244.901	0.616	615.5	0back	Block2	0back/STIM_006.jpg	100
1249.558	0.715	715.1	0back	Block2	0back/STIM_006.jpg	100
1253.087	0.434	433.9	0back	Block2	0back/STIM_007.jpg	99
1257.087	0.533	533.1	0back	Block2	0back/STIM_007.jpg	99
1260.216	0.406	405.7	0back	Block2	0back/STIM_007.jpg	100
1264.696	0.618	618.2	0back	Block2	0back/STIM_008.jpg	100
1267.46	0.702	701.7	0back	Block2	0back/STIM_008.jpg	99
1270.994	0.513	512.6	0back	Block2	0back/STIM_008.jpg	99
1274.827	0.708	707.6	0back	Block2	0back/STIM_009.jpg	99
1278.688	0.719	718.7	0back	Block2	0back/STIM_009.jpg	100
1281.638	0.666	665.8	0back	Block2	0back/STIM_009.jpg	100
1286.27	0.728	727.6	0back	Block2	0back/STIM_010.jpg	100
1290.039	0.805	804.9	0back	Block2	0back/STIM_010.jpg	99
1294.016	0.539	538.7	0back	Block2	0back/STIM_010.jpg	100
1298.025	0.435	434.6	0back	Block2	0back/STIM_011.jpg	100
1301.664	0.558	558.5	0back	Block2	0back/STIM_011.jpg	99
1305.548	0.534	533.8	0back	Block2	0back/STIM_011.jpg	100
1309.868	0.453	453.3	0back	Block2	0back/STIM_012.jpg	100
1312.449	0.481	481.2	0back	Block2	0back/STIM_012.jpg	99
1315.356	0.804	804.1	0back	Block2	0back/STIM_012.jpg	99
1319.142	0.424	424.0	0back	Block2	0back/STIM_013.jpg	100
1323.332	0.503	503.2	0back	Block2	0back/STIM_013.jpg	99
1327.335	0.758	757.5	0back	Block2	0back/STIM_013.jpg	100
1331.948	0.792	792.1	0back	Block2	0back/STIM_014.jpg	100
1335.323	0.514	514.5	0back	Block2	0back/STIM_014.jpg	100
1337.95	0.395	394.8	0back	Block2	0back/STIM_014.jpg	99
1342.148	0.557	556.9	0back	Block2	0back/STIM_015.jpg	100
1345.348	0.771	771.3	0back	Block2	0back/STIM_015.jpg	100
1350.042	0.69	689.5	0back	Block2	0back/STIM_015.jpg	100
1354.418	0.422	422.4	0back	Block2	0back/STIM_016.jpg	99
1358.729	0.583	582.6	0back	Block2	0back/STIM_016.jpg	99
1361.487	0.567	567.0	0back	Block2	0back/STIM_016.jpg	99
1365.716	0.323	322.6	0back	Block2	0back/STIM_017.jpg	100
1368.667	0.806	806.1	0back	Block2	0back/STIM_017.jpg	100
1371.818	0.645	644.9	0back	Block2	0back/STIM_017.jpg	99
1374.599	0.404	404.5	0back	Block2	0back/STIM_018.jpg	99
1378.027	0.552	551.5	0back	Block2	0back/STIM_018.jpg	99
1381.968	0.622	622.0	0back	Block2	0back/STIM_018.jpg	99
1386.334	0.414	414.0	0back	Block2	0back/STIM_019.jpg	99
1388.981	0.659	658.7	0back	Block2	0back/STIM_019.jpg	99
1392.579	0.469	469.4	0back	Block2	0back/STIM_019.jpg	100
1395.158	0.551	550.9	2back	Block3	2back/STIM_000.jpg	100
1397.825	0.846	845.7	2back	Block3	2back/STIM_000.jpg	100
1402.689	0.657	656.8	2back	Block3	2back/STIM_000.jpg	100
1405.766	0.65	650.0	2back	Block3	2back/STIM_001.jpg	99
1408.877	0.838	837.6	2back	Block3	2back/STIM_001.jpg	99
1412.89	0.882	882.2	2back	Block3	2back/STIM_001.jpg	100
1416.972	0.879	879.1	2back	Block3	2back/STIM_002.jpg	100
1420.766	0.534	533.9	2back	Block3	2back/STIM_002.jpg	99
1424.334	0.906	905.5	2back	Block3	2back/STIM_002.jpg	100
1427.759	0.679	679.1	2back	Block3	2back/STIM_003.jpg	99
1431.579	0.651	650.6	2back	Block3	2back/STIM_003.jpg	100
1435.165	0.675	674.7	2back	Block3	2back/STIM_003.jpg	99
1438.224	0.795	795.0	2back	Block3	2back/STIM_004.jpg	100
1441.929	0.588	588.3	2back	Block3	2back/STIM_004.jpg	100
1445.488	0.894	894.2	2back	Block3	2back/STIM_004.jpg	100
1448.815	0.846	845.7	2back	Block3	2back/STIM_005.jpg	99
1452.146	0.749	749.0	2back	Block3	2back/STIM_005.jpg	99
1456.524	0.567	567.3	2back	Block3	2back/STIM_005.jpg	100
1460.003	0.538	538.0	2back	Block3	2back/STIM_006.jpg	100
1464.461	0.596	596.5	2back	Block3	2back/STIM_006.jpg	100
1468.056	0.6	600.0	2back	Block3	2back/STIM_006.jpg	99
1472.33	0.56	560.2	2back	Block3	2back/STIM_007.jpg	99
1475.846	0.589	588.9	2back	Block3	2back/STIM_007.jpg	100
1480.137	0.717	717.0	2back	Block3	2back/STIM_007.jpg	100
1483.404	0.753	753.2	2back	Block3	2back/STIM_008.jpg	99
1487.838	0.777	777.3	2back	Block3	2back/STIM_008.jpg	99
1492.315	0.469	469.2	2back	Block3	2back/STIM_008.jpg	100
1496.467	0.472	472.1	2back	Block3	2back/STIM_009.jpg	99
1499.213	0.772	772.0	2back	Block3	2back/STIM_009.jpg	100
1503.876	0.962	962.3	2back	Block3	2back/STIM_009.jpg	100
1508.236	0.708	707.6	2back	Block3	2back/STIM_010.jpg	100
1511.733	0.784	783.5	2back	Block3	2back/STIM_010.jpg	100
1515.625	0.585	584.9	2back	Block3	2back/STIM_010.jpg	99
1519.625	0.943	943.4	2back	Block3	2back/STIM_011.jpg	99
1523.295	0.879	879.3	2back	Block3	2back/STIM_011.jpg	99
1526.749	0.432	431.5	2back	Block3	2back/STIM_011.jpg	100
1530.83	0.773	773.0	2back	Block3	2back/STIM_012.jpg	99
1534.349	0.716	716.5	2back	Block3	2back/STIM_012.jpg	99
1537.343	0.587	587.4	2back	Block3	2back/STIM_012.jpg	100
1541.259	0.809	808.7	2back	Block3	2back/STIM_013.jpg	100
1544.94	0.521	521.4	2back	Block3	2back/STIM_013.jpg	100
1548.389	0.408	407.9	2back	Block3	2back/STIM_013.jpg	100
1550.863	0.438	437.5	2back	Block3	2back/STIM_014.jpg	99
1555.026	0.934	933.7	2back	Block3	2back/STIM_014.jpg	99
1559.414	0.858	857.6	2back	Block3	2back/STIM_014.jpg	100
1564.134	0.809	809.3	2back	Block3	2back/STIM_015.jpg	99
1568.649	0.795	795.3	2back	Block3	2back/STIM_015.jpg	99
1571.612	0.715	714.6	2back	Block3	2back/STIM_015.jpg	99
1575.288	0.492	492.5	2back	Block3	2back/STIM_016.jpg	99
1579.633	0.556	556.4	2back	Block3	2back/STIM_016.jpg	100
1582.899	0.616	616.5	2back	Block3	2back/STIM_016.jpg	100
1585.991	0.512	512.2	2back	Block3	2back/STIM_017.jpg	99
1588.901	0.458	458.2	2back	Block3	2back/STIM_017.jpg	99
1591.929	0.713	713.0	2back	Block3	2back/STIM_017.jpg	100
1595.606	0.76	760.5	2back	Block3	2back/STIM_018.jpg	100
1600.037	0.544	544.3	2back	Block3	2back/STIM_018.jpg	99
1604.086	0.766	766.4	2back	Block3	2back/STIM_018.jpg	100
1608.692	0.605	604.8	2back	Block3	2back/STIM_019.jpg	100
1611.859	0.801	800.6	2back	Block3	2back/STIM_019.jpg	100
1614.802	0.556	556.0	2back	Block3	2back/STIM_019.jpg	100
1618.624	0.491	491.1	2back	Block3	2back/STIM_020.jpg	100
1622.346	0.563	563.2	2back	Block3	2back/STIM_020.jpg	99
1625.619	0.391	390.6	2back	Block3	2back/STIM_020.jpg	99
1628.338	0.849	848.9	2back	Block3	2back/STIM_021.jpg	99
1631.619	0.877	876.7	2back	Block3	2back/STIM_021.jpg	100
1635.718	0.486	485.6	2back	Block3	2back/STIM_021.jpg	99
1638.466	0.552	551.9	2back	Block3	2back/STIM_022.jpg	100
1641.791	0.653	653.1	2back	Block3	2back/STIM_022.jpg	99
1646.476	0.49	489.7	2back	Block3	2back/STIM_022.jpg	100
1650.166	0.716	716.5	2back	Block3	2back/STIM_023.jpg	99
1653.464	0.652	652.3	2back	Block3	2back/STIM_023.jpg	100
1658.083	0.577	577.3	2back	Block3	2back/STIM_023.jpg	99
1661.041	0.472	471.9	2back	Block3	2back/STIM_024.jpg	100
1665.575	0.43	430.1	2back	Block3	2back/STIM_024.jpg	99
1669.434	0.806	805.7	2back	Block3	2back/STIM_024.jpg	99
1673.205	0.784	783.7	2back	Block3	2back/STIM_025.jpg	100
1677.217	0.456	455.6	2back	Block3	2back/STIM_025.jpg	99
1679.828	0.593	593.2	2back	Block3	2back/STIM_025.jpg	99
1684.27	0.383	382.7	2back	Block3	2back/STIM_026.jpg	99
1687.97	0.471	470.7	2back	Block3	2back/STIM_026.jpg	100
1691.091	0.46	459.6	2back	Block3	2back/STIM_026.jpg	99
1695.233	0.789	788.7	2back	Block3	2back/STIM_027.jpg	100
1698.538	0.504	503.9	2back	Block3	2back/STIM_027.jpg	99
1702.625	0.962	961.6	2back	Block3	2back/STIM_027.jpg	100
1706.449	0.636	636.3	2back	Block3	2back/STIM_028.jpg	100
1710.849	0.827	827.0	2back	Block3	2back/STIM_028.jpg	100
1714.664	0.854	854.5	2back	Block3	2back/STIM_028.jpg	99
1718.631	0.798	798.5	2back	Block3	2back/STIM_029.jpg	99
1722.179	0.564	564.5	2back	Block3	2back/STIM_029.jpg	100
1726.564	0.804	803.6	2back	Block3	2back/STIM_029.jpg	99
1730.408	0.462	461.8	2back	Block3	2back/STIM_030.jpg	99
1733.135	0.812	812.3	2back	Block3	2back/STIM_030.jpg	100
1736.036	0.888	888.5	2back	Block3	2back/STIM_030.jpg	100
1740.305	0.731	730.6	2back	Block3	2back/STIM_031.jpg	100
1743.535	0.648	648.1	2back	Block3	2back/STIM_031.jpg	99
1746.662	0.782	782.0	2back	Block3	2back/STIM_031.jpg	100
1749.997	0.712	712.0	2back	Block3	2back/STIM_032.jpg	99
1753.532	0.516	515.7	2back	Block3	2back/STIM_032.jpg	100
1756.878	0.816	815.8	2back	Block3	2back/STIM_032.jpg	99
1761.164	0.567	566.9	2back	Block3	2back/STIM_033.jpg	100
1764.076	0.456	455.5	2back	Block3	2back/STIM_033.jpg	99
1767.903	0.674	673.8	2back	Block3	2back/STIM_033.jpg	99
1772.535	0.615	614.7	2back	Block3	2back/STIM_034.jpg	100
1777.149	0.438	438.1	2back	Block3	2back/STIM_034.jpg	100
1781.433	0.922	922.3	2back	Block3	2back/STIM_034.jpg	100
1785.463	0.868	868.3	2back	Block3	2back/STIM_035.jpg	100
1789.845	0.639	639.2	2back	Block3	2back/STIM_035.jpg	100
1792.773	0.408	408.3	2back	Block3	2back/STIM_035.jpg	100
1796.172	0.456	456.2	2back	Block3	2back/STIM_036.jpg	100
1799.018	0.424	424.2	2back	Block3	2back/STIM_036.jpg	99
1803.018	0.585	585.1	2back	Block3	2back/STIM_036.jpg	100
1806.309	0.373	373.2	2back	Block3	2back/STIM_037.jpg	99
1809.641	0.459	458.8	2back	Block3	2back/STIM_037.jpg	99
1813.578	0.632	632.1	2back	Block3	2back/STIM_037.jpg	100
1817.992	0.524	523.5	2back	Block3	2back/STIM_038.jpg	99
1821.755	0.734	733.9	2back	Block3	2back/STIM_038.jpg	100
1825.261	0.799	799.3	2back	Block3	2back/STIM_038.jpg	99
1829.811	0.483	482.6	2back	Block3	2back/STIM_039.jpg	100
1832.816	0.717	716.9	2back	Block3	2back/STIM_039.jpg	99
1837.153	0.661	660.9	2back	Block3	2back/STIM_039.jpg	99
1840.129	0.494	494.5	0back	Block3	0back/STIM_000.jpg	100
1843.026	0.498	498.5	0back	Block3	0back/STIM_000.jpg	100
1845.687	0.563	563.2	0back	Block3	0back/STIM_000.jpg	100
1849.966	0.685	685.3	0back	Block3	0back/STIM_001.jpg	99
1852.746	0.461	460.7	0back	Block3	0back/STIM_001.jpg	99
1857.062	0.646	645.5	0back	Block3	0back/STIM_001.jpg	100
1861.659	0.511	511.5	0back	Block3	0back/STIM_002.jpg	99
1864.925	0.47	470.1	0back	Block3	0back/STIM_002.jpg	99
1869.174	0.55	549.8	0back	Block3	0back/STIM_002.jpg	99
1872.132	0.433	432.9	0back	Block3	0back/STIM_003.jpg	99
1875.342	0.7	700.5	0back	Block3	0back/STIM_003.jpg	99
1878.63	0.623	622.9	0back	Block3	0back/STIM_003.jpg	100
1882.952	0.515	514.8	0back	Block3	0back/STIM_004.jpg	99
1887.32	0.493	492.7	0back	Block3	0back/STIM_004.jpg	100
1890.037	0.388	387.5	0back	Block3	0back/STIM_004.jpg	100
1893.423	0.635	635.1	0back	Block3	0back/STIM_005.jpg	100
1897.345	0.635	635.2	0back	Block3	0back/STIM_005.jpg	99
1900.141	0.727	726.8	0back	Block3	0back/STIM_005.jpg	100
1904.063	0.602	602.4	0back	Block3	0back/STIM_006.jpg	100
1908.364	0.336	335.8	0back	Block3	0back/STIM_006.jpg	100
1912.684	0.553	553.2	0back	Block3	0back/STIM_006.jpg	100
1916.179	0.674	674.1	0back	Block3	0back/STIM_007.jpg	99
1919.749	0.472	472.3	0back	Block3	0back/STIM_007.jpg	99
1923.987	0.386	386.5	0back	Block3	0back/STIM_007.jpg	100
1926.52	0.692	692.5	0back	Block3	0back/STIM_008.jpg	100
1930.835	0.505	505.0	0back	Block3	0back/STIM_008.jpg	99
1933.601	0.6	600.5	0back	Block3	0back/STIM_008.jpg	99
1937.959	0.624	624.4	0back	Block3	0back/STIM_009.jpg	100
1942.277	0.673	672.7	0back	Block3	0back/STIM_009.jpg	100
1945.698	0.496	495.9	0back	Block3	0back/STIM_009.jpg	100
1948.961	0.762	762.3	0back	Block3	0back/STIM_010.jpg	100
1953.353	0.504	504.1	0back	Block3	0back/STIM_010.jpg	100
1956.242	0.436	436.5	0back	Block3	0back/STIM_010.jpg	100
1959.297	0.531	530.6	0back	Block3	0back/STIM_011.jpg	100
1962.81	0.518	518.4	0back	Block3	0back/STIM_011.jpg	100
1965.788	0.603	603.1	0back	Block3	0back/STIM_011.jpg	100
1970.476	0.7	700.4	0back	Block3	0back/STIM_012.jpg	100
1973.424	0.668	668.2	0back	Block3	0back/STIM_012.jpg	99
1977.451	0.523	522.7	0back	Block3	0back/STIM_012.jpg	99
1980.596	0.302	301.6	0back	Block3	0back/STIM_013.jpg	100
1984.717	0.416	416.1	0back	Block3	0back/STIM_013.jpg	99
1988.872	0.657	656.7	0back	Block3	0back/STIM_013.jpg	99
1991.947	0.622	621.9	0back	Block3	0back/STIM_014.jpg	99
1995.3	0.386	385.9	0back	Block3	0back/STIM_014.jpg	99
1998.211	0.482	482.1	0back	Block3	0back/STIM_014.jpg	100
2001.949	0.696	695.6	0back	Block3	0back/STIM_015.jpg	100
2005.782	0.496	495.5	0back	Block3	0back/STIM_015.jpg	100
2009.932	0.354	353.6	0back	Block3	0back/STIM_015.jpg	99
2013.424	0.627	626.9	0back	Block3	0back/STIM_016.jpg	99
2016.682	0.633	633.3	0back	Block3	0back/STIM_016.jpg	99
2020.238	0.648	648.4	0back	Block3	0back/STIM_016.jpg	99
2023.276	0.619	619.4	0back	Block3	0back/STIM_017.jpg	99
2026.485	0.524	524.5	0back	Block3	0back/STIM_017.jpg	100
2029.223	0.666	666.0	0back	Block3	0back/STIM_017.jpg	99
2032.257	0.665	664.9	0back	Block3	0back/STIM_018.jpg	99
2034.974	0.585	585.0	0back	Block3	0back/STIM_018.jpg	99
2038.547	0.538	538.1	0back	Block3	0back/STIM_018.jpg	100
2041.91	0.693	693.3	0back	Block3	0back/STIM_019.jpg	99
2045.774	0.432	431.9	0back	Block3	0back/STIM_019.jpg	100
2049.499	0.454	454.0	0back	Block3	0back/STIM_019.jpg	99
2052.696	0.858	858.3	2back	Block4	2back/STIM_000.jpg	99
2056.569	0.598	597.8	2back	Block4	2back/STIM_000.jpg	99
2060.506	0.858	857.9	2back	Block4	2back/STIM_000.jpg	100
2064.347	0.674	674.1	2back	Block4	2back/STIM_001.jpg	99
2067.44	0.632	632.1	2back	Block4	2back/STIM_001.jpg	99
2071.739	0.408	408.0	2back	Block4	2back/STIM_001.jpg	99
2074.909	0.579	579.1	2back	Block4	2back/STIM_002.jpg	100
2077.522	0.558	557.5	2back	Block4	2back/STIM_002.jpg	99
2081.492	0.725	725.3	2back	Block4	2back/STIM_002.jpg	99
2085.76	0.518	518.4	2back	Block4	2back/STIM_003.jpg	99
2089.693	0.745	745.1	2back	Block4	2back/STIM_003.jpg	100
2094.339	0.717	716.9	2back	Block4	2back/STIM_003.jpg	99
2097.44	0.635	635.4	2back	Block4	2back/STIM_004.jpg	99
2100.272	0.564	564.3	2back	Block4	2back/STIM_004.jpg	100
2104.527	0.461	460.7	2back	Block4	2back/STIM_004.jpg	100
2108.238	0.658	658.0	2back	Block4	2back/STIM_005.jpg	100
2111.413	0.502	501.9	2back	Block4	2back/STIM_005.jpg	100
2115.489	0.339	339.3	2back	Block4	2back/STIM_005.jpg	100
2118.86	0.46	460.3	2back	Block4	2back/STIM_006.jpg	100
2122.8	0.623	623.3	2back	Block4	2back/STIM_006.jpg	100
2126.511	0.717	717.0	2back	Block4	2back/STIM_006.jpg	99
2131.134	0.43	429.7	2back	Block4	2back/STIM_007.jpg	99
2134.747	0.43	430.1	2back	Block4	2back/STIM_007.jpg	99
2137.308	0.714	713.5	2back	Block4	2back/STIM_007.jpg	100
2141.639	0.601	600.6	2back	Block4	2back/STIM_008.jpg	100
2145.229	0.686	686.1	2back	Block4	2back/STIM_008.jpg	99
2148.683	0.574	574.2	2back	Block4	2back/STIM_008.jpg	99
2153.034	0.585	585.3	2back	Block4	2back/STIM_009.jpg	100
2156.5	0.471	471.1	2back	Block4	2back/STIM_009.jpg	99
2160.379	0.845	845.1	2back	Block4	2back/STIM_009.jpg	99
2164.84	0.486	485.9	2back	Block4	2back/STIM_010.jpg	99
2168.888	0.493	493.2	2back	Block4	2back/STIM_010.jpg	99
2171.645	0.808	807.8	2back	Block4	2back/STIM_010.jpg	99
2175.539	0.851	851.4	2back	Block4	2back/STIM_011.jpg	100
2179.507	0.682	682.3	2back	Block4	2back/STIM_011.jpg	100
2182.389	0.45	449.7	2back	Block4	2back/STIM_011.jpg	100
2186.432	0.847	846.6	2back	Block4	2back/STIM_012.jpg	100
2190.859	0.728	727.6	2back	Block4	2back/STIM_012.jpg	100
2195.09	0.735	735.4	2back	Block4	2back/STIM_012.jpg	99
2198.849	0.804	804.0	2back	Block4	2back/STIM_013.jpg	99
2203.704	0.744	744.4	2back	Block4	2back/STIM_013.jpg	99
2207.696	0.802	802.3	2back	Block4	2back/STIM_013.jpg	99
2211.367	0.56	559.9	2back	Block4	2back/STIM_014.jpg	99
2214.898	0.712	712.0	2back	Block4	2back/STIM_014.jpg	100
2218.901	0.891	891.4	2back	Block4	2back/STIM_014.jpg	99
2222.009	0.567	566.6	2back	Block4	2back/STIM_015.jpg	99
2224.956	0.553	552.8	2back	Block4	2back/STIM_015.jpg	100
2227.944	0.554	554.3	2back	Block4	2back/STIM_015.jpg	99
2231.839	0.546	545.6	2back	Block4	2back/STIM_016.jpg	100
2235.336	0.599	599.3	2back	Block4	2back/STIM_016.jpg	99
2239.436	0.443	443.2	2back	Block4	2back/STIM_016.jpg	100
2243.369	0.316	315.8	2back	Block4	2back/STIM_017.jpg	99
2246.851	0.772	772.2	2back	Block4	2back/STIM_017.jpg	99
2250.527	0.894	894.4	2back	Block4	2back/STIM_017.jpg	100
2255.2	0.883	882.6	2back	Block4	2back/STIM_018.jpg	99
2259.693	0.643	643.4	2back	Block4	2back/STIM_018.jpg	99
2262.42	0.683	682.7	2back	Block4	2back/STIM_018.jpg	99
2266.925	0.856	855.5	2back	Block4	2back/STIM_019.jpg	99
2270.312	0.419	418.6	2back	Block4	2back/STIM_019.jpg	100
2273.821	0.533	532.9	2back	Block4	2back/STIM_019.jpg	99
2277.737	0.699	699.0	2back	Block4	2back/STIM_020.jpg	100
2280.622	0.804	804.1	2back	Block4	2back/STIM_020.jpg	99
2284.771	0.511	511.4	2back	Block4	2back/STIM_020.jpg	99
2289.021	0.729	728.9	2back	Block4	2back/STIM_021.jpg	100
2293.738	0.569	568.8	2back	Block4	2back/STIM_021.jpg	100
2297.266	0.708	707.8	2back	Block4	2back/STIM_021.jpg	99
2301.466	0.518	517.8	2back	Block4	2back/STIM_022.jpg	99
2305.811	0.744	743.7	2back	Block4	2back/STIM_022.jpg	99
2309.349	0.527	527.4	2back	Block4	2back/STIM_022.jpg	99
2312.481	0.412	411.9	2back	Block4	2back/STIM_023.jpg	99
2316.739	0.547	547.3	2back	Block4	2back/STIM_023.jpg	100
2320.368	0.467	466.9	2back	Block4	2back/STIM_023.jpg	100
2324.093	0.873	872.8	2back	Block4	2back/STIM_024.jpg	99
2328.823	0.823	823.0	2back	Block4	2back/STIM_024.jpg	99
2332.056	0.355	355.1	2back	Block4	2back/STIM_024.jpg	99
2336.04	0.696	696.2	2back	Block4	2back/STIM_025.jpg	99
2338.849	0.84	839.6	2back	Block4	2back/STIM_025.jpg	100
2343.662	0.612	612.0	2back	Block4	2back/STIM_025.jpg	99
2346.425	0.816	816.1	2back	Block4	2back/STIM_026.jpg	99
2350.198	0.722	721.7	2back	Block4	2back/STIM_026.jpg	100
2353.515	0.563	562.6	2back	Block4	2back/STIM_026.jpg	100
2357.823	0.619	618.8	2back	Block4	2back/STIM_027.jpg	99
2361.641	0.626	626.2	2back	Block4	2back/STIM_027.jpg	100
2364.606	0.64	639.5	2back	Block4	2back/STIM_027.jpg	100
2368.23	0.708	708.5	2back	Block4	2back/STIM_028.jpg	99
2372.272	0.408	407.8	2back	Block4	2back/STIM_028.jpg	100
2375.209	0.475	475.2	2back	Block4	2back/STIM_028.jpg	99
2379.037	0.785	785.4	2back	Block4	2back/STIM_029.jpg	100
2383.028	0.566	566.4	2back	Block4	2back/STIM_029.jpg	99
2386.467	0.776	775.6	2back	Block4	2back/STIM_029.jpg	100
2389.891	0.668	667.9	2back	Block4	2back/STIM_030.jpg	99
2394.446	0.78	779.8	2back	Block4	2back/STIM_030.jpg	99
2398.727	0.804	804.2	2back	Block4	2back/STIM_030.jpg	100
2402.392	0.523	523.2	2back	Block4	2back/STIM_031.jpg	100
2405.655	0.699	698.7	2back	Block4	2back/STIM_031.jpg	99
2409.547	0.743	743.4	2back	Block4	2back/STIM_031.jpg	100
2414.008	0.865	864.7	2back	Block4	2back/STIM_032.jpg	100
2417.62	0.518	518.2	2back	Block4	2back/STIM_032.jpg	100
2420.986	0.865	865.1	2back	Block4	2back/STIM_032.jpg	99
2425.184	0.817	817.4	2back	Block4	2back/STIM_033.jpg	100
2428.756	0.661	661.4	2back	Block4	2back/STIM_033.jpg	99
2432.287	0.482	482.1	2back	Block4	2back/STIM_033.jpg	99
2436.545	0.82	820.3	2back	Block4	2back/STIM_034.jpg	99
2439.855	0.484	483.7	2back	Block4	2back/STIM_034.jpg	99
2444.365	0.59	589.7	2back	Block4	2back/STIM_034.jpg	99
2447.284	0.758	757.6	2back	Block4	2back/STIM_035.jpg	99
2451.528	0.836	835.5	2back	Block4	2back/STIM_035.jpg	99
2454.539	0.411	411.1	2back	Block4	2back/STIM_035.jpg	100
2458.627	0.355	355.3	2back	Block4	2back/STIM_036.jpg	99
2461.723	0.692	691.7	2back	Block4	2back/STIM_036.jpg	99
2465.702	0.582	582.3	2back	Block4	2back/STIM_036.jpg	100
2469.268	0.566	565.7	2back	Block4	2back/STIM_037.jpg	99
2472.18	0.82	820.5	2back	Block4	2back/STIM_037.jpg	100
2476.64	0.537	537.0	2back	Block4	2back/STIM_037.jpg	100
2479.872	0.61	609.5	2back	Block4	2back/STIM_038.jpg	99
2484.325	0.694	694.1	2back	Block4	2back/STIM_038.jpg	99
2487.208	0.562	561.5	2back	Block4	2back/STIM_038.jpg	99
2491.067	0.408	407.7	2back	Block4	2back/STIM_039.jpg	100
2494.538	0.8	800.3	2back	Block4	2back/STIM_039.jpg	99
2499.121	0.513	513.2	2back	Block4	2back/STIM_039.jpg	99
2503.605	0.469	468.9	0back	Block4	0back/STIM_000.jpg	99
2506.674	0.721	720.7	0back	Block4	0back/STIM_000.jpg	100
2510.579	0.671	671.2	0back	Block4	0back/STIM_000.jpg	100
2513.259	0.56	559.5	0back	Block4	0back/STIM_001.jpg	100
2516.664	0.772	772.0	0back	Block4	0back/STIM_001.jpg	100
2520.031	0.621	621.2	0back	Block4	0back/STIM_001.jpg	99
2523.769	0.618	618.3	0back	Block4	0back/STIM_002.jpg	100
2526.581	0.581	580.7	0back	Block4	0back/STIM_002.jpg	100
2529.389	0.562	562.4	0back	Block4	0back/STIM_002.jpg	99
2533.803	0.499	499.0	0back	Block4	0back/STIM_003.jpg	99
2537.451	0.676	676.1	0back	Block4	0back/STIM_003.jpg	99
2540.724	0.72	719.5	0back	Block4	0back/STIM_003.jpg	100
2544.397	0.769	768.6	0back	Block4	0back/STIM_004.jpg	99
2549.148	0.521	520.9	0back	Block4	0back/STIM_004.jpg	99
2552.918	0.521	521.4	0back	Block4	0back/STIM_004.jpg	100
2557.196	0.575	574.8	0back	Block4	0back/STIM_005.jpg	100
2560.901	0.362	362.0	0back	Block4	0back/STIM_005.jpg	100
2564.434	0.341	341.2	0back	Block4	0back/STIM_005.jpg	99
2568.359	0.752	751.8	0back	Block4	0back/STIM_006.jpg	99
2572.516	0.565	564.7	0back	Block4	0back/STIM_006.jpg	100
2575.374	0.493	492.6	0back	Block4	0back/STIM_006.jpg	99
2577.951	0.736	736.1	0back	Block4	0back/STIM_007.jpg	100
2582.409	0.574	574.3	0back	Block4	0back/STIM_007.jpg	99
2586.499	0.766	766.4	0back	Block4	0back/STIM_007.jpg	100
2590.87	0.609	608.7	0back	Block4	0back/STIM_008.jpg	99
2595.099	0.607	606.9	0back	Block4	0back/STIM_008.jpg	99
2599.379	0.466	466.2	0back	Block4	0back/STIM_008.jpg	100
2602.802	0.737	736.8	0back	Block4	0back/STIM_009.jpg	99
2607.364	0.736	735.9	0back	Block4	0back/STIM_009.jpg	100
2611.035	0.498	498.5	0back	Block4	0back/STIM_009.jpg	99
2614.148	0.798	797.7	0back	Block4	0back/STIM_010.jpg	100
2618.245	0.536	536.0	0back	Block4	0back/STIM_010.jpg	99
2621.326	0.616	616.2	0back	Block4	0back/STIM_010.jpg	100
2624.987	0.328	327.8	0back	Block4	0back/STIM_011.jpg	99
2627.45	0.413	412.8	0back	Block4	0back/STIM_011.jpg	99
2631.461	0.582	582.5	0back	Block4	0back/STIM_011.jpg	100
2634.473	0.424	423.9	0back	Block4	0back/STIM_012.jpg	100
2637.933	0.586	585.9	0back	Block4	0back/STIM_012.jpg	100
2641.282	0.824	824.1	0back	Block4	0back/STIM_012.jpg	99
2644.166	0.521	521.3	0back	Block4	0back/STIM_013.jpg	100
2648.082	0.451	451.2	0back	Block4	0back/STIM_013.jpg	100
2650.878	0.627	627.0	0back	Block4	0back/STIM_013.jpg	99
2653.75	0.497	497.0	0back	Block4	0back/STIM_014.jpg	99
2656.417	0.644	643.7	0back	Block4	0back/STIM_014.jpg	99
2659.829	0.774	773.8	0back	Block4	0back/STIM_014.jpg	99
2664.518	0.608	607.9	0back	Block4	0back/STIM_015.jpg	99
2668.273	0.517	516.8	0back	Block4	0back/STIM_015.jpg	100
2671.046	0.65	650.1	0back	Block4	0back/STIM_015.jpg	99
2673.736	0.481	480.8	0back	Block4	0back/STIM_016.jpg	99
2676.461	0.683	683.0	0back	Block4	0back/STIM_016.jpg	100
2680.084	0.48	480.0	0back	Block4	0back/STIM_016.jpg	99
2683.896	0.412	411.9	0back	Block4	0back/STIM_017.jpg	100
2688.106	0.629	629.0	0back	Block4	0back/STIM_017.jpg	99
2692.307	0.702	701.9	0back	Block4	0back/STIM_017.jpg	99
2695.393	0.587	586.7	0back	Block4	0back/STIM_018.jpg	99
2698.609	0.384	384.5	0back	Block4	0back/STIM_018.jpg	99
2701.267	0.566	566.0	0back	Block4	0back/STIM_018.jpg	99
2705.456	0.768	767.9	0back	Block4	0back/STIM_019.jpg	99
2708.98	0.663	662.7	0back	Block4	0back/STIM_019.jpg	100
2711.785	0.505	505.5	0back	Block4	0back/STIM_019.jpg	99
