onset	duration	accuracy_binary	trial_type	learning_stage	stimulus
0.0	0.962	1	2back	Block1	2back/STIM_000.jpg
3.532	0.586	0	2back	Block1	2back/STIM_000.jpg
7.152	0.548	0	2back	Block1	2back/STIM_000.jpg
9.866	1.197	0	2back	Block1	2back/STIM_001.jpg
14.082	1.134	1	2back	Block1	2back/STIM_001.jpg
18.626	1.103	1	2back	Block1	2back/STIM_001.jpg
23.453	1.16	1	2back	Block1	2back/STIM_002.jpg
27.309	1.18	1	2back	Block1	2back/STIM_002.jpg
31.469	0.992	1	2back	Block1	2back/STIM_002.jpg
34.84	0.959	1	2back	Block1	2back/STIM_003.jpg
39.363	0.808	1	2back	Block1	2back/STIM_003.jpg
42.888	0.897	0	2back	Block1	2back/STIM_003.jpg
46.372	0.555	1	2back	Block1	2back/STIM_004.jpg
50.001	0.747	1	2back	Block1	2back/STIM_004.jpg
53.84	0.635	1	2back	Block1	2back/STIM_004.jpg
57.307	0.904	1	2back	Block1	2back/STIM_005.jpg
61.76	0.663	1	2back	Block1	2back/STIM_005.jpg
64.595	1.2	1	2back	Block1	2back/STIM_005.jpg
68.669	0.997	1	2back	Block1	2back/STIM_006.jpg
73.167	0.968	1	2back	Block1	2back/STIM_006.jpg
77.408	0.936	1	2back	Block1	2back/STIM_006.jpg
80.771	1.215	0	2back	Block1	2back/STIM_007.jpg
84.76	1.069	1	2back	Block1	2back/STIM_007.jpg
88.727	1.096	1	2back	Block1	2back/STIM_007.jpg
93.276	1.185	1	2back	Block1	2back/STIM_008.jpg
98.382	0.638	1	2back	Block1	2back/STIM_008.jpg
102.724	0.623	1	2back	Block1	2back/STIM_008.jpg
105.722	0.903	0	2back	Block1	2back/STIM_009.jpg
110.459	0.728	1	2back	Block1	2back/STIM_009.jpg
114.142	0.66	1	2back	Block1	2back/STIM_009.jpg
118.47	0.785	1	2back	Block1	2back/STIM_010.jpg
122.391	1.161	0	2back	Block1	2back/STIM_010.jpg
127.419	0.73	1	2back	Block1	2back/STIM_010.jpg
131.976	0.696	1	2back	Block1	2back/STIM_011.jpg
135.435	0.761	1	2back	Block1	2back/STIM_011.jpg
139.08	0.523	1	2back	Block1	2back/STIM_011.jpg
143.628	0.824	1	2back	Block1	2back/STIM_012.jpg
148.439	1.023	1	2back	Block1	2back/STIM_012.jpg
152.13	0.912	1	2back	Block1	2back/STIM_012.jpg
157.114	0.869	1	2back	Block1	2back/STIM_013.jpg
162.0	0.929	1	2back	Block1	2back/STIM_013.jpg
165.451	0.568	1	2back	Block1	2back/STIM_013.jpg
168.121	0.712	1	2back	Block1	2back/STIM_014.jpg
171.33	1.187	1	2back	Block1	2back/STIM_014.jpg
176.041	0.679	1	2back	Block1	2back/STIM_014.jpg
180.149	0.9	1	2back	Block1	2back/STIM_015.jpg
185.092	0.826	1	2back	Block1	2back/STIM_015.jpg
188.631	0.871	1	2back	Block1	2back/STIM_015.jpg
192.499	1.059	1	2back	Block1	2back/STIM_016.jpg
197.447	0.822	0	2back	Block1	2back/STIM_016.jpg
202.235	0.82	1	2back	Block1	2back/STIM_016.jpg
206.973	1.202	1	2back	Block1	2back/STIM_017.jpg
212.137	0.97	1	2back	Block1	2back/STIM_017.jpg
217.023	0.668	1	2back	Block1	2back/STIM_017.jpg
221.217	0.967	1	2back	Block1	2back/STIM_018.jpg
226.276	1.111	1	2back	Block1	2back/STIM_018.jpg
231.428	0.915	1	2back	Block1	2back/STIM_018.jpg
236.296	0.724	0	2back	Block1	2back/STIM_019.jpg
239.779	1.279	1	2back	Block1	2back/STIM_019.jpg
244.416	1.071	1	2back	Block1	2back/STIM_019.jpg
249.344	0.507	1	2back	Block1	2back/STIM_020.jpg
252.811	0.978	1	2back	Block1	2back/STIM_020.jpg
257.728	0.953	1	2back	Block1	2back/STIM_020.jpg
261.422	0.941	0	2back	Block1	2back/STIM_021.jpg
266.001	1.188	0	2back	Block1	2back/STIM_021.jpg
269.777	0.641	1	2back	Block1	2back/STIM_021.jpg
272.881	1.087	1	2back	Block1	2back/STIM_022.jpg
277.678	0.907	1	2back	Block1	2back/STIM_022.jpg
281.241	1.0	0	2back	Block1	2back/STIM_022.jpg
284.393	0.904	1	2back	Block1	2back/STIM_023.jpg
289.18	1.27	0	2back	Block1	2back/STIM_023.jpg
293.051	1.014	1	2back	Block1	2back/STIM_023.jpg
297.295	1.026	1	2back	Block1	2back/STIM_024.jpg
302.342	0.534	1	2back	Block1	2back/STIM_024.jpg
306.415	0.988	1	2back	Block1	2back/STIM_024.jpg
309.984	1.242	1	2back	Block1	2back/STIM_025.jpg
314.421	1.06	0	2back	Block1	2back/STIM_025.jpg
317.699	0.767	1	2back	Block1	2back/STIM_025.jpg
322.255	1.093	0	2back	Block1	2back/STIM_026.jpg
327.316	0.725	1	2back	Block1	2back/STIM_026.jpg
330.801	0.915	0	2back	Block1	2back/STIM_026.jpg
334.641	0.654	1	2back	Block1	2back/STIM_027.jpg
339.135	0.695	1	2back	Block1	2back/STIM_027.jpg
342.995	1.056	1	2back	Block1	2back/STIM_027.jpg
347.773	0.846	1	2back	Block1	2back/STIM_028.jpg
351.023	0.977	1	2back	Block1	2back/STIM_028.jpg
355.8	0.709	1	2back	Block1	2back/STIM_028.jpg
358.688	1.257	1	2back	Block1	2back/STIM_029.jpg
362.892	0.623	1	2back	Block1	2back/STIM_029.jpg
366.255	0.582	1	2back	Block1	2back/STIM_029.jpg
369.904	0.711	1	2back	Block1	2back/STIM_030.jpg
374.471	1.048	1	2back	Block1	2back/STIM_030.jpg
378.076	0.762	0	2back	Block1	2back/STIM_030.jpg
381.353	0.766	1	2back	Block1	2back/STIM_031.jpg
385.776	1.147	0	2back	Block1	2back/STIM_031.jpg
390.919	0.883	1	2back	Block1	2back/STIM_031.jpg
395.068	1.054	0	2back	Block1	2back/STIM_032.jpg
399.611	0.964	0	2back	Block1	2back/STIM_032.jpg
403.887	0.677	1	2back	Block1	2back/STIM_032.jpg
408.604	0.95	0	2back	Block1	2back/STIM_033.jpg
411.759	0.763	1	2back	Block1	2back/STIM_033.jpg
415.706	0.715	1	2back	Block1	2back/STIM_033.jpg
419.328	1.179	1	2back	Block1	2back/STIM_034.jpg
424.607	0.588	1	2back	Block1	2back/STIM_034.jpg
428.638	0.571	1	2back	Block1	2back/STIM_034.jpg
433.164	1.191	1	2back	Block1	2back/STIM_035.jpg
437.003	0.649	1	2back	Block1	2back/STIM_035.jpg
440.791	0.846	1	2back	Block1	2back/STIM_035.jpg
443.868	1.257	1	2back	Block1	2back/STIM_036.jpg
447.209	1.106	1	2back	Block1	2back/STIM_036.jpg
451.958	0.799	1	2back	Block1	2back/STIM_036.jpg
455.951	0.831	0	2back	Block1	2back/STIM_037.jpg
460.363	0.726	0	2back	Block1	2back/STIM_037.jpg
464.859	0.776	1	2back	Block1	2back/STIM_037.jpg
468.402	1.001	0	2back	Block1	2back/STIM_038.jpg
472.874	0.623	1	2back	Block1	2back/STIM_038.jpg
477.572	0.584	1	2back	Block1	2back/STIM_038.jpg
480.455	1.212	1	2back	Block1	2back/STIM_039.jpg
484.549	0.79	1	2back	Block1	2back/STIM_039.jpg
489.337	0.815	0	2back	Block1	2back/STIM_039.jpg
493.537	0.618	1	0back	Block1	0back/STIM_000.jpg
497.628	0.53	1	0back	Block1	0back/STIM_000.jpg
500.619	0.76	1	0back	Block1	0back/STIM_000.jpg
503.913	0.5	1	0back	Block1	0back/STIM_001.jpg
506.786	0.46	1	0back	Block1	0back/STIM_001.jpg
511.24	0.483	1	0back	Block1	0back/STIM_001.jpg
514.242	0.418	1	0back	Block1	0back/STIM_002.jpg
517.761	0.404	1	0back	Block1	0back/STIM_002.jpg
522.094	0.474	1	0back	Block1	0back/STIM_002.jpg
525.798	0.52	1	0back	Block1	0back/STIM_003.jpg
529.244	0.542	1	0back	Block1	0back/STIM_003.jpg
532.103	0.451	1	0back	Block1	0back/STIM_003.jpg
535.218	0.76	1	0back	Block1	0back/STIM_004.jpg
539.123	0.394	1	0back	Block1	0back/STIM_004.jpg
541.836	0.545	1	0back	Block1	0back/STIM_004.jpg
544.692	0.423	1	0back	Block1	0back/STIM_005.jpg
548.573	0.675	1	0back	Block1	0back/STIM_005.jpg
552.038	0.464	1	0back	Block1	0back/STIM_005.jpg
554.611	0.7	1	0back	Block1	0back/STIM_006.jpg
558.88	0.451	1	0back	Block1	0back/STIM_006.jpg
563.105	0.473	1	0back	Block1	0back/STIM_006.jpg
565.981	0.618	1	0back	Block1	0back/STIM_007.jpg
570.023	0.372	1	0back	Block1	0back/STIM_007.jpg
574.091	0.396	1	0back	Block1	0back/STIM_007.jpg
577.27	0.565	1	0back	Block1	0back/STIM_008.jpg
581.619	0.739	1	0back	Block1	0back/STIM_008.jpg
586.318	0.65	1	0back	Block1	0back/STIM_008.jpg
590.597	0.656	1	0back	Block1	0back/STIM_009.jpg
594.009	0.488	1	0back	Block1	0back/STIM_009.jpg
597.707	0.659	1	0back	Block1	0back/STIM_009.jpg
601.997	0.621	1	0back	Block1	0back/STIM_010.jpg
605.981	0.425	1	0back	Block1	0back/STIM_010.jpg
608.55	0.339	1	0back	Block1	0back/STIM_010.jpg
611.402	0.676	1	0back	Block1	0back/STIM_011.jpg
614.232	0.545	1	0back	Block1	0back/STIM_011.jpg
617.241	0.781	1	0back	Block1	0back/STIM_011.jpg
621.477	0.575	1	0back	Block1	0back/STIM_012.jpg
624.13	0.491	1	0back	Block1	0back/STIM_012.jpg
627.626	0.589	1	0back	Block1	0back/STIM_012.jpg
630.995	0.584	1	0back	Block1	0back/STIM_013.jpg
634.337	0.786	1	0back	Block1	0back/STIM_013.jpg
638.571	0.438	1	0back	Block1	0back/STIM_013.jpg
641.083	0.635	1	0back	Block1	0back/STIM_014.jpg
644.826	0.573	1	0back	Block1	0back/STIM_014.jpg
649.074	0.716	1	0back	Block1	0back/STIM_014.jpg
653.257	0.518	1	0back	Block1	0back/STIM_015.jpg
656.445	0.385	1	0back	Block1	0back/STIM_015.jpg
660.44	0.584	1	0back	Block1	0back/STIM_015.jpg
663.49	0.756	1	0back	Block1	0back/STIM_016.jpg
667.42	0.494	1	0back	Block1	0back/STIM_016.jpg
670.714	0.472	1	0back	Block1	0back/STIM_016.jpg
674.744	0.705	1	0back	Block1	0back/STIM_017.jpg
677.801	0.434	1	0back	Block1	0back/STIM_017.jpg
681.888	0.418	1	0back	Block1	0back/STIM_017.jpg
685.039	0.642	1	0back	Block1	0back/STIM_018.jpg
689.511	0.377	1	0back	Block1	0back/STIM_018.jpg
693.792	0.604	1	0back	Block1	0back/STIM_018.jpg
698.047	0.653	1	0back	Block1	0back/STIM_019.jpg
701.639	0.513	1	0back	Block1	0back/STIM_019.jpg
705.531	0.52	1	0back	Block1	0back/STIM_019.jpg
709.684	1.058	1	2back	Block2	2back/STIM_000.jpg
713.256	0.724	1	2back	Block2	2back/STIM_000.jpg
716.695	0.547	1	2back	Block2	2back/STIM_000.jpg
720.299	0.514	1	2back	Block2	2back/STIM_001.jpg
723.436	0.738	1	2back	Block2	2back/STIM_001.jpg
728.047	0.501	1	2back	Block2	2back/STIM_001.jpg
731.756	0.857	1	2back	Block2	2back/STIM_002.jpg
735.961	0.682	1	2back	Block2	2back/STIM_002.jpg
740.392	0.614	1	2back	Block2	2back/STIM_002.jpg
744.823	0.9	1	2back	Block2	2back/STIM_003.jpg
747.801	0.565	1	2back	Block2	2back/STIM_003.jpg
751.727	0.714	1	2back	Block2	2back/STIM_003.jpg
755.851	0.826	1	2back	Block2	2back/STIM_004.jpg
760.496	0.874	1	2back	Block2	2back/STIM_004.jpg
764.941	0.648	1	2back	Block2	2back/STIM_004.jpg
767.854	0.586	1	2back	Block2	2back/STIM_005.jpg
771.364	0.902	1	2back	Block2	2back/STIM_005.jpg
775.08	0.635	1	2back	Block2	2back/STIM_005.jpg
779.769	0.598	1	2back	Block2	2back/STIM_006.jpg
782.66	0.884	1	2back	Block2	2back/STIM_006.jpg
786.189	0.38	1	2back	Block2	2back/STIM_006.jpg
789.285	0.888	1	2back	Block2	2back/STIM_007.jpg
793.605	0.594	1	2back	Block2	2back/STIM_007.jpg
797.537	0.526	1	2back	Block2	2back/STIM_007.jpg
801.856	1.031	1	2back	Block2	2back/STIM_008.jpg
806.801	0.898	1	2back	Block2	2back/STIM_008.jpg
811.373	0.847	1	2back	Block2	2back/STIM_008.jpg
816.243	0.621	0	2back	Block2	2back/STIM_009.jpg
820.086	0.567	1	2back	Block2	2back/STIM_009.jpg
824.572	0.49	1	2back	Block2	2back/STIM_009.jpg
827.435	0.573	0	2back	Block2	2back/STIM_010.jpg
831.674	0.676	1	2back	Block2	2back/STIM_010.jpg
834.918	0.862	1	2back	Block2	2back/STIM_010.jpg
838.557	0.57	1	2back	Block2	2back/STIM_011.jpg
841.528	0.674	1	2back	Block2	2back/STIM_011.jpg
844.868	0.506	1	2back	Block2	2back/STIM_011.jpg
848.193	0.441	1	2back	Block2	2back/STIM_012.jpg
852.126	0.614	0	2back	Block2	2back/STIM_012.jpg
856.552	0.662	1	2back	Block2	2back/STIM_012.jpg
860.508	0.641	1	2back	Block2	2back/STIM_013.jpg
863.994	0.743	1	2back	Block2	2back/STIM_013.jpg
868.183	0.632	1	2back	Block2	2back/STIM_013.jpg
871.67	1.158	1	2back	Block2	2back/STIM_014.jpg
875.818	0.972	1	2back	Block2	2back/STIM_014.jpg
880.454	0.637	1	2back	Block2	2back/STIM_014.jpg
883.488	1.029	1	2back	Block2	2back/STIM_015.jpg
888.425	0.821	1	2back	Block2	2back/STIM_015.jpg
892.529	0.683	0	2back	Block2	2back/STIM_015.jpg
895.799	0.587	0	2back	Block2	2back/STIM_016.jpg
900.269	0.811	1	2back	Block2	2back/STIM_016.jpg
903.22	0.538	1	2back	Block2	2back/STIM_016.jpg
907.388	0.898	1	2back	Block2	2back/STIM_017.jpg
911.442	1.046	0	2back	Block2	2back/STIM_017.jpg
916.066	0.958	1	2back	Block2	2back/STIM_017.jpg
920.231	0.515	1	2back	Block2	2back/STIM_018.jpg
923.326	0.775	1	2back	Block2	2back/STIM_018.jpg
926.843	0.922	1	2back	Block2	2back/STIM_018.jpg
931.492	0.765	1	2back	Block2	2back/STIM_019.jpg
935.463	1.027	1	2back	Block2	2back/STIM_019.jpg
940.442	0.693	1	2back	Block2	2back/STIM_019.jpg
943.72	0.648	1	2back	Block2	2back/STIM_020.jpg
946.886	1.05	1	2back	Block2	2back/STIM_020.jpg
951.577	0.908	1	2back	Block2	2back/STIM_020.jpg
955.311	1.024	1	2back	Block2	2back/STIM_021.jpg
959.329	0.564	1	2back	Block2	2back/STIM_021.jpg
962.82	0.842	1	2back	Block2	2back/STIM_021.jpg
966.766	1.003	1	2back	Block2	2back/STIM_022.jpg
970.76	0.618	0	2back	Block2	2back/STIM_022.jpg
974.085	0.832	1	2back	Block2	2back/STIM_022.jpg
977.555	1.074	1	2back	Block2	2back/STIM_023.jpg
981.408	0.878	1	2back	Block2	2back/STIM_023.jpg
985.351	0.441	1	2back	Block2	2back/STIM_023.jpg
989.082	0.928	1	2back	Block2	2back/STIM_024.jpg
992.918	0.466	1	2back	Block2	2back/STIM_024.jpg
996.401	0.549	1	2back	Block2	2back/STIM_024.jpg
999.408	0.873	1	2back	Block2	2back/STIM_025.jpg
1002.946	0.652	1	2back	Block2	2back/STIM_025.jpg
1006.226	0.748	0	2back	Block2	2back/STIM_025.jpg
1010.457	0.641	0	2back	Block2	2back/STIM_026.jpg
1013.68	0.79	1	2back	Block2	2back/STIM_026.jpg
1017.76	0.773	1	2back	Block2	2back/STIM_026.jpg
1021.834	1.116	1	2back	Block2	2back/STIM_027.jpg
1025.653	0.737	0	2back	Block2	2back/STIM_027.jpg
1028.612	0.766	1	2back	Block2	2back/STIM_027.jpg
1032.099	0.963	1	2back	Block2	2back/STIM_028.jpg
1035.988	0.942	1	2back	Block2	2back/STIM_028.jpg
1040.669	0.82	1	2back	Block2	2back/STIM_028.jpg
1044.871	0.897	1	2back	Block2	2back/STIM_029.jpg
1048.164	0.728	1	2back	Block2	2back/STIM_029.jpg
1050.997	0.517	0	2back	Block2	2back/STIM_029.jpg
1055.423	0.518	1	2back	Block2	2back/STIM_030.jpg
1059.079	0.505	1	2back	Block2	2back/STIM_030.jpg
1061.742	0.441	1	2back	Block2	2back/STIM_030.jpg
1065.557	0.339	0	2back	Block2	2back/STIM_031.jpg
1068.681	0.779	1	2back	Block2	2back/STIM_031.jpg
1073.417	0.498	1	2back	Block2	2back/STIM_031.jpg
1076.793	0.635	1	2back	Block2	2back/STIM_032.jpg
1081.502	0.702	1	2back	Block2	2back/STIM_032.jpg
1085.478	0.406	1	2back	Block2	2back/STIM_032.jpg
1089.02	0.88	1	2back	Block2	2back/STIM_033.jpg
1093.979	0.827	1	2back	Block2	2back/STIM_033.jpg
1098.446	0.697	1	2back	Block2	2back/STIM_033.jpg
1101.522	0.661	1	2back	Block2	2back/STIM_034.jpg
1105.65	0.865	1	2back	Block2	2back/STIM_034.jpg
1110.129	0.495	1	2back	Block2	2back/STIM_034.jpg
1113.754	1.055	1	2back	Block2	2back/STIM_035.jpg
1117.623	0.604	0	2back	Block2	2back/STIM_035.jpg
1121.578	0.502	1	2back	Block2	2back/STIM_035.jpg
1124.991	0.653	1	2back	Block2	2back/STIM_036.jpg
1129.142	0.4	1	2back	Block2	2back/STIM_036.jpg
1132.416	0.719	1	2back	Block2	2back/STIM_036.jpg
1135.315	1.093	1	2back	Block2	2back/STIM_037.jpg
1140.138	0.576	1	2back	Block2	2back/STIM_037.jpg
1143.779	0.506	1	2back	Block2	2back/STIM_037.jpg
1147.499	1.052	0	2back	Block2	2back/STIM_038.jpg
1151.572	0.652	1	2back	Block2	2back/STIM_038.jpg
1155.21	0.802	1	2back	Block2	2back/STIM_038.jpg
1159.402	0.666	1	2back	Block2	2back/STIM_039.jpg
1163.656	0.714	1	2back	Block2	2back/STIM_039.jpg
1167.86	0.745	1	2back	Block2	2back/STIM_039.jpg
1172.261	0.681	1	0back	Block2	0back/STIM_000.jpg
1175.481	0.566	1	0back	Block2	0back/STIM_000.jpg
1179.024	0.71	1	0back	Block2	0back/STIM_000.jpg
1183.689	0.494	0	0back	Block2	0back/STIM_001.jpg
1186.656	0.711	1	0back	Block2	0back/STIM_001.jpg
1190.597	0.619	1	0back	Block2	0back/STIM_001.jpg
1195.312	0.686	1	0back	Block2	0back/STIM_002.jpg
1199.54	0.73	1	0back	Block2	0back/STIM_002.jpg
1204.159	0.49	1	0back	Block2	0back/STIM_002.jpg
1207.014	0.521	1	0back	Block2	0back/STIM_003.jpg
1210.627	0.548	1	0back	Block2	0back/STIM_003.jpg
1214.965	0.573	1	0back	Block2	0back/STIM_003.jpg
1219.257	0.298	1	0back	Block2	0back/STIM_004.jpg
1222.172	0.528	1	0back	Block2	0back/STIM_004.jpg
1226.786	0.549	1	0back	Block2	0back/STIM_004.jpg
1229.892	0.612	1	0back	Block2	0back/STIM_005.jpg
1232.946	0.722	1	0back	Block2	0back/STIM_005.jpg
1237.547	0.774	1	0back	Block2	0back/STIM_005.jpg
1241.548	0.497	1	0back	Block2	0back/STIM_006.jpg
1244.901	0.616	0	0back	Block2	0back/STIM_006.jpg
1249.558	0.715	1	0back	Block2	0back/STIM_006.jpg
1253.087	0.434	1	0back	Block2	0back/STIM_007.jpg
1257.087	0.533	1	0back	Block2	0back/STIM_007.jpg
1260.216	0.406	1	0back	Block2	0back/STIM_007.jpg
1264.696	0.618	1	0back	Block2	0back/STIM_008.jpg
1267.46	0.702	1	0back	Block2	0back/STIM_008.jpg
1270.994	0.513	1	0back	Block2	0back/STIM_008.jpg
1274.827	0.708	1	0back	Block2	0back/STIM_009.jpg
1278.688	0.719	1	0back	Block2	0back/STIM_009.jpg
1281.638	0.666	1	0back	Block2	0back/STIM_009.jpg
1286.27	0.728	1	0back	Block2	0back/STIM_010.jpg
1290.039	0.805	1	0back	Block2	0back/STIM_010.jpg
1294.016	0.539	1	0back	Block2	0back/STIM_010.jpg
1298.025	0.435	1	0back	Block2	0back/STIM_011.jpg
1301.664	0.558	1	0back	Block2	0back/STIM_011.jpg
1305.548	0.534	1	0back	Block2	0back/STIM_011.jpg
1309.868	0.453	1	0back	Block2	0back/STIM_012.jpg
1312.449	0.481	1	0back	Block2	0back/STIM_012.jpg
1315.356	0.804	1	0back	Block2	0back/STIM_012.jpg
1319.142	0.424	1	0back	Block2	0back/STIM_013.jpg
1323.332	0.503	1	0back	Block2	0back/STIM_013.jpg
1327.335	0.758	1	0back	Block2	0back/STIM_013.jpg
1331.948	0.792	1	0back	Block2	0back/STIM_014.jpg
1335.323	0.514	1	0back	Block2	0back/STIM_014.jpg
1337.95	0.395	0	0back	Block2	0back/STIM_014.jpg
1342.148	0.557	1	0back	Block2	0back/STIM_015.jpg
1345.348	0.771	1	0back	Block2	0back/STIM_015.jpg
1350.042	0.69	1	0back	Block2	0back/STIM_015.jpg
1354.418	0.422	1	0back	Block2	0back/STIM_016.jpg
1358.729	0.583	1	0back	Block2	0back/STIM_016.jpg
1361.487	0.567	1	0back	Block2	0back/STIM_016.jpg
1365.716	0.323	0	0back	Block2	0back/STIM_017.jpg
1368.667	0.806	1	0back	Block2	0back/STIM_017.jpg
1371.818	0.645	1	0back	Block2	0back/STIM_017.jpg
1374.599	0.404	1	0back	Block2	0back/STIM_018.jpg
1378.027	0.552	1	0back	Block2	0back/STIM_018.jpg
1381.968	0.622	1	0back	Block2	0back/STIM_018.jpg
1386.334	0.414	1	0back	Block2	0back/STIM_019.jpg
1388.981	0.659	1	0back	Block2	0back/STIM_019.jpg
1392.579	0.469	1	0back	Block2	0back/STIM_019.jpg
1395.158	0.551	1	2back	Block3	2back/STIM_000.jpg
1397.825	0.846	1	2back	Block3	2back/STIM_000.jpg
1402.689	0.657	1	2back	Block3	2back/STIM_000.jpg
1405.766	0.65	1	2back	Block3	2back/STIM_001.jpg
1408.877	0.838	1	2back	Block3	2back/STIM_001.jpg
1412.89	0.882	1	2back	Block3	2back/STIM_001.jpg
1416.972	0.879	1	2back	Block3	2back/STIM_002.jpg
1420.766	0.534	1	2back	Block3	2back/STIM_002.jpg
1424.334	0.906	1	2back	Block3	2back/STIM_002.jpg
1427.759	0.679	1	2back	Block3	2back/STIM_003.jpg
1431.579	0.651	1	2back	Block3	2back/STIM_003.jpg
1435.165	0.675	1	2back	Block3	2back/STIM_003.jpg
1438.224	0.795	1	2back	Block3	2back/STIM_004.jpg
1441.929	0.588	0	2back	Block3	2back/STIM_004.jpg
1445.488	0.894	1	2back	Block3	2back/STIM_004.jpg
1448.815	0.846	0	2back	Block3	2back/STIM_005.jpg
1452.146	0.749	1	2back	Block3	2back/STIM_005.jpg
1456.524	0.567	1	2back	Block3	2back/STIM_005.jpg
1460.003	0.538	1	2back	Block3	2back/STIM_006.jpg
1464.461	0.596	1	2back	Block3	2back/STIM_006.jpg
1468.056	0.6	1	2back	Block3	2back/STIM_006.jpg
1472.33	0.56	1	2back	Block3	2back/STIM_007.jpg
1475.846	0.589	1	2back	Block3	2back/STIM_007.jpg
1480.137	0.717	1	2back	Block3	2back/STIM_007.jpg
1483.404	0.753	1	2back	Block3	2back/STIM_008.jpg
1487.838	0.777	1	2back	Block3	2back/STIM_008.jpg
1492.315	0.469	1	2back	Block3	2back/STIM_008.jpg
1496.467	0.472	1	2back	Block3	2back/STIM_009.jpg
1499.213	0.772	1	2back	Block3	2back/STIM_009.jpg
1503.876	0.962	1	2back	Block3	2back/STIM_009.jpg
1508.236	0.708	1	2back	Block3	2back/STIM_010.jpg
1511.733	0.784	1	2back	Block3	2back/STIM_010.jpg
1515.625	0.585	1	2back	Block3	2back/STIM_010.jpg
1519.625	0.943	1	2back	Block3	2back/STIM_011.jpg
1523.295	0.879	1	2back	Block3	2back/STIM_011.jpg
1526.749	0.432	1	2back	Block3	2back/STIM_011.jpg
1530.83	0.773	1	2back	Block3	2back/STIM_012.jpg
1534.349	0.716	1	2back	Block3	2back/STIM_012.jpg
1537.343	0.587	1	2back	Block3	2back/STIM_012.jpg
1541.259	0.809	1	2back	Block3	2back/STIM_013.jpg
1544.94	0.521	1	2back	Block3	2back/STIM_013.jpg
1548.389	0.408	1	2back	Block3	2back/STIM_013.jpg
1550.863	0.438	1	2back	Block3	2back/STIM_014.jpg
1555.026	0.934	1	2back	Block3	2back/STIM_014.jpg
1559.414	0.858	1	2back	Block3	2back/STIM_014.jpg
1564.134	0.809	1	2back	Block3	2back/STIM_015.jpg
1568.649	0.795	1	2back	Block3	2back/STIM_015.jpg
1571.612	0.715	1	2back	Block3	2back/STIM_015.jpg
1575.288	0.492	1	2back	Block3	2back/STIM_016.jpg
1579.633	0.556	1	2back	Block3	2back/STIM_016.jpg
1582.899	0.616	1	2back	Block3	2back/STIM_016.jpg
1585.991	0.512	1	2back	Block3	2back/STIM_017.jpg
1588.901	0.458	1	2back	Block3	2back/STIM_017.jpg
1591.929	0.713	1	2back	Block3	2back/STIM_017.jpg
1595.606	0.76	1	2back	Block3	2back/STIM_018.jpg
1600.037	0.544	1	2back	Block3	2back/STIM_018.jpg
1604.086	0.766	1	2back	Block3	2back/STIM_018.jpg
1608.692	0.605	1	2back	Block3	2back/STIM_019.jpg
1611.859	0.801	1	2back	Block3	2back/STIM_019.jpg
1614.802	0.556	1	2back	Block3	2back/STIM_019.jpg
1618.624	0.491	1	2back	Block3	2back/STIM_020.jpg
1622.346	0.563	1	2back	Block3	2back/STIM_020.jpg
1625.619	0.391	1	2back	Block3	2back/STIM_020.jpg
1628.338	0.849	1	2back	Block3	2back/STIM_021.jpg
1631.619	0.877	1	2back	Block3	2back/STIM_021.jpg
1635.718	0.486	0	2back	Block3	2back/STIM_021.jpg
1638.466	0.552	1	2back	Block3	2back/STIM_022.jpg
1641.791	0.653	1	2back	Block3	2back/STIM_022.jpg
1646.476	0.49	1	2back	Block3	2back/STIM_022.jpg
1650.166	0.716	1	2back	Block3	2back/STIM_023.jpg
1653.464	0.652	1	2back	Block3	2back/STIM_023.jpg
1658.083	0.577	1	2back	Block3	2back/STIM_023.jpg
1661.041	0.472	1	2back	Block3	2back/STIM_024.jpg
1665.575	0.43	1	2back	Block3	2back/STIM_024.jpg
1669.434	0.806	1	2back	Block3	2back/STIM_024.jpg
1673.205	0.784	1	2back	Block3	2back/STIM_025.jpg
1677.217	0.456	1	2back	Block3	2back/STIM_025.jpg
1679.828	0.593	1	2back	Block3	2back/STIM_025.jpg
1684.27	0.383	1	2back	Block3	2back/STIM_026.jpg
1687.97	0.471	1	2back	Block3	2back/STIM_026.jpg
1691.091	0.46	1	2back	Block3	2back/STIM_026.jpg
1695.233	0.789	1	2back	Block3	2back/STIM_027.jpg
1698.538	0.504	1	2back	Block3	2back/STIM_027.jpg
1702.625	0.962	1	2back	Block3	2back/STIM_027.jpg
1706.449	0.636	1	2back	Block3	2back/STIM_028.jpg
1710.849	0.827	1	2back	Block3	2back/STIM_028.jpg
1714.664	0.854	1	2back	Block3	2back/STIM_028.jpg
1718.631	0.798	1	2back	Block3	2back/STIM_029.jpg
1722.179	0.564	1	2back	Block3	2back/STIM_029.jpg
1726.564	0.804	1	2back	Block3	2back/STIM_029.jpg
1730.408	0.462	0	2back	Block3	2back/STIM_030.jpg
1733.135	0.812	1	2back	Block3	2back/STIM_030.jpg
1736.036	0.888	1	2back	Block3	2back/STIM_030.jpg
1740.305	0.731	1	2back	Block3	2back/STIM_031.jpg
1743.535	0.648	0	2back	Block3	2back/STIM_031.jpg
1746.662	0.782	1	2back	Block3	2back/STIM_031.jpg
1749.997	0.712	1	2back	Block3	2back/STIM_032.jpg
1753.532	0.516	1	2back	Block3	2back/STIM_032.jpg
1756.878	0.816	1	2back	Block3	2back/STIM_032.jpg
1761.164	0.567	1	2back	Block3	2back/STIM_033.jpg
1764.076	0.456	1	2back	Block3	2back/STIM_033.jpg
1767.903	0.674	1	2back	Block3	2back/STIM_033.jpg
1772.535	0.615	0	2back	Block3	2back/STIM_034.jpg
1777.149	0.438	0	2back	Block3	2back/STIM_034.jpg
1781.433	0.922	1	2back	Block3	2back/STIM_034.jpg
1785.463	0.868	1	2back	Block3	2back/STIM_035.jpg
1789.845	0.639	1	2back	Block3	2back/STIM_035.jpg
1792.773	0.408	1	2back	Block3	2back/STIM_035.jpg
1796.172	0.456	1	2back	Block3	2back/STIM_036.jpg
1799.018	0.424	1	2back	Block3	2back/STIM_036.jpg
1803.018	0.585	1	2back	Block3	2back/STIM_036.jpg
1806.309	0.373	1	2back	Block3	2back/STIM_037.jpg
1809.641	0.459	1	2back	Block3	2back/STIM_037.jpg
1813.578	0.632	1	2back	Block3	2back/STIM_037.jpg
1817.992	0.524	0	2back	Block3	2back/STIM_038.jpg
1821.755	0.734	1	2back	Block3	2back/STIM_038.jpg
1825.261	0.799	1	2back	Block3	2back/STIM_038.jpg
1829.811	0.483	1	2back	Block3	2back/STIM_039.jpg
1832.816	0.717	1	2back	Block3	2back/STIM_039.jpg
1837.153	0.661	1	2back	Block3	2back/STIM_039.jpg
1840.129	0.494	1	0back	Block3	0back/STIM_000.jpg
1843.026	0.498	1	0back	Block3	0back/STIM_000.jpg
1845.687	0.563	1	0back	Block3	0back/STIM_000.jpg
1849.966	0.685	1	0back	Block3	0back/STIM_001.jpg
1852.746	0.461	1	0back	Block3	0back/STIM_001.jpg
1857.062	0.646	1	0back	Block3	0back/STIM_001.jpg
1861.659	0.511	0	0back	Block3	0back/STIM_002.jpg
1864.925	0.47	1	0back	Block3	0back/STIM_002.jpg
1869.174	0.55	1	0back	Block3	0back/STIM_002.jpg
1872.132	0.433	1	0back	Block3	0back/STIM_003.jpg
1875.342	0.7	1	0back	Block3	0back/STIM_003.jpg
1878.63	0.623	1	0back	Block3	0back/STIM_003.jpg
1882.952	0.515	1	0back	Block3	0back/STIM_004.jpg
1887.32	0.493	1	0back	Block3	0back/STIM_004.jpg
1890.037	0.388	1	0back	Block3	0back/STIM_004.jpg
1893.423	0.635	1	0back	Block3	0back/STIM_005.jpg
1897.345	0.635	1	0back	Block3	0back/STIM_005.jpg
1900.141	0.727	1	0back	Block3	0back/STIM_005.jpg
1904.063	0.602	1	0back	Block3	0back/STIM_006.jpg
1908.364	0.336	1	0back	Block3	0back/STIM_006.jpg
1912.684	0.553	1	0back	Block3	0back/STIM_006.jpg
1916.179	0.674	1	0back	Block3	0back/STIM_007.jpg
1919.749	0.472	1	0back	Block3	0back/STIM_007.jpg
1923.987	0.386	1	0back	Block3	0back/STIM_007.jpg
1926.52	0.692	1	0back	Block3	0back/STIM_008.jpg
1930.835	0.505	1	0back	Block3	0back/STIM_008.jpg
1933.601	0.6	1	0back	Block3	0back/STIM_008.jpg
1937.959	0.624	1	0back	Block3	0back/STIM_009.jpg
1942.277	0.673	1	0back	Block3	0back/STIM_009.jpg
1945.698	0.496	1	0back	Block3	0back/STIM_009.jpg
1948.961	0.762	1	0back	Block3	0back/STIM_010.jpg
1953.353	0.504	1	0back	Block3	0back/STIM_010.jpg
1956.242	0.436	1	0back	Block3	0back/STIM_010.jpg
1959.297	0.531	1	0back	Block3	0back/STIM_011.jpg
1962.81	0.518	1	0back	Block3	0back/STIM_011.jpg
1965.788	0.603	1	0back	Block3	0back/STIM_011.jpg
1970.476	0.7	1	0back	Block3	0back/STIM_012.jpg
1973.424	0.668	1	0back	Block3	0back/STIM_012.jpg
1977.451	0.523	1	0back	Block3	0back/STIM_012.jpg
1980.596	0.302	1	0back	Block3	0back/STIM_013.jpg
1984.717	0.416	1	0back	Block3	0back/STIM_013.jpg
1988.872	0.657	1	0back	Block3	0back/STIM_013.jpg
1991.947	0.622	1	0back	Block3	0back/STIM_014.jpg
1995.3	0.386	1	0back	Block3	0back/STIM_014.jpg
1998.211	0.482	1	0back	Block3	0back/STIM_014.jpg
2001.949	0.696	1	0back	Block3	0back/STIM_015.jpg
2005.782	0.496	1	0back	Block3	0back/STIM_015.jpg
2009.932	0.354	1	0back	Block3	0back/STIM_015.jpg
2013.424	0.627	1	0back	Block3	0back/STIM_016.jpg
2016.682	0.633	1	0back	Block3	0back/STIM_016.jpg
2020.238	0.648	1	0back	Block3	0back/STIM_016.jpg
2023.276	0.619	1	0back	Block3	0back/STIM_017.jpg
2026.485	0.524	1	0back	Block3	0back/STIM_017.jpg
2029.223	0.666	1	0back	Block3	0back/STIM_017.jpg
2032.257	0.665	1	0back	Block3	0back/STIM_018.jpg
2034.974	0.585	1	0back	Block3	0back/STIM_018.jpg
2038.547	0.538	1	0back	Block3	0back/STIM_018.jpg
2041.91	0.693	1	0back	Block3	0back/STIM_019.jpg
2045.774	0.432	1	0back	Block3	0back/STIM_019.jpg
2049.499	0.454	1	0back	Block3	0back/STIM_019.jpg
2052.696	0.858	1	2back	Block4	2back/STIM_000.jpg
2056.569	0.598	1	2back	Block4	2back/STIM_000.jpg
2060.506	0.858	1	2back	Block4	2back/STIM_000.jpg
2064.347	0.674	1	2back	Block4	2back/STIM_001.jpg
2067.44	0.632	1	2back	Block4	2back/STIM_001.jpg
2071.739	0.408	0	2back	Block4	2back/STIM_001.jpg
2074.909	0.579	1	2back	Block4	2back/STIM_002.jpg
2077.522	0.558	1	2back	Block4	2back/STIM_002.jpg
2081.492	0.725	1	2back	Block4	2back/STIM_002.jpg
2085.76	0.518	1	2back	Block4	2back/STIM_003.jpg
2089.693	0.745	0	2back	Block4	2back/STIM_003.jpg
2094.339	0.717	1	2back	Block4	2back/STIM_003.jpg
2097.44	0.635	1	2back	Block4	2back/STIM_004.jpg
2100.272	0.564	1	2back	Block4	2back/STIM_004.jpg
2104.527	0.461	1	2back	Block4	2back/STIM_004.jpg
2108.238	0.658	1	2back	Block4	2back/STIM_005.jpg
2111.413	0.502	1	2back	Block4	2back/STIM_005.jpg
2115.489	0.339	1	2back	Block4	2back/STIM_005.jpg
2118.86	0.46	1	2back	Block4	2back/STIM_006.jpg
2122.8	0.623	1	2back	Block4	2back/STIM_006.jpg
2126.511	0.717	1	2back	Block4	2back/STIM_006.jpg
2131.134	0.43	1	2back	Block4	2back/STIM_007.jpg
2134.747	0.43	1	2back	Block4	2back/STIM_007.jpg
2137.308	0.714	1	2back	Block4	2back/STIM_007.jpg
2141.639	0.601	1	2back	Block4	2back/STIM_008.jpg
2145.229	0.686	1	2back	Block4	2back/STIM_008.jpg
2148.683	0.574	1	2back	Block4	2back/STIM_008.jpg
2153.034	0.585	1	2back	Block4	2back/STIM_009.jpg
2156.5	0.471	1	2back	Block4	2back/STIM_009.jpg
2160.379	0.845	1	2back	Block4	2back/STIM_009.jpg
2164.84	0.486	0	2back	Block4	2back/STIM_010.jpg
2168.888	0.493	1	2back	Block4	2back/STIM_010.jpg
2171.645	0.808	1	2back	Block4	2back/STIM_010.jpg
2175.539	0.851	1	2back	Block4	2back/STIM_011.jpg
2179.507	0.682	1	2back	Block4	2back/STIM_011.jpg
2182.389	0.45	1	2back	Block4	2back/STIM_011.jpg
2186.432	0.847	1	2back	Block4	2back/STIM_012.jpg
2190.859	0.728	1	2back	Block4	2back/STIM_012.jpg
2195.09	0.735	1	2back	Block4	2back/STIM_012.jpg
2198.849	0.804	1	2back	Block4	2back/STIM_013.jpg
2203.704	0.744	1	2back	Block4	2back/STIM_013.jpg
2207.696	0.802	1	2back	Block4	2back/STIM_013.jpg
2211.367	0.56	1	2back	Block4	2back/STIM_014.jpg
2214.898	0.712	1	2back	Block4	2back/STIM_014.jpg
2218.901	0.891	1	2back	Block4	2back/STIM_014.jpg
2222.009	0.567	1	2back	Block4	2back/STIM_015.jpg
2224.956	0.553	1	2back	Block4	2back/STIM_015.jpg
2227.944	0.554	1	2back	Block4	2back/STIM_015.jpg
2231.839	0.546	1	2back	Block4	2back/STIM_016.jpg
2235.336	0.599	1	2back	Block4	2back/STIM_016.jpg
2239.436	0.443	1	2back	Block4	2back/STIM_016.jpg
2243.369	0.316	1	2back	Block4	2back/STIM_017.jpg
2246.851	0.772	1	2back	Block4	2back/STIM_017.jpg
2250.527	0.894	1	2back	Block4	2back/STIM_017.jpg
2255.2	0.883	1	2back	Block4	2back/STIM_018.jpg
2259.693	0.643	1	2back	Block4	2back/STIM_018.jpg
2262.42	0.683	1	2back	Block4	2back/STIM_018.jpg
2266.925	0.856	1	2back	Block4	2back/STIM_019.jpg
2270.312	0.419	1	2back	Block4	2back/STIM_019.jpg
2273.821	0.533	1	2back	Block4	2back/STIM_019.jpg
2277.737	0.699	1	2back	Block4	2back/STIM_020.jpg
2280.622	0.804	1	2back	Block4	2back/STIM_020.jpg
2284.771	0.511	1	2back	Block4	2back/STIM_020.jpg
2289.021	0.729	1	2back	Block4	2back/STIM_021.jpg
2293.738	0.569	1	2back	Block4	2back/STIM_021.jpg
2297.266	0.708	1	2back	Block4	2back/STIM_021.jpg
2301.466	0.518	1	2back	Block4	2back/STIM_022.jpg
2305.811	0.744	1	2back	Block4	2back/STIM_022.jpg
2309.349	0.527	1	2back	Block4	2back/STIM_022.jpg
2312.481	0.412	1	2back	Block4	2back/STIM_023.jpg
2316.739	0.547	1	2back	Block4	2back/STIM_023.jpg
2320.368	0.467	1	2back	Block4	2back/STIM_023.jpg
2324.093	0.873	1	2back	Block4	2back/STIM_024.jpg
2328.823	0.823	1	2back	Block4	2back/STIM_024.jpg
2332.056	0.355	1	2back	Block4	2back/STIM_024.jpg
2336.04	0.696	1	2back	Block4	2back/STIM_025.jpg
2338.849	0.84	1	2back	Block4	2back/STIM_025.jpg
2343.662	0.612	1	2back	Block4	2back/STIM_025.jpg
2346.425	0.816	1	2back	Block4	2back/STIM_026.jpg
2350.198	0.722	1	2back	Block4	2back/STIM_026.jpg
2353.515	0.563	0	2back	Block4	2back/STIM_026.jpg
2357.823	0.619	1	2back	Block4	2back/STIM_027.jpg
2361.641	0.626	1	2back	Block4	2back/STIM_027.jpg
2364.606	0.64	1	2back	Block4	2back/STIM_027.jpg
2368.23	0.708	1	2back	Block4	2back/STIM_028.jpg
2372.272	0.408	1	2back	Block4	2back/STIM_028.jpg
2375.209	0.475	1	2back	Block4	2back/STIM_028.jpg
2379.037	0.785	1	2back	Block4	2back/STIM_029.jpg
2383.028	0.566	1	2back	Block4	2back/STIM_029.jpg
2386.467	0.776	1	2back	Block4	2back/STIM_029.jpg
2389.891	0.668	1	2back	Block4	2back/STIM_030.jpg
2394.446	0.78	1	2back	Block4	2back/STIM_030.jpg
2398.727	0.804	1	2back	Block4	2back/STIM_030.jpg
2402.392	0.523	1	2back	Block4	2back/STIM_031.jpg
2405.655	0.699	1	2back	Block4	2back/STIM_031.jpg
2409.547	0.743	1	2back	Block4	2back/STIM_031.jpg
2414.008	0.865	1	2back	Block4	2back/STIM_032.jpg
2417.62	0.518	1	2back	Block4	2back/STIM_032.jpg
2420.986	0.865	1	2back	Block4	2back/STIM_032.jpg
2425.184	0.817	1	2back	Block4	2back/STIM_033.jpg
2428.756	0.661	1	2back	Block4	2back/STIM_033.jpg
2432.287	0.482	1	2back	Block4	2back/STIM_033.jpg
2436.545	0.82	1	2back	Block4	2back/STIM_034.jpg
2439.855	0.484	0	2back	Block4	2back/STIM_034.jpg
2444.365	0.59	1	2back	Block4	2back/STIM_034.jpg
2447.284	0.758	1	2back	Block4	2back/STIM_035.jpg
2451.528	0.836	1	2back	Block4	2back/STIM_035.jpg
2454.539	0.411	1	2back	Block4	2back/STIM_035.jpg
2458.627	0.355	1	2back	Block4	2back/STIM_036.jpg
2461.723	0.692	1	2back	Block4	2back/STIM_036.jpg
2465.702	0.582	1	2back	Block4	2back/STIM_036.jpg
2469.268	0.566	1	2back	Block4	2back/STIM_037.jpg
2472.18	0.82	1	2back	Block4	2back/STIM_037.jpg
2476.64	0.537	1	2back	Block4	2back/STIM_037.jpg
2479.872	0.61	1	2back	Block4	2back/STIM_038.jpg
2484.325	0.694	1	2back	Block4	2back/STIM_038.jpg
2487.208	0.562	1	2back	Block4	2back/STIM_038.jpg
2491.067	0.408	1	2back	Block4	2back/STIM_039.jpg
2494.538	0.8	1	2back	Block4	2back/STIM_039.jpg
2499.121	0.513	1	2back	Block4	2back/STIM_039.jpg
2503.605	0.469	1	0back	Block4	0back/STIM_000.jpg
2506.674	0.721	1	0back	Block4	0back/STIM_000.jpg
2510.579	0.671	1	0back	Block4	0back/STIM_000.jpg
2513.259	0.56	1	0back	Block4	0back/STIM_001.jpg
2516.664	0.772	1	0back	Block4	0back/STIM_001.jpg
2520.031	0.621	1	0back	Block4	0back/STIM_001.jpg
2523.769	0.618	1	0back	Block4	0back/STIM_002.jpg
2526.581	0.581	1	0back	Block4	0back/STIM_002.jpg
2529.389	0.562	1	0back	Block4	0back/STIM_002.jpg
2533.803	0.499	1	0back	Block4	0back/STIM_003.jpg
2537.451	0.676	1	0back	Block4	0back/STIM_003.jpg
2540.724	0.72	1	0back	Block4	0back/STIM_003.jpg
2544.397	0.769	1	0back	Block4	0back/STIM_004.jpg
2549.148	0.521	1	0back	Block4	0back/STIM_004.jpg
2552.918	0.521	1	0back	Block4	0back/STIM_004.jpg
2557.196	0.575	1	0back	Block4	0back/STIM_005.jpg
2560.901	0.362	1	0back	Block4	0back/STIM_005.jpg
2564.434	0.341	1	0back	Block4	0back/STIM_005.jpg
2568.359	0.752	1	0back	Block4	0back/STIM_006.jpg
2572.516	0.565	1	0back	Block4	0back/STIM_006.jpg
2575.374	0.493	0	0back	Block4	0back/STIM_006.jpg
2577.951	0.736	1	0back	Block4	0back/STIM_007.jpg
2582.409	0.574	1	0back	Block4	0back/STIM_007.jpg
2586.499	0.766	1	0back	Block4	0back/STIM_007.jpg
2590.87	0.609	0	0back	Block4	0back/STIM_008.jpg
2595.099	0.607	1	0back	Block4	0back/STIM_008.jpg
2599.379	0.466	1	0back	Block4	0back/STIM_008.jpg
2602.802	0.737	1	0back	Block4	0back/STIM_009.jpg
2607.364	0.736	1	0back	Block4	0back/STIM_009.jpg
2611.035	0.498	1	0back	Block4	0back/STIM_009.jpg
2614.148	0.798	1	0back	Block4	0back/STIM_010.jpg
2618.245	0.536	1	0back	Block4	0back/STIM_010.jpg
2621.326	0.616	1	0back	Block4	0back/STIM_010.jpg
2624.987	0.328	1	0back	Block4	0back/STIM_011.jpg
2627.45	0.413	1	0back	Block4	0back/STIM_011.jpg
2631.461	0.582	1	0back	Block4	0back/STIM_011.jpg
2634.473	0.424	1	0back	Block4	0back/STIM_012.jpg
2637.933	0.586	1	0back	Block4	0back/STIM_012.jpg
2641.282	0.824	1	0back	Block4	0back/STIM_012.jpg
2644.166	0.521	1	0back	Block4	0back/STIM_013.jpg
2648.082	0.451	1	0back	Block4	0back/STIM_013.jpg
2650.878	0.627	1	0back	Block4	0back/STIM_013.jpg
2653.75	0.497	1	0back	Block4	0back/STIM_014.jpg
2656.417	0.644	1	0back	Block4	0back/STIM_014.jpg
2659.829	0.774	1	0back	Block4	0back/STIM_014.jpg
2664.518	0.608	1	0back	Block4	0back/STIM_015.jpg
2668.273	0.517	1	0back	Block4	0back/STIM_015.jpg
2671.046	0.65	1	0back	Block4	0back/STIM_015.jpg
2673.736	0.481	1	0back	Block4	0back/STIM_016.jpg
2676.461	0.683	1	0back	Block4	0back/STIM_016.jpg
2680.084	0.48	1	0back	Block4	0back/STIM_016.jpg
2683.896	0.412	1	0back	Block4	0back/STIM_017.jpg
2688.106	0.629	1	0back	Block4	0back/STIM_017.jpg
2692.307	0.702	1	0back	Block4	0back/STIM_017.jpg
2695.393	0.587	1	0back	Block4	0back/STIM_018.jpg
2698.609	0.384	1	0back	Block4	0back/STIM_018.jpg
2701.267	0.566	1	0back	Block4	0back/STIM_018.jpg
2705.456	0.768	1	0back	Block4	0back/STIM_019.jpg
2708.98	0.663	1	0back	Block4	0back/STIM_019.jpg
2711.785	0.505	1	0back	Block4	0back/STIM_019.jpg
