onset	duration	response_time_ms	trial_type	learning_stage	stimulus	response_port
0.0	0.514	514.0	2back	Block1	2back/STIM_000.jpg	99
2.905	0.625	625.4	2back	Block1	2back/STIM_000.jpg	99
6.659	0.893	892.9	2back	Block1	2back/STIM_000.jpg	100
10.942	0.486	485.7	2back	Block1	2back/STIM_001.jpg	99
14.514	0.587	587.0	2back	Block1	2back/STIM_001.jpg	100
17.719	0.84	839.7	2back	Block1	2back/STIM_001.jpg	99
22.509	0.757	757.0	2back	Block1	2back/STIM_002.jpg	100
27.088	0.617	616.8	2back	Block1	2back/STIM_002.jpg	99
30.902	0.506	506.5	2back	Block1	2back/STIM_002.jpg	100
35.216	1.041	1041.4	2back	Block1	2back/STIM_003.jpg	99
39.295	0.783	783.4	2back	Block1	2back/STIM_003.jpg	99
43.617	0.515	514.7	2back	Block1	2back/STIM_003.jpg	99
47.11	0.915	914.6	2back	Block1	2back/STIM_004.jpg	100
51.882	0.916	915.5	2back	Block1	2back/STIM_004.jpg	99
55.261	0.818	818.2	2back	Block1	2back/STIM_004.jpg	99
60.014	0.7	700.3	2back	Block1	2back/STIM_005.jpg	99
63.761	0.921	920.6	2back	Block1	2back/STIM_005.jpg	99
67.318	0.574	573.8	2back	Block1	2back/STIM_005.jpg	99
70.982	0.653	653.3	2back	Block1	2back/STIM_006.jpg	99
75.584	0.729	728.6	2back	Block1	2back/STIM_006.jpg	100
79.506	0.541	541.1	2back	Block1	2back/STIM_006.jpg	99
83.298	0.692	692.2	2back	Block1	2back/STIM_007.jpg	100
87.571	0.545	545.4	2back	Block1	2back/STIM_007.jpg	100
91.995	0.929	929.3	2back	Block1	2back/STIM_007.jpg	99
96.138	0.635	635.3	2back	Block1	2back/STIM_008.jpg	99
99.204	0.832	831.9	2back	Block1	2back/STIM_008.jpg	100
103.052	0.543	542.8	2back	Block1	2back/STIM_008.jpg	100
107.574	1.038	1037.7	2back	Block1	2back/STIM_009.jpg	99
111.422	0.546	545.6	2back	Block1	2back/STIM_009.jpg	99
114.865	0.86	859.9	2back	Block1	2back/STIM_009.jpg	100
119.368	0.871	871.2	2back	Block1	2back/STIM_010.jpg	99
122.701	0.649	649.1	2back	Block1	2back/STIM_010.jpg	100
127.17	0.669	668.6	2back	Block1	2back/STIM_010.jpg	100
130.652	0.529	529.0	2back	Block1	2back/STIM_011.jpg	100
134.741	0.719	719.3	2back	Block1	2back/STIM_011.jpg	99
139.424	0.876	876.3	2back	Block1	2back/STIM_011.jpg	99
143.922	0.993	993.4	2back	Block1	2back/STIM_012.jpg	99
148.149	0.477	476.9	2back	Block1	2back/STIM_012.jpg	100
152.625	0.465	465.1	2back	Block1	2back/STIM_012.jpg	100
156.077	1.031	1031.2	2back	Block1	2back/STIM_013.jpg	100
160.251	0.959	959.1	2back	Block1	2back/STIM_013.jpg	100
164.608	0.617	617.2	2back	Block1	2back/STIM_013.jpg	100
168.539	1.038	1038.5	2back	Block1	2back/STIM_014.jpg	100
173.417	0.766	765.8	2back	Block1	2back/STIM_014.jpg	100
177.418	0.824	823.8	2back	Block1	2back/STIM_014.jpg	100
180.82	0.908	907.7	2back	Block1	2back/STIM_015.jpg	99
184.584	0.601	600.9	2back	Block1	2back/STIM_015.jpg	99
187.409	0.883	883.0	2back	Block1	2back/STIM_015.jpg	100
191.134	0.761	760.7	2back	Block1	2back/STIM_016.jpg	100
195.605	0.691	690.6	2back	Block1	2back/STIM_016.jpg	99
199.787	0.687	687.2	2back	Block1	2back/STIM_016.jpg	99
203.705	0.506	506.2	2back	Block1	2back/STIM_017.jpg	99
207.377	0.916	916.2	2back	Block1	2back/STIM_017.jpg	99
211.087	0.544	544.3	2back	Block1	2back/STIM_017.jpg	100
214.615	0.494	493.7	2back	Block1	2back/STIM_018.jpg	100
218.402	0.634	633.6	2back	Block1	2back/STIM_018.jpg	100
222.404	0.967	967.0	2back	Block1	2back/STIM_018.jpg	99
225.727	1.097	1097.0	2back	Block1	2back/STIM_019.jpg	100
230.102	0.672	672.1	2back	Block1	2back/STIM_019.jpg	99
234.269	0.767	767.0	2back	Block1	2back/STIM_019.jpg	99
238.685	0.849	849.4	2back	Block1	2back/STIM_020.jpg	99
242.766	0.845	845.1	2back	Block1	2back/STIM_020.jpg	99
247.424	0.471	471.3	2back	Block1	2back/STIM_020.jpg	99
251.178	0.691	690.6	2back	Block1	2back/STIM_021.jpg	99
254.43	1.051	1051.1	2back	Block1	2back/STIM_021.jpg	100
259.315	0.531	531.2	2back	Block1	2back/STIM_021.jpg	100
262.693	0.693	693.0	2back	Block1	2back/STIM_022.jpg	99
265.5	0.709	708.9	2back	Block1	2back/STIM_022.jpg	99
269.957	0.838	837.8	2back	Block1	2back/STIM_022.jpg	99
273.816	0.784	784.4	2back	Block1	2back/STIM_023.jpg	99
278.496	0.899	899.2	2back	Block1	2back/STIM_023.jpg	100
282.695	0.524	524.0	2back	Block1	2back/STIM_023.jpg	100
286.469	0.499	499.1	2back	Block1	2back/STIM_024.jpg	99
290.26	0.796	796.4	2back	Block1	2back/STIM_024.jpg	100
294.506	0.804	804.3	2back	Block1	2back/STIM_024.jpg	99
298.925	0.991	990.9	2back	Block1	2back/STIM_025.jpg	100
303.721	0.901	901.2	2back	Block1	2back/STIM_025.jpg	100
307.093	0.624	623.7	2back	Block1	2back/STIM_025.jpg	100
310.052	0.614	613.7	2back	Block1	2back/STIM_026.jpg	100
313.257	0.59	589.5	2back	Block1	2back/STIM_026.jpg	99
316.2	0.471	471.4	2back	Block1	2back/STIM_026.jpg	99
320.429	0.548	548.1	2back	Block1	2back/STIM_027.jpg	100
324.75	0.7	700.4	2back	Block1	2back/STIM_027.jpg	100
327.985	0.65	649.6	2back	Block1	2back/STIM_027.jpg	100
332.44	0.824	823.9	2back	Block1	2back/STIM_028.jpg	99
335.519	0.836	835.9	2back	Block1	2back/STIM_028.jpg	100
338.774	0.68	679.7	2back	Block1	2back/STIM_028.jpg	99
342.699	1.099	1099.0	2back	Block1	2back/STIM_029.jpg	100
347.28	0.522	522.4	2back	Block1	2back/STIM_029.jpg	99
349.97	0.608	608.0	2back	Block1	2back/STIM_029.jpg	99
354.478	0.543	542.7	2back	Block1	2back/STIM_030.jpg	100
357.987	0.528	528.5	2back	Block1	2back/STIM_030.jpg	99
362.244	0.739	739.0	2back	Block1	2back/STIM_030.jpg	99
365.928	0.822	822.2	2back	Block1	2back/STIM_031.jpg	100
369.029	1.022	1022.2	2back	Block1	2back/STIM_031.jpg	99
372.707	0.606	605.7	2back	Block1	2back/STIM_031.jpg	99
375.327	0.525	525.0	2back	Block1	2back/STIM_032.jpg	100
378.068	0.801	801.1	2back	Block1	2back/STIM_032.jpg	99
381.514	0.972	971.5	2back	Block1	2back/STIM_032.jpg	99
385.922	1.112	1111.9	2back	Block1	2back/STIM_033.jpg	100
390.808	0.809	808.8	2back	Block1	2back/STIM_033.jpg	100
393.704	0.884	884.0	2back	Block1	2back/STIM_033.jpg	100
398.433	0.865	865.1	2back	Block1	2back/STIM_034.jpg	100
401.417	0.864	864.5	2back	Block1	2back/STIM_034.jpg	100
406.202	0.92	920.2	2back	Block1	2back/STIM_034.jpg	99
410.127	1.055	1055.2	2back	Block1	2back/STIM_035.jpg	100
413.22	1.053	1052.9	2back	Block1	2back/STIM_035.jpg	99
417.484	0.511	510.9	2back	Block1	2back/STIM_035.jpg	99
420.639	0.944	944.5	2back	Block1	2back/STIM_036.jpg	100
425.364	0.63	630.2	2back	Block1	2back/STIM_036.jpg	100
429.578	0.631	631.4	2back	Block1	2back/STIM_036.jpg	100
433.219	0.883	882.9	2back	Block1	2back/STIM_037.jpg	99
437.35	0.938	937.9	2back	Block1	2back/STIM_037.jpg	100
441.612	0.55	550.2	2back	Block1	2back/STIM_037.jpg	99
445.041	1.103	1103.0	2back	Block1	2back/STIM_038.jpg	99
449.266	0.458	458.1	2back	Block1	2back/STIM_038.jpg	99
451.979	0.614	614.4	2back	Block1	2back/STIM_038.jpg	100
454.972	0.56	560.0	2back	Block1	2back/STIM_039.jpg	99
458.763	0.716	715.6	2back	Block1	2back/STIM_039.jpg	100
463.085	0.659	658.8	2back	Block1	2back/STIM_039.jpg	99
466.36	0.583	582.9	0back	Block1	0back/STIM_000.jpg	99
469.573	0.637	637.1	0back	Block1	0back/STIM_000.jpg	100
473.389	0.539	539.0	0back	Block1	0back/STIM_000.jpg	99
477.076	0.531	531.1	0back	Block1	0back/STIM_001.jpg	100
480.216	0.589	589.1	0back	Block1	0back/STIM_001.jpg	99
483.691	0.432	431.7	0back	Block1	0back/STIM_001.jpg	100
487.19	0.584	584.2	0back	Block1	0back/STIM_002.jpg	99
490.931	0.418	418.5	0back	Block1	0back/STIM_002.jpg	99
494.327	0.392	391.8	0back	Block1	0back/STIM_002.jpg	99
498.171	0.368	367.8	0back	Block1	0back/STIM_003.jpg	100
500.572	0.505	505.3	0back	Block1	0back/STIM_003.jpg	100
504.505	0.513	512.9	0back	Block1	0back/STIM_003.jpg	100
508.865	0.556	556.4	0back	Block1	0back/STIM_004.jpg	100
513.024	0.43	429.7	0back	Block1	0back/STIM_004.jpg	100
516.409	0.567	566.6	0back	Block1	0back/STIM_004.jpg	99
520.069	0.423	423.3	0back	Block1	0back/STIM_005.jpg	99
524.452	0.337	336.8	0back	Block1	0back/STIM_005.jpg	99
526.795	0.426	425.6	0back	Block1	0back/STIM_005.jpg	100
530.069	0.588	587.9	0back	Block1	0back/STIM_006.jpg	100
534.426	0.598	598.3	0back	Block1	0back/STIM_006.jpg	100
537.768	0.381	380.7	0back	Block1	0back/STIM_006.jpg	100
542.095	0.415	415.4	0back	Block1	0back/STIM_007.jpg	99
545.451	0.405	405.3	0back	Block1	0back/STIM_007.jpg	100
549.068	0.474	474.0	0back	Block1	0back/STIM_007.jpg	100
551.547	0.517	517.2	0back	Block1	0back/STIM_008.jpg	100
554.335	0.362	361.8	0back	Block1	0back/STIM_008.jpg	99
557.393	0.541	540.7	0back	Block1	0back/STIM_008.jpg	100
561.902	0.618	617.7	0back	Block1	0back/STIM_009.jpg	99
565.207	0.619	618.6	0back	Block1	0back/STIM_009.jpg	99
568.599	0.456	455.7	0back	Block1	0back/STIM_009.jpg	99
571.793	0.575	575.4	0back	Block1	0back/STIM_010.jpg	100
574.969	0.57	569.6	0back	Block1	0back/STIM_010.jpg	100
578.749	0.485	485.0	0back	Block1	0back/STIM_010.jpg	99
582.559	0.469	469.4	0back	Block1	0back/STIM_011.jpg	100
585.538	0.426	425.5	0back	Block1	0back/STIM_011.jpg	100
588.426	0.407	406.6	0back	Block1	0back/STIM_011.jpg	100
592.596	0.325	325.4	0back	Block1	0back/STIM_012.jpg	99
595.29	0.536	535.6	0back	Block1	0back/STIM_012.jpg	100
598.736	0.539	538.9	0back	Block1	0back/STIM_012.jpg	100
602.318	0.635	635.0	0back	Block1	0back/STIM_013.jpg	100
605.234	0.37	370.3	0back	Block1	0back/STIM_013.jpg	99
608.534	0.441	440.6	0back	Block1	0back/STIM_013.jpg	100
612.719	0.325	325.0	0back	Block1	0back/STIM_014.jpg	99
616.291	0.422	421.9	0back	Block1	0back/STIM_014.jpg	99
620.211	0.437	436.9	0back	Block1	0back/STIM_014.jpg	100
623.446	0.59	590.5	0back	Block1	0back/STIM_015.jpg	100
627.89	0.455	455.4	0back	Block1	0back/STIM_015.jpg	99
631.425	0.609	609.3	0back	Block1	0back/STIM_015.jpg	99
635.213	0.381	380.7	0back	Block1	0back/STIM_016.jpg	99
639.446	0.385	385.0	0back	Block1	0back/STIM_016.jpg	100
643.139	0.398	398.0	0back	Block1	0back/STIM_016.jpg	100
645.811	0.516	516.4	0back	Block1	0back/STIM_017.jpg	100
648.858	0.567	566.6	0back	Block1	0back/STIM_017.jpg	100
651.534	0.455	455.1	0back	Block1	0back/STIM_017.jpg	100
654.811	0.609	608.7	0back	Block1	0back/STIM_018.jpg	99
657.708	0.557	556.6	0back	Block1	0back/STIM_018.jpg	99
661.243	0.537	536.7	0back	Block1	0back/STIM_018.jpg	99
664.505	0.566	565.6	0back	Block1	0back/STIM_019.jpg	99
668.76	0.509	509.0	0back	Block1	0back/STIM_019.jpg	99
671.904	0.339	339.2	0back	Block1	0back/STIM_019.jpg	100
674.461	0.752	752.0	2back	Block2	2back/STIM_000.jpg	100
677.621	0.711	711.4	2back	Block2	2back/STIM_000.jpg	99
682.15	0.464	463.5	2back	Block2	2back/STIM_000.jpg	100
685.561	0.626	625.9	2back	Block2	2back/STIM_001.jpg	100
689.082	0.431	431.0	2back	Block2	2back/STIM_001.jpg	99
692.56	0.644	644.3	2back	Block2	2back/STIM_001.jpg	100
696.61	0.891	891.1	2back	Block2	2back/STIM_002.jpg	100
700.34	0.556	555.8	2back	Block2	2back/STIM_002.jpg	100
704.384	0.827	827.2	2back	Block2	2back/STIM_002.jpg	99
709.035	0.603	603.3	2back	Block2	2back/STIM_003.jpg	100
713.566	0.571	570.6	2back	Block2	2back/STIM_003.jpg	100
716.936	0.751	751.1	2back	Block2	2back/STIM_003.jpg	99
721.52	0.412	411.7	2back	Block2	2back/STIM_004.jpg	100
724.158	0.698	697.9	2back	Block2	2back/STIM_004.jpg	100
727.429	0.47	470.4	2back	Block2	2back/STIM_004.jpg	100
731.066	0.609	608.6	2back	Block2	2back/STIM_005.jpg	99
734.689	0.688	688.0	2back	Block2	2back/STIM_005.jpg	100
738.688	0.412	412.1	2back	Block2	2back/STIM_005.jpg	99
741.938	0.927	926.9	2back	Block2	2back/STIM_006.jpg	100
746.448	0.661	660.8	2back	Block2	2back/STIM_006.jpg	99
750.24	0.708	708.1	2back	Block2	2back/STIM_006.jpg	99
753.678	0.891	890.6	2back	Block2	2back/STIM_007.jpg	99
756.834	0.4	399.7	2back	Block2	2back/STIM_007.jpg	99
760.459	0.595	595.3	2back	Block2	2back/STIM_007.jpg	99
764.481	0.858	858.2	2back	Block2	2back/STIM_008.jpg	99
768.339	0.685	684.8	2back	Block2	2back/STIM_008.jpg	99
772.875	0.787	787.4	2back	Block2	2back/STIM_008.jpg	100
775.679	0.436	435.8	2back	Block2	2back/STIM_009.jpg	100
779.248	0.582	582.4	2back	Block2	2back/STIM_009.jpg	99
782.539	0.413	413.2	2back	Block2	2back/STIM_009.jpg	99
786.361	0.809	809.2	2back	Block2	2back/STIM_010.jpg	99
789.41	0.608	608.5	2back	Block2	2back/STIM_010.jpg	99
792.398	0.429	428.6	2back	Block2	2back/STIM_010.jpg	99
796.424	0.42	420.4	2back	Block2	2back/STIM_011.jpg	99
800.24	0.421	421.3	2back	Block2	2back/STIM_011.jpg	99
803.549	0.622	622.0	2back	Block2	2back/STIM_011.jpg	100
807.361	0.662	662.3	2back	Block2	2back/STIM_012.jpg	100
811.31	0.755	754.6	2back	Block2	2back/STIM_012.jpg	100
815.229	0.623	622.8	2back	Block2	2back/STIM_012.jpg	99
818.485	0.506	505.9	2back	Block2	2back/STIM_013.jpg	99
822.65	0.78	779.5	2back	Block2	2back/STIM_013.jpg	100
827.233	0.381	380.7	2back	Block2	2back/STIM_013.jpg	99
830.477	0.835	834.6	2back	Block2	2back/STIM_014.jpg	100
835.111	0.835	834.9	2back	Block2	2back/STIM_014.jpg	100
839.23	0.472	471.6	2back	Block2	2back/STIM_014.jpg	100
842.659	0.855	855.1	2back	Block2	2back/STIM_015.jpg	100
847.328	0.831	830.9	2back	Block2	2back/STIM_015.jpg	99
850.813	0.519	519.4	2back	Block2	2back/STIM_015.jpg	100
854.515	0.45	449.5	2back	Block2	2back/STIM_016.jpg	99
858.69	0.408	407.5	2back	Block2	2back/STIM_016.jpg	100
861.218	0.577	576.8	2back	Block2	2back/STIM_016.jpg	99
865.53	0.485	484.8	2back	Block2	2back/STIM_017.jpg	100
869.556	0.611	610.9	2back	Block2	2back/STIM_017.jpg	99
873.646	0.61	609.6	2back	Block2	2back/STIM_017.jpg	99
876.718	0.938	937.7	2back	Block2	2back/STIM_018.jpg	100
880.95	0.815	814.6	2back	Block2	2back/STIM_018.jpg	99
884.151	0.656	655.7	2back	Block2	2back/STIM_018.jpg	100
887.467	0.537	536.7	2back	Block2	2back/STIM_019.jpg	99
891.049	0.503	503.5	2back	Block2	2back/STIM_019.jpg	99
894.883	0.69	690.1	2back	Block2	2back/STIM_019.jpg	100
898.221	0.762	761.7	2back	Block2	2back/STIM_020.jpg	100
901.67	0.824	823.7	2back	Block2	2back/STIM_020.jpg	100
904.537	0.534	533.5	2back	Block2	2back/STIM_020.jpg	99
907.31	0.872	871.6	2back	Block2	2back/STIM_021.jpg	100
911.239	0.399	398.6	2back	Block2	2back/STIM_021.jpg	99
914.76	0.81	809.5	2back	Block2	2back/STIM_021.jpg	99
919.023	0.485	484.9	2back	Block2	2back/STIM_022.jpg	99
921.509	0.73	729.7	2back	Block2	2back/STIM_022.jpg	100
924.935	0.592	591.9	2back	Block2	2back/STIM_022.jpg	99
929.212	0.629	629.4	2back	Block2	2back/STIM_023.jpg	100
933.165	0.877	877.2	2back	Block2	2back/STIM_023.jpg	100
937.156	0.644	644.5	2back	Block2	2back/STIM_023.jpg	99
941.233	0.478	478.4	2back	Block2	2back/STIM_024.jpg	99
945.444	0.63	630.0	2back	Block2	2back/STIM_024.jpg	99
948.942	0.566	566.1	2back	Block2	2back/STIM_024.jpg	100
951.977	0.628	628.3	2back	Block2	2back/STIM_025.jpg	99
956.292	0.538	537.5	2back	Block2	2back/STIM_025.jpg	100
959.203	0.515	515.1	2back	Block2	2back/STIM_025.jpg	99
962.284	0.885	885.4	2back	Block2	2back/STIM_026.jpg	100
965.209	0.821	820.7	2back	Block2	2back/STIM_026.jpg	100
968.983	0.415	414.7	2back	Block2	2back/STIM_026.jpg	100
971.868	0.586	586.1	2back	Block2	2back/STIM_027.jpg	100
975.199	0.616	615.6	2back	Block2	2back/STIM_027.jpg	100
978.618	0.503	502.6	2back	Block2	2back/STIM_027.jpg	100
982.367	0.855	854.6	2back	Block2	2back/STIM_028.jpg	99
987.021	0.439	438.7	2back	Block2	2back/STIM_028.jpg	100
990.054	0.835	835.4	2back	Block2	2back/STIM_028.jpg	100
994.195	0.669	668.7	2back	Block2	2back/STIM_029.jpg	100
997.341	0.57	569.8	2back	Block2	2back/STIM_029.jpg	100
1000.665	0.61	610.5	2back	Block2	2back/STIM_029.jpg	100
1003.957	0.784	784.2	2back	Block2	2back/STIM_030.jpg	99
1008.251	0.425	424.9	2back	Block2	2back/STIM_030.jpg	100
1012.411	0.532	532.2	2back	Block2	2back/STIM_030.jpg	100
1016.142	0.555	555.3	2back	Block2	2back/STIM_031.jpg	99
1019.999	0.437	437.2	2back	Block2	2back/STIM_031.jpg	100
1023.143	0.505	505.3	2back	Block2	2back/STIM_031.jpg	100
1027.331	0.851	851.0	2back	Block2	2back/STIM_032.jpg	100
1031.102	0.7	700.5	2back	Block2	2back/STIM_032.jpg	100
1035.631	0.557	556.6	2back	Block2	2back/STIM_032.jpg	99
1038.663	0.779	779.1	2back	Block2	2back/STIM_033.jpg	100
1043.0	0.579	579.4	2back	Block2	2back/STIM_033.jpg	100
1045.67	0.436	436.4	2back	Block2	2back/STIM_033.jpg	99
1048.853	0.802	802.3	2back	Block2	2back/STIM_034.jpg	100
1053.074	0.669	668.7	2back	Block2	2back/STIM_034.jpg	100
1055.962	0.635	634.6	2back	Block2	2back/STIM_034.jpg	100
1058.643	0.902	901.9	2back	Block2	2back/STIM_035.jpg	100
1062.123	0.564	564.5	2back	Block2	2back/STIM_035.jpg	99
1065.192	0.432	432.1	2back	Block2	2back/STIM_035.jpg	100
1069.518	0.787	787.1	2back	Block2	2back/STIM_036.jpg	100
1073.045	0.809	808.8	2back	Block2	2back/STIM_036.jpg	100
1076.325	0.802	801.7	2back	Block2	2back/STIM_036.jpg	99
1080.378	0.939	938.9	2back	Block2	2back/STIM_037.jpg	99
1084.595	0.852	851.9	2back	Block2	2back/STIM_037.jpg	100
1087.922	0.601	601.3	2back	Block2	2back/STIM_037.jpg	100
1090.662	0.686	686.2	2back	Block2	2back/STIM_038.jpg	100
1093.981	0.678	678.5	2back	Block2	2back/STIM_038.jpg	100
1097.233	0.379	379.1	2back	Block2	2back/STIM_038.jpg	99
1100.874	0.651	650.6	2back	Block2	2back/STIM_039.jpg	99
1103.606	0.492	492.5	2back	Block2	2back/STIM_039.jpg	100
1106.942	0.537	537.0	2back	Block2	2back/STIM_039.jpg	100
1109.538	0.497	497.1	0back	Block2	0back/STIM_000.jpg	100
1113.019	0.322	322.0	0back	Block2	0back/STIM_000.jpg	100
1117.201	0.45	450.3	0back	Block2	0back/STIM_000.jpg	99
1120.849	0.452	452.5	0back	Block2	0back/STIM_001.jpg	100
1123.846	0.462	462.4	0back	Block2	0back/STIM_001.jpg	99
1127.686	0.405	405.2	0back	Block2	0back/STIM_001.jpg	100
1130.308	0.354	353.6	0back	Block2	0back/STIM_002.jpg	100
1133.973	0.579	578.7	0back	Block2	0back/STIM_002.jpg	100
1137.821	0.607	607.0	0back	Block2	0back/STIM_002.jpg	100
1140.867	0.384	383.6	0back	Block2	0back/STIM_003.jpg	99
1144.917	0.405	405.1	0back	Block2	0back/STIM_003.jpg	100
1148.801	0.566	566.5	0back	Block2	0back/STIM_003.jpg	99
1152.706	0.337	336.7	0back	Block2	0back/STIM_004.jpg	99
1155.484	0.32	319.7	0back	Block2	0back/STIM_004.jpg	99
1159.49	0.344	343.5	0back	Block2	0back/STIM_004.jpg	100
1162.182	0.44	440.4	0back	Block2	0back/STIM_005.jpg	100
1166.03	0.345	344.7	0back	Block2	0back/STIM_005.jpg	99
1169.062	0.636	635.9	0back	Block2	0back/STIM_005.jpg	99
1173.444	0.584	584.5	0back	Block2	0back/STIM_006.jpg	99
1177.132	0.584	584.0	0back	Block2	0back/STIM_006.jpg	100
1181.539	0.545	544.6	0back	Block2	0back/STIM_006.jpg	100
1184.925	0.524	524.5	0back	Block2	0back/STIM_007.jpg	99
1188.289	0.563	563.4	0back	Block2	0back/STIM_007.jpg	99
1192.15	0.505	505.2	0back	Block2	0back/STIM_007.jpg	100
1196.378	0.556	556.0	0back	Block2	0back/STIM_008.jpg	100
1200.384	0.555	554.8	0back	Block2	0back/STIM_008.jpg	99
1203.947	0.351	350.6	0back	Block2	0back/STIM_008.jpg	99
1206.57	0.367	367.4	0back	Block2	0back/STIM_009.jpg	99
1210.396	0.384	383.7	0back	Block2	0back/STIM_009.jpg	100
1213.242	0.48	479.9	0back	Block2	0back/STIM_009.jpg	100
1216.018	0.42	420.2	0back	Block2	0back/STIM_010.jpg	100
1219.579	0.429	429.4	0back	Block2	0back/STIM_010.jpg	99
1223.517	0.386	385.5	0back	Block2	0back/STIM_010.jpg	100
1226.225	0.465	464.6	0back	Block2	0back/STIM_011.jpg	100
1228.758	0.475	475.2	0back	Block2	0back/STIM_011.jpg	99
1232.972	0.534	534.5	0back	Block2	0back/STIM_011.jpg	100
1236.378	0.635	635.1	0back	Block2	0back/STIM_012.jpg	100
1239.931	0.369	369.4	0back	Block2	0back/STIM_012.jpg	99
1243.479	0.327	326.7	0back	Block2	0back/STIM_012.jpg	99
1245.898	0.606	605.9	0back	Block2	0back/STIM_013.jpg	100
1249.537	0.385	385.3	0back	Block2	0back/STIM_013.jpg	99
1252.413	0.633	632.7	0back	Block2	0back/STIM_013.jpg	100
1255.123	0.594	593.8	0back	Block2	0back/STIM_014.jpg	100
1258.928	0.518	518.2	0back	Block2	0back/STIM_014.jpg	100
1261.993	0.506	506.2	0back	Block2	0back/STIM_014.jpg	99
1265.252	0.451	451.1	0back	Block2	0back/STIM_015.jpg	100
1268.384	0.397	396.6	0back	Block2	0back/STIM_015.jpg	100
1271.705	0.434	433.7	0back	Block2	0back/STIM_015.jpg	100
1274.441	0.62	619.8	0back	Block2	0back/STIM_016.jpg	99
1278.517	0.359	359.2	0back	Block2	0back/STIM_016.jpg	99
1282.873	0.359	358.7	0back	Block2	0back/STIM_016.jpg	99
1286.281	0.501	501.3	0back	Block2	0back/STIM_017.jpg	100
1290.717	0.553	552.6	0back	Block2	0back/STIM_017.jpg	100
1294.462	0.5	499.5	0back	Block2	0back/STIM_017.jpg	99
1298.263	0.499	499.1	0back	Block2	0back/STIM_018.jpg	99
1302.036	0.381	381.0	0back	Block2	0back/STIM_018.jpg	99
1305.68	0.373	372.7	0back	Block2	0back/STIM_018.jpg	99
1309.114	0.411	411.2	0back	Block2	0back/STIM_019.jpg	99
1313.071	0.424	423.5	0back	Block2	0back/STIM_019.jpg	99
1316.951	0.408	408.0	0back	Block2	0back/STIM_019.jpg	100
1319.393	0.443	443.3	2back	Block3	2back/STIM_000.jpg	100
1322.17	0.708	708.3	2back	Block3	2back/STIM_000.jpg	100
1324.966	0.622	621.6	2back	Block3	2back/STIM_000.jpg	100
1328.0	0.584	584.2	2back	Block3	2back/STIM_001.jpg	99
1330.94	0.78	780.4	2back	Block3	2back/STIM_001.jpg	99
1335.679	0.435	435.2	2back	Block3	2back/STIM_001.jpg	100
1339.075	0.521	521.4	2back	Block3	2back/STIM_002.jpg	100
1342.752	0.736	735.8	2back	Block3	2back/STIM_002.jpg	99
1347.118	0.642	642.3	2back	Block3	2back/STIM_002.jpg	100
1350.866	0.561	560.9	2back	Block3	2back/STIM_003.jpg	99
1353.961	0.653	652.8	2back	Block3	2back/STIM_003.jpg	100
1357.831	0.409	408.8	2back	Block3	2back/STIM_003.jpg	99
1361.301	0.42	419.8	2back	Block3	2back/STIM_004.jpg	100
1365.493	0.69	689.8	2back	Block3	2back/STIM_004.jpg	100
1369.678	0.496	496.4	2back	Block3	2back/STIM_004.jpg	100
1373.062	0.563	563.0	2back	Block3	2back/STIM_005.jpg	99
1376.987	0.652	652.4	2back	Block3	2back/STIM_005.jpg	99
1381.591	0.429	428.8	2back	Block3	2back/STIM_005.jpg	100
1384.124	0.645	644.6	2back	Block3	2back/STIM_006.jpg	100
1387.694	0.37	369.9	2back	Block3	2back/STIM_006.jpg	100
1390.631	0.691	691.3	2back	Block3	2back/STIM_006.jpg	99
1394.376	0.38	379.8	2back	Block3	2back/STIM_007.jpg	99
1397.933	0.687	687.4	2back	Block3	2back/STIM_007.jpg	100
1400.777	0.444	443.6	2back	Block3	2back/STIM_007.jpg	100
1404.228	0.7	699.9	2back	Block3	2back/STIM_008.jpg	99
1407.636	0.401	401.1	2back	Block3	2back/STIM_008.jpg	99
1410.9	0.56	559.5	2back	Block3	2back/STIM_008.jpg	100
1413.831	0.35	349.5	2back	Block3	2back/STIM_009.jpg	99
1417.203	0.766	765.6	2back	Block3	2back/STIM_009.jpg	100
1420.566	0.584	584.2	2back	Block3	2back/STIM_009.jpg	100
1423.911	0.708	708.4	2back	Block3	2back/STIM_010.jpg	100
1428.552	0.529	528.9	2back	Block3	2back/STIM_010.jpg	100
1431.344	0.589	588.8	2back	Block3	2back/STIM_010.jpg	99
1435.097	0.564	563.8	2back	Block3	2back/STIM_011.jpg	99
1438.37	0.384	383.7	2back	Block3	2back/STIM_011.jpg	99
1442.709	0.384	383.8	2back	Block3	2back/STIM_011.jpg	100
1446.872	0.452	451.5	2back	Block3	2back/STIM_012.jpg	99
1449.863	0.704	703.9	2back	Block3	2back/STIM_012.jpg	99
1452.597	0.549	549.1	2back	Block3	2back/STIM_012.jpg	100
1455.561	0.384	383.6	2back	Block3	2back/STIM_013.jpg	100
1458.206	0.722	721.8	2back	Block3	2back/STIM_013.jpg	100
1461.888	0.649	649.3	2back	Block3	2back/STIM_013.jpg	100
1465.293	0.548	548.5	2back	Block3	2back/STIM_014.jpg	99
1467.858	0.394	394.4	2back	Block3	2back/STIM_014.jpg	99
1471.179	0.359	358.7	2back	Block3	2back/STIM_014.jpg	100
1474.163	0.605	604.6	2back	Block3	2back/STIM_015.jpg	99
1477.579	0.621	621.3	2back	Block3	2back/STIM_015.jpg	99
1481.949	0.549	549.3	2back	Block3	2back/STIM_015.jpg	99
1485.969	0.664	663.6	2back	Block3	2back/STIM_016.jpg	99
1488.886	0.391	390.9	2back	Block3	2back/STIM_016.jpg	100
1492.662	0.379	379.4	2back	Block3	2back/STIM_016.jpg	100
1495.927	0.584	584.2	2back	Block3	2back/STIM_017.jpg	99
1500.152	0.71	709.7	2back	Block3	2back/STIM_017.jpg	99
1503.853	0.63	630.4	2back	Block3	2back/STIM_017.jpg	100
1506.894	0.665	665.1	2back	Block3	2back/STIM_018.jpg	100
1511.015	0.489	488.7	2back	Block3	2back/STIM_018.jpg	99
1513.517	0.699	699.3	2back	Block3	2back/STIM_018.jpg	100
1516.376	0.336	335.8	2back	Block3	2back/STIM_019.jpg	100
1519.706	0.714	714.1	2back	Block3	2back/STIM_019.jpg	100
1522.428	0.442	442.0	2back	Block3	2back/STIM_019.jpg	100
1525.47	0.431	431.1	2back	Block3	2back/STIM_020.jpg	100
1528.928	0.362	362.0	2back	Block3	2back/STIM_020.jpg	99
1531.807	0.463	463.2	2back	Block3	2back/STIM_020.jpg	99
1534.433	0.438	437.8	2back	Block3	2back/STIM_021.jpg	99
1537.377	0.698	698.3	2back	Block3	2back/STIM_021.jpg	100
1541.455	0.339	339.3	2back	Block3	2back/STIM_021.jpg	99
1544.188	0.432	432.4	2back	Block3	2back/STIM_022.jpg	100
1548.503	0.45	450.4	2back	Block3	2back/STIM_022.jpg	99
1551.176	0.589	589.1	2back	Block3	2back/STIM_022.jpg	100
1554.635	0.684	684.4	2back	Block3	2back/STIM_023.jpg	99
1557.733	0.652	652.5	2back	Block3	2back/STIM_023.jpg	100
1560.54	0.597	597.4	2back	Block3	2back/STIM_023.jpg	99
1563.478	0.557	557.2	2back	Block3	2back/STIM_024.jpg	100
1566.787	0.361	360.6	2back	Block3	2back/STIM_024.jpg	99
1570.384	0.713	712.8	2back	Block3	2back/STIM_024.jpg	99
1573.512	0.587	586.6	2back	Block3	2back/STIM_025.jpg	100
1577.107	0.686	686.0	2back	Block3	2back/STIM_025.jpg	99
1580.458	0.542	541.8	2back	Block3	2back/STIM_025.jpg	99
1584.731	0.772	772.5	2back	Block3	2back/STIM_026.jpg	99
1588.423	0.478	478.0	2back	Block3	2back/STIM_026.jpg	100
1590.919	0.488	487.6	2back	Block3	2back/STIM_026.jpg	99
1594.057	0.392	392.3	2back	Block3	2back/STIM_027.jpg	100
1596.78	0.402	401.7	2back	Block3	2back/STIM_027.jpg	99
1600.828	0.696	696.0	2back	Block3	2back/STIM_027.jpg	100
1605.253	0.743	743.3	2back	Block3	2back/STIM_028.jpg	100
1609.057	0.642	642.2	2back	Block3	2back/STIM_028.jpg	100
1613.163	0.614	614.0	2back	Block3	2back/STIM_028.jpg	99
1617.019	0.58	580.2	2back	Block3	2back/STIM_029.jpg	99
1620.774	0.419	418.7	2back	Block3	2back/STIM_029.jpg	100
1623.228	0.507	507.0	2back	Block3	2back/STIM_029.jpg	99
1625.986	0.401	401.4	2back	Block3	2back/STIM_030.jpg	99
1629.604	0.377	376.6	2back	Block3	2back/STIM_030.jpg	100
1633.104	0.505	505.1	2back	Block3	2back/STIM_030.jpg	100
1635.994	0.427	426.7	2back	Block3	2back/STIM_031.jpg	100
1639.613	0.488	487.9	2back	Block3	2back/STIM_031.jpg	99
1642.169	0.345	345.1	2back	Block3	2back/STIM_031.jpg	100
1644.937	0.36	360.1	2back	Block3	2back/STIM_032.jpg	99
1647.949	0.57	570.3	2back	Block3	2back/STIM_032.jpg	100
1650.833	0.7	699.9	2back	Block3	2back/STIM_032.jpg	99
1654.476	0.468	467.9	2back	Block3	2back/STIM_033.jpg	100
1658.602	0.398	398.5	2back	Block3	2back/STIM_033.jpg	99
1662.529	0.338	338.4	2back	Block3	2back/STIM_033.jpg	99
1666.179	0.516	515.7	2back	Block3	2back/STIM_034.jpg	100
1668.825	0.566	566.4	2back	Block3	2back/STIM_034.jpg	100
1672.731	0.646	646.0	2back	Block3	2back/STIM_034.jpg	100
1675.653	0.533	533.1	2back	Block3	2back/STIM_035.jpg	100
1678.659	0.76	759.9	2back	Block3	2back/STIM_035.jpg	100
1681.699	0.44	440.1	2back	Block3	2back/STIM_035.jpg	100
1685.008	0.723	723.1	2back	Block3	2back/STIM_036.jpg	100
1687.977	0.574	574.4	2back	Block3	2back/STIM_036.jpg	99
1691.005	0.648	647.7	2back	Block3	2back/STIM_036.jpg	100
1694.436	0.494	494.5	2back	Block3	2back/STIM_037.jpg	99
1698.235	0.713	713.1	2back	Block3	2back/STIM_037.jpg	99
1701.782	0.513	513.4	2back	Block3	2back/STIM_037.jpg	100
1705.963	0.732	732.2	2back	Block3	2back/STIM_038.jpg	99
1708.928	0.365	365.4	2back	Block3	2back/STIM_038.jpg	100
1713.016	0.371	371.4	2back	Block3	2back/STIM_038.jpg	99
1716.059	0.398	398.1	2back	Block3	2back/STIM_039.jpg	100
1719.306	0.421	420.6	2back	Block3	2back/STIM_039.jpg	99
1723.166	0.669	668.8	2back	Block3	2back/STIM_039.jpg	99
1726.774	0.607	607.2	0back	Block3	0back/STIM_000.jpg	100
1729.854	0.554	553.7	0back	Block3	0back/STIM_000.jpg	100
1732.438	0.44	440.1	0back	Block3	0back/STIM_000.jpg	100
1735.747	0.567	567.1	0back	Block3	0back/STIM_001.jpg	99
1739.322	0.422	422.2	0back	Block3	0back/STIM_001.jpg	99
1742.549	0.631	630.9	0back	Block3	0back/STIM_001.jpg	100
1746.084	0.376	376.2	0back	Block3	0back/STIM_002.jpg	99
1750.402	0.459	459.1	0back	Block3	0back/STIM_002.jpg	99
1754.526	0.626	625.6	0back	Block3	0back/STIM_002.jpg	99
1758.871	0.355	355.4	0back	Block3	0back/STIM_003.jpg	99
1762.329	0.418	418.4	0back	Block3	0back/STIM_003.jpg	99
1766.192	0.484	484.4	0back	Block3	0back/STIM_003.jpg	100
1770.262	0.638	637.6	0back	Block3	0back/STIM_004.jpg	99
1772.915	0.472	472.1	0back	Block3	0back/STIM_004.jpg	100
1775.513	0.429	428.8	0back	Block3	0back/STIM_004.jpg	100
1779.307	0.432	431.7	0back	Block3	0back/STIM_005.jpg	100
1781.976	0.489	488.8	0back	Block3	0back/STIM_005.jpg	99
1785.937	0.455	455.3	0back	Block3	0back/STIM_005.jpg	100
1790.169	0.537	537.2	0back	Block3	0back/STIM_006.jpg	100
1792.76	0.369	369.1	0back	Block3	0back/STIM_006.jpg	100
1796.763	0.319	319.3	0back	Block3	0back/STIM_006.jpg	100
1800.998	0.414	413.9	0back	Block3	0back/STIM_007.jpg	99
1804.987	0.406	406.3	0back	Block3	0back/STIM_007.jpg	99
1807.583	0.619	619.4	0back	Block3	0back/STIM_007.jpg	100
1811.076	0.559	559.2	0back	Block3	0back/STIM_008.jpg	100
1815.092	0.507	506.8	0back	Block3	0back/STIM_008.jpg	99
1818.578	0.459	459.4	0back	Block3	0back/STIM_008.jpg	99
1821.355	0.398	397.6	0back	Block3	0back/STIM_009.jpg	100
1824.805	0.376	376.2	0back	Block3	0back/STIM_009.jpg	100
1827.999	0.467	467.0	0back	Block3	0back/STIM_009.jpg	100
1832.441	0.437	437.4	0back	Block3	0back/STIM_010.jpg	100
1835.144	0.37	369.6	0back	Block3	0back/STIM_010.jpg	100
1839.411	0.324	324.3	0back	Block3	0back/STIM_010.jpg	100
1843.584	0.492	492.5	0back	Block3	0back/STIM_011.jpg	100
1846.961	0.616	615.7	0back	Block3	0back/STIM_011.jpg	100
1850.196	0.48	480.1	0back	Block3	0back/STIM_011.jpg	100
1853.208	0.489	488.9	0back	Block3	0back/STIM_012.jpg	100
1857.628	0.483	482.7	0back	Block3	0back/STIM_012.jpg	99
1861.53	0.615	615.3	0back	Block3	0back/STIM_012.jpg	99
1865.498	0.402	401.5	0back	Block3	0back/STIM_013.jpg	100
1868.228	0.445	445.2	0back	Block3	0back/STIM_013.jpg	99
1871.536	0.612	612.4	0back	Block3	0back/STIM_013.jpg	99
1875.298	0.319	319.3	0back	Block3	0back/STIM_014.jpg	99
1878.193	0.338	337.5	0back	Block3	0back/STIM_014.jpg	99
1881.009	0.529	528.8	0back	Block3	0back/STIM_014.jpg	100
1883.823	0.41	409.7	0back	Block3	0back/STIM_015.jpg	100
1887.078	0.377	376.8	0back	Block3	0back/STIM_015.jpg	100
1891.072	0.347	347.4	0back	Block3	0back/STIM_015.jpg	99
1893.669	0.547	546.6	0back	Block3	0back/STIM_016.jpg	99
1897.93	0.525	525.3	0back	Block3	0back/STIM_016.jpg	99
1901.394	0.536	536.5	0back	Block3	0back/STIM_016.jpg	99
1904.656	0.33	329.6	0back	Block3	0back/STIM_017.jpg	99
1907.408	0.402	401.9	0back	Block3	0back/STIM_017.jpg	100
1910.273	0.634	633.6	0back	Block3	0back/STIM_017.jpg	99
1913.159	0.525	525.1	0back	Block3	0back/STIM_018.jpg	99
1915.708	0.582	581.6	0back	Block3	0back/STIM_018.jpg	99
1920.061	0.579	579.1	0back	Block3	0back/STIM_018.jpg	100
1924.305	0.572	572.3	0back	Block3	0back/STIM_019.jpg	99
1928.791	0.569	568.6	0back	Block3	0back/STIM_019.jpg	100
1933.045	0.32	320.2	0back	Block3	0back/STIM_019.jpg	99
1936.858	0.511	511.4	2back	Block4	2back/STIM_000.jpg	99
1939.653	0.578	577.9	2back	Block4	2back/STIM_000.jpg	99
1943.859	0.34	340.0	2back	Block4	2back/STIM_000.jpg	100
1947.647	0.407	407.4	2back	Block4	2back/STIM_001.jpg	99
1950.774	0.633	633.2	2back	Block4	2back/STIM_001.jpg	99
1954.055	0.761	760.6	2back	Block4	2back/STIM_001.jpg	99
1957.992	0.55	549.7	2back	Block4	2back/STIM_002.jpg	100
1961.811	0.712	712.5	2back	Block4	2back/STIM_002.jpg	99
1966.331	0.468	468.4	2back	Block4	2back/STIM_002.jpg	99
1970.615	0.706	705.7	2back	Block4	2back/STIM_003.jpg	99
1974.303	0.646	646.3	2back	Block4	2back/STIM_003.jpg	100
1977.277	0.761	761.2	2back	Block4	2back/STIM_003.jpg	99
1981.943	0.471	471.0	2back	Block4	2back/STIM_004.jpg	99
1985.14	0.47	470.2	2back	Block4	2back/STIM_004.jpg	100
1987.686	0.596	596.0	2back	Block4	2back/STIM_004.jpg	100
1991.063	0.742	742.5	2back	Block4	2back/STIM_005.jpg	100
1995.211	0.579	578.7	2back	Block4	2back/STIM_005.jpg	100
1998.194	0.552	551.6	2back	Block4	2back/STIM_005.jpg	100
2002.197	0.345	344.8	2back	Block4	2back/STIM_006.jpg	100
2004.854	0.742	741.6	2back	Block4	2back/STIM_006.jpg	100
2008.266	0.488	488.5	2back	Block4	2back/STIM_006.jpg	99
2012.181	0.355	355.0	2back	Block4	2back/STIM_007.jpg	99
2015.128	0.61	609.5	2back	Block4	2back/STIM_007.jpg	99
2018.447	0.752	751.8	2back	Block4	2back/STIM_007.jpg	100
2023.098	0.413	412.9	2back	Block4	2back/STIM_008.jpg	100
2026.56	0.437	436.8	2back	Block4	2back/STIM_008.jpg	99
2029.382	0.693	693.0	2back	Block4	2back/STIM_008.jpg	99
2032.458	0.467	467.3	2back	Block4	2back/STIM_009.jpg	100
2036.246	0.531	531.0	2back	Block4	2back/STIM_009.jpg	99
2040.486	0.666	666.4	2back	Block4	2back/STIM_009.jpg	99
2043.428	0.414	413.5	2back	Block4	2back/STIM_010.jpg	99
2046.766	0.736	736.1	2back	Block4	2back/STIM_010.jpg	99
2050.795	0.709	709.0	2back	Block4	2back/STIM_010.jpg	99
2054.256	0.65	649.8	2back	Block4	2back/STIM_011.jpg	100
2058.863	0.686	686.1	2back	Block4	2back/STIM_011.jpg	100
2063.15	0.553	553.4	2back	Block4	2back/STIM_011.jpg	100
2065.714	0.434	434.2	2back	Block4	2back/STIM_012.jpg	100
2069.858	0.593	593.0	2back	Block4	2back/STIM_012.jpg	100
2072.463	0.422	421.7	2back	Block4	2back/STIM_012.jpg	99
2076.294	0.758	758.3	2back	Block4	2back/STIM_013.jpg	99
2080.97	0.368	368.5	2back	Block4	2back/STIM_013.jpg	99
2084.815	0.344	344.2	2back	Block4	2back/STIM_013.jpg	99
2088.512	0.489	489.0	2back	Block4	2back/STIM_014.jpg	99
2091.831	0.349	348.7	2back	Block4	2back/STIM_014.jpg	100
2095.756	0.551	550.7	2back	Block4	2back/STIM_014.jpg	99
2098.888	0.73	730.0	2back	Block4	2back/STIM_015.jpg	99
2101.649	0.586	586.3	2back	Block4	2back/STIM_015.jpg	100
2104.694	0.763	763.1	2back	Block4	2back/STIM_015.jpg	99
2107.773	0.358	357.8	2back	Block4	2back/STIM_016.jpg	100
2111.686	0.496	495.7	2back	Block4	2back/STIM_016.jpg	99
2115.027	0.399	399.0	2back	Block4	2back/STIM_016.jpg	100
2118.043	0.421	420.9	2back	Block4	2back/STIM_017.jpg	99
2120.671	0.535	534.8	2back	Block4	2back/STIM_017.jpg	99
2124.961	0.478	478.1	2back	Block4	2back/STIM_017.jpg	100
2128.841	0.662	661.7	2back	Block4	2back/STIM_018.jpg	99
2132.428	0.397	397.3	2back	Block4	2back/STIM_018.jpg	99
2134.901	0.739	738.8	2back	Block4	2back/STIM_018.jpg	99
2137.866	0.42	419.7	2back	Block4	2back/STIM_019.jpg	99
2141.111	0.427	427.3	2back	Block4	2back/STIM_019.jpg	100
2144.254	0.548	547.6	2back	Block4	2back/STIM_019.jpg	99
2148.744	0.657	657.2	2back	Block4	2back/STIM_020.jpg	100
2153.261	0.599	599.3	2back	Block4	2back/STIM_020.jpg	99
2156.446	0.36	359.9	2back	Block4	2back/STIM_020.jpg	99
2159.008	0.764	763.8	2back	Block4	2back/STIM_021.jpg	100
2162.33	0.743	743.2	2back	Block4	2back/STIM_021.jpg	100
2165.446	0.435	435.1	2back	Block4	2back/STIM_021.jpg	99
2169.562	0.462	461.8	2back	Block4	2back/STIM_022.jpg	99
2173.407	0.782	781.6	2back	Block4	2back/STIM_022.jpg	99
2176.914	0.595	594.6	2back	Block4	2back/STIM_022.jpg	99
2181.382	0.421	420.8	2back	Block4	2back/STIM_023.jpg	99
2184.417	0.345	344.9	2back	Block4	2back/STIM_023.jpg	100
2186.829	0.382	381.5	2back	Block4	2back/STIM_023.jpg	100
2190.133	0.35	350.3	2back	Block4	2back/STIM_024.jpg	99
2193.829	0.504	504.2	2back	Block4	2back/STIM_024.jpg	99
2197.321	0.37	369.5	2back	Block4	2back/STIM_024.jpg	99
2201.425	0.646	645.7	2back	Block4	2back/STIM_025.jpg	99
2205.335	0.363	362.9	2back	Block4	2back/STIM_025.jpg	100
2207.933	0.598	598.0	2back	Block4	2back/STIM_025.jpg	99
2212.452	0.383	382.8	2back	Block4	2back/STIM_026.jpg	99
2215.164	0.718	718.3	2back	Block4	2back/STIM_026.jpg	100
2219.729	0.571	571.4	2back	Block4	2back/STIM_026.jpg	100
2224.1	0.61	609.8	2back	Block4	2back/STIM_027.jpg	99
2227.744	0.643	643.1	2back	Block4	2back/STIM_027.jpg	100
2230.967	0.551	550.8	2back	Block4	2back/STIM_027.jpg	100
2234.509	0.476	476.2	2back	Block4	2back/STIM_028.jpg	99
2237.546	0.34	339.7	2back	Block4	2back/STIM_028.jpg	100
2240.27	0.503	503.3	2back	Block4	2back/STIM_028.jpg	99
2243.075	0.604	604.2	2back	Block4	2back/STIM_029.jpg	100
2246.009	0.58	580.4	2back	Block4	2back/STIM_029.jpg	99
2248.885	0.489	489.4	2back	Block4	2back/STIM_029.jpg	100
2253.055	0.445	445.0	2back	Block4	2back/STIM_030.jpg	99
2256.669	0.635	635.2	2back	Block4	2back/STIM_030.jpg	99
2260.163	0.765	765.2	2back	Block4	2back/STIM_030.jpg	100
2263.113	0.639	638.6	2back	Block4	2back/STIM_031.jpg	100
2266.804	0.523	523.3	2back	Block4	2back/STIM_031.jpg	99
2271.1	0.685	684.7	2back	Block4	2back/STIM_031.jpg	100
2274.227	0.676	675.9	2back	Block4	2back/STIM_032.jpg	100
2277.044	0.516	515.9	2back	Block4	2back/STIM_032.jpg	100
2279.978	0.548	548.5	2back	Block4	2back/STIM_032.jpg	99
2284.524	0.674	674.1	2back	Block4	2back/STIM_033.jpg	100
2287.944	0.342	341.6	2back	Block4	2back/STIM_033.jpg	99
2292.15	0.684	683.6	2back	Block4	2back/STIM_033.jpg	99
2295.012	0.771	771.4	2back	Block4	2back/STIM_034.jpg	99
2298.984	0.514	513.7	2back	Block4	2back/STIM_034.jpg	99
2302.904	0.62	620.3	2back	Block4	2back/STIM_034.jpg	99
2305.806	0.455	454.7	2back	Block4	2back/STIM_035.jpg	99
2309.727	0.442	442.0	2back	Block4	2back/STIM_035.jpg	99
2313.444	0.564	564.2	2back	Block4	2back/STIM_035.jpg	100
2316.9	0.592	592.2	2back	Block4	2back/STIM_036.jpg	99
2319.769	0.74	740.0	2back	Block4	2back/STIM_036.jpg	99
2323.227	0.659	658.7	2back	Block4	2back/STIM_036.jpg	100
2327.561	0.466	466.0	2back	Block4	2back/STIM_037.jpg	99
2331.8	0.463	463.2	2back	Block4	2back/STIM_037.jpg	100
2334.993	0.696	695.8	2back	Block4	2back/STIM_037.jpg	100
2339.619	0.661	661.0	2back	Block4	2back/STIM_038.jpg	99
2344.077	0.445	444.6	2back	Block4	2back/STIM_038.jpg	99
2347.868	0.338	338.1	2back	Block4	2back/STIM_038.jpg	99
2350.842	0.388	387.9	2back	Block4	2back/STIM_039.jpg	100
2354.338	0.749	749.2	2back	Block4	2back/STIM_039.jpg	99
2357.894	0.342	342.1	2back	Block4	2back/STIM_039.jpg	99
2361.777	0.497	497.3	0back	Block4	0back/STIM_000.jpg	99
2365.851	0.424	424.0	0back	Block4	0back/STIM_000.jpg	100
2370.004	0.396	396.4	0back	Block4	0back/STIM_000.jpg	100
2372.542	0.519	518.6	0back	Block4	0back/STIM_001.jpg	100
2376.562	0.488	488.5	0back	Block4	0back/STIM_001.jpg	100
2379.512	0.628	628.3	0back	Block4	0back/STIM_001.jpg	99
2382.302	0.52	520.0	0back	Block4	0back/STIM_002.jpg	100
2385.178	0.527	527.0	0back	Block4	0back/STIM_002.jpg	100
2387.882	0.381	380.6	0back	Block4	0back/STIM_002.jpg	99
2391.605	0.484	484.3	0back	Block4	0back/STIM_003.jpg	99
2394.507	0.484	484.4	0back	Block4	0back/STIM_003.jpg	99
2398.864	0.493	492.7	0back	Block4	0back/STIM_003.jpg	100
2402.748	0.464	463.5	0back	Block4	0back/STIM_004.jpg	99
2406.786	0.406	405.5	0back	Block4	0back/STIM_004.jpg	99
2410.708	0.457	456.6	0back	Block4	0back/STIM_004.jpg	100
2414.252	0.342	342.1	0back	Block4	0back/STIM_005.jpg	100
2418.483	0.405	404.8	0back	Block4	0back/STIM_005.jpg	100
2422.262	0.538	537.7	0back	Block4	0back/STIM_005.jpg	99
2425.315	0.578	577.8	0back	Block4	0back/STIM_006.jpg	99
2429.334	0.49	490.4	0back	Block4	0back/STIM_006.jpg	100
2431.866	0.496	496.2	0back	Block4	0back/STIM_006.jpg	99
2434.791	0.346	346.1	0back	Block4	0back/STIM_007.jpg	100
2438.917	0.527	527.4	0back	Block4	0back/STIM_007.jpg	99
2441.649	0.559	559.4	0back	Block4	0back/STIM_007.jpg	100
2444.502	0.543	543.3	0back	Block4	0back/STIM_008.jpg	99
2448.06	0.589	588.8	0back	Block4	0back/STIM_008.jpg	99
2451.871	0.425	425.2	0back	Block4	0back/STIM_008.jpg	100
2454.334	0.489	489.4	0back	Block4	0back/STIM_009.jpg	99
2457.416	0.479	479.1	0back	Block4	0back/STIM_009.jpg	100
2460.628	0.464	464.3	0back	Block4	0back/STIM_009.jpg	99
2464.488	0.382	381.9	0back	Block4	0back/STIM_010.jpg	100
2468.333	0.593	592.6	0back	Block4	0back/STIM_010.jpg	99
2471.378	0.577	577.3	0back	Block4	0back/STIM_010.jpg	100
2475.647	0.321	320.6	0back	Block4	0back/STIM_011.jpg	99
2478.816	0.606	606.0	0back	Block4	0back/STIM_011.jpg	99
2481.951	0.395	395.1	0back	Block4	0back/STIM_011.jpg	100
2484.726	0.462	462.5	0back	Block4	0back/STIM_012.jpg	100
2488.37	0.333	332.8	0back	Block4	0back/STIM_012.jpg	100
2491.381	0.627	627.2	0back	Block4	0back/STIM_012.jpg	99
2494.792	0.337	336.9	0back	Block4	0back/STIM_013.jpg	100
2497.248	0.567	566.7	0back	Block4	0back/STIM_013.jpg	100
2500.743	0.423	423.4	0back	Block4	0back/STIM_013.jpg	99
2504.011	0.52	520.0	0back	Block4	0back/STIM_014.jpg	99
2507.442	0.466	466.3	0back	Block4	0back/STIM_014.jpg	99
2510.645	0.53	530.2	0back	Block4	0back/STIM_014.jpg	99
2513.724	0.532	531.8	0back	Block4	0back/STIM_015.jpg	99
2518.147	0.361	361.1	0back	Block4	0back/STIM_015.jpg	100
2522.141	0.331	330.9	0back	Block4	0back/STIM_015.jpg	99
2524.764	0.472	471.5	0back	Block4	0back/STIM_016.jpg	99
2528.867	0.454	454.0	0back	Block4	0back/STIM_016.jpg	100
2532.574	0.401	400.7	0back	Block4	0back/STIM_016.jpg	99
2535.552	0.514	514.5	0back	Block4	0back/STIM_017.jpg	100
2538.268	0.561	561.1	0back	Block4	0back/STIM_017.jpg	99
2542.042	0.581	580.6	0back	Block4	0back/STIM_017.jpg	99
2545.62	0.484	484.1	0back	Block4	0back/STIM_018.jpg	99
2548.384	0.385	384.8	0back	Block4	0back/STIM_018.jpg	99
2552.579	0.341	340.7	0back	Block4	0back/STIM_018.jpg	99
2556.234	0.616	615.7	0back	Block4	0back/STIM_019.jpg	99
2559.579	0.355	355.0	0back	Block4	0back/STIM_019.jpg	100
2562.263	0.521	521.1	0back	Block4	0back/STIM_019.jpg	99
