onset	duration	accuracy	trial_type	learning_stage	stimulus
0.0	3.31	correct	navigation	Trial1	navigation/STIM_000.jpg
5.355	4.938	correct	navigation	Trial1	navigation/STIM_000.jpg
13.993	2.094	correct	navigation	Trial1	navigation/STIM_000.jpg
20.03	4.4	correct	navigation	Trial1	navigation/STIM_000.jpg
27.801	2.361	correct	navigation	Trial1	navigation/STIM_000.jpg
32.264	2.924	correct	navigation	Trial1	navigation/STIM_000.jpg
37.742	5.327	correct	navigation	Trial1	navigation/STIM_001.jpg
47.007	2.275	correct	navigation	Trial1	navigation/STIM_001.jpg
52.057	2.617	correct	navigation	Trial1	navigation/STIM_001.jpg
57.315	2.846	correct	navigation	Trial1	navigation/STIM_001.jpg
63.212	2.825	incorrect	navigation	Trial1	navigation/STIM_001.jpg
68.803	3.646	correct	navigation	Trial1	navigation/STIM_001.jpg
74.939	3.031	correct	navigation	Trial1	navigation/STIM_002.jpg
81.296	4.14	incorrect	navigation	Trial1	navigation/STIM_002.jpg
88.357	4.458	correct	navigation	Trial1	navigation/STIM_002.jpg
95.137	2.188	correct	navigation	Trial1	navigation/STIM_002.jpg
99.443	3.008	correct	navigation	Trial1	navigation/STIM_002.jpg
104.516	3.53	correct	navigation	Trial1	navigation/STIM_002.jpg
110.777	3.304	correct	navigation	Trial1	navigation/STIM_003.jpg
117.129	4.317	incorrect	navigation	Trial1	navigation/STIM_003.jpg
123.949	3.782	incorrect	navigation	Trial1	navigation/STIM_003.jpg
129.875	2.708	incorrect	navigation	Trial1	navigation/STIM_003.jpg
135.636	2.744	correct	navigation	Trial1	navigation/STIM_003.jpg
142.229	3.792	correct	navigation	Trial1	navigation/STIM_003.jpg
149.808	4.914	correct	navigation	Trial1	navigation/STIM_004.jpg
156.958	3.283	incorrect	navigation	Trial1	navigation/STIM_004.jpg
162.792	3.724	correct	navigation	Trial1	navigation/STIM_004.jpg
168.579	3.628	correct	navigation	Trial1	navigation/STIM_004.jpg
175.17	4.325	correct	navigation	Trial1	navigation/STIM_004.jpg
183.425	2.625	correct	navigation	Trial1	navigation/STIM_004.jpg
189.636	3.897	correct	navigation	Trial1	navigation/STIM_005.jpg
196.296	3.084	correct	navigation	Trial1	navigation/STIM_005.jpg
202.677	2.265	incorrect	navigation	Trial1	navigation/STIM_005.jpg
208.258	3.993	correct	navigation	Trial1	navigation/STIM_005.jpg
216.152	2.654	correct	navigation	Trial1	navigation/STIM_005.jpg
221.336	4.016	correct	navigation	Trial1	navigation/STIM_005.jpg
227.501	5.024	incorrect	navigation	Trial1	navigation/STIM_006.jpg
235.396	4.837	incorrect	navigation	Trial1	navigation/STIM_006.jpg
243.836	2.038	correct	navigation	Trial1	navigation/STIM_006.jpg
248.271	4.442	correct	navigation	Trial1	navigation/STIM_006.jpg
256.666	4.122	correct	navigation	Trial1	navigation/STIM_006.jpg
264.706	3.166	correct	navigation	Trial1	navigation/STIM_006.jpg
270.773	3.529	incorrect	navigation	Trial1	navigation/STIM_007.jpg
277.358	2.863	correct	navigation	Trial1	navigation/STIM_007.jpg
282.771	2.545	correct	navigation	Trial1	navigation/STIM_007.jpg
287.611	2.672	correct	navigation	Trial1	navigation/STIM_007.jpg
293.959	4.072	correct	navigation	Trial1	navigation/STIM_007.jpg
301.777	3.595	incorrect	navigation	Trial1	navigation/STIM_007.jpg
309.093	3.388	correct	navigation	Trial1	navigation/STIM_008.jpg
315.62	3.818	correct	navigation	Trial1	navigation/STIM_008.jpg
321.717	4.86	correct	navigation	Trial1	navigation/STIM_008.jpg
328.679	3.113	correct	navigation	Trial1	navigation/STIM_008.jpg
335.406	2.212	correct	navigation	Trial1	navigation/STIM_008.jpg
341.169	2.374	correct	navigation	Trial1	navigation/STIM_008.jpg
346.581	4.491	incorrect	navigation	Trial1	navigation/STIM_009.jpg
355.019	4.816	correct	navigation	Trial1	navigation/STIM_009.jpg
363.246	3.402	incorrect	navigation	Trial1	navigation/STIM_009.jpg
370.22	4.204	incorrect	navigation	Trial1	navigation/STIM_009.jpg
376.659	3.603	correct	navigation	Trial1	navigation/STIM_009.jpg
382.705	1.792	correct	navigation	Trial1	navigation/STIM_009.jpg
387.948	2.366	correct	navigation	Trial1	navigation/STIM_010.jpg
392.626	2.758	correct	navigation	Trial1	navigation/STIM_010.jpg
399.046	3.964	correct	navigation	Trial1	navigation/STIM_010.jpg
406.866	2.979	correct	navigation	Trial1	navigation/STIM_010.jpg
412.55	2.406	incorrect	navigation	Trial1	navigation/STIM_010.jpg
418.232	3.537	incorrect	navigation	Trial1	navigation/STIM_010.jpg
425.41	4.393	correct	navigation	Trial1	navigation/STIM_011.jpg
432.482	4.918	correct	navigation	Trial1	navigation/STIM_011.jpg
439.645	4.292	incorrect	navigation	Trial1	navigation/STIM_011.jpg
446.951	2.123	incorrect	navigation	Trial1	navigation/STIM_011.jpg
451.893	3.526	correct	navigation	Trial1	navigation/STIM_011.jpg
458.773	2.746	correct	navigation	Trial1	navigation/STIM_011.jpg
465.302	1.075	incorrect	pointing	Trial1	pointing/STIM_000.jpg
469.719	1.43	correct	pointing	Trial1	pointing/STIM_000.jpg
473.491	0.947	correct	pointing	Trial1	pointing/STIM_000.jpg
476.787	1.303	correct	pointing	Trial1	pointing/STIM_000.jpg
481.633	1.036	correct	pointing	Trial1	pointing/STIM_000.jpg
486.445	0.958	correct	pointing	Trial1	pointing/STIM_000.jpg
490.587	1.101	correct	pointing	Trial1	pointing/STIM_001.jpg
494.532	0.984	correct	pointing	Trial1	pointing/STIM_001.jpg
497.625	1.38	correct	pointing	Trial1	pointing/STIM_001.jpg
502.619	1.143	incorrect	pointing	Trial1	pointing/STIM_001.jpg
507.012	1.255	correct	pointing	Trial1	pointing/STIM_001.jpg
511.543	1.052	correct	pointing	Trial1	pointing/STIM_001.jpg
515.191	1.235	correct	pointing	Trial1	pointing/STIM_002.jpg
519.479	1.534	correct	pointing	Trial1	pointing/STIM_002.jpg
523.791	1.147	correct	pointing	Trial1	pointing/STIM_002.jpg
527.824	1.428	correct	pointing	Trial1	pointing/STIM_002.jpg
533.105	1.255	correct	pointing	Trial1	pointing/STIM_002.jpg
537.842	1.392	correct	pointing	Trial1	pointing/STIM_002.jpg
541.893	0.912	incorrect	pointing	Trial1	pointing/STIM_003.jpg
544.891	1.38	correct	pointing	Trial1	pointing/STIM_003.jpg
549.616	1.281	incorrect	pointing	Trial1	pointing/STIM_003.jpg
553.806	1.19	correct	pointing	Trial1	pointing/STIM_003.jpg
557.789	1.084	correct	pointing	Trial1	pointing/STIM_003.jpg
561.399	1.106	correct	pointing	Trial1	pointing/STIM_003.jpg
565.966	1.33	correct	pointing	Trial1	pointing/STIM_004.jpg
571.046	1.361	correct	pointing	Trial1	pointing/STIM_004.jpg
575.649	0.882	correct	pointing	Trial1	pointing/STIM_004.jpg
580.372	0.904	correct	pointing	Trial1	pointing/STIM_004.jpg
584.654	1.615	incorrect	pointing	Trial1	pointing/STIM_004.jpg
589.892	1.471	correct	pointing	Trial1	pointing/STIM_004.jpg
593.775	1.553	correct	pointing	Trial1	pointing/STIM_005.jpg
598.285	1.516	correct	pointing	Trial1	pointing/STIM_005.jpg
602.842	1.239	correct	pointing	Trial1	pointing/STIM_005.jpg
606.462	1.403	correct	pointing	Trial1	pointing/STIM_005.jpg
610.468	1.084	correct	pointing	Trial1	pointing/STIM_005.jpg
614.507	0.931	correct	pointing	Trial1	pointing/STIM_005.jpg
619.201	1.34	correct	pointing	Trial1	pointing/STIM_006.jpg
622.919	1.464	incorrect	pointing	Trial1	pointing/STIM_006.jpg
626.858	1.326	correct	pointing	Trial1	pointing/STIM_006.jpg
631.956	0.956	correct	pointing	Trial1	pointing/STIM_006.jpg
635.282	1.437	correct	pointing	Trial1	pointing/STIM_006.jpg
639.997	1.588	correct	pointing	Trial1	pointing/STIM_006.jpg
644.919	1.113	correct	pointing	Trial1	pointing/STIM_007.jpg
649.427	1.397	correct	pointing	Trial1	pointing/STIM_007.jpg
654.725	1.054	correct	pointing	Trial1	pointing/STIM_007.jpg
658.542	1.244	correct	pointing	Trial1	pointing/STIM_007.jpg
661.899	1.271	correct	pointing	Trial1	pointing/STIM_007.jpg
666.3	1.177	correct	pointing	Trial1	pointing/STIM_007.jpg
670.265	1.014	correct	pointing	Trial1	pointing/STIM_008.jpg
674.221	1.008	incorrect	pointing	Trial1	pointing/STIM_008.jpg
678.338	1.324	correct	pointing	Trial1	pointing/STIM_008.jpg
682.264	0.95	incorrect	pointing	Trial1	pointing/STIM_008.jpg
685.266	1.161	correct	pointing	Trial1	pointing/STIM_008.jpg
688.854	1.46	correct	pointing	Trial1	pointing/STIM_008.jpg
693.367	1.544	incorrect	pointing	Trial1	pointing/STIM_009.jpg
697.101	1.527	correct	pointing	Trial1	pointing/STIM_009.jpg
700.901	1.198	correct	pointing	Trial1	pointing/STIM_009.jpg
705.031	1.167	correct	pointing	Trial1	pointing/STIM_009.jpg
709.209	1.372	correct	pointing	Trial1	pointing/STIM_009.jpg
713.393	0.889	correct	pointing	Trial1	pointing/STIM_009.jpg
717.451	1.073	correct	pointing	Trial1	pointing/STIM_010.jpg
720.627	0.928	correct	pointing	Trial1	pointing/STIM_010.jpg
725.346	1.353	incorrect	pointing	Trial1	pointing/STIM_010.jpg
730.518	1.146	correct	pointing	Trial1	pointing/STIM_010.jpg
735.154	1.105	correct	pointing	Trial1	pointing/STIM_010.jpg
740.246	1.608	correct	pointing	Trial1	pointing/STIM_010.jpg
745.54	1.483	correct	pointing	Trial1	pointing/STIM_011.jpg
749.035	1.621	correct	pointing	Trial1	pointing/STIM_011.jpg
752.713	0.93	correct	pointing	Trial1	pointing/STIM_011.jpg
755.971	1.328	correct	pointing	Trial1	pointing/STIM_011.jpg
760.763	1.567	correct	pointing	Trial1	pointing/STIM_011.jpg
764.514	1.033	correct	pointing	Trial1	pointing/STIM_011.jpg
768.543	2.087	correct	navigation	Trial2	navigation/STIM_000.jpg
773.886	2.168	correct	navigation	Trial2	navigation/STIM_000.jpg
779.107	3.975	correct	navigation	Trial2	navigation/STIM_000.jpg
786.193	1.588	incorrect	navigation	Trial2	navigation/STIM_000.jpg
791.472	3.557	correct	navigation	Trial2	navigation/STIM_000.jpg
798.365	2.82	correct	navigation	Trial2	navigation/STIM_000.jpg
804.276	4.543	incorrect	navigation	Trial2	navigation/STIM_001.jpg
812.52	2.735	correct	navigation	Trial2	navigation/STIM_001.jpg
818.956	3.44	correct	navigation	Trial2	navigation/STIM_001.jpg
824.514	3.741	incorrect	navigation	Trial2	navigation/STIM_001.jpg
830.995	3.378	correct	navigation	Trial2	navigation/STIM_001.jpg
837.551	3.416	correct	navigation	Trial2	navigation/STIM_001.jpg
843.58	3.275	incorrect	navigation	Trial2	navigation/STIM_002.jpg
849.365	3.385	correct	navigation	Trial2	navigation/STIM_002.jpg
856.014	2.399	correct	navigation	Trial2	navigation/STIM_002.jpg
860.589	3.793	correct	navigation	Trial2	navigation/STIM_002.jpg
867.505	2.404	correct	navigation	Trial2	navigation/STIM_002.jpg
873.359	1.608	correct	navigation	Trial2	navigation/STIM_002.jpg
878.219	3.504	incorrect	navigation	Trial2	navigation/STIM_003.jpg
884.982	2.852	correct	navigation	Trial2	navigation/STIM_003.jpg
889.879	2.117	correct	navigation	Trial2	navigation/STIM_003.jpg
894.396	1.618	correct	navigation	Trial2	navigation/STIM_003.jpg
899.227	1.757	correct	navigation	Trial2	navigation/STIM_003.jpg
903.663	1.619	correct	navigation	Trial2	navigation/STIM_003.jpg
909.074	2.056	incorrect	navigation	Trial2	navigation/STIM_004.jpg
913.523	3.188	incorrect	navigation	Trial2	navigation/STIM_004.jpg
920.227	3.334	incorrect	navigation	Trial2	navigation/STIM_004.jpg
926.878	2.592	correct	navigation	Trial2	navigation/STIM_004.jpg
932.326	2.64	correct	navigation	Trial2	navigation/STIM_004.jpg
937.836	1.732	correct	navigation	Trial2	navigation/STIM_004.jpg
942.148	4.493	correct	navigation	Trial2	navigation/STIM_005.jpg
949.342	4.118	correct	navigation	Trial2	navigation/STIM_005.jpg
955.505	2.955	correct	navigation	Trial2	navigation/STIM_005.jpg
961.834	1.88	correct	navigation	Trial2	navigation/STIM_005.jpg
967.551	3.424	correct	navigation	Trial2	navigation/STIM_005.jpg
974.888	2.382	correct	navigation	Trial2	navigation/STIM_005.jpg
980.88	2.525	incorrect	navigation	Trial2	navigation/STIM_006.jpg
985.844	4.142	correct	navigation	Trial2	navigation/STIM_006.jpg
992.726	4.049	correct	navigation	Trial2	navigation/STIM_006.jpg
1000.607	2.866	correct	navigation	Trial2	navigation/STIM_006.jpg
1005.753	2.236	correct	navigation	Trial2	navigation/STIM_006.jpg
1010.322	3.685	correct	navigation	Trial2	navigation/STIM_006.jpg
1017.384	3.681	correct	navigation	Trial2	navigation/STIM_007.jpg
1024.217	3.466	correct	navigation	Trial2	navigation/STIM_007.jpg
1031.032	1.909	correct	navigation	Trial2	navigation/STIM_007.jpg
1035.379	3.361	correct	navigation	Trial2	navigation/STIM_007.jpg
1041.02	1.705	correct	navigation	Trial2	navigation/STIM_007.jpg
1044.81	2.229	correct	navigation	Trial2	navigation/STIM_007.jpg
1049.117	3.081	incorrect	navigation	Trial2	navigation/STIM_008.jpg
1055.666	3.298	correct	navigation	Trial2	navigation/STIM_008.jpg
1061.54	3.875	correct	navigation	Trial2	navigation/STIM_008.jpg
1068.8	3.752	correct	navigation	Trial2	navigation/STIM_008.jpg
1075.796	2.23	correct	navigation	Trial2	navigation/STIM_008.jpg
1081.171	1.643	correct	navigation	Trial2	navigation/STIM_008.jpg
1086.724	3.675	incorrect	navigation	Trial2	navigation/STIM_009.jpg
1093.049	3.675	correct	navigation	Trial2	navigation/STIM_009.jpg
1099.473	2.176	correct	navigation	Trial2	navigation/STIM_009.jpg
1105.627	2.754	incorrect	navigation	Trial2	navigation/STIM_009.jpg
1110.69	3.394	correct	navigation	Trial2	navigation/STIM_009.jpg
1116.389	1.982	correct	navigation	Trial2	navigation/STIM_009.jpg
1121.346	2.642	correct	navigation	Trial2	navigation/STIM_010.jpg
1127.503	3.762	correct	navigation	Trial2	navigation/STIM_010.jpg
1133.966	2.385	correct	navigation	Trial2	navigation/STIM_010.jpg
1139.618	2.347	correct	navigation	Trial2	navigation/STIM_010.jpg
1145.828	2.405	correct	navigation	Trial2	navigation/STIM_010.jpg
1151.637	2.953	correct	navigation	Trial2	navigation/STIM_010.jpg
1158.534	4.517	correct	navigation	Trial2	navigation/STIM_011.jpg
1165.541	2.452	incorrect	navigation	Trial2	navigation/STIM_011.jpg
1170.601	3.175	correct	navigation	Trial2	navigation/STIM_011.jpg
1176.964	2.254	correct	navigation	Trial2	navigation/STIM_011.jpg
1181.669	2.459	correct	navigation	Trial2	navigation/STIM_011.jpg
1186.232	1.83	correct	navigation	Trial2	navigation/STIM_011.jpg
1190.867	0.964	incorrect	pointing	Trial2	pointing/STIM_000.jpg
1194.515	1.314	correct	pointing	Trial2	pointing/STIM_000.jpg
1198.203	1.081	correct	pointing	Trial2	pointing/STIM_000.jpg
1203.15	1.167	correct	pointing	Trial2	pointing/STIM_000.jpg
1207.264	1.25	correct	pointing	Trial2	pointing/STIM_000.jpg
1211.98	1.437	correct	pointing	Trial2	pointing/STIM_000.jpg
1216.656	1.361	correct	pointing	Trial2	pointing/STIM_001.jpg
1220.839	1.211	correct	pointing	Trial2	pointing/STIM_001.jpg
1224.576	1.329	correct	pointing	Trial2	pointing/STIM_001.jpg
1229.309	1.578	incorrect	pointing	Trial2	pointing/STIM_001.jpg
1233.139	1.175	correct	pointing	Trial2	pointing/STIM_001.jpg
1237.511	0.955	correct	pointing	Trial2	pointing/STIM_001.jpg
1242.123	1.505	correct	pointing	Trial2	pointing/STIM_002.jpg
1246.255	1.492	correct	pointing	Trial2	pointing/STIM_002.jpg
1250.905	0.96	correct	pointing	Trial2	pointing/STIM_002.jpg
1255.042	1.582	correct	pointing	Trial2	pointing/STIM_002.jpg
1259.967	0.929	correct	pointing	Trial2	pointing/STIM_002.jpg
1263.931	1.125	correct	pointing	Trial2	pointing/STIM_002.jpg
1267.825	1.286	correct	pointing	Trial2	pointing/STIM_003.jpg
1271.663	1.414	correct	pointing	Trial2	pointing/STIM_003.jpg
1276.425	1.349	correct	pointing	Trial2	pointing/STIM_003.jpg
1281.139	1.115	correct	pointing	Trial2	pointing/STIM_003.jpg
1286.183	1.036	correct	pointing	Trial2	pointing/STIM_003.jpg
1289.641	1.1	incorrect	pointing	Trial2	pointing/STIM_003.jpg
1293.847	1.436	incorrect	pointing	Trial2	pointing/STIM_004.jpg
1298.466	1.422	correct	pointing	Trial2	pointing/STIM_004.jpg
1302.711	1.481	correct	pointing	Trial2	pointing/STIM_004.jpg
1307.945	1.233	incorrect	pointing	Trial2	pointing/STIM_004.jpg
1311.843	1.273	correct	pointing	Trial2	pointing/STIM_004.jpg
1316.216	1.02	correct	pointing	Trial2	pointing/STIM_004.jpg
1320.66	1.168	incorrect	pointing	Trial2	pointing/STIM_005.jpg
1325.72	1.191	correct	pointing	Trial2	pointing/STIM_005.jpg
1330.006	1.334	incorrect	pointing	Trial2	pointing/STIM_005.jpg
1335.083	1.267	correct	pointing	Trial2	pointing/STIM_005.jpg
1338.578	1.437	correct	pointing	Trial2	pointing/STIM_005.jpg
1343.382	1.264	correct	pointing	Trial2	pointing/STIM_005.jpg
1346.988	1.484	correct	pointing	Trial2	pointing/STIM_006.jpg
1350.823	1.046	correct	pointing	Trial2	pointing/STIM_006.jpg
1354.575	1.123	correct	pointing	Trial2	pointing/STIM_006.jpg
1359.61	1.098	correct	pointing	Trial2	pointing/STIM_006.jpg
1363.821	1.127	incorrect	pointing	Trial2	pointing/STIM_006.jpg
1367.16	1.312	correct	pointing	Trial2	pointing/STIM_006.jpg
1371.311	1.585	correct	pointing	Trial2	pointing/STIM_007.jpg
1374.93	0.991	incorrect	pointing	Trial2	pointing/STIM_007.jpg
1379.264	1.186	incorrect	pointing	Trial2	pointing/STIM_007.jpg
1384.363	1.261	correct	pointing	Trial2	pointing/STIM_007.jpg
1388.234	1.102	correct	pointing	Trial2	pointing/STIM_007.jpg
1391.485	1.61	correct	pointing	Trial2	pointing/STIM_007.jpg
1395.664	1.053	correct	pointing	Trial2	pointing/STIM_008.jpg
1398.939	1.449	correct	pointing	Trial2	pointing/STIM_008.jpg
1402.863	1.188	correct	pointing	Trial2	pointing/STIM_008.jpg
1407.08	1.211	correct	pointing	Trial2	pointing/STIM_008.jpg
1411.29	1.064	incorrect	pointing	Trial2	pointing/STIM_008.jpg
1415.524	1.239	incorrect	pointing	Trial2	pointing/STIM_008.jpg
1419.981	1.158	correct	pointing	Trial2	pointing/STIM_009.jpg
1424.085	0.892	correct	pointing	Trial2	pointing/STIM_009.jpg
1427.174	1.21	correct	pointing	Trial2	pointing/STIM_009.jpg
1430.522	1.318	correct	pointing	Trial2	pointing/STIM_009.jpg
1434.151	0.873	correct	pointing	Trial2	pointing/STIM_009.jpg
1438.856	1.046	correct	pointing	Trial2	pointing/STIM_009.jpg
1442.39	1.473	correct	pointing	Trial2	pointing/STIM_010.jpg
1446.023	1.331	correct	pointing	Trial2	pointing/STIM_010.jpg
1449.575	1.456	correct	pointing	Trial2	pointing/STIM_010.jpg
1454.311	1.095	correct	pointing	Trial2	pointing/STIM_010.jpg
1457.581	1.172	incorrect	pointing	Trial2	pointing/STIM_010.jpg
1461.302	1.272	correct	pointing	Trial2	pointing/STIM_010.jpg
1465.389	1.177	correct	pointing	Trial2	pointing/STIM_011.jpg
1468.866	1.437	correct	pointing	Trial2	pointing/STIM_011.jpg
1473.51	1.054	correct	pointing	Trial2	pointing/STIM_011.jpg
1478.377	1.622	correct	pointing	Trial2	pointing/STIM_011.jpg
1482.771	1.324	correct	pointing	Trial2	pointing/STIM_011.jpg
1486.543	1.519	correct	pointing	Trial2	pointing/STIM_011.jpg
1490.617	1.881	correct	navigation	Trial3	navigation/STIM_000.jpg
1495.078	3.064	incorrect	navigation	Trial3	navigation/STIM_000.jpg
1501.604	2.826	incorrect	navigation	Trial3	navigation/STIM_000.jpg
1507.199	1.845	correct	navigation	Trial3	navigation/STIM_000.jpg
1511.227	2.916	correct	navigation	Trial3	navigation/STIM_000.jpg
1517.513	2.955	correct	navigation	Trial3	navigation/STIM_000.jpg
1524.351	1.705	correct	navigation	Trial3	navigation/STIM_001.jpg
1529.085	2.2	correct	navigation	Trial3	navigation/STIM_001.jpg
1535.059	3.116	correct	navigation	Trial3	navigation/STIM_001.jpg
1542.155	2.82	incorrect	navigation	Trial3	navigation/STIM_001.jpg
1547.453	1.771	correct	navigation	Trial3	navigation/STIM_001.jpg
1552.641	1.894	correct	navigation	Trial3	navigation/STIM_001.jpg
1557.794	2.94	correct	navigation	Trial3	navigation/STIM_002.jpg
1563.31	3.549	correct	navigation	Trial3	navigation/STIM_002.jpg
1568.981	2.788	correct	navigation	Trial3	navigation/STIM_002.jpg
1574.841	2.312	correct	navigation	Trial3	navigation/STIM_002.jpg
1580.339	2.707	correct	navigation	Trial3	navigation/STIM_002.jpg
1586.376	3.651	correct	navigation	Trial3	navigation/STIM_002.jpg
1593.88	2.767	correct	navigation	Trial3	navigation/STIM_003.jpg
1599.498	3.662	correct	navigation	Trial3	navigation/STIM_003.jpg
1606.83	1.587	correct	navigation	Trial3	navigation/STIM_003.jpg
1611.186	2.849	correct	navigation	Trial3	navigation/STIM_003.jpg
1616.076	2.453	correct	navigation	Trial3	navigation/STIM_003.jpg
1620.891	2.805	correct	navigation	Trial3	navigation/STIM_003.jpg
1626.357	2.351	correct	navigation	Trial3	navigation/STIM_004.jpg
1631.181	2.55	correct	navigation	Trial3	navigation/STIM_004.jpg
1637.533	3.004	correct	navigation	Trial3	navigation/STIM_004.jpg
1644.286	2.712	correct	navigation	Trial3	navigation/STIM_004.jpg
1650.766	3.384	correct	navigation	Trial3	navigation/STIM_004.jpg
1657.268	3.017	incorrect	navigation	Trial3	navigation/STIM_004.jpg
1663.066	3.086	incorrect	navigation	Trial3	navigation/STIM_005.jpg
1668.665	2.86	incorrect	navigation	Trial3	navigation/STIM_005.jpg
1674.026	2.616	correct	navigation	Trial3	navigation/STIM_005.jpg
1679.932	3.183	correct	navigation	Trial3	navigation/STIM_005.jpg
1686.24	1.657	correct	navigation	Trial3	navigation/STIM_005.jpg
1691.562	2.331	correct	navigation	Trial3	navigation/STIM_005.jpg
1696.261	2.599	correct	navigation	Trial3	navigation/STIM_006.jpg
1701.433	3.501	correct	navigation	Trial3	navigation/STIM_006.jpg
1707.158	1.564	correct	navigation	Trial3	navigation/STIM_006.jpg
1711.319	2.571	correct	navigation	Trial3	navigation/STIM_006.jpg
1717.612	2.598	correct	navigation	Trial3	navigation/STIM_006.jpg
1723.956	3.19	correct	navigation	Trial3	navigation/STIM_006.jpg
1730.814	3.487	incorrect	navigation	Trial3	navigation/STIM_007.jpg
1736.56	3.173	correct	navigation	Trial3	navigation/STIM_007.jpg
1743.581	1.537	incorrect	navigation	Trial3	navigation/STIM_007.jpg
1748.756	3.513	correct	navigation	Trial3	navigation/STIM_007.jpg
1755.016	2.273	correct	navigation	Trial3	navigation/STIM_007.jpg
1760.943	1.824	correct	navigation	Trial3	navigation/STIM_007.jpg
1764.842	3.209	correct	navigation	Trial3	navigation/STIM_008.jpg
1770.773	2.087	incorrect	navigation	Trial3	navigation/STIM_008.jpg
1775.272	3.776	correct	navigation	Trial3	navigation/STIM_008.jpg
1782.465	1.839	incorrect	navigation	Trial3	navigation/STIM_008.jpg
1786.85	3.62	correct	navigation	Trial3	navigation/STIM_008.jpg
1792.731	2.251	correct	navigation	Trial3	navigation/STIM_008.jpg
1797.265	1.903	correct	navigation	Trial3	navigation/STIM_009.jpg
1801.706	2.077	incorrect	navigation	Trial3	navigation/STIM_009.jpg
1805.945	3.735	correct	navigation	Trial3	navigation/STIM_009.jpg
1812.656	1.714	correct	navigation	Trial3	navigation/STIM_009.jpg
1817.41	2.327	correct	navigation	Trial3	navigation/STIM_009.jpg
1823.565	3.204	correct	navigation	Trial3	navigation/STIM_009.jpg
1830.296	1.896	correct	navigation	Trial3	navigation/STIM_010.jpg
1835.054	2.066	incorrect	navigation	Trial3	navigation/STIM_010.jpg
1839.545	3.206	correct	navigation	Trial3	navigation/STIM_010.jpg
1845.407	3.729	correct	navigation	Trial3	navigation/STIM_010.jpg
1851.526	2.578	correct	navigation	Trial3	navigation/STIM_010.jpg
1856.189	1.6	correct	navigation	Trial3	navigation/STIM_010.jpg
1859.932	2.591	correct	navigation	Trial3	navigation/STIM_011.jpg
1866.382	2.841	correct	navigation	Trial3	navigation/STIM_011.jpg
1871.997	3.243	correct	navigation	Trial3	navigation/STIM_011.jpg
1879.039	2.455	correct	navigation	Trial3	navigation/STIM_011.jpg
1884.068	2.561	correct	navigation	Trial3	navigation/STIM_011.jpg
1889.874	2.716	incorrect	navigation	Trial3	navigation/STIM_011.jpg
1895.212	1.481	incorrect	pointing	Trial3	pointing/STIM_000.jpg
1900.392	1.055	correct	pointing	Trial3	pointing/STIM_000.jpg
1903.539	1.245	correct	pointing	Trial3	pointing/STIM_000.jpg
1907.532	0.947	correct	pointing	Trial3	pointing/STIM_000.jpg
1911.428	1.185	correct	pointing	Trial3	pointing/STIM_000.jpg
1914.801	1.04	correct	pointing	Trial3	pointing/STIM_000.jpg
1917.921	0.882	correct	pointing	Trial3	pointing/STIM_001.jpg
1920.997	0.996	incorrect	pointing	Trial3	pointing/STIM_001.jpg
1925.429	1.564	correct	pointing	Trial3	pointing/STIM_001.jpg
1929.805	1.206	incorrect	pointing	Trial3	pointing/STIM_001.jpg
1933.457	1.021	correct	pointing	Trial3	pointing/STIM_001.jpg
1937.22	0.944	correct	pointing	Trial3	pointing/STIM_001.jpg
1940.585	0.905	correct	pointing	Trial3	pointing/STIM_002.jpg
1944.473	0.946	incorrect	pointing	Trial3	pointing/STIM_002.jpg
1947.851	1.513	correct	pointing	Trial3	pointing/STIM_002.jpg
1953.029	1.026	correct	pointing	Trial3	pointing/STIM_002.jpg
1957.01	1.583	correct	pointing	Trial3	pointing/STIM_002.jpg
1960.712	0.894	correct	pointing	Trial3	pointing/STIM_002.jpg
1963.937	1.0	correct	pointing	Trial3	pointing/STIM_003.jpg
1967.948	1.409	correct	pointing	Trial3	pointing/STIM_003.jpg
1971.897	1.09	correct	pointing	Trial3	pointing/STIM_003.jpg
1976.435	1.018	correct	pointing	Trial3	pointing/STIM_003.jpg
1980.115	1.47	correct	pointing	Trial3	pointing/STIM_003.jpg
1984.083	1.476	correct	pointing	Trial3	pointing/STIM_003.jpg
1989.436	1.495	correct	pointing	Trial3	pointing/STIM_004.jpg
1994.776	1.4	correct	pointing	Trial3	pointing/STIM_004.jpg
1998.338	1.409	correct	pointing	Trial3	pointing/STIM_004.jpg
2003.15	1.033	correct	pointing	Trial3	pointing/STIM_004.jpg
2007.764	1.529	correct	pointing	Trial3	pointing/STIM_004.jpg
2012.871	0.929	correct	pointing	Trial3	pointing/STIM_004.jpg
2016.544	1.151	correct	pointing	Trial3	pointing/STIM_005.jpg
2020.54	1.509	correct	pointing	Trial3	pointing/STIM_005.jpg
2025.842	1.062	correct	pointing	Trial3	pointing/STIM_005.jpg
2030.363	1.458	correct	pointing	Trial3	pointing/STIM_005.jpg
2034.669	1.256	correct	pointing	Trial3	pointing/STIM_005.jpg
2039.011	1.581	correct	pointing	Trial3	pointing/STIM_005.jpg
2042.999	1.447	correct	pointing	Trial3	pointing/STIM_006.jpg
2046.867	1.254	incorrect	pointing	Trial3	pointing/STIM_006.jpg
2050.128	1.396	correct	pointing	Trial3	pointing/STIM_006.jpg
2055.045	0.93	correct	pointing	Trial3	pointing/STIM_006.jpg
2058.093	1.239	correct	pointing	Trial3	pointing/STIM_006.jpg
2061.918	0.945	correct	pointing	Trial3	pointing/STIM_006.jpg
2066.138	1.168	correct	pointing	Trial3	pointing/STIM_007.jpg
2071.087	1.404	correct	pointing	Trial3	pointing/STIM_007.jpg
2076.054	1.348	correct	pointing	Trial3	pointing/STIM_007.jpg
2079.475	1.284	correct	pointing	Trial3	pointing/STIM_007.jpg
2082.763	1.102	correct	pointing	Trial3	pointing/STIM_007.jpg
2087.225	1.249	correct	pointing	Trial3	pointing/STIM_007.jpg
2091.222	1.627	correct	pointing	Trial3	pointing/STIM_008.jpg
2096.523	1.155	correct	pointing	Trial3	pointing/STIM_008.jpg
2100.557	1.526	correct	pointing	Trial3	pointing/STIM_008.jpg
2105.454	0.872	correct	pointing	Trial3	pointing/STIM_008.jpg
2109.288	1.57	correct	pointing	Trial3	pointing/STIM_008.jpg
2114.23	1.09	correct	pointing	Trial3	pointing/STIM_008.jpg
2117.63	1.471	correct	pointing	Trial3	pointing/STIM_009.jpg
2122.466	1.231	correct	pointing	Trial3	pointing/STIM_009.jpg
2127.333	1.436	correct	pointing	Trial3	pointing/STIM_009.jpg
2132.734	1.605	correct	pointing	Trial3	pointing/STIM_009.jpg
2137.385	1.228	correct	pointing	Trial3	pointing/STIM_009.jpg
2142.541	1.088	correct	pointing	Trial3	pointing/STIM_009.jpg
2146.813	1.504	correct	pointing	Trial3	pointing/STIM_010.jpg
2152.169	1.224	correct	pointing	Trial3	pointing/STIM_010.jpg
2157.073	0.908	correct	pointing	Trial3	pointing/STIM_010.jpg
2161.343	1.137	correct	pointing	Trial3	pointing/STIM_010.jpg
2166.333	1.465	correct	pointing	Trial3	pointing/STIM_010.jpg
2171.449	0.942	incorrect	pointing	Trial3	pointing/STIM_010.jpg
2175.568	1.429	correct	pointing	Trial3	pointing/STIM_011.jpg
2180.403	1.628	correct	pointing	Trial3	pointing/STIM_011.jpg
2185.562	1.212	correct	pointing	Trial3	pointing/STIM_011.jpg
2190.331	1.223	correct	pointing	Trial3	pointing/STIM_011.jpg
2195.508	1.484	correct	pointing	Trial3	pointing/STIM_011.jpg
2200.258	1.116	correct	pointing	Trial3	pointing/STIM_011.jpg
