onset	duration	accuracy_binary	trial_type	learning_stage	stimulus
0.0	2.805	1	navigation	Trial1	navigation/STIM_000.jpg
6.243	3.701	1	navigation	Trial1	navigation/STIM_000.jpg
12.762	2.434	1	navigation	Trial1	navigation/STIM_000.jpg
17.865	2.04	1	navigation	Trial1	navigation/STIM_000.jpg
22.445	3.076	1	navigation	Trial1	navigation/STIM_000.jpg
27.787	2.216	0	navigation	Trial1	navigation/STIM_000.jpg
32.141	3.935	1	navigation	Trial1	navigation/STIM_001.jpg
37.942	2.22	0	navigation	Trial1	navigation/STIM_001.jpg
43.666	3.814	1	navigation	Trial1	navigation/STIM_001.jpg
49.825	3.856	1	navigation	Trial1	navigation/STIM_001.jpg
56.941	3.815	1	navigation	Trial1	navigation/STIM_001.jpg
63.875	1.787	1	navigation	Trial1	navigation/STIM_001.jpg
67.995	3.942	1	navigation	Trial1	navigation/STIM_002.jpg
74.999	4.201	0	navigation	Trial1	navigation/STIM_002.jpg
81.092	3.708	1	navigation	Trial1	navigation/STIM_002.jpg
87.01	4.42	1	navigation	Trial1	navigation/STIM_002.jpg
94.937	2.819	1	navigation	Trial1	navigation/STIM_002.jpg
100.918	1.872	0	navigation	Trial1	navigation/STIM_002.jpg
106.358	2.277	0	navigation	Trial1	navigation/STIM_003.jpg
111.841	4.471	0	navigation	Trial1	navigation/STIM_003.jpg
119.897	3.762	1	navigation	Trial1	navigation/STIM_003.jpg
126.333	3.433	1	navigation	Trial1	navigation/STIM_003.jpg
133.265	1.932	1	navigation	Trial1	navigation/STIM_003.jpg
138.743	3.619	1	navigation	Trial1	navigation/STIM_003.jpg
144.379	4.252	0	navigation	Trial1	navigation/STIM_004.jpg
150.448	3.156	1	navigation	Trial1	navigation/STIM_004.jpg
155.665	4.408	1	navigation	Trial1	navigation/STIM_004.jpg
163.17	2.683	1	navigation	Trial1	navigation/STIM_004.jpg
167.869	3.363	1	navigation	Trial1	navigation/STIM_004.jpg
173.672	2.107	0	navigation	Trial1	navigation/STIM_004.jpg
178.245	2.796	1	navigation	Trial1	navigation/STIM_005.jpg
183.024	4.471	1	navigation	Trial1	navigation/STIM_005.jpg
190.776	4.476	1	navigation	Trial1	navigation/STIM_005.jpg
197.276	3.271	1	navigation	Trial1	navigation/STIM_005.jpg
203.505	3.564	1	navigation	Trial1	navigation/STIM_005.jpg
208.938	1.762	0	navigation	Trial1	navigation/STIM_005.jpg
214.124	4.471	1	navigation	Trial1	navigation/STIM_006.jpg
221.447	4.472	1	navigation	Trial1	navigation/STIM_006.jpg
228.608	3.421	0	navigation	Trial1	navigation/STIM_006.jpg
235.11	1.962	0	navigation	Trial1	navigation/STIM_006.jpg
239.617	3.531	1	navigation	Trial1	navigation/STIM_006.jpg
246.86	3.604	0	navigation	Trial1	navigation/STIM_006.jpg
253.089	3.973	1	navigation	Trial1	navigation/STIM_007.jpg
260.322	4.474	1	navigation	Trial1	navigation/STIM_007.jpg
266.772	3.848	1	navigation	Trial1	navigation/STIM_007.jpg
273.001	3.058	1	navigation	Trial1	navigation/STIM_007.jpg
278.711	2.261	1	navigation	Trial1	navigation/STIM_007.jpg
283.554	4.005	1	navigation	Trial1	navigation/STIM_007.jpg
291.049	3.914	1	navigation	Trial1	navigation/STIM_008.jpg
298.457	2.663	0	navigation	Trial1	navigation/STIM_008.jpg
303.054	3.724	1	navigation	Trial1	navigation/STIM_008.jpg
310.101	2.776	1	navigation	Trial1	navigation/STIM_008.jpg
314.707	3.011	1	navigation	Trial1	navigation/STIM_008.jpg
321.031	3.375	1	navigation	Trial1	navigation/STIM_008.jpg
327.836	5.132	1	navigation	Trial1	navigation/STIM_009.jpg
335.659	4.783	1	navigation	Trial1	navigation/STIM_009.jpg
343.991	2.746	1	navigation	Trial1	navigation/STIM_009.jpg
348.845	2.455	1	navigation	Trial1	navigation/STIM_009.jpg
354.387	2.662	1	navigation	Trial1	navigation/STIM_009.jpg
360.461	1.882	1	navigation	Trial1	navigation/STIM_009.jpg
365.715	4.52	1	navigation	Trial1	navigation/STIM_010.jpg
373.547	2.372	1	navigation	Trial1	navigation/STIM_010.jpg
378.338	4.554	1	navigation	Trial1	navigation/STIM_010.jpg
386.231	4.547	1	navigation	Trial1	navigation/STIM_010.jpg
393.004	2.36	0	navigation	Trial1	navigation/STIM_010.jpg
397.667	1.648	1	navigation	Trial1	navigation/STIM_010.jpg
403.019	4.476	1	navigation	Trial1	navigation/STIM_011.jpg
410.246	2.295	1	navigation	Trial1	navigation/STIM_011.jpg
415.649	2.345	0	navigation	Trial1	navigation/STIM_011.jpg
420.206	2.52	0	navigation	Trial1	navigation/STIM_011.jpg
425.255	2.88	1	navigation	Trial1	navigation/STIM_011.jpg
429.997	3.155	1	navigation	Trial1	navigation/STIM_011.jpg
436.841	1.366	1	pointing	Trial1	pointing/STIM_000.jpg
440.373	0.915	1	pointing	Trial1	pointing/STIM_000.jpg
444.754	1.528	1	pointing	Trial1	pointing/STIM_000.jpg
448.4	1.097	1	pointing	Trial1	pointing/STIM_000.jpg
452.936	0.911	1	pointing	Trial1	pointing/STIM_000.jpg
457.291	1.259	1	pointing	Trial1	pointing/STIM_000.jpg
461.503	1.009	0	pointing	Trial1	pointing/STIM_001.jpg
465.985	1.05	1	pointing	Trial1	pointing/STIM_001.jpg
469.123	0.882	1	pointing	Trial1	pointing/STIM_001.jpg
472.832	0.957	1	pointing	Trial1	pointing/STIM_001.jpg
476.926	1.186	1	pointing	Trial1	pointing/STIM_001.jpg
481.135	0.997	1	pointing	Trial1	pointing/STIM_001.jpg
484.871	1.385	1	pointing	Trial1	pointing/STIM_002.jpg
488.618	1.601	1	pointing	Trial1	pointing/STIM_002.jpg
493.965	1.27	1	pointing	Trial1	pointing/STIM_002.jpg
498.014	1.281	1	pointing	Trial1	pointing/STIM_002.jpg
502.669	0.92	1	pointing	Trial1	pointing/STIM_002.jpg
506.599	1.612	1	pointing	Trial1	pointing/STIM_002.jpg
510.831	1.321	1	pointing	Trial1	pointing/STIM_003.jpg
515.248	1.13	1	pointing	Trial1	pointing/STIM_003.jpg
518.397	1.337	1	pointing	Trial1	pointing/STIM_003.jpg
522.712	1.121	1	pointing	Trial1	pointing/STIM_003.jpg
526.951	1.508	1	pointing	Trial1	pointing/STIM_003.jpg
530.815	1.234	1	pointing	Trial1	pointing/STIM_003.jpg
535.221	1.205	1	pointing	Trial1	pointing/STIM_004.jpg
540.228	1.468	1	pointing	Trial1	pointing/STIM_004.jpg
543.954	1.223	1	pointing	Trial1	pointing/STIM_004.jpg
548.986	1.107	1	pointing	Trial1	pointing/STIM_004.jpg
553.005	1.12	1	pointing	Trial1	pointing/STIM_004.jpg
557.393	1.351	1	pointing	Trial1	pointing/STIM_004.jpg
561.38	1.37	1	pointing	Trial1	pointing/STIM_005.jpg
564.869	1.111	1	pointing	Trial1	pointing/STIM_005.jpg
569.586	1.02	1	pointing	Trial1	pointing/STIM_005.jpg
574.516	1.406	1	pointing	Trial1	pointing/STIM_005.jpg
578.697	1.502	1	pointing	Trial1	pointing/STIM_005.jpg
583.979	1.464	1	pointing	Trial1	pointing/STIM_005.jpg
588.733	1.385	1	pointing	Trial1	pointing/STIM_006.jpg
593.941	1.137	1	pointing	Trial1	pointing/STIM_006.jpg
597.146	1.316	1	pointing	Trial1	pointing/STIM_006.jpg
602.085	1.286	1	pointing	Trial1	pointing/STIM_006.jpg
607.071	1.303	1	pointing	Trial1	pointing/STIM_006.jpg
611.314	1.156	1	pointing	Trial1	pointing/STIM_006.jpg
614.489	1.478	1	pointing	Trial1	pointing/STIM_007.jpg
618.389	1.246	1	pointing	Trial1	pointing/STIM_007.jpg
622.277	1.378	1	pointing	Trial1	pointing/STIM_007.jpg
625.732	1.335	1	pointing	Trial1	pointing/STIM_007.jpg
629.521	1.301	1	pointing	Trial1	pointing/STIM_007.jpg
633.201	1.269	1	pointing	Trial1	pointing/STIM_007.jpg
638.226	1.12	1	pointing	Trial1	pointing/STIM_008.jpg
641.999	0.909	1	pointing	Trial1	pointing/STIM_008.jpg
645.511	0.994	1	pointing	Trial1	pointing/STIM_008.jpg
650.017	1.023	1	pointing	Trial1	pointing/STIM_008.jpg
654.656	1.354	1	pointing	Trial1	pointing/STIM_008.jpg
659.212	1.45	1	pointing	Trial1	pointing/STIM_008.jpg
664.049	0.968	1	pointing	Trial1	pointing/STIM_009.jpg
667.993	1.479	1	pointing	Trial1	pointing/STIM_009.jpg
671.625	1.071	1	pointing	Trial1	pointing/STIM_009.jpg
675.805	1.15	1	pointing	Trial1	pointing/STIM_009.jpg
680.032	0.949	0	pointing	Trial1	pointing/STIM_009.jpg
683.581	1.604	1	pointing	Trial1	pointing/STIM_009.jpg
687.576	1.001	1	pointing	Trial1	pointing/STIM_010.jpg
691.203	1.189	1	pointing	Trial1	pointing/STIM_010.jpg
694.361	1.275	1	pointing	Trial1	pointing/STIM_010.jpg
698.258	1.344	1	pointing	Trial1	pointing/STIM_010.jpg
702.371	1.062	0	pointing	Trial1	pointing/STIM_010.jpg
705.977	1.364	1	pointing	Trial1	pointing/STIM_010.jpg
709.582	1.244	1	pointing	Trial1	pointing/STIM_011.jpg
714.635	1.072	1	pointing	Trial1	pointing/STIM_011.jpg
718.031	1.033	1	pointing	Trial1	pointing/STIM_011.jpg
722.258	0.907	1	pointing	Trial1	pointing/STIM_011.jpg
726.37	1.529	0	pointing	Trial1	pointing/STIM_011.jpg
730.589	1.147	1	pointing	Trial1	pointing/STIM_011.jpg
735.364	1.988	1	navigation	Trial2	navigation/STIM_000.jpg
739.553	2.147	1	navigation	Trial2	navigation/STIM_000.jpg
745.004	3.364	0	navigation	Trial2	navigation/STIM_000.jpg
750.35	2.14	1	navigation	Trial2	navigation/STIM_000.jpg
756.299	2.377	1	navigation	Trial2	navigation/STIM_000.jpg
762.013	3.631	1	navigation	Trial2	navigation/STIM_000.jpg
767.602	4.22	1	navigation	Trial2	navigation/STIM_001.jpg
775.37	4.019	0	navigation	Trial2	navigation/STIM_001.jpg
783.022	3.589	1	navigation	Trial2	navigation/STIM_001.jpg
790.134	1.672	1	navigation	Trial2	navigation/STIM_001.jpg
795.481	1.95	1	navigation	Trial2	navigation/STIM_001.jpg
799.741	2.954	1	navigation	Trial2	navigation/STIM_001.jpg
806.362	2.377	0	navigation	Trial2	navigation/STIM_002.jpg
811.34	4.071	1	navigation	Trial2	navigation/STIM_002.jpg
818.141	3.123	1	navigation	Trial2	navigation/STIM_002.jpg
824.347	2.118	1	navigation	Trial2	navigation/STIM_002.jpg
829.357	2.847	0	navigation	Trial2	navigation/STIM_002.jpg
835.715	1.943	1	navigation	Trial2	navigation/STIM_002.jpg
840.157	3.823	0	navigation	Trial2	navigation/STIM_003.jpg
846.9	3.386	0	navigation	Trial2	navigation/STIM_003.jpg
852.748	2.663	1	navigation	Trial2	navigation/STIM_003.jpg
858.317	3.171	1	navigation	Trial2	navigation/STIM_003.jpg
864.136	2.908	1	navigation	Trial2	navigation/STIM_003.jpg
869.392	3.637	1	navigation	Trial2	navigation/STIM_003.jpg
876.583	2.859	0	navigation	Trial2	navigation/STIM_004.jpg
881.687	3.503	1	navigation	Trial2	navigation/STIM_004.jpg
887.419	2.809	1	navigation	Trial2	navigation/STIM_004.jpg
892.561	1.708	1	navigation	Trial2	navigation/STIM_004.jpg
896.777	2.225	1	navigation	Trial2	navigation/STIM_004.jpg
902.795	2.816	0	navigation	Trial2	navigation/STIM_004.jpg
908.085	3.707	0	navigation	Trial2	navigation/STIM_005.jpg
914.967	3.547	1	navigation	Trial2	navigation/STIM_005.jpg
921.846	2.216	0	navigation	Trial2	navigation/STIM_005.jpg
927.543	3.465	1	navigation	Trial2	navigation/STIM_005.jpg
934.345	1.712	1	navigation	Trial2	navigation/STIM_005.jpg
939.877	1.939	1	navigation	Trial2	navigation/STIM_005.jpg
945.418	4.461	1	navigation	Trial2	navigation/STIM_006.jpg
951.925	3.018	1	navigation	Trial2	navigation/STIM_006.jpg
956.925	3.586	1	navigation	Trial2	navigation/STIM_006.jpg
962.709	3.516	1	navigation	Trial2	navigation/STIM_006.jpg
968.859	2.503	1	navigation	Trial2	navigation/STIM_006.jpg
974.882	2.518	1	navigation	Trial2	navigation/STIM_006.jpg
981.056	1.99	0	navigation	Trial2	navigation/STIM_007.jpg
986.063	4.297	1	navigation	Trial2	navigation/STIM_007.jpg
993.217	2.252	1	navigation	Trial2	navigation/STIM_007.jpg
997.527	1.882	1	navigation	Trial2	navigation/STIM_007.jpg
1002.152	2.536	1	navigation	Trial2	navigation/STIM_007.jpg
1007.336	3.756	1	navigation	Trial2	navigation/STIM_007.jpg
1014.326	4.224	0	navigation	Trial2	navigation/STIM_008.jpg
1021.69	2.386	1	navigation	Trial2	navigation/STIM_008.jpg
1026.112	1.763	1	navigation	Trial2	navigation/STIM_008.jpg
1029.957	2.833	1	navigation	Trial2	navigation/STIM_008.jpg
1035.384	2.12	1	navigation	Trial2	navigation/STIM_008.jpg
1040.063	3.073	1	navigation	Trial2	navigation/STIM_008.jpg
1045.685	2.666	1	navigation	Trial2	navigation/STIM_009.jpg
1052.043	2.427	1	navigation	Trial2	navigation/STIM_009.jpg
1056.606	2.144	1	navigation	Trial2	navigation/STIM_009.jpg
1062.11	2.799	1	navigation	Trial2	navigation/STIM_009.jpg
1068.558	3.368	1	navigation	Trial2	navigation/STIM_009.jpg
1075.59	3.259	1	navigation	Trial2	navigation/STIM_009.jpg
1082.276	3.024	1	navigation	Trial2	navigation/STIM_010.jpg
1088.602	3.173	1	navigation	Trial2	navigation/STIM_010.jpg
1094.051	2.694	1	navigation	Trial2	navigation/STIM_010.jpg
1099.186	3.394	1	navigation	Trial2	navigation/STIM_010.jpg
1104.715	2.323	1	navigation	Trial2	navigation/STIM_010.jpg
1110.195	3.3	1	navigation	Trial2	navigation/STIM_010.jpg
1115.721	3.782	0	navigation	Trial2	navigation/STIM_011.jpg
1121.986	2.845	1	navigation	Trial2	navigation/STIM_011.jpg
1127.497	2.816	1	navigation	Trial2	navigation/STIM_011.jpg
1132.867	3.255	0	navigation	Trial2	navigation/STIM_011.jpg
1138.361	2.187	1	navigation	Trial2	navigation/STIM_011.jpg
1143.942	1.89	1	navigation	Trial2	navigation/STIM_011.jpg
1148.872	0.979	1	pointing	Trial2	pointing/STIM_000.jpg
1152.315	1.438	1	pointing	Trial2	pointing/STIM_000.jpg
1156.958	1.503	1	pointing	Trial2	pointing/STIM_000.jpg
1162.197	1.006	1	pointing	Trial2	pointing/STIM_000.jpg
1167.032	1.28	1	pointing	Trial2	pointing/STIM_000.jpg
1171.939	0.986	1	pointing	Trial2	pointing/STIM_000.jpg
1175.223	1.122	1	pointing	Trial2	pointing/STIM_001.jpg
1179.679	1.006	0	pointing	Trial2	pointing/STIM_001.jpg
1183.359	1.398	1	pointing	Trial2	pointing/STIM_001.jpg
1187.078	1.012	1	pointing	Trial2	pointing/STIM_001.jpg
1190.91	0.896	0	pointing	Trial2	pointing/STIM_001.jpg
1194.52	1.016	1	pointing	Trial2	pointing/STIM_001.jpg
1197.983	0.983	1	pointing	Trial2	pointing/STIM_002.jpg
1201.777	1.03	1	pointing	Trial2	pointing/STIM_002.jpg
1206.389	0.931	1	pointing	Trial2	pointing/STIM_002.jpg
1210.575	1.157	1	pointing	Trial2	pointing/STIM_002.jpg
1214.929	0.93	1	pointing	Trial2	pointing/STIM_002.jpg
1219.242	1.402	1	pointing	Trial2	pointing/STIM_002.jpg
1224.001	1.528	1	pointing	Trial2	pointing/STIM_003.jpg
1229.406	1.119	1	pointing	Trial2	pointing/STIM_003.jpg
1233.046	0.907	1	pointing	Trial2	pointing/STIM_003.jpg
1237.023	0.959	1	pointing	Trial2	pointing/STIM_003.jpg
1241.666	0.944	1	pointing	Trial2	pointing/STIM_003.jpg
1245.032	1.16	1	pointing	Trial2	pointing/STIM_003.jpg
1249.995	1.298	1	pointing	Trial2	pointing/STIM_004.jpg
1253.435	0.995	1	pointing	Trial2	pointing/STIM_004.jpg
1256.522	0.907	1	pointing	Trial2	pointing/STIM_004.jpg
1261.132	1.136	1	pointing	Trial2	pointing/STIM_004.jpg
1266.042	1.391	1	pointing	Trial2	pointing/STIM_004.jpg
1270.744	1.114	1	pointing	Trial2	pointing/STIM_004.jpg
1274.101	0.995	1	pointing	Trial2	pointing/STIM_005.jpg
1277.779	1.267	1	pointing	Trial2	pointing/STIM_005.jpg
1281.514	1.49	1	pointing	Trial2	pointing/STIM_005.jpg
1285.329	1.383	1	pointing	Trial2	pointing/STIM_005.jpg
1289.789	1.277	1	pointing	Trial2	pointing/STIM_005.jpg
1293.37	1.097	1	pointing	Trial2	pointing/STIM_005.jpg
1297.92	1.238	1	pointing	Trial2	pointing/STIM_006.jpg
1302.211	0.903	1	pointing	Trial2	pointing/STIM_006.jpg
1306.271	1.076	1	pointing	Trial2	pointing/STIM_006.jpg
1309.881	0.911	1	pointing	Trial2	pointing/STIM_006.jpg
1312.916	1.581	1	pointing	Trial2	pointing/STIM_006.jpg
1318.037	1.437	1	pointing	Trial2	pointing/STIM_006.jpg
1321.472	1.611	1	pointing	Trial2	pointing/STIM_007.jpg
1325.929	1.393	1	pointing	Trial2	pointing/STIM_007.jpg
1330.387	1.113	0	pointing	Trial2	pointing/STIM_007.jpg
1333.779	1.576	1	pointing	Trial2	pointing/STIM_007.jpg
1339.149	1.46	1	pointing	Trial2	pointing/STIM_007.jpg
1343.425	1.587	1	pointing	Trial2	pointing/STIM_007.jpg
1347.544	1.402	1	pointing	Trial2	pointing/STIM_008.jpg
1352.627	1.568	1	pointing	Trial2	pointing/STIM_008.jpg
1356.741	1.362	1	pointing	Trial2	pointing/STIM_008.jpg
1361.479	0.932	1	pointing	Trial2	pointing/STIM_008.jpg
1366.228	1.429	1	pointing	Trial2	pointing/STIM_008.jpg
1370.316	1.371	1	pointing	Trial2	pointing/STIM_008.jpg
1374.209	0.919	1	pointing	Trial2	pointing/STIM_009.jpg
1378.0	1.509	1	pointing	Trial2	pointing/STIM_009.jpg
1381.646	1.473	1	pointing	Trial2	pointing/STIM_009.jpg
1386.012	1.367	0	pointing	Trial2	pointing/STIM_009.jpg
1389.942	1.001	0	pointing	Trial2	pointing/STIM_009.jpg
1394.778	0.945	1	pointing	Trial2	pointing/STIM_009.jpg
1399.208	1.399	0	pointing	Trial2	pointing/STIM_010.jpg
1402.615	1.105	1	pointing	Trial2	pointing/STIM_010.jpg
1405.775	1.275	1	pointing	Trial2	pointing/STIM_010.jpg
1410.218	1.52	1	pointing	Trial2	pointing/STIM_010.jpg
1414.988	1.012	1	pointing	Trial2	pointing/STIM_010.jpg
1418.415	0.971	1	pointing	Trial2	pointing/STIM_010.jpg
1421.377	1.45	1	pointing	Trial2	pointing/STIM_011.jpg
1425.627	1.188	1	pointing	Trial2	pointing/STIM_011.jpg
1429.098	1.122	1	pointing	Trial2	pointing/STIM_011.jpg
1432.476	1.069	1	pointing	Trial2	pointing/STIM_011.jpg
1435.701	1.143	1	pointing	Trial2	pointing/STIM_011.jpg
1439.964	1.257	1	pointing	Trial2	pointing/STIM_011.jpg
1443.838	1.618	1	navigation	Trial3	navigation/STIM_000.jpg
1448.239	3.357	1	navigation	Trial3	navigation/STIM_000.jpg
1453.833	1.833	1	navigation	Trial3	navigation/STIM_000.jpg
1458.614	1.56	1	navigation	Trial3	navigation/STIM_000.jpg
1464.043	1.976	1	navigation	Trial3	navigation/STIM_000.jpg
1469.57	1.789	1	navigation	Trial3	navigation/STIM_000.jpg
1473.996	3.169	1	navigation	Trial3	navigation/STIM_001.jpg
1480.388	1.75	1	navigation	Trial3	navigation/STIM_001.jpg
1484.441	2.793	1	navigation	Trial3	navigation/STIM_001.jpg
1490.255	1.51	1	navigation	Trial3	navigation/STIM_001.jpg
1494.881	2.055	1	navigation	Trial3	navigation/STIM_001.jpg
1499.888	3.189	1	navigation	Trial3	navigation/STIM_001.jpg
1506.055	3.248	1	navigation	Trial3	navigation/STIM_002.jpg
1511.758	3.4	0	navigation	Trial3	navigation/STIM_002.jpg
1517.353	2.593	1	navigation	Trial3	navigation/STIM_002.jpg
1523.037	2.907	0	navigation	Trial3	navigation/STIM_002.jpg
1528.061	3.138	1	navigation	Trial3	navigation/STIM_002.jpg
1534.743	3.698	1	navigation	Trial3	navigation/STIM_002.jpg
1540.388	3.332	1	navigation	Trial3	navigation/STIM_003.jpg
1546.449	2.441	1	navigation	Trial3	navigation/STIM_003.jpg
1552.615	2.035	1	navigation	Trial3	navigation/STIM_003.jpg
1556.877	3.507	1	navigation	Trial3	navigation/STIM_003.jpg
1563.908	3.338	1	navigation	Trial3	navigation/STIM_003.jpg
1571.013	3.252	1	navigation	Trial3	navigation/STIM_003.jpg
1577.237	2.195	1	navigation	Trial3	navigation/STIM_004.jpg
1582.933	3.561	1	navigation	Trial3	navigation/STIM_004.jpg
1588.984	2.054	1	navigation	Trial3	navigation/STIM_004.jpg
1594.267	1.872	1	navigation	Trial3	navigation/STIM_004.jpg
1598.694	1.904	1	navigation	Trial3	navigation/STIM_004.jpg
1603.285	3.639	1	navigation	Trial3	navigation/STIM_004.jpg
1610.157	3.2	1	navigation	Trial3	navigation/STIM_005.jpg
1615.599	2.3	1	navigation	Trial3	navigation/STIM_005.jpg
1621.594	3.263	1	navigation	Trial3	navigation/STIM_005.jpg
1628.148	3.265	1	navigation	Trial3	navigation/STIM_005.jpg
1633.775	2.186	1	navigation	Trial3	navigation/STIM_005.jpg
1638.093	3.357	1	navigation	Trial3	navigation/STIM_005.jpg
1645.121	2.105	1	navigation	Trial3	navigation/STIM_006.jpg
1649.368	3.679	1	navigation	Trial3	navigation/STIM_006.jpg
1655.906	3.609	1	navigation	Trial3	navigation/STIM_006.jpg
1661.999	3.739	1	navigation	Trial3	navigation/STIM_006.jpg
1667.494	3.07	1	navigation	Trial3	navigation/STIM_006.jpg
1673.419	2.249	1	navigation	Trial3	navigation/STIM_006.jpg
1678.62	3.169	1	navigation	Trial3	navigation/STIM_007.jpg
1684.244	3.064	1	navigation	Trial3	navigation/STIM_007.jpg
1689.769	1.94	1	navigation	Trial3	navigation/STIM_007.jpg
1695.229	2.705	1	navigation	Trial3	navigation/STIM_007.jpg
1700.509	2.6	0	navigation	Trial3	navigation/STIM_007.jpg
1706.038	3.069	1	navigation	Trial3	navigation/STIM_007.jpg
1712.647	3.227	1	navigation	Trial3	navigation/STIM_008.jpg
1718.965	1.788	1	navigation	Trial3	navigation/STIM_008.jpg
1724.417	3.599	1	navigation	Trial3	navigation/STIM_008.jpg
1730.755	2.806	0	navigation	Trial3	navigation/STIM_008.jpg
1737.052	1.583	1	navigation	Trial3	navigation/STIM_008.jpg
1740.781	2.04	0	navigation	Trial3	navigation/STIM_008.jpg
1746.308	3.682	1	navigation	Trial3	navigation/STIM_009.jpg
1752.406	1.781	1	navigation	Trial3	navigation/STIM_009.jpg
1756.353	2.606	1	navigation	Trial3	navigation/STIM_009.jpg
1762.196	1.884	1	navigation	Trial3	navigation/STIM_009.jpg
1766.992	2.126	1	navigation	Trial3	navigation/STIM_009.jpg
1771.076	2.785	1	navigation	Trial3	navigation/STIM_009.jpg
1776.14	1.709	1	navigation	Trial3	navigation/STIM_010.jpg
1779.968	1.82	1	navigation	Trial3	navigation/STIM_010.jpg
1783.885	2.386	1	navigation	Trial3	navigation/STIM_010.jpg
1788.28	3.692	1	navigation	Trial3	navigation/STIM_010.jpg
1794.803	3.09	1	navigation	Trial3	navigation/STIM_010.jpg
1801.477	3.698	1	navigation	Trial3	navigation/STIM_010.jpg
1807.192	3.623	0	navigation	Trial3	navigation/STIM_011.jpg
1813.244	2.054	1	navigation	Trial3	navigation/STIM_011.jpg
1818.075	2.289	1	navigation	Trial3	navigation/STIM_011.jpg
1823.043	1.938	1	navigation	Trial3	navigation/STIM_011.jpg
1828.427	1.921	1	navigation	Trial3	navigation/STIM_011.jpg
1833.5	3.514	1	navigation	Trial3	navigation/STIM_011.jpg
1840.394	0.997	1	pointing	Trial3	pointing/STIM_000.jpg
1843.629	1.532	1	pointing	Trial3	pointing/STIM_000.jpg
1847.507	1.138	1	pointing	Trial3	pointing/STIM_000.jpg
1851.09	0.888	1	pointing	Trial3	pointing/STIM_000.jpg
1854.531	1.142	1	pointing	Trial3	pointing/STIM_000.jpg
1858.171	0.91	1	pointing	Trial3	pointing/STIM_000.jpg
1862.248	1.207	1	pointing	Trial3	pointing/STIM_001.jpg
1865.423	0.888	1	pointing	Trial3	pointing/STIM_001.jpg
1870.148	1.225	1	pointing	Trial3	pointing/STIM_001.jpg
1873.306	1.301	1	pointing	Trial3	pointing/STIM_001.jpg
1878.268	1.23	1	pointing	Trial3	pointing/STIM_001.jpg
1882.526	0.89	1	pointing	Trial3	pointing/STIM_001.jpg
1887.119	1.078	0	pointing	Trial3	pointing/STIM_002.jpg
1891.706	1.526	0	pointing	Trial3	pointing/STIM_002.jpg
1895.315	1.126	1	pointing	Trial3	pointing/STIM_002.jpg
1898.793	0.93	1	pointing	Trial3	pointing/STIM_002.jpg
1902.244	1.108	1	pointing	Trial3	pointing/STIM_002.jpg
1905.844	1.294	1	pointing	Trial3	pointing/STIM_002.jpg
1909.851	1.162	1	pointing	Trial3	pointing/STIM_003.jpg
1914.26	0.897	1	pointing	Trial3	pointing/STIM_003.jpg
1918.609	0.988	1	pointing	Trial3	pointing/STIM_003.jpg
1921.834	1.17	1	pointing	Trial3	pointing/STIM_003.jpg
1926.594	1.535	1	pointing	Trial3	pointing/STIM_003.jpg
1931.582	1.595	1	pointing	Trial3	pointing/STIM_003.jpg
1935.455	1.329	1	pointing	Trial3	pointing/STIM_004.jpg
1940.503	1.054	1	pointing	Trial3	pointing/STIM_004.jpg
1943.609	1.047	1	pointing	Trial3	pointing/STIM_004.jpg
1948.359	1.549	1	pointing	Trial3	pointing/STIM_004.jpg
1953.359	1.06	1	pointing	Trial3	pointing/STIM_004.jpg
1957.734	1.037	1	pointing	Trial3	pointing/STIM_004.jpg
1961.02	0.903	1	pointing	Trial3	pointing/STIM_005.jpg
1965.726	1.172	1	pointing	Trial3	pointing/STIM_005.jpg
1968.845	1.001	1	pointing	Trial3	pointing/STIM_005.jpg
1973.231	1.319	0	pointing	Trial3	pointing/STIM_005.jpg
1977.659	1.214	1	pointing	Trial3	pointing/STIM_005.jpg
1982.044	1.592	1	pointing	Trial3	pointing/STIM_005.jpg
1986.927	0.991	1	pointing	Trial3	pointing/STIM_006.jpg
1990.097	1.353	1	pointing	Trial3	pointing/STIM_006.jpg
1995.26	1.273	1	pointing	Trial3	pointing/STIM_006.jpg
1999.763	1.066	1	pointing	Trial3	pointing/STIM_006.jpg
2004.499	0.882	1	pointing	Trial3	pointing/STIM_006.jpg
2009.281	1.309	1	pointing	Trial3	pointing/STIM_006.jpg
2012.53	1.184	1	pointing	Trial3	pointing/STIM_007.jpg
2016.594	1.361	0	pointing	Trial3	pointing/STIM_007.jpg
2020.996	1.38	1	pointing	Trial3	pointing/STIM_007.jpg
2025.078	0.87	1	pointing	Trial3	pointing/STIM_007.jpg
2028.491	0.974	1	pointing	Trial3	pointing/STIM_007.jpg
2031.712	1.6	1	pointing	Trial3	pointing/STIM_007.jpg
2036.606	1.272	1	pointing	Trial3	pointing/STIM_008.jpg
2041.55	0.863	1	pointing	Trial3	pointing/STIM_008.jpg
2046.19	1.156	1	pointing	Trial3	pointing/STIM_008.jpg
2050.333	1.56	1	pointing	Trial3	pointing/STIM_008.jpg
2054.112	0.874	1	pointing	Trial3	pointing/STIM_008.jpg
2058.364	1.411	0	pointing	Trial3	pointing/STIM_008.jpg
2062.768	1.232	1	pointing	Trial3	pointing/STIM_009.jpg
2067.208	1.42	1	pointing	Trial3	pointing/STIM_009.jpg
2070.644	1.375	1	pointing	Trial3	pointing/STIM_009.jpg
2075.293	1.217	1	pointing	Trial3	pointing/STIM_009.jpg
2079.81	1.175	1	pointing	Trial3	pointing/STIM_009.jpg
2082.929	1.507	1	pointing	Trial3	pointing/STIM_009.jpg
2087.678	1.355	1	pointing	Trial3	pointing/STIM_010.jpg
2092.241	1.491	1	pointing	Trial3	pointing/STIM_010.jpg
2096.356	1.058	1	pointing	Trial3	pointing/STIM_010.jpg
2100.767	1.336	1	pointing	Trial3	pointing/STIM_010.jpg
2104.699	1.383	1	pointing	Trial3	pointing/STIM_010.jpg
2108.515	1.048	1	pointing	Trial3	pointing/STIM_010.jpg
2112.209	1.25	0	pointing	Trial3	pointing/STIM_011.jpg
2116.062	1.488	1	pointing	Trial3	pointing/STIM_011.jpg
2121.398	1.196	1	pointing	Trial3	pointing/STIM_011.jpg
2124.544	1.014	1	pointing	Trial3	pointing/STIM_011.jpg
2128.355	1.576	1	pointing	Trial3	pointing/STIM_011.jpg
2131.997	1.1	1	pointing	Trial3	pointing/STIM_011.jpg
