onset	duration	accuracy	trial_type	learning_stage	stimulus
0.0	4.858	correct	navigation	Trial1	navigation/STIM_000.jpg
7.384	3.955	correct	navigation	Trial1	navigation/STIM_000.jpg
14.919	2.483	correct	navigation	Trial1	navigation/STIM_000.jpg
20.016	4.114	correct	navigation	Trial1	navigation/STIM_000.jpg
26.265	3.7	correct	navigation	Trial1	navigation/STIM_000.jpg
32.343	1.752	incorrect	navigation	Trial1	navigation/STIM_000.jpg
37.237	4.407	correct	navigation	Trial1	navigation/STIM_001.jpg
45.171	4.83	incorrect	navigation	Trial1	navigation/STIM_001.jpg
53.146	2.809	correct	navigation	Trial1	navigation/STIM_001.jpg
59.136	4.549	correct	navigation	Trial1	navigation/STIM_001.jpg
67.615	3.382	correct	navigation	Trial1	navigation/STIM_001.jpg
74.907	3.229	correct	navigation	Trial1	navigation/STIM_001.jpg
81.511	2.385	correct	navigation	Trial1	navigation/STIM_002.jpg
87.353	2.719	incorrect	navigation	Trial1	navigation/STIM_002.jpg
93.718	3.22	incorrect	navigation	Trial1	navigation/STIM_002.jpg
98.967	3.049	correct	navigation	Trial1	navigation/STIM_002.jpg
104.181	3.162	correct	navigation	Trial1	navigation/STIM_002.jpg
110.35	3.129	incorrect	navigation	Trial1	navigation/STIM_002.jpg
117.434	2.567	incorrect	navigation	Trial1	navigation/STIM_003.jpg
122.999	5.32	incorrect	navigation	Trial1	navigation/STIM_003.jpg
132.134	2.979	correct	navigation	Trial1	navigation/STIM_003.jpg
138.997	2.321	correct	navigation	Trial1	navigation/STIM_003.jpg
144.6	2.648	correct	navigation	Trial1	navigation/STIM_003.jpg
149.415	3.468	correct	navigation	Trial1	navigation/STIM_003.jpg
155.734	4.631	incorrect	navigation	Trial1	navigation/STIM_004.jpg
162.786	2.903	correct	navigation	Trial1	navigation/STIM_004.jpg
169.54	3.048	correct	navigation	Trial1	navigation/STIM_004.jpg
176.342	3.226	correct	navigation	Trial1	navigation/STIM_004.jpg
182.307	2.031	correct	navigation	Trial1	navigation/STIM_004.jpg
187.154	2.709	incorrect	navigation	Trial1	navigation/STIM_004.jpg
193.574	4.036	correct	navigation	Trial1	navigation/STIM_005.jpg
200.998	4.431	correct	navigation	Trial1	navigation/STIM_005.jpg
207.992	3.095	correct	navigation	Trial1	navigation/STIM_005.jpg
214.568	3.414	correct	navigation	Trial1	navigation/STIM_005.jpg
220.849	4.116	correct	navigation	Trial1	navigation/STIM_005.jpg
227.367	2.394	correct	navigation	Trial1	navigation/STIM_005.jpg
233.585	2.66	correct	navigation	Trial1	navigation/STIM_006.jpg
239.788	4.578	correct	navigation	Trial1	navigation/STIM_006.jpg
247.241	4.845	correct	navigation	Trial1	navigation/STIM_006.jpg
254.443	3.571	incorrect	navigation	Trial1	navigation/STIM_006.jpg
261.842	3.742	correct	navigation	Trial1	navigation/STIM_006.jpg
269.202	2.048	incorrect	navigation	Trial1	navigation/STIM_006.jpg
275.185	3.171	correct	navigation	Trial1	navigation/STIM_007.jpg
280.948	3.713	correct	navigation	Trial1	navigation/STIM_007.jpg
286.776	2.618	correct	navigation	Trial1	navigation/STIM_007.jpg
292.877	2.012	correct	navigation	Trial1	navigation/STIM_007.jpg
298.707	4.334	correct	navigation	Trial1	navigation/STIM_007.jpg
306.06	1.765	incorrect	navigation	Trial1	navigation/STIM_007.jpg
310.543	3.435	correct	navigation	Trial1	navigation/STIM_008.jpg
316.768	3.891	incorrect	navigation	Trial1	navigation/STIM_008.jpg
322.947	2.833	correct	navigation	Trial1	navigation/STIM_008.jpg
328.233	2.306	correct	navigation	Trial1	navigation/STIM_008.jpg
333.543	1.841	correct	navigation	Trial1	navigation/STIM_008.jpg
337.967	2.146	correct	navigation	Trial1	navigation/STIM_008.jpg
342.94	4.409	correct	navigation	Trial1	navigation/STIM_009.jpg
351.092	3.64	correct	navigation	Trial1	navigation/STIM_009.jpg
356.858	3.665	correct	navigation	Trial1	navigation/STIM_009.jpg
364.445	3.885	correct	navigation	Trial1	navigation/STIM_009.jpg
371.55	3.226	correct	navigation	Trial1	navigation/STIM_009.jpg
377.011	2.265	correct	navigation	Trial1	navigation/STIM_009.jpg
381.924	4.173	correct	navigation	Trial1	navigation/STIM_010.jpg
389.891	3.745	correct	navigation	Trial1	navigation/STIM_010.jpg
397.036	4.311	correct	navigation	Trial1	navigation/STIM_010.jpg
404.597	3.006	incorrect	navigation	Trial1	navigation/STIM_010.jpg
410.766	2.428	incorrect	navigation	Trial1	navigation/STIM_010.jpg
416.17	1.934	correct	navigation	Trial1	navigation/STIM_010.jpg
420.96	4.232	correct	navigation	Trial1	navigation/STIM_011.jpg
428.875	2.412	correct	navigation	Trial1	navigation/STIM_011.jpg
433.718	2.166	incorrect	navigation	Trial1	navigation/STIM_011.jpg
438.368	4.024	correct	navigation	Trial1	navigation/STIM_011.jpg
445.49	2.297	correct	navigation	Trial1	navigation/STIM_011.jpg
451.728	1.956	correct	navigation	Trial1	navigation/STIM_011.jpg
457.448	1.546	correct	pointing	Trial1	pointing/STIM_000.jpg
462.172	1.379	correct	pointing	Trial1	pointing/STIM_000.jpg
466.498	1.674	correct	pointing	Trial1	pointing/STIM_000.jpg
470.739	1.183	correct	pointing	Trial1	pointing/STIM_000.jpg
474.551	1.037	correct	pointing	Trial1	pointing/STIM_000.jpg
478.793	1.222	correct	pointing	Trial1	pointing/STIM_000.jpg
482.763	1.424	incorrect	pointing	Trial1	pointing/STIM_001.jpg
487.853	1.618	correct	pointing	Trial1	pointing/STIM_001.jpg
491.935	1.293	correct	pointing	Trial1	pointing/STIM_001.jpg
497.192	1.399	correct	pointing	Trial1	pointing/STIM_001.jpg
501.217	1.222	correct	pointing	Trial1	pointing/STIM_001.jpg
506.37	0.971	correct	pointing	Trial1	pointing/STIM_001.jpg
511.273	1.468	correct	pointing	Trial1	pointing/STIM_002.jpg
516.627	1.584	correct	pointing	Trial1	pointing/STIM_002.jpg
520.872	1.568	correct	pointing	Trial1	pointing/STIM_002.jpg
526.29	1.459	correct	pointing	Trial1	pointing/STIM_002.jpg
530.581	1.05	correct	pointing	Trial1	pointing/STIM_002.jpg
534.858	0.995	correct	pointing	Trial1	pointing/STIM_002.jpg
538.728	1.151	correct	pointing	Trial1	pointing/STIM_003.jpg
542.704	1.126	correct	pointing	Trial1	pointing/STIM_003.jpg
547.613	1.542	correct	pointing	Trial1	pointing/STIM_003.jpg
552.537	1.672	correct	pointing	Trial1	pointing/STIM_003.jpg
556.467	1.115	correct	pointing	Trial1	pointing/STIM_003.jpg
559.791	0.926	correct	pointing	Trial1	pointing/STIM_003.jpg
562.997	1.0	correct	pointing	Trial1	pointing/STIM_004.jpg
566.64	1.312	correct	pointing	Trial1	pointing/STIM_004.jpg
571.436	1.273	correct	pointing	Trial1	pointing/STIM_004.jpg
575.107	1.224	correct	pointing	Trial1	pointing/STIM_004.jpg
579.659	1.119	correct	pointing	Trial1	pointing/STIM_004.jpg
583.692	0.956	correct	pointing	Trial1	pointing/STIM_004.jpg
587.263	1.618	correct	pointing	Trial1	pointing/STIM_005.jpg
591.644	1.102	correct	pointing	Trial1	pointing/STIM_005.jpg
596.744	0.902	correct	pointing	Trial1	pointing/STIM_005.jpg
600.488	1.258	correct	pointing	Trial1	pointing/STIM_005.jpg
603.773	0.971	correct	pointing	Trial1	pointing/STIM_005.jpg
608.072	1.098	correct	pointing	Trial1	pointing/STIM_005.jpg
611.893	1.61	correct	pointing	Trial1	pointing/STIM_006.jpg
616.124	1.468	correct	pointing	Trial1	pointing/STIM_006.jpg
619.984	1.017	correct	pointing	Trial1	pointing/STIM_006.jpg
624.884	1.582	correct	pointing	Trial1	pointing/STIM_006.jpg
628.821	1.385	correct	pointing	Trial1	pointing/STIM_006.jpg
632.361	0.96	correct	pointing	Trial1	pointing/STIM_006.jpg
635.681	1.097	correct	pointing	Trial1	pointing/STIM_007.jpg
639.831	1.295	correct	pointing	Trial1	pointing/STIM_007.jpg
643.127	1.636	correct	pointing	Trial1	pointing/STIM_007.jpg
647.858	1.441	correct	pointing	Trial1	pointing/STIM_007.jpg
652.479	1.354	correct	pointing	Trial1	pointing/STIM_007.jpg
656.974	1.586	correct	pointing	Trial1	pointing/STIM_007.jpg
661.525	1.587	correct	pointing	Trial1	pointing/STIM_008.jpg
665.311	1.332	correct	pointing	Trial1	pointing/STIM_008.jpg
670.23	1.232	correct	pointing	Trial1	pointing/STIM_008.jpg
673.594	1.251	correct	pointing	Trial1	pointing/STIM_008.jpg
677.858	0.939	correct	pointing	Trial1	pointing/STIM_008.jpg
681.052	1.684	correct	pointing	Trial1	pointing/STIM_008.jpg
684.859	1.579	correct	pointing	Trial1	pointing/STIM_009.jpg
689.613	1.475	correct	pointing	Trial1	pointing/STIM_009.jpg
693.788	1.474	correct	pointing	Trial1	pointing/STIM_009.jpg
697.279	0.98	correct	pointing	Trial1	pointing/STIM_009.jpg
701.225	1.08	incorrect	pointing	Trial1	pointing/STIM_009.jpg
705.964	1.168	correct	pointing	Trial1	pointing/STIM_009.jpg
710.462	1.502	correct	pointing	Trial1	pointing/STIM_010.jpg
714.643	1.562	correct	pointing	Trial1	pointing/STIM_010.jpg
718.494	1.433	correct	pointing	Trial1	pointing/STIM_010.jpg
722.049	1.502	correct	pointing	Trial1	pointing/STIM_010.jpg
726.082	1.477	correct	pointing	Trial1	pointing/STIM_010.jpg
731.046	0.997	correct	pointing	Trial1	pointing/STIM_010.jpg
734.116	1.452	correct	pointing	Trial1	pointing/STIM_011.jpg
738.119	1.391	correct	pointing	Trial1	pointing/STIM_011.jpg
742.902	1.375	correct	pointing	Trial1	pointing/STIM_011.jpg
746.705	1.276	correct	pointing	Trial1	pointing/STIM_011.jpg
750.592	1.237	correct	pointing	Trial1	pointing/STIM_011.jpg
755.688	1.333	correct	pointing	Trial1	pointing/STIM_011.jpg
760.117	2.314	incorrect	navigation	Trial2	navigation/STIM_000.jpg
764.83	3.896	correct	navigation	Trial2	navigation/STIM_000.jpg
772.392	3.249	incorrect	navigation	Trial2	navigation/STIM_000.jpg
778.958	3.873	correct	navigation	Trial2	navigation/STIM_000.jpg
785.83	3.317	correct	navigation	Trial2	navigation/STIM_000.jpg
792.233	2.894	correct	navigation	Trial2	navigation/STIM_000.jpg
797.985	3.18	correct	navigation	Trial2	navigation/STIM_001.jpg
804.492	3.003	correct	navigation	Trial2	navigation/STIM_001.jpg
810.509	3.736	correct	navigation	Trial2	navigation/STIM_001.jpg
817.566	2.658	correct	navigation	Trial2	navigation/STIM_001.jpg
822.265	2.36	correct	navigation	Trial2	navigation/STIM_001.jpg
827.829	3.606	correct	navigation	Trial2	navigation/STIM_001.jpg
833.66	4.171	incorrect	navigation	Trial2	navigation/STIM_002.jpg
839.988	2.316	correct	navigation	Trial2	navigation/STIM_002.jpg
846.176	2.096	correct	navigation	Trial2	navigation/STIM_002.jpg
851.181	3.785	correct	navigation	Trial2	navigation/STIM_002.jpg
857.819	2.079	correct	navigation	Trial2	navigation/STIM_002.jpg
862.296	3.514	correct	navigation	Trial2	navigation/STIM_002.jpg
869.544	3.1	incorrect	navigation	Trial2	navigation/STIM_003.jpg
874.919	3.073	correct	navigation	Trial2	navigation/STIM_003.jpg
880.839	3.685	correct	navigation	Trial2	navigation/STIM_003.jpg
888.51	3.049	correct	navigation	Trial2	navigation/STIM_003.jpg
893.964	2.285	correct	navigation	Trial2	navigation/STIM_003.jpg
899.982	2.597	correct	navigation	Trial2	navigation/STIM_003.jpg
906.544	3.49	incorrect	navigation	Trial2	navigation/STIM_004.jpg
912.601	4.472	correct	navigation	Trial2	navigation/STIM_004.jpg
919.602	3.219	correct	navigation	Trial2	navigation/STIM_004.jpg
925.868	2.421	correct	navigation	Trial2	navigation/STIM_004.jpg
930.979	2.098	correct	navigation	Trial2	navigation/STIM_004.jpg
936.619	2.871	incorrect	navigation	Trial2	navigation/STIM_004.jpg
942.028	3.039	incorrect	navigation	Trial2	navigation/STIM_005.jpg
947.246	2.427	correct	navigation	Trial2	navigation/STIM_005.jpg
952.224	3.443	incorrect	navigation	Trial2	navigation/STIM_005.jpg
958.984	2.001	correct	navigation	Trial2	navigation/STIM_005.jpg
963.814	2.946	correct	navigation	Trial2	navigation/STIM_005.jpg
969.414	3.613	correct	navigation	Trial2	navigation/STIM_005.jpg
976.594	4.619	correct	navigation	Trial2	navigation/STIM_006.jpg
985.144	2.135	correct	navigation	Trial2	navigation/STIM_006.jpg
990.288	1.798	incorrect	navigation	Trial2	navigation/STIM_006.jpg
995.243	3.419	correct	navigation	Trial2	navigation/STIM_006.jpg
1001.593	2.92	correct	navigation	Trial2	navigation/STIM_006.jpg
1008.442	1.733	correct	navigation	Trial2	navigation/STIM_006.jpg
1013.96	3.37	incorrect	navigation	Trial2	navigation/STIM_007.jpg
1020.698	2.403	correct	navigation	Trial2	navigation/STIM_007.jpg
1026.93	1.725	correct	navigation	Trial2	navigation/STIM_007.jpg
1031.773	3.48	correct	navigation	Trial2	navigation/STIM_007.jpg
1037.601	2.984	correct	navigation	Trial2	navigation/STIM_007.jpg
1044.035	2.278	correct	navigation	Trial2	navigation/STIM_007.jpg
1049.352	4.37	incorrect	navigation	Trial2	navigation/STIM_008.jpg
1056.073	2.878	correct	navigation	Trial2	navigation/STIM_008.jpg
1062.778	3.849	correct	navigation	Trial2	navigation/STIM_008.jpg
1069.349	2.668	correct	navigation	Trial2	navigation/STIM_008.jpg
1074.474	3.343	correct	navigation	Trial2	navigation/STIM_008.jpg
1081.383	1.826	correct	navigation	Trial2	navigation/STIM_008.jpg
1085.792	2.747	correct	navigation	Trial2	navigation/STIM_009.jpg
1091.309	3.266	correct	navigation	Trial2	navigation/STIM_009.jpg
1098.129	2.908	correct	navigation	Trial2	navigation/STIM_009.jpg
1104.721	3.04	correct	navigation	Trial2	navigation/STIM_009.jpg
1110.089	2.029	correct	navigation	Trial2	navigation/STIM_009.jpg
1115.047	3.91	correct	navigation	Trial2	navigation/STIM_009.jpg
1121.239	2.283	correct	navigation	Trial2	navigation/STIM_010.jpg
1125.601	3.898	correct	navigation	Trial2	navigation/STIM_010.jpg
1132.002	2.456	correct	navigation	Trial2	navigation/STIM_010.jpg
1137.206	3.612	correct	navigation	Trial2	navigation/STIM_010.jpg
1143.34	1.994	correct	navigation	Trial2	navigation/STIM_010.jpg
1149.134	3.567	correct	navigation	Trial2	navigation/STIM_010.jpg
1155.05	3.845	incorrect	navigation	Trial2	navigation/STIM_011.jpg
1161.092	2.478	correct	navigation	Trial2	navigation/STIM_011.jpg
1165.763	3.434	correct	navigation	Trial2	navigation/STIM_011.jpg
1171.953	2.198	incorrect	navigation	Trial2	navigation/STIM_011.jpg
1177.326	3.914	incorrect	navigation	Trial2	navigation/STIM_011.jpg
1184.042	1.753	correct	navigation	Trial2	navigation/STIM_011.jpg
1188.904	1.353	correct	pointing	Trial2	pointing/STIM_000.jpg
1193.122	1.168	correct	pointing	Trial2	pointing/STIM_000.jpg
1197.204	1.324	correct	pointing	Trial2	pointing/STIM_000.jpg
1200.881	1.666	correct	pointing	Trial2	pointing/STIM_000.jpg
1205.84	1.171	correct	pointing	Trial2	pointing/STIM_000.jpg
1210.267	1.276	correct	pointing	Trial2	pointing/STIM_000.jpg
1213.901	1.542	correct	pointing	Trial2	pointing/STIM_001.jpg
1217.46	1.201	incorrect	pointing	Trial2	pointing/STIM_001.jpg
1221.409	1.14	correct	pointing	Trial2	pointing/STIM_001.jpg
1225.734	1.134	correct	pointing	Trial2	pointing/STIM_001.jpg
1230.483	0.922	incorrect	pointing	Trial2	pointing/STIM_001.jpg
1235.16	1.584	correct	pointing	Trial2	pointing/STIM_001.jpg
1239.987	1.483	correct	pointing	Trial2	pointing/STIM_002.jpg
1245.41	1.651	correct	pointing	Trial2	pointing/STIM_002.jpg
1250.857	1.506	correct	pointing	Trial2	pointing/STIM_002.jpg
1255.434	1.616	correct	pointing	Trial2	pointing/STIM_002.jpg
1259.705	1.362	correct	pointing	Trial2	pointing/STIM_002.jpg
1264.868	1.229	correct	pointing	Trial2	pointing/STIM_002.jpg
1269.757	0.924	correct	pointing	Trial2	pointing/STIM_003.jpg
1273.709	1.453	correct	pointing	Trial2	pointing/STIM_003.jpg
1277.954	1.635	incorrect	pointing	Trial2	pointing/STIM_003.jpg
1282.253	1.038	correct	pointing	Trial2	pointing/STIM_003.jpg
1286.646	1.27	correct	pointing	Trial2	pointing/STIM_003.jpg
1290.758	1.153	correct	pointing	Trial2	pointing/STIM_003.jpg
1295.53	1.064	correct	pointing	Trial2	pointing/STIM_004.jpg
1300.148	1.426	correct	pointing	Trial2	pointing/STIM_004.jpg
1304.426	1.585	correct	pointing	Trial2	pointing/STIM_004.jpg
1308.825	1.178	correct	pointing	Trial2	pointing/STIM_004.jpg
1313.151	1.296	correct	pointing	Trial2	pointing/STIM_004.jpg
1317.294	1.409	correct	pointing	Trial2	pointing/STIM_004.jpg
1322.012	1.685	correct	pointing	Trial2	pointing/STIM_005.jpg
1326.243	1.617	correct	pointing	Trial2	pointing/STIM_005.jpg
1329.986	0.945	correct	pointing	Trial2	pointing/STIM_005.jpg
1333.572	1.127	correct	pointing	Trial2	pointing/STIM_005.jpg
1337.311	1.645	correct	pointing	Trial2	pointing/STIM_005.jpg
1341.888	1.467	correct	pointing	Trial2	pointing/STIM_005.jpg
1346.153	1.615	correct	pointing	Trial2	pointing/STIM_006.jpg
1350.117	1.596	correct	pointing	Trial2	pointing/STIM_006.jpg
1354.116	1.365	correct	pointing	Trial2	pointing/STIM_006.jpg
1357.989	1.571	correct	pointing	Trial2	pointing/STIM_006.jpg
1362.267	1.387	correct	pointing	Trial2	pointing/STIM_006.jpg
1366.857	1.183	correct	pointing	Trial2	pointing/STIM_006.jpg
1371.618	1.482	correct	pointing	Trial2	pointing/STIM_007.jpg
1376.871	1.484	correct	pointing	Trial2	pointing/STIM_007.jpg
1381.961	1.545	incorrect	pointing	Trial2	pointing/STIM_007.jpg
1386.09	1.216	correct	pointing	Trial2	pointing/STIM_007.jpg
1390.306	1.536	correct	pointing	Trial2	pointing/STIM_007.jpg
1394.371	1.473	correct	pointing	Trial2	pointing/STIM_007.jpg
1399.345	1.669	correct	pointing	Trial2	pointing/STIM_008.jpg
1403.8	1.65	correct	pointing	Trial2	pointing/STIM_008.jpg
1408.294	0.975	correct	pointing	Trial2	pointing/STIM_008.jpg
1412.759	1.151	correct	pointing	Trial2	pointing/STIM_008.jpg
1416.306	1.134	correct	pointing	Trial2	pointing/STIM_008.jpg
1419.986	1.464	correct	pointing	Trial2	pointing/STIM_008.jpg
1425.095	1.239	correct	pointing	Trial2	pointing/STIM_009.jpg
1428.446	0.93	correct	pointing	Trial2	pointing/STIM_009.jpg
1431.628	1.373	correct	pointing	Trial2	pointing/STIM_009.jpg
1436.063	1.51	correct	pointing	Trial2	pointing/STIM_009.jpg
1441.244	1.585	incorrect	pointing	Trial2	pointing/STIM_009.jpg
1446.539	1.495	correct	pointing	Trial2	pointing/STIM_009.jpg
1451.933	0.947	incorrect	pointing	Trial2	pointing/STIM_010.jpg
1455.372	1.655	correct	pointing	Trial2	pointing/STIM_010.jpg
1459.889	1.283	correct	pointing	Trial2	pointing/STIM_010.jpg
1464.0	1.589	correct	pointing	Trial2	pointing/STIM_010.jpg
1468.18	1.419	correct	pointing	Trial2	pointing/STIM_010.jpg
1473.052	0.972	correct	pointing	Trial2	pointing/STIM_010.jpg
1477.288	1.585	correct	pointing	Trial2	pointing/STIM_011.jpg
1482.273	1.394	correct	pointing	Trial2	pointing/STIM_011.jpg
1486.438	0.929	correct	pointing	Trial2	pointing/STIM_011.jpg
1489.77	1.139	correct	pointing	Trial2	pointing/STIM_011.jpg
1494.112	1.401	correct	pointing	Trial2	pointing/STIM_011.jpg
1498.232	1.688	correct	pointing	Trial2	pointing/STIM_011.jpg
1502.0	2.498	correct	navigation	Trial3	navigation/STIM_000.jpg
1507.67	1.881	correct	navigation	Trial3	navigation/STIM_000.jpg
1511.812	1.784	correct	navigation	Trial3	navigation/STIM_000.jpg
1517.01	2.215	correct	navigation	Trial3	navigation/STIM_000.jpg
1521.775	3.188	correct	navigation	Trial3	navigation/STIM_000.jpg
1528.873	3.485	correct	navigation	Trial3	navigation/STIM_000.jpg
1535.474	2.899	correct	navigation	Trial3	navigation/STIM_001.jpg
1542.18	3.736	correct	navigation	Trial3	navigation/STIM_001.jpg
1549.253	2.732	correct	navigation	Trial3	navigation/STIM_001.jpg
1555.342	2.074	correct	navigation	Trial3	navigation/STIM_001.jpg
1561.181	3.719	correct	navigation	Trial3	navigation/STIM_001.jpg
1567.134	3.379	correct	navigation	Trial3	navigation/STIM_001.jpg
1573.439	2.277	correct	navigation	Trial3	navigation/STIM_002.jpg
1578.284	2.971	incorrect	navigation	Trial3	navigation/STIM_002.jpg
1584.482	2.496	correct	navigation	Trial3	navigation/STIM_002.jpg
1589.736	1.676	correct	navigation	Trial3	navigation/STIM_002.jpg
1593.626	3.161	correct	navigation	Trial3	navigation/STIM_002.jpg
1600.583	3.601	correct	navigation	Trial3	navigation/STIM_002.jpg
1608.024	3.187	correct	navigation	Trial3	navigation/STIM_003.jpg
1615.149	2.733	correct	navigation	Trial3	navigation/STIM_003.jpg
1620.024	2.619	incorrect	navigation	Trial3	navigation/STIM_003.jpg
1625.635	2.642	correct	navigation	Trial3	navigation/STIM_003.jpg
1630.702	3.106	correct	navigation	Trial3	navigation/STIM_003.jpg
1637.281	3.716	correct	navigation	Trial3	navigation/STIM_003.jpg
1643.979	2.081	correct	navigation	Trial3	navigation/STIM_004.jpg
1649.715	3.332	correct	navigation	Trial3	navigation/STIM_004.jpg
1655.812	1.641	correct	navigation	Trial3	navigation/STIM_004.jpg
1661.068	2.069	correct	navigation	Trial3	navigation/STIM_004.jpg
1666.437	3.226	correct	navigation	Trial3	navigation/STIM_004.jpg
1673.528	1.89	correct	navigation	Trial3	navigation/STIM_004.jpg
1678.539	1.883	correct	navigation	Trial3	navigation/STIM_005.jpg
1683.089	2.456	correct	navigation	Trial3	navigation/STIM_005.jpg
1688.267	3.615	correct	navigation	Trial3	navigation/STIM_005.jpg
1694.812	2.203	correct	navigation	Trial3	navigation/STIM_005.jpg
1700.401	3.164	correct	navigation	Trial3	navigation/STIM_005.jpg
1707.336	3.085	correct	navigation	Trial3	navigation/STIM_005.jpg
1713.504	2.058	correct	navigation	Trial3	navigation/STIM_006.jpg
1718.766	1.902	correct	navigation	Trial3	navigation/STIM_006.jpg
1723.794	3.437	correct	navigation	Trial3	navigation/STIM_006.jpg
1730.059	2.841	correct	navigation	Trial3	navigation/STIM_006.jpg
1736.661	2.364	correct	navigation	Trial3	navigation/STIM_006.jpg
1742.562	2.308	correct	navigation	Trial3	navigation/STIM_006.jpg
1748.328	1.93	correct	navigation	Trial3	navigation/STIM_007.jpg
1753.066	2.0	correct	navigation	Trial3	navigation/STIM_007.jpg
1758.876	2.451	correct	navigation	Trial3	navigation/STIM_007.jpg
1764.366	2.365	correct	navigation	Trial3	navigation/STIM_007.jpg
1768.968	3.146	correct	navigation	Trial3	navigation/STIM_007.jpg
1774.552	2.911	correct	navigation	Trial3	navigation/STIM_007.jpg
1780.222	2.377	correct	navigation	Trial3	navigation/STIM_008.jpg
1785.237	2.33	correct	navigation	Trial3	navigation/STIM_008.jpg
1790.526	1.888	correct	navigation	Trial3	navigation/STIM_008.jpg
1796.31	3.916	incorrect	navigation	Trial3	navigation/STIM_008.jpg
1803.58	3.71	correct	navigation	Trial3	navigation/STIM_008.jpg
1809.622	3.006	correct	navigation	Trial3	navigation/STIM_008.jpg
1814.645	2.703	correct	navigation	Trial3	navigation/STIM_009.jpg
1819.684	2.203	correct	navigation	Trial3	navigation/STIM_009.jpg
1824.332	1.764	correct	navigation	Trial3	navigation/STIM_009.jpg
1828.99	3.021	correct	navigation	Trial3	navigation/STIM_009.jpg
1835.932	2.662	correct	navigation	Trial3	navigation/STIM_009.jpg
1841.702	1.816	incorrect	navigation	Trial3	navigation/STIM_009.jpg
1846.847	3.487	correct	navigation	Trial3	navigation/STIM_010.jpg
1852.574	3.721	correct	navigation	Trial3	navigation/STIM_010.jpg
1859.843	3.104	correct	navigation	Trial3	navigation/STIM_010.jpg
1866.13	2.589	correct	navigation	Trial3	navigation/STIM_010.jpg
1871.145	2.124	correct	navigation	Trial3	navigation/STIM_010.jpg
1875.309	2.061	correct	navigation	Trial3	navigation/STIM_010.jpg
1879.565	1.883	correct	navigation	Trial3	navigation/STIM_011.jpg
1884.07	2.811	correct	navigation	Trial3	navigation/STIM_011.jpg
1890.668	1.624	correct	navigation	Trial3	navigation/STIM_011.jpg
1894.93	3.893	correct	navigation	Trial3	navigation/STIM_011.jpg
1901.78	3.815	correct	navigation	Trial3	navigation/STIM_011.jpg
1909.466	2.065	correct	navigation	Trial3	navigation/STIM_011.jpg
1914.531	1.516	correct	pointing	Trial3	pointing/STIM_000.jpg
1919.75	1.037	correct	pointing	Trial3	pointing/STIM_000.jpg
1923.162	1.158	correct	pointing	Trial3	pointing/STIM_000.jpg
1927.867	1.506	correct	pointing	Trial3	pointing/STIM_000.jpg
1931.436	1.226	correct	pointing	Trial3	pointing/STIM_000.jpg
1935.705	0.954	correct	pointing	Trial3	pointing/STIM_000.jpg
1939.097	1.408	correct	pointing	Trial3	pointing/STIM_001.jpg
1942.987	0.96	correct	pointing	Trial3	pointing/STIM_001.jpg
1947.889	1.008	correct	pointing	Trial3	pointing/STIM_001.jpg
1951.039	1.228	correct	pointing	Trial3	pointing/STIM_001.jpg
1956.176	1.113	correct	pointing	Trial3	pointing/STIM_001.jpg
1960.625	1.519	correct	pointing	Trial3	pointing/STIM_001.jpg
1964.773	1.53	incorrect	pointing	Trial3	pointing/STIM_002.jpg
1969.117	1.438	correct	pointing	Trial3	pointing/STIM_002.jpg
1973.061	1.147	correct	pointing	Trial3	pointing/STIM_002.jpg
1977.469	0.938	correct	pointing	Trial3	pointing/STIM_002.jpg
1981.623	1.599	correct	pointing	Trial3	pointing/STIM_002.jpg
1985.815	0.997	correct	pointing	Trial3	pointing/STIM_002.jpg
1990.114	1.507	correct	pointing	Trial3	pointing/STIM_003.jpg
1995.108	0.939	correct	pointing	Trial3	pointing/STIM_003.jpg
1998.88	1.413	correct	pointing	Trial3	pointing/STIM_003.jpg
2003.142	1.346	correct	pointing	Trial3	pointing/STIM_003.jpg
2007.263	1.252	correct	pointing	Trial3	pointing/STIM_003.jpg
2011.922	1.674	correct	pointing	Trial3	pointing/STIM_003.jpg
2016.279	1.426	correct	pointing	Trial3	pointing/STIM_004.jpg
2021.198	1.484	correct	pointing	Trial3	pointing/STIM_004.jpg
2025.428	1.005	correct	pointing	Trial3	pointing/STIM_004.jpg
2028.691	0.975	correct	pointing	Trial3	pointing/STIM_004.jpg
2032.706	1.625	correct	pointing	Trial3	pointing/STIM_004.jpg
2037.569	0.926	correct	pointing	Trial3	pointing/STIM_004.jpg
2040.562	1.322	correct	pointing	Trial3	pointing/STIM_005.jpg
2044.046	1.394	correct	pointing	Trial3	pointing/STIM_005.jpg
2047.608	1.469	correct	pointing	Trial3	pointing/STIM_005.jpg
2051.4	1.59	correct	pointing	Trial3	pointing/STIM_005.jpg
2056.925	1.002	correct	pointing	Trial3	pointing/STIM_005.jpg
2061.472	1.245	correct	pointing	Trial3	pointing/STIM_005.jpg
2066.174	1.427	correct	pointing	Trial3	pointing/STIM_006.jpg
2069.823	1.406	correct	pointing	Trial3	pointing/STIM_006.jpg
2074.939	1.117	correct	pointing	Trial3	pointing/STIM_006.jpg
2079.008	1.44	correct	pointing	Trial3	pointing/STIM_006.jpg
2084.023	1.033	correct	pointing	Trial3	pointing/STIM_006.jpg
2087.548	1.59	correct	pointing	Trial3	pointing/STIM_006.jpg
2092.893	1.675	correct	pointing	Trial3	pointing/STIM_007.jpg
2097.653	1.518	correct	pointing	Trial3	pointing/STIM_007.jpg
2102.217	1.604	correct	pointing	Trial3	pointing/STIM_007.jpg
2106.282	1.392	correct	pointing	Trial3	pointing/STIM_007.jpg
2111.089	1.222	correct	pointing	Trial3	pointing/STIM_007.jpg
2114.598	1.046	correct	pointing	Trial3	pointing/STIM_007.jpg
2118.706	1.134	correct	pointing	Trial3	pointing/STIM_008.jpg
2122.335	1.141	correct	pointing	Trial3	pointing/STIM_008.jpg
2127.352	0.952	correct	pointing	Trial3	pointing/STIM_008.jpg
2131.943	1.598	correct	pointing	Trial3	pointing/STIM_008.jpg
2136.311	1.321	correct	pointing	Trial3	pointing/STIM_008.jpg
2141.502	1.183	correct	pointing	Trial3	pointing/STIM_008.jpg
2145.032	1.622	correct	pointing	Trial3	pointing/STIM_009.jpg
2149.791	1.673	correct	pointing	Trial3	pointing/STIM_009.jpg
2154.549	1.503	correct	pointing	Trial3	pointing/STIM_009.jpg
2158.951	1.508	correct	pointing	Trial3	pointing/STIM_009.jpg
2163.699	1.553	correct	pointing	Trial3	pointing/STIM_009.jpg
2168.396	1.525	correct	pointing	Trial3	pointing/STIM_009.jpg
2172.905	1.632	correct	pointing	Trial3	pointing/STIM_010.jpg
2176.629	1.152	correct	pointing	Trial3	pointing/STIM_010.jpg
2181.494	1.642	correct	pointing	Trial3	pointing/STIM_010.jpg
2185.198	1.154	correct	pointing	Trial3	pointing/STIM_010.jpg
2188.862	1.679	correct	pointing	Trial3	pointing/STIM_010.jpg
2193.504	1.04	correct	pointing	Trial3	pointing/STIM_010.jpg
2196.717	0.951	incorrect	pointing	Trial3	pointing/STIM_011.jpg
2200.005	0.937	correct	pointing	Trial3	pointing/STIM_011.jpg
2204.645	1.049	correct	pointing	Trial3	pointing/STIM_011.jpg
2208.975	1.438	correct	pointing	Trial3	pointing/STIM_011.jpg
2213.482	1.539	correct	pointing	Trial3	pointing/STIM_011.jpg
2217.45	1.686	correct	pointing	Trial3	pointing/STIM_011.jpg
