onset	duration	response_time_ms	trial_type	learning_stage	stimulus	response_port
0.0	2.805	2805.0	navigation	Trial1	navigation/STIM_000.jpg	100
6.243	3.701	3701.1	navigation	Trial1	navigation/STIM_000.jpg	100
12.762	2.434	2434.2	navigation	Trial1	navigation/STIM_000.jpg	100
17.865	2.04	2040.0	navigation	Trial1	navigation/STIM_000.jpg	100
22.445	3.076	3076.1	navigation	Trial1	navigation/STIM_000.jpg	100
27.787	2.216	2215.6	navigation	Trial1	navigation/STIM_000.jpg	99
32.141	3.935	3935.4	navigation	Trial1	navigation/STIM_001.jpg	100
37.942	2.22	2219.9	navigation	Trial1	navigation/STIM_001.jpg	100
43.666	3.814	3813.8	navigation	Trial1	navigation/STIM_001.jpg	100
49.825	3.856	3856.0	navigation	Trial1	navigation/STIM_001.jpg	100
56.941	3.815	3814.7	navigation	Trial1	navigation/STIM_001.jpg	100
63.875	1.787	1786.7	navigation	Trial1	navigation/STIM_001.jpg	100
67.995	3.942	3942.5	navigation	Trial1	navigation/STIM_002.jpg	100
74.999	4.201	4200.8	navigation	Trial1	navigation/STIM_002.jpg	99
81.092	3.708	3708.4	navigation	Trial1	navigation/STIM_002.jpg	100
87.01	4.42	4420.2	navigation	Trial1	navigation/STIM_002.jpg	99
94.937	2.819	2819.1	navigation	Trial1	navigation/STIM_002.jpg	100
100.918	1.872	1872.5	navigation	Trial1	navigation/STIM_002.jpg	100
106.358	2.277	2276.7	navigation	Trial1	navigation/STIM_003.jpg	100
111.841	4.471	4471.4	navigation	Trial1	navigation/STIM_003.jpg	99
119.897	3.762	3762.3	navigation	Trial1	navigation/STIM_003.jpg	99
126.333	3.433	3432.6	navigation	Trial1	navigation/STIM_003.jpg	100
133.265	1.932	1931.9	navigation	Trial1	navigation/STIM_003.jpg	100
138.743	3.619	3618.7	navigation	Trial1	navigation/STIM_003.jpg	100
144.379	4.252	4252.5	navigation	Trial1	navigation/STIM_004.jpg	100
150.448	3.156	3156.4	navigation	Trial1	navigation/STIM_004.jpg	100
155.665	4.408	4407.5	navigation	Trial1	navigation/STIM_004.jpg	99
163.17	2.683	2683.1	navigation	Trial1	navigation/STIM_004.jpg	100
167.869	3.363	3363.2	navigation	Trial1	navigation/STIM_004.jpg	100
173.672	2.107	2106.9	navigation	Trial1	navigation/STIM_004.jpg	100
178.245	2.796	2796.3	navigation	Trial1	navigation/STIM_005.jpg	100
183.024	4.471	4470.8	navigation	Trial1	navigation/STIM_005.jpg	99
190.776	4.476	4475.8	navigation	Trial1	navigation/STIM_005.jpg	99
197.276	3.271	3271.0	navigation	Trial1	navigation/STIM_005.jpg	100
203.505	3.564	3563.8	navigation	Trial1	navigation/STIM_005.jpg	100
208.938	1.762	1761.8	navigation	Trial1	navigation/STIM_005.jpg	100
214.124	4.471	4471.1	navigation	Trial1	navigation/STIM_006.jpg	99
221.447	4.472	4472.0	navigation	Trial1	navigation/STIM_006.jpg	99
228.608	3.421	3421.1	navigation	Trial1	navigation/STIM_006.jpg	100
235.11	1.962	1961.7	navigation	Trial1	navigation/STIM_006.jpg	99
239.617	3.531	3530.6	navigation	Trial1	navigation/STIM_006.jpg	99
246.86	3.604	3604.4	navigation	Trial1	navigation/STIM_006.jpg	99
253.089	3.973	3973.3	navigation	Trial1	navigation/STIM_007.jpg	100
260.322	4.474	4474.4	navigation	Trial1	navigation/STIM_007.jpg	100
266.772	3.848	3847.7	navigation	Trial1	navigation/STIM_007.jpg	100
273.001	3.058	3057.7	navigation	Trial1	navigation/STIM_007.jpg	100
278.711	2.261	2261.1	navigation	Trial1	navigation/STIM_007.jpg	99
283.554	4.005	4005.2	navigation	Trial1	navigation/STIM_007.jpg	100
291.049	3.914	3913.7	navigation	Trial1	navigation/STIM_008.jpg	100
298.457	2.663	2663.2	navigation	Trial1	navigation/STIM_008.jpg	99
303.054	3.724	3723.5	navigation	Trial1	navigation/STIM_008.jpg	99
310.101	2.776	2776.0	navigation	Trial1	navigation/STIM_008.jpg	100
314.707	3.011	3011.4	navigation	Trial1	navigation/STIM_008.jpg	100
321.031	3.375	3374.8	navigation	Trial1	navigation/STIM_008.jpg	100
327.836	5.132	5132.3	navigation	Trial1	navigation/STIM_009.jpg	99
335.659	4.783	4783.1	navigation	Trial1	navigation/STIM_009.jpg	100
343.991	2.746	2745.6	navigation	Trial1	navigation/STIM_009.jpg	100
348.845	2.455	2455.1	navigation	Trial1	navigation/STIM_009.jpg	100
354.387	2.662	2662.1	navigation	Trial1	navigation/STIM_009.jpg	100
360.461	1.882	1882.4	navigation	Trial1	navigation/STIM_009.jpg	99
365.715	4.52	4519.6	navigation	Trial1	navigation/STIM_010.jpg	99
373.547	2.372	2372.3	navigation	Trial1	navigation/STIM_010.jpg	100
378.338	4.554	4553.8	navigation	Trial1	navigation/STIM_010.jpg	99
386.231	4.547	4546.9	navigation	Trial1	navigation/STIM_010.jpg	100
393.004	2.36	2359.6	navigation	Trial1	navigation/STIM_010.jpg	100
397.667	1.648	1647.8	navigation	Trial1	navigation/STIM_010.jpg	99
403.019	4.476	4476.0	navigation	Trial1	navigation/STIM_011.jpg	99
410.246	2.295	2294.6	navigation	Trial1	navigation/STIM_011.jpg	100
415.649	2.345	2345.1	navigation	Trial1	navigation/STIM_011.jpg	100
420.206	2.52	2520.5	navigation	Trial1	navigation/STIM_011.jpg	99
425.255	2.88	2879.5	navigation	Trial1	navigation/STIM_011.jpg	99
429.997	3.155	3155.3	navigation	Trial1	navigation/STIM_011.jpg	100
436.841	1.366	1366.0	pointing	Trial1	pointing/STIM_000.jpg	100
440.373	0.915	914.6	pointing	Trial1	pointing/STIM_000.jpg	99
444.754	1.528	1527.5	pointing	Trial1	pointing/STIM_000.jpg	100
448.4	1.097	1096.8	pointing	Trial1	pointing/STIM_000.jpg	100
452.936	0.911	910.8	pointing	Trial1	pointing/STIM_000.jpg	99
457.291	1.259	1258.8	pointing	Trial1	pointing/STIM_000.jpg	100
461.503	1.009	1008.6	pointing	Trial1	pointing/STIM_001.jpg	99
465.985	1.05	1049.6	pointing	Trial1	pointing/STIM_001.jpg	100
469.123	0.882	881.8	pointing	Trial1	pointing/STIM_001.jpg	100
472.832	0.957	957.1	pointing	Trial1	pointing/STIM_001.jpg	99
476.926	1.186	1185.8	pointing	Trial1	pointing/STIM_001.jpg	100
481.135	0.997	996.9	pointing	Trial1	pointing/STIM_001.jpg	99
484.871	1.385	1384.7	pointing	Trial1	pointing/STIM_002.jpg	99
488.618	1.601	1601.1	pointing	Trial1	pointing/STIM_002.jpg	100
493.965	1.27	1270.4	pointing	Trial1	pointing/STIM_002.jpg	100
498.014	1.281	1281.3	pointing	Trial1	pointing/STIM_002.jpg	100
502.669	0.92	919.6	pointing	Trial1	pointing/STIM_002.jpg	100
506.599	1.612	1611.7	pointing	Trial1	pointing/STIM_002.jpg	99
510.831	1.321	1321.0	pointing	Trial1	pointing/STIM_003.jpg	99
515.248	1.13	1129.7	pointing	Trial1	pointing/STIM_003.jpg	100
518.397	1.337	1337.0	pointing	Trial1	pointing/STIM_003.jpg	99
522.712	1.121	1120.8	pointing	Trial1	pointing/STIM_003.jpg	100
526.951	1.508	1508.1	pointing	Trial1	pointing/STIM_003.jpg	100
530.815	1.234	1233.6	pointing	Trial1	pointing/STIM_003.jpg	100
535.221	1.205	1205.1	pointing	Trial1	pointing/STIM_004.jpg	100
540.228	1.468	1467.8	pointing	Trial1	pointing/STIM_004.jpg	100
543.954	1.223	1223.3	pointing	Trial1	pointing/STIM_004.jpg	99
548.986	1.107	1106.6	pointing	Trial1	pointing/STIM_004.jpg	99
553.005	1.12	1119.7	pointing	Trial1	pointing/STIM_004.jpg	100
557.393	1.351	1351.1	pointing	Trial1	pointing/STIM_004.jpg	99
561.38	1.37	1370.3	pointing	Trial1	pointing/STIM_005.jpg	100
564.869	1.111	1110.8	pointing	Trial1	pointing/STIM_005.jpg	100
569.586	1.02	1019.7	pointing	Trial1	pointing/STIM_005.jpg	99
574.516	1.406	1406.5	pointing	Trial1	pointing/STIM_005.jpg	100
578.697	1.502	1501.7	pointing	Trial1	pointing/STIM_005.jpg	100
583.979	1.464	1464.2	pointing	Trial1	pointing/STIM_005.jpg	99
588.733	1.385	1385.0	pointing	Trial1	pointing/STIM_006.jpg	100
593.941	1.137	1137.0	pointing	Trial1	pointing/STIM_006.jpg	99
597.146	1.316	1316.2	pointing	Trial1	pointing/STIM_006.jpg	100
602.085	1.286	1286.1	pointing	Trial1	pointing/STIM_006.jpg	99
607.071	1.303	1303.4	pointing	Trial1	pointing/STIM_006.jpg	100
611.314	1.156	1155.7	pointing	Trial1	pointing/STIM_006.jpg	100
614.489	1.478	1478.5	pointing	Trial1	pointing/STIM_007.jpg	100
618.389	1.246	1246.1	pointing	Trial1	pointing/STIM_007.jpg	100
622.277	1.378	1377.6	pointing	Trial1	pointing/STIM_007.jpg	100
625.732	1.335	1335.1	pointing	Trial1	pointing/STIM_007.jpg	100
629.521	1.301	1301.2	pointing	Trial1	pointing/STIM_007.jpg	100
633.201	1.269	1268.7	pointing	Trial1	pointing/STIM_007.jpg	99
638.226	1.12	1119.5	pointing	Trial1	pointing/STIM_008.jpg	100
641.999	0.909	909.4	pointing	Trial1	pointing/STIM_008.jpg	100
645.511	0.994	994.2	pointing	Trial1	pointing/STIM_008.jpg	100
650.017	1.023	1023.3	pointing	Trial1	pointing/STIM_008.jpg	100
654.656	1.354	1354.5	pointing	Trial1	pointing/STIM_008.jpg	100
659.212	1.45	1449.7	pointing	Trial1	pointing/STIM_008.jpg	100
664.049	0.968	968.2	pointing	Trial1	pointing/STIM_009.jpg	100
667.993	1.479	1479.4	pointing	Trial1	pointing/STIM_009.jpg	99
671.625	1.071	1070.8	pointing	Trial1	pointing/STIM_009.jpg	100
675.805	1.15	1150.0	pointing	Trial1	pointing/STIM_009.jpg	99
680.032	0.949	949.4	pointing	Trial1	pointing/STIM_009.jpg	100
683.581	1.604	1603.8	pointing	Trial1	pointing/STIM_009.jpg	100
687.576	1.001	1001.2	pointing	Trial1	pointing/STIM_010.jpg	100
691.203	1.189	1188.6	pointing	Trial1	pointing/STIM_010.jpg	100
694.361	1.275	1274.6	pointing	Trial1	pointing/STIM_010.jpg	99
698.258	1.344	1343.7	pointing	Trial1	pointing/STIM_010.jpg	100
702.371	1.062	1061.7	pointing	Trial1	pointing/STIM_010.jpg	100
705.977	1.364	1364.1	pointing	Trial1	pointing/STIM_010.jpg	99
709.582	1.244	1243.6	pointing	Trial1	pointing/STIM_011.jpg	99
714.635	1.072	1072.2	pointing	Trial1	pointing/STIM_011.jpg	100
718.031	1.033	1033.2	pointing	Trial1	pointing/STIM_011.jpg	100
722.258	0.907	906.9	pointing	Trial1	pointing/STIM_011.jpg	99
726.37	1.529	1528.6	pointing	Trial1	pointing/STIM_011.jpg	99
730.589	1.147	1147.3	pointing	Trial1	pointing/STIM_011.jpg	99
735.364	1.988	1988.4	navigation	Trial2	navigation/STIM_000.jpg	100
739.553	2.147	2146.7	navigation	Trial2	navigation/STIM_000.jpg	100
745.004	3.364	3363.6	navigation	Trial2	navigation/STIM_000.jpg	99
750.35	2.14	2140.4	navigation	Trial2	navigation/STIM_000.jpg	100
756.299	2.377	2377.3	navigation	Trial2	navigation/STIM_000.jpg	100
762.013	3.631	3630.8	navigation	Trial2	navigation/STIM_000.jpg	100
767.602	4.22	4219.6	navigation	Trial2	navigation/STIM_001.jpg	99
775.37	4.019	4019.3	navigation	Trial2	navigation/STIM_001.jpg	99
783.022	3.589	3588.8	navigation	Trial2	navigation/STIM_001.jpg	99
790.134	1.672	1671.6	navigation	Trial2	navigation/STIM_001.jpg	99
795.481	1.95	1949.7	navigation	Trial2	navigation/STIM_001.jpg	100
799.741	2.954	2954.2	navigation	Trial2	navigation/STIM_001.jpg	100
806.362	2.377	2376.8	navigation	Trial2	navigation/STIM_002.jpg	100
811.34	4.071	4070.7	navigation	Trial2	navigation/STIM_002.jpg	99
818.141	3.123	3122.7	navigation	Trial2	navigation/STIM_002.jpg	99
824.347	2.118	2117.8	navigation	Trial2	navigation/STIM_002.jpg	100
829.357	2.847	2846.9	navigation	Trial2	navigation/STIM_002.jpg	99
835.715	1.943	1943.3	navigation	Trial2	navigation/STIM_002.jpg	99
840.157	3.823	3823.2	navigation	Trial2	navigation/STIM_003.jpg	100
846.9	3.386	3386.5	navigation	Trial2	navigation/STIM_003.jpg	100
852.748	2.663	2662.7	navigation	Trial2	navigation/STIM_003.jpg	99
858.317	3.171	3171.2	navigation	Trial2	navigation/STIM_003.jpg	99
864.136	2.908	2908.1	navigation	Trial2	navigation/STIM_003.jpg	100
869.392	3.637	3636.9	navigation	Trial2	navigation/STIM_003.jpg	100
876.583	2.859	2858.9	navigation	Trial2	navigation/STIM_004.jpg	99
881.687	3.503	3503.3	navigation	Trial2	navigation/STIM_004.jpg	100
887.419	2.809	2809.3	navigation	Trial2	navigation/STIM_004.jpg	100
892.561	1.708	1708.4	navigation	Trial2	navigation/STIM_004.jpg	99
896.777	2.225	2225.3	navigation	Trial2	navigation/STIM_004.jpg	99
902.795	2.816	2815.7	navigation	Trial2	navigation/STIM_004.jpg	99
908.085	3.707	3707.2	navigation	Trial2	navigation/STIM_005.jpg	100
914.967	3.547	3546.7	navigation	Trial2	navigation/STIM_005.jpg	99
921.846	2.216	2216.1	navigation	Trial2	navigation/STIM_005.jpg	100
927.543	3.465	3464.8	navigation	Trial2	navigation/STIM_005.jpg	100
934.345	1.712	1712.0	navigation	Trial2	navigation/STIM_005.jpg	100
939.877	1.939	1939.2	navigation	Trial2	navigation/STIM_005.jpg	100
945.418	4.461	4460.9	navigation	Trial2	navigation/STIM_006.jpg	99
951.925	3.018	3018.1	navigation	Trial2	navigation/STIM_006.jpg	100
956.925	3.586	3585.8	navigation	Trial2	navigation/STIM_006.jpg	99
962.709	3.516	3515.6	navigation	Trial2	navigation/STIM_006.jpg	99
968.859	2.503	2503.3	navigation	Trial2	navigation/STIM_006.jpg	100
974.882	2.518	2517.8	navigation	Trial2	navigation/STIM_006.jpg	99
981.056	1.99	1989.9	navigation	Trial2	navigation/STIM_007.jpg	100
986.063	4.297	4297.4	navigation	Trial2	navigation/STIM_007.jpg	100
993.217	2.252	2251.8	navigation	Trial2	navigation/STIM_007.jpg	100
997.527	1.882	1881.5	navigation	Trial2	navigation/STIM_007.jpg	99
1002.152	2.536	2535.5	navigation	Trial2	navigation/STIM_007.jpg	100
1007.336	3.756	3756.4	navigation	Trial2	navigation/STIM_007.jpg	100
1014.326	4.224	4223.8	navigation	Trial2	navigation/STIM_008.jpg	99
1021.69	2.386	2386.4	navigation	Trial2	navigation/STIM_008.jpg	99
1026.112	1.763	1763.2	navigation	Trial2	navigation/STIM_008.jpg	99
1029.957	2.833	2832.9	navigation	Trial2	navigation/STIM_008.jpg	100
1035.384	2.12	2119.5	navigation	Trial2	navigation/STIM_008.jpg	100
1040.063	3.073	3073.2	navigation	Trial2	navigation/STIM_008.jpg	99
1045.685	2.666	2666.5	navigation	Trial2	navigation/STIM_009.jpg	100
1052.043	2.427	2427.4	navigation	Trial2	navigation/STIM_009.jpg	99
1056.606	2.144	2144.2	navigation	Trial2	navigation/STIM_009.jpg	99
1062.11	2.799	2799.1	navigation	Trial2	navigation/STIM_009.jpg	99
1068.558	3.368	3367.5	navigation	Trial2	navigation/STIM_009.jpg	100
1075.59	3.259	3259.0	navigation	Trial2	navigation/STIM_009.jpg	100
1082.276	3.024	3023.7	navigation	Trial2	navigation/STIM_010.jpg	99
1088.602	3.173	3172.6	navigation	Trial2	navigation/STIM_010.jpg	99
1094.051	2.694	2694.1	navigation	Trial2	navigation/STIM_010.jpg	100
1099.186	3.394	3393.6	navigation	Trial2	navigation/STIM_010.jpg	100
1104.715	2.323	2322.6	navigation	Trial2	navigation/STIM_010.jpg	100
1110.195	3.3	3300.1	navigation	Trial2	navigation/STIM_010.jpg	99
1115.721	3.782	3781.9	navigation	Trial2	navigation/STIM_011.jpg	100
1121.986	2.845	2845.2	navigation	Trial2	navigation/STIM_011.jpg	99
1127.497	2.816	2815.5	navigation	Trial2	navigation/STIM_011.jpg	100
1132.867	3.255	3255.1	navigation	Trial2	navigation/STIM_011.jpg	99
1138.361	2.187	2187.2	navigation	Trial2	navigation/STIM_011.jpg	100
1143.942	1.89	1889.9	navigation	Trial2	navigation/STIM_011.jpg	99
1148.872	0.979	979.2	pointing	Trial2	pointing/STIM_000.jpg	100
1152.315	1.438	1437.5	pointing	Trial2	pointing/STIM_000.jpg	100
1156.958	1.503	1503.3	pointing	Trial2	pointing/STIM_000.jpg	100
1162.197	1.006	1006.5	pointing	Trial2	pointing/STIM_000.jpg	99
1167.032	1.28	1279.5	pointing	Trial2	pointing/STIM_000.jpg	99
1171.939	0.986	985.9	pointing	Trial2	pointing/STIM_000.jpg	99
1175.223	1.122	1121.6	pointing	Trial2	pointing/STIM_001.jpg	99
1179.679	1.006	1005.6	pointing	Trial2	pointing/STIM_001.jpg	100
1183.359	1.398	1398.3	pointing	Trial2	pointing/STIM_001.jpg	99
1187.078	1.012	1012.3	pointing	Trial2	pointing/STIM_001.jpg	100
1190.91	0.896	896.1	pointing	Trial2	pointing/STIM_001.jpg	100
1194.52	1.016	1016.1	pointing	Trial2	pointing/STIM_001.jpg	99
1197.983	0.983	982.8	pointing	Trial2	pointing/STIM_002.jpg	99
1201.777	1.03	1029.7	pointing	Trial2	pointing/STIM_002.jpg	100
1206.389	0.931	930.6	pointing	Trial2	pointing/STIM_002.jpg	99
1210.575	1.157	1157.1	pointing	Trial2	pointing/STIM_002.jpg	99
1214.929	0.93	930.1	pointing	Trial2	pointing/STIM_002.jpg	100
1219.242	1.402	1401.5	pointing	Trial2	pointing/STIM_002.jpg	100
1224.001	1.528	1527.6	pointing	Trial2	pointing/STIM_003.jpg	100
1229.406	1.119	1119.3	pointing	Trial2	pointing/STIM_003.jpg	99
1233.046	0.907	907.3	pointing	Trial2	pointing/STIM_003.jpg	100
1237.023	0.959	959.4	pointing	Trial2	pointing/STIM_003.jpg	99
1241.666	0.944	943.6	pointing	Trial2	pointing/STIM_003.jpg	100
1245.032	1.16	1159.5	pointing	Trial2	pointing/STIM_003.jpg	99
1249.995	1.298	1298.2	pointing	Trial2	pointing/STIM_004.jpg	100
1253.435	0.995	994.8	pointing	Trial2	pointing/STIM_004.jpg	100
1256.522	0.907	907.2	pointing	Trial2	pointing/STIM_004.jpg	100
1261.132	1.136	1135.8	pointing	Trial2	pointing/STIM_004.jpg	99
1266.042	1.391	1390.7	pointing	Trial2	pointing/STIM_004.jpg	99
1270.744	1.114	1113.7	pointing	Trial2	pointing/STIM_004.jpg	99
1274.101	0.995	994.6	pointing	Trial2	pointing/STIM_005.jpg	99
1277.779	1.267	1267.3	pointing	Trial2	pointing/STIM_005.jpg	99
1281.514	1.49	1489.8	pointing	Trial2	pointing/STIM_005.jpg	99
1285.329	1.383	1382.9	pointing	Trial2	pointing/STIM_005.jpg	99
1289.789	1.277	1276.9	pointing	Trial2	pointing/STIM_005.jpg	100
1293.37	1.097	1097.1	pointing	Trial2	pointing/STIM_005.jpg	100
1297.92	1.238	1238.5	pointing	Trial2	pointing/STIM_006.jpg	100
1302.211	0.903	903.0	pointing	Trial2	pointing/STIM_006.jpg	99
1306.271	1.076	1075.5	pointing	Trial2	pointing/STIM_006.jpg	99
1309.881	0.911	910.7	pointing	Trial2	pointing/STIM_006.jpg	99
1312.916	1.581	1580.8	pointing	Trial2	pointing/STIM_006.jpg	99
1318.037	1.437	1436.7	pointing	Trial2	pointing/STIM_006.jpg	100
1321.472	1.611	1611.0	pointing	Trial2	pointing/STIM_007.jpg	99
1325.929	1.393	1393.1	pointing	Trial2	pointing/STIM_007.jpg	100
1330.387	1.113	1113.4	pointing	Trial2	pointing/STIM_007.jpg	99
1333.779	1.576	1576.4	pointing	Trial2	pointing/STIM_007.jpg	99
1339.149	1.46	1460.5	pointing	Trial2	pointing/STIM_007.jpg	100
1343.425	1.587	1587.0	pointing	Trial2	pointing/STIM_007.jpg	99
1347.544	1.402	1401.7	pointing	Trial2	pointing/STIM_008.jpg	99
1352.627	1.568	1567.5	pointing	Trial2	pointing/STIM_008.jpg	100
1356.741	1.362	1361.8	pointing	Trial2	pointing/STIM_008.jpg	100
1361.479	0.932	931.6	pointing	Trial2	pointing/STIM_008.jpg	100
1366.228	1.429	1428.8	pointing	Trial2	pointing/STIM_008.jpg	100
1370.316	1.371	1370.6	pointing	Trial2	pointing/STIM_008.jpg	99
1374.209	0.919	919.4	pointing	Trial2	pointing/STIM_009.jpg	100
1378.0	1.509	1508.9	pointing	Trial2	pointing/STIM_009.jpg	100
1381.646	1.473	1473.1	pointing	Trial2	pointing/STIM_009.jpg	100
1386.012	1.367	1367.0	pointing	Trial2	pointing/STIM_009.jpg	100
1389.942	1.001	1000.7	pointing	Trial2	pointing/STIM_009.jpg	99
1394.778	0.945	945.1	pointing	Trial2	pointing/STIM_009.jpg	100
1399.208	1.399	1399.0	pointing	Trial2	pointing/STIM_010.jpg	99
1402.615	1.105	1104.8	pointing	Trial2	pointing/STIM_010.jpg	99
1405.775	1.275	1275.2	pointing	Trial2	pointing/STIM_010.jpg	100
1410.218	1.52	1520.4	pointing	Trial2	pointing/STIM_010.jpg	99
1414.988	1.012	1011.5	pointing	Trial2	pointing/STIM_010.jpg	99
1418.415	0.971	970.7	pointing	Trial2	pointing/STIM_010.jpg	99
1421.377	1.45	1450.2	pointing	Trial2	pointing/STIM_011.jpg	99
1425.627	1.188	1188.5	pointing	Trial2	pointing/STIM_011.jpg	100
1429.098	1.122	1121.6	pointing	Trial2	pointing/STIM_011.jpg	100
1432.476	1.069	1069.2	pointing	Trial2	pointing/STIM_011.jpg	100
1435.701	1.143	1143.3	pointing	Trial2	pointing/STIM_011.jpg	99
1439.964	1.257	1256.6	pointing	Trial2	pointing/STIM_011.jpg	99
1443.838	1.618	1617.6	navigation	Trial3	navigation/STIM_000.jpg	99
1448.239	3.357	3356.8	navigation	Trial3	navigation/STIM_000.jpg	99
1453.833	1.833	1832.6	navigation	Trial3	navigation/STIM_000.jpg	99
1458.614	1.56	1559.5	navigation	Trial3	navigation/STIM_000.jpg	100
1464.043	1.976	1976.1	navigation	Trial3	navigation/STIM_000.jpg	100
1469.57	1.789	1789.3	navigation	Trial3	navigation/STIM_000.jpg	99
1473.996	3.169	3169.4	navigation	Trial3	navigation/STIM_001.jpg	100
1480.388	1.75	1750.1	navigation	Trial3	navigation/STIM_001.jpg	100
1484.441	2.793	2793.4	navigation	Trial3	navigation/STIM_001.jpg	99
1490.255	1.51	1509.7	navigation	Trial3	navigation/STIM_001.jpg	99
1494.881	2.055	2055.0	navigation	Trial3	navigation/STIM_001.jpg	100
1499.888	3.189	3188.6	navigation	Trial3	navigation/STIM_001.jpg	100
1506.055	3.248	3247.9	navigation	Trial3	navigation/STIM_002.jpg	100
1511.758	3.4	3400.3	navigation	Trial3	navigation/STIM_002.jpg	100
1517.353	2.593	2593.1	navigation	Trial3	navigation/STIM_002.jpg	99
1523.037	2.907	2906.6	navigation	Trial3	navigation/STIM_002.jpg	100
1528.061	3.138	3137.6	navigation	Trial3	navigation/STIM_002.jpg	100
1534.743	3.698	3698.2	navigation	Trial3	navigation/STIM_002.jpg	99
1540.388	3.332	3332.3	navigation	Trial3	navigation/STIM_003.jpg	100
1546.449	2.441	2441.1	navigation	Trial3	navigation/STIM_003.jpg	99
1552.615	2.035	2034.7	navigation	Trial3	navigation/STIM_003.jpg	99
1556.877	3.507	3507.4	navigation	Trial3	navigation/STIM_003.jpg	99
1563.908	3.338	3338.1	navigation	Trial3	navigation/STIM_003.jpg	99
1571.013	3.252	3252.2	navigation	Trial3	navigation/STIM_003.jpg	99
1577.237	2.195	2195.3	navigation	Trial3	navigation/STIM_004.jpg	100
1582.933	3.561	3560.6	navigation	Trial3	navigation/STIM_004.jpg	99
1588.984	2.054	2054.1	navigation	Trial3	navigation/STIM_004.jpg	99
1594.267	1.872	1871.6	navigation	Trial3	navigation/STIM_004.jpg	99
1598.694	1.904	1904.4	navigation	Trial3	navigation/STIM_004.jpg	99
1603.285	3.639	3638.6	navigation	Trial3	navigation/STIM_004.jpg	99
1610.157	3.2	3200.5	navigation	Trial3	navigation/STIM_005.jpg	99
1615.599	2.3	2300.1	navigation	Trial3	navigation/STIM_005.jpg	99
1621.594	3.263	3262.7	navigation	Trial3	navigation/STIM_005.jpg	99
1628.148	3.265	3265.2	navigation	Trial3	navigation/STIM_005.jpg	100
1633.775	2.186	2185.7	navigation	Trial3	navigation/STIM_005.jpg	100
1638.093	3.357	3357.1	navigation	Trial3	navigation/STIM_005.jpg	100
1645.121	2.105	2105.3	navigation	Trial3	navigation/STIM_006.jpg	100
1649.368	3.679	3679.3	navigation	Trial3	navigation/STIM_006.jpg	100
1655.906	3.609	3609.2	navigation	Trial3	navigation/STIM_006.jpg	100
1661.999	3.739	3739.4	navigation	Trial3	navigation/STIM_006.jpg	99
1667.494	3.07	3070.1	navigation	Trial3	navigation/STIM_006.jpg	100
1673.419	2.249	2249.1	navigation	Trial3	navigation/STIM_006.jpg	99
1678.62	3.169	3168.9	navigation	Trial3	navigation/STIM_007.jpg	100
1684.244	3.064	3063.7	navigation	Trial3	navigation/STIM_007.jpg	100
1689.769	1.94	1940.4	navigation	Trial3	navigation/STIM_007.jpg	100
1695.229	2.705	2705.3	navigation	Trial3	navigation/STIM_007.jpg	100
1700.509	2.6	2600.4	navigation	Trial3	navigation/STIM_007.jpg	100
1706.038	3.069	3069.2	navigation	Trial3	navigation/STIM_007.jpg	100
1712.647	3.227	3227.0	navigation	Trial3	navigation/STIM_008.jpg	99
1718.965	1.788	1787.6	navigation	Trial3	navigation/STIM_008.jpg	99
1724.417	3.599	3599.3	navigation	Trial3	navigation/STIM_008.jpg	100
1730.755	2.806	2806.2	navigation	Trial3	navigation/STIM_008.jpg	100
1737.052	1.583	1582.6	navigation	Trial3	navigation/STIM_008.jpg	99
1740.781	2.04	2039.7	navigation	Trial3	navigation/STIM_008.jpg	100
1746.308	3.682	3681.6	navigation	Trial3	navigation/STIM_009.jpg	100
1752.406	1.781	1780.6	navigation	Trial3	navigation/STIM_009.jpg	99
1756.353	2.606	2605.7	navigation	Trial3	navigation/STIM_009.jpg	100
1762.196	1.884	1884.3	navigation	Trial3	navigation/STIM_009.jpg	99
1766.992	2.126	2126.4	navigation	Trial3	navigation/STIM_009.jpg	100
1771.076	2.785	2785.1	navigation	Trial3	navigation/STIM_009.jpg	100
1776.14	1.709	1709.1	navigation	Trial3	navigation/STIM_010.jpg	100
1779.968	1.82	1820.0	navigation	Trial3	navigation/STIM_010.jpg	99
1783.885	2.386	2385.8	navigation	Trial3	navigation/STIM_010.jpg	100
1788.28	3.692	3691.9	navigation	Trial3	navigation/STIM_010.jpg	100
1794.803	3.09	3090.4	navigation	Trial3	navigation/STIM_010.jpg	99
1801.477	3.698	3698.3	navigation	Trial3	navigation/STIM_010.jpg	100
1807.192	3.623	3622.9	navigation	Trial3	navigation/STIM_011.jpg	99
1813.244	2.054	2053.9	navigation	Trial3	navigation/STIM_011.jpg	99
1818.075	2.289	2288.9	navigation	Trial3	navigation/STIM_011.jpg	99
1823.043	1.938	1938.2	navigation	Trial3	navigation/STIM_011.jpg	100
1828.427	1.921	1921.4	navigation	Trial3	navigation/STIM_011.jpg	99
1833.5	3.514	3514.1	navigation	Trial3	navigation/STIM_011.jpg	99
1840.394	0.997	996.9	pointing	Trial3	pointing/STIM_000.jpg	99
1843.629	1.532	1532.4	pointing	Trial3	pointing/STIM_000.jpg	100
1847.507	1.138	1138.4	pointing	Trial3	pointing/STIM_000.jpg	100
1851.09	0.888	887.8	pointing	Trial3	pointing/STIM_000.jpg	99
1854.531	1.142	1141.5	pointing	Trial3	pointing/STIM_000.jpg	99
1858.171	0.91	910.0	pointing	Trial3	pointing/STIM_000.jpg	100
1862.248	1.207	1206.7	pointing	Trial3	pointing/STIM_001.jpg	99
1865.423	0.888	888.5	pointing	Trial3	pointing/STIM_001.jpg	99
1870.148	1.225	1225.0	pointing	Trial3	pointing/STIM_001.jpg	100
1873.306	1.301	1301.1	pointing	Trial3	pointing/STIM_001.jpg	100
1878.268	1.23	1230.2	pointing	Trial3	pointing/STIM_001.jpg	100
1882.526	0.89	890.2	pointing	Trial3	pointing/STIM_001.jpg	99
1887.119	1.078	1077.9	pointing	Trial3	pointing/STIM_002.jpg	100
1891.706	1.526	1525.8	pointing	Trial3	pointing/STIM_002.jpg	99
1895.315	1.126	1125.9	pointing	Trial3	pointing/STIM_002.jpg	100
1898.793	0.93	930.3	pointing	Trial3	pointing/STIM_002.jpg	100
1902.244	1.108	1107.6	pointing	Trial3	pointing/STIM_002.jpg	99
1905.844	1.294	1293.8	pointing	Trial3	pointing/STIM_002.jpg	100
1909.851	1.162	1161.5	pointing	Trial3	pointing/STIM_003.jpg	100
1914.26	0.897	897.2	pointing	Trial3	pointing/STIM_003.jpg	100
1918.609	0.988	987.6	pointing	Trial3	pointing/STIM_003.jpg	100
1921.834	1.17	1169.8	pointing	Trial3	pointing/STIM_003.jpg	99
1926.594	1.535	1535.3	pointing	Trial3	pointing/STIM_003.jpg	99
1931.582	1.595	1594.9	pointing	Trial3	pointing/STIM_003.jpg	100
1935.455	1.329	1328.6	pointing	Trial3	pointing/STIM_004.jpg	99
1940.503	1.054	1053.7	pointing	Trial3	pointing/STIM_004.jpg	100
1943.609	1.047	1047.3	pointing	Trial3	pointing/STIM_004.jpg	99
1948.359	1.549	1549.2	pointing	Trial3	pointing/STIM_004.jpg	99
1953.359	1.06	1059.8	pointing	Trial3	pointing/STIM_004.jpg	99
1957.734	1.037	1037.3	pointing	Trial3	pointing/STIM_004.jpg	100
1961.02	0.903	902.7	pointing	Trial3	pointing/STIM_005.jpg	99
1965.726	1.172	1171.5	pointing	Trial3	pointing/STIM_005.jpg	100
1968.845	1.001	1001.2	pointing	Trial3	pointing/STIM_005.jpg	100
1973.231	1.319	1318.7	pointing	Trial3	pointing/STIM_005.jpg	99
1977.659	1.214	1214.2	pointing	Trial3	pointing/STIM_005.jpg	100
1982.044	1.592	1592.0	pointing	Trial3	pointing/STIM_005.jpg	100
1986.927	0.991	991.2	pointing	Trial3	pointing/STIM_006.jpg	100
1990.097	1.353	1352.7	pointing	Trial3	pointing/STIM_006.jpg	100
1995.26	1.273	1273.4	pointing	Trial3	pointing/STIM_006.jpg	99
1999.763	1.066	1066.2	pointing	Trial3	pointing/STIM_006.jpg	99
2004.499	0.882	882.0	pointing	Trial3	pointing/STIM_006.jpg	99
2009.281	1.309	1309.0	pointing	Trial3	pointing/STIM_006.jpg	100
2012.53	1.184	1184.3	pointing	Trial3	pointing/STIM_007.jpg	99
2016.594	1.361	1360.9	pointing	Trial3	pointing/STIM_007.jpg	100
2020.996	1.38	1379.7	pointing	Trial3	pointing/STIM_007.jpg	100
2025.078	0.87	869.9	pointing	Trial3	pointing/STIM_007.jpg	100
2028.491	0.974	973.6	pointing	Trial3	pointing/STIM_007.jpg	100
2031.712	1.6	1600.2	pointing	Trial3	pointing/STIM_007.jpg	100
2036.606	1.272	1272.5	pointing	Trial3	pointing/STIM_008.jpg	99
2041.55	0.863	863.1	pointing	Trial3	pointing/STIM_008.jpg	99
2046.19	1.156	1155.9	pointing	Trial3	pointing/STIM_008.jpg	99
2050.333	1.56	1559.5	pointing	Trial3	pointing/STIM_008.jpg	99
2054.112	0.874	873.5	pointing	Trial3	pointing/STIM_008.jpg	100
2058.364	1.411	1411.1	pointing	Trial3	pointing/STIM_008.jpg	100
2062.768	1.232	1232.2	pointing	Trial3	pointing/STIM_009.jpg	100
2067.208	1.42	1420.3	pointing	Trial3	pointing/STIM_009.jpg	100
2070.644	1.375	1375.3	pointing	Trial3	pointing/STIM_009.jpg	99
2075.293	1.217	1217.3	pointing	Trial3	pointing/STIM_009.jpg	100
2079.81	1.175	1175.3	pointing	Trial3	pointing/STIM_009.jpg	99
2082.929	1.507	1507.4	pointing	Trial3	pointing/STIM_009.jpg	99
2087.678	1.355	1355.4	pointing	Trial3	pointing/STIM_010.jpg	99
2092.241	1.491	1491.4	pointing	Trial3	pointing/STIM_010.jpg	100
2096.356	1.058	1058.3	pointing	Trial3	pointing/STIM_010.jpg	100
2100.767	1.336	1335.6	pointing	Trial3	pointing/STIM_010.jpg	99
2104.699	1.383	1383.0	pointing	Trial3	pointing/STIM_010.jpg	99
2108.515	1.048	1048.1	pointing	Trial3	pointing/STIM_010.jpg	99
2112.209	1.25	1249.6	pointing	Trial3	pointing/STIM_011.jpg	99
2116.062	1.488	1487.9	pointing	Trial3	pointing/STIM_011.jpg	100
2121.398	1.196	1195.9	pointing	Trial3	pointing/STIM_011.jpg	99
2124.544	1.014	1013.8	pointing	Trial3	pointing/STIM_011.jpg	100
2128.355	1.576	1575.7	pointing	Trial3	pointing/STIM_011.jpg	99
2131.997	1.1	1100.5	pointing	Trial3	pointing/STIM_011.jpg	99
