onset	duration	accuracy	trial_type	learning_stage	stimulus
0.0	1.275	correct	2back	Block1	2back/STIM_000.jpg
4.313	1.235	incorrect	2back	Block1	2back/STIM_000.jpg
8.356	1.253	incorrect	2back	Block1	2back/STIM_000.jpg
11.528	1.292	incorrect	2back	Block1	2back/STIM_001.jpg
14.861	1.16	correct	2back	Block1	2back/STIM_001.jpg
17.886	1.079	correct	2back	Block1	2back/STIM_001.jpg
21.225	1.468	correct	2back	Block1	2back/STIM_002.jpg
24.834	0.732	correct	2back	Block1	2back/STIM_002.jpg
29.163	1.074	correct	2back	Block1	2back/STIM_002.jpg
33.37	1.164	incorrect	2back	Block1	2back/STIM_003.jpg
38.253	1.149	correct	2back	Block1	2back/STIM_003.jpg
43.272	0.885	correct	2back	Block1	2back/STIM_003.jpg
47.128	0.825	correct	2back	Block1	2back/STIM_004.jpg
51.307	1.356	correct	2back	Block1	2back/STIM_004.jpg
56.387	1.133	correct	2back	Block1	2back/STIM_004.jpg
60.02	1.366	correct	2back	Block1	2back/STIM_005.jpg
63.738	1.246	incorrect	2back	Block1	2back/STIM_005.jpg
67.4	1.171	incorrect	2back	Block1	2back/STIM_005.jpg
71.282	1.344	correct	2back	Block1	2back/STIM_006.jpg
74.942	1.373	correct	2back	Block1	2back/STIM_006.jpg
79.753	1.318	correct	2back	Block1	2back/STIM_006.jpg
82.909	1.384	correct	2back	Block1	2back/STIM_007.jpg
87.746	1.07	incorrect	2back	Block1	2back/STIM_007.jpg
92.447	0.961	incorrect	2back	Block1	2back/STIM_007.jpg
95.583	1.426	correct	2back	Block1	2back/STIM_008.jpg
100.477	0.933	incorrect	2back	Block1	2back/STIM_008.jpg
103.919	1.16	correct	2back	Block1	2back/STIM_008.jpg
108.418	0.974	correct	2back	Block1	2back/STIM_009.jpg
112.564	0.743	incorrect	2back	Block1	2back/STIM_009.jpg
116.4	0.55	correct	2back	Block1	2back/STIM_009.jpg
119.259	1.276	incorrect	2back	Block1	2back/STIM_010.jpg
122.87	0.731	correct	2back	Block1	2back/STIM_010.jpg
127.266	1.176	correct	2back	Block1	2back/STIM_010.jpg
131.682	1.141	correct	2back	Block1	2back/STIM_011.jpg
135.11	1.369	correct	2back	Block1	2back/STIM_011.jpg
138.554	0.727	correct	2back	Block1	2back/STIM_011.jpg
143.065	1.312	correct	2back	Block1	2back/STIM_012.jpg
147.977	1.333	correct	2back	Block1	2back/STIM_012.jpg
153.041	0.989	correct	2back	Block1	2back/STIM_012.jpg
156.736	0.705	correct	2back	Block1	2back/STIM_013.jpg
160.147	0.793	correct	2back	Block1	2back/STIM_013.jpg
163.796	0.872	incorrect	2back	Block1	2back/STIM_013.jpg
167.543	1.241	correct	2back	Block1	2back/STIM_014.jpg
171.401	0.705	correct	2back	Block1	2back/STIM_014.jpg
174.516	0.705	correct	2back	Block1	2back/STIM_014.jpg
178.777	1.477	incorrect	2back	Block1	2back/STIM_015.jpg
184.06	1.308	incorrect	2back	Block1	2back/STIM_015.jpg
189.033	1.028	correct	2back	Block1	2back/STIM_015.jpg
192.477	1.505	correct	2back	Block1	2back/STIM_016.jpg
197.222	0.833	correct	2back	Block1	2back/STIM_016.jpg
200.98	1.023	incorrect	2back	Block1	2back/STIM_016.jpg
203.969	1.012	correct	2back	Block1	2back/STIM_017.jpg
207.991	1.064	incorrect	2back	Block1	2back/STIM_017.jpg
212.166	0.602	incorrect	2back	Block1	2back/STIM_017.jpg
215.263	1.521	correct	2back	Block1	2back/STIM_018.jpg
218.706	0.619	correct	2back	Block1	2back/STIM_018.jpg
222.037	0.822	correct	2back	Block1	2back/STIM_018.jpg
226.71	0.903	incorrect	2back	Block1	2back/STIM_019.jpg
229.549	0.929	correct	2back	Block1	2back/STIM_019.jpg
233.508	1.052	correct	2back	Block1	2back/STIM_019.jpg
236.48	1.312	correct	2back	Block1	2back/STIM_020.jpg
240.817	0.941	correct	2back	Block1	2back/STIM_020.jpg
245.404	0.645	correct	2back	Block1	2back/STIM_020.jpg
248.222	1.236	correct	2back	Block1	2back/STIM_021.jpg
252.527	0.674	correct	2back	Block1	2back/STIM_021.jpg
256.049	0.701	incorrect	2back	Block1	2back/STIM_021.jpg
258.978	1.183	correct	2back	Block1	2back/STIM_022.jpg
263.925	1.392	incorrect	2back	Block1	2back/STIM_022.jpg
267.851	1.194	correct	2back	Block1	2back/STIM_022.jpg
272.434	0.844	incorrect	2back	Block1	2back/STIM_023.jpg
275.585	1.273	correct	2back	Block1	2back/STIM_023.jpg
279.728	0.649	correct	2back	Block1	2back/STIM_023.jpg
284.037	0.954	correct	2back	Block1	2back/STIM_024.jpg
287.465	0.989	correct	2back	Block1	2back/STIM_024.jpg
290.93	0.819	correct	2back	Block1	2back/STIM_024.jpg
294.753	0.615	correct	2back	Block1	2back/STIM_025.jpg
298.161	0.797	correct	2back	Block1	2back/STIM_025.jpg
301.073	0.774	correct	2back	Block1	2back/STIM_025.jpg
305.579	0.921	incorrect	2back	Block1	2back/STIM_026.jpg
308.73	0.88	incorrect	2back	Block1	2back/STIM_026.jpg
312.254	1.408	correct	2back	Block1	2back/STIM_026.jpg
316.456	0.908	correct	2back	Block1	2back/STIM_027.jpg
321.257	1.354	correct	2back	Block1	2back/STIM_027.jpg
324.777	0.898	correct	2back	Block1	2back/STIM_027.jpg
328.454	1.339	correct	2back	Block1	2back/STIM_028.jpg
331.809	0.964	correct	2back	Block1	2back/STIM_028.jpg
336.42	0.973	incorrect	2back	Block1	2back/STIM_028.jpg
339.923	0.912	correct	2back	Block1	2back/STIM_029.jpg
342.926	1.336	correct	2back	Block1	2back/STIM_029.jpg
346.162	1.281	correct	2back	Block1	2back/STIM_029.jpg
350.705	1.107	incorrect	2back	Block1	2back/STIM_030.jpg
353.966	1.528	correct	2back	Block1	2back/STIM_030.jpg
358.811	1.198	correct	2back	Block1	2back/STIM_030.jpg
363.178	1.439	incorrect	2back	Block1	2back/STIM_031.jpg
367.51	0.719	incorrect	2back	Block1	2back/STIM_031.jpg
371.098	0.985	correct	2back	Block1	2back/STIM_031.jpg
375.514	1.37	correct	2back	Block1	2back/STIM_032.jpg
379.339	1.336	correct	2back	Block1	2back/STIM_032.jpg
384.431	0.884	correct	2back	Block1	2back/STIM_032.jpg
387.51	1.138	incorrect	2back	Block1	2back/STIM_033.jpg
391.918	0.603	incorrect	2back	Block1	2back/STIM_033.jpg
396.264	0.816	correct	2back	Block1	2back/STIM_033.jpg
399.935	1.19	correct	2back	Block1	2back/STIM_034.jpg
404.294	1.263	correct	2back	Block1	2back/STIM_034.jpg
408.342	1.021	correct	2back	Block1	2back/STIM_034.jpg
412.087	1.515	correct	2back	Block1	2back/STIM_035.jpg
415.672	1.087	correct	2back	Block1	2back/STIM_035.jpg
420.169	1.111	correct	2back	Block1	2back/STIM_035.jpg
423.67	0.737	correct	2back	Block1	2back/STIM_036.jpg
426.664	0.825	correct	2back	Block1	2back/STIM_036.jpg
431.382	0.891	correct	2back	Block1	2back/STIM_036.jpg
434.976	0.814	correct	2back	Block1	2back/STIM_037.jpg
438.359	1.181	correct	2back	Block1	2back/STIM_037.jpg
442.142	0.87	correct	2back	Block1	2back/STIM_037.jpg
445.337	0.804	correct	2back	Block1	2back/STIM_038.jpg
449.201	1.248	correct	2back	Block1	2back/STIM_038.jpg
452.584	1.066	incorrect	2back	Block1	2back/STIM_038.jpg
457.442	0.698	incorrect	2back	Block1	2back/STIM_039.jpg
461.492	1.408	correct	2back	Block1	2back/STIM_039.jpg
465.102	1.202	correct	2back	Block1	2back/STIM_039.jpg
468.723	0.872	correct	0back	Block1	0back/STIM_000.jpg
472.976	0.452	correct	0back	Block1	0back/STIM_000.jpg
477.274	0.599	correct	0back	Block1	0back/STIM_000.jpg
481.5	0.538	correct	0back	Block1	0back/STIM_001.jpg
485.895	0.633	correct	0back	Block1	0back/STIM_001.jpg
488.978	0.495	correct	0back	Block1	0back/STIM_001.jpg
492.331	0.831	correct	0back	Block1	0back/STIM_002.jpg
495.549	0.781	correct	0back	Block1	0back/STIM_002.jpg
498.591	0.83	correct	0back	Block1	0back/STIM_002.jpg
502.564	0.892	correct	0back	Block1	0back/STIM_003.jpg
506.543	0.675	correct	0back	Block1	0back/STIM_003.jpg
510.894	0.772	correct	0back	Block1	0back/STIM_003.jpg
514.192	0.831	correct	0back	Block1	0back/STIM_004.jpg
518.341	0.584	incorrect	0back	Block1	0back/STIM_004.jpg
521.286	0.576	incorrect	0back	Block1	0back/STIM_004.jpg
525.649	0.599	correct	0back	Block1	0back/STIM_005.jpg
529.092	0.506	correct	0back	Block1	0back/STIM_005.jpg
532.106	0.737	correct	0back	Block1	0back/STIM_005.jpg
536.563	0.449	correct	0back	Block1	0back/STIM_006.jpg
540.004	0.545	correct	0back	Block1	0back/STIM_006.jpg
544.374	0.354	correct	0back	Block1	0back/STIM_006.jpg
548.203	0.751	correct	0back	Block1	0back/STIM_007.jpg
551.98	0.792	correct	0back	Block1	0back/STIM_007.jpg
555.602	0.665	correct	0back	Block1	0back/STIM_007.jpg
559.402	0.68	correct	0back	Block1	0back/STIM_008.jpg
563.165	0.627	correct	0back	Block1	0back/STIM_008.jpg
567.417	0.354	correct	0back	Block1	0back/STIM_008.jpg
570.232	0.508	correct	0back	Block1	0back/STIM_009.jpg
572.869	0.794	correct	0back	Block1	0back/STIM_009.jpg
576.13	0.759	correct	0back	Block1	0back/STIM_009.jpg
580.197	0.713	correct	0back	Block1	0back/STIM_010.jpg
583.068	0.838	correct	0back	Block1	0back/STIM_010.jpg
585.886	0.556	correct	0back	Block1	0back/STIM_010.jpg
589.577	0.584	correct	0back	Block1	0back/STIM_011.jpg
593.282	0.459	correct	0back	Block1	0back/STIM_011.jpg
597.459	0.445	correct	0back	Block1	0back/STIM_011.jpg
601.528	0.452	correct	0back	Block1	0back/STIM_012.jpg
605.019	0.925	correct	0back	Block1	0back/STIM_012.jpg
609.741	0.54	correct	0back	Block1	0back/STIM_012.jpg
613.163	0.671	correct	0back	Block1	0back/STIM_013.jpg
617.026	0.479	correct	0back	Block1	0back/STIM_013.jpg
620.733	0.812	correct	0back	Block1	0back/STIM_013.jpg
623.711	0.566	correct	0back	Block1	0back/STIM_014.jpg
626.676	0.623	correct	0back	Block1	0back/STIM_014.jpg
629.563	0.603	correct	0back	Block1	0back/STIM_014.jpg
634.206	0.486	correct	0back	Block1	0back/STIM_015.jpg
638.486	0.536	correct	0back	Block1	0back/STIM_015.jpg
641.481	0.796	correct	0back	Block1	0back/STIM_015.jpg
645.595	0.875	correct	0back	Block1	0back/STIM_016.jpg
650.015	0.711	correct	0back	Block1	0back/STIM_016.jpg
654.174	0.767	correct	0back	Block1	0back/STIM_016.jpg
657.879	0.824	correct	0back	Block1	0back/STIM_017.jpg
661.72	0.666	correct	0back	Block1	0back/STIM_017.jpg
665.681	0.508	correct	0back	Block1	0back/STIM_017.jpg
668.256	0.742	correct	0back	Block1	0back/STIM_018.jpg
671.311	0.5	correct	0back	Block1	0back/STIM_018.jpg
674.482	0.597	correct	0back	Block1	0back/STIM_018.jpg
678.282	0.683	correct	0back	Block1	0back/STIM_019.jpg
680.897	0.525	correct	0back	Block1	0back/STIM_019.jpg
683.501	0.527	correct	0back	Block1	0back/STIM_019.jpg
686.364	1.17	correct	2back	Block2	2back/STIM_000.jpg
691.35	0.569	correct	2back	Block2	2back/STIM_000.jpg
694.473	0.587	correct	2back	Block2	2back/STIM_000.jpg
698.658	0.542	correct	2back	Block2	2back/STIM_001.jpg
702.199	1.045	correct	2back	Block2	2back/STIM_001.jpg
706.755	1.056	correct	2back	Block2	2back/STIM_001.jpg
711.077	1.151	correct	2back	Block2	2back/STIM_002.jpg
714.443	0.535	correct	2back	Block2	2back/STIM_002.jpg
718.079	0.984	correct	2back	Block2	2back/STIM_002.jpg
721.011	0.896	correct	2back	Block2	2back/STIM_003.jpg
724.047	0.87	correct	2back	Block2	2back/STIM_003.jpg
728.412	0.804	correct	2back	Block2	2back/STIM_003.jpg
731.511	0.79	correct	2back	Block2	2back/STIM_004.jpg
734.485	0.556	correct	2back	Block2	2back/STIM_004.jpg
737.451	0.753	correct	2back	Block2	2back/STIM_004.jpg
740.698	0.948	incorrect	2back	Block2	2back/STIM_005.jpg
744.033	0.771	correct	2back	Block2	2back/STIM_005.jpg
747.743	1.043	incorrect	2back	Block2	2back/STIM_005.jpg
750.838	1.257	correct	2back	Block2	2back/STIM_006.jpg
755.759	0.537	correct	2back	Block2	2back/STIM_006.jpg
760.179	0.706	correct	2back	Block2	2back/STIM_006.jpg
764.615	0.721	correct	2back	Block2	2back/STIM_007.jpg
768.003	1.164	correct	2back	Block2	2back/STIM_007.jpg
772.592	0.611	correct	2back	Block2	2back/STIM_007.jpg
776.597	0.611	correct	2back	Block2	2back/STIM_008.jpg
780.782	0.791	correct	2back	Block2	2back/STIM_008.jpg
784.538	0.863	correct	2back	Block2	2back/STIM_008.jpg
788.119	0.882	correct	2back	Block2	2back/STIM_009.jpg
791.937	0.647	correct	2back	Block2	2back/STIM_009.jpg
796.374	0.891	correct	2back	Block2	2back/STIM_009.jpg
800.762	0.859	correct	2back	Block2	2back/STIM_010.jpg
805.493	0.58	correct	2back	Block2	2back/STIM_010.jpg
808.869	0.648	correct	2back	Block2	2back/STIM_010.jpg
811.639	0.876	correct	2back	Block2	2back/STIM_011.jpg
814.692	0.734	correct	2back	Block2	2back/STIM_011.jpg
817.561	0.654	correct	2back	Block2	2back/STIM_011.jpg
820.977	0.68	correct	2back	Block2	2back/STIM_012.jpg
824.133	0.743	incorrect	2back	Block2	2back/STIM_012.jpg
828.045	0.529	correct	2back	Block2	2back/STIM_012.jpg
831.117	1.233	correct	2back	Block2	2back/STIM_013.jpg
834.481	0.518	incorrect	2back	Block2	2back/STIM_013.jpg
837.536	0.599	correct	2back	Block2	2back/STIM_013.jpg
841.712	0.968	correct	2back	Block2	2back/STIM_014.jpg
845.93	0.928	correct	2back	Block2	2back/STIM_014.jpg
850.707	0.585	correct	2back	Block2	2back/STIM_014.jpg
854.744	0.804	correct	2back	Block2	2back/STIM_015.jpg
859.365	0.61	correct	2back	Block2	2back/STIM_015.jpg
862.703	0.897	correct	2back	Block2	2back/STIM_015.jpg
867.191	1.17	correct	2back	Block2	2back/STIM_016.jpg
872.004	0.658	correct	2back	Block2	2back/STIM_016.jpg
874.966	1.068	correct	2back	Block2	2back/STIM_016.jpg
878.468	1.008	correct	2back	Block2	2back/STIM_017.jpg
881.874	1.184	correct	2back	Block2	2back/STIM_017.jpg
886.83	0.571	incorrect	2back	Block2	2back/STIM_017.jpg
891.015	1.218	correct	2back	Block2	2back/STIM_018.jpg
895.874	0.957	correct	2back	Block2	2back/STIM_018.jpg
898.802	0.785	correct	2back	Block2	2back/STIM_018.jpg
901.979	0.996	correct	2back	Block2	2back/STIM_019.jpg
905.804	0.592	correct	2back	Block2	2back/STIM_019.jpg
909.568	1.031	correct	2back	Block2	2back/STIM_019.jpg
913.086	0.776	correct	2back	Block2	2back/STIM_020.jpg
917.147	0.87	correct	2back	Block2	2back/STIM_020.jpg
920.819	0.972	correct	2back	Block2	2back/STIM_020.jpg
924.42	1.038	correct	2back	Block2	2back/STIM_021.jpg
929.136	1.086	correct	2back	Block2	2back/STIM_021.jpg
932.908	1.211	correct	2back	Block2	2back/STIM_021.jpg
936.975	0.86	correct	2back	Block2	2back/STIM_022.jpg
941.127	0.614	correct	2back	Block2	2back/STIM_022.jpg
944.154	0.9	correct	2back	Block2	2back/STIM_022.jpg
948.962	1.018	correct	2back	Block2	2back/STIM_023.jpg
951.996	0.873	correct	2back	Block2	2back/STIM_023.jpg
956.67	0.633	correct	2back	Block2	2back/STIM_023.jpg
959.377	0.972	correct	2back	Block2	2back/STIM_024.jpg
963.402	0.672	correct	2back	Block2	2back/STIM_024.jpg
967.846	0.627	correct	2back	Block2	2back/STIM_024.jpg
971.264	1.05	incorrect	2back	Block2	2back/STIM_025.jpg
974.876	0.755	correct	2back	Block2	2back/STIM_025.jpg
978.172	0.681	correct	2back	Block2	2back/STIM_025.jpg
981.339	1.052	correct	2back	Block2	2back/STIM_026.jpg
985.094	1.111	correct	2back	Block2	2back/STIM_026.jpg
989.277	0.876	correct	2back	Block2	2back/STIM_026.jpg
992.55	0.725	incorrect	2back	Block2	2back/STIM_027.jpg
997.037	1.084	correct	2back	Block2	2back/STIM_027.jpg
1001.374	0.497	correct	2back	Block2	2back/STIM_027.jpg
1004.826	1.023	correct	2back	Block2	2back/STIM_028.jpg
1008.932	1.03	incorrect	2back	Block2	2back/STIM_028.jpg
1012.35	1.11	correct	2back	Block2	2back/STIM_028.jpg
1015.916	1.279	correct	2back	Block2	2back/STIM_029.jpg
1020.632	0.467	incorrect	2back	Block2	2back/STIM_029.jpg
1023.755	1.019	correct	2back	Block2	2back/STIM_029.jpg
1027.92	0.688	incorrect	2back	Block2	2back/STIM_030.jpg
1031.384	0.514	correct	2back	Block2	2back/STIM_030.jpg
1035.835	0.853	correct	2back	Block2	2back/STIM_030.jpg
1040.35	1.282	correct	2back	Block2	2back/STIM_031.jpg
1044.836	1.02	correct	2back	Block2	2back/STIM_031.jpg
1048.306	0.649	correct	2back	Block2	2back/STIM_031.jpg
1052.42	1.078	correct	2back	Block2	2back/STIM_032.jpg
1056.037	0.667	correct	2back	Block2	2back/STIM_032.jpg
1058.927	0.717	incorrect	2back	Block2	2back/STIM_032.jpg
1062.404	0.53	correct	2back	Block2	2back/STIM_033.jpg
1066.882	1.069	correct	2back	Block2	2back/STIM_033.jpg
1070.596	0.846	correct	2back	Block2	2back/STIM_033.jpg
1073.779	1.138	correct	2back	Block2	2back/STIM_034.jpg
1077.173	0.991	correct	2back	Block2	2back/STIM_034.jpg
1081.879	0.886	correct	2back	Block2	2back/STIM_034.jpg
1086.501	0.896	correct	2back	Block2	2back/STIM_035.jpg
1090.881	0.706	correct	2back	Block2	2back/STIM_035.jpg
1094.038	0.614	correct	2back	Block2	2back/STIM_035.jpg
1096.884	1.146	correct	2back	Block2	2back/STIM_036.jpg
1100.629	1.177	correct	2back	Block2	2back/STIM_036.jpg
1104.698	0.747	correct	2back	Block2	2back/STIM_036.jpg
1107.906	0.69	correct	2back	Block2	2back/STIM_037.jpg
1112.246	1.048	correct	2back	Block2	2back/STIM_037.jpg
1116.255	1.071	correct	2back	Block2	2back/STIM_037.jpg
1119.565	0.919	correct	2back	Block2	2back/STIM_038.jpg
1122.959	1.079	correct	2back	Block2	2back/STIM_038.jpg
1126.36	0.884	correct	2back	Block2	2back/STIM_038.jpg
1131.174	0.703	correct	2back	Block2	2back/STIM_039.jpg
1134.925	0.563	correct	2back	Block2	2back/STIM_039.jpg
1139.097	0.786	correct	2back	Block2	2back/STIM_039.jpg
1142.789	0.526	incorrect	0back	Block2	0back/STIM_000.jpg
1146.767	0.689	correct	0back	Block2	0back/STIM_000.jpg
1150.166	0.496	correct	0back	Block2	0back/STIM_000.jpg
1153.144	0.588	correct	0back	Block2	0back/STIM_001.jpg
1156.46	0.457	correct	0back	Block2	0back/STIM_001.jpg
1159.942	0.693	correct	0back	Block2	0back/STIM_001.jpg
1162.6	0.454	correct	0back	Block2	0back/STIM_002.jpg
1166.285	0.76	correct	0back	Block2	0back/STIM_002.jpg
1170.333	0.714	correct	0back	Block2	0back/STIM_002.jpg
1173.015	0.655	correct	0back	Block2	0back/STIM_003.jpg
1177.382	0.544	correct	0back	Block2	0back/STIM_003.jpg
1180.709	0.32	correct	0back	Block2	0back/STIM_003.jpg
1184.326	0.897	correct	0back	Block2	0back/STIM_004.jpg
1188.072	0.332	correct	0back	Block2	0back/STIM_004.jpg
1190.935	0.745	correct	0back	Block2	0back/STIM_004.jpg
1194.178	0.439	correct	0back	Block2	0back/STIM_005.jpg
1198.282	0.569	correct	0back	Block2	0back/STIM_005.jpg
1201.657	0.598	correct	0back	Block2	0back/STIM_005.jpg
1205.356	0.745	incorrect	0back	Block2	0back/STIM_006.jpg
1208.718	0.713	correct	0back	Block2	0back/STIM_006.jpg
1212.766	0.8	correct	0back	Block2	0back/STIM_006.jpg
1215.869	0.769	correct	0back	Block2	0back/STIM_007.jpg
1220.387	0.75	correct	0back	Block2	0back/STIM_007.jpg
1223.158	0.803	correct	0back	Block2	0back/STIM_007.jpg
1227.835	0.555	correct	0back	Block2	0back/STIM_008.jpg
1232.292	0.728	correct	0back	Block2	0back/STIM_008.jpg
1236.309	0.655	correct	0back	Block2	0back/STIM_008.jpg
1239.309	0.676	correct	0back	Block2	0back/STIM_009.jpg
1243.712	0.554	correct	0back	Block2	0back/STIM_009.jpg
1246.793	0.832	correct	0back	Block2	0back/STIM_009.jpg
1250.775	0.575	correct	0back	Block2	0back/STIM_010.jpg
1255.216	0.73	correct	0back	Block2	0back/STIM_010.jpg
1258.441	0.742	correct	0back	Block2	0back/STIM_010.jpg
1261.785	0.554	correct	0back	Block2	0back/STIM_011.jpg
1264.342	0.642	correct	0back	Block2	0back/STIM_011.jpg
1267.437	0.539	correct	0back	Block2	0back/STIM_011.jpg
1270.743	0.424	correct	0back	Block2	0back/STIM_012.jpg
1274.784	0.685	correct	0back	Block2	0back/STIM_012.jpg
1277.763	0.556	correct	0back	Block2	0back/STIM_012.jpg
1281.258	0.481	correct	0back	Block2	0back/STIM_013.jpg
1285.654	0.669	correct	0back	Block2	0back/STIM_013.jpg
1289.783	0.747	correct	0back	Block2	0back/STIM_013.jpg
1294.363	0.738	correct	0back	Block2	0back/STIM_014.jpg
1297.554	0.834	correct	0back	Block2	0back/STIM_014.jpg
1300.499	0.835	correct	0back	Block2	0back/STIM_014.jpg
1304.451	0.665	correct	0back	Block2	0back/STIM_015.jpg
1308.914	0.737	correct	0back	Block2	0back/STIM_015.jpg
1313.479	0.727	correct	0back	Block2	0back/STIM_015.jpg
1317.679	0.722	correct	0back	Block2	0back/STIM_016.jpg
1322.288	0.527	incorrect	0back	Block2	0back/STIM_016.jpg
1326.263	0.818	correct	0back	Block2	0back/STIM_016.jpg
1330.558	0.474	correct	0back	Block2	0back/STIM_017.jpg
1333.502	0.754	correct	0back	Block2	0back/STIM_017.jpg
1336.715	0.661	correct	0back	Block2	0back/STIM_017.jpg
1339.371	0.864	correct	0back	Block2	0back/STIM_018.jpg
1342.346	0.627	correct	0back	Block2	0back/STIM_018.jpg
1346.985	0.632	correct	0back	Block2	0back/STIM_018.jpg
1349.82	0.649	correct	0back	Block2	0back/STIM_019.jpg
1352.92	0.803	correct	0back	Block2	0back/STIM_019.jpg
1356.575	0.726	correct	0back	Block2	0back/STIM_019.jpg
1361.023	0.555	correct	2back	Block3	2back/STIM_000.jpg
1364.804	0.53	correct	2back	Block3	2back/STIM_000.jpg
1368.109	0.735	correct	2back	Block3	2back/STIM_000.jpg
1371.246	0.755	correct	2back	Block3	2back/STIM_001.jpg
1374.084	0.611	correct	2back	Block3	2back/STIM_001.jpg
1377.04	1.025	correct	2back	Block3	2back/STIM_001.jpg
1379.969	0.767	correct	2back	Block3	2back/STIM_002.jpg
1383.337	1.02	correct	2back	Block3	2back/STIM_002.jpg
1387.562	0.582	correct	2back	Block3	2back/STIM_002.jpg
1391.529	0.698	correct	2back	Block3	2back/STIM_003.jpg
1396.054	0.449	correct	2back	Block3	2back/STIM_003.jpg
1400.262	0.56	correct	2back	Block3	2back/STIM_003.jpg
1404.046	0.817	correct	2back	Block3	2back/STIM_004.jpg
1407.584	0.612	correct	2back	Block3	2back/STIM_004.jpg
1411.1	0.762	correct	2back	Block3	2back/STIM_004.jpg
1414.606	0.933	correct	2back	Block3	2back/STIM_005.jpg
1418.779	0.892	correct	2back	Block3	2back/STIM_005.jpg
1422.702	0.905	correct	2back	Block3	2back/STIM_005.jpg
1426.216	0.884	correct	2back	Block3	2back/STIM_006.jpg
1429.41	0.895	correct	2back	Block3	2back/STIM_006.jpg
1433.186	0.895	correct	2back	Block3	2back/STIM_006.jpg
1437.871	0.712	correct	2back	Block3	2back/STIM_007.jpg
1441.765	0.526	correct	2back	Block3	2back/STIM_007.jpg
1444.618	0.657	incorrect	2back	Block3	2back/STIM_007.jpg
1447.569	0.748	correct	2back	Block3	2back/STIM_008.jpg
1450.661	0.524	correct	2back	Block3	2back/STIM_008.jpg
1454.073	0.519	correct	2back	Block3	2back/STIM_008.jpg
1458.0	0.91	correct	2back	Block3	2back/STIM_009.jpg
1462.436	0.555	correct	2back	Block3	2back/STIM_009.jpg
1466.498	0.818	correct	2back	Block3	2back/STIM_009.jpg
1469.821	0.601	correct	2back	Block3	2back/STIM_010.jpg
1473.423	0.992	correct	2back	Block3	2back/STIM_010.jpg
1476.563	1.059	correct	2back	Block3	2back/STIM_010.jpg
1480.653	0.668	incorrect	2back	Block3	2back/STIM_011.jpg
1483.979	0.789	correct	2back	Block3	2back/STIM_011.jpg
1488.093	0.599	correct	2back	Block3	2back/STIM_011.jpg
1490.809	0.93	correct	2back	Block3	2back/STIM_012.jpg
1494.161	0.798	correct	2back	Block3	2back/STIM_012.jpg
1497.689	1.044	correct	2back	Block3	2back/STIM_012.jpg
1501.754	0.517	correct	2back	Block3	2back/STIM_013.jpg
1506.16	0.848	correct	2back	Block3	2back/STIM_013.jpg
1510.531	0.634	correct	2back	Block3	2back/STIM_013.jpg
1514.666	0.736	correct	2back	Block3	2back/STIM_014.jpg
1517.88	0.61	correct	2back	Block3	2back/STIM_014.jpg
1522.326	0.752	correct	2back	Block3	2back/STIM_014.jpg
1525.583	0.823	correct	2back	Block3	2back/STIM_015.jpg
1530.245	0.648	correct	2back	Block3	2back/STIM_015.jpg
1533.553	0.992	correct	2back	Block3	2back/STIM_015.jpg
1536.757	0.919	correct	2back	Block3	2back/STIM_016.jpg
1540.271	0.75	incorrect	2back	Block3	2back/STIM_016.jpg
1543.037	0.848	correct	2back	Block3	2back/STIM_016.jpg
1546.816	0.953	correct	2back	Block3	2back/STIM_017.jpg
1550.488	0.952	correct	2back	Block3	2back/STIM_017.jpg
1554.421	0.745	correct	2back	Block3	2back/STIM_017.jpg
1558.125	1.074	correct	2back	Block3	2back/STIM_018.jpg
1561.778	1.003	correct	2back	Block3	2back/STIM_018.jpg
1565.465	0.563	correct	2back	Block3	2back/STIM_018.jpg
1568.137	0.475	correct	2back	Block3	2back/STIM_019.jpg
1571.527	0.999	correct	2back	Block3	2back/STIM_019.jpg
1576.14	0.954	correct	2back	Block3	2back/STIM_019.jpg
1579.023	0.667	correct	2back	Block3	2back/STIM_020.jpg
1582.455	0.745	correct	2back	Block3	2back/STIM_020.jpg
1586.622	0.589	correct	2back	Block3	2back/STIM_020.jpg
1589.774	0.951	correct	2back	Block3	2back/STIM_021.jpg
1592.696	0.939	correct	2back	Block3	2back/STIM_021.jpg
1596.708	0.984	correct	2back	Block3	2back/STIM_021.jpg
1600.631	0.515	correct	2back	Block3	2back/STIM_022.jpg
1603.221	0.885	correct	2back	Block3	2back/STIM_022.jpg
1606.922	0.81	correct	2back	Block3	2back/STIM_022.jpg
1611.073	0.946	correct	2back	Block3	2back/STIM_023.jpg
1614.613	0.84	correct	2back	Block3	2back/STIM_023.jpg
1619.326	0.813	correct	2back	Block3	2back/STIM_023.jpg
1622.299	0.581	correct	2back	Block3	2back/STIM_024.jpg
1624.956	0.982	correct	2back	Block3	2back/STIM_024.jpg
1629.421	0.662	correct	2back	Block3	2back/STIM_024.jpg
1633.222	0.69	correct	2back	Block3	2back/STIM_025.jpg
1636.956	1.104	correct	2back	Block3	2back/STIM_025.jpg
1640.064	0.752	correct	2back	Block3	2back/STIM_025.jpg
1643.686	0.96	correct	2back	Block3	2back/STIM_026.jpg
1647.877	0.76	correct	2back	Block3	2back/STIM_026.jpg
1652.218	0.566	correct	2back	Block3	2back/STIM_026.jpg
1655.909	0.938	correct	2back	Block3	2back/STIM_027.jpg
1658.978	0.887	correct	2back	Block3	2back/STIM_027.jpg
1662.035	0.957	correct	2back	Block3	2back/STIM_027.jpg
1665.75	0.726	correct	2back	Block3	2back/STIM_028.jpg
1668.672	0.926	correct	2back	Block3	2back/STIM_028.jpg
1672.116	0.685	correct	2back	Block3	2back/STIM_028.jpg
1674.752	0.988	correct	2back	Block3	2back/STIM_029.jpg
1679.324	0.605	correct	2back	Block3	2back/STIM_029.jpg
1683.4	0.6	correct	2back	Block3	2back/STIM_029.jpg
1687.004	1.02	correct	2back	Block3	2back/STIM_030.jpg
1691.563	0.94	correct	2back	Block3	2back/STIM_030.jpg
1696.111	0.848	correct	2back	Block3	2back/STIM_030.jpg
1698.972	0.51	correct	2back	Block3	2back/STIM_031.jpg
1703.372	1.022	correct	2back	Block3	2back/STIM_031.jpg
1706.701	1.062	correct	2back	Block3	2back/STIM_031.jpg
1711.312	0.531	correct	2back	Block3	2back/STIM_032.jpg
1715.248	0.93	correct	2back	Block3	2back/STIM_032.jpg
1718.226	0.877	correct	2back	Block3	2back/STIM_032.jpg
1722.803	0.796	correct	2back	Block3	2back/STIM_033.jpg
1727.297	1.044	correct	2back	Block3	2back/STIM_033.jpg
1730.915	0.628	correct	2back	Block3	2back/STIM_033.jpg
1735.066	0.7	correct	2back	Block3	2back/STIM_034.jpg
1737.861	0.83	correct	2back	Block3	2back/STIM_034.jpg
1742.022	0.707	correct	2back	Block3	2back/STIM_034.jpg
1744.885	0.999	incorrect	2back	Block3	2back/STIM_035.jpg
1748.105	0.724	correct	2back	Block3	2back/STIM_035.jpg
1751.533	0.933	correct	2back	Block3	2back/STIM_035.jpg
1754.821	0.992	correct	2back	Block3	2back/STIM_036.jpg
1759.201	0.863	correct	2back	Block3	2back/STIM_036.jpg
1762.879	0.681	correct	2back	Block3	2back/STIM_036.jpg
1765.611	0.467	correct	2back	Block3	2back/STIM_037.jpg
1768.548	1.015	correct	2back	Block3	2back/STIM_037.jpg
1772.885	1.039	correct	2back	Block3	2back/STIM_037.jpg
1777.466	0.886	correct	2back	Block3	2back/STIM_038.jpg
1781.754	0.632	correct	2back	Block3	2back/STIM_038.jpg
1784.744	0.599	correct	2back	Block3	2back/STIM_038.jpg
1788.521	0.729	correct	2back	Block3	2back/STIM_039.jpg
1793.048	0.575	correct	2back	Block3	2back/STIM_039.jpg
1796.868	0.522	correct	2back	Block3	2back/STIM_039.jpg
1800.03	0.581	correct	0back	Block3	0back/STIM_000.jpg
1804.477	0.511	correct	0back	Block3	0back/STIM_000.jpg
1807.972	0.804	correct	0back	Block3	0back/STIM_000.jpg
1811.455	0.628	correct	0back	Block3	0back/STIM_001.jpg
1814.953	0.864	correct	0back	Block3	0back/STIM_001.jpg
1818.844	0.809	correct	0back	Block3	0back/STIM_001.jpg
1822.406	0.582	correct	0back	Block3	0back/STIM_002.jpg
1825.978	0.531	correct	0back	Block3	0back/STIM_002.jpg
1829.589	0.562	correct	0back	Block3	0back/STIM_002.jpg
1832.331	0.646	correct	0back	Block3	0back/STIM_003.jpg
1835.478	0.77	correct	0back	Block3	0back/STIM_003.jpg
1839.646	0.685	correct	0back	Block3	0back/STIM_003.jpg
1843.664	0.715	correct	0back	Block3	0back/STIM_004.jpg
1846.787	0.742	correct	0back	Block3	0back/STIM_004.jpg
1851.355	0.539	correct	0back	Block3	0back/STIM_004.jpg
1855.27	0.82	correct	0back	Block3	0back/STIM_005.jpg
1859.972	0.461	correct	0back	Block3	0back/STIM_005.jpg
1863.192	0.605	correct	0back	Block3	0back/STIM_005.jpg
1867.175	0.693	correct	0back	Block3	0back/STIM_006.jpg
1871.086	0.905	correct	0back	Block3	0back/STIM_006.jpg
1875.256	0.899	correct	0back	Block3	0back/STIM_006.jpg
1878.81	0.749	correct	0back	Block3	0back/STIM_007.jpg
1882.976	0.89	correct	0back	Block3	0back/STIM_007.jpg
1886.177	0.888	correct	0back	Block3	0back/STIM_007.jpg
1889.579	0.727	correct	0back	Block3	0back/STIM_008.jpg
1894.124	0.653	correct	0back	Block3	0back/STIM_008.jpg
1897.359	0.792	correct	0back	Block3	0back/STIM_008.jpg
1900.78	0.558	correct	0back	Block3	0back/STIM_009.jpg
1903.945	0.482	correct	0back	Block3	0back/STIM_009.jpg
1907.878	0.583	correct	0back	Block3	0back/STIM_009.jpg
1912.323	0.572	correct	0back	Block3	0back/STIM_010.jpg
1915.429	0.555	correct	0back	Block3	0back/STIM_010.jpg
1918.415	0.848	correct	0back	Block3	0back/STIM_010.jpg
1922.61	0.876	correct	0back	Block3	0back/STIM_011.jpg
1925.874	0.763	correct	0back	Block3	0back/STIM_011.jpg
1929.361	0.646	incorrect	0back	Block3	0back/STIM_011.jpg
1933.757	0.882	correct	0back	Block3	0back/STIM_012.jpg
1937.076	0.597	correct	0back	Block3	0back/STIM_012.jpg
1941.64	0.796	correct	0back	Block3	0back/STIM_012.jpg
1944.569	0.498	correct	0back	Block3	0back/STIM_013.jpg
1948.34	0.614	correct	0back	Block3	0back/STIM_013.jpg
1952.004	0.733	correct	0back	Block3	0back/STIM_013.jpg
1955.065	0.442	correct	0back	Block3	0back/STIM_014.jpg
1957.579	0.648	correct	0back	Block3	0back/STIM_014.jpg
1961.009	0.8	correct	0back	Block3	0back/STIM_014.jpg
1965.32	0.886	correct	0back	Block3	0back/STIM_015.jpg
1969.618	0.735	correct	0back	Block3	0back/STIM_015.jpg
1972.887	0.558	correct	0back	Block3	0back/STIM_015.jpg
1976.465	0.558	correct	0back	Block3	0back/STIM_016.jpg
1979.971	0.553	correct	0back	Block3	0back/STIM_016.jpg
1984.413	0.5	correct	0back	Block3	0back/STIM_016.jpg
1988.735	0.794	correct	0back	Block3	0back/STIM_017.jpg
1993.39	0.76	correct	0back	Block3	0back/STIM_017.jpg
1997.966	0.405	correct	0back	Block3	0back/STIM_017.jpg
2000.76	0.436	correct	0back	Block3	0back/STIM_018.jpg
2004.73	0.779	correct	0back	Block3	0back/STIM_018.jpg
2009.013	0.777	correct	0back	Block3	0back/STIM_018.jpg
2013.132	0.692	correct	0back	Block3	0back/STIM_019.jpg
2017.404	0.762	correct	0back	Block3	0back/STIM_019.jpg
2021.408	0.849	correct	0back	Block3	0back/STIM_019.jpg
2025.077	0.59	correct	2back	Block4	2back/STIM_000.jpg
2027.884	0.81	correct	2back	Block4	2back/STIM_000.jpg
2031.581	0.505	correct	2back	Block4	2back/STIM_000.jpg
2035.389	0.479	correct	2back	Block4	2back/STIM_001.jpg
2037.911	0.684	correct	2back	Block4	2back/STIM_001.jpg
2041.316	0.684	correct	2back	Block4	2back/STIM_001.jpg
2044.592	0.897	correct	2back	Block4	2back/STIM_002.jpg
2047.514	0.54	correct	2back	Block4	2back/STIM_002.jpg
2050.945	0.602	correct	2back	Block4	2back/STIM_002.jpg
2054.128	0.519	correct	2back	Block4	2back/STIM_003.jpg
2056.663	1.01	correct	2back	Block4	2back/STIM_003.jpg
2061.164	0.851	correct	2back	Block4	2back/STIM_003.jpg
2065.455	0.944	correct	2back	Block4	2back/STIM_004.jpg
2069.152	0.769	correct	2back	Block4	2back/STIM_004.jpg
2073.093	0.928	correct	2back	Block4	2back/STIM_004.jpg
2077.857	1.035	incorrect	2back	Block4	2back/STIM_005.jpg
2081.9	0.737	correct	2back	Block4	2back/STIM_005.jpg
2084.93	0.48	correct	2back	Block4	2back/STIM_005.jpg
2088.349	0.763	correct	2back	Block4	2back/STIM_006.jpg
2091.233	0.612	correct	2back	Block4	2back/STIM_006.jpg
2094.401	0.574	correct	2back	Block4	2back/STIM_006.jpg
2097.791	0.618	correct	2back	Block4	2back/STIM_007.jpg
2101.25	0.591	correct	2back	Block4	2back/STIM_007.jpg
2104.829	0.551	correct	2back	Block4	2back/STIM_007.jpg
2108.709	0.496	correct	2back	Block4	2back/STIM_008.jpg
2111.42	0.894	correct	2back	Block4	2back/STIM_008.jpg
2114.882	0.417	correct	2back	Block4	2back/STIM_008.jpg
2119.052	1.1	correct	2back	Block4	2back/STIM_009.jpg
2123.782	1.08	incorrect	2back	Block4	2back/STIM_009.jpg
2127.642	0.963	correct	2back	Block4	2back/STIM_009.jpg
2131.354	0.565	correct	2back	Block4	2back/STIM_010.jpg
2134.249	0.553	correct	2back	Block4	2back/STIM_010.jpg
2138.787	0.953	correct	2back	Block4	2back/STIM_010.jpg
2143.513	0.887	correct	2back	Block4	2back/STIM_011.jpg
2147.22	0.436	correct	2back	Block4	2back/STIM_011.jpg
2151.185	0.693	correct	2back	Block4	2back/STIM_011.jpg
2155.6	0.762	correct	2back	Block4	2back/STIM_012.jpg
2158.857	0.513	correct	2back	Block4	2back/STIM_012.jpg
2162.891	0.962	correct	2back	Block4	2back/STIM_012.jpg
2167.016	0.694	correct	2back	Block4	2back/STIM_013.jpg
2170.766	1.075	correct	2back	Block4	2back/STIM_013.jpg
2174.554	0.592	correct	2back	Block4	2back/STIM_013.jpg
2179.187	0.727	correct	2back	Block4	2back/STIM_014.jpg
2183.716	0.63	correct	2back	Block4	2back/STIM_014.jpg
2188.221	0.424	correct	2back	Block4	2back/STIM_014.jpg
2192.07	0.701	correct	2back	Block4	2back/STIM_015.jpg
2195.379	1.029	correct	2back	Block4	2back/STIM_015.jpg
2199.536	0.9	correct	2back	Block4	2back/STIM_015.jpg
2202.653	0.801	correct	2back	Block4	2back/STIM_016.jpg
2207.187	0.637	correct	2back	Block4	2back/STIM_016.jpg
2210.525	0.779	correct	2back	Block4	2back/STIM_016.jpg
2213.794	0.472	correct	2back	Block4	2back/STIM_017.jpg
2216.925	0.886	correct	2back	Block4	2back/STIM_017.jpg
2220.369	0.721	correct	2back	Block4	2back/STIM_017.jpg
2224.479	0.598	correct	2back	Block4	2back/STIM_018.jpg
2227.35	0.901	incorrect	2back	Block4	2back/STIM_018.jpg
2231.278	1.056	correct	2back	Block4	2back/STIM_018.jpg
2234.331	0.595	correct	2back	Block4	2back/STIM_019.jpg
2237.891	1.029	correct	2back	Block4	2back/STIM_019.jpg
2241.058	0.564	correct	2back	Block4	2back/STIM_019.jpg
2245.334	0.859	correct	2back	Block4	2back/STIM_020.jpg
2248.306	0.912	correct	2back	Block4	2back/STIM_020.jpg
2252.333	0.898	correct	2back	Block4	2back/STIM_020.jpg
2257.066	0.813	correct	2back	Block4	2back/STIM_021.jpg
2259.884	0.944	correct	2back	Block4	2back/STIM_021.jpg
2263.582	1.012	correct	2back	Block4	2back/STIM_021.jpg
2268.346	0.705	correct	2back	Block4	2back/STIM_022.jpg
2272.613	0.614	correct	2back	Block4	2back/STIM_022.jpg
2275.749	0.65	correct	2back	Block4	2back/STIM_022.jpg
2278.414	0.955	correct	2back	Block4	2back/STIM_023.jpg
2283.147	0.482	correct	2back	Block4	2back/STIM_023.jpg
2287.203	0.876	correct	2back	Block4	2back/STIM_023.jpg
2291.242	0.542	correct	2back	Block4	2back/STIM_024.jpg
2294.548	0.99	correct	2back	Block4	2back/STIM_024.jpg
2297.964	0.452	correct	2back	Block4	2back/STIM_024.jpg
2301.7	0.89	correct	2back	Block4	2back/STIM_025.jpg
2304.753	0.962	correct	2back	Block4	2back/STIM_025.jpg
2309.321	0.584	correct	2back	Block4	2back/STIM_025.jpg
2311.967	0.697	correct	2back	Block4	2back/STIM_026.jpg
2315.871	0.442	correct	2back	Block4	2back/STIM_026.jpg
2319.685	0.622	correct	2back	Block4	2back/STIM_026.jpg
2322.385	0.63	correct	2back	Block4	2back/STIM_027.jpg
2325.738	0.501	correct	2back	Block4	2back/STIM_027.jpg
2330.2	0.795	correct	2back	Block4	2back/STIM_027.jpg
2334.438	0.892	correct	2back	Block4	2back/STIM_028.jpg
2337.706	0.917	correct	2back	Block4	2back/STIM_028.jpg
2342.329	0.48	correct	2back	Block4	2back/STIM_028.jpg
2345.294	0.678	correct	2back	Block4	2back/STIM_029.jpg
2348.909	0.509	correct	2back	Block4	2back/STIM_029.jpg
2351.712	1.077	correct	2back	Block4	2back/STIM_029.jpg
2356.621	0.915	correct	2back	Block4	2back/STIM_030.jpg
2361.085	0.402	correct	2back	Block4	2back/STIM_030.jpg
2365.352	0.693	correct	2back	Block4	2back/STIM_030.jpg
2368.392	0.92	correct	2back	Block4	2back/STIM_031.jpg
2371.953	0.521	correct	2back	Block4	2back/STIM_031.jpg
2374.751	0.993	correct	2back	Block4	2back/STIM_031.jpg
2378.137	0.638	correct	2back	Block4	2back/STIM_032.jpg
2382.069	0.673	correct	2back	Block4	2back/STIM_032.jpg
2385.764	0.772	correct	2back	Block4	2back/STIM_032.jpg
2389.19	0.89	correct	2back	Block4	2back/STIM_033.jpg
2394.013	0.575	correct	2back	Block4	2back/STIM_033.jpg
2398.086	0.935	correct	2back	Block4	2back/STIM_033.jpg
2402.484	0.823	correct	2back	Block4	2back/STIM_034.jpg
2405.814	1.059	correct	2back	Block4	2back/STIM_034.jpg
2410.513	0.829	correct	2back	Block4	2back/STIM_034.jpg
2413.221	0.934	correct	2back	Block4	2back/STIM_035.jpg
2417.416	0.647	correct	2back	Block4	2back/STIM_035.jpg
2421.856	0.606	correct	2back	Block4	2back/STIM_035.jpg
2424.798	0.828	correct	2back	Block4	2back/STIM_036.jpg
2428.038	0.782	correct	2back	Block4	2back/STIM_036.jpg
2432.696	1.015	correct	2back	Block4	2back/STIM_036.jpg
2436.141	0.786	correct	2back	Block4	2back/STIM_037.jpg
2439.35	0.651	correct	2back	Block4	2back/STIM_037.jpg
2443.779	0.562	correct	2back	Block4	2back/STIM_037.jpg
2448.148	1.063	correct	2back	Block4	2back/STIM_038.jpg
2452.154	0.756	correct	2back	Block4	2back/STIM_038.jpg
2455.546	0.579	correct	2back	Block4	2back/STIM_038.jpg
2459.691	0.512	correct	2back	Block4	2back/STIM_039.jpg
2463.786	0.538	correct	2back	Block4	2back/STIM_039.jpg
2467.359	0.918	correct	2back	Block4	2back/STIM_039.jpg
2471.714	0.543	correct	0back	Block4	0back/STIM_000.jpg
2475.56	0.906	correct	0back	Block4	0back/STIM_000.jpg
2480.162	0.564	correct	0back	Block4	0back/STIM_000.jpg
2483.59	0.792	correct	0back	Block4	0back/STIM_001.jpg
2486.868	0.582	correct	0back	Block4	0back/STIM_001.jpg
2490.502	0.63	correct	0back	Block4	0back/STIM_001.jpg
2494.368	0.64	correct	0back	Block4	0back/STIM_002.jpg
2497.42	0.897	correct	0back	Block4	0back/STIM_002.jpg
2500.933	0.568	correct	0back	Block4	0back/STIM_002.jpg
2504.457	0.385	correct	0back	Block4	0back/STIM_003.jpg
2507.425	0.606	incorrect	0back	Block4	0back/STIM_003.jpg
2510.393	0.901	correct	0back	Block4	0back/STIM_003.jpg
2513.446	0.409	correct	0back	Block4	0back/STIM_004.jpg
2517.575	0.758	correct	0back	Block4	0back/STIM_004.jpg
2521.283	0.477	correct	0back	Block4	0back/STIM_004.jpg
2524.705	0.826	correct	0back	Block4	0back/STIM_005.jpg
2528.919	0.557	correct	0back	Block4	0back/STIM_005.jpg
2532.906	0.565	correct	0back	Block4	0back/STIM_005.jpg
2536.894	0.578	correct	0back	Block4	0back/STIM_006.jpg
2540.475	0.514	correct	0back	Block4	0back/STIM_006.jpg
2543.104	0.754	correct	0back	Block4	0back/STIM_006.jpg
2547.557	0.558	correct	0back	Block4	0back/STIM_007.jpg
2551.816	0.8	correct	0back	Block4	0back/STIM_007.jpg
2555.693	0.58	correct	0back	Block4	0back/STIM_007.jpg
2558.461	0.464	correct	0back	Block4	0back/STIM_008.jpg
2562.649	0.794	correct	0back	Block4	0back/STIM_008.jpg
2566.997	0.583	correct	0back	Block4	0back/STIM_008.jpg
2570.291	0.808	correct	0back	Block4	0back/STIM_009.jpg
2573.559	0.775	correct	0back	Block4	0back/STIM_009.jpg
2578.185	0.806	correct	0back	Block4	0back/STIM_009.jpg
2581.282	0.824	correct	0back	Block4	0back/STIM_010.jpg
2585.438	0.548	correct	0back	Block4	0back/STIM_010.jpg
2588.045	0.764	correct	0back	Block4	0back/STIM_010.jpg
2592.452	0.67	correct	0back	Block4	0back/STIM_011.jpg
2596.235	0.46	correct	0back	Block4	0back/STIM_011.jpg
2598.823	0.61	correct	0back	Block4	0back/STIM_011.jpg
2602.028	0.78	correct	0back	Block4	0back/STIM_012.jpg
2605.544	0.692	correct	0back	Block4	0back/STIM_012.jpg
2609.02	0.503	correct	0back	Block4	0back/STIM_012.jpg
2612.127	0.822	correct	0back	Block4	0back/STIM_013.jpg
2616.261	0.693	correct	0back	Block4	0back/STIM_013.jpg
2619.656	0.638	correct	0back	Block4	0back/STIM_013.jpg
2623.488	0.373	correct	0back	Block4	0back/STIM_014.jpg
2627.222	0.852	incorrect	0back	Block4	0back/STIM_014.jpg
2631.784	0.537	correct	0back	Block4	0back/STIM_014.jpg
2634.546	0.476	correct	0back	Block4	0back/STIM_015.jpg
2637.327	0.806	correct	0back	Block4	0back/STIM_015.jpg
2640.69	0.606	correct	0back	Block4	0back/STIM_015.jpg
2643.559	0.765	correct	0back	Block4	0back/STIM_016.jpg
2647.327	0.585	correct	0back	Block4	0back/STIM_016.jpg
2650.334	0.94	correct	0back	Block4	0back/STIM_016.jpg
2655.086	0.824	correct	0back	Block4	0back/STIM_017.jpg
2658.822	0.419	correct	0back	Block4	0back/STIM_017.jpg
2662.233	0.68	correct	0back	Block4	0back/STIM_017.jpg
2666.483	0.572	correct	0back	Block4	0back/STIM_018.jpg
2669.986	0.601	correct	0back	Block4	0back/STIM_018.jpg
2673.361	0.73	correct	0back	Block4	0back/STIM_018.jpg
2676.679	0.558	correct	0back	Block4	0back/STIM_019.jpg
2679.896	0.584	correct	0back	Block4	0back/STIM_019.jpg
2682.949	0.764	correct	0back	Block4	0back/STIM_019.jpg
