onset	duration	response_time_ms	trial_type	learning_stage	stimulus	response_port
0.0	1.275	1274.7	2back	Block1	2back/STIM_000.jpg	99
4.313	1.235	1235.4	2back	Block1	2back/STIM_000.jpg	99
8.356	1.253	1253.2	2back	Block1	2back/STIM_000.jpg	100
11.528	1.292	1291.7	2back	Block1	2back/STIM_001.jpg	100
14.861	1.16	1159.9	2back	Block1	2back/STIM_001.jpg	99
17.886	1.079	1079.0	2back	Block1	2back/STIM_001.jpg	99
21.225	1.468	1467.6	2back	Block1	2back/STIM_002.jpg	99
24.834	0.732	731.5	2back	Block1	2back/STIM_002.jpg	100
29.163	1.074	1074.1	2back	Block1	2back/STIM_002.jpg	99
33.37	1.164	1163.8	2back	Block1	2back/STIM_003.jpg	99
38.253	1.149	1149.2	2back	Block1	2back/STIM_003.jpg	100
43.272	0.885	884.9	2back	Block1	2back/STIM_003.jpg	100
47.128	0.825	825.2	2back	Block1	2back/STIM_004.jpg	99
51.307	1.356	1355.8	2back	Block1	2back/STIM_004.jpg	100
56.387	1.133	1132.9	2back	Block1	2back/STIM_004.jpg	100
60.02	1.366	1365.8	2back	Block1	2back/STIM_005.jpg	100
63.738	1.246	1246.0	2back	Block1	2back/STIM_005.jpg	99
67.4	1.171	1170.7	2back	Block1	2back/STIM_005.jpg	100
71.282	1.344	1343.8	2back	Block1	2back/STIM_006.jpg	100
74.942	1.373	1372.6	2back	Block1	2back/STIM_006.jpg	100
79.753	1.318	1317.7	2back	Block1	2back/STIM_006.jpg	100
82.909	1.384	1384.0	2back	Block1	2back/STIM_007.jpg	99
87.746	1.07	1069.5	2back	Block1	2back/STIM_007.jpg	99
92.447	0.961	960.7	2back	Block1	2back/STIM_007.jpg	99
95.583	1.426	1425.7	2back	Block1	2back/STIM_008.jpg	100
100.477	0.933	933.0	2back	Block1	2back/STIM_008.jpg	99
103.919	1.16	1160.4	2back	Block1	2back/STIM_008.jpg	99
108.418	0.974	973.9	2back	Block1	2back/STIM_009.jpg	100
112.564	0.743	743.2	2back	Block1	2back/STIM_009.jpg	100
116.4	0.55	550.4	2back	Block1	2back/STIM_009.jpg	100
119.259	1.276	1276.2	2back	Block1	2back/STIM_010.jpg	100
122.87	0.731	731.4	2back	Block1	2back/STIM_010.jpg	100
127.266	1.176	1176.3	2back	Block1	2back/STIM_010.jpg	100
131.682	1.141	1140.6	2back	Block1	2back/STIM_011.jpg	99
135.11	1.369	1369.2	2back	Block1	2back/STIM_011.jpg	100
138.554	0.727	726.9	2back	Block1	2back/STIM_011.jpg	100
143.065	1.312	1312.5	2back	Block1	2back/STIM_012.jpg	99
147.977	1.333	1332.6	2back	Block1	2back/STIM_012.jpg	100
153.041	0.989	989.4	2back	Block1	2back/STIM_012.jpg	99
156.736	0.705	705.1	2back	Block1	2back/STIM_013.jpg	100
160.147	0.793	792.8	2back	Block1	2back/STIM_013.jpg	99
163.796	0.872	871.6	2back	Block1	2back/STIM_013.jpg	99
167.543	1.241	1240.9	2back	Block1	2back/STIM_014.jpg	100
171.401	0.705	705.3	2back	Block1	2back/STIM_014.jpg	99
174.516	0.705	705.1	2back	Block1	2back/STIM_014.jpg	100
178.777	1.477	1477.1	2back	Block1	2back/STIM_015.jpg	99
184.06	1.308	1307.5	2back	Block1	2back/STIM_015.jpg	99
189.033	1.028	1027.8	2back	Block1	2back/STIM_015.jpg	100
192.477	1.505	1505.4	2back	Block1	2back/STIM_016.jpg	100
197.222	0.833	832.8	2back	Block1	2back/STIM_016.jpg	99
200.98	1.023	1023.3	2back	Block1	2back/STIM_016.jpg	99
203.969	1.012	1012.1	2back	Block1	2back/STIM_017.jpg	100
207.991	1.064	1064.1	2back	Block1	2back/STIM_017.jpg	100
212.166	0.602	601.9	2back	Block1	2back/STIM_017.jpg	99
215.263	1.521	1521.3	2back	Block1	2back/STIM_018.jpg	99
218.706	0.619	619.3	2back	Block1	2back/STIM_018.jpg	99
222.037	0.822	821.7	2back	Block1	2back/STIM_018.jpg	99
226.71	0.903	903.3	2back	Block1	2back/STIM_019.jpg	100
229.549	0.929	928.8	2back	Block1	2back/STIM_019.jpg	99
233.508	1.052	1052.5	2back	Block1	2back/STIM_019.jpg	100
236.48	1.312	1312.0	2back	Block1	2back/STIM_020.jpg	100
240.817	0.941	940.8	2back	Block1	2back/STIM_020.jpg	100
245.404	0.645	644.9	2back	Block1	2back/STIM_020.jpg	100
248.222	1.236	1235.8	2back	Block1	2back/STIM_021.jpg	99
252.527	0.674	674.0	2back	Block1	2back/STIM_021.jpg	99
256.049	0.701	701.3	2back	Block1	2back/STIM_021.jpg	99
258.978	1.183	1183.1	2back	Block1	2back/STIM_022.jpg	99
263.925	1.392	1392.1	2back	Block1	2back/STIM_022.jpg	100
267.851	1.194	1193.9	2back	Block1	2back/STIM_022.jpg	100
272.434	0.844	843.8	2back	Block1	2back/STIM_023.jpg	100
275.585	1.273	1273.4	2back	Block1	2back/STIM_023.jpg	99
279.728	0.649	648.9	2back	Block1	2back/STIM_023.jpg	100
284.037	0.954	954.1	2back	Block1	2back/STIM_024.jpg	99
287.465	0.989	989.2	2back	Block1	2back/STIM_024.jpg	100
290.93	0.819	819.4	2back	Block1	2back/STIM_024.jpg	99
294.753	0.615	615.0	2back	Block1	2back/STIM_025.jpg	99
298.161	0.797	796.8	2back	Block1	2back/STIM_025.jpg	100
301.073	0.774	774.5	2back	Block1	2back/STIM_025.jpg	99
305.579	0.921	920.6	2back	Block1	2back/STIM_026.jpg	99
308.73	0.88	880.1	2back	Block1	2back/STIM_026.jpg	99
312.254	1.408	1408.4	2back	Block1	2back/STIM_026.jpg	100
316.456	0.908	908.0	2back	Block1	2back/STIM_027.jpg	99
321.257	1.354	1353.7	2back	Block1	2back/STIM_027.jpg	100
324.777	0.898	897.7	2back	Block1	2back/STIM_027.jpg	100
328.454	1.339	1338.8	2back	Block1	2back/STIM_028.jpg	100
331.809	0.964	964.5	2back	Block1	2back/STIM_028.jpg	99
336.42	0.973	972.8	2back	Block1	2back/STIM_028.jpg	100
339.923	0.912	911.9	2back	Block1	2back/STIM_029.jpg	100
342.926	1.336	1336.3	2back	Block1	2back/STIM_029.jpg	100
346.162	1.281	1281.0	2back	Block1	2back/STIM_029.jpg	100
350.705	1.107	1107.4	2back	Block1	2back/STIM_030.jpg	100
353.966	1.528	1528.2	2back	Block1	2back/STIM_030.jpg	100
358.811	1.198	1198.4	2back	Block1	2back/STIM_030.jpg	99
363.178	1.439	1439.2	2back	Block1	2back/STIM_031.jpg	100
367.51	0.719	718.9	2back	Block1	2back/STIM_031.jpg	100
371.098	0.985	984.7	2back	Block1	2back/STIM_031.jpg	100
375.514	1.37	1369.5	2back	Block1	2back/STIM_032.jpg	99
379.339	1.336	1335.8	2back	Block1	2back/STIM_032.jpg	100
384.431	0.884	884.0	2back	Block1	2back/STIM_032.jpg	100
387.51	1.138	1138.0	2back	Block1	2back/STIM_033.jpg	99
391.918	0.603	603.1	2back	Block1	2back/STIM_033.jpg	100
396.264	0.816	815.9	2back	Block1	2back/STIM_033.jpg	99
399.935	1.19	1190.2	2back	Block1	2back/STIM_034.jpg	100
404.294	1.263	1263.1	2back	Block1	2back/STIM_034.jpg	100
408.342	1.021	1020.8	2back	Block1	2back/STIM_034.jpg	100
412.087	1.515	1514.8	2back	Block1	2back/STIM_035.jpg	99
415.672	1.087	1087.3	2back	Block1	2back/STIM_035.jpg	100
420.169	1.111	1110.7	2back	Block1	2back/STIM_035.jpg	100
423.67	0.737	736.8	2back	Block1	2back/STIM_036.jpg	99
426.664	0.825	825.0	2back	Block1	2back/STIM_036.jpg	100
431.382	0.891	891.3	2back	Block1	2back/STIM_036.jpg	99
434.976	0.814	814.4	2back	Block1	2back/STIM_037.jpg	99
438.359	1.181	1181.2	2back	Block1	2back/STIM_037.jpg	99
442.142	0.87	869.6	2back	Block1	2back/STIM_037.jpg	99
445.337	0.804	804.4	2back	Block1	2back/STIM_038.jpg	100
449.201	1.248	1247.9	2back	Block1	2back/STIM_038.jpg	99
452.584	1.066	1066.0	2back	Block1	2back/STIM_038.jpg	99
457.442	0.698	697.9	2back	Block1	2back/STIM_039.jpg	100
461.492	1.408	1408.1	2back	Block1	2back/STIM_039.jpg	100
465.102	1.202	1202.4	2back	Block1	2back/STIM_039.jpg	100
468.723	0.872	871.7	0back	Block1	0back/STIM_000.jpg	99
472.976	0.452	451.5	0back	Block1	0back/STIM_000.jpg	99
477.274	0.599	599.2	0back	Block1	0back/STIM_000.jpg	99
481.5	0.538	537.8	0back	Block1	0back/STIM_001.jpg	100
485.895	0.633	633.3	0back	Block1	0back/STIM_001.jpg	99
488.978	0.495	494.9	0back	Block1	0back/STIM_001.jpg	99
492.331	0.831	830.7	0back	Block1	0back/STIM_002.jpg	99
495.549	0.781	780.9	0back	Block1	0back/STIM_002.jpg	100
498.591	0.83	829.9	0back	Block1	0back/STIM_002.jpg	100
502.564	0.892	892.5	0back	Block1	0back/STIM_003.jpg	100
506.543	0.675	674.8	0back	Block1	0back/STIM_003.jpg	99
510.894	0.772	772.0	0back	Block1	0back/STIM_003.jpg	100
514.192	0.831	831.1	0back	Block1	0back/STIM_004.jpg	99
518.341	0.584	583.6	0back	Block1	0back/STIM_004.jpg	100
521.286	0.576	576.3	0back	Block1	0back/STIM_004.jpg	100
525.649	0.599	599.1	0back	Block1	0back/STIM_005.jpg	100
529.092	0.506	506.5	0back	Block1	0back/STIM_005.jpg	100
532.106	0.737	736.7	0back	Block1	0back/STIM_005.jpg	100
536.563	0.449	449.3	0back	Block1	0back/STIM_006.jpg	100
540.004	0.545	544.7	0back	Block1	0back/STIM_006.jpg	99
544.374	0.354	354.0	0back	Block1	0back/STIM_006.jpg	100
548.203	0.751	750.8	0back	Block1	0back/STIM_007.jpg	100
551.98	0.792	792.0	0back	Block1	0back/STIM_007.jpg	100
555.602	0.665	664.8	0back	Block1	0back/STIM_007.jpg	100
559.402	0.68	680.1	0back	Block1	0back/STIM_008.jpg	100
563.165	0.627	626.6	0back	Block1	0back/STIM_008.jpg	100
567.417	0.354	354.4	0back	Block1	0back/STIM_008.jpg	99
570.232	0.508	507.9	0back	Block1	0back/STIM_009.jpg	100
572.869	0.794	793.8	0back	Block1	0back/STIM_009.jpg	99
576.13	0.759	758.7	0back	Block1	0back/STIM_009.jpg	100
580.197	0.713	713.3	0back	Block1	0back/STIM_010.jpg	99
583.068	0.838	837.5	0back	Block1	0back/STIM_010.jpg	100
585.886	0.556	555.6	0back	Block1	0back/STIM_010.jpg	100
589.577	0.584	584.0	0back	Block1	0back/STIM_011.jpg	99
593.282	0.459	459.4	0back	Block1	0back/STIM_011.jpg	100
597.459	0.445	445.4	0back	Block1	0back/STIM_011.jpg	100
601.528	0.452	451.9	0back	Block1	0back/STIM_012.jpg	100
605.019	0.925	925.2	0back	Block1	0back/STIM_012.jpg	100
609.741	0.54	540.0	0back	Block1	0back/STIM_012.jpg	100
613.163	0.671	671.0	0back	Block1	0back/STIM_013.jpg	99
617.026	0.479	479.0	0back	Block1	0back/STIM_013.jpg	100
620.733	0.812	812.5	0back	Block1	0back/STIM_013.jpg	99
623.711	0.566	565.6	0back	Block1	0back/STIM_014.jpg	100
626.676	0.623	622.6	0back	Block1	0back/STIM_014.jpg	99
629.563	0.603	603.2	0back	Block1	0back/STIM_014.jpg	100
634.206	0.486	486.2	0back	Block1	0back/STIM_015.jpg	100
638.486	0.536	536.5	0back	Block1	0back/STIM_015.jpg	99
641.481	0.796	796.4	0back	Block1	0back/STIM_015.jpg	100
645.595	0.875	875.4	0back	Block1	0back/STIM_016.jpg	100
650.015	0.711	711.4	0back	Block1	0back/STIM_016.jpg	99
654.174	0.767	766.9	0back	Block1	0back/STIM_016.jpg	99
657.879	0.824	824.5	0back	Block1	0back/STIM_017.jpg	100
661.72	0.666	665.5	0back	Block1	0back/STIM_017.jpg	99
665.681	0.508	507.9	0back	Block1	0back/STIM_017.jpg	100
668.256	0.742	741.6	0back	Block1	0back/STIM_018.jpg	99
671.311	0.5	500.4	0back	Block1	0back/STIM_018.jpg	99
674.482	0.597	597.3	0back	Block1	0back/STIM_018.jpg	99
678.282	0.683	683.0	0back	Block1	0back/STIM_019.jpg	99
680.897	0.525	524.9	0back	Block1	0back/STIM_019.jpg	99
683.501	0.527	527.4	0back	Block1	0back/STIM_019.jpg	100
686.364	1.17	1169.9	2back	Block2	2back/STIM_000.jpg	100
691.35	0.569	568.9	2back	Block2	2back/STIM_000.jpg	99
694.473	0.587	587.0	2back	Block2	2back/STIM_000.jpg	100
698.658	0.542	541.8	2back	Block2	2back/STIM_001.jpg	99
702.199	1.045	1044.7	2back	Block2	2back/STIM_001.jpg	100
706.755	1.056	1055.5	2back	Block2	2back/STIM_001.jpg	100
711.077	1.151	1150.9	2back	Block2	2back/STIM_002.jpg	99
714.443	0.535	534.6	2back	Block2	2back/STIM_002.jpg	99
718.079	0.984	983.6	2back	Block2	2back/STIM_002.jpg	99
721.011	0.896	896.0	2back	Block2	2back/STIM_003.jpg	100
724.047	0.87	870.1	2back	Block2	2back/STIM_003.jpg	100
728.412	0.804	803.5	2back	Block2	2back/STIM_003.jpg	100
731.511	0.79	790.4	2back	Block2	2back/STIM_004.jpg	99
734.485	0.556	556.2	2back	Block2	2back/STIM_004.jpg	99
737.451	0.753	753.3	2back	Block2	2back/STIM_004.jpg	99
740.698	0.948	947.6	2back	Block2	2back/STIM_005.jpg	100
744.033	0.771	771.0	2back	Block2	2back/STIM_005.jpg	99
747.743	1.043	1042.6	2back	Block2	2back/STIM_005.jpg	99
750.838	1.257	1256.9	2back	Block2	2back/STIM_006.jpg	99
755.759	0.537	537.2	2back	Block2	2back/STIM_006.jpg	99
760.179	0.706	705.9	2back	Block2	2back/STIM_006.jpg	99
764.615	0.721	721.3	2back	Block2	2back/STIM_007.jpg	99
768.003	1.164	1163.6	2back	Block2	2back/STIM_007.jpg	100
772.592	0.611	611.4	2back	Block2	2back/STIM_007.jpg	100
776.597	0.611	611.0	2back	Block2	2back/STIM_008.jpg	100
780.782	0.791	790.8	2back	Block2	2back/STIM_008.jpg	100
784.538	0.863	862.7	2back	Block2	2back/STIM_008.jpg	100
788.119	0.882	882.2	2back	Block2	2back/STIM_009.jpg	99
791.937	0.647	647.0	2back	Block2	2back/STIM_009.jpg	100
796.374	0.891	891.3	2back	Block2	2back/STIM_009.jpg	100
800.762	0.859	858.7	2back	Block2	2back/STIM_010.jpg	99
805.493	0.58	580.4	2back	Block2	2back/STIM_010.jpg	99
808.869	0.648	648.1	2back	Block2	2back/STIM_010.jpg	99
811.639	0.876	875.6	2back	Block2	2back/STIM_011.jpg	100
814.692	0.734	733.6	2back	Block2	2back/STIM_011.jpg	100
817.561	0.654	654.0	2back	Block2	2back/STIM_011.jpg	99
820.977	0.68	680.1	2back	Block2	2back/STIM_012.jpg	100
824.133	0.743	743.3	2back	Block2	2back/STIM_012.jpg	99
828.045	0.529	529.2	2back	Block2	2back/STIM_012.jpg	100
831.117	1.233	1232.9	2back	Block2	2back/STIM_013.jpg	99
834.481	0.518	518.5	2back	Block2	2back/STIM_013.jpg	100
837.536	0.599	599.0	2back	Block2	2back/STIM_013.jpg	99
841.712	0.968	967.9	2back	Block2	2back/STIM_014.jpg	99
845.93	0.928	927.8	2back	Block2	2back/STIM_014.jpg	99
850.707	0.585	585.1	2back	Block2	2back/STIM_014.jpg	99
854.744	0.804	804.1	2back	Block2	2back/STIM_015.jpg	99
859.365	0.61	610.5	2back	Block2	2back/STIM_015.jpg	99
862.703	0.897	897.0	2back	Block2	2back/STIM_015.jpg	99
867.191	1.17	1170.2	2back	Block2	2back/STIM_016.jpg	99
872.004	0.658	657.6	2back	Block2	2back/STIM_016.jpg	100
874.966	1.068	1067.9	2back	Block2	2back/STIM_016.jpg	100
878.468	1.008	1007.7	2back	Block2	2back/STIM_017.jpg	100
881.874	1.184	1183.7	2back	Block2	2back/STIM_017.jpg	99
886.83	0.571	570.6	2back	Block2	2back/STIM_017.jpg	99
891.015	1.218	1218.0	2back	Block2	2back/STIM_018.jpg	100
895.874	0.957	956.8	2back	Block2	2back/STIM_018.jpg	100
898.802	0.785	784.8	2back	Block2	2back/STIM_018.jpg	99
901.979	0.996	995.8	2back	Block2	2back/STIM_019.jpg	99
905.804	0.592	592.1	2back	Block2	2back/STIM_019.jpg	100
909.568	1.031	1030.6	2back	Block2	2back/STIM_019.jpg	100
913.086	0.776	776.3	2back	Block2	2back/STIM_020.jpg	100
917.147	0.87	869.8	2back	Block2	2back/STIM_020.jpg	100
920.819	0.972	972.0	2back	Block2	2back/STIM_020.jpg	100
924.42	1.038	1038.2	2back	Block2	2back/STIM_021.jpg	100
929.136	1.086	1086.1	2back	Block2	2back/STIM_021.jpg	100
932.908	1.211	1210.7	2back	Block2	2back/STIM_021.jpg	100
936.975	0.86	860.1	2back	Block2	2back/STIM_022.jpg	99
941.127	0.614	613.5	2back	Block2	2back/STIM_022.jpg	99
944.154	0.9	900.4	2back	Block2	2back/STIM_022.jpg	100
948.962	1.018	1018.2	2back	Block2	2back/STIM_023.jpg	100
951.996	0.873	873.0	2back	Block2	2back/STIM_023.jpg	99
956.67	0.633	632.9	2back	Block2	2back/STIM_023.jpg	100
959.377	0.972	972.5	2back	Block2	2back/STIM_024.jpg	100
963.402	0.672	672.5	2back	Block2	2back/STIM_024.jpg	100
967.846	0.627	626.9	2back	Block2	2back/STIM_024.jpg	99
971.264	1.05	1050.3	2back	Block2	2back/STIM_025.jpg	99
974.876	0.755	754.8	2back	Block2	2back/STIM_025.jpg	99
978.172	0.681	681.4	2back	Block2	2back/STIM_025.jpg	99
981.339	1.052	1052.4	2back	Block2	2back/STIM_026.jpg	99
985.094	1.111	1111.1	2back	Block2	2back/STIM_026.jpg	100
989.277	0.876	875.9	2back	Block2	2back/STIM_026.jpg	99
992.55	0.725	724.8	2back	Block2	2back/STIM_027.jpg	99
997.037	1.084	1083.9	2back	Block2	2back/STIM_027.jpg	99
1001.374	0.497	496.9	2back	Block2	2back/STIM_027.jpg	99
1004.826	1.023	1022.6	2back	Block2	2back/STIM_028.jpg	100
1008.932	1.03	1029.6	2back	Block2	2back/STIM_028.jpg	99
1012.35	1.11	1110.0	2back	Block2	2back/STIM_028.jpg	99
1015.916	1.279	1278.8	2back	Block2	2back/STIM_029.jpg	100
1020.632	0.467	466.9	2back	Block2	2back/STIM_029.jpg	99
1023.755	1.019	1019.1	2back	Block2	2back/STIM_029.jpg	99
1027.92	0.688	688.5	2back	Block2	2back/STIM_030.jpg	100
1031.384	0.514	513.7	2back	Block2	2back/STIM_030.jpg	100
1035.835	0.853	853.1	2back	Block2	2back/STIM_030.jpg	100
1040.35	1.282	1281.5	2back	Block2	2back/STIM_031.jpg	99
1044.836	1.02	1020.5	2back	Block2	2back/STIM_031.jpg	99
1048.306	0.649	649.2	2back	Block2	2back/STIM_031.jpg	99
1052.42	1.078	1078.3	2back	Block2	2back/STIM_032.jpg	100
1056.037	0.667	666.7	2back	Block2	2back/STIM_032.jpg	99
1058.927	0.717	717.4	2back	Block2	2back/STIM_032.jpg	99
1062.404	0.53	529.9	2back	Block2	2back/STIM_033.jpg	100
1066.882	1.069	1069.0	2back	Block2	2back/STIM_033.jpg	99
1070.596	0.846	846.0	2back	Block2	2back/STIM_033.jpg	99
1073.779	1.138	1138.0	2back	Block2	2back/STIM_034.jpg	99
1077.173	0.991	991.2	2back	Block2	2back/STIM_034.jpg	99
1081.879	0.886	885.5	2back	Block2	2back/STIM_034.jpg	100
1086.501	0.896	896.3	2back	Block2	2back/STIM_035.jpg	99
1090.881	0.706	705.8	2back	Block2	2back/STIM_035.jpg	100
1094.038	0.614	614.2	2back	Block2	2back/STIM_035.jpg	100
1096.884	1.146	1146.0	2back	Block2	2back/STIM_036.jpg	99
1100.629	1.177	1177.0	2back	Block2	2back/STIM_036.jpg	99
1104.698	0.747	746.9	2back	Block2	2back/STIM_036.jpg	99
1107.906	0.69	689.9	2back	Block2	2back/STIM_037.jpg	99
1112.246	1.048	1048.2	2back	Block2	2back/STIM_037.jpg	99
1116.255	1.071	1070.7	2back	Block2	2back/STIM_037.jpg	99
1119.565	0.919	919.2	2back	Block2	2back/STIM_038.jpg	100
1122.959	1.079	1078.9	2back	Block2	2back/STIM_038.jpg	99
1126.36	0.884	883.8	2back	Block2	2back/STIM_038.jpg	99
1131.174	0.703	703.3	2back	Block2	2back/STIM_039.jpg	99
1134.925	0.563	562.8	2back	Block2	2back/STIM_039.jpg	99
1139.097	0.786	786.2	2back	Block2	2back/STIM_039.jpg	100
1142.789	0.526	526.5	0back	Block2	0back/STIM_000.jpg	99
1146.767	0.689	689.2	0back	Block2	0back/STIM_000.jpg	99
1150.166	0.496	495.7	0back	Block2	0back/STIM_000.jpg	100
1153.144	0.588	588.3	0back	Block2	0back/STIM_001.jpg	99
1156.46	0.457	457.2	0back	Block2	0back/STIM_001.jpg	99
1159.942	0.693	692.8	0back	Block2	0back/STIM_001.jpg	99
1162.6	0.454	454.3	0back	Block2	0back/STIM_002.jpg	100
1166.285	0.76	759.9	0back	Block2	0back/STIM_002.jpg	100
1170.333	0.714	713.7	0back	Block2	0back/STIM_002.jpg	100
1173.015	0.655	654.7	0back	Block2	0back/STIM_003.jpg	100
1177.382	0.544	543.8	0back	Block2	0back/STIM_003.jpg	100
1180.709	0.32	319.8	0back	Block2	0back/STIM_003.jpg	100
1184.326	0.897	896.9	0back	Block2	0back/STIM_004.jpg	100
1188.072	0.332	331.9	0back	Block2	0back/STIM_004.jpg	99
1190.935	0.745	744.9	0back	Block2	0back/STIM_004.jpg	100
1194.178	0.439	438.7	0back	Block2	0back/STIM_005.jpg	100
1198.282	0.569	569.1	0back	Block2	0back/STIM_005.jpg	100
1201.657	0.598	598.5	0back	Block2	0back/STIM_005.jpg	99
1205.356	0.745	744.6	0back	Block2	0back/STIM_006.jpg	99
1208.718	0.713	713.3	0back	Block2	0back/STIM_006.jpg	99
1212.766	0.8	799.6	0back	Block2	0back/STIM_006.jpg	100
1215.869	0.769	769.2	0back	Block2	0back/STIM_007.jpg	100
1220.387	0.75	750.1	0back	Block2	0back/STIM_007.jpg	99
1223.158	0.803	802.8	0back	Block2	0back/STIM_007.jpg	100
1227.835	0.555	554.8	0back	Block2	0back/STIM_008.jpg	100
1232.292	0.728	728.2	0back	Block2	0back/STIM_008.jpg	100
1236.309	0.655	654.9	0back	Block2	0back/STIM_008.jpg	99
1239.309	0.676	675.5	0back	Block2	0back/STIM_009.jpg	100
1243.712	0.554	554.4	0back	Block2	0back/STIM_009.jpg	99
1246.793	0.832	832.5	0back	Block2	0back/STIM_009.jpg	99
1250.775	0.575	575.4	0back	Block2	0back/STIM_010.jpg	99
1255.216	0.73	729.6	0back	Block2	0back/STIM_010.jpg	99
1258.441	0.742	742.1	0back	Block2	0back/STIM_010.jpg	99
1261.785	0.554	553.5	0back	Block2	0back/STIM_011.jpg	100
1264.342	0.642	642.5	0back	Block2	0back/STIM_011.jpg	100
1267.437	0.539	538.8	0back	Block2	0back/STIM_011.jpg	99
1270.743	0.424	423.5	0back	Block2	0back/STIM_012.jpg	100
1274.784	0.685	685.3	0back	Block2	0back/STIM_012.jpg	100
1277.763	0.556	555.8	0back	Block2	0back/STIM_012.jpg	100
1281.258	0.481	480.9	0back	Block2	0back/STIM_013.jpg	100
1285.654	0.669	668.8	0back	Block2	0back/STIM_013.jpg	99
1289.783	0.747	747.1	0back	Block2	0back/STIM_013.jpg	100
1294.363	0.738	737.7	0back	Block2	0back/STIM_014.jpg	100
1297.554	0.834	833.5	0back	Block2	0back/STIM_014.jpg	100
1300.499	0.835	835.2	0back	Block2	0back/STIM_014.jpg	100
1304.451	0.665	664.9	0back	Block2	0back/STIM_015.jpg	99
1308.914	0.737	736.7	0back	Block2	0back/STIM_015.jpg	99
1313.479	0.727	727.4	0back	Block2	0back/STIM_015.jpg	100
1317.679	0.722	721.6	0back	Block2	0back/STIM_016.jpg	100
1322.288	0.527	527.0	0back	Block2	0back/STIM_016.jpg	99
1326.263	0.818	817.6	0back	Block2	0back/STIM_016.jpg	100
1330.558	0.474	474.4	0back	Block2	0back/STIM_017.jpg	99
1333.502	0.754	754.4	0back	Block2	0back/STIM_017.jpg	100
1336.715	0.661	660.9	0back	Block2	0back/STIM_017.jpg	100
1339.371	0.864	864.5	0back	Block2	0back/STIM_018.jpg	100
1342.346	0.627	626.7	0back	Block2	0back/STIM_018.jpg	100
1346.985	0.632	632.5	0back	Block2	0back/STIM_018.jpg	99
1349.82	0.649	648.6	0back	Block2	0back/STIM_019.jpg	99
1352.92	0.803	803.3	0back	Block2	0back/STIM_019.jpg	99
1356.575	0.726	726.3	0back	Block2	0back/STIM_019.jpg	100
1361.023	0.555	555.1	2back	Block3	2back/STIM_000.jpg	99
1364.804	0.53	530.1	2back	Block3	2back/STIM_000.jpg	99
1368.109	0.735	734.6	2back	Block3	2back/STIM_000.jpg	99
1371.246	0.755	754.8	2back	Block3	2back/STIM_001.jpg	100
1374.084	0.611	610.8	2back	Block3	2back/STIM_001.jpg	100
1377.04	1.025	1024.9	2back	Block3	2back/STIM_001.jpg	99
1379.969	0.767	766.8	2back	Block3	2back/STIM_002.jpg	99
1383.337	1.02	1020.2	2back	Block3	2back/STIM_002.jpg	100
1387.562	0.582	582.0	2back	Block3	2back/STIM_002.jpg	99
1391.529	0.698	697.7	2back	Block3	2back/STIM_003.jpg	100
1396.054	0.449	448.6	2back	Block3	2back/STIM_003.jpg	99
1400.262	0.56	559.7	2back	Block3	2back/STIM_003.jpg	100
1404.046	0.817	816.7	2back	Block3	2back/STIM_004.jpg	99
1407.584	0.612	612.4	2back	Block3	2back/STIM_004.jpg	99
1411.1	0.762	761.8	2back	Block3	2back/STIM_004.jpg	100
1414.606	0.933	933.2	2back	Block3	2back/STIM_005.jpg	99
1418.779	0.892	891.5	2back	Block3	2back/STIM_005.jpg	100
1422.702	0.905	905.1	2back	Block3	2back/STIM_005.jpg	100
1426.216	0.884	884.4	2back	Block3	2back/STIM_006.jpg	99
1429.41	0.895	894.9	2back	Block3	2back/STIM_006.jpg	99
1433.186	0.895	894.8	2back	Block3	2back/STIM_006.jpg	99
1437.871	0.712	712.3	2back	Block3	2back/STIM_007.jpg	99
1441.765	0.526	526.0	2back	Block3	2back/STIM_007.jpg	99
1444.618	0.657	657.2	2back	Block3	2back/STIM_007.jpg	100
1447.569	0.748	748.3	2back	Block3	2back/STIM_008.jpg	99
1450.661	0.524	523.8	2back	Block3	2back/STIM_008.jpg	100
1454.073	0.519	518.9	2back	Block3	2back/STIM_008.jpg	100
1458.0	0.91	909.6	2back	Block3	2back/STIM_009.jpg	99
1462.436	0.555	554.6	2back	Block3	2back/STIM_009.jpg	100
1466.498	0.818	817.6	2back	Block3	2back/STIM_009.jpg	100
1469.821	0.601	601.2	2back	Block3	2back/STIM_010.jpg	99
1473.423	0.992	991.5	2back	Block3	2back/STIM_010.jpg	99
1476.563	1.059	1059.4	2back	Block3	2back/STIM_010.jpg	100
1480.653	0.668	668.5	2back	Block3	2back/STIM_011.jpg	100
1483.979	0.789	789.2	2back	Block3	2back/STIM_011.jpg	100
1488.093	0.599	599.3	2back	Block3	2back/STIM_011.jpg	100
1490.809	0.93	930.0	2back	Block3	2back/STIM_012.jpg	99
1494.161	0.798	797.6	2back	Block3	2back/STIM_012.jpg	100
1497.689	1.044	1044.3	2back	Block3	2back/STIM_012.jpg	99
1501.754	0.517	517.4	2back	Block3	2back/STIM_013.jpg	99
1506.16	0.848	847.7	2back	Block3	2back/STIM_013.jpg	99
1510.531	0.634	633.7	2back	Block3	2back/STIM_013.jpg	100
1514.666	0.736	736.2	2back	Block3	2back/STIM_014.jpg	100
1517.88	0.61	609.7	2back	Block3	2back/STIM_014.jpg	100
1522.326	0.752	751.9	2back	Block3	2back/STIM_014.jpg	100
1525.583	0.823	822.7	2back	Block3	2back/STIM_015.jpg	100
1530.245	0.648	648.2	2back	Block3	2back/STIM_015.jpg	99
1533.553	0.992	992.2	2back	Block3	2back/STIM_015.jpg	100
1536.757	0.919	919.4	2back	Block3	2back/STIM_016.jpg	100
1540.271	0.75	750.4	2back	Block3	2back/STIM_016.jpg	99
1543.037	0.848	847.9	2back	Block3	2back/STIM_016.jpg	100
1546.816	0.953	952.9	2back	Block3	2back/STIM_017.jpg	100
1550.488	0.952	951.7	2back	Block3	2back/STIM_017.jpg	99
1554.421	0.745	745.2	2back	Block3	2back/STIM_017.jpg	99
1558.125	1.074	1074.0	2back	Block3	2back/STIM_018.jpg	100
1561.778	1.003	1003.3	2back	Block3	2back/STIM_018.jpg	99
1565.465	0.563	563.4	2back	Block3	2back/STIM_018.jpg	100
1568.137	0.475	475.3	2back	Block3	2back/STIM_019.jpg	99
1571.527	0.999	999.2	2back	Block3	2back/STIM_019.jpg	100
1576.14	0.954	954.3	2back	Block3	2back/STIM_019.jpg	100
1579.023	0.667	667.4	2back	Block3	2back/STIM_020.jpg	99
1582.455	0.745	744.8	2back	Block3	2back/STIM_020.jpg	100
1586.622	0.589	588.7	2back	Block3	2back/STIM_020.jpg	100
1589.774	0.951	950.7	2back	Block3	2back/STIM_021.jpg	99
1592.696	0.939	939.2	2back	Block3	2back/STIM_021.jpg	99
1596.708	0.984	983.5	2back	Block3	2back/STIM_021.jpg	100
1600.631	0.515	515.1	2back	Block3	2back/STIM_022.jpg	100
1603.221	0.885	885.1	2back	Block3	2back/STIM_022.jpg	100
1606.922	0.81	810.2	2back	Block3	2back/STIM_022.jpg	100
1611.073	0.946	945.5	2back	Block3	2back/STIM_023.jpg	100
1614.613	0.84	840.2	2back	Block3	2back/STIM_023.jpg	99
1619.326	0.813	812.6	2back	Block3	2back/STIM_023.jpg	99
1622.299	0.581	581.3	2back	Block3	2back/STIM_024.jpg	99
1624.956	0.982	982.5	2back	Block3	2back/STIM_024.jpg	100
1629.421	0.662	662.2	2back	Block3	2back/STIM_024.jpg	100
1633.222	0.69	689.5	2back	Block3	2back/STIM_025.jpg	100
1636.956	1.104	1104.3	2back	Block3	2back/STIM_025.jpg	100
1640.064	0.752	752.3	2back	Block3	2back/STIM_025.jpg	100
1643.686	0.96	960.0	2back	Block3	2back/STIM_026.jpg	99
1647.877	0.76	760.1	2back	Block3	2back/STIM_026.jpg	99
1652.218	0.566	565.5	2back	Block3	2back/STIM_026.jpg	100
1655.909	0.938	938.1	2back	Block3	2back/STIM_027.jpg	99
1658.978	0.887	887.2	2back	Block3	2back/STIM_027.jpg	99
1662.035	0.957	957.2	2back	Block3	2back/STIM_027.jpg	100
1665.75	0.726	725.7	2back	Block3	2back/STIM_028.jpg	99
1668.672	0.926	926.3	2back	Block3	2back/STIM_028.jpg	99
1672.116	0.685	685.3	2back	Block3	2back/STIM_028.jpg	99
1674.752	0.988	987.9	2back	Block3	2back/STIM_029.jpg	100
1679.324	0.605	605.4	2back	Block3	2back/STIM_029.jpg	100
1683.4	0.6	600.2	2back	Block3	2back/STIM_029.jpg	100
1687.004	1.02	1020.3	2back	Block3	2back/STIM_030.jpg	99
1691.563	0.94	940.5	2back	Block3	2back/STIM_030.jpg	99
1696.111	0.848	847.5	2back	Block3	2back/STIM_030.jpg	100
1698.972	0.51	510.2	2back	Block3	2back/STIM_031.jpg	99
1703.372	1.022	1022.1	2back	Block3	2back/STIM_031.jpg	99
1706.701	1.062	1062.5	2back	Block3	2back/STIM_031.jpg	99
1711.312	0.531	530.8	2back	Block3	2back/STIM_032.jpg	100
1715.248	0.93	930.3	2back	Block3	2back/STIM_032.jpg	99
1718.226	0.877	876.6	2back	Block3	2back/STIM_032.jpg	99
1722.803	0.796	796.2	2back	Block3	2back/STIM_033.jpg	100
1727.297	1.044	1044.4	2back	Block3	2back/STIM_033.jpg	99
1730.915	0.628	628.4	2back	Block3	2back/STIM_033.jpg	99
1735.066	0.7	700.1	2back	Block3	2back/STIM_034.jpg	99
1737.861	0.83	830.1	2back	Block3	2back/STIM_034.jpg	99
1742.022	0.707	707.4	2back	Block3	2back/STIM_034.jpg	99
1744.885	0.999	999.1	2back	Block3	2back/STIM_035.jpg	99
1748.105	0.724	724.4	2back	Block3	2back/STIM_035.jpg	99
1751.533	0.933	933.4	2back	Block3	2back/STIM_035.jpg	99
1754.821	0.992	992.5	2back	Block3	2back/STIM_036.jpg	99
1759.201	0.863	862.6	2back	Block3	2back/STIM_036.jpg	99
1762.879	0.681	680.7	2back	Block3	2back/STIM_036.jpg	99
1765.611	0.467	467.4	2back	Block3	2back/STIM_037.jpg	99
1768.548	1.015	1015.0	2back	Block3	2back/STIM_037.jpg	100
1772.885	1.039	1038.8	2back	Block3	2back/STIM_037.jpg	99
1777.466	0.886	886.2	2back	Block3	2back/STIM_038.jpg	99
1781.754	0.632	631.5	2back	Block3	2back/STIM_038.jpg	100
1784.744	0.599	599.0	2back	Block3	2back/STIM_038.jpg	99
1788.521	0.729	729.4	2back	Block3	2back/STIM_039.jpg	100
1793.048	0.575	575.3	2back	Block3	2back/STIM_039.jpg	100
1796.868	0.522	522.5	2back	Block3	2back/STIM_039.jpg	100
1800.03	0.581	581.4	0back	Block3	0back/STIM_000.jpg	100
1804.477	0.511	511.5	0back	Block3	0back/STIM_000.jpg	99
1807.972	0.804	803.5	0back	Block3	0back/STIM_000.jpg	100
1811.455	0.628	628.5	0back	Block3	0back/STIM_001.jpg	99
1814.953	0.864	864.2	0back	Block3	0back/STIM_001.jpg	99
1818.844	0.809	808.6	0back	Block3	0back/STIM_001.jpg	100
1822.406	0.582	581.7	0back	Block3	0back/STIM_002.jpg	99
1825.978	0.531	530.8	0back	Block3	0back/STIM_002.jpg	99
1829.589	0.562	561.9	0back	Block3	0back/STIM_002.jpg	100
1832.331	0.646	645.9	0back	Block3	0back/STIM_003.jpg	100
1835.478	0.77	770.1	0back	Block3	0back/STIM_003.jpg	99
1839.646	0.685	684.8	0back	Block3	0back/STIM_003.jpg	99
1843.664	0.715	715.3	0back	Block3	0back/STIM_004.jpg	99
1846.787	0.742	741.8	0back	Block3	0back/STIM_004.jpg	100
1851.355	0.539	538.6	0back	Block3	0back/STIM_004.jpg	100
1855.27	0.82	820.3	0back	Block3	0back/STIM_005.jpg	99
1859.972	0.461	460.7	0back	Block3	0back/STIM_005.jpg	99
1863.192	0.605	605.4	0back	Block3	0back/STIM_005.jpg	100
1867.175	0.693	693.0	0back	Block3	0back/STIM_006.jpg	99
1871.086	0.905	905.4	0back	Block3	0back/STIM_006.jpg	100
1875.256	0.899	899.2	0back	Block3	0back/STIM_006.jpg	99
1878.81	0.749	749.0	0back	Block3	0back/STIM_007.jpg	100
1882.976	0.89	890.5	0back	Block3	0back/STIM_007.jpg	100
1886.177	0.888	887.5	0back	Block3	0back/STIM_007.jpg	99
1889.579	0.727	727.1	0back	Block3	0back/STIM_008.jpg	99
1894.124	0.653	652.9	0back	Block3	0back/STIM_008.jpg	99
1897.359	0.792	792.2	0back	Block3	0back/STIM_008.jpg	100
1900.78	0.558	557.7	0back	Block3	0back/STIM_009.jpg	99
1903.945	0.482	482.4	0back	Block3	0back/STIM_009.jpg	100
1907.878	0.583	583.4	0back	Block3	0back/STIM_009.jpg	100
1912.323	0.572	571.9	0back	Block3	0back/STIM_010.jpg	99
1915.429	0.555	555.0	0back	Block3	0back/STIM_010.jpg	99
1918.415	0.848	848.4	0back	Block3	0back/STIM_010.jpg	100
1922.61	0.876	876.5	0back	Block3	0back/STIM_011.jpg	99
1925.874	0.763	762.9	0back	Block3	0back/STIM_011.jpg	100
1929.361	0.646	646.0	0back	Block3	0back/STIM_011.jpg	99
1933.757	0.882	882.4	0back	Block3	0back/STIM_012.jpg	99
1937.076	0.597	597.2	0back	Block3	0back/STIM_012.jpg	100
1941.64	0.796	795.9	0back	Block3	0back/STIM_012.jpg	100
1944.569	0.498	497.6	0back	Block3	0back/STIM_013.jpg	99
1948.34	0.614	613.8	0back	Block3	0back/STIM_013.jpg	99
1952.004	0.733	733.1	0back	Block3	0back/STIM_013.jpg	100
1955.065	0.442	442.4	0back	Block3	0back/STIM_014.jpg	100
1957.579	0.648	647.6	0back	Block3	0back/STIM_014.jpg	99
1961.009	0.8	799.5	0back	Block3	0back/STIM_014.jpg	99
1965.32	0.886	886.2	0back	Block3	0back/STIM_015.jpg	100
1969.618	0.735	734.6	0back	Block3	0back/STIM_015.jpg	100
1972.887	0.558	557.9	0back	Block3	0back/STIM_015.jpg	99
1976.465	0.558	557.6	0back	Block3	0back/STIM_016.jpg	99
1979.971	0.553	553.4	0back	Block3	0back/STIM_016.jpg	99
1984.413	0.5	499.8	0back	Block3	0back/STIM_016.jpg	99
1988.735	0.794	793.7	0back	Block3	0back/STIM_017.jpg	99
1993.39	0.76	760.0	0back	Block3	0back/STIM_017.jpg	99
1997.966	0.405	405.2	0back	Block3	0back/STIM_017.jpg	100
2000.76	0.436	436.1	0back	Block3	0back/STIM_018.jpg	100
2004.73	0.779	779.2	0back	Block3	0back/STIM_018.jpg	99
2009.013	0.777	776.7	0back	Block3	0back/STIM_018.jpg	100
2013.132	0.692	691.9	0back	Block3	0back/STIM_019.jpg	100
2017.404	0.762	762.3	0back	Block3	0back/STIM_019.jpg	100
2021.408	0.849	849.1	0back	Block3	0back/STIM_019.jpg	100
2025.077	0.59	589.7	2back	Block4	2back/STIM_000.jpg	99
2027.884	0.81	810.4	2back	Block4	2back/STIM_000.jpg	100
2031.581	0.505	505.2	2back	Block4	2back/STIM_000.jpg	99
2035.389	0.479	479.1	2back	Block4	2back/STIM_001.jpg	99
2037.911	0.684	683.9	2back	Block4	2back/STIM_001.jpg	100
2041.316	0.684	684.1	2back	Block4	2back/STIM_001.jpg	99
2044.592	0.897	897.0	2back	Block4	2back/STIM_002.jpg	100
2047.514	0.54	540.1	2back	Block4	2back/STIM_002.jpg	99
2050.945	0.602	601.7	2back	Block4	2back/STIM_002.jpg	100
2054.128	0.519	519.1	2back	Block4	2back/STIM_003.jpg	100
2056.663	1.01	1010.0	2back	Block4	2back/STIM_003.jpg	100
2061.164	0.851	851.1	2back	Block4	2back/STIM_003.jpg	99
2065.455	0.944	943.5	2back	Block4	2back/STIM_004.jpg	100
2069.152	0.769	768.8	2back	Block4	2back/STIM_004.jpg	100
2073.093	0.928	927.9	2back	Block4	2back/STIM_004.jpg	99
2077.857	1.035	1034.7	2back	Block4	2back/STIM_005.jpg	99
2081.9	0.737	737.4	2back	Block4	2back/STIM_005.jpg	99
2084.93	0.48	480.5	2back	Block4	2back/STIM_005.jpg	100
2088.349	0.763	763.0	2back	Block4	2back/STIM_006.jpg	99
2091.233	0.612	611.6	2back	Block4	2back/STIM_006.jpg	99
2094.401	0.574	574.1	2back	Block4	2back/STIM_006.jpg	99
2097.791	0.618	617.8	2back	Block4	2back/STIM_007.jpg	100
2101.25	0.591	591.4	2back	Block4	2back/STIM_007.jpg	100
2104.829	0.551	551.1	2back	Block4	2back/STIM_007.jpg	100
2108.709	0.496	496.4	2back	Block4	2back/STIM_008.jpg	100
2111.42	0.894	894.0	2back	Block4	2back/STIM_008.jpg	99
2114.882	0.417	417.4	2back	Block4	2back/STIM_008.jpg	99
2119.052	1.1	1100.3	2back	Block4	2back/STIM_009.jpg	99
2123.782	1.08	1080.4	2back	Block4	2back/STIM_009.jpg	99
2127.642	0.963	963.3	2back	Block4	2back/STIM_009.jpg	100
2131.354	0.565	564.8	2back	Block4	2back/STIM_010.jpg	100
2134.249	0.553	553.0	2back	Block4	2back/STIM_010.jpg	99
2138.787	0.953	952.8	2back	Block4	2back/STIM_010.jpg	100
2143.513	0.887	886.8	2back	Block4	2back/STIM_011.jpg	100
2147.22	0.436	435.7	2back	Block4	2back/STIM_011.jpg	99
2151.185	0.693	692.6	2back	Block4	2back/STIM_011.jpg	100
2155.6	0.762	761.6	2back	Block4	2back/STIM_012.jpg	100
2158.857	0.513	512.9	2back	Block4	2back/STIM_012.jpg	99
2162.891	0.962	961.9	2back	Block4	2back/STIM_012.jpg	99
2167.016	0.694	694.1	2back	Block4	2back/STIM_013.jpg	99
2170.766	1.075	1074.9	2back	Block4	2back/STIM_013.jpg	99
2174.554	0.592	592.5	2back	Block4	2back/STIM_013.jpg	100
2179.187	0.727	726.6	2back	Block4	2back/STIM_014.jpg	99
2183.716	0.63	630.3	2back	Block4	2back/STIM_014.jpg	99
2188.221	0.424	423.5	2back	Block4	2back/STIM_014.jpg	100
2192.07	0.701	701.2	2back	Block4	2back/STIM_015.jpg	100
2195.379	1.029	1029.4	2back	Block4	2back/STIM_015.jpg	100
2199.536	0.9	899.5	2back	Block4	2back/STIM_015.jpg	100
2202.653	0.801	801.3	2back	Block4	2back/STIM_016.jpg	100
2207.187	0.637	637.0	2back	Block4	2back/STIM_016.jpg	99
2210.525	0.779	778.7	2back	Block4	2back/STIM_016.jpg	99
2213.794	0.472	472.4	2back	Block4	2back/STIM_017.jpg	100
2216.925	0.886	885.7	2back	Block4	2back/STIM_017.jpg	99
2220.369	0.721	721.2	2back	Block4	2back/STIM_017.jpg	99
2224.479	0.598	598.5	2back	Block4	2back/STIM_018.jpg	99
2227.35	0.901	900.8	2back	Block4	2back/STIM_018.jpg	100
2231.278	1.056	1056.2	2back	Block4	2back/STIM_018.jpg	99
2234.331	0.595	594.7	2back	Block4	2back/STIM_019.jpg	100
2237.891	1.029	1029.0	2back	Block4	2back/STIM_019.jpg	99
2241.058	0.564	564.3	2back	Block4	2back/STIM_019.jpg	100
2245.334	0.859	859.0	2back	Block4	2back/STIM_020.jpg	99
2248.306	0.912	912.1	2back	Block4	2back/STIM_020.jpg	100
2252.333	0.898	898.4	2back	Block4	2back/STIM_020.jpg	100
2257.066	0.813	812.9	2back	Block4	2back/STIM_021.jpg	99
2259.884	0.944	943.6	2back	Block4	2back/STIM_021.jpg	99
2263.582	1.012	1011.5	2back	Block4	2back/STIM_021.jpg	99
2268.346	0.705	704.7	2back	Block4	2back/STIM_022.jpg	100
2272.613	0.614	613.9	2back	Block4	2back/STIM_022.jpg	100
2275.749	0.65	650.1	2back	Block4	2back/STIM_022.jpg	99
2278.414	0.955	955.2	2back	Block4	2back/STIM_023.jpg	100
2283.147	0.482	482.1	2back	Block4	2back/STIM_023.jpg	100
2287.203	0.876	876.0	2back	Block4	2back/STIM_023.jpg	100
2291.242	0.542	541.6	2back	Block4	2back/STIM_024.jpg	99
2294.548	0.99	990.1	2back	Block4	2back/STIM_024.jpg	99
2297.964	0.452	452.4	2back	Block4	2back/STIM_024.jpg	99
2301.7	0.89	889.6	2back	Block4	2back/STIM_025.jpg	100
2304.753	0.962	962.2	2back	Block4	2back/STIM_025.jpg	100
2309.321	0.584	584.0	2back	Block4	2back/STIM_025.jpg	100
2311.967	0.697	697.0	2back	Block4	2back/STIM_026.jpg	100
2315.871	0.442	442.0	2back	Block4	2back/STIM_026.jpg	99
2319.685	0.622	622.5	2back	Block4	2back/STIM_026.jpg	99
2322.385	0.63	630.1	2back	Block4	2back/STIM_027.jpg	100
2325.738	0.501	500.8	2back	Block4	2back/STIM_027.jpg	100
2330.2	0.795	794.7	2back	Block4	2back/STIM_027.jpg	99
2334.438	0.892	891.8	2back	Block4	2back/STIM_028.jpg	100
2337.706	0.917	916.9	2back	Block4	2back/STIM_028.jpg	99
2342.329	0.48	480.1	2back	Block4	2back/STIM_028.jpg	100
2345.294	0.678	677.7	2back	Block4	2back/STIM_029.jpg	99
2348.909	0.509	509.2	2back	Block4	2back/STIM_029.jpg	100
2351.712	1.077	1077.4	2back	Block4	2back/STIM_029.jpg	100
2356.621	0.915	915.3	2back	Block4	2back/STIM_030.jpg	99
2361.085	0.402	402.3	2back	Block4	2back/STIM_030.jpg	99
2365.352	0.693	692.8	2back	Block4	2back/STIM_030.jpg	100
2368.392	0.92	920.2	2back	Block4	2back/STIM_031.jpg	100
2371.953	0.521	520.6	2back	Block4	2back/STIM_031.jpg	99
2374.751	0.993	992.9	2back	Block4	2back/STIM_031.jpg	99
2378.137	0.638	637.9	2back	Block4	2back/STIM_032.jpg	100
2382.069	0.673	673.0	2back	Block4	2back/STIM_032.jpg	99
2385.764	0.772	772.4	2back	Block4	2back/STIM_032.jpg	99
2389.19	0.89	890.2	2back	Block4	2back/STIM_033.jpg	99
2394.013	0.575	575.0	2back	Block4	2back/STIM_033.jpg	100
2398.086	0.935	935.4	2back	Block4	2back/STIM_033.jpg	99
2402.484	0.823	822.6	2back	Block4	2back/STIM_034.jpg	100
2405.814	1.059	1058.9	2back	Block4	2back/STIM_034.jpg	99
2410.513	0.829	828.7	2back	Block4	2back/STIM_034.jpg	99
2413.221	0.934	933.8	2back	Block4	2back/STIM_035.jpg	100
2417.416	0.647	646.8	2back	Block4	2back/STIM_035.jpg	100
2421.856	0.606	606.2	2back	Block4	2back/STIM_035.jpg	99
2424.798	0.828	828.1	2back	Block4	2back/STIM_036.jpg	99
2428.038	0.782	782.2	2back	Block4	2back/STIM_036.jpg	99
2432.696	1.015	1014.8	2back	Block4	2back/STIM_036.jpg	99
2436.141	0.786	786.5	2back	Block4	2back/STIM_037.jpg	100
2439.35	0.651	651.4	2back	Block4	2back/STIM_037.jpg	100
2443.779	0.562	562.5	2back	Block4	2back/STIM_037.jpg	100
2448.148	1.063	1062.9	2back	Block4	2back/STIM_038.jpg	99
2452.154	0.756	755.7	2back	Block4	2back/STIM_038.jpg	100
2455.546	0.579	579.0	2back	Block4	2back/STIM_038.jpg	99
2459.691	0.512	512.5	2back	Block4	2back/STIM_039.jpg	100
2463.786	0.538	537.7	2back	Block4	2back/STIM_039.jpg	100
2467.359	0.918	917.9	2back	Block4	2back/STIM_039.jpg	100
2471.714	0.543	543.3	0back	Block4	0back/STIM_000.jpg	100
2475.56	0.906	906.2	0back	Block4	0back/STIM_000.jpg	100
2480.162	0.564	564.1	0back	Block4	0back/STIM_000.jpg	99
2483.59	0.792	792.0	0back	Block4	0back/STIM_001.jpg	100
2486.868	0.582	582.2	0back	Block4	0back/STIM_001.jpg	99
2490.502	0.63	629.8	0back	Block4	0back/STIM_001.jpg	99
2494.368	0.64	639.7	0back	Block4	0back/STIM_002.jpg	100
2497.42	0.897	897.2	0back	Block4	0back/STIM_002.jpg	100
2500.933	0.568	568.1	0back	Block4	0back/STIM_002.jpg	100
2504.457	0.385	385.2	0back	Block4	0back/STIM_003.jpg	100
2507.425	0.606	606.2	0back	Block4	0back/STIM_003.jpg	99
2510.393	0.901	900.7	0back	Block4	0back/STIM_003.jpg	99
2513.446	0.409	409.4	0back	Block4	0back/STIM_004.jpg	100
2517.575	0.758	758.5	0back	Block4	0back/STIM_004.jpg	100
2521.283	0.477	476.6	0back	Block4	0back/STIM_004.jpg	100
2524.705	0.826	826.3	0back	Block4	0back/STIM_005.jpg	99
2528.919	0.557	556.8	0back	Block4	0back/STIM_005.jpg	100
2532.906	0.565	565.3	0back	Block4	0back/STIM_005.jpg	100
2536.894	0.578	577.5	0back	Block4	0back/STIM_006.jpg	100
2540.475	0.514	513.5	0back	Block4	0back/STIM_006.jpg	99
2543.104	0.754	754.3	0back	Block4	0back/STIM_006.jpg	100
2547.557	0.558	558.2	0back	Block4	0back/STIM_007.jpg	100
2551.816	0.8	799.9	0back	Block4	0back/STIM_007.jpg	100
2555.693	0.58	579.7	0back	Block4	0back/STIM_007.jpg	100
2558.461	0.464	464.2	0back	Block4	0back/STIM_008.jpg	100
2562.649	0.794	793.9	0back	Block4	0back/STIM_008.jpg	99
2566.997	0.583	582.7	0back	Block4	0back/STIM_008.jpg	100
2570.291	0.808	807.6	0back	Block4	0back/STIM_009.jpg	99
2573.559	0.775	775.0	0back	Block4	0back/STIM_009.jpg	99
2578.185	0.806	806.3	0back	Block4	0back/STIM_009.jpg	100
2581.282	0.824	824.4	0back	Block4	0back/STIM_010.jpg	100
2585.438	0.548	548.1	0back	Block4	0back/STIM_010.jpg	99
2588.045	0.764	763.8	0back	Block4	0back/STIM_010.jpg	99
2592.452	0.67	670.0	0back	Block4	0back/STIM_011.jpg	99
2596.235	0.46	460.5	0back	Block4	0back/STIM_011.jpg	100
2598.823	0.61	610.5	0back	Block4	0back/STIM_011.jpg	100
2602.028	0.78	779.6	0back	Block4	0back/STIM_012.jpg	99
2605.544	0.692	692.4	0back	Block4	0back/STIM_012.jpg	99
2609.02	0.503	502.7	0back	Block4	0back/STIM_012.jpg	100
2612.127	0.822	822.2	0back	Block4	0back/STIM_013.jpg	100
2616.261	0.693	693.0	0back	Block4	0back/STIM_013.jpg	100
2619.656	0.638	637.8	0back	Block4	0back/STIM_013.jpg	99
2623.488	0.373	373.4	0back	Block4	0back/STIM_014.jpg	100
2627.222	0.852	852.1	0back	Block4	0back/STIM_014.jpg	99
2631.784	0.537	536.8	0back	Block4	0back/STIM_014.jpg	100
2634.546	0.476	476.1	0back	Block4	0back/STIM_015.jpg	100
2637.327	0.806	806.1	0back	Block4	0back/STIM_015.jpg	99
2640.69	0.606	606.3	0back	Block4	0back/STIM_015.jpg	99
2643.559	0.765	765.0	0back	Block4	0back/STIM_016.jpg	99
2647.327	0.585	584.6	0back	Block4	0back/STIM_016.jpg	100
2650.334	0.94	940.1	0back	Block4	0back/STIM_016.jpg	100
2655.086	0.824	823.6	0back	Block4	0back/STIM_017.jpg	99
2658.822	0.419	418.6	0back	Block4	0back/STIM_017.jpg	99
2662.233	0.68	680.4	0back	Block4	0back/STIM_017.jpg	100
2666.483	0.572	571.7	0back	Block4	0back/STIM_018.jpg	99
2669.986	0.601	600.9	0back	Block4	0back/STIM_018.jpg	99
2673.361	0.73	729.9	0back	Block4	0back/STIM_018.jpg	99
2676.679	0.558	558.3	0back	Block4	0back/STIM_019.jpg	99
2679.896	0.584	583.7	0back	Block4	0back/STIM_019.jpg	99
2682.949	0.764	764.1	0back	Block4	0back/STIM_019.jpg	100
