onset	duration	response_time_ms	trial_type	learning_stage	stimulus	response_port
0.0	3.184	3184.3	regulate	Run1	regulate/STIM_000.jpg	100
6.161	1.503	1502.8	regulate	Run1	regulate/STIM_000.jpg	99
10.261	1.344	1343.6	regulate	Run1	regulate/STIM_000.jpg	99
14.288	2.243	2242.7	regulate	Run1	regulate/STIM_000.jpg	99
18.695	1.826	1826.5	regulate	Run1	regulate/STIM_001.jpg	100
23.186	1.716	1716.3	regulate	Run1	regulate/STIM_001.jpg	100
28.295	1.561	1560.9	regulate	Run1	regulate/STIM_001.jpg	99
33.488	1.368	1367.7	regulate	Run1	regulate/STIM_001.jpg	100
37.606	2.892	2891.7	regulate	Run1	regulate/STIM_002.jpg	99
42.605	2.663	2663.4	regulate	Run1	regulate/STIM_002.jpg	100
47.664	2.94	2939.9	regulate	Run1	regulate/STIM_002.jpg	99
54.146	2.632	2631.7	regulate	Run1	regulate/STIM_002.jpg	99
60.511	2.684	2683.7	regulate	Run1	regulate/STIM_003.jpg	100
66.977	1.856	1856.5	regulate	Run1	regulate/STIM_003.jpg	100
72.367	1.432	1432.4	regulate	Run1	regulate/STIM_003.jpg	99
77.546	1.747	1746.7	regulate	Run1	regulate/STIM_003.jpg	99
81.71	2.172	2172.5	regulate	Run1	regulate/STIM_004.jpg	99
86.886	2.607	2607.0	regulate	Run1	regulate/STIM_004.jpg	100
91.829	2.629	2629.0	regulate	Run1	regulate/STIM_004.jpg	100
96.749	1.634	1634.5	regulate	Run1	regulate/STIM_004.jpg	99
101.368	3.548	3547.6	regulate	Run1	regulate/STIM_005.jpg	100
106.963	2.003	2002.7	regulate	Run1	regulate/STIM_005.jpg	99
112.256	2.286	2286.1	regulate	Run1	regulate/STIM_005.jpg	99
118.112	1.573	1573.4	regulate	Run1	regulate/STIM_005.jpg	100
122.559	2.448	2448.3	regulate	Run1	regulate/STIM_006.jpg	99
128.797	3.125	3125.0	regulate	Run1	regulate/STIM_006.jpg	100
135.45	2.64	2639.6	regulate	Run1	regulate/STIM_006.jpg	100
140.639	2.179	2178.6	regulate	Run1	regulate/STIM_006.jpg	99
146.598	1.922	1922.3	regulate	Run1	regulate/STIM_007.jpg	100
152.471	3.353	3353.1	regulate	Run1	regulate/STIM_007.jpg	99
158.82	2.172	2172.4	regulate	Run1	regulate/STIM_007.jpg	99
164.633	2.705	2705.2	regulate	Run1	regulate/STIM_007.jpg	100
170.615	2.608	2608.3	regulate	Run1	regulate/STIM_008.jpg	100
176.467	2.334	2333.6	regulate	Run1	regulate/STIM_008.jpg	99
182.52	1.767	1766.7	regulate	Run1	regulate/STIM_008.jpg	100
186.486	1.3	1299.9	regulate	Run1	regulate/STIM_008.jpg	99
191.12	1.657	1656.6	regulate	Run1	regulate/STIM_009.jpg	100
196.312	3.054	3054.3	regulate	Run1	regulate/STIM_009.jpg	100
202.906	1.574	1573.5	regulate	Run1	regulate/STIM_009.jpg	100
206.824	2.92	2919.7	regulate	Run1	regulate/STIM_009.jpg	100
211.77	2.255	2255.0	regulate	Run1	regulate/STIM_010.jpg	99
216.215	1.684	1683.9	regulate	Run1	regulate/STIM_010.jpg	100
220.595	1.658	1658.0	regulate	Run1	regulate/STIM_010.jpg	100
225.577	2.174	2174.1	regulate	Run1	regulate/STIM_010.jpg	100
230.911	2.27	2269.5	regulate	Run1	regulate/STIM_011.jpg	99
236.151	1.574	1573.8	regulate	Run1	regulate/STIM_011.jpg	100
240.095	1.658	1658.4	regulate	Run1	regulate/STIM_011.jpg	100
244.796	2.04	2039.8	regulate	Run1	regulate/STIM_011.jpg	100
249.922	2.37	2370.0	regulate	Run1	regulate/STIM_012.jpg	100
255.763	2.435	2435.1	regulate	Run1	regulate/STIM_012.jpg	100
261.686	2.904	2903.7	regulate	Run1	regulate/STIM_012.jpg	99
268.315	2.039	2039.0	regulate	Run1	regulate/STIM_012.jpg	99
274.247	2.388	2388.5	regulate	Run1	regulate/STIM_013.jpg	99
279.812	2.031	2030.8	regulate	Run1	regulate/STIM_013.jpg	99
284.515	2.968	2968.4	regulate	Run1	regulate/STIM_013.jpg	99
289.979	1.727	1726.6	regulate	Run1	regulate/STIM_013.jpg	99
294.127	2.074	2074.3	regulate	Run1	regulate/STIM_014.jpg	100
298.488	2.385	2384.9	regulate	Run1	regulate/STIM_014.jpg	100
303.044	2.514	2513.8	regulate	Run1	regulate/STIM_014.jpg	99
308.865	1.315	1314.6	regulate	Run1	regulate/STIM_014.jpg	100
313.556	2.771	2771.2	regulate	Run1	regulate/STIM_015.jpg	99
318.289	2.662	2662.4	regulate	Run1	regulate/STIM_015.jpg	100
323.671	1.861	1861.3	regulate	Run1	regulate/STIM_015.jpg	100
328.544	2.95	2950.5	regulate	Run1	regulate/STIM_015.jpg	100
333.641	2.543	2542.6	regulate	Run1	regulate/STIM_016.jpg	99
338.177	1.663	1662.7	regulate	Run1	regulate/STIM_016.jpg	99
343.288	2.436	2435.9	regulate	Run1	regulate/STIM_016.jpg	99
348.977	1.632	1631.5	regulate	Run1	regulate/STIM_016.jpg	99
354.272	2.758	2758.1	regulate	Run1	regulate/STIM_017.jpg	99
360.157	2.726	2726.1	regulate	Run1	regulate/STIM_017.jpg	100
365.522	1.449	1449.2	regulate	Run1	regulate/STIM_017.jpg	99
369.383	1.707	1707.3	regulate	Run1	regulate/STIM_017.jpg	99
375.071	2.192	2192.2	regulate	Run1	regulate/STIM_018.jpg	99
380.35	2.837	2836.6	regulate	Run1	regulate/STIM_018.jpg	100
385.835	1.331	1331.0	regulate	Run1	regulate/STIM_018.jpg	100
390.996	1.518	1518.4	regulate	Run1	regulate/STIM_018.jpg	100
396.262	3.315	3315.4	regulate	Run1	regulate/STIM_019.jpg	100
402.034	2.49	2489.5	regulate	Run1	regulate/STIM_019.jpg	99
406.786	1.939	1938.9	regulate	Run1	regulate/STIM_019.jpg	99
411.184	2.045	2044.5	regulate	Run1	regulate/STIM_019.jpg	99
415.684	3.071	3071.1	regulate	Run1	regulate/STIM_020.jpg	100
421.559	3.191	3190.7	regulate	Run1	regulate/STIM_020.jpg	100
428.488	2.426	2425.7	regulate	Run1	regulate/STIM_020.jpg	100
433.711	2.874	2873.7	regulate	Run1	regulate/STIM_020.jpg	100
439.734	1.656	1655.9	regulate	Run1	regulate/STIM_021.jpg	100
443.743	1.526	1526.3	regulate	Run1	regulate/STIM_021.jpg	99
448.983	2.223	2223.2	regulate	Run1	regulate/STIM_021.jpg	99
454.24	1.955	1954.9	regulate	Run1	regulate/STIM_021.jpg	99
458.427	3.016	3016.0	regulate	Run1	regulate/STIM_022.jpg	100
464.655	2.675	2674.8	regulate	Run1	regulate/STIM_022.jpg	99
470.568	1.611	1611.0	regulate	Run1	regulate/STIM_022.jpg	100
474.519	2.451	2451.2	regulate	Run1	regulate/STIM_022.jpg	100
480.07	3.544	3544.4	regulate	Run1	regulate/STIM_023.jpg	99
486.117	2.328	2327.6	regulate	Run1	regulate/STIM_023.jpg	100
492.321	2.692	2691.7	regulate	Run1	regulate/STIM_023.jpg	99
497.372	2.681	2680.9	regulate	Run1	regulate/STIM_023.jpg	99
502.855	2.162	2162.0	regulate	Run1	regulate/STIM_024.jpg	99
508.6	2.027	2027.0	regulate	Run1	regulate/STIM_024.jpg	100
514.329	1.71	1710.0	regulate	Run1	regulate/STIM_024.jpg	99
518.459	2.156	2156.0	regulate	Run1	regulate/STIM_024.jpg	100
523.66	3.446	3446.3	regulate	Run1	regulate/STIM_025.jpg	100
529.496	3.242	3242.5	regulate	Run1	regulate/STIM_025.jpg	100
536.281	3.072	3071.6	regulate	Run1	regulate/STIM_025.jpg	99
543.274	2.77	2770.0	regulate	Run1	regulate/STIM_025.jpg	100
549.041	2.116	2116.5	regulate	Run1	regulate/STIM_026.jpg	100
554.806	1.914	1914.1	regulate	Run1	regulate/STIM_026.jpg	100
560.348	2.389	2389.3	regulate	Run1	regulate/STIM_026.jpg	99
565.435	2.883	2882.9	regulate	Run1	regulate/STIM_026.jpg	100
570.537	2.816	2816.4	regulate	Run1	regulate/STIM_027.jpg	99
576.996	1.897	1897.2	regulate	Run1	regulate/STIM_027.jpg	99
582.698	2.483	2482.7	regulate	Run1	regulate/STIM_027.jpg	100
587.404	1.759	1758.9	regulate	Run1	regulate/STIM_027.jpg	99
592.382	2.181	2181.1	regulate	Run1	regulate/STIM_028.jpg	99
596.862	2.572	2572.1	regulate	Run1	regulate/STIM_028.jpg	100
601.533	1.831	1831.3	regulate	Run1	regulate/STIM_028.jpg	100
606.978	1.822	1821.9	regulate	Run1	regulate/STIM_028.jpg	100
612.653	3.424	3424.5	regulate	Run1	regulate/STIM_029.jpg	99
618.55	1.616	1615.6	regulate	Run1	regulate/STIM_029.jpg	99
622.236	2.886	2885.9	regulate	Run1	regulate/STIM_029.jpg	100
627.479	1.446	1445.8	regulate	Run1	regulate/STIM_029.jpg	99
631.308	1.256	1255.8	observe	Run1	observe/STIM_000.jpg	99
636.132	1.123	1123.0	observe	Run1	observe/STIM_000.jpg	100
640.794	1.031	1031.2	observe	Run1	observe/STIM_000.jpg	100
644.695	1.042	1042.3	observe	Run1	observe/STIM_000.jpg	99
649.09	1.373	1373.3	observe	Run1	observe/STIM_001.jpg	100
652.904	1.203	1203.3	observe	Run1	observe/STIM_001.jpg	99
658.107	1.399	1399.0	observe	Run1	observe/STIM_001.jpg	100
662.631	1.01	1010.2	observe	Run1	observe/STIM_001.jpg	100
666.202	1.416	1415.9	observe	Run1	observe/STIM_002.jpg	99
669.622	1.099	1099.0	observe	Run1	observe/STIM_002.jpg	99
673.333	1.556	1556.4	observe	Run1	observe/STIM_002.jpg	100
677.696	1.0	1000.3	observe	Run1	observe/STIM_002.jpg	99
681.269	1.085	1085.2	observe	Run1	observe/STIM_003.jpg	99
685.626	0.89	890.0	observe	Run1	observe/STIM_003.jpg	99
688.978	0.851	851.2	observe	Run1	observe/STIM_003.jpg	99
692.922	0.915	915.1	observe	Run1	observe/STIM_003.jpg	100
697.472	1.169	1168.7	observe	Run1	observe/STIM_004.jpg	100
701.883	1.242	1241.5	observe	Run1	observe/STIM_004.jpg	100
706.005	1.368	1368.1	observe	Run1	observe/STIM_004.jpg	100
709.902	1.461	1460.6	observe	Run1	observe/STIM_004.jpg	99
714.5	1.209	1208.8	observe	Run1	observe/STIM_005.jpg	99
717.839	1.356	1356.5	observe	Run1	observe/STIM_005.jpg	100
721.328	1.463	1463.4	observe	Run1	observe/STIM_005.jpg	100
726.003	1.281	1280.8	observe	Run1	observe/STIM_005.jpg	99
729.361	1.028	1027.9	observe	Run1	observe/STIM_006.jpg	100
733.871	1.331	1330.7	observe	Run1	observe/STIM_006.jpg	99
739.058	1.328	1327.6	observe	Run1	observe/STIM_006.jpg	99
743.224	1.512	1512.1	observe	Run1	observe/STIM_006.jpg	100
748.389	0.95	950.3	observe	Run1	observe/STIM_007.jpg	100
753.045	0.975	974.9	observe	Run1	observe/STIM_007.jpg	100
757.082	1.53	1530.1	observe	Run1	observe/STIM_007.jpg	100
761.641	1.592	1592.4	observe	Run1	observe/STIM_007.jpg	100
766.357	0.955	955.0	observe	Run1	observe/STIM_008.jpg	99
770.253	1.095	1094.9	observe	Run1	observe/STIM_008.jpg	100
774.584	0.825	825.0	observe	Run1	observe/STIM_008.jpg	100
777.635	1.269	1268.7	observe	Run1	observe/STIM_008.jpg	100
782.191	1.467	1467.4	observe	Run1	observe/STIM_009.jpg	100
785.636	1.441	1440.7	observe	Run1	observe/STIM_009.jpg	99
790.907	1.438	1438.2	observe	Run1	observe/STIM_009.jpg	100
796.412	0.957	957.3	observe	Run1	observe/STIM_009.jpg	99
800.113	1.178	1177.5	observe	Run1	observe/STIM_010.jpg	100
804.786	1.354	1353.5	observe	Run1	observe/STIM_010.jpg	100
809.239	1.305	1304.7	observe	Run1	observe/STIM_010.jpg	99
812.841	1.403	1403.2	observe	Run1	observe/STIM_010.jpg	100
817.44	0.768	768.2	observe	Run1	observe/STIM_011.jpg	100
821.495	1.223	1223.0	observe	Run1	observe/STIM_011.jpg	100
826.397	0.872	872.0	observe	Run1	observe/STIM_011.jpg	99
829.981	1.146	1146.1	observe	Run1	observe/STIM_011.jpg	100
834.139	1.483	1482.9	observe	Run1	observe/STIM_012.jpg	100
838.548	0.832	831.6	observe	Run1	observe/STIM_012.jpg	99
841.881	1.165	1165.1	observe	Run1	observe/STIM_012.jpg	100
845.978	1.383	1382.7	observe	Run1	observe/STIM_012.jpg	100
850.712	1.336	1336.0	observe	Run1	observe/STIM_013.jpg	99
855.929	0.895	894.6	observe	Run1	observe/STIM_013.jpg	100
859.97	1.175	1175.2	observe	Run1	observe/STIM_013.jpg	99
864.86	0.917	916.7	observe	Run1	observe/STIM_013.jpg	100
869.445	0.999	998.6	observe	Run1	observe/STIM_014.jpg	99
873.429	1.287	1286.8	observe	Run1	observe/STIM_014.jpg	99
876.727	1.457	1457.3	observe	Run1	observe/STIM_014.jpg	99
880.398	0.907	907.0	observe	Run1	observe/STIM_014.jpg	100
883.388	1.414	1413.6	observe	Run1	observe/STIM_015.jpg	99
887.981	1.344	1343.6	observe	Run1	observe/STIM_015.jpg	100
893.064	1.203	1202.6	observe	Run1	observe/STIM_015.jpg	99
897.399	1.438	1437.9	observe	Run1	observe/STIM_015.jpg	100
900.881	0.836	836.3	observe	Run1	observe/STIM_016.jpg	100
903.974	1.541	1541.0	observe	Run1	observe/STIM_016.jpg	100
909.12	1.429	1429.3	observe	Run1	observe/STIM_016.jpg	99
914.299	1.513	1513.2	observe	Run1	observe/STIM_016.jpg	100
919.568	1.268	1267.6	observe	Run1	observe/STIM_017.jpg	99
924.474	1.387	1387.2	observe	Run1	observe/STIM_017.jpg	100
929.833	1.278	1277.6	observe	Run1	observe/STIM_017.jpg	99
933.499	0.966	965.6	observe	Run1	observe/STIM_017.jpg	99
937.699	0.896	896.2	observe	Run1	observe/STIM_018.jpg	100
941.871	0.997	996.7	observe	Run1	observe/STIM_018.jpg	100
945.765	1.43	1429.8	observe	Run1	observe/STIM_018.jpg	99
950.852	1.096	1095.9	observe	Run1	observe/STIM_018.jpg	99
955.69	0.892	891.9	observe	Run1	observe/STIM_019.jpg	99
959.935	0.933	933.3	observe	Run1	observe/STIM_019.jpg	99
964.616	1.05	1049.8	observe	Run1	observe/STIM_019.jpg	100
968.801	1.386	1385.7	observe	Run1	observe/STIM_019.jpg	99
972.682	3.023	3022.6	regulate	Run2	regulate/STIM_000.jpg	100
979.238	2.643	2642.7	regulate	Run2	regulate/STIM_000.jpg	99
985.5	1.429	1428.9	regulate	Run2	regulate/STIM_000.jpg	100
989.941	2.172	2172.2	regulate	Run2	regulate/STIM_000.jpg	99
995.538	2.792	2792.3	regulate	Run2	regulate/STIM_001.jpg	100
1001.046	1.765	1764.9	regulate	Run2	regulate/STIM_001.jpg	99
1005.124	1.821	1821.3	regulate	Run2	regulate/STIM_001.jpg	99
1010.461	2.003	2003.5	regulate	Run2	regulate/STIM_001.jpg	99
1015.31	1.563	1562.9	regulate	Run2	regulate/STIM_002.jpg	100
1020.407	1.898	1898.3	regulate	Run2	regulate/STIM_002.jpg	100
1025.066	2.643	2643.1	regulate	Run2	regulate/STIM_002.jpg	100
1029.806	2.397	2396.8	regulate	Run2	regulate/STIM_002.jpg	99
1036.092	2.531	2531.0	regulate	Run2	regulate/STIM_003.jpg	100
1040.531	1.113	1113.3	regulate	Run2	regulate/STIM_003.jpg	99
1045.59	2.162	2162.0	regulate	Run2	regulate/STIM_003.jpg	100
1050.427	1.589	1588.6	regulate	Run2	regulate/STIM_003.jpg	100
1054.356	1.46	1460.2	regulate	Run2	regulate/STIM_004.jpg	100
1058.287	1.436	1435.8	regulate	Run2	regulate/STIM_004.jpg	100
1062.121	2.633	2633.1	regulate	Run2	regulate/STIM_004.jpg	100
1066.961	2.431	2431.2	regulate	Run2	regulate/STIM_004.jpg	99
1072.011	2.83	2829.8	regulate	Run2	regulate/STIM_005.jpg	100
1077.735	2.405	2405.4	regulate	Run2	regulate/STIM_005.jpg	99
1083.92	1.715	1715.1	regulate	Run2	regulate/STIM_005.jpg	99
1089.383	1.166	1166.4	regulate	Run2	regulate/STIM_005.jpg	99
1092.908	2.903	2903.1	regulate	Run2	regulate/STIM_006.jpg	100
1098.219	2.063	2063.1	regulate	Run2	regulate/STIM_006.jpg	100
1103.546	1.858	1857.9	regulate	Run2	regulate/STIM_006.jpg	99
1107.881	1.57	1569.9	regulate	Run2	regulate/STIM_006.jpg	99
1112.335	1.518	1518.4	regulate	Run2	regulate/STIM_007.jpg	100
1117.06	1.986	1986.2	regulate	Run2	regulate/STIM_007.jpg	100
1121.928	2.049	2049.4	regulate	Run2	regulate/STIM_007.jpg	99
1127.728	1.306	1306.5	regulate	Run2	regulate/STIM_007.jpg	99
1132.37	1.442	1441.8	regulate	Run2	regulate/STIM_008.jpg	100
1137.104	2.652	2652.5	regulate	Run2	regulate/STIM_008.jpg	99
1143.128	2.552	2551.6	regulate	Run2	regulate/STIM_008.jpg	100
1148.572	1.938	1938.0	regulate	Run2	regulate/STIM_008.jpg	100
1153.431	3.024	3024.1	regulate	Run2	regulate/STIM_009.jpg	100
1159.564	2.485	2485.4	regulate	Run2	regulate/STIM_009.jpg	100
1165.54	2.45	2450.1	regulate	Run2	regulate/STIM_009.jpg	100
1171.756	2.04	2039.9	regulate	Run2	regulate/STIM_009.jpg	99
1177.278	2.684	2684.5	regulate	Run2	regulate/STIM_010.jpg	100
1183.42	1.643	1643.1	regulate	Run2	regulate/STIM_010.jpg	100
1188.404	1.14	1139.5	regulate	Run2	regulate/STIM_010.jpg	100
1193.56	2.268	2268.0	regulate	Run2	regulate/STIM_010.jpg	100
1199.314	1.97	1969.6	regulate	Run2	regulate/STIM_011.jpg	100
1203.705	2.673	2673.2	regulate	Run2	regulate/STIM_011.jpg	100
1209.913	2.51	2510.5	regulate	Run2	regulate/STIM_011.jpg	99
1214.751	1.698	1698.3	regulate	Run2	regulate/STIM_011.jpg	100
1220.41	2.586	2586.3	regulate	Run2	regulate/STIM_012.jpg	100
1226.408	2.504	2504.2	regulate	Run2	regulate/STIM_012.jpg	99
1231.13	2.099	2098.9	regulate	Run2	regulate/STIM_012.jpg	100
1235.623	2.32	2319.9	regulate	Run2	regulate/STIM_012.jpg	99
1241.921	2.561	2560.9	regulate	Run2	regulate/STIM_013.jpg	99
1247.829	1.822	1822.0	regulate	Run2	regulate/STIM_013.jpg	100
1252.054	1.145	1145.0	regulate	Run2	regulate/STIM_013.jpg	100
1256.089	2.512	2512.2	regulate	Run2	regulate/STIM_013.jpg	100
1262.25	2.398	2397.9	regulate	Run2	regulate/STIM_014.jpg	99
1267.637	2.288	2287.5	regulate	Run2	regulate/STIM_014.jpg	100
1273.772	1.976	1976.0	regulate	Run2	regulate/STIM_014.jpg	99
1277.966	1.734	1734.1	regulate	Run2	regulate/STIM_014.jpg	100
1282.879	1.656	1656.5	regulate	Run2	regulate/STIM_015.jpg	100
1287.656	2.586	2585.5	regulate	Run2	regulate/STIM_015.jpg	100
1293.444	1.598	1597.7	regulate	Run2	regulate/STIM_015.jpg	100
1298.393	2.255	2255.1	regulate	Run2	regulate/STIM_015.jpg	99
1303.798	2.54	2540.2	regulate	Run2	regulate/STIM_016.jpg	99
1309.252	1.979	1978.9	regulate	Run2	regulate/STIM_016.jpg	99
1313.514	1.384	1384.5	regulate	Run2	regulate/STIM_016.jpg	99
1317.454	2.454	2453.5	regulate	Run2	regulate/STIM_016.jpg	100
1322.834	1.789	1789.3	regulate	Run2	regulate/STIM_017.jpg	99
1327.709	2.688	2688.2	regulate	Run2	regulate/STIM_017.jpg	99
1333.126	1.678	1677.9	regulate	Run2	regulate/STIM_017.jpg	100
1338.791	2.253	2253.4	regulate	Run2	regulate/STIM_017.jpg	99
1344.477	1.854	1853.7	regulate	Run2	regulate/STIM_018.jpg	100
1349.471	1.968	1968.2	regulate	Run2	regulate/STIM_018.jpg	100
1354.864	1.682	1682.0	regulate	Run2	regulate/STIM_018.jpg	100
1359.911	1.183	1182.8	regulate	Run2	regulate/STIM_018.jpg	100
1363.629	2.102	2101.9	regulate	Run2	regulate/STIM_019.jpg	99
1369.375	2.6	2599.9	regulate	Run2	regulate/STIM_019.jpg	100
1374.389	1.51	1509.6	regulate	Run2	regulate/STIM_019.jpg	100
1378.756	2.2	2199.6	regulate	Run2	regulate/STIM_019.jpg	99
1383.905	1.378	1378.3	regulate	Run2	regulate/STIM_020.jpg	99
1388.103	2.777	2776.7	regulate	Run2	regulate/STIM_020.jpg	99
1392.885	1.284	1284.3	regulate	Run2	regulate/STIM_020.jpg	100
1397.179	1.665	1665.2	regulate	Run2	regulate/STIM_020.jpg	99
1400.943	2.123	2122.7	regulate	Run2	regulate/STIM_021.jpg	100
1406.871	2.4	2400.2	regulate	Run2	regulate/STIM_021.jpg	100
1411.235	1.435	1435.2	regulate	Run2	regulate/STIM_021.jpg	99
1416.228	1.644	1643.7	regulate	Run2	regulate/STIM_021.jpg	100
1420.682	2.083	2083.4	regulate	Run2	regulate/STIM_022.jpg	99
1425.751	2.037	2037.4	regulate	Run2	regulate/STIM_022.jpg	100
1431.189	1.309	1308.6	regulate	Run2	regulate/STIM_022.jpg	100
1435.723	1.488	1488.5	regulate	Run2	regulate/STIM_022.jpg	100
1439.791	2.009	2009.4	regulate	Run2	regulate/STIM_023.jpg	100
1443.799	1.621	1621.2	regulate	Run2	regulate/STIM_023.jpg	99
1447.702	1.912	1911.5	regulate	Run2	regulate/STIM_023.jpg	99
1452.221	1.138	1137.7	regulate	Run2	regulate/STIM_023.jpg	100
1456.381	2.423	2422.6	regulate	Run2	regulate/STIM_024.jpg	100
1461.224	2.24	2240.5	regulate	Run2	regulate/STIM_024.jpg	99
1467.478	2.701	2700.9	regulate	Run2	regulate/STIM_024.jpg	99
1473.724	1.528	1527.7	regulate	Run2	regulate/STIM_024.jpg	100
1479.015	2.318	2317.6	regulate	Run2	regulate/STIM_025.jpg	100
1485.069	1.899	1899.1	regulate	Run2	regulate/STIM_025.jpg	100
1490.889	1.494	1494.1	regulate	Run2	regulate/STIM_025.jpg	99
1495.445	1.534	1534.0	regulate	Run2	regulate/STIM_025.jpg	99
1500.545	2.735	2734.7	regulate	Run2	regulate/STIM_026.jpg	99
1506.648	2.73	2730.2	regulate	Run2	regulate/STIM_026.jpg	100
1512.631	2.113	2113.4	regulate	Run2	regulate/STIM_026.jpg	99
1518.537	1.986	1986.2	regulate	Run2	regulate/STIM_026.jpg	99
1522.851	2.924	2923.7	regulate	Run2	regulate/STIM_027.jpg	99
1528.095	1.299	1298.8	regulate	Run2	regulate/STIM_027.jpg	99
1532.439	2.514	2514.0	regulate	Run2	regulate/STIM_027.jpg	100
1538.837	2.271	2271.2	regulate	Run2	regulate/STIM_027.jpg	99
1544.759	1.739	1739.0	regulate	Run2	regulate/STIM_028.jpg	100
1549.162	2.136	2135.6	regulate	Run2	regulate/STIM_028.jpg	99
1554.526	1.248	1247.6	regulate	Run2	regulate/STIM_028.jpg	100
1558.811	1.211	1210.8	regulate	Run2	regulate/STIM_028.jpg	100
1562.395	1.628	1627.7	regulate	Run2	regulate/STIM_029.jpg	99
1567.417	2.761	2760.7	regulate	Run2	regulate/STIM_029.jpg	99
1573.661	2.609	2608.8	regulate	Run2	regulate/STIM_029.jpg	99
1578.277	1.486	1485.6	regulate	Run2	regulate/STIM_029.jpg	100
1583.726	1.372	1371.9	observe	Run2	observe/STIM_000.jpg	100
1588.432	1.384	1384.0	observe	Run2	observe/STIM_000.jpg	99
1593.018	1.191	1191.1	observe	Run2	observe/STIM_000.jpg	99
1597.798	1.699	1698.9	observe	Run2	observe/STIM_000.jpg	100
1602.256	1.59	1589.6	observe	Run2	observe/STIM_001.jpg	99
1607.74	1.189	1189.0	observe	Run2	observe/STIM_001.jpg	100
1611.766	1.018	1017.6	observe	Run2	observe/STIM_001.jpg	99
1616.314	1.651	1650.9	observe	Run2	observe/STIM_001.jpg	99
1621.332	1.527	1527.1	observe	Run2	observe/STIM_002.jpg	100
1626.33	1.203	1202.9	observe	Run2	observe/STIM_002.jpg	100
1631.166	1.365	1365.2	observe	Run2	observe/STIM_002.jpg	100
1635.983	1.592	1592.3	observe	Run2	observe/STIM_002.jpg	100
1639.755	0.904	903.5	observe	Run2	observe/STIM_003.jpg	99
1644.101	0.82	820.4	observe	Run2	observe/STIM_003.jpg	100
1647.629	1.129	1129.2	observe	Run2	observe/STIM_003.jpg	100
1652.1	1.188	1187.5	observe	Run2	observe/STIM_003.jpg	100
1656.64	0.991	991.1	observe	Run2	observe/STIM_004.jpg	100
1659.733	0.984	983.5	observe	Run2	observe/STIM_004.jpg	100
1663.067	1.499	1498.9	observe	Run2	observe/STIM_004.jpg	100
1668.237	1.27	1269.8	observe	Run2	observe/STIM_004.jpg	99
1672.394	0.982	982.3	observe	Run2	observe/STIM_005.jpg	99
1676.881	1.398	1397.6	observe	Run2	observe/STIM_005.jpg	100
1682.183	1.32	1320.4	observe	Run2	observe/STIM_005.jpg	99
1687.481	1.25	1250.5	observe	Run2	observe/STIM_005.jpg	100
1692.345	1.086	1086.4	observe	Run2	observe/STIM_006.jpg	100
1696.066	1.172	1171.5	observe	Run2	observe/STIM_006.jpg	99
1700.656	1.024	1024.1	observe	Run2	observe/STIM_006.jpg	99
1703.818	1.651	1650.6	observe	Run2	observe/STIM_006.jpg	99
1707.423	1.5	1500.5	observe	Run2	observe/STIM_007.jpg	100
1712.773	1.431	1430.8	observe	Run2	observe/STIM_007.jpg	100
1716.893	1.18	1180.2	observe	Run2	observe/STIM_007.jpg	99
1721.503	1.51	1509.8	observe	Run2	observe/STIM_007.jpg	99
1726.83	0.899	898.7	observe	Run2	observe/STIM_008.jpg	99
1729.723	1.174	1173.6	observe	Run2	observe/STIM_008.jpg	99
1733.573	0.858	858.0	observe	Run2	observe/STIM_008.jpg	100
1736.489	1.517	1516.9	observe	Run2	observe/STIM_008.jpg	100
1741.426	1.113	1112.8	observe	Run2	observe/STIM_009.jpg	99
1746.16	1.391	1390.7	observe	Run2	observe/STIM_009.jpg	99
1750.298	1.151	1151.3	observe	Run2	observe/STIM_009.jpg	100
1754.864	1.052	1051.5	observe	Run2	observe/STIM_009.jpg	99
1759.331	1.224	1224.3	observe	Run2	observe/STIM_010.jpg	100
1764.039	1.092	1091.5	observe	Run2	observe/STIM_010.jpg	100
1767.601	0.912	911.5	observe	Run2	observe/STIM_010.jpg	99
1771.261	1.467	1467.1	observe	Run2	observe/STIM_010.jpg	100
1774.985	1.178	1177.8	observe	Run2	observe/STIM_011.jpg	100
1778.12	1.555	1555.2	observe	Run2	observe/STIM_011.jpg	99
1782.242	1.58	1580.1	observe	Run2	observe/STIM_011.jpg	100
1785.987	1.177	1176.6	observe	Run2	observe/STIM_011.jpg	99
1789.563	0.965	964.9	observe	Run2	observe/STIM_012.jpg	99
1792.661	1.126	1125.5	observe	Run2	observe/STIM_012.jpg	100
1797.245	0.931	931.3	observe	Run2	observe/STIM_012.jpg	100
1801.23	0.849	848.7	observe	Run2	observe/STIM_012.jpg	100
1804.485	1.277	1276.7	observe	Run2	observe/STIM_013.jpg	100
1809.582	0.864	864.4	observe	Run2	observe/STIM_013.jpg	100
1812.757	1.41	1409.7	observe	Run2	observe/STIM_013.jpg	100
1817.527	1.144	1143.7	observe	Run2	observe/STIM_013.jpg	100
1820.679	1.522	1522.5	observe	Run2	observe/STIM_014.jpg	99
1825.795	1.498	1497.9	observe	Run2	observe/STIM_014.jpg	99
1829.959	1.402	1401.7	observe	Run2	observe/STIM_014.jpg	99
1834.548	1.027	1027.1	observe	Run2	observe/STIM_014.jpg	100
1839.021	1.079	1079.1	observe	Run2	observe/STIM_015.jpg	100
1843.525	1.632	1631.6	observe	Run2	observe/STIM_015.jpg	100
1848.105	1.291	1290.8	observe	Run2	observe/STIM_015.jpg	99
1851.429	1.235	1235.1	observe	Run2	observe/STIM_015.jpg	100
1855.473	1.363	1363.2	observe	Run2	observe/STIM_016.jpg	99
1860.724	1.532	1532.1	observe	Run2	observe/STIM_016.jpg	100
1865.957	1.042	1042.1	observe	Run2	observe/STIM_016.jpg	100
1870.847	1.548	1548.0	observe	Run2	observe/STIM_016.jpg	100
1876.292	0.835	834.9	observe	Run2	observe/STIM_017.jpg	100
1880.159	1.336	1335.8	observe	Run2	observe/STIM_017.jpg	100
1883.909	1.047	1047.3	observe	Run2	observe/STIM_017.jpg	99
1888.166	0.756	755.6	observe	Run2	observe/STIM_017.jpg	100
1891.519	1.221	1221.1	observe	Run2	observe/STIM_018.jpg	99
1896.002	1.404	1404.1	observe	Run2	observe/STIM_018.jpg	100
1900.287	0.941	941.3	observe	Run2	observe/STIM_018.jpg	100
1903.308	1.123	1123.2	observe	Run2	observe/STIM_018.jpg	99
1906.583	1.191	1191.3	observe	Run2	observe/STIM_019.jpg	100
1910.002	1.077	1076.8	observe	Run2	observe/STIM_019.jpg	99
1913.71	1.368	1368.0	observe	Run2	observe/STIM_019.jpg	99
1917.511	0.988	988.1	observe	Run2	observe/STIM_019.jpg	99
1922.299	1.615	1614.8	regulate	Run3	regulate/STIM_000.jpg	99
1926.635	2.127	2127.4	regulate	Run3	regulate/STIM_000.jpg	99
1931.52	1.303	1302.9	regulate	Run3	regulate/STIM_000.jpg	100
1936.601	2.293	2292.7	regulate	Run3	regulate/STIM_000.jpg	100
1942.603	1.79	1789.9	regulate	Run3	regulate/STIM_001.jpg	99
1947.851	1.531	1531.3	regulate	Run3	regulate/STIM_001.jpg	100
1953.401	1.83	1829.7	regulate	Run3	regulate/STIM_001.jpg	99
1957.376	2.118	2118.0	regulate	Run3	regulate/STIM_001.jpg	100
1962.327	2.31	2310.5	regulate	Run3	regulate/STIM_002.jpg	100
1968.465	2.113	2112.9	regulate	Run3	regulate/STIM_002.jpg	99
1974.151	1.589	1588.9	regulate	Run3	regulate/STIM_002.jpg	100
1979.359	1.565	1565.2	regulate	Run3	regulate/STIM_002.jpg	100
1983.664	2.123	2122.8	regulate	Run3	regulate/STIM_003.jpg	100
1988.054	1.661	1661.2	regulate	Run3	regulate/STIM_003.jpg	100
1991.768	2.103	2102.8	regulate	Run3	regulate/STIM_003.jpg	99
1997.657	1.577	1576.7	regulate	Run3	regulate/STIM_003.jpg	99
2001.369	1.81	1810.0	regulate	Run3	regulate/STIM_004.jpg	100
2005.589	2.502	2502.2	regulate	Run3	regulate/STIM_004.jpg	99
2010.327	2.134	2134.3	regulate	Run3	regulate/STIM_004.jpg	99
2016.397	1.784	1784.1	regulate	Run3	regulate/STIM_004.jpg	99
2020.125	2.523	2523.0	regulate	Run3	regulate/STIM_005.jpg	100
2026.312	2.324	2323.9	regulate	Run3	regulate/STIM_005.jpg	99
2031.242	2.033	2032.5	regulate	Run3	regulate/STIM_005.jpg	99
2036.822	2.428	2427.8	regulate	Run3	regulate/STIM_005.jpg	100
2041.629	2.13	2130.1	regulate	Run3	regulate/STIM_006.jpg	100
2045.974	1.758	1757.6	regulate	Run3	regulate/STIM_006.jpg	99
2051.777	1.478	1477.7	regulate	Run3	regulate/STIM_006.jpg	100
2056.467	2.175	2174.8	regulate	Run3	regulate/STIM_006.jpg	100
2061.268	2.499	2499.0	regulate	Run3	regulate/STIM_007.jpg	99
2067.332	2.174	2173.7	regulate	Run3	regulate/STIM_007.jpg	99
2073.167	2.375	2374.8	regulate	Run3	regulate/STIM_007.jpg	99
2078.685	1.399	1398.6	regulate	Run3	regulate/STIM_007.jpg	100
2082.736	2.273	2273.1	regulate	Run3	regulate/STIM_008.jpg	100
2087.26	1.064	1063.7	regulate	Run3	regulate/STIM_008.jpg	100
2092.061	1.226	1226.4	regulate	Run3	regulate/STIM_008.jpg	99
2096.424	2.232	2231.8	regulate	Run3	regulate/STIM_008.jpg	100
2102.395	1.135	1134.6	regulate	Run3	regulate/STIM_009.jpg	99
2105.695	1.575	1575.4	regulate	Run3	regulate/STIM_009.jpg	99
2109.178	1.842	1842.3	regulate	Run3	regulate/STIM_009.jpg	99
2114.326	1.402	1402.3	regulate	Run3	regulate/STIM_009.jpg	99
2118.527	1.966	1965.7	regulate	Run3	regulate/STIM_010.jpg	99
2124.454	1.82	1819.7	regulate	Run3	regulate/STIM_010.jpg	100
2128.869	1.928	1928.3	regulate	Run3	regulate/STIM_010.jpg	100
2133.598	1.772	1772.5	regulate	Run3	regulate/STIM_010.jpg	100
2137.884	2.451	2451.2	regulate	Run3	regulate/STIM_011.jpg	100
2142.964	2.438	2438.4	regulate	Run3	regulate/STIM_011.jpg	100
2148.547	1.284	1283.6	regulate	Run3	regulate/STIM_011.jpg	100
2151.902	1.772	1772.5	regulate	Run3	regulate/STIM_011.jpg	100
2157.042	1.452	1451.5	regulate	Run3	regulate/STIM_012.jpg	100
2161.874	2.026	2025.9	regulate	Run3	regulate/STIM_012.jpg	99
2167.098	1.344	1343.9	regulate	Run3	regulate/STIM_012.jpg	100
2171.032	1.771	1770.7	regulate	Run3	regulate/STIM_012.jpg	99
2174.786	1.595	1595.2	regulate	Run3	regulate/STIM_013.jpg	100
2179.547	1.306	1305.8	regulate	Run3	regulate/STIM_013.jpg	99
2183.893	1.322	1321.9	regulate	Run3	regulate/STIM_013.jpg	99
2188.269	1.083	1082.8	regulate	Run3	regulate/STIM_013.jpg	99
2192.165	2.331	2331.2	regulate	Run3	regulate/STIM_014.jpg	100
2197.042	1.633	1632.7	regulate	Run3	regulate/STIM_014.jpg	100
2202.094	1.096	1096.3	regulate	Run3	regulate/STIM_014.jpg	100
2206.882	2.131	2130.9	regulate	Run3	regulate/STIM_014.jpg	100
2212.955	1.179	1179.1	regulate	Run3	regulate/STIM_015.jpg	99
2216.282	1.577	1576.9	regulate	Run3	regulate/STIM_015.jpg	100
2220.95	1.506	1506.4	regulate	Run3	regulate/STIM_015.jpg	99
2225.371	1.864	1863.5	regulate	Run3	regulate/STIM_015.jpg	100
2230.134	1.991	1990.6	regulate	Run3	regulate/STIM_016.jpg	100
2235.483	1.228	1228.0	regulate	Run3	regulate/STIM_016.jpg	100
2239.732	1.715	1715.1	regulate	Run3	regulate/STIM_016.jpg	100
2243.466	2.478	2478.5	regulate	Run3	regulate/STIM_016.jpg	100
2249.448	2.287	2287.4	regulate	Run3	regulate/STIM_017.jpg	100
2254.064	1.946	1945.7	regulate	Run3	regulate/STIM_017.jpg	99
2258.176	1.178	1178.0	regulate	Run3	regulate/STIM_017.jpg	100
2262.037	1.71	1709.6	regulate	Run3	regulate/STIM_017.jpg	100
2265.793	1.852	1851.8	regulate	Run3	regulate/STIM_018.jpg	99
2270.658	1.103	1102.9	regulate	Run3	regulate/STIM_018.jpg	100
2274.123	1.956	1955.7	regulate	Run3	regulate/STIM_018.jpg	100
2278.226	1.773	1773.0	regulate	Run3	regulate/STIM_018.jpg	99
2283.885	1.468	1467.8	regulate	Run3	regulate/STIM_019.jpg	100
2288.15	2.319	2319.4	regulate	Run3	regulate/STIM_019.jpg	100
2293.659	1.669	1668.7	regulate	Run3	regulate/STIM_019.jpg	100
2297.329	1.787	1787.3	regulate	Run3	regulate/STIM_019.jpg	100
2302.805	1.712	1711.9	regulate	Run3	regulate/STIM_020.jpg	100
2307.926	1.226	1226.4	regulate	Run3	regulate/STIM_020.jpg	99
2312.451	1.801	1801.4	regulate	Run3	regulate/STIM_020.jpg	99
2316.835	1.814	1813.7	regulate	Run3	regulate/STIM_020.jpg	99
2322.22	1.901	1901.3	regulate	Run3	regulate/STIM_021.jpg	100
2326.101	1.124	1123.7	regulate	Run3	regulate/STIM_021.jpg	100
2330.645	1.639	1639.3	regulate	Run3	regulate/STIM_021.jpg	100
2336.128	1.418	1418.4	regulate	Run3	regulate/STIM_021.jpg	100
2341.173	1.922	1922.5	regulate	Run3	regulate/STIM_022.jpg	99
2346.226	1.995	1994.8	regulate	Run3	regulate/STIM_022.jpg	100
2351.34	1.382	1382.2	regulate	Run3	regulate/STIM_022.jpg	100
2355.416	2.414	2413.6	regulate	Run3	regulate/STIM_022.jpg	100
2361.359	1.982	1981.5	regulate	Run3	regulate/STIM_023.jpg	99
2365.763	1.982	1981.8	regulate	Run3	regulate/STIM_023.jpg	99
2371.486	1.94	1940.3	regulate	Run3	regulate/STIM_023.jpg	99
2376.807	2.356	2355.8	regulate	Run3	regulate/STIM_023.jpg	100
2382.601	2.129	2129.1	regulate	Run3	regulate/STIM_024.jpg	100
2387.124	2.143	2143.2	regulate	Run3	regulate/STIM_024.jpg	100
2393.038	2.117	2116.9	regulate	Run3	regulate/STIM_024.jpg	100
2397.649	1.34	1340.3	regulate	Run3	regulate/STIM_024.jpg	99
2401.702	1.771	1770.8	regulate	Run3	regulate/STIM_025.jpg	100
2405.645	2.258	2257.7	regulate	Run3	regulate/STIM_025.jpg	99
2409.934	1.25	1250.1	regulate	Run3	regulate/STIM_025.jpg	99
2413.913	2.048	2047.8	regulate	Run3	regulate/STIM_025.jpg	100
2418.057	1.191	1190.7	regulate	Run3	regulate/STIM_026.jpg	100
2421.906	1.686	1686.2	regulate	Run3	regulate/STIM_026.jpg	100
2426.655	2.161	2161.4	regulate	Run3	regulate/STIM_026.jpg	100
2431.454	2.011	2010.9	regulate	Run3	regulate/STIM_026.jpg	99
2435.774	1.913	1913.3	regulate	Run3	regulate/STIM_027.jpg	99
2441.396	2.073	2073.4	regulate	Run3	regulate/STIM_027.jpg	99
2446.328	2.019	2019.2	regulate	Run3	regulate/STIM_027.jpg	100
2450.738	1.555	1555.1	regulate	Run3	regulate/STIM_027.jpg	100
2456.053	1.313	1312.7	regulate	Run3	regulate/STIM_028.jpg	99
2460.81	1.742	1741.8	regulate	Run3	regulate/STIM_028.jpg	99
2464.876	2.247	2247.0	regulate	Run3	regulate/STIM_028.jpg	100
2470.805	1.527	1527.1	regulate	Run3	regulate/STIM_028.jpg	100
2475.928	2.126	2126.2	regulate	Run3	regulate/STIM_029.jpg	99
2480.582	1.388	1387.6	regulate	Run3	regulate/STIM_029.jpg	99
2485.944	2.465	2464.7	regulate	Run3	regulate/STIM_029.jpg	99
2491.141	1.085	1085.1	regulate	Run3	regulate/STIM_029.jpg	99
2494.425	0.967	966.9	observe	Run3	observe/STIM_000.jpg	100
2498.705	1.092	1092.3	observe	Run3	observe/STIM_000.jpg	99
2502.666	0.764	763.7	observe	Run3	observe/STIM_000.jpg	100
2506.779	1.032	1031.9	observe	Run3	observe/STIM_000.jpg	100
2510.938	1.433	1432.6	observe	Run3	observe/STIM_001.jpg	100
2514.37	0.76	759.7	observe	Run3	observe/STIM_001.jpg	99
2518.577	0.879	879.4	observe	Run3	observe/STIM_001.jpg	99
2522.807	1.196	1195.7	observe	Run3	observe/STIM_001.jpg	100
2527.563	1.316	1316.2	observe	Run3	observe/STIM_002.jpg	100
2531.489	0.866	865.6	observe	Run3	observe/STIM_002.jpg	99
2534.418	1.396	1395.5	observe	Run3	observe/STIM_002.jpg	99
2539.013	1.276	1275.9	observe	Run3	observe/STIM_002.jpg	99
2542.882	0.828	828.4	observe	Run3	observe/STIM_003.jpg	99
2546.456	1.132	1132.4	observe	Run3	observe/STIM_003.jpg	100
2551.314	1.151	1150.6	observe	Run3	observe/STIM_003.jpg	99
2555.397	0.838	837.5	observe	Run3	observe/STIM_003.jpg	99
2558.92	1.538	1537.8	observe	Run3	observe/STIM_004.jpg	99
2563.194	1.234	1234.2	observe	Run3	observe/STIM_004.jpg	100
2566.807	1.423	1422.7	observe	Run3	observe/STIM_004.jpg	100
2571.954	1.063	1063.1	observe	Run3	observe/STIM_004.jpg	100
2576.665	1.053	1053.4	observe	Run3	observe/STIM_005.jpg	99
2580.137	1.242	1242.1	observe	Run3	observe/STIM_005.jpg	99
2583.811	1.478	1478.4	observe	Run3	observe/STIM_005.jpg	99
2587.432	1.282	1282.0	observe	Run3	observe/STIM_005.jpg	100
2591.686	1.526	1525.9	observe	Run3	observe/STIM_006.jpg	99
2595.992	1.013	1012.7	observe	Run3	observe/STIM_006.jpg	100
2599.302	1.004	1004.0	observe	Run3	observe/STIM_006.jpg	100
2603.589	1.047	1047.2	observe	Run3	observe/STIM_006.jpg	99
2608.564	1.228	1227.6	observe	Run3	observe/STIM_007.jpg	99
2612.313	0.954	954.1	observe	Run3	observe/STIM_007.jpg	100
2616.895	1.554	1554.1	observe	Run3	observe/STIM_007.jpg	100
2620.662	1.049	1048.7	observe	Run3	observe/STIM_007.jpg	100
2624.108	1.503	1503.4	observe	Run3	observe/STIM_008.jpg	100
2629.1	1.068	1067.5	observe	Run3	observe/STIM_008.jpg	100
2632.519	1.208	1208.5	observe	Run3	observe/STIM_008.jpg	99
2635.884	1.099	1099.2	observe	Run3	observe/STIM_008.jpg	99
2639.79	1.214	1214.4	observe	Run3	observe/STIM_009.jpg	100
2644.525	1.399	1399.0	observe	Run3	observe/STIM_009.jpg	99
2648.236	1.567	1566.7	observe	Run3	observe/STIM_009.jpg	99
2652.826	1.143	1143.0	observe	Run3	observe/STIM_009.jpg	100
2656.496	1.155	1154.9	observe	Run3	observe/STIM_010.jpg	100
2660.101	1.102	1101.7	observe	Run3	observe/STIM_010.jpg	99
2663.984	1.3	1300.0	observe	Run3	observe/STIM_010.jpg	99
2668.374	0.938	938.3	observe	Run3	observe/STIM_010.jpg	99
2672.949	1.606	1606.1	observe	Run3	observe/STIM_011.jpg	100
2677.3	1.02	1020.3	observe	Run3	observe/STIM_011.jpg	100
2681.787	0.868	868.2	observe	Run3	observe/STIM_011.jpg	99
2686.478	1.236	1235.8	observe	Run3	observe/STIM_011.jpg	99
2689.851	0.891	891.0	observe	Run3	observe/STIM_012.jpg	100
2692.932	1.243	1243.1	observe	Run3	observe/STIM_012.jpg	99
2697.045	0.977	976.8	observe	Run3	observe/STIM_012.jpg	99
2700.694	1.486	1485.8	observe	Run3	observe/STIM_012.jpg	100
2704.999	1.112	1112.2	observe	Run3	observe/STIM_013.jpg	99
2709.241	1.311	1311.0	observe	Run3	observe/STIM_013.jpg	99
2713.475	1.163	1162.7	observe	Run3	observe/STIM_013.jpg	99
2718.284	1.089	1088.7	observe	Run3	observe/STIM_013.jpg	99
2722.556	0.876	876.5	observe	Run3	observe/STIM_014.jpg	100
2725.714	1.525	1524.9	observe	Run3	observe/STIM_014.jpg	99
2730.294	1.164	1163.7	observe	Run3	observe/STIM_014.jpg	99
2735.381	1.18	1180.3	observe	Run3	observe/STIM_014.jpg	99
2739.551	1.19	1189.8	observe	Run3	observe/STIM_015.jpg	100
2744.592	0.929	928.9	observe	Run3	observe/STIM_015.jpg	99
2748.849	1.617	1617.3	observe	Run3	observe/STIM_015.jpg	100
2753.024	1.628	1627.9	observe	Run3	observe/STIM_015.jpg	100
2756.87	1.46	1460.0	observe	Run3	observe/STIM_016.jpg	100
2760.613	1.308	1308.4	observe	Run3	observe/STIM_016.jpg	100
2765.443	0.985	984.8	observe	Run3	observe/STIM_016.jpg	99
2769.779	1.206	1206.2	observe	Run3	observe/STIM_016.jpg	100
2774.347	1.488	1488.2	observe	Run3	observe/STIM_017.jpg	100
2778.62	0.879	879.1	observe	Run3	observe/STIM_017.jpg	100
2783.174	1.132	1132.1	observe	Run3	observe/STIM_017.jpg	100
2786.566	1.247	1247.0	observe	Run3	observe/STIM_017.jpg	99
2791.676	1.473	1473.3	observe	Run3	observe/STIM_018.jpg	100
2795.572	0.887	886.6	observe	Run3	observe/STIM_018.jpg	100
2799.531	1.418	1417.5	observe	Run3	observe/STIM_018.jpg	100
2804.753	0.948	948.0	observe	Run3	observe/STIM_018.jpg	99
2808.939	0.907	906.6	observe	Run3	observe/STIM_019.jpg	99
2813.062	0.896	895.8	observe	Run3	observe/STIM_019.jpg	99
2816.411	1.143	1142.6	observe	Run3	observe/STIM_019.jpg	99
2821.014	0.886	885.5	observe	Run3	observe/STIM_019.jpg	100
