onset	duration	accuracy_binary	trial_type	learning_stage	stimulus
0.0	3.184	1	regulate	Run1	regulate/STIM_000.jpg
6.161	1.503	1	regulate	Run1	regulate/STIM_000.jpg
10.261	1.344	1	regulate	Run1	regulate/STIM_000.jpg
14.288	2.243	1	regulate	Run1	regulate/STIM_000.jpg
18.695	1.826	0	regulate	Run1	regulate/STIM_001.jpg
23.186	1.716	1	regulate	Run1	regulate/STIM_001.jpg
28.295	1.561	1	regulate	Run1	regulate/STIM_001.jpg
33.488	1.368	1	regulate	Run1	regulate/STIM_001.jpg
37.606	2.892	1	regulate	Run1	regulate/STIM_002.jpg
42.605	2.663	1	regulate	Run1	regulate/STIM_002.jpg
47.664	2.94	1	regulate	Run1	regulate/STIM_002.jpg
54.146	2.632	1	regulate	Run1	regulate/STIM_002.jpg
60.511	2.684	1	regulate	Run1	regulate/STIM_003.jpg
66.977	1.856	1	regulate	Run1	regulate/STIM_003.jpg
72.367	1.432	1	regulate	Run1	regulate/STIM_003.jpg
77.546	1.747	1	regulate	Run1	regulate/STIM_003.jpg
81.71	2.172	1	regulate	Run1	regulate/STIM_004.jpg
86.886	2.607	0	regulate	Run1	regulate/STIM_004.jpg
91.829	2.629	1	regulate	Run1	regulate/STIM_004.jpg
96.749	1.634	1	regulate	Run1	regulate/STIM_004.jpg
101.368	3.548	0	regulate	Run1	regulate/STIM_005.jpg
106.963	2.003	1	regulate	Run1	regulate/STIM_005.jpg
112.256	2.286	1	regulate	Run1	regulate/STIM_005.jpg
118.112	1.573	0	regulate	Run1	regulate/STIM_005.jpg
122.559	2.448	1	regulate	Run1	regulate/STIM_006.jpg
128.797	3.125	1	regulate	Run1	regulate/STIM_006.jpg
135.45	2.64	1	regulate	Run1	regulate/STIM_006.jpg
140.639	2.179	1	regulate	Run1	regulate/STIM_006.jpg
146.598	1.922	1	regulate	Run1	regulate/STIM_007.jpg
152.471	3.353	1	regulate	Run1	regulate/STIM_007.jpg
158.82	2.172	1	regulate	Run1	regulate/STIM_007.jpg
164.633	2.705	1	regulate	Run1	regulate/STIM_007.jpg
170.615	2.608	1	regulate	Run1	regulate/STIM_008.jpg
176.467	2.334	0	regulate	Run1	regulate/STIM_008.jpg
182.52	1.767	0	regulate	Run1	regulate/STIM_008.jpg
186.486	1.3	0	regulate	Run1	regulate/STIM_008.jpg
191.12	1.657	0	regulate	Run1	regulate/STIM_009.jpg
196.312	3.054	0	regulate	Run1	regulate/STIM_009.jpg
202.906	1.574	1	regulate	Run1	regulate/STIM_009.jpg
206.824	2.92	1	regulate	Run1	regulate/STIM_009.jpg
211.77	2.255	1	regulate	Run1	regulate/STIM_010.jpg
216.215	1.684	1	regulate	Run1	regulate/STIM_010.jpg
220.595	1.658	1	regulate	Run1	regulate/STIM_010.jpg
225.577	2.174	0	regulate	Run1	regulate/STIM_010.jpg
230.911	2.27	1	regulate	Run1	regulate/STIM_011.jpg
236.151	1.574	1	regulate	Run1	regulate/STIM_011.jpg
240.095	1.658	1	regulate	Run1	regulate/STIM_011.jpg
244.796	2.04	1	regulate	Run1	regulate/STIM_011.jpg
249.922	2.37	1	regulate	Run1	regulate/STIM_012.jpg
255.763	2.435	0	regulate	Run1	regulate/STIM_012.jpg
261.686	2.904	1	regulate	Run1	regulate/STIM_012.jpg
268.315	2.039	1	regulate	Run1	regulate/STIM_012.jpg
274.247	2.388	1	regulate	Run1	regulate/STIM_013.jpg
279.812	2.031	1	regulate	Run1	regulate/STIM_013.jpg
284.515	2.968	1	regulate	Run1	regulate/STIM_013.jpg
289.979	1.727	1	regulate	Run1	regulate/STIM_013.jpg
294.127	2.074	0	regulate	Run1	regulate/STIM_014.jpg
298.488	2.385	1	regulate	Run1	regulate/STIM_014.jpg
303.044	2.514	1	regulate	Run1	regulate/STIM_014.jpg
308.865	1.315	1	regulate	Run1	regulate/STIM_014.jpg
313.556	2.771	0	regulate	Run1	regulate/STIM_015.jpg
318.289	2.662	0	regulate	Run1	regulate/STIM_015.jpg
323.671	1.861	1	regulate	Run1	regulate/STIM_015.jpg
328.544	2.95	1	regulate	Run1	regulate/STIM_015.jpg
333.641	2.543	1	regulate	Run1	regulate/STIM_016.jpg
338.177	1.663	0	regulate	Run1	regulate/STIM_016.jpg
343.288	2.436	1	regulate	Run1	regulate/STIM_016.jpg
348.977	1.632	1	regulate	Run1	regulate/STIM_016.jpg
354.272	2.758	0	regulate	Run1	regulate/STIM_017.jpg
360.157	2.726	0	regulate	Run1	regulate/STIM_017.jpg
365.522	1.449	1	regulate	Run1	regulate/STIM_017.jpg
369.383	1.707	1	regulate	Run1	regulate/STIM_017.jpg
375.071	2.192	1	regulate	Run1	regulate/STIM_018.jpg
380.35	2.837	1	regulate	Run1	regulate/STIM_018.jpg
385.835	1.331	1	regulate	Run1	regulate/STIM_018.jpg
390.996	1.518	1	regulate	Run1	regulate/STIM_018.jpg
396.262	3.315	1	regulate	Run1	regulate/STIM_019.jpg
402.034	2.49	0	regulate	Run1	regulate/STIM_019.jpg
406.786	1.939	1	regulate	Run1	regulate/STIM_019.jpg
411.184	2.045	1	regulate	Run1	regulate/STIM_019.jpg
415.684	3.071	1	regulate	Run1	regulate/STIM_020.jpg
421.559	3.191	1	regulate	Run1	regulate/STIM_020.jpg
428.488	2.426	0	regulate	Run1	regulate/STIM_020.jpg
433.711	2.874	1	regulate	Run1	regulate/STIM_020.jpg
439.734	1.656	1	regulate	Run1	regulate/STIM_021.jpg
443.743	1.526	1	regulate	Run1	regulate/STIM_021.jpg
448.983	2.223	1	regulate	Run1	regulate/STIM_021.jpg
454.24	1.955	1	regulate	Run1	regulate/STIM_021.jpg
458.427	3.016	1	regulate	Run1	regulate/STIM_022.jpg
464.655	2.675	0	regulate	Run1	regulate/STIM_022.jpg
470.568	1.611	1	regulate	Run1	regulate/STIM_022.jpg
474.519	2.451	0	regulate	Run1	regulate/STIM_022.jpg
480.07	3.544	1	regulate	Run1	regulate/STIM_023.jpg
486.117	2.328	1	regulate	Run1	regulate/STIM_023.jpg
492.321	2.692	0	regulate	Run1	regulate/STIM_023.jpg
497.372	2.681	1	regulate	Run1	regulate/STIM_023.jpg
502.855	2.162	1	regulate	Run1	regulate/STIM_024.jpg
508.6	2.027	1	regulate	Run1	regulate/STIM_024.jpg
514.329	1.71	1	regulate	Run1	regulate/STIM_024.jpg
518.459	2.156	1	regulate	Run1	regulate/STIM_024.jpg
523.66	3.446	0	regulate	Run1	regulate/STIM_025.jpg
529.496	3.242	1	regulate	Run1	regulate/STIM_025.jpg
536.281	3.072	0	regulate	Run1	regulate/STIM_025.jpg
543.274	2.77	1	regulate	Run1	regulate/STIM_025.jpg
549.041	2.116	1	regulate	Run1	regulate/STIM_026.jpg
554.806	1.914	1	regulate	Run1	regulate/STIM_026.jpg
560.348	2.389	0	regulate	Run1	regulate/STIM_026.jpg
565.435	2.883	1	regulate	Run1	regulate/STIM_026.jpg
570.537	2.816	1	regulate	Run1	regulate/STIM_027.jpg
576.996	1.897	1	regulate	Run1	regulate/STIM_027.jpg
582.698	2.483	0	regulate	Run1	regulate/STIM_027.jpg
587.404	1.759	1	regulate	Run1	regulate/STIM_027.jpg
592.382	2.181	1	regulate	Run1	regulate/STIM_028.jpg
596.862	2.572	1	regulate	Run1	regulate/STIM_028.jpg
601.533	1.831	1	regulate	Run1	regulate/STIM_028.jpg
606.978	1.822	1	regulate	Run1	regulate/STIM_028.jpg
612.653	3.424	1	regulate	Run1	regulate/STIM_029.jpg
618.55	1.616	1	regulate	Run1	regulate/STIM_029.jpg
622.236	2.886	1	regulate	Run1	regulate/STIM_029.jpg
627.479	1.446	1	regulate	Run1	regulate/STIM_029.jpg
631.308	1.256	1	observe	Run1	observe/STIM_000.jpg
636.132	1.123	1	observe	Run1	observe/STIM_000.jpg
640.794	1.031	1	observe	Run1	observe/STIM_000.jpg
644.695	1.042	1	observe	Run1	observe/STIM_000.jpg
649.09	1.373	1	observe	Run1	observe/STIM_001.jpg
652.904	1.203	1	observe	Run1	observe/STIM_001.jpg
658.107	1.399	1	observe	Run1	observe/STIM_001.jpg
662.631	1.01	1	observe	Run1	observe/STIM_001.jpg
666.202	1.416	0	observe	Run1	observe/STIM_002.jpg
669.622	1.099	1	observe	Run1	observe/STIM_002.jpg
673.333	1.556	1	observe	Run1	observe/STIM_002.jpg
677.696	1.0	1	observe	Run1	observe/STIM_002.jpg
681.269	1.085	1	observe	Run1	observe/STIM_003.jpg
685.626	0.89	0	observe	Run1	observe/STIM_003.jpg
688.978	0.851	1	observe	Run1	observe/STIM_003.jpg
692.922	0.915	1	observe	Run1	observe/STIM_003.jpg
697.472	1.169	1	observe	Run1	observe/STIM_004.jpg
701.883	1.242	1	observe	Run1	observe/STIM_004.jpg
706.005	1.368	1	observe	Run1	observe/STIM_004.jpg
709.902	1.461	1	observe	Run1	observe/STIM_004.jpg
714.5	1.209	1	observe	Run1	observe/STIM_005.jpg
717.839	1.356	1	observe	Run1	observe/STIM_005.jpg
721.328	1.463	1	observe	Run1	observe/STIM_005.jpg
726.003	1.281	1	observe	Run1	observe/STIM_005.jpg
729.361	1.028	1	observe	Run1	observe/STIM_006.jpg
733.871	1.331	1	observe	Run1	observe/STIM_006.jpg
739.058	1.328	1	observe	Run1	observe/STIM_006.jpg
743.224	1.512	1	observe	Run1	observe/STIM_006.jpg
748.389	0.95	1	observe	Run1	observe/STIM_007.jpg
753.045	0.975	1	observe	Run1	observe/STIM_007.jpg
757.082	1.53	1	observe	Run1	observe/STIM_007.jpg
761.641	1.592	1	observe	Run1	observe/STIM_007.jpg
766.357	0.955	1	observe	Run1	observe/STIM_008.jpg
770.253	1.095	1	observe	Run1	observe/STIM_008.jpg
774.584	0.825	1	observe	Run1	observe/STIM_008.jpg
777.635	1.269	0	observe	Run1	observe/STIM_008.jpg
782.191	1.467	1	observe	Run1	observe/STIM_009.jpg
785.636	1.441	1	observe	Run1	observe/STIM_009.jpg
790.907	1.438	1	observe	Run1	observe/STIM_009.jpg
796.412	0.957	0	observe	Run1	observe/STIM_009.jpg
800.113	1.178	1	observe	Run1	observe/STIM_010.jpg
804.786	1.354	1	observe	Run1	observe/STIM_010.jpg
809.239	1.305	1	observe	Run1	observe/STIM_010.jpg
812.841	1.403	0	observe	Run1	observe/STIM_010.jpg
817.44	0.768	1	observe	Run1	observe/STIM_011.jpg
821.495	1.223	1	observe	Run1	observe/STIM_011.jpg
826.397	0.872	1	observe	Run1	observe/STIM_011.jpg
829.981	1.146	1	observe	Run1	observe/STIM_011.jpg
834.139	1.483	1	observe	Run1	observe/STIM_012.jpg
838.548	0.832	1	observe	Run1	observe/STIM_012.jpg
841.881	1.165	1	observe	Run1	observe/STIM_012.jpg
845.978	1.383	1	observe	Run1	observe/STIM_012.jpg
850.712	1.336	1	observe	Run1	observe/STIM_013.jpg
855.929	0.895	1	observe	Run1	observe/STIM_013.jpg
859.97	1.175	1	observe	Run1	observe/STIM_013.jpg
864.86	0.917	1	observe	Run1	observe/STIM_013.jpg
869.445	0.999	1	observe	Run1	observe/STIM_014.jpg
873.429	1.287	1	observe	Run1	observe/STIM_014.jpg
876.727	1.457	1	observe	Run1	observe/STIM_014.jpg
880.398	0.907	1	observe	Run1	observe/STIM_014.jpg
883.388	1.414	1	observe	Run1	observe/STIM_015.jpg
887.981	1.344	1	observe	Run1	observe/STIM_015.jpg
893.064	1.203	1	observe	Run1	observe/STIM_015.jpg
897.399	1.438	1	observe	Run1	observe/STIM_015.jpg
900.881	0.836	1	observe	Run1	observe/STIM_016.jpg
903.974	1.541	1	observe	Run1	observe/STIM_016.jpg
909.12	1.429	1	observe	Run1	observe/STIM_016.jpg
914.299	1.513	1	observe	Run1	observe/STIM_016.jpg
919.568	1.268	1	observe	Run1	observe/STIM_017.jpg
924.474	1.387	1	observe	Run1	observe/STIM_017.jpg
929.833	1.278	1	observe	Run1	observe/STIM_017.jpg
933.499	0.966	1	observe	Run1	observe/STIM_017.jpg
937.699	0.896	1	observe	Run1	observe/STIM_018.jpg
941.871	0.997	1	observe	Run1	observe/STIM_018.jpg
945.765	1.43	0	observe	Run1	observe/STIM_018.jpg
950.852	1.096	1	observe	Run1	observe/STIM_018.jpg
955.69	0.892	1	observe	Run1	observe/STIM_019.jpg
959.935	0.933	1	observe	Run1	observe/STIM_019.jpg
964.616	1.05	1	observe	Run1	observe/STIM_019.jpg
968.801	1.386	1	observe	Run1	observe/STIM_019.jpg
972.682	3.023	1	regulate	Run2	regulate/STIM_000.jpg
979.238	2.643	1	regulate	Run2	regulate/STIM_000.jpg
985.5	1.429	1	regulate	Run2	regulate/STIM_000.jpg
989.941	2.172	1	regulate	Run2	regulate/STIM_000.jpg
995.538	2.792	1	regulate	Run2	regulate/STIM_001.jpg
1001.046	1.765	1	regulate	Run2	regulate/STIM_001.jpg
1005.124	1.821	1	regulate	Run2	regulate/STIM_001.jpg
1010.461	2.003	1	regulate	Run2	regulate/STIM_001.jpg
1015.31	1.563	1	regulate	Run2	regulate/STIM_002.jpg
1020.407	1.898	1	regulate	Run2	regulate/STIM_002.jpg
1025.066	2.643	1	regulate	Run2	regulate/STIM_002.jpg
1029.806	2.397	1	regulate	Run2	regulate/STIM_002.jpg
1036.092	2.531	1	regulate	Run2	regulate/STIM_003.jpg
1040.531	1.113	1	regulate	Run2	regulate/STIM_003.jpg
1045.59	2.162	1	regulate	Run2	regulate/STIM_003.jpg
1050.427	1.589	1	regulate	Run2	regulate/STIM_003.jpg
1054.356	1.46	1	regulate	Run2	regulate/STIM_004.jpg
1058.287	1.436	1	regulate	Run2	regulate/STIM_004.jpg
1062.121	2.633	1	regulate	Run2	regulate/STIM_004.jpg
1066.961	2.431	1	regulate	Run2	regulate/STIM_004.jpg
1072.011	2.83	1	regulate	Run2	regulate/STIM_005.jpg
1077.735	2.405	1	regulate	Run2	regulate/STIM_005.jpg
1083.92	1.715	1	regulate	Run2	regulate/STIM_005.jpg
1089.383	1.166	0	regulate	Run2	regulate/STIM_005.jpg
1092.908	2.903	1	regulate	Run2	regulate/STIM_006.jpg
1098.219	2.063	1	regulate	Run2	regulate/STIM_006.jpg
1103.546	1.858	1	regulate	Run2	regulate/STIM_006.jpg
1107.881	1.57	1	regulate	Run2	regulate/STIM_006.jpg
1112.335	1.518	1	regulate	Run2	regulate/STIM_007.jpg
1117.06	1.986	1	regulate	Run2	regulate/STIM_007.jpg
1121.928	2.049	1	regulate	Run2	regulate/STIM_007.jpg
1127.728	1.306	0	regulate	Run2	regulate/STIM_007.jpg
1132.37	1.442	0	regulate	Run2	regulate/STIM_008.jpg
1137.104	2.652	1	regulate	Run2	regulate/STIM_008.jpg
1143.128	2.552	1	regulate	Run2	regulate/STIM_008.jpg
1148.572	1.938	1	regulate	Run2	regulate/STIM_008.jpg
1153.431	3.024	1	regulate	Run2	regulate/STIM_009.jpg
1159.564	2.485	1	regulate	Run2	regulate/STIM_009.jpg
1165.54	2.45	1	regulate	Run2	regulate/STIM_009.jpg
1171.756	2.04	1	regulate	Run2	regulate/STIM_009.jpg
1177.278	2.684	1	regulate	Run2	regulate/STIM_010.jpg
1183.42	1.643	1	regulate	Run2	regulate/STIM_010.jpg
1188.404	1.14	1	regulate	Run2	regulate/STIM_010.jpg
1193.56	2.268	1	regulate	Run2	regulate/STIM_010.jpg
1199.314	1.97	1	regulate	Run2	regulate/STIM_011.jpg
1203.705	2.673	1	regulate	Run2	regulate/STIM_011.jpg
1209.913	2.51	1	regulate	Run2	regulate/STIM_011.jpg
1214.751	1.698	1	regulate	Run2	regulate/STIM_011.jpg
1220.41	2.586	1	regulate	Run2	regulate/STIM_012.jpg
1226.408	2.504	1	regulate	Run2	regulate/STIM_012.jpg
1231.13	2.099	1	regulate	Run2	regulate/STIM_012.jpg
1235.623	2.32	1	regulate	Run2	regulate/STIM_012.jpg
1241.921	2.561	1	regulate	Run2	regulate/STIM_013.jpg
1247.829	1.822	1	regulate	Run2	regulate/STIM_013.jpg
1252.054	1.145	1	regulate	Run2	regulate/STIM_013.jpg
1256.089	2.512	1	regulate	Run2	regulate/STIM_013.jpg
1262.25	2.398	0	regulate	Run2	regulate/STIM_014.jpg
1267.637	2.288	1	regulate	Run2	regulate/STIM_014.jpg
1273.772	1.976	1	regulate	Run2	regulate/STIM_014.jpg
1277.966	1.734	1	regulate	Run2	regulate/STIM_014.jpg
1282.879	1.656	1	regulate	Run2	regulate/STIM_015.jpg
1287.656	2.586	1	regulate	Run2	regulate/STIM_015.jpg
1293.444	1.598	1	regulate	Run2	regulate/STIM_015.jpg
1298.393	2.255	1	regulate	Run2	regulate/STIM_015.jpg
1303.798	2.54	1	regulate	Run2	regulate/STIM_016.jpg
1309.252	1.979	1	regulate	Run2	regulate/STIM_016.jpg
1313.514	1.384	1	regulate	Run2	regulate/STIM_016.jpg
1317.454	2.454	1	regulate	Run2	regulate/STIM_016.jpg
1322.834	1.789	1	regulate	Run2	regulate/STIM_017.jpg
1327.709	2.688	1	regulate	Run2	regulate/STIM_017.jpg
1333.126	1.678	1	regulate	Run2	regulate/STIM_017.jpg
1338.791	2.253	0	regulate	Run2	regulate/STIM_017.jpg
1344.477	1.854	0	regulate	Run2	regulate/STIM_018.jpg
1349.471	1.968	1	regulate	Run2	regulate/STIM_018.jpg
1354.864	1.682	1	regulate	Run2	regulate/STIM_018.jpg
1359.911	1.183	1	regulate	Run2	regulate/STIM_018.jpg
1363.629	2.102	1	regulate	Run2	regulate/STIM_019.jpg
1369.375	2.6	1	regulate	Run2	regulate/STIM_019.jpg
1374.389	1.51	1	regulate	Run2	regulate/STIM_019.jpg
1378.756	2.2	1	regulate	Run2	regulate/STIM_019.jpg
1383.905	1.378	0	regulate	Run2	regulate/STIM_020.jpg
1388.103	2.777	1	regulate	Run2	regulate/STIM_020.jpg
1392.885	1.284	1	regulate	Run2	regulate/STIM_020.jpg
1397.179	1.665	1	regulate	Run2	regulate/STIM_020.jpg
1400.943	2.123	1	regulate	Run2	regulate/STIM_021.jpg
1406.871	2.4	1	regulate	Run2	regulate/STIM_021.jpg
1411.235	1.435	1	regulate	Run2	regulate/STIM_021.jpg
1416.228	1.644	1	regulate	Run2	regulate/STIM_021.jpg
1420.682	2.083	1	regulate	Run2	regulate/STIM_022.jpg
1425.751	2.037	1	regulate	Run2	regulate/STIM_022.jpg
1431.189	1.309	0	regulate	Run2	regulate/STIM_022.jpg
1435.723	1.488	1	regulate	Run2	regulate/STIM_022.jpg
1439.791	2.009	1	regulate	Run2	regulate/STIM_023.jpg
1443.799	1.621	1	regulate	Run2	regulate/STIM_023.jpg
1447.702	1.912	1	regulate	Run2	regulate/STIM_023.jpg
1452.221	1.138	1	regulate	Run2	regulate/STIM_023.jpg
1456.381	2.423	1	regulate	Run2	regulate/STIM_024.jpg
1461.224	2.24	0	regulate	Run2	regulate/STIM_024.jpg
1467.478	2.701	0	regulate	Run2	regulate/STIM_024.jpg
1473.724	1.528	1	regulate	Run2	regulate/STIM_024.jpg
1479.015	2.318	1	regulate	Run2	regulate/STIM_025.jpg
1485.069	1.899	1	regulate	Run2	regulate/STIM_025.jpg
1490.889	1.494	1	regulate	Run2	regulate/STIM_025.jpg
1495.445	1.534	1	regulate	Run2	regulate/STIM_025.jpg
1500.545	2.735	1	regulate	Run2	regulate/STIM_026.jpg
1506.648	2.73	1	regulate	Run2	regulate/STIM_026.jpg
1512.631	2.113	1	regulate	Run2	regulate/STIM_026.jpg
1518.537	1.986	1	regulate	Run2	regulate/STIM_026.jpg
1522.851	2.924	1	regulate	Run2	regulate/STIM_027.jpg
1528.095	1.299	1	regulate	Run2	regulate/STIM_027.jpg
1532.439	2.514	1	regulate	Run2	regulate/STIM_027.jpg
1538.837	2.271	1	regulate	Run2	regulate/STIM_027.jpg
1544.759	1.739	1	regulate	Run2	regulate/STIM_028.jpg
1549.162	2.136	1	regulate	Run2	regulate/STIM_028.jpg
1554.526	1.248	1	regulate	Run2	regulate/STIM_028.jpg
1558.811	1.211	1	regulate	Run2	regulate/STIM_028.jpg
1562.395	1.628	1	regulate	Run2	regulate/STIM_029.jpg
1567.417	2.761	1	regulate	Run2	regulate/STIM_029.jpg
1573.661	2.609	1	regulate	Run2	regulate/STIM_029.jpg
1578.277	1.486	0	regulate	Run2	regulate/STIM_029.jpg
1583.726	1.372	1	observe	Run2	observe/STIM_000.jpg
1588.432	1.384	1	observe	Run2	observe/STIM_000.jpg
1593.018	1.191	0	observe	Run2	observe/STIM_000.jpg
1597.798	1.699	1	observe	Run2	observe/STIM_000.jpg
1602.256	1.59	1	observe	Run2	observe/STIM_001.jpg
1607.74	1.189	0	observe	Run2	observe/STIM_001.jpg
1611.766	1.018	0	observe	Run2	observe/STIM_001.jpg
1616.314	1.651	1	observe	Run2	observe/STIM_001.jpg
1621.332	1.527	1	observe	Run2	observe/STIM_002.jpg
1626.33	1.203	1	observe	Run2	observe/STIM_002.jpg
1631.166	1.365	1	observe	Run2	observe/STIM_002.jpg
1635.983	1.592	0	observe	Run2	observe/STIM_002.jpg
1639.755	0.904	1	observe	Run2	observe/STIM_003.jpg
1644.101	0.82	1	observe	Run2	observe/STIM_003.jpg
1647.629	1.129	0	observe	Run2	observe/STIM_003.jpg
1652.1	1.188	1	observe	Run2	observe/STIM_003.jpg
1656.64	0.991	1	observe	Run2	observe/STIM_004.jpg
1659.733	0.984	1	observe	Run2	observe/STIM_004.jpg
1663.067	1.499	1	observe	Run2	observe/STIM_004.jpg
1668.237	1.27	1	observe	Run2	observe/STIM_004.jpg
1672.394	0.982	0	observe	Run2	observe/STIM_005.jpg
1676.881	1.398	1	observe	Run2	observe/STIM_005.jpg
1682.183	1.32	0	observe	Run2	observe/STIM_005.jpg
1687.481	1.25	1	observe	Run2	observe/STIM_005.jpg
1692.345	1.086	1	observe	Run2	observe/STIM_006.jpg
1696.066	1.172	1	observe	Run2	observe/STIM_006.jpg
1700.656	1.024	1	observe	Run2	observe/STIM_006.jpg
1703.818	1.651	1	observe	Run2	observe/STIM_006.jpg
1707.423	1.5	1	observe	Run2	observe/STIM_007.jpg
1712.773	1.431	0	observe	Run2	observe/STIM_007.jpg
1716.893	1.18	1	observe	Run2	observe/STIM_007.jpg
1721.503	1.51	0	observe	Run2	observe/STIM_007.jpg
1726.83	0.899	1	observe	Run2	observe/STIM_008.jpg
1729.723	1.174	1	observe	Run2	observe/STIM_008.jpg
1733.573	0.858	1	observe	Run2	observe/STIM_008.jpg
1736.489	1.517	1	observe	Run2	observe/STIM_008.jpg
1741.426	1.113	1	observe	Run2	observe/STIM_009.jpg
1746.16	1.391	1	observe	Run2	observe/STIM_009.jpg
1750.298	1.151	1	observe	Run2	observe/STIM_009.jpg
1754.864	1.052	1	observe	Run2	observe/STIM_009.jpg
1759.331	1.224	1	observe	Run2	observe/STIM_010.jpg
1764.039	1.092	0	observe	Run2	observe/STIM_010.jpg
1767.601	0.912	1	observe	Run2	observe/STIM_010.jpg
1771.261	1.467	1	observe	Run2	observe/STIM_010.jpg
1774.985	1.178	1	observe	Run2	observe/STIM_011.jpg
1778.12	1.555	1	observe	Run2	observe/STIM_011.jpg
1782.242	1.58	1	observe	Run2	observe/STIM_011.jpg
1785.987	1.177	1	observe	Run2	observe/STIM_011.jpg
1789.563	0.965	1	observe	Run2	observe/STIM_012.jpg
1792.661	1.126	1	observe	Run2	observe/STIM_012.jpg
1797.245	0.931	1	observe	Run2	observe/STIM_012.jpg
1801.23	0.849	0	observe	Run2	observe/STIM_012.jpg
1804.485	1.277	0	observe	Run2	observe/STIM_013.jpg
1809.582	0.864	1	observe	Run2	observe/STIM_013.jpg
1812.757	1.41	1	observe	Run2	observe/STIM_013.jpg
1817.527	1.144	1	observe	Run2	observe/STIM_013.jpg
1820.679	1.522	1	observe	Run2	observe/STIM_014.jpg
1825.795	1.498	1	observe	Run2	observe/STIM_014.jpg
1829.959	1.402	1	observe	Run2	observe/STIM_014.jpg
1834.548	1.027	1	observe	Run2	observe/STIM_014.jpg
1839.021	1.079	1	observe	Run2	observe/STIM_015.jpg
1843.525	1.632	1	observe	Run2	observe/STIM_015.jpg
1848.105	1.291	1	observe	Run2	observe/STIM_015.jpg
1851.429	1.235	1	observe	Run2	observe/STIM_015.jpg
1855.473	1.363	1	observe	Run2	observe/STIM_016.jpg
1860.724	1.532	1	observe	Run2	observe/STIM_016.jpg
1865.957	1.042	1	observe	Run2	observe/STIM_016.jpg
1870.847	1.548	1	observe	Run2	observe/STIM_016.jpg
1876.292	0.835	0	observe	Run2	observe/STIM_017.jpg
1880.159	1.336	1	observe	Run2	observe/STIM_017.jpg
1883.909	1.047	1	observe	Run2	observe/STIM_017.jpg
1888.166	0.756	1	observe	Run2	observe/STIM_017.jpg
1891.519	1.221	1	observe	Run2	observe/STIM_018.jpg
1896.002	1.404	0	observe	Run2	observe/STIM_018.jpg
1900.287	0.941	1	observe	Run2	observe/STIM_018.jpg
1903.308	1.123	1	observe	Run2	observe/STIM_018.jpg
1906.583	1.191	1	observe	Run2	observe/STIM_019.jpg
1910.002	1.077	1	observe	Run2	observe/STIM_019.jpg
1913.71	1.368	0	observe	Run2	observe/STIM_019.jpg
1917.511	0.988	1	observe	Run2	observe/STIM_019.jpg
1922.299	1.615	1	regulate	Run3	regulate/STIM_000.jpg
1926.635	2.127	1	regulate	Run3	regulate/STIM_000.jpg
1931.52	1.303	1	regulate	Run3	regulate/STIM_000.jpg
1936.601	2.293	0	regulate	Run3	regulate/STIM_000.jpg
1942.603	1.79	1	regulate	Run3	regulate/STIM_001.jpg
1947.851	1.531	1	regulate	Run3	regulate/STIM_001.jpg
1953.401	1.83	1	regulate	Run3	regulate/STIM_001.jpg
1957.376	2.118	1	regulate	Run3	regulate/STIM_001.jpg
1962.327	2.31	0	regulate	Run3	regulate/STIM_002.jpg
1968.465	2.113	1	regulate	Run3	regulate/STIM_002.jpg
1974.151	1.589	1	regulate	Run3	regulate/STIM_002.jpg
1979.359	1.565	1	regulate	Run3	regulate/STIM_002.jpg
1983.664	2.123	1	regulate	Run3	regulate/STIM_003.jpg
1988.054	1.661	1	regulate	Run3	regulate/STIM_003.jpg
1991.768	2.103	1	regulate	Run3	regulate/STIM_003.jpg
1997.657	1.577	1	regulate	Run3	regulate/STIM_003.jpg
2001.369	1.81	1	regulate	Run3	regulate/STIM_004.jpg
2005.589	2.502	1	regulate	Run3	regulate/STIM_004.jpg
2010.327	2.134	1	regulate	Run3	regulate/STIM_004.jpg
2016.397	1.784	0	regulate	Run3	regulate/STIM_004.jpg
2020.125	2.523	1	regulate	Run3	regulate/STIM_005.jpg
2026.312	2.324	1	regulate	Run3	regulate/STIM_005.jpg
2031.242	2.033	1	regulate	Run3	regulate/STIM_005.jpg
2036.822	2.428	1	regulate	Run3	regulate/STIM_005.jpg
2041.629	2.13	1	regulate	Run3	regulate/STIM_006.jpg
2045.974	1.758	1	regulate	Run3	regulate/STIM_006.jpg
2051.777	1.478	1	regulate	Run3	regulate/STIM_006.jpg
2056.467	2.175	1	regulate	Run3	regulate/STIM_006.jpg
2061.268	2.499	1	regulate	Run3	regulate/STIM_007.jpg
2067.332	2.174	1	regulate	Run3	regulate/STIM_007.jpg
2073.167	2.375	1	regulate	Run3	regulate/STIM_007.jpg
2078.685	1.399	1	regulate	Run3	regulate/STIM_007.jpg
2082.736	2.273	0	regulate	Run3	regulate/STIM_008.jpg
2087.26	1.064	0	regulate	Run3	regulate/STIM_008.jpg
2092.061	1.226	1	regulate	Run3	regulate/STIM_008.jpg
2096.424	2.232	1	regulate	Run3	regulate/STIM_008.jpg
2102.395	1.135	1	regulate	Run3	regulate/STIM_009.jpg
2105.695	1.575	1	regulate	Run3	regulate/STIM_009.jpg
2109.178	1.842	1	regulate	Run3	regulate/STIM_009.jpg
2114.326	1.402	1	regulate	Run3	regulate/STIM_009.jpg
2118.527	1.966	1	regulate	Run3	regulate/STIM_010.jpg
2124.454	1.82	1	regulate	Run3	regulate/STIM_010.jpg
2128.869	1.928	1	regulate	Run3	regulate/STIM_010.jpg
2133.598	1.772	0	regulate	Run3	regulate/STIM_010.jpg
2137.884	2.451	1	regulate	Run3	regulate/STIM_011.jpg
2142.964	2.438	1	regulate	Run3	regulate/STIM_011.jpg
2148.547	1.284	1	regulate	Run3	regulate/STIM_011.jpg
2151.902	1.772	1	regulate	Run3	regulate/STIM_011.jpg
2157.042	1.452	1	regulate	Run3	regulate/STIM_012.jpg
2161.874	2.026	1	regulate	Run3	regulate/STIM_012.jpg
2167.098	1.344	1	regulate	Run3	regulate/STIM_012.jpg
2171.032	1.771	0	regulate	Run3	regulate/STIM_012.jpg
2174.786	1.595	1	regulate	Run3	regulate/STIM_013.jpg
2179.547	1.306	1	regulate	Run3	regulate/STIM_013.jpg
2183.893	1.322	1	regulate	Run3	regulate/STIM_013.jpg
2188.269	1.083	1	regulate	Run3	regulate/STIM_013.jpg
2192.165	2.331	1	regulate	Run3	regulate/STIM_014.jpg
2197.042	1.633	1	regulate	Run3	regulate/STIM_014.jpg
2202.094	1.096	1	regulate	Run3	regulate/STIM_014.jpg
2206.882	2.131	0	regulate	Run3	regulate/STIM_014.jpg
2212.955	1.179	1	regulate	Run3	regulate/STIM_015.jpg
2216.282	1.577	1	regulate	Run3	regulate/STIM_015.jpg
2220.95	1.506	1	regulate	Run3	regulate/STIM_015.jpg
2225.371	1.864	1	regulate	Run3	regulate/STIM_015.jpg
2230.134	1.991	1	regulate	Run3	regulate/STIM_016.jpg
2235.483	1.228	1	regulate	Run3	regulate/STIM_016.jpg
2239.732	1.715	1	regulate	Run3	regulate/STIM_016.jpg
2243.466	2.478	1	regulate	Run3	regulate/STIM_016.jpg
2249.448	2.287	1	regulate	Run3	regulate/STIM_017.jpg
2254.064	1.946	1	regulate	Run3	regulate/STIM_017.jpg
2258.176	1.178	1	regulate	Run3	regulate/STIM_017.jpg
2262.037	1.71	1	regulate	Run3	regulate/STIM_017.jpg
2265.793	1.852	1	regulate	Run3	regulate/STIM_018.jpg
2270.658	1.103	1	regulate	Run3	regulate/STIM_018.jpg
2274.123	1.956	1	regulate	Run3	regulate/STIM_018.jpg
2278.226	1.773	0	regulate	Run3	regulate/STIM_018.jpg
2283.885	1.468	1	regulate	Run3	regulate/STIM_019.jpg
2288.15	2.319	1	regulate	Run3	regulate/STIM_019.jpg
2293.659	1.669	1	regulate	Run3	regulate/STIM_019.jpg
2297.329	1.787	0	regulate	Run3	regulate/STIM_019.jpg
2302.805	1.712	1	regulate	Run3	regulate/STIM_020.jpg
2307.926	1.226	1	regulate	Run3	regulate/STIM_020.jpg
2312.451	1.801	1	regulate	Run3	regulate/STIM_020.jpg
2316.835	1.814	1	regulate	Run3	regulate/STIM_020.jpg
2322.22	1.901	1	regulate	Run3	regulate/STIM_021.jpg
2326.101	1.124	1	regulate	Run3	regulate/STIM_021.jpg
2330.645	1.639	1	regulate	Run3	regulate/STIM_021.jpg
2336.128	1.418	1	regulate	Run3	regulate/STIM_021.jpg
2341.173	1.922	1	regulate	Run3	regulate/STIM_022.jpg
2346.226	1.995	1	regulate	Run3	regulate/STIM_022.jpg
2351.34	1.382	1	regulate	Run3	regulate/STIM_022.jpg
2355.416	2.414	1	regulate	Run3	regulate/STIM_022.jpg
2361.359	1.982	1	regulate	Run3	regulate/STIM_023.jpg
2365.763	1.982	1	regulate	Run3	regulate/STIM_023.jpg
2371.486	1.94	1	regulate	Run3	regulate/STIM_023.jpg
2376.807	2.356	1	regulate	Run3	regulate/STIM_023.jpg
2382.601	2.129	1	regulate	Run3	regulate/STIM_024.jpg
2387.124	2.143	1	regulate	Run3	regulate/STIM_024.jpg
2393.038	2.117	1	regulate	Run3	regulate/STIM_024.jpg
2397.649	1.34	1	regulate	Run3	regulate/STIM_024.jpg
2401.702	1.771	1	regulate	Run3	regulate/STIM_025.jpg
2405.645	2.258	1	regulate	Run3	regulate/STIM_025.jpg
2409.934	1.25	1	regulate	Run3	regulate/STIM_025.jpg
2413.913	2.048	1	regulate	Run3	regulate/STIM_025.jpg
2418.057	1.191	1	regulate	Run3	regulate/STIM_026.jpg
2421.906	1.686	1	regulate	Run3	regulate/STIM_026.jpg
2426.655	2.161	1	regulate	Run3	regulate/STIM_026.jpg
2431.454	2.011	1	regulate	Run3	regulate/STIM_026.jpg
2435.774	1.913	1	regulate	Run3	regulate/STIM_027.jpg
2441.396	2.073	1	regulate	Run3	regulate/STIM_027.jpg
2446.328	2.019	1	regulate	Run3	regulate/STIM_027.jpg
2450.738	1.555	1	regulate	Run3	regulate/STIM_027.jpg
2456.053	1.313	1	regulate	Run3	regulate/STIM_028.jpg
2460.81	1.742	1	regulate	Run3	regulate/STIM_028.jpg
2464.876	2.247	1	regulate	Run3	regulate/STIM_028.jpg
2470.805	1.527	1	regulate	Run3	regulate/STIM_028.jpg
2475.928	2.126	1	regulate	Run3	regulate/STIM_029.jpg
2480.582	1.388	1	regulate	Run3	regulate/STIM_029.jpg
2485.944	2.465	1	regulate	Run3	regulate/STIM_029.jpg
2491.141	1.085	0	regulate	Run3	regulate/STIM_029.jpg
2494.425	0.967	1	observe	Run3	observe/STIM_000.jpg
2498.705	1.092	1	observe	Run3	observe/STIM_000.jpg
2502.666	0.764	0	observe	Run3	observe/STIM_000.jpg
2506.779	1.032	0	observe	Run3	observe/STIM_000.jpg
2510.938	1.433	1	observe	Run3	observe/STIM_001.jpg
2514.37	0.76	1	observe	Run3	observe/STIM_001.jpg
2518.577	0.879	1	observe	Run3	observe/STIM_001.jpg
2522.807	1.196	1	observe	Run3	observe/STIM_001.jpg
2527.563	1.316	1	observe	Run3	observe/STIM_002.jpg
2531.489	0.866	1	observe	Run3	observe/STIM_002.jpg
2534.418	1.396	1	observe	Run3	observe/STIM_002.jpg
2539.013	1.276	1	observe	Run3	observe/STIM_002.jpg
2542.882	0.828	1	observe	Run3	observe/STIM_003.jpg
2546.456	1.132	0	observe	Run3	observe/STIM_003.jpg
2551.314	1.151	1	observe	Run3	observe/STIM_003.jpg
2555.397	0.838	1	observe	Run3	observe/STIM_003.jpg
2558.92	1.538	1	observe	Run3	observe/STIM_004.jpg
2563.194	1.234	1	observe	Run3	observe/STIM_004.jpg
2566.807	1.423	0	observe	Run3	observe/STIM_004.jpg
2571.954	1.063	1	observe	Run3	observe/STIM_004.jpg
2576.665	1.053	1	observe	Run3	observe/STIM_005.jpg
2580.137	1.242	1	observe	Run3	observe/STIM_005.jpg
2583.811	1.478	1	observe	Run3	observe/STIM_005.jpg
2587.432	1.282	1	observe	Run3	observe/STIM_005.jpg
2591.686	1.526	1	observe	Run3	observe/STIM_006.jpg
2595.992	1.013	1	observe	Run3	observe/STIM_006.jpg
2599.302	1.004	1	observe	Run3	observe/STIM_006.jpg
2603.589	1.047	1	observe	Run3	observe/STIM_006.jpg
2608.564	1.228	1	observe	Run3	observe/STIM_007.jpg
2612.313	0.954	1	observe	Run3	observe/STIM_007.jpg
2616.895	1.554	0	observe	Run3	observe/STIM_007.jpg
2620.662	1.049	1	observe	Run3	observe/STIM_007.jpg
2624.108	1.503	1	observe	Run3	observe/STIM_008.jpg
2629.1	1.068	1	observe	Run3	observe/STIM_008.jpg
2632.519	1.208	1	observe	Run3	observe/STIM_008.jpg
2635.884	1.099	1	observe	Run3	observe/STIM_008.jpg
2639.79	1.214	1	observe	Run3	observe/STIM_009.jpg
2644.525	1.399	1	observe	Run3	observe/STIM_009.jpg
2648.236	1.567	1	observe	Run3	observe/STIM_009.jpg
2652.826	1.143	0	observe	Run3	observe/STIM_009.jpg
2656.496	1.155	1	observe	Run3	observe/STIM_010.jpg
2660.101	1.102	1	observe	Run3	observe/STIM_010.jpg
2663.984	1.3	1	observe	Run3	observe/STIM_010.jpg
2668.374	0.938	0	observe	Run3	observe/STIM_010.jpg
2672.949	1.606	1	observe	Run3	observe/STIM_011.jpg
2677.3	1.02	1	observe	Run3	observe/STIM_011.jpg
2681.787	0.868	0	observe	Run3	observe/STIM_011.jpg
2686.478	1.236	1	observe	Run3	observe/STIM_011.jpg
2689.851	0.891	0	observe	Run3	observe/STIM_012.jpg
2692.932	1.243	1	observe	Run3	observe/STIM_012.jpg
2697.045	0.977	0	observe	Run3	observe/STIM_012.jpg
2700.694	1.486	1	observe	Run3	observe/STIM_012.jpg
2704.999	1.112	0	observe	Run3	observe/STIM_013.jpg
2709.241	1.311	1	observe	Run3	observe/STIM_013.jpg
2713.475	1.163	0	observe	Run3	observe/STIM_013.jpg
2718.284	1.089	1	observe	Run3	observe/STIM_013.jpg
2722.556	0.876	1	observe	Run3	observe/STIM_014.jpg
2725.714	1.525	1	observe	Run3	observe/STIM_014.jpg
2730.294	1.164	1	observe	Run3	observe/STIM_014.jpg
2735.381	1.18	1	observe	Run3	observe/STIM_014.jpg
2739.551	1.19	1	observe	Run3	observe/STIM_015.jpg
2744.592	0.929	1	observe	Run3	observe/STIM_015.jpg
2748.849	1.617	0	observe	Run3	observe/STIM_015.jpg
2753.024	1.628	1	observe	Run3	observe/STIM_015.jpg
2756.87	1.46	1	observe	Run3	observe/STIM_016.jpg
2760.613	1.308	1	observe	Run3	observe/STIM_016.jpg
2765.443	0.985	1	observe	Run3	observe/STIM_016.jpg
2769.779	1.206	1	observe	Run3	observe/STIM_016.jpg
2774.347	1.488	1	observe	Run3	observe/STIM_017.jpg
2778.62	0.879	1	observe	Run3	observe/STIM_017.jpg
2783.174	1.132	1	observe	Run3	observe/STIM_017.jpg
2786.566	1.247	1	observe	Run3	observe/STIM_017.jpg
2791.676	1.473	1	observe	Run3	observe/STIM_018.jpg
2795.572	0.887	0	observe	Run3	observe/STIM_018.jpg
2799.531	1.418	1	observe	Run3	observe/STIM_018.jpg
2804.753	0.948	1	observe	Run3	observe/STIM_018.jpg
2808.939	0.907	1	observe	Run3	observe/STIM_019.jpg
2813.062	0.896	1	observe	Run3	observe/STIM_019.jpg
2816.411	1.143	1	observe	Run3	observe/STIM_019.jpg
2821.014	0.886	1	observe	Run3	observe/STIM_019.jpg
