onset	duration	accuracy_binary	trial_type	learning_stage	stimulus
0.0	0.974	1	study	Phase1	study/STIM_000.jpg
4.463	1.48	1	study	Phase1	study/STIM_000.jpg
8.693	1.101	1	study	Phase1	study/STIM_000.jpg
12.074	0.959	1	study	Phase1	study/STIM_001.jpg
16.862	0.842	1	study	Phase1	study/STIM_001.jpg
20.665	0.854	0	study	Phase1	study/STIM_001.jpg
24.095	1.286	1	study	Phase1	study/STIM_002.jpg
27.771	1.065	1	study	Phase1	study/STIM_002.jpg
32.061	0.899	1	study	Phase1	study/STIM_002.jpg
35.936	1.79	1	study	Phase1	study/STIM_003.jpg
40.561	1.2	1	study	Phase1	study/STIM_003.jpg
44.285	0.932	1	study	Phase1	study/STIM_003.jpg
49.099	1.577	1	study	Phase1	study/STIM_004.jpg
53.813	1.452	1	study	Phase1	study/STIM_004.jpg
58.449	1.278	1	study	Phase1	study/STIM_004.jpg
62.598	1.564	1	study	Phase1	study/STIM_005.jpg
66.729	1.076	1	study	Phase1	study/STIM_005.jpg
70.209	1.629	1	study	Phase1	study/STIM_005.jpg
74.453	1.434	1	study	Phase1	study/STIM_006.jpg
78.541	0.951	1	study	Phase1	study/STIM_006.jpg
83.482	0.994	1	study	Phase1	study/STIM_006.jpg
86.531	1.654	0	study	Phase1	study/STIM_007.jpg
91.722	1.049	1	study	Phase1	study/STIM_007.jpg
95.271	1.66	0	study	Phase1	study/STIM_007.jpg
100.727	0.987	1	study	Phase1	study/STIM_008.jpg
104.301	1.212	1	study	Phase1	study/STIM_008.jpg
109.315	0.894	1	study	Phase1	study/STIM_008.jpg
112.638	1.491	1	study	Phase1	study/STIM_009.jpg
117.775	1.732	1	study	Phase1	study/STIM_009.jpg
123.067	1.089	1	study	Phase1	study/STIM_009.jpg
126.71	1.788	1	study	Phase1	study/STIM_010.jpg
131.321	1.719	1	study	Phase1	study/STIM_010.jpg
136.471	1.502	1	study	Phase1	study/STIM_010.jpg
140.922	1.113	1	study	Phase1	study/STIM_011.jpg
144.85	1.238	1	study	Phase1	study/STIM_011.jpg
149.328	0.784	1	study	Phase1	study/STIM_011.jpg
153.796	1.428	1	study	Phase1	study/STIM_012.jpg
157.938	1.479	1	study	Phase1	study/STIM_012.jpg
163.21	1.148	1	study	Phase1	study/STIM_012.jpg
168.094	1.52	0	study	Phase1	study/STIM_013.jpg
173.501	1.003	1	study	Phase1	study/STIM_013.jpg
177.369	1.604	1	study	Phase1	study/STIM_013.jpg
182.126	1.502	0	study	Phase1	study/STIM_014.jpg
186.916	1.455	1	study	Phase1	study/STIM_014.jpg
191.025	1.402	1	study	Phase1	study/STIM_014.jpg
196.068	1.066	1	study	Phase1	study/STIM_015.jpg
200.589	1.454	1	study	Phase1	study/STIM_015.jpg
205.613	0.933	1	study	Phase1	study/STIM_015.jpg
210.179	1.508	0	study	Phase1	study/STIM_016.jpg
214.237	1.537	0	study	Phase1	study/STIM_016.jpg
219.15	1.449	1	study	Phase1	study/STIM_016.jpg
224.076	1.358	0	study	Phase1	study/STIM_017.jpg
228.231	0.872	1	study	Phase1	study/STIM_017.jpg
231.398	0.879	1	study	Phase1	study/STIM_017.jpg
235.678	1.123	1	study	Phase1	study/STIM_018.jpg
240.385	1.709	1	study	Phase1	study/STIM_018.jpg
244.131	1.131	1	study	Phase1	study/STIM_018.jpg
247.732	1.81	1	study	Phase1	study/STIM_019.jpg
253.513	1.665	0	study	Phase1	study/STIM_019.jpg
257.544	0.766	0	study	Phase1	study/STIM_019.jpg
261.45	1.292	1	study	Phase1	study/STIM_020.jpg
265.144	0.981	1	study	Phase1	study/STIM_020.jpg
268.963	1.156	1	study	Phase1	study/STIM_020.jpg
273.838	1.845	1	study	Phase1	study/STIM_021.jpg
279.387	0.932	1	study	Phase1	study/STIM_021.jpg
283.774	1.258	1	study	Phase1	study/STIM_021.jpg
287.377	1.78	0	study	Phase1	study/STIM_022.jpg
291.544	1.256	1	study	Phase1	study/STIM_022.jpg
296.505	1.375	1	study	Phase1	study/STIM_022.jpg
300.519	1.525	1	study	Phase1	study/STIM_023.jpg
305.382	1.605	1	study	Phase1	study/STIM_023.jpg
309.703	1.363	0	study	Phase1	study/STIM_023.jpg
314.865	0.975	1	study	Phase1	study/STIM_024.jpg
318.708	1.223	1	study	Phase1	study/STIM_024.jpg
322.599	0.863	1	study	Phase1	study/STIM_024.jpg
326.695	1.786	1	study	Phase1	study/STIM_025.jpg
330.66	1.534	1	study	Phase1	study/STIM_025.jpg
335.38	1.088	1	study	Phase1	study/STIM_025.jpg
340.246	1.278	1	study	Phase1	study/STIM_026.jpg
344.246	1.019	1	study	Phase1	study/STIM_026.jpg
347.77	1.565	1	study	Phase1	study/STIM_026.jpg
351.424	1.713	0	study	Phase1	study/STIM_027.jpg
355.577	1.389	1	study	Phase1	study/STIM_027.jpg
359.741	0.889	1	study	Phase1	study/STIM_027.jpg
363.673	1.434	1	study	Phase1	study/STIM_028.jpg
367.641	1.65	1	study	Phase1	study/STIM_028.jpg
372.413	1.051	0	study	Phase1	study/STIM_028.jpg
376.57	1.267	1	study	Phase1	study/STIM_029.jpg
381.596	1.572	1	study	Phase1	study/STIM_029.jpg
385.928	1.629	1	study	Phase1	study/STIM_029.jpg
389.921	0.928	1	test	Phase1	test/STIM_000.jpg
394.109	1.111	1	test	Phase1	test/STIM_000.jpg
397.518	1.327	1	test	Phase1	test/STIM_000.jpg
402.268	1.104	1	test	Phase1	test/STIM_001.jpg
406.546	0.694	1	test	Phase1	test/STIM_001.jpg
410.295	1.176	1	test	Phase1	test/STIM_001.jpg
415.339	0.674	1	test	Phase1	test/STIM_002.jpg
418.953	0.865	1	test	Phase1	test/STIM_002.jpg
422.83	0.794	1	test	Phase1	test/STIM_002.jpg
427.501	1.072	1	test	Phase1	test/STIM_003.jpg
431.414	0.707	1	test	Phase1	test/STIM_003.jpg
436.015	0.832	1	test	Phase1	test/STIM_003.jpg
439.767	1.244	1	test	Phase1	test/STIM_004.jpg
444.487	0.911	1	test	Phase1	test/STIM_004.jpg
448.928	1.314	0	test	Phase1	test/STIM_004.jpg
453.049	0.658	1	test	Phase1	test/STIM_005.jpg
456.184	1.152	1	test	Phase1	test/STIM_005.jpg
459.996	1.07	1	test	Phase1	test/STIM_005.jpg
464.755	1.183	1	test	Phase1	test/STIM_006.jpg
468.9	1.08	1	test	Phase1	test/STIM_006.jpg
473.309	1.175	1	test	Phase1	test/STIM_006.jpg
477.284	1.06	1	test	Phase1	test/STIM_007.jpg
481.54	1.015	1	test	Phase1	test/STIM_007.jpg
485.62	1.229	1	test	Phase1	test/STIM_007.jpg
490.054	0.933	1	test	Phase1	test/STIM_008.jpg
493.971	1.163	1	test	Phase1	test/STIM_008.jpg
498.389	0.639	1	test	Phase1	test/STIM_008.jpg
502.535	0.628	0	test	Phase1	test/STIM_009.jpg
507.047	0.703	1	test	Phase1	test/STIM_009.jpg
510.19	0.973	1	test	Phase1	test/STIM_009.jpg
513.309	1.246	1	test	Phase1	test/STIM_010.jpg
517.9	1.176	1	test	Phase1	test/STIM_010.jpg
522.812	1.144	1	test	Phase1	test/STIM_010.jpg
527.575	0.847	1	test	Phase1	test/STIM_011.jpg
531.391	1.261	1	test	Phase1	test/STIM_011.jpg
535.409	0.616	1	test	Phase1	test/STIM_011.jpg
538.11	0.71	1	test	Phase1	test/STIM_012.jpg
541.348	0.671	1	test	Phase1	test/STIM_012.jpg
544.368	0.726	1	test	Phase1	test/STIM_012.jpg
548.138	1.022	1	test	Phase1	test/STIM_013.jpg
552.169	0.617	0	test	Phase1	test/STIM_013.jpg
556.111	0.847	1	test	Phase1	test/STIM_013.jpg
560.324	0.795	1	test	Phase1	test/STIM_014.jpg
563.493	0.878	1	test	Phase1	test/STIM_014.jpg
567.771	0.816	1	test	Phase1	test/STIM_014.jpg
571.936	1.069	1	test	Phase1	test/STIM_015.jpg
575.575	0.67	1	test	Phase1	test/STIM_015.jpg
578.58	0.826	1	test	Phase1	test/STIM_015.jpg
583.341	1.216	1	test	Phase1	test/STIM_016.jpg
588.182	0.958	1	test	Phase1	test/STIM_016.jpg
591.197	1.238	1	test	Phase1	test/STIM_016.jpg
594.847	1.259	1	test	Phase1	test/STIM_017.jpg
599.564	1.166	1	test	Phase1	test/STIM_017.jpg
604.298	1.133	1	test	Phase1	test/STIM_017.jpg
608.454	0.682	1	test	Phase1	test/STIM_018.jpg
611.371	1.11	1	test	Phase1	test/STIM_018.jpg
615.446	0.756	1	test	Phase1	test/STIM_018.jpg
618.782	1.045	1	test	Phase1	test/STIM_019.jpg
622.531	0.774	1	test	Phase1	test/STIM_019.jpg
626.874	0.889	0	test	Phase1	test/STIM_019.jpg
630.908	1.2	1	test	Phase1	test/STIM_020.jpg
634.194	0.988	1	test	Phase1	test/STIM_020.jpg
638.162	0.849	1	test	Phase1	test/STIM_020.jpg
641.616	0.695	1	test	Phase1	test/STIM_021.jpg
644.765	0.699	1	test	Phase1	test/STIM_021.jpg
647.507	0.981	1	test	Phase1	test/STIM_021.jpg
650.977	0.9	1	test	Phase1	test/STIM_022.jpg
654.124	0.923	1	test	Phase1	test/STIM_022.jpg
658.229	1.017	1	test	Phase1	test/STIM_022.jpg
662.145	1.226	1	test	Phase1	test/STIM_023.jpg
666.027	0.785	0	test	Phase1	test/STIM_023.jpg
669.462	1.212	1	test	Phase1	test/STIM_023.jpg
674.496	1.036	1	test	Phase1	test/STIM_024.jpg
678.088	0.774	1	test	Phase1	test/STIM_024.jpg
681.856	1.13	1	test	Phase1	test/STIM_024.jpg
686.527	0.693	1	test	Phase1	test/STIM_025.jpg
690.55	0.725	1	test	Phase1	test/STIM_025.jpg
693.954	0.988	1	test	Phase1	test/STIM_025.jpg
698.145	1.08	0	test	Phase1	test/STIM_026.jpg
702.331	0.714	0	test	Phase1	test/STIM_026.jpg
706.383	0.729	1	test	Phase1	test/STIM_026.jpg
710.37	0.863	1	test	Phase1	test/STIM_027.jpg
713.605	0.96	1	test	Phase1	test/STIM_027.jpg
717.223	1.314	1	test	Phase1	test/STIM_027.jpg
721.586	1.2	1	test	Phase1	test/STIM_028.jpg
724.862	1.174	1	test	Phase1	test/STIM_028.jpg
728.837	0.66	1	test	Phase1	test/STIM_028.jpg
733.335	1.069	1	test	Phase1	test/STIM_029.jpg
736.777	0.982	1	test	Phase1	test/STIM_029.jpg
740.481	0.949	0	test	Phase1	test/STIM_029.jpg
743.555	1.221	1	study	Phase2	study/STIM_000.jpg
748.527	1.012	0	study	Phase2	study/STIM_000.jpg
752.105	1.363	1	study	Phase2	study/STIM_000.jpg
756.281	1.146	1	study	Phase2	study/STIM_001.jpg
760.075	1.45	1	study	Phase2	study/STIM_001.jpg
764.038	0.865	1	study	Phase2	study/STIM_001.jpg
767.895	1.078	1	study	Phase2	study/STIM_002.jpg
772.692	1.188	1	study	Phase2	study/STIM_002.jpg
776.041	1.214	1	study	Phase2	study/STIM_002.jpg
780.316	0.855	1	study	Phase2	study/STIM_003.jpg
783.948	1.299	1	study	Phase2	study/STIM_003.jpg
788.87	1.327	1	study	Phase2	study/STIM_003.jpg
793.07	0.91	0	study	Phase2	study/STIM_004.jpg
796.823	1.407	1	study	Phase2	study/STIM_004.jpg
801.783	0.897	1	study	Phase2	study/STIM_004.jpg
806.12	1.0	1	study	Phase2	study/STIM_005.jpg
811.054	0.769	0	study	Phase2	study/STIM_005.jpg
815.645	1.28	1	study	Phase2	study/STIM_005.jpg
819.155	1.188	1	study	Phase2	study/STIM_006.jpg
823.403	0.85	1	study	Phase2	study/STIM_006.jpg
827.404	0.84	1	study	Phase2	study/STIM_006.jpg
830.336	1.204	1	study	Phase2	study/STIM_007.jpg
834.547	1.462	1	study	Phase2	study/STIM_007.jpg
838.762	1.025	1	study	Phase2	study/STIM_007.jpg
842.765	1.338	1	study	Phase2	study/STIM_008.jpg
846.837	1.425	1	study	Phase2	study/STIM_008.jpg
852.235	0.621	1	study	Phase2	study/STIM_008.jpg
854.9	1.036	1	study	Phase2	study/STIM_009.jpg
859.063	1.099	1	study	Phase2	study/STIM_009.jpg
863.779	1.23	1	study	Phase2	study/STIM_009.jpg
867.092	1.519	1	study	Phase2	study/STIM_010.jpg
871.201	0.79	1	study	Phase2	study/STIM_010.jpg
875.758	0.76	1	study	Phase2	study/STIM_010.jpg
878.601	1.004	1	study	Phase2	study/STIM_011.jpg
883.525	0.892	1	study	Phase2	study/STIM_011.jpg
888.047	0.943	1	study	Phase2	study/STIM_011.jpg
892.012	1.166	1	study	Phase2	study/STIM_012.jpg
895.597	1.272	1	study	Phase2	study/STIM_012.jpg
899.054	0.864	1	study	Phase2	study/STIM_012.jpg
903.858	1.358	1	study	Phase2	study/STIM_013.jpg
908.062	0.952	1	study	Phase2	study/STIM_013.jpg
912.993	0.725	1	study	Phase2	study/STIM_013.jpg
916.097	1.378	1	study	Phase2	study/STIM_014.jpg
919.715	0.895	1	study	Phase2	study/STIM_014.jpg
924.298	0.754	1	study	Phase2	study/STIM_014.jpg
928.878	1.105	1	study	Phase2	study/STIM_015.jpg
932.207	0.897	1	study	Phase2	study/STIM_015.jpg
936.789	0.697	1	study	Phase2	study/STIM_015.jpg
940.454	1.447	1	study	Phase2	study/STIM_016.jpg
944.193	1.357	1	study	Phase2	study/STIM_016.jpg
948.17	0.848	1	study	Phase2	study/STIM_016.jpg
952.013	0.744	1	study	Phase2	study/STIM_017.jpg
955.801	0.898	1	study	Phase2	study/STIM_017.jpg
960.37	0.836	1	study	Phase2	study/STIM_017.jpg
964.283	0.923	1	study	Phase2	study/STIM_018.jpg
969.107	1.313	0	study	Phase2	study/STIM_018.jpg
972.853	0.881	1	study	Phase2	study/STIM_018.jpg
976.975	1.259	1	study	Phase2	study/STIM_019.jpg
980.663	0.76	1	study	Phase2	study/STIM_019.jpg
984.454	1.174	1	study	Phase2	study/STIM_019.jpg
989.613	0.754	1	study	Phase2	study/STIM_020.jpg
993.089	1.473	1	study	Phase2	study/STIM_020.jpg
998.156	1.272	1	study	Phase2	study/STIM_020.jpg
1002.293	0.927	0	study	Phase2	study/STIM_021.jpg
1005.608	0.713	1	study	Phase2	study/STIM_021.jpg
1008.756	0.967	1	study	Phase2	study/STIM_021.jpg
1012.934	1.533	1	study	Phase2	study/STIM_022.jpg
1018.227	0.881	1	study	Phase2	study/STIM_022.jpg
1021.232	1.116	1	study	Phase2	study/STIM_022.jpg
1024.569	1.201	0	study	Phase2	study/STIM_023.jpg
1029.688	1.042	1	study	Phase2	study/STIM_023.jpg
1033.716	0.76	1	study	Phase2	study/STIM_023.jpg
1037.165	1.516	1	study	Phase2	study/STIM_024.jpg
1041.355	1.078	1	study	Phase2	study/STIM_024.jpg
1044.872	0.923	1	study	Phase2	study/STIM_024.jpg
1049.358	1.51	1	study	Phase2	study/STIM_025.jpg
1054.376	1.157	1	study	Phase2	study/STIM_025.jpg
1059.118	0.968	1	study	Phase2	study/STIM_025.jpg
1063.297	0.988	1	study	Phase2	study/STIM_026.jpg
1067.522	0.975	1	study	Phase2	study/STIM_026.jpg
1072.215	0.633	1	study	Phase2	study/STIM_026.jpg
1075.292	0.977	1	study	Phase2	study/STIM_027.jpg
1079.107	0.934	1	study	Phase2	study/STIM_027.jpg
1082.553	1.12	1	study	Phase2	study/STIM_027.jpg
1086.372	1.119	1	study	Phase2	study/STIM_028.jpg
1089.618	1.337	0	study	Phase2	study/STIM_028.jpg
1093.852	1.349	1	study	Phase2	study/STIM_028.jpg
1098.608	1.184	1	study	Phase2	study/STIM_029.jpg
1103.769	0.945	1	study	Phase2	study/STIM_029.jpg
1106.749	1.209	1	study	Phase2	study/STIM_029.jpg
1111.081	0.738	1	test	Phase2	test/STIM_000.jpg
1115.087	1.24	1	test	Phase2	test/STIM_000.jpg
1119.781	0.98	1	test	Phase2	test/STIM_000.jpg
1123.178	0.937	1	test	Phase2	test/STIM_001.jpg
1126.227	1.216	1	test	Phase2	test/STIM_001.jpg
1129.575	1.27	1	test	Phase2	test/STIM_001.jpg
1133.645	0.736	1	test	Phase2	test/STIM_002.jpg
1137.225	1.046	1	test	Phase2	test/STIM_002.jpg
1140.305	0.858	1	test	Phase2	test/STIM_002.jpg
1144.793	0.933	1	test	Phase2	test/STIM_003.jpg
1149.059	0.645	1	test	Phase2	test/STIM_003.jpg
1153.516	1.143	1	test	Phase2	test/STIM_003.jpg
1157.845	1.092	1	test	Phase2	test/STIM_004.jpg
1162.566	0.838	0	test	Phase2	test/STIM_004.jpg
1165.5	1.261	1	test	Phase2	test/STIM_004.jpg
1169.293	0.788	1	test	Phase2	test/STIM_005.jpg
1172.083	0.909	0	test	Phase2	test/STIM_005.jpg
1175.115	0.832	1	test	Phase2	test/STIM_005.jpg
1179.591	1.2	1	test	Phase2	test/STIM_006.jpg
1183.035	0.755	1	test	Phase2	test/STIM_006.jpg
1187.012	0.813	1	test	Phase2	test/STIM_006.jpg
1191.71	0.63	1	test	Phase2	test/STIM_007.jpg
1196.29	1.015	1	test	Phase2	test/STIM_007.jpg
1200.377	1.15	1	test	Phase2	test/STIM_007.jpg
1204.861	1.197	1	test	Phase2	test/STIM_008.jpg
1208.68	0.855	1	test	Phase2	test/STIM_008.jpg
1213.38	0.986	1	test	Phase2	test/STIM_008.jpg
1217.988	1.037	1	test	Phase2	test/STIM_009.jpg
1221.977	1.221	1	test	Phase2	test/STIM_009.jpg
1226.203	0.763	1	test	Phase2	test/STIM_009.jpg
1229.369	1.148	1	test	Phase2	test/STIM_010.jpg
1234.388	1.039	1	test	Phase2	test/STIM_010.jpg
1239.414	0.85	1	test	Phase2	test/STIM_010.jpg
1242.954	1.112	1	test	Phase2	test/STIM_011.jpg
1247.314	1.311	1	test	Phase2	test/STIM_011.jpg
1251.953	0.73	1	test	Phase2	test/STIM_011.jpg
1256.305	0.616	1	test	Phase2	test/STIM_012.jpg
1260.447	0.851	0	test	Phase2	test/STIM_012.jpg
1263.725	1.161	1	test	Phase2	test/STIM_012.jpg
1268.294	1.17	1	test	Phase2	test/STIM_013.jpg
1272.878	1.064	1	test	Phase2	test/STIM_013.jpg
1277.256	1.286	1	test	Phase2	test/STIM_013.jpg
1282.287	1.26	1	test	Phase2	test/STIM_014.jpg
1287.214	0.997	1	test	Phase2	test/STIM_014.jpg
1290.441	0.702	1	test	Phase2	test/STIM_014.jpg
1294.8	1.32	1	test	Phase2	test/STIM_015.jpg
1299.746	1.312	1	test	Phase2	test/STIM_015.jpg
1305.046	0.884	1	test	Phase2	test/STIM_015.jpg
1309.376	0.782	1	test	Phase2	test/STIM_016.jpg
1312.714	0.62	1	test	Phase2	test/STIM_016.jpg
1315.497	0.775	0	test	Phase2	test/STIM_016.jpg
1319.292	1.152	1	test	Phase2	test/STIM_017.jpg
1323.418	1.102	1	test	Phase2	test/STIM_017.jpg
1326.841	1.21	1	test	Phase2	test/STIM_017.jpg
1330.928	0.828	0	test	Phase2	test/STIM_018.jpg
1335.277	1.238	1	test	Phase2	test/STIM_018.jpg
1339.652	1.016	1	test	Phase2	test/STIM_018.jpg
1343.709	1.012	1	test	Phase2	test/STIM_019.jpg
1347.39	1.178	0	test	Phase2	test/STIM_019.jpg
1351.169	0.644	1	test	Phase2	test/STIM_019.jpg
1354.622	1.196	1	test	Phase2	test/STIM_020.jpg
1358.698	1.216	1	test	Phase2	test/STIM_020.jpg
1362.745	1.325	1	test	Phase2	test/STIM_020.jpg
1366.889	1.198	1	test	Phase2	test/STIM_021.jpg
1370.206	1.132	1	test	Phase2	test/STIM_021.jpg
1374.787	0.953	1	test	Phase2	test/STIM_021.jpg
1378.33	0.742	1	test	Phase2	test/STIM_022.jpg
1382.979	1.118	0	test	Phase2	test/STIM_022.jpg
1387.074	0.669	1	test	Phase2	test/STIM_022.jpg
1389.819	1.33	1	test	Phase2	test/STIM_023.jpg
1393.7	0.673	1	test	Phase2	test/STIM_023.jpg
1396.831	0.934	0	test	Phase2	test/STIM_023.jpg
1399.952	1.102	1	test	Phase2	test/STIM_024.jpg
1403.42	0.981	1	test	Phase2	test/STIM_024.jpg
1406.571	1.13	1	test	Phase2	test/STIM_024.jpg
1410.908	0.723	0	test	Phase2	test/STIM_025.jpg
1415.169	0.974	1	test	Phase2	test/STIM_025.jpg
1420.126	0.93	1	test	Phase2	test/STIM_025.jpg
1423.098	0.665	1	test	Phase2	test/STIM_026.jpg
1426.107	0.632	1	test	Phase2	test/STIM_026.jpg
1428.948	1.282	1	test	Phase2	test/STIM_026.jpg
1433.808	0.737	1	test	Phase2	test/STIM_027.jpg
1436.771	1.238	1	test	Phase2	test/STIM_027.jpg
1441.78	1.079	1	test	Phase2	test/STIM_027.jpg
1446.265	1.007	1	test	Phase2	test/STIM_028.jpg
1449.906	1.063	1	test	Phase2	test/STIM_028.jpg
1454.0	1.09	1	test	Phase2	test/STIM_028.jpg
1457.322	0.998	1	test	Phase2	test/STIM_029.jpg
1461.084	1.038	1	test	Phase2	test/STIM_029.jpg
1465.652	0.805	1	test	Phase2	test/STIM_029.jpg
1470.298	0.591	1	study	Phase3	study/STIM_000.jpg
1473.332	1.122	1	study	Phase3	study/STIM_000.jpg
1477.454	0.822	1	study	Phase3	study/STIM_000.jpg
1480.637	0.613	1	study	Phase3	study/STIM_001.jpg
1483.458	0.988	1	study	Phase3	study/STIM_001.jpg
1487.786	1.197	1	study	Phase3	study/STIM_001.jpg
1492.165	0.936	1	study	Phase3	study/STIM_002.jpg
1495.877	0.942	1	study	Phase3	study/STIM_002.jpg
1499.24	0.898	1	study	Phase3	study/STIM_002.jpg
1503.382	0.743	1	study	Phase3	study/STIM_003.jpg
1506.663	0.908	1	study	Phase3	study/STIM_003.jpg
1510.286	0.966	1	study	Phase3	study/STIM_003.jpg
1514.274	0.998	1	study	Phase3	study/STIM_004.jpg
1518.692	1.108	1	study	Phase3	study/STIM_004.jpg
1521.894	1.112	1	study	Phase3	study/STIM_004.jpg
1525.78	1.216	1	study	Phase3	study/STIM_005.jpg
1529.402	1.002	1	study	Phase3	study/STIM_005.jpg
1534.166	0.948	1	study	Phase3	study/STIM_005.jpg
1537.809	0.591	1	study	Phase3	study/STIM_006.jpg
1541.069	0.928	1	study	Phase3	study/STIM_006.jpg
1545.35	0.628	1	study	Phase3	study/STIM_006.jpg
1547.99	0.962	1	study	Phase3	study/STIM_007.jpg
1552.151	0.979	1	study	Phase3	study/STIM_007.jpg
1556.525	0.609	1	study	Phase3	study/STIM_007.jpg
1560.857	0.622	1	study	Phase3	study/STIM_008.jpg
1565.462	0.878	1	study	Phase3	study/STIM_008.jpg
1570.03	1.197	1	study	Phase3	study/STIM_008.jpg
1574.848	1.063	1	study	Phase3	study/STIM_009.jpg
1579.066	0.774	1	study	Phase3	study/STIM_009.jpg
1582.444	0.782	1	study	Phase3	study/STIM_009.jpg
1585.977	0.84	1	study	Phase3	study/STIM_010.jpg
1589.627	0.836	1	study	Phase3	study/STIM_010.jpg
1593.557	0.832	1	study	Phase3	study/STIM_010.jpg
1597.331	0.577	1	study	Phase3	study/STIM_011.jpg
1600.287	0.826	1	study	Phase3	study/STIM_011.jpg
1603.556	0.717	1	study	Phase3	study/STIM_011.jpg
1606.34	1.137	1	study	Phase3	study/STIM_012.jpg
1609.572	0.822	1	study	Phase3	study/STIM_012.jpg
1614.372	0.762	1	study	Phase3	study/STIM_012.jpg
1617.433	1.162	1	study	Phase3	study/STIM_013.jpg
1621.527	0.82	1	study	Phase3	study/STIM_013.jpg
1625.266	1.155	1	study	Phase3	study/STIM_013.jpg
1629.409	0.959	1	study	Phase3	study/STIM_014.jpg
1633.893	0.657	1	study	Phase3	study/STIM_014.jpg
1636.988	1.225	1	study	Phase3	study/STIM_014.jpg
1640.603	1.2	1	study	Phase3	study/STIM_015.jpg
1644.814	1.103	1	study	Phase3	study/STIM_015.jpg
1649.785	1.008	1	study	Phase3	study/STIM_015.jpg
1653.559	0.869	1	study	Phase3	study/STIM_016.jpg
1657.882	0.635	1	study	Phase3	study/STIM_016.jpg
1660.59	0.598	1	study	Phase3	study/STIM_016.jpg
1663.698	1.149	1	study	Phase3	study/STIM_017.jpg
1667.162	0.989	1	study	Phase3	study/STIM_017.jpg
1671.336	0.901	1	study	Phase3	study/STIM_017.jpg
1675.906	0.848	1	study	Phase3	study/STIM_018.jpg
1680.401	1.131	1	study	Phase3	study/STIM_018.jpg
1684.438	0.697	1	study	Phase3	study/STIM_018.jpg
1687.557	0.757	1	study	Phase3	study/STIM_019.jpg
1692.079	0.924	1	study	Phase3	study/STIM_019.jpg
1696.531	0.97	1	study	Phase3	study/STIM_019.jpg
1700.829	1.124	0	study	Phase3	study/STIM_020.jpg
1704.235	0.935	1	study	Phase3	study/STIM_020.jpg
1708.5	1.143	1	study	Phase3	study/STIM_020.jpg
1711.711	0.656	1	study	Phase3	study/STIM_021.jpg
1716.207	1.101	1	study	Phase3	study/STIM_021.jpg
1721.11	0.577	1	study	Phase3	study/STIM_021.jpg
1725.092	0.594	1	study	Phase3	study/STIM_022.jpg
1729.003	1.012	1	study	Phase3	study/STIM_022.jpg
1732.379	1.272	1	study	Phase3	study/STIM_022.jpg
1737.252	1.234	1	study	Phase3	study/STIM_023.jpg
1741.592	0.876	1	study	Phase3	study/STIM_023.jpg
1744.918	0.936	1	study	Phase3	study/STIM_023.jpg
1748.608	1.165	1	study	Phase3	study/STIM_024.jpg
1752.261	1.015	1	study	Phase3	study/STIM_024.jpg
1755.607	0.939	1	study	Phase3	study/STIM_024.jpg
1760.081	1.203	1	study	Phase3	study/STIM_025.jpg
1763.566	0.598	1	study	Phase3	study/STIM_025.jpg
1766.248	1.271	1	study	Phase3	study/STIM_025.jpg
1770.71	1.048	1	study	Phase3	study/STIM_026.jpg
1774.07	0.585	1	study	Phase3	study/STIM_026.jpg
1776.914	0.791	1	study	Phase3	study/STIM_026.jpg
1781.231	0.769	1	study	Phase3	study/STIM_027.jpg
1784.746	1.05	1	study	Phase3	study/STIM_027.jpg
1789.564	0.809	1	study	Phase3	study/STIM_027.jpg
1793.569	1.159	1	study	Phase3	study/STIM_028.jpg
1798.566	1.031	0	study	Phase3	study/STIM_028.jpg
1801.734	0.732	1	study	Phase3	study/STIM_028.jpg
1804.866	1.246	1	study	Phase3	study/STIM_029.jpg
1808.975	0.737	1	study	Phase3	study/STIM_029.jpg
1813.688	0.725	1	study	Phase3	study/STIM_029.jpg
1817.94	1.282	1	test	Phase3	test/STIM_000.jpg
1822.768	0.627	1	test	Phase3	test/STIM_000.jpg
1825.48	1.326	1	test	Phase3	test/STIM_000.jpg
1829.128	1.234	1	test	Phase3	test/STIM_001.jpg
1833.035	0.647	0	test	Phase3	test/STIM_001.jpg
1836.954	0.839	1	test	Phase3	test/STIM_001.jpg
1840.132	1.278	1	test	Phase3	test/STIM_002.jpg
1843.719	1.236	1	test	Phase3	test/STIM_002.jpg
1848.312	1.058	1	test	Phase3	test/STIM_002.jpg
1852.201	1.21	1	test	Phase3	test/STIM_003.jpg
1856.404	0.992	1	test	Phase3	test/STIM_003.jpg
1860.611	1.237	1	test	Phase3	test/STIM_003.jpg
1864.725	0.68	1	test	Phase3	test/STIM_004.jpg
1867.765	1.004	0	test	Phase3	test/STIM_004.jpg
1872.692	0.624	0	test	Phase3	test/STIM_004.jpg
1877.28	0.743	1	test	Phase3	test/STIM_005.jpg
1881.292	0.624	1	test	Phase3	test/STIM_005.jpg
1883.961	1.124	1	test	Phase3	test/STIM_005.jpg
1887.216	0.953	1	test	Phase3	test/STIM_006.jpg
1890.284	1.268	0	test	Phase3	test/STIM_006.jpg
1893.945	1.22	1	test	Phase3	test/STIM_006.jpg
1898.883	0.832	1	test	Phase3	test/STIM_007.jpg
1903.668	0.874	1	test	Phase3	test/STIM_007.jpg
1908.157	1.07	1	test	Phase3	test/STIM_007.jpg
1911.94	0.912	1	test	Phase3	test/STIM_008.jpg
1916.456	1.014	1	test	Phase3	test/STIM_008.jpg
1920.135	1.257	1	test	Phase3	test/STIM_008.jpg
1923.509	1.164	1	test	Phase3	test/STIM_009.jpg
1927.35	0.942	1	test	Phase3	test/STIM_009.jpg
1931.641	0.975	1	test	Phase3	test/STIM_009.jpg
1935.814	1.106	1	test	Phase3	test/STIM_010.jpg
1940.113	0.976	1	test	Phase3	test/STIM_010.jpg
1944.783	1.271	1	test	Phase3	test/STIM_010.jpg
1949.658	1.041	1	test	Phase3	test/STIM_011.jpg
1953.997	1.046	1	test	Phase3	test/STIM_011.jpg
1958.281	1.313	1	test	Phase3	test/STIM_011.jpg
1962.426	0.65	1	test	Phase3	test/STIM_012.jpg
1965.296	1.013	1	test	Phase3	test/STIM_012.jpg
1969.736	0.747	1	test	Phase3	test/STIM_012.jpg
1973.962	1.042	1	test	Phase3	test/STIM_013.jpg
1977.675	0.936	1	test	Phase3	test/STIM_013.jpg
1981.865	0.917	1	test	Phase3	test/STIM_013.jpg
1985.28	1.333	1	test	Phase3	test/STIM_014.jpg
1989.402	1.31	1	test	Phase3	test/STIM_014.jpg
1993.62	0.767	1	test	Phase3	test/STIM_014.jpg
1997.061	0.646	1	test	Phase3	test/STIM_015.jpg
1999.745	0.999	0	test	Phase3	test/STIM_015.jpg
2002.923	1.289	1	test	Phase3	test/STIM_015.jpg
2008.029	0.667	1	test	Phase3	test/STIM_016.jpg
2012.223	1.2	1	test	Phase3	test/STIM_016.jpg
2017.304	1.128	1	test	Phase3	test/STIM_016.jpg
2020.678	0.693	1	test	Phase3	test/STIM_017.jpg
2024.195	1.325	1	test	Phase3	test/STIM_017.jpg
2028.815	1.009	1	test	Phase3	test/STIM_017.jpg
2032.917	0.804	1	test	Phase3	test/STIM_018.jpg
2036.314	0.984	1	test	Phase3	test/STIM_018.jpg
2040.232	0.629	1	test	Phase3	test/STIM_018.jpg
2044.08	0.762	1	test	Phase3	test/STIM_019.jpg
2048.222	0.92	1	test	Phase3	test/STIM_019.jpg
2051.318	1.177	1	test	Phase3	test/STIM_019.jpg
2055.545	1.193	1	test	Phase3	test/STIM_020.jpg
2060.043	0.711	1	test	Phase3	test/STIM_020.jpg
2062.76	0.851	1	test	Phase3	test/STIM_020.jpg
2067.354	0.872	1	test	Phase3	test/STIM_021.jpg
2070.553	0.963	1	test	Phase3	test/STIM_021.jpg
2074.51	0.804	1	test	Phase3	test/STIM_021.jpg
2078.016	1.322	0	test	Phase3	test/STIM_022.jpg
2081.578	1.198	1	test	Phase3	test/STIM_022.jpg
2086.413	0.972	0	test	Phase3	test/STIM_022.jpg
2091.197	1.185	1	test	Phase3	test/STIM_023.jpg
2094.453	0.964	1	test	Phase3	test/STIM_023.jpg
2098.105	0.706	1	test	Phase3	test/STIM_023.jpg
2101.296	0.65	1	test	Phase3	test/STIM_024.jpg
2105.034	0.871	0	test	Phase3	test/STIM_024.jpg
2108.691	1.107	1	test	Phase3	test/STIM_024.jpg
2113.678	0.889	1	test	Phase3	test/STIM_025.jpg
2116.862	0.949	1	test	Phase3	test/STIM_025.jpg
2120.488	0.753	1	test	Phase3	test/STIM_025.jpg
2124.431	0.966	1	test	Phase3	test/STIM_026.jpg
2127.968	0.698	1	test	Phase3	test/STIM_026.jpg
2131.215	0.856	0	test	Phase3	test/STIM_026.jpg
2134.117	0.826	0	test	Phase3	test/STIM_027.jpg
2138.417	0.752	1	test	Phase3	test/STIM_027.jpg
2142.434	1.296	1	test	Phase3	test/STIM_027.jpg
2146.83	0.864	1	test	Phase3	test/STIM_028.jpg
2150.461	0.647	1	test	Phase3	test/STIM_028.jpg
2154.923	1.093	1	test	Phase3	test/STIM_028.jpg
2158.585	0.934	1	test	Phase3	test/STIM_029.jpg
2163.001	0.66	1	test	Phase3	test/STIM_029.jpg
2166.534	1.218	1	test	Phase3	test/STIM_029.jpg
