onset	duration	accuracy_binary	trial_type	learning_stage	stimulus
0.0	1.352	1	study	Phase1	study/STIM_000.jpg
4.427	1.09	1	study	Phase1	study/STIM_000.jpg
9.043	1.526	1	study	Phase1	study/STIM_000.jpg
14.2	1.724	1	study	Phase1	study/STIM_001.jpg
18.199	0.83	1	study	Phase1	study/STIM_001.jpg
22.294	1.276	1	study	Phase1	study/STIM_001.jpg
26.377	1.122	1	study	Phase1	study/STIM_002.jpg
31.16	1.636	1	study	Phase1	study/STIM_002.jpg
35.663	1.28	1	study	Phase1	study/STIM_002.jpg
39.936	1.008	0	study	Phase1	study/STIM_003.jpg
42.953	1.43	1	study	Phase1	study/STIM_003.jpg
46.883	0.98	0	study	Phase1	study/STIM_003.jpg
50.667	1.462	1	study	Phase1	study/STIM_004.jpg
54.389	1.224	1	study	Phase1	study/STIM_004.jpg
58.215	0.774	1	study	Phase1	study/STIM_004.jpg
62.379	0.914	1	study	Phase1	study/STIM_005.jpg
67.251	1.395	0	study	Phase1	study/STIM_005.jpg
72.061	1.389	1	study	Phase1	study/STIM_005.jpg
76.418	1.219	1	study	Phase1	study/STIM_006.jpg
81.501	1.322	1	study	Phase1	study/STIM_006.jpg
86.673	1.53	1	study	Phase1	study/STIM_006.jpg
91.964	1.782	1	study	Phase1	study/STIM_007.jpg
97.447	1.529	1	study	Phase1	study/STIM_007.jpg
101.186	1.588	1	study	Phase1	study/STIM_007.jpg
106.529	0.797	1	study	Phase1	study/STIM_008.jpg
110.265	0.978	1	study	Phase1	study/STIM_008.jpg
114.383	0.783	0	study	Phase1	study/STIM_008.jpg
117.948	0.977	1	study	Phase1	study/STIM_009.jpg
121.766	0.842	1	study	Phase1	study/STIM_009.jpg
124.797	0.829	1	study	Phase1	study/STIM_009.jpg
129.352	1.71	1	study	Phase1	study/STIM_010.jpg
133.744	1.01	1	study	Phase1	study/STIM_010.jpg
138.207	1.6	1	study	Phase1	study/STIM_010.jpg
141.92	1.482	1	study	Phase1	study/STIM_011.jpg
147.107	1.392	1	study	Phase1	study/STIM_011.jpg
151.533	1.529	1	study	Phase1	study/STIM_011.jpg
156.77	1.1	1	study	Phase1	study/STIM_012.jpg
160.976	1.18	1	study	Phase1	study/STIM_012.jpg
164.366	0.944	1	study	Phase1	study/STIM_012.jpg
167.508	1.111	0	study	Phase1	study/STIM_013.jpg
171.874	0.902	1	study	Phase1	study/STIM_013.jpg
175.68	1.532	1	study	Phase1	study/STIM_013.jpg
179.775	0.934	0	study	Phase1	study/STIM_014.jpg
183.781	0.854	1	study	Phase1	study/STIM_014.jpg
187.821	0.96	1	study	Phase1	study/STIM_014.jpg
192.339	1.732	1	study	Phase1	study/STIM_015.jpg
196.397	1.658	0	study	Phase1	study/STIM_015.jpg
202.024	0.718	1	study	Phase1	study/STIM_015.jpg
205.363	1.724	1	study	Phase1	study/STIM_016.jpg
210.41	0.829	0	study	Phase1	study/STIM_016.jpg
214.794	1.186	1	study	Phase1	study/STIM_016.jpg
218.847	1.655	1	study	Phase1	study/STIM_017.jpg
224.475	1.657	1	study	Phase1	study/STIM_017.jpg
229.919	1.47	0	study	Phase1	study/STIM_017.jpg
234.65	0.865	0	study	Phase1	study/STIM_018.jpg
237.872	0.82	1	study	Phase1	study/STIM_018.jpg
241.853	1.477	1	study	Phase1	study/STIM_018.jpg
246.222	0.853	1	study	Phase1	study/STIM_019.jpg
250.213	1.175	1	study	Phase1	study/STIM_019.jpg
254.403	1.016	1	study	Phase1	study/STIM_019.jpg
258.515	1.662	0	study	Phase1	study/STIM_020.jpg
262.669	1.555	1	study	Phase1	study/STIM_020.jpg
266.651	1.27	1	study	Phase1	study/STIM_020.jpg
271.621	1.242	1	study	Phase1	study/STIM_021.jpg
275.065	1.126	1	study	Phase1	study/STIM_021.jpg
279.818	0.856	1	study	Phase1	study/STIM_021.jpg
283.342	1.438	1	study	Phase1	study/STIM_022.jpg
288.291	1.234	1	study	Phase1	study/STIM_022.jpg
292.41	0.824	0	study	Phase1	study/STIM_022.jpg
297.146	1.579	1	study	Phase1	study/STIM_023.jpg
302.033	1.63	1	study	Phase1	study/STIM_023.jpg
306.34	1.586	1	study	Phase1	study/STIM_023.jpg
310.585	1.253	1	study	Phase1	study/STIM_024.jpg
314.147	1.656	1	study	Phase1	study/STIM_024.jpg
319.568	0.883	1	study	Phase1	study/STIM_024.jpg
322.506	1.551	0	study	Phase1	study/STIM_025.jpg
327.321	0.802	1	study	Phase1	study/STIM_025.jpg
330.279	0.972	1	study	Phase1	study/STIM_025.jpg
334.392	1.4	0	study	Phase1	study/STIM_026.jpg
338.35	0.984	0	study	Phase1	study/STIM_026.jpg
343.04	1.264	1	study	Phase1	study/STIM_026.jpg
346.67	1.659	1	study	Phase1	study/STIM_027.jpg
351.661	1.137	1	study	Phase1	study/STIM_027.jpg
356.767	1.425	1	study	Phase1	study/STIM_027.jpg
361.899	1.546	1	study	Phase1	study/STIM_028.jpg
366.311	0.929	0	study	Phase1	study/STIM_028.jpg
370.694	0.952	1	study	Phase1	study/STIM_028.jpg
375.646	0.869	1	study	Phase1	study/STIM_029.jpg
380.126	1.496	1	study	Phase1	study/STIM_029.jpg
384.334	1.119	1	study	Phase1	study/STIM_029.jpg
389.41	0.822	1	test	Phase1	test/STIM_000.jpg
392.778	1.281	1	test	Phase1	test/STIM_000.jpg
396.998	1.02	1	test	Phase1	test/STIM_000.jpg
400.575	0.674	1	test	Phase1	test/STIM_001.jpg
403.95	1.124	1	test	Phase1	test/STIM_001.jpg
407.289	1.186	1	test	Phase1	test/STIM_001.jpg
412.408	1.06	1	test	Phase1	test/STIM_002.jpg
416.424	1.045	0	test	Phase1	test/STIM_002.jpg
419.508	0.685	1	test	Phase1	test/STIM_002.jpg
423.058	0.933	1	test	Phase1	test/STIM_003.jpg
427.346	1.008	0	test	Phase1	test/STIM_003.jpg
430.39	0.649	1	test	Phase1	test/STIM_003.jpg
433.353	0.856	1	test	Phase1	test/STIM_004.jpg
437.311	0.755	1	test	Phase1	test/STIM_004.jpg
441.301	1.192	1	test	Phase1	test/STIM_004.jpg
445.61	0.846	1	test	Phase1	test/STIM_005.jpg
450.223	0.622	1	test	Phase1	test/STIM_005.jpg
454.179	1.068	1	test	Phase1	test/STIM_005.jpg
458.467	0.931	1	test	Phase1	test/STIM_006.jpg
461.962	1.213	1	test	Phase1	test/STIM_006.jpg
466.012	0.645	1	test	Phase1	test/STIM_006.jpg
470.069	1.021	1	test	Phase1	test/STIM_007.jpg
473.966	1.006	1	test	Phase1	test/STIM_007.jpg
478.864	1.004	1	test	Phase1	test/STIM_007.jpg
482.775	1.154	1	test	Phase1	test/STIM_008.jpg
486.525	1.066	1	test	Phase1	test/STIM_008.jpg
491.186	0.685	1	test	Phase1	test/STIM_008.jpg
494.014	0.604	1	test	Phase1	test/STIM_009.jpg
497.785	0.839	1	test	Phase1	test/STIM_009.jpg
501.865	0.948	1	test	Phase1	test/STIM_009.jpg
506.788	1.036	1	test	Phase1	test/STIM_010.jpg
510.815	1.068	0	test	Phase1	test/STIM_010.jpg
514.549	0.647	0	test	Phase1	test/STIM_010.jpg
517.593	0.932	0	test	Phase1	test/STIM_011.jpg
521.504	0.828	1	test	Phase1	test/STIM_011.jpg
525.44	0.783	1	test	Phase1	test/STIM_011.jpg
530.184	0.672	1	test	Phase1	test/STIM_012.jpg
533.808	1.267	1	test	Phase1	test/STIM_012.jpg
538.882	0.826	1	test	Phase1	test/STIM_012.jpg
541.922	0.632	1	test	Phase1	test/STIM_013.jpg
546.413	0.658	0	test	Phase1	test/STIM_013.jpg
549.143	0.667	0	test	Phase1	test/STIM_013.jpg
553.756	1.058	1	test	Phase1	test/STIM_014.jpg
558.376	0.966	1	test	Phase1	test/STIM_014.jpg
562.542	0.813	0	test	Phase1	test/STIM_014.jpg
566.429	1.166	1	test	Phase1	test/STIM_015.jpg
570.428	1.125	1	test	Phase1	test/STIM_015.jpg
575.116	0.853	1	test	Phase1	test/STIM_015.jpg
578.703	1.018	1	test	Phase1	test/STIM_016.jpg
583.578	0.649	1	test	Phase1	test/STIM_016.jpg
587.647	0.824	1	test	Phase1	test/STIM_016.jpg
591.959	1.012	1	test	Phase1	test/STIM_017.jpg
595.758	0.933	1	test	Phase1	test/STIM_017.jpg
599.128	0.885	1	test	Phase1	test/STIM_017.jpg
603.55	1.125	1	test	Phase1	test/STIM_018.jpg
606.848	0.603	1	test	Phase1	test/STIM_018.jpg
610.277	1.281	1	test	Phase1	test/STIM_018.jpg
614.081	1.213	1	test	Phase1	test/STIM_019.jpg
618.504	0.661	1	test	Phase1	test/STIM_019.jpg
623.059	1.004	1	test	Phase1	test/STIM_019.jpg
627.323	1.227	1	test	Phase1	test/STIM_020.jpg
631.571	1.26	1	test	Phase1	test/STIM_020.jpg
636.281	1.021	1	test	Phase1	test/STIM_020.jpg
640.014	0.813	1	test	Phase1	test/STIM_021.jpg
643.264	0.886	1	test	Phase1	test/STIM_021.jpg
646.175	1.268	1	test	Phase1	test/STIM_021.jpg
651.393	0.692	1	test	Phase1	test/STIM_022.jpg
654.493	1.143	1	test	Phase1	test/STIM_022.jpg
657.871	1.228	1	test	Phase1	test/STIM_022.jpg
662.335	1.279	1	test	Phase1	test/STIM_023.jpg
667.538	0.833	1	test	Phase1	test/STIM_023.jpg
670.755	0.942	1	test	Phase1	test/STIM_023.jpg
674.006	1.053	1	test	Phase1	test/STIM_024.jpg
677.75	1.054	1	test	Phase1	test/STIM_024.jpg
682.437	0.703	1	test	Phase1	test/STIM_024.jpg
685.275	0.73	1	test	Phase1	test/STIM_025.jpg
689.721	0.77	0	test	Phase1	test/STIM_025.jpg
693.572	0.742	1	test	Phase1	test/STIM_025.jpg
697.867	0.696	1	test	Phase1	test/STIM_026.jpg
702.118	0.829	1	test	Phase1	test/STIM_026.jpg
705.055	1.017	1	test	Phase1	test/STIM_026.jpg
709.742	0.842	1	test	Phase1	test/STIM_027.jpg
714.273	0.63	1	test	Phase1	test/STIM_027.jpg
717.648	0.792	0	test	Phase1	test/STIM_027.jpg
721.949	0.639	1	test	Phase1	test/STIM_028.jpg
725.648	1.22	1	test	Phase1	test/STIM_028.jpg
730.027	0.942	0	test	Phase1	test/STIM_028.jpg
733.89	0.738	1	test	Phase1	test/STIM_029.jpg
737.537	1.26	1	test	Phase1	test/STIM_029.jpg
742.173	1.248	1	test	Phase1	test/STIM_029.jpg
747.174	1.372	1	study	Phase2	study/STIM_000.jpg
751.758	0.758	1	study	Phase2	study/STIM_000.jpg
754.984	1.148	1	study	Phase2	study/STIM_000.jpg
758.964	0.901	1	study	Phase2	study/STIM_001.jpg
762.016	0.669	1	study	Phase2	study/STIM_001.jpg
766.633	1.323	1	study	Phase2	study/STIM_001.jpg
771.727	0.854	1	study	Phase2	study/STIM_002.jpg
774.875	0.715	0	study	Phase2	study/STIM_002.jpg
778.742	1.176	1	study	Phase2	study/STIM_002.jpg
783.884	1.04	1	study	Phase2	study/STIM_003.jpg
787.865	1.173	1	study	Phase2	study/STIM_003.jpg
791.966	1.036	1	study	Phase2	study/STIM_003.jpg
796.303	1.505	1	study	Phase2	study/STIM_004.jpg
801.594	1.08	1	study	Phase2	study/STIM_004.jpg
806.593	0.954	1	study	Phase2	study/STIM_004.jpg
809.919	0.88	1	study	Phase2	study/STIM_005.jpg
814.035	1.359	1	study	Phase2	study/STIM_005.jpg
817.648	0.599	1	study	Phase2	study/STIM_005.jpg
822.249	1.26	1	study	Phase2	study/STIM_006.jpg
827.274	1.254	1	study	Phase2	study/STIM_006.jpg
832.173	0.818	1	study	Phase2	study/STIM_006.jpg
835.451	1.069	0	study	Phase2	study/STIM_007.jpg
839.107	0.771	1	study	Phase2	study/STIM_007.jpg
843.865	1.173	1	study	Phase2	study/STIM_007.jpg
847.538	0.858	1	study	Phase2	study/STIM_008.jpg
851.506	1.115	1	study	Phase2	study/STIM_008.jpg
855.991	0.812	1	study	Phase2	study/STIM_008.jpg
860.173	0.969	1	study	Phase2	study/STIM_009.jpg
863.899	0.85	0	study	Phase2	study/STIM_009.jpg
868.416	1.229	1	study	Phase2	study/STIM_009.jpg
871.786	1.297	1	study	Phase2	study/STIM_010.jpg
875.881	0.685	0	study	Phase2	study/STIM_010.jpg
880.158	1.193	1	study	Phase2	study/STIM_010.jpg
884.033	0.787	0	study	Phase2	study/STIM_011.jpg
888.811	1.154	1	study	Phase2	study/STIM_011.jpg
893.507	1.22	1	study	Phase2	study/STIM_011.jpg
896.77	0.832	1	study	Phase2	study/STIM_012.jpg
900.36	1.414	1	study	Phase2	study/STIM_012.jpg
905.699	0.745	1	study	Phase2	study/STIM_012.jpg
909.093	1.508	1	study	Phase2	study/STIM_013.jpg
913.647	1.263	1	study	Phase2	study/STIM_013.jpg
917.857	1.328	1	study	Phase2	study/STIM_013.jpg
922.405	0.72	1	study	Phase2	study/STIM_014.jpg
926.428	0.955	1	study	Phase2	study/STIM_014.jpg
930.575	0.604	1	study	Phase2	study/STIM_014.jpg
934.416	0.833	1	study	Phase2	study/STIM_015.jpg
938.563	0.677	1	study	Phase2	study/STIM_015.jpg
941.545	1.026	1	study	Phase2	study/STIM_015.jpg
946.023	0.889	1	study	Phase2	study/STIM_016.jpg
949.077	0.972	1	study	Phase2	study/STIM_016.jpg
952.493	0.786	0	study	Phase2	study/STIM_016.jpg
956.497	1.247	1	study	Phase2	study/STIM_017.jpg
961.477	1.02	1	study	Phase2	study/STIM_017.jpg
965.085	1.087	1	study	Phase2	study/STIM_017.jpg
969.244	1.25	1	study	Phase2	study/STIM_018.jpg
974.267	1.099	1	study	Phase2	study/STIM_018.jpg
977.873	1.099	1	study	Phase2	study/STIM_018.jpg
981.754	1.331	1	study	Phase2	study/STIM_019.jpg
985.215	1.096	1	study	Phase2	study/STIM_019.jpg
990.255	1.198	1	study	Phase2	study/STIM_019.jpg
993.707	1.175	1	study	Phase2	study/STIM_020.jpg
996.962	1.064	1	study	Phase2	study/STIM_020.jpg
1000.237	1.191	1	study	Phase2	study/STIM_020.jpg
1004.952	1.367	1	study	Phase2	study/STIM_021.jpg
1008.858	0.8	1	study	Phase2	study/STIM_021.jpg
1013.561	1.128	1	study	Phase2	study/STIM_021.jpg
1017.976	1.001	1	study	Phase2	study/STIM_022.jpg
1021.136	0.66	1	study	Phase2	study/STIM_022.jpg
1024.678	1.006	1	study	Phase2	study/STIM_022.jpg
1028.247	1.075	0	study	Phase2	study/STIM_023.jpg
1032.108	1.285	1	study	Phase2	study/STIM_023.jpg
1036.612	1.261	1	study	Phase2	study/STIM_023.jpg
1041.665	0.902	1	study	Phase2	study/STIM_024.jpg
1045.096	0.856	1	study	Phase2	study/STIM_024.jpg
1049.258	0.656	0	study	Phase2	study/STIM_024.jpg
1052.23	1.205	1	study	Phase2	study/STIM_025.jpg
1057.165	1.38	1	study	Phase2	study/STIM_025.jpg
1061.178	0.774	1	study	Phase2	study/STIM_025.jpg
1065.787	1.159	1	study	Phase2	study/STIM_026.jpg
1069.936	0.657	1	study	Phase2	study/STIM_026.jpg
1073.675	1.129	0	study	Phase2	study/STIM_026.jpg
1078.258	1.357	1	study	Phase2	study/STIM_027.jpg
1083.12	0.955	1	study	Phase2	study/STIM_027.jpg
1087.611	1.332	1	study	Phase2	study/STIM_027.jpg
1091.777	0.814	1	study	Phase2	study/STIM_028.jpg
1095.985	1.362	1	study	Phase2	study/STIM_028.jpg
1099.718	0.807	0	study	Phase2	study/STIM_028.jpg
1103.113	0.871	1	study	Phase2	study/STIM_029.jpg
1106.007	1.062	1	study	Phase2	study/STIM_029.jpg
1109.611	1.043	1	study	Phase2	study/STIM_029.jpg
1113.974	0.904	0	test	Phase2	test/STIM_000.jpg
1118.558	1.121	1	test	Phase2	test/STIM_000.jpg
1121.895	0.645	1	test	Phase2	test/STIM_000.jpg
1125.711	0.631	1	test	Phase2	test/STIM_001.jpg
1129.853	0.799	1	test	Phase2	test/STIM_001.jpg
1134.15	0.765	1	test	Phase2	test/STIM_001.jpg
1138.418	0.871	0	test	Phase2	test/STIM_002.jpg
1142.339	1.234	1	test	Phase2	test/STIM_002.jpg
1145.929	1.069	1	test	Phase2	test/STIM_002.jpg
1150.19	1.104	1	test	Phase2	test/STIM_003.jpg
1154.932	1.096	0	test	Phase2	test/STIM_003.jpg
1158.339	1.175	1	test	Phase2	test/STIM_003.jpg
1161.798	0.934	1	test	Phase2	test/STIM_004.jpg
1166.249	1.096	1	test	Phase2	test/STIM_004.jpg
1171.108	0.72	1	test	Phase2	test/STIM_004.jpg
1174.749	0.823	1	test	Phase2	test/STIM_005.jpg
1177.914	1.054	0	test	Phase2	test/STIM_005.jpg
1181.222	0.673	1	test	Phase2	test/STIM_005.jpg
1185.388	1.089	1	test	Phase2	test/STIM_006.jpg
1189.607	0.654	1	test	Phase2	test/STIM_006.jpg
1194.08	1.079	1	test	Phase2	test/STIM_006.jpg
1198.792	1.17	1	test	Phase2	test/STIM_007.jpg
1202.584	0.746	1	test	Phase2	test/STIM_007.jpg
1206.594	0.715	1	test	Phase2	test/STIM_007.jpg
1210.251	0.756	1	test	Phase2	test/STIM_008.jpg
1214.86	1.114	1	test	Phase2	test/STIM_008.jpg
1219.149	0.934	0	test	Phase2	test/STIM_008.jpg
1223.88	0.767	1	test	Phase2	test/STIM_009.jpg
1228.154	0.717	0	test	Phase2	test/STIM_009.jpg
1230.934	0.69	1	test	Phase2	test/STIM_009.jpg
1233.738	1.051	1	test	Phase2	test/STIM_010.jpg
1237.545	1.202	1	test	Phase2	test/STIM_010.jpg
1241.408	0.699	1	test	Phase2	test/STIM_010.jpg
1244.953	1.02	1	test	Phase2	test/STIM_011.jpg
1249.074	1.03	1	test	Phase2	test/STIM_011.jpg
1252.711	0.844	1	test	Phase2	test/STIM_011.jpg
1256.785	0.719	0	test	Phase2	test/STIM_012.jpg
1260.446	0.886	1	test	Phase2	test/STIM_012.jpg
1265.188	1.124	1	test	Phase2	test/STIM_012.jpg
1269.682	1.218	1	test	Phase2	test/STIM_013.jpg
1273.411	0.971	1	test	Phase2	test/STIM_013.jpg
1276.463	1.278	0	test	Phase2	test/STIM_013.jpg
1280.47	0.798	0	test	Phase2	test/STIM_014.jpg
1284.859	1.258	0	test	Phase2	test/STIM_014.jpg
1290.032	1.167	1	test	Phase2	test/STIM_014.jpg
1294.557	0.897	1	test	Phase2	test/STIM_015.jpg
1297.577	1.078	1	test	Phase2	test/STIM_015.jpg
1302.299	1.167	1	test	Phase2	test/STIM_015.jpg
1306.124	0.929	1	test	Phase2	test/STIM_016.jpg
1309.635	1.006	1	test	Phase2	test/STIM_016.jpg
1312.761	0.597	0	test	Phase2	test/STIM_016.jpg
1316.947	1.262	1	test	Phase2	test/STIM_017.jpg
1321.246	0.697	0	test	Phase2	test/STIM_017.jpg
1324.238	1.019	1	test	Phase2	test/STIM_017.jpg
1327.657	1.125	1	test	Phase2	test/STIM_018.jpg
1331.543	0.672	0	test	Phase2	test/STIM_018.jpg
1334.568	0.854	1	test	Phase2	test/STIM_018.jpg
1338.03	1.05	1	test	Phase2	test/STIM_019.jpg
1341.891	0.728	0	test	Phase2	test/STIM_019.jpg
1346.334	0.992	1	test	Phase2	test/STIM_019.jpg
1349.633	0.907	1	test	Phase2	test/STIM_020.jpg
1354.434	1.208	1	test	Phase2	test/STIM_020.jpg
1358.687	0.751	1	test	Phase2	test/STIM_020.jpg
1363.198	0.961	1	test	Phase2	test/STIM_021.jpg
1366.583	1.15	1	test	Phase2	test/STIM_021.jpg
1370.679	0.746	1	test	Phase2	test/STIM_021.jpg
1375.351	0.956	1	test	Phase2	test/STIM_022.jpg
1379.358	1.135	1	test	Phase2	test/STIM_022.jpg
1382.861	1.001	1	test	Phase2	test/STIM_022.jpg
1387.296	1.207	1	test	Phase2	test/STIM_023.jpg
1390.664	1.26	1	test	Phase2	test/STIM_023.jpg
1395.181	1.057	1	test	Phase2	test/STIM_023.jpg
1398.658	1.119	1	test	Phase2	test/STIM_024.jpg
1402.893	0.934	1	test	Phase2	test/STIM_024.jpg
1406.003	0.83	1	test	Phase2	test/STIM_024.jpg
1410.748	1.139	1	test	Phase2	test/STIM_025.jpg
1414.931	0.711	1	test	Phase2	test/STIM_025.jpg
1418.399	0.669	1	test	Phase2	test/STIM_025.jpg
1422.821	1.211	1	test	Phase2	test/STIM_026.jpg
1427.815	0.783	1	test	Phase2	test/STIM_026.jpg
1432.301	1.194	1	test	Phase2	test/STIM_026.jpg
1436.654	1.159	1	test	Phase2	test/STIM_027.jpg
1441.604	0.978	1	test	Phase2	test/STIM_027.jpg
1446.583	0.676	1	test	Phase2	test/STIM_027.jpg
1450.264	0.864	1	test	Phase2	test/STIM_028.jpg
1453.247	0.946	1	test	Phase2	test/STIM_028.jpg
1456.629	0.891	1	test	Phase2	test/STIM_028.jpg
1460.384	0.844	0	test	Phase2	test/STIM_029.jpg
1464.274	1.033	1	test	Phase2	test/STIM_029.jpg
1468.221	1.162	1	test	Phase2	test/STIM_029.jpg
1472.07	1.012	1	study	Phase3	study/STIM_000.jpg
1476.207	0.594	1	study	Phase3	study/STIM_000.jpg
1479.377	0.751	1	study	Phase3	study/STIM_000.jpg
1482.171	1.08	1	study	Phase3	study/STIM_001.jpg
1485.88	0.922	1	study	Phase3	study/STIM_001.jpg
1490.579	0.614	1	study	Phase3	study/STIM_001.jpg
1494.898	0.983	1	study	Phase3	study/STIM_002.jpg
1498.73	1.046	1	study	Phase3	study/STIM_002.jpg
1503.571	0.793	1	study	Phase3	study/STIM_002.jpg
1506.378	0.574	1	study	Phase3	study/STIM_003.jpg
1509.356	0.597	1	study	Phase3	study/STIM_003.jpg
1512.811	1.062	1	study	Phase3	study/STIM_003.jpg
1516.357	0.904	1	study	Phase3	study/STIM_004.jpg
1520.9	0.779	1	study	Phase3	study/STIM_004.jpg
1525.103	0.598	1	study	Phase3	study/STIM_004.jpg
1528.044	1.06	1	study	Phase3	study/STIM_005.jpg
1532.136	0.62	1	study	Phase3	study/STIM_005.jpg
1535.449	1.185	1	study	Phase3	study/STIM_005.jpg
1538.657	0.877	1	study	Phase3	study/STIM_006.jpg
1543.36	0.915	1	study	Phase3	study/STIM_006.jpg
1546.503	0.821	1	study	Phase3	study/STIM_006.jpg
1550.717	1.157	1	study	Phase3	study/STIM_007.jpg
1553.971	1.231	1	study	Phase3	study/STIM_007.jpg
1559.108	0.811	1	study	Phase3	study/STIM_007.jpg
1563.305	1.236	1	study	Phase3	study/STIM_008.jpg
1566.873	0.681	1	study	Phase3	study/STIM_008.jpg
1570.835	1.068	1	study	Phase3	study/STIM_008.jpg
1575.83	0.998	1	study	Phase3	study/STIM_009.jpg
1579.917	0.843	1	study	Phase3	study/STIM_009.jpg
1583.932	1.157	1	study	Phase3	study/STIM_009.jpg
1588.449	0.936	1	study	Phase3	study/STIM_010.jpg
1591.473	0.695	1	study	Phase3	study/STIM_010.jpg
1594.684	0.767	1	study	Phase3	study/STIM_010.jpg
1598.298	0.624	1	study	Phase3	study/STIM_011.jpg
1602.275	0.928	1	study	Phase3	study/STIM_011.jpg
1606.48	1.13	1	study	Phase3	study/STIM_011.jpg
1610.902	1.217	1	study	Phase3	study/STIM_012.jpg
1614.981	1.003	1	study	Phase3	study/STIM_012.jpg
1619.114	1.236	1	study	Phase3	study/STIM_012.jpg
1624.216	0.838	1	study	Phase3	study/STIM_013.jpg
1628.219	0.584	1	study	Phase3	study/STIM_013.jpg
1631.358	0.578	1	study	Phase3	study/STIM_013.jpg
1634.492	1.108	1	study	Phase3	study/STIM_014.jpg
1637.999	1.231	1	study	Phase3	study/STIM_014.jpg
1642.443	0.978	1	study	Phase3	study/STIM_014.jpg
1647.26	1.023	1	study	Phase3	study/STIM_015.jpg
1652.016	0.681	1	study	Phase3	study/STIM_015.jpg
1656.604	0.989	1	study	Phase3	study/STIM_015.jpg
1660.909	1.138	1	study	Phase3	study/STIM_016.jpg
1664.603	0.673	1	study	Phase3	study/STIM_016.jpg
1668.685	0.713	1	study	Phase3	study/STIM_016.jpg
1672.09	1.228	1	study	Phase3	study/STIM_017.jpg
1676.131	0.689	1	study	Phase3	study/STIM_017.jpg
1679.165	0.629	1	study	Phase3	study/STIM_017.jpg
1683.795	0.669	1	study	Phase3	study/STIM_018.jpg
1687.129	0.876	1	study	Phase3	study/STIM_018.jpg
1690.615	0.695	1	study	Phase3	study/STIM_018.jpg
1694.741	0.996	1	study	Phase3	study/STIM_019.jpg
1699.564	1.228	1	study	Phase3	study/STIM_019.jpg
1703.248	0.92	1	study	Phase3	study/STIM_019.jpg
1707.049	0.959	1	study	Phase3	study/STIM_020.jpg
1710.678	0.932	1	study	Phase3	study/STIM_020.jpg
1714.03	1.01	1	study	Phase3	study/STIM_020.jpg
1717.181	0.938	1	study	Phase3	study/STIM_021.jpg
1720.172	0.674	1	study	Phase3	study/STIM_021.jpg
1724.259	0.696	1	study	Phase3	study/STIM_021.jpg
1727.326	0.981	1	study	Phase3	study/STIM_022.jpg
1731.623	1.246	1	study	Phase3	study/STIM_022.jpg
1734.888	1.17	1	study	Phase3	study/STIM_022.jpg
1739.974	0.751	1	study	Phase3	study/STIM_023.jpg
1742.914	0.633	1	study	Phase3	study/STIM_023.jpg
1747.441	0.979	1	study	Phase3	study/STIM_023.jpg
1751.953	0.738	1	study	Phase3	study/STIM_024.jpg
1754.701	0.799	1	study	Phase3	study/STIM_024.jpg
1757.631	0.68	1	study	Phase3	study/STIM_024.jpg
1762.146	0.652	1	study	Phase3	study/STIM_025.jpg
1765.991	0.932	0	study	Phase3	study/STIM_025.jpg
1769.569	0.591	1	study	Phase3	study/STIM_025.jpg
1772.542	0.945	1	study	Phase3	study/STIM_026.jpg
1776.559	0.856	1	study	Phase3	study/STIM_026.jpg
1781.106	0.707	1	study	Phase3	study/STIM_026.jpg
1785.335	0.846	1	study	Phase3	study/STIM_027.jpg
1789.129	0.62	1	study	Phase3	study/STIM_027.jpg
1791.978	0.685	1	study	Phase3	study/STIM_027.jpg
1796.367	0.719	1	study	Phase3	study/STIM_028.jpg
1801.002	1.221	1	study	Phase3	study/STIM_028.jpg
1804.961	0.606	1	study	Phase3	study/STIM_028.jpg
1808.689	1.145	1	study	Phase3	study/STIM_029.jpg
1812.86	0.795	1	study	Phase3	study/STIM_029.jpg
1815.672	0.908	1	study	Phase3	study/STIM_029.jpg
1820.238	0.945	1	test	Phase3	test/STIM_000.jpg
1824.447	1.178	1	test	Phase3	test/STIM_000.jpg
1829.346	1.063	1	test	Phase3	test/STIM_000.jpg
1832.798	1.238	1	test	Phase3	test/STIM_001.jpg
1836.972	0.812	1	test	Phase3	test/STIM_001.jpg
1841.471	0.845	1	test	Phase3	test/STIM_001.jpg
1846.287	1.139	1	test	Phase3	test/STIM_002.jpg
1850.313	0.757	1	test	Phase3	test/STIM_002.jpg
1854.509	0.671	1	test	Phase3	test/STIM_002.jpg
1857.279	0.895	1	test	Phase3	test/STIM_003.jpg
1860.231	1.063	0	test	Phase3	test/STIM_003.jpg
1863.777	1.076	1	test	Phase3	test/STIM_003.jpg
1868.788	0.758	0	test	Phase3	test/STIM_004.jpg
1871.849	1.082	0	test	Phase3	test/STIM_004.jpg
1876.288	0.828	1	test	Phase3	test/STIM_004.jpg
1880.285	0.93	1	test	Phase3	test/STIM_005.jpg
1884.107	0.83	1	test	Phase3	test/STIM_005.jpg
1887.367	0.779	1	test	Phase3	test/STIM_005.jpg
1890.846	0.62	1	test	Phase3	test/STIM_006.jpg
1894.965	0.821	1	test	Phase3	test/STIM_006.jpg
1899.227	0.998	1	test	Phase3	test/STIM_006.jpg
1902.277	1.108	1	test	Phase3	test/STIM_007.jpg
1907.118	0.711	1	test	Phase3	test/STIM_007.jpg
1910.181	1.012	1	test	Phase3	test/STIM_007.jpg
1913.836	0.969	1	test	Phase3	test/STIM_008.jpg
1917.656	1.188	1	test	Phase3	test/STIM_008.jpg
1920.983	1.026	1	test	Phase3	test/STIM_008.jpg
1925.133	1.259	1	test	Phase3	test/STIM_009.jpg
1929.212	0.797	1	test	Phase3	test/STIM_009.jpg
1933.081	0.674	1	test	Phase3	test/STIM_009.jpg
1935.764	0.82	1	test	Phase3	test/STIM_010.jpg
1940.533	1.1	1	test	Phase3	test/STIM_010.jpg
1943.828	0.954	1	test	Phase3	test/STIM_010.jpg
1947.862	1.175	1	test	Phase3	test/STIM_011.jpg
1952.315	0.97	1	test	Phase3	test/STIM_011.jpg
1957.157	0.951	1	test	Phase3	test/STIM_011.jpg
1961.035	0.724	1	test	Phase3	test/STIM_012.jpg
1964.766	0.666	0	test	Phase3	test/STIM_012.jpg
1968.397	1.211	1	test	Phase3	test/STIM_012.jpg
1972.982	0.83	1	test	Phase3	test/STIM_013.jpg
1976.714	1.052	1	test	Phase3	test/STIM_013.jpg
1980.762	0.8	1	test	Phase3	test/STIM_013.jpg
1985.491	0.722	1	test	Phase3	test/STIM_014.jpg
1989.239	1.194	1	test	Phase3	test/STIM_014.jpg
1993.93	1.189	1	test	Phase3	test/STIM_014.jpg
1997.915	0.842	1	test	Phase3	test/STIM_015.jpg
2000.854	0.809	1	test	Phase3	test/STIM_015.jpg
2004.801	0.898	0	test	Phase3	test/STIM_015.jpg
2008.101	0.894	1	test	Phase3	test/STIM_016.jpg
2012.805	0.776	1	test	Phase3	test/STIM_016.jpg
2016.876	0.609	1	test	Phase3	test/STIM_016.jpg
2019.561	1.287	1	test	Phase3	test/STIM_017.jpg
2023.454	0.774	1	test	Phase3	test/STIM_017.jpg
2026.947	0.853	1	test	Phase3	test/STIM_017.jpg
2031.05	0.709	1	test	Phase3	test/STIM_018.jpg
2035.389	0.925	1	test	Phase3	test/STIM_018.jpg
2038.817	0.607	0	test	Phase3	test/STIM_018.jpg
2042.345	0.988	0	test	Phase3	test/STIM_019.jpg
2047.282	1.035	1	test	Phase3	test/STIM_019.jpg
2050.494	0.706	1	test	Phase3	test/STIM_019.jpg
2054.069	0.904	1	test	Phase3	test/STIM_020.jpg
2058.196	0.723	1	test	Phase3	test/STIM_020.jpg
2061.273	0.639	1	test	Phase3	test/STIM_020.jpg
2064.38	1.212	1	test	Phase3	test/STIM_021.jpg
2067.956	0.976	1	test	Phase3	test/STIM_021.jpg
2071.032	0.6	1	test	Phase3	test/STIM_021.jpg
2074.954	0.848	1	test	Phase3	test/STIM_022.jpg
2078.343	0.834	1	test	Phase3	test/STIM_022.jpg
2082.95	0.723	1	test	Phase3	test/STIM_022.jpg
2085.922	0.744	1	test	Phase3	test/STIM_023.jpg
2088.954	1.231	1	test	Phase3	test/STIM_023.jpg
2092.352	1.261	1	test	Phase3	test/STIM_023.jpg
2097.133	1.243	0	test	Phase3	test/STIM_024.jpg
2102.059	1.074	1	test	Phase3	test/STIM_024.jpg
2106.736	0.835	1	test	Phase3	test/STIM_024.jpg
2110.103	0.823	1	test	Phase3	test/STIM_025.jpg
2114.804	0.797	1	test	Phase3	test/STIM_025.jpg
2118.39	1.261	1	test	Phase3	test/STIM_025.jpg
2123.219	1.188	1	test	Phase3	test/STIM_026.jpg
2127.174	1.114	1	test	Phase3	test/STIM_026.jpg
2131.807	0.752	1	test	Phase3	test/STIM_026.jpg
2135.342	0.995	1	test	Phase3	test/STIM_027.jpg
2138.722	1.139	1	test	Phase3	test/STIM_027.jpg
2143.658	0.714	1	test	Phase3	test/STIM_027.jpg
2148.044	0.608	1	test	Phase3	test/STIM_028.jpg
2152.638	0.789	1	test	Phase3	test/STIM_028.jpg
2155.8	0.845	1	test	Phase3	test/STIM_028.jpg
2159.968	0.998	1	test	Phase3	test/STIM_029.jpg
2164.662	0.758	1	test	Phase3	test/STIM_029.jpg
2167.737	1.008	1	test	Phase3	test/STIM_029.jpg
