onset	duration	response_time_ms	trial_type	learning_stage	stimulus	response_port
0.0	1.352	1351.7	study	Phase1	study/STIM_000.jpg	100
4.427	1.09	1089.5	study	Phase1	study/STIM_000.jpg	100
9.043	1.526	1526.3	study	Phase1	study/STIM_000.jpg	100
14.2	1.724	1723.5	study	Phase1	study/STIM_001.jpg	100
18.199	0.83	830.0	study	Phase1	study/STIM_001.jpg	100
22.294	1.276	1275.6	study	Phase1	study/STIM_001.jpg	100
26.377	1.122	1122.1	study	Phase1	study/STIM_002.jpg	99
31.16	1.636	1635.7	study	Phase1	study/STIM_002.jpg	100
35.663	1.28	1280.3	study	Phase1	study/STIM_002.jpg	100
39.936	1.008	1007.9	study	Phase1	study/STIM_003.jpg	99
42.953	1.43	1429.9	study	Phase1	study/STIM_003.jpg	99
46.883	0.98	979.6	study	Phase1	study/STIM_003.jpg	99
50.667	1.462	1462.0	study	Phase1	study/STIM_004.jpg	100
54.389	1.224	1223.7	study	Phase1	study/STIM_004.jpg	100
58.215	0.774	773.6	study	Phase1	study/STIM_004.jpg	99
62.379	0.914	913.7	study	Phase1	study/STIM_005.jpg	100
67.251	1.395	1395.0	study	Phase1	study/STIM_005.jpg	100
72.061	1.389	1388.6	study	Phase1	study/STIM_005.jpg	99
76.418	1.219	1219.3	study	Phase1	study/STIM_006.jpg	99
81.501	1.322	1321.6	study	Phase1	study/STIM_006.jpg	100
86.673	1.53	1530.1	study	Phase1	study/STIM_006.jpg	100
91.964	1.782	1782.3	study	Phase1	study/STIM_007.jpg	100
97.447	1.529	1528.6	study	Phase1	study/STIM_007.jpg	99
101.186	1.588	1587.7	study	Phase1	study/STIM_007.jpg	99
106.529	0.797	797.2	study	Phase1	study/STIM_008.jpg	100
110.265	0.978	978.3	study	Phase1	study/STIM_008.jpg	99
114.383	0.783	782.9	study	Phase1	study/STIM_008.jpg	99
117.948	0.977	977.1	study	Phase1	study/STIM_009.jpg	100
121.766	0.842	841.5	study	Phase1	study/STIM_009.jpg	100
124.797	0.829	828.8	study	Phase1	study/STIM_009.jpg	100
129.352	1.71	1709.7	study	Phase1	study/STIM_010.jpg	100
133.744	1.01	1010.0	study	Phase1	study/STIM_010.jpg	99
138.207	1.6	1600.1	study	Phase1	study/STIM_010.jpg	99
141.92	1.482	1481.5	study	Phase1	study/STIM_011.jpg	100
147.107	1.392	1392.4	study	Phase1	study/STIM_011.jpg	99
151.533	1.529	1529.1	study	Phase1	study/STIM_011.jpg	99
156.77	1.1	1100.2	study	Phase1	study/STIM_012.jpg	99
160.976	1.18	1180.1	study	Phase1	study/STIM_012.jpg	100
164.366	0.944	943.8	study	Phase1	study/STIM_012.jpg	100
167.508	1.111	1111.1	study	Phase1	study/STIM_013.jpg	100
171.874	0.902	902.3	study	Phase1	study/STIM_013.jpg	100
175.68	1.532	1532.0	study	Phase1	study/STIM_013.jpg	100
179.775	0.934	933.7	study	Phase1	study/STIM_014.jpg	99
183.781	0.854	854.4	study	Phase1	study/STIM_014.jpg	99
187.821	0.96	959.8	study	Phase1	study/STIM_014.jpg	99
192.339	1.732	1731.7	study	Phase1	study/STIM_015.jpg	99
196.397	1.658	1657.6	study	Phase1	study/STIM_015.jpg	99
202.024	0.718	718.0	study	Phase1	study/STIM_015.jpg	99
205.363	1.724	1723.6	study	Phase1	study/STIM_016.jpg	100
210.41	0.829	828.8	study	Phase1	study/STIM_016.jpg	99
214.794	1.186	1185.5	study	Phase1	study/STIM_016.jpg	100
218.847	1.655	1655.4	study	Phase1	study/STIM_017.jpg	100
224.475	1.657	1657.4	study	Phase1	study/STIM_017.jpg	99
229.919	1.47	1470.1	study	Phase1	study/STIM_017.jpg	100
234.65	0.865	865.2	study	Phase1	study/STIM_018.jpg	100
237.872	0.82	820.2	study	Phase1	study/STIM_018.jpg	100
241.853	1.477	1476.6	study	Phase1	study/STIM_018.jpg	99
246.222	0.853	853.0	study	Phase1	study/STIM_019.jpg	100
250.213	1.175	1175.3	study	Phase1	study/STIM_019.jpg	99
254.403	1.016	1016.0	study	Phase1	study/STIM_019.jpg	100
258.515	1.662	1662.3	study	Phase1	study/STIM_020.jpg	100
262.669	1.555	1555.0	study	Phase1	study/STIM_020.jpg	100
266.651	1.27	1270.1	study	Phase1	study/STIM_020.jpg	100
271.621	1.242	1242.5	study	Phase1	study/STIM_021.jpg	100
275.065	1.126	1126.4	study	Phase1	study/STIM_021.jpg	99
279.818	0.856	856.4	study	Phase1	study/STIM_021.jpg	100
283.342	1.438	1437.9	study	Phase1	study/STIM_022.jpg	99
288.291	1.234	1233.7	study	Phase1	study/STIM_022.jpg	100
292.41	0.824	824.3	study	Phase1	study/STIM_022.jpg	99
297.146	1.579	1579.3	study	Phase1	study/STIM_023.jpg	100
302.033	1.63	1629.8	study	Phase1	study/STIM_023.jpg	100
306.34	1.586	1585.7	study	Phase1	study/STIM_023.jpg	100
310.585	1.253	1252.9	study	Phase1	study/STIM_024.jpg	100
314.147	1.656	1655.5	study	Phase1	study/STIM_024.jpg	99
319.568	0.883	882.7	study	Phase1	study/STIM_024.jpg	100
322.506	1.551	1550.7	study	Phase1	study/STIM_025.jpg	100
327.321	0.802	802.1	study	Phase1	study/STIM_025.jpg	100
330.279	0.972	971.5	study	Phase1	study/STIM_025.jpg	100
334.392	1.4	1399.9	study	Phase1	study/STIM_026.jpg	100
338.35	0.984	983.7	study	Phase1	study/STIM_026.jpg	99
343.04	1.264	1263.8	study	Phase1	study/STIM_026.jpg	100
346.67	1.659	1658.6	study	Phase1	study/STIM_027.jpg	99
351.661	1.137	1136.6	study	Phase1	study/STIM_027.jpg	99
356.767	1.425	1425.1	study	Phase1	study/STIM_027.jpg	99
361.899	1.546	1545.5	study	Phase1	study/STIM_028.jpg	99
366.311	0.929	928.6	study	Phase1	study/STIM_028.jpg	100
370.694	0.952	952.5	study	Phase1	study/STIM_028.jpg	99
375.646	0.869	869.0	study	Phase1	study/STIM_029.jpg	99
380.126	1.496	1496.5	study	Phase1	study/STIM_029.jpg	100
384.334	1.119	1118.8	study	Phase1	study/STIM_029.jpg	99
389.41	0.822	822.1	test	Phase1	test/STIM_000.jpg	99
392.778	1.281	1281.3	test	Phase1	test/STIM_000.jpg	100
396.998	1.02	1020.5	test	Phase1	test/STIM_000.jpg	99
400.575	0.674	673.6	test	Phase1	test/STIM_001.jpg	99
403.95	1.124	1124.2	test	Phase1	test/STIM_001.jpg	100
407.289	1.186	1186.3	test	Phase1	test/STIM_001.jpg	99
412.408	1.06	1059.9	test	Phase1	test/STIM_002.jpg	100
416.424	1.045	1044.8	test	Phase1	test/STIM_002.jpg	99
419.508	0.685	684.6	test	Phase1	test/STIM_002.jpg	100
423.058	0.933	933.1	test	Phase1	test/STIM_003.jpg	99
427.346	1.008	1008.5	test	Phase1	test/STIM_003.jpg	99
430.39	0.649	648.8	test	Phase1	test/STIM_003.jpg	99
433.353	0.856	856.3	test	Phase1	test/STIM_004.jpg	99
437.311	0.755	755.2	test	Phase1	test/STIM_004.jpg	99
441.301	1.192	1192.2	test	Phase1	test/STIM_004.jpg	99
445.61	0.846	846.2	test	Phase1	test/STIM_005.jpg	100
450.223	0.622	622.1	test	Phase1	test/STIM_005.jpg	100
454.179	1.068	1067.5	test	Phase1	test/STIM_005.jpg	99
458.467	0.931	931.2	test	Phase1	test/STIM_006.jpg	100
461.962	1.213	1212.7	test	Phase1	test/STIM_006.jpg	99
466.012	0.645	645.3	test	Phase1	test/STIM_006.jpg	99
470.069	1.021	1020.9	test	Phase1	test/STIM_007.jpg	100
473.966	1.006	1006.5	test	Phase1	test/STIM_007.jpg	99
478.864	1.004	1003.5	test	Phase1	test/STIM_007.jpg	100
482.775	1.154	1154.0	test	Phase1	test/STIM_008.jpg	99
486.525	1.066	1066.4	test	Phase1	test/STIM_008.jpg	100
491.186	0.685	685.3	test	Phase1	test/STIM_008.jpg	100
494.014	0.604	603.5	test	Phase1	test/STIM_009.jpg	99
497.785	0.839	839.0	test	Phase1	test/STIM_009.jpg	100
501.865	0.948	948.1	test	Phase1	test/STIM_009.jpg	99
506.788	1.036	1035.5	test	Phase1	test/STIM_010.jpg	100
510.815	1.068	1068.4	test	Phase1	test/STIM_010.jpg	100
514.549	0.647	647.1	test	Phase1	test/STIM_010.jpg	100
517.593	0.932	931.6	test	Phase1	test/STIM_011.jpg	100
521.504	0.828	827.6	test	Phase1	test/STIM_011.jpg	99
525.44	0.783	783.1	test	Phase1	test/STIM_011.jpg	99
530.184	0.672	672.1	test	Phase1	test/STIM_012.jpg	100
533.808	1.267	1267.0	test	Phase1	test/STIM_012.jpg	99
538.882	0.826	826.4	test	Phase1	test/STIM_012.jpg	100
541.922	0.632	631.6	test	Phase1	test/STIM_013.jpg	99
546.413	0.658	657.7	test	Phase1	test/STIM_013.jpg	99
549.143	0.667	667.4	test	Phase1	test/STIM_013.jpg	100
553.756	1.058	1058.3	test	Phase1	test/STIM_014.jpg	100
558.376	0.966	966.2	test	Phase1	test/STIM_014.jpg	100
562.542	0.813	813.1	test	Phase1	test/STIM_014.jpg	99
566.429	1.166	1166.3	test	Phase1	test/STIM_015.jpg	99
570.428	1.125	1124.6	test	Phase1	test/STIM_015.jpg	100
575.116	0.853	852.6	test	Phase1	test/STIM_015.jpg	100
578.703	1.018	1018.5	test	Phase1	test/STIM_016.jpg	100
583.578	0.649	648.8	test	Phase1	test/STIM_016.jpg	100
587.647	0.824	823.6	test	Phase1	test/STIM_016.jpg	100
591.959	1.012	1012.2	test	Phase1	test/STIM_017.jpg	99
595.758	0.933	933.4	test	Phase1	test/STIM_017.jpg	100
599.128	0.885	884.8	test	Phase1	test/STIM_017.jpg	100
603.55	1.125	1125.0	test	Phase1	test/STIM_018.jpg	99
606.848	0.603	602.8	test	Phase1	test/STIM_018.jpg	100
610.277	1.281	1280.8	test	Phase1	test/STIM_018.jpg	100
614.081	1.213	1213.3	test	Phase1	test/STIM_019.jpg	99
618.504	0.661	661.2	test	Phase1	test/STIM_019.jpg	100
623.059	1.004	1004.0	test	Phase1	test/STIM_019.jpg	100
627.323	1.227	1226.6	test	Phase1	test/STIM_020.jpg	99
631.571	1.26	1260.1	test	Phase1	test/STIM_020.jpg	99
636.281	1.021	1021.2	test	Phase1	test/STIM_020.jpg	99
640.014	0.813	812.6	test	Phase1	test/STIM_021.jpg	99
643.264	0.886	886.1	test	Phase1	test/STIM_021.jpg	100
646.175	1.268	1268.0	test	Phase1	test/STIM_021.jpg	99
651.393	0.692	692.2	test	Phase1	test/STIM_022.jpg	99
654.493	1.143	1143.2	test	Phase1	test/STIM_022.jpg	99
657.871	1.228	1227.7	test	Phase1	test/STIM_022.jpg	100
662.335	1.279	1278.8	test	Phase1	test/STIM_023.jpg	99
667.538	0.833	832.6	test	Phase1	test/STIM_023.jpg	100
670.755	0.942	942.1	test	Phase1	test/STIM_023.jpg	99
674.006	1.053	1052.6	test	Phase1	test/STIM_024.jpg	99
677.75	1.054	1054.1	test	Phase1	test/STIM_024.jpg	100
682.437	0.703	703.0	test	Phase1	test/STIM_024.jpg	100
685.275	0.73	729.5	test	Phase1	test/STIM_025.jpg	100
689.721	0.77	770.2	test	Phase1	test/STIM_025.jpg	100
693.572	0.742	741.6	test	Phase1	test/STIM_025.jpg	100
697.867	0.696	695.6	test	Phase1	test/STIM_026.jpg	100
702.118	0.829	828.9	test	Phase1	test/STIM_026.jpg	100
705.055	1.017	1017.3	test	Phase1	test/STIM_026.jpg	99
709.742	0.842	841.5	test	Phase1	test/STIM_027.jpg	100
714.273	0.63	629.6	test	Phase1	test/STIM_027.jpg	99
717.648	0.792	792.5	test	Phase1	test/STIM_027.jpg	99
721.949	0.639	639.1	test	Phase1	test/STIM_028.jpg	100
725.648	1.22	1220.0	test	Phase1	test/STIM_028.jpg	99
730.027	0.942	942.3	test	Phase1	test/STIM_028.jpg	100
733.89	0.738	737.5	test	Phase1	test/STIM_029.jpg	99
737.537	1.26	1260.0	test	Phase1	test/STIM_029.jpg	100
742.173	1.248	1247.6	test	Phase1	test/STIM_029.jpg	100
747.174	1.372	1371.5	study	Phase2	study/STIM_000.jpg	99
751.758	0.758	758.4	study	Phase2	study/STIM_000.jpg	99
754.984	1.148	1147.8	study	Phase2	study/STIM_000.jpg	100
758.964	0.901	900.7	study	Phase2	study/STIM_001.jpg	100
762.016	0.669	669.0	study	Phase2	study/STIM_001.jpg	99
766.633	1.323	1322.9	study	Phase2	study/STIM_001.jpg	100
771.727	0.854	854.5	study	Phase2	study/STIM_002.jpg	100
774.875	0.715	714.7	study	Phase2	study/STIM_002.jpg	99
778.742	1.176	1175.5	study	Phase2	study/STIM_002.jpg	100
783.884	1.04	1040.3	study	Phase2	study/STIM_003.jpg	100
787.865	1.173	1173.0	study	Phase2	study/STIM_003.jpg	99
791.966	1.036	1036.2	study	Phase2	study/STIM_003.jpg	100
796.303	1.505	1505.0	study	Phase2	study/STIM_004.jpg	100
801.594	1.08	1080.4	study	Phase2	study/STIM_004.jpg	100
806.593	0.954	954.2	study	Phase2	study/STIM_004.jpg	99
809.919	0.88	880.1	study	Phase2	study/STIM_005.jpg	100
814.035	1.359	1358.8	study	Phase2	study/STIM_005.jpg	100
817.648	0.599	599.4	study	Phase2	study/STIM_005.jpg	100
822.249	1.26	1259.7	study	Phase2	study/STIM_006.jpg	100
827.274	1.254	1254.5	study	Phase2	study/STIM_006.jpg	100
832.173	0.818	818.3	study	Phase2	study/STIM_006.jpg	99
835.451	1.069	1069.0	study	Phase2	study/STIM_007.jpg	100
839.107	0.771	771.1	study	Phase2	study/STIM_007.jpg	99
843.865	1.173	1173.1	study	Phase2	study/STIM_007.jpg	99
847.538	0.858	857.5	study	Phase2	study/STIM_008.jpg	100
851.506	1.115	1114.6	study	Phase2	study/STIM_008.jpg	99
855.991	0.812	812.1	study	Phase2	study/STIM_008.jpg	99
860.173	0.969	968.6	study	Phase2	study/STIM_009.jpg	99
863.899	0.85	850.3	study	Phase2	study/STIM_009.jpg	99
868.416	1.229	1229.1	study	Phase2	study/STIM_009.jpg	99
871.786	1.297	1296.7	study	Phase2	study/STIM_010.jpg	99
875.881	0.685	685.3	study	Phase2	study/STIM_010.jpg	100
880.158	1.193	1192.9	study	Phase2	study/STIM_010.jpg	99
884.033	0.787	787.3	study	Phase2	study/STIM_011.jpg	100
888.811	1.154	1154.5	study	Phase2	study/STIM_011.jpg	100
893.507	1.22	1219.5	study	Phase2	study/STIM_011.jpg	99
896.77	0.832	831.6	study	Phase2	study/STIM_012.jpg	99
900.36	1.414	1413.7	study	Phase2	study/STIM_012.jpg	99
905.699	0.745	744.6	study	Phase2	study/STIM_012.jpg	100
909.093	1.508	1508.0	study	Phase2	study/STIM_013.jpg	99
913.647	1.263	1263.3	study	Phase2	study/STIM_013.jpg	99
917.857	1.328	1328.2	study	Phase2	study/STIM_013.jpg	100
922.405	0.72	720.1	study	Phase2	study/STIM_014.jpg	100
926.428	0.955	954.9	study	Phase2	study/STIM_014.jpg	99
930.575	0.604	604.2	study	Phase2	study/STIM_014.jpg	100
934.416	0.833	833.4	study	Phase2	study/STIM_015.jpg	99
938.563	0.677	677.1	study	Phase2	study/STIM_015.jpg	100
941.545	1.026	1026.2	study	Phase2	study/STIM_015.jpg	99
946.023	0.889	889.2	study	Phase2	study/STIM_016.jpg	99
949.077	0.972	972.4	study	Phase2	study/STIM_016.jpg	100
952.493	0.786	785.8	study	Phase2	study/STIM_016.jpg	100
956.497	1.247	1247.1	study	Phase2	study/STIM_017.jpg	99
961.477	1.02	1020.2	study	Phase2	study/STIM_017.jpg	99
965.085	1.087	1087.3	study	Phase2	study/STIM_017.jpg	99
969.244	1.25	1249.6	study	Phase2	study/STIM_018.jpg	100
974.267	1.099	1099.2	study	Phase2	study/STIM_018.jpg	100
977.873	1.099	1099.0	study	Phase2	study/STIM_018.jpg	100
981.754	1.331	1330.6	study	Phase2	study/STIM_019.jpg	99
985.215	1.096	1095.7	study	Phase2	study/STIM_019.jpg	100
990.255	1.198	1198.2	study	Phase2	study/STIM_019.jpg	99
993.707	1.175	1175.1	study	Phase2	study/STIM_020.jpg	99
996.962	1.064	1064.0	study	Phase2	study/STIM_020.jpg	99
1000.237	1.191	1191.0	study	Phase2	study/STIM_020.jpg	100
1004.952	1.367	1367.2	study	Phase2	study/STIM_021.jpg	99
1008.858	0.8	799.8	study	Phase2	study/STIM_021.jpg	99
1013.561	1.128	1127.8	study	Phase2	study/STIM_021.jpg	99
1017.976	1.001	1000.8	study	Phase2	study/STIM_022.jpg	100
1021.136	0.66	659.5	study	Phase2	study/STIM_022.jpg	100
1024.678	1.006	1005.5	study	Phase2	study/STIM_022.jpg	100
1028.247	1.075	1075.1	study	Phase2	study/STIM_023.jpg	100
1032.108	1.285	1285.3	study	Phase2	study/STIM_023.jpg	99
1036.612	1.261	1260.6	study	Phase2	study/STIM_023.jpg	100
1041.665	0.902	901.7	study	Phase2	study/STIM_024.jpg	100
1045.096	0.856	855.6	study	Phase2	study/STIM_024.jpg	100
1049.258	0.656	655.6	study	Phase2	study/STIM_024.jpg	99
1052.23	1.205	1205.4	study	Phase2	study/STIM_025.jpg	100
1057.165	1.38	1380.5	study	Phase2	study/STIM_025.jpg	99
1061.178	0.774	773.5	study	Phase2	study/STIM_025.jpg	100
1065.787	1.159	1158.7	study	Phase2	study/STIM_026.jpg	99
1069.936	0.657	657.4	study	Phase2	study/STIM_026.jpg	100
1073.675	1.129	1129.3	study	Phase2	study/STIM_026.jpg	99
1078.258	1.357	1357.3	study	Phase2	study/STIM_027.jpg	100
1083.12	0.955	954.9	study	Phase2	study/STIM_027.jpg	100
1087.611	1.332	1332.3	study	Phase2	study/STIM_027.jpg	100
1091.777	0.814	813.7	study	Phase2	study/STIM_028.jpg	100
1095.985	1.362	1361.8	study	Phase2	study/STIM_028.jpg	100
1099.718	0.807	806.8	study	Phase2	study/STIM_028.jpg	100
1103.113	0.871	870.9	study	Phase2	study/STIM_029.jpg	99
1106.007	1.062	1062.2	study	Phase2	study/STIM_029.jpg	99
1109.611	1.043	1043.4	study	Phase2	study/STIM_029.jpg	99
1113.974	0.904	904.2	test	Phase2	test/STIM_000.jpg	99
1118.558	1.121	1121.1	test	Phase2	test/STIM_000.jpg	100
1121.895	0.645	644.7	test	Phase2	test/STIM_000.jpg	99
1125.711	0.631	630.7	test	Phase2	test/STIM_001.jpg	99
1129.853	0.799	799.0	test	Phase2	test/STIM_001.jpg	100
1134.15	0.765	765.4	test	Phase2	test/STIM_001.jpg	100
1138.418	0.871	870.6	test	Phase2	test/STIM_002.jpg	100
1142.339	1.234	1234.3	test	Phase2	test/STIM_002.jpg	100
1145.929	1.069	1068.6	test	Phase2	test/STIM_002.jpg	99
1150.19	1.104	1104.2	test	Phase2	test/STIM_003.jpg	100
1154.932	1.096	1096.0	test	Phase2	test/STIM_003.jpg	100
1158.339	1.175	1175.0	test	Phase2	test/STIM_003.jpg	99
1161.798	0.934	933.7	test	Phase2	test/STIM_004.jpg	100
1166.249	1.096	1095.6	test	Phase2	test/STIM_004.jpg	100
1171.108	0.72	720.4	test	Phase2	test/STIM_004.jpg	99
1174.749	0.823	822.6	test	Phase2	test/STIM_005.jpg	100
1177.914	1.054	1054.1	test	Phase2	test/STIM_005.jpg	99
1181.222	0.673	673.0	test	Phase2	test/STIM_005.jpg	99
1185.388	1.089	1088.8	test	Phase2	test/STIM_006.jpg	100
1189.607	0.654	653.6	test	Phase2	test/STIM_006.jpg	100
1194.08	1.079	1079.4	test	Phase2	test/STIM_006.jpg	100
1198.792	1.17	1169.8	test	Phase2	test/STIM_007.jpg	99
1202.584	0.746	746.0	test	Phase2	test/STIM_007.jpg	99
1206.594	0.715	714.7	test	Phase2	test/STIM_007.jpg	99
1210.251	0.756	756.5	test	Phase2	test/STIM_008.jpg	99
1214.86	1.114	1114.0	test	Phase2	test/STIM_008.jpg	99
1219.149	0.934	933.5	test	Phase2	test/STIM_008.jpg	100
1223.88	0.767	767.3	test	Phase2	test/STIM_009.jpg	99
1228.154	0.717	716.7	test	Phase2	test/STIM_009.jpg	100
1230.934	0.69	689.9	test	Phase2	test/STIM_009.jpg	100
1233.738	1.051	1050.6	test	Phase2	test/STIM_010.jpg	100
1237.545	1.202	1201.7	test	Phase2	test/STIM_010.jpg	99
1241.408	0.699	699.4	test	Phase2	test/STIM_010.jpg	100
1244.953	1.02	1020.4	test	Phase2	test/STIM_011.jpg	100
1249.074	1.03	1030.3	test	Phase2	test/STIM_011.jpg	100
1252.711	0.844	844.1	test	Phase2	test/STIM_011.jpg	99
1256.785	0.719	718.7	test	Phase2	test/STIM_012.jpg	99
1260.446	0.886	885.9	test	Phase2	test/STIM_012.jpg	100
1265.188	1.124	1123.8	test	Phase2	test/STIM_012.jpg	100
1269.682	1.218	1217.5	test	Phase2	test/STIM_013.jpg	99
1273.411	0.971	971.4	test	Phase2	test/STIM_013.jpg	99
1276.463	1.278	1277.7	test	Phase2	test/STIM_013.jpg	99
1280.47	0.798	798.0	test	Phase2	test/STIM_014.jpg	100
1284.859	1.258	1257.9	test	Phase2	test/STIM_014.jpg	99
1290.032	1.167	1166.6	test	Phase2	test/STIM_014.jpg	100
1294.557	0.897	896.7	test	Phase2	test/STIM_015.jpg	99
1297.577	1.078	1078.0	test	Phase2	test/STIM_015.jpg	100
1302.299	1.167	1167.3	test	Phase2	test/STIM_015.jpg	100
1306.124	0.929	928.8	test	Phase2	test/STIM_016.jpg	99
1309.635	1.006	1005.9	test	Phase2	test/STIM_016.jpg	99
1312.761	0.597	596.6	test	Phase2	test/STIM_016.jpg	99
1316.947	1.262	1262.0	test	Phase2	test/STIM_017.jpg	99
1321.246	0.697	696.7	test	Phase2	test/STIM_017.jpg	100
1324.238	1.019	1019.0	test	Phase2	test/STIM_017.jpg	100
1327.657	1.125	1125.4	test	Phase2	test/STIM_018.jpg	99
1331.543	0.672	671.7	test	Phase2	test/STIM_018.jpg	99
1334.568	0.854	853.9	test	Phase2	test/STIM_018.jpg	99
1338.03	1.05	1050.5	test	Phase2	test/STIM_019.jpg	99
1341.891	0.728	728.3	test	Phase2	test/STIM_019.jpg	100
1346.334	0.992	991.5	test	Phase2	test/STIM_019.jpg	100
1349.633	0.907	906.9	test	Phase2	test/STIM_020.jpg	99
1354.434	1.208	1208.3	test	Phase2	test/STIM_020.jpg	100
1358.687	0.751	751.0	test	Phase2	test/STIM_020.jpg	100
1363.198	0.961	960.9	test	Phase2	test/STIM_021.jpg	100
1366.583	1.15	1150.2	test	Phase2	test/STIM_021.jpg	99
1370.679	0.746	745.7	test	Phase2	test/STIM_021.jpg	100
1375.351	0.956	955.8	test	Phase2	test/STIM_022.jpg	99
1379.358	1.135	1135.4	test	Phase2	test/STIM_022.jpg	99
1382.861	1.001	1000.8	test	Phase2	test/STIM_022.jpg	100
1387.296	1.207	1206.9	test	Phase2	test/STIM_023.jpg	99
1390.664	1.26	1259.8	test	Phase2	test/STIM_023.jpg	99
1395.181	1.057	1057.2	test	Phase2	test/STIM_023.jpg	99
1398.658	1.119	1118.9	test	Phase2	test/STIM_024.jpg	99
1402.893	0.934	933.9	test	Phase2	test/STIM_024.jpg	100
1406.003	0.83	830.5	test	Phase2	test/STIM_024.jpg	100
1410.748	1.139	1138.6	test	Phase2	test/STIM_025.jpg	100
1414.931	0.711	711.0	test	Phase2	test/STIM_025.jpg	99
1418.399	0.669	669.0	test	Phase2	test/STIM_025.jpg	99
1422.821	1.211	1210.6	test	Phase2	test/STIM_026.jpg	100
1427.815	0.783	783.2	test	Phase2	test/STIM_026.jpg	100
1432.301	1.194	1194.3	test	Phase2	test/STIM_026.jpg	99
1436.654	1.159	1159.1	test	Phase2	test/STIM_027.jpg	100
1441.604	0.978	978.4	test	Phase2	test/STIM_027.jpg	100
1446.583	0.676	675.7	test	Phase2	test/STIM_027.jpg	99
1450.264	0.864	863.8	test	Phase2	test/STIM_028.jpg	99
1453.247	0.946	946.3	test	Phase2	test/STIM_028.jpg	99
1456.629	0.891	890.8	test	Phase2	test/STIM_028.jpg	99
1460.384	0.844	843.6	test	Phase2	test/STIM_029.jpg	99
1464.274	1.033	1033.4	test	Phase2	test/STIM_029.jpg	100
1468.221	1.162	1162.1	test	Phase2	test/STIM_029.jpg	100
1472.07	1.012	1011.8	study	Phase3	study/STIM_000.jpg	100
1476.207	0.594	594.4	study	Phase3	study/STIM_000.jpg	100
1479.377	0.751	751.3	study	Phase3	study/STIM_000.jpg	100
1482.171	1.08	1079.6	study	Phase3	study/STIM_001.jpg	100
1485.88	0.922	921.5	study	Phase3	study/STIM_001.jpg	99
1490.579	0.614	614.5	study	Phase3	study/STIM_001.jpg	99
1494.898	0.983	982.6	study	Phase3	study/STIM_002.jpg	99
1498.73	1.046	1045.6	study	Phase3	study/STIM_002.jpg	99
1503.571	0.793	792.8	study	Phase3	study/STIM_002.jpg	99
1506.378	0.574	574.3	study	Phase3	study/STIM_003.jpg	100
1509.356	0.597	597.3	study	Phase3	study/STIM_003.jpg	100
1512.811	1.062	1062.2	study	Phase3	study/STIM_003.jpg	99
1516.357	0.904	904.4	study	Phase3	study/STIM_004.jpg	99
1520.9	0.779	779.4	study	Phase3	study/STIM_004.jpg	99
1525.103	0.598	598.5	study	Phase3	study/STIM_004.jpg	99
1528.044	1.06	1060.3	study	Phase3	study/STIM_005.jpg	100
1532.136	0.62	619.9	study	Phase3	study/STIM_005.jpg	100
1535.449	1.185	1185.4	study	Phase3	study/STIM_005.jpg	99
1538.657	0.877	877.3	study	Phase3	study/STIM_006.jpg	100
1543.36	0.915	914.9	study	Phase3	study/STIM_006.jpg	100
1546.503	0.821	821.4	study	Phase3	study/STIM_006.jpg	100
1550.717	1.157	1157.2	study	Phase3	study/STIM_007.jpg	99
1553.971	1.231	1231.3	study	Phase3	study/STIM_007.jpg	99
1559.108	0.811	811.0	study	Phase3	study/STIM_007.jpg	100
1563.305	1.236	1235.7	study	Phase3	study/STIM_008.jpg	99
1566.873	0.681	681.0	study	Phase3	study/STIM_008.jpg	99
1570.835	1.068	1068.3	study	Phase3	study/STIM_008.jpg	99
1575.83	0.998	998.4	study	Phase3	study/STIM_009.jpg	99
1579.917	0.843	842.7	study	Phase3	study/STIM_009.jpg	99
1583.932	1.157	1156.7	study	Phase3	study/STIM_009.jpg	100
1588.449	0.936	936.2	study	Phase3	study/STIM_010.jpg	100
1591.473	0.695	694.6	study	Phase3	study/STIM_010.jpg	99
1594.684	0.767	766.8	study	Phase3	study/STIM_010.jpg	99
1598.298	0.624	623.8	study	Phase3	study/STIM_011.jpg	99
1602.275	0.928	928.0	study	Phase3	study/STIM_011.jpg	100
1606.48	1.13	1129.6	study	Phase3	study/STIM_011.jpg	100
1610.902	1.217	1216.9	study	Phase3	study/STIM_012.jpg	99
1614.981	1.003	1002.6	study	Phase3	study/STIM_012.jpg	99
1619.114	1.236	1236.1	study	Phase3	study/STIM_012.jpg	100
1624.216	0.838	837.8	study	Phase3	study/STIM_013.jpg	100
1628.219	0.584	584.5	study	Phase3	study/STIM_013.jpg	100
1631.358	0.578	577.7	study	Phase3	study/STIM_013.jpg	100
1634.492	1.108	1108.0	study	Phase3	study/STIM_014.jpg	99
1637.999	1.231	1231.1	study	Phase3	study/STIM_014.jpg	99
1642.443	0.978	978.5	study	Phase3	study/STIM_014.jpg	100
1647.26	1.023	1023.2	study	Phase3	study/STIM_015.jpg	100
1652.016	0.681	680.8	study	Phase3	study/STIM_015.jpg	100
1656.604	0.989	989.2	study	Phase3	study/STIM_015.jpg	100
1660.909	1.138	1137.7	study	Phase3	study/STIM_016.jpg	100
1664.603	0.673	672.9	study	Phase3	study/STIM_016.jpg	100
1668.685	0.713	712.8	study	Phase3	study/STIM_016.jpg	100
1672.09	1.228	1227.5	study	Phase3	study/STIM_017.jpg	99
1676.131	0.689	688.8	study	Phase3	study/STIM_017.jpg	99
1679.165	0.629	628.9	study	Phase3	study/STIM_017.jpg	99
1683.795	0.669	669.1	study	Phase3	study/STIM_018.jpg	100
1687.129	0.876	875.6	study	Phase3	study/STIM_018.jpg	100
1690.615	0.695	694.6	study	Phase3	study/STIM_018.jpg	100
1694.741	0.996	995.8	study	Phase3	study/STIM_019.jpg	99
1699.564	1.228	1228.0	study	Phase3	study/STIM_019.jpg	99
1703.248	0.92	919.9	study	Phase3	study/STIM_019.jpg	100
1707.049	0.959	959.0	study	Phase3	study/STIM_020.jpg	99
1710.678	0.932	931.6	study	Phase3	study/STIM_020.jpg	100
1714.03	1.01	1009.6	study	Phase3	study/STIM_020.jpg	100
1717.181	0.938	938.1	study	Phase3	study/STIM_021.jpg	100
1720.172	0.674	674.2	study	Phase3	study/STIM_021.jpg	100
1724.259	0.696	695.6	study	Phase3	study/STIM_021.jpg	99
1727.326	0.981	980.9	study	Phase3	study/STIM_022.jpg	99
1731.623	1.246	1245.7	study	Phase3	study/STIM_022.jpg	99
1734.888	1.17	1169.6	study	Phase3	study/STIM_022.jpg	99
1739.974	0.751	750.8	study	Phase3	study/STIM_023.jpg	99
1742.914	0.633	633.1	study	Phase3	study/STIM_023.jpg	99
1747.441	0.979	979.0	study	Phase3	study/STIM_023.jpg	99
1751.953	0.738	737.6	study	Phase3	study/STIM_024.jpg	99
1754.701	0.799	798.6	study	Phase3	study/STIM_024.jpg	100
1757.631	0.68	679.8	study	Phase3	study/STIM_024.jpg	100
1762.146	0.652	652.5	study	Phase3	study/STIM_025.jpg	99
1765.991	0.932	932.3	study	Phase3	study/STIM_025.jpg	100
1769.569	0.591	590.8	study	Phase3	study/STIM_025.jpg	100
1772.542	0.945	944.9	study	Phase3	study/STIM_026.jpg	100
1776.559	0.856	856.5	study	Phase3	study/STIM_026.jpg	100
1781.106	0.707	707.4	study	Phase3	study/STIM_026.jpg	99
1785.335	0.846	846.0	study	Phase3	study/STIM_027.jpg	99
1789.129	0.62	619.8	study	Phase3	study/STIM_027.jpg	99
1791.978	0.685	685.0	study	Phase3	study/STIM_027.jpg	99
1796.367	0.719	718.6	study	Phase3	study/STIM_028.jpg	100
1801.002	1.221	1220.6	study	Phase3	study/STIM_028.jpg	100
1804.961	0.606	605.6	study	Phase3	study/STIM_028.jpg	99
1808.689	1.145	1145.0	study	Phase3	study/STIM_029.jpg	99
1812.86	0.795	794.7	study	Phase3	study/STIM_029.jpg	100
1815.672	0.908	908.5	study	Phase3	study/STIM_029.jpg	100
1820.238	0.945	945.0	test	Phase3	test/STIM_000.jpg	99
1824.447	1.178	1178.0	test	Phase3	test/STIM_000.jpg	99
1829.346	1.063	1063.3	test	Phase3	test/STIM_000.jpg	99
1832.798	1.238	1237.8	test	Phase3	test/STIM_001.jpg	100
1836.972	0.812	812.3	test	Phase3	test/STIM_001.jpg	100
1841.471	0.845	844.9	test	Phase3	test/STIM_001.jpg	100
1846.287	1.139	1138.8	test	Phase3	test/STIM_002.jpg	100
1850.313	0.757	757.3	test	Phase3	test/STIM_002.jpg	99
1854.509	0.671	670.8	test	Phase3	test/STIM_002.jpg	99
1857.279	0.895	894.8	test	Phase3	test/STIM_003.jpg	99
1860.231	1.063	1063.4	test	Phase3	test/STIM_003.jpg	100
1863.777	1.076	1076.1	test	Phase3	test/STIM_003.jpg	100
1868.788	0.758	757.9	test	Phase3	test/STIM_004.jpg	99
1871.849	1.082	1082.0	test	Phase3	test/STIM_004.jpg	99
1876.288	0.828	828.1	test	Phase3	test/STIM_004.jpg	99
1880.285	0.93	930.5	test	Phase3	test/STIM_005.jpg	100
1884.107	0.83	829.8	test	Phase3	test/STIM_005.jpg	100
1887.367	0.779	779.2	test	Phase3	test/STIM_005.jpg	100
1890.846	0.62	620.2	test	Phase3	test/STIM_006.jpg	99
1894.965	0.821	820.7	test	Phase3	test/STIM_006.jpg	99
1899.227	0.998	998.1	test	Phase3	test/STIM_006.jpg	100
1902.277	1.108	1107.5	test	Phase3	test/STIM_007.jpg	99
1907.118	0.711	711.3	test	Phase3	test/STIM_007.jpg	100
1910.181	1.012	1012.1	test	Phase3	test/STIM_007.jpg	99
1913.836	0.969	969.3	test	Phase3	test/STIM_008.jpg	99
1917.656	1.188	1187.5	test	Phase3	test/STIM_008.jpg	100
1920.983	1.026	1025.9	test	Phase3	test/STIM_008.jpg	99
1925.133	1.259	1258.8	test	Phase3	test/STIM_009.jpg	100
1929.212	0.797	797.2	test	Phase3	test/STIM_009.jpg	99
1933.081	0.674	674.1	test	Phase3	test/STIM_009.jpg	100
1935.764	0.82	819.6	test	Phase3	test/STIM_010.jpg	99
1940.533	1.1	1099.5	test	Phase3	test/STIM_010.jpg	99
1943.828	0.954	953.5	test	Phase3	test/STIM_010.jpg	99
1947.862	1.175	1174.6	test	Phase3	test/STIM_011.jpg	100
1952.315	0.97	970.3	test	Phase3	test/STIM_011.jpg	100
1957.157	0.951	950.6	test	Phase3	test/STIM_011.jpg	100
1961.035	0.724	724.3	test	Phase3	test/STIM_012.jpg	99
1964.766	0.666	666.5	test	Phase3	test/STIM_012.jpg	100
1968.397	1.211	1210.8	test	Phase3	test/STIM_012.jpg	100
1972.982	0.83	830.1	test	Phase3	test/STIM_013.jpg	99
1976.714	1.052	1052.2	test	Phase3	test/STIM_013.jpg	100
1980.762	0.8	800.2	test	Phase3	test/STIM_013.jpg	99
1985.491	0.722	721.6	test	Phase3	test/STIM_014.jpg	100
1989.239	1.194	1193.7	test	Phase3	test/STIM_014.jpg	100
1993.93	1.189	1189.2	test	Phase3	test/STIM_014.jpg	100
1997.915	0.842	842.3	test	Phase3	test/STIM_015.jpg	99
2000.854	0.809	808.9	test	Phase3	test/STIM_015.jpg	99
2004.801	0.898	897.6	test	Phase3	test/STIM_015.jpg	100
2008.101	0.894	893.7	test	Phase3	test/STIM_016.jpg	99
2012.805	0.776	775.9	test	Phase3	test/STIM_016.jpg	99
2016.876	0.609	608.9	test	Phase3	test/STIM_016.jpg	99
2019.561	1.287	1287.0	test	Phase3	test/STIM_017.jpg	99
2023.454	0.774	773.5	test	Phase3	test/STIM_017.jpg	100
2026.947	0.853	853.2	test	Phase3	test/STIM_017.jpg	99
2031.05	0.709	708.8	test	Phase3	test/STIM_018.jpg	99
2035.389	0.925	925.4	test	Phase3	test/STIM_018.jpg	100
2038.817	0.607	607.0	test	Phase3	test/STIM_018.jpg	99
2042.345	0.988	988.4	test	Phase3	test/STIM_019.jpg	99
2047.282	1.035	1035.1	test	Phase3	test/STIM_019.jpg	100
2050.494	0.706	706.4	test	Phase3	test/STIM_019.jpg	99
2054.069	0.904	904.3	test	Phase3	test/STIM_020.jpg	99
2058.196	0.723	723.3	test	Phase3	test/STIM_020.jpg	99
2061.273	0.639	639.1	test	Phase3	test/STIM_020.jpg	100
2064.38	1.212	1211.8	test	Phase3	test/STIM_021.jpg	100
2067.956	0.976	975.6	test	Phase3	test/STIM_021.jpg	100
2071.032	0.6	599.9	test	Phase3	test/STIM_021.jpg	100
2074.954	0.848	848.4	test	Phase3	test/STIM_022.jpg	99
2078.343	0.834	834.1	test	Phase3	test/STIM_022.jpg	100
2082.95	0.723	722.6	test	Phase3	test/STIM_022.jpg	99
2085.922	0.744	744.0	test	Phase3	test/STIM_023.jpg	99
2088.954	1.231	1231.4	test	Phase3	test/STIM_023.jpg	100
2092.352	1.261	1260.8	test	Phase3	test/STIM_023.jpg	100
2097.133	1.243	1242.6	test	Phase3	test/STIM_024.jpg	99
2102.059	1.074	1073.7	test	Phase3	test/STIM_024.jpg	99
2106.736	0.835	835.2	test	Phase3	test/STIM_024.jpg	99
2110.103	0.823	822.8	test	Phase3	test/STIM_025.jpg	100
2114.804	0.797	796.8	test	Phase3	test/STIM_025.jpg	99
2118.39	1.261	1260.9	test	Phase3	test/STIM_025.jpg	99
2123.219	1.188	1188.5	test	Phase3	test/STIM_026.jpg	99
2127.174	1.114	1113.7	test	Phase3	test/STIM_026.jpg	99
2131.807	0.752	752.5	test	Phase3	test/STIM_026.jpg	99
2135.342	0.995	994.7	test	Phase3	test/STIM_027.jpg	99
2138.722	1.139	1139.3	test	Phase3	test/STIM_027.jpg	99
2143.658	0.714	714.2	test	Phase3	test/STIM_027.jpg	100
2148.044	0.608	608.2	test	Phase3	test/STIM_028.jpg	99
2152.638	0.789	789.4	test	Phase3	test/STIM_028.jpg	100
2155.8	0.845	845.4	test	Phase3	test/STIM_028.jpg	99
2159.968	0.998	998.1	test	Phase3	test/STIM_029.jpg	99
2164.662	0.758	757.9	test	Phase3	test/STIM_029.jpg	99
2167.737	1.008	1008.4	test	Phase3	test/STIM_029.jpg	99
