onset	duration	accuracy	trial_type	learning_stage	stimulus
0.0	1.034	correct	2back	Block1	2back/STIM_000.jpg
4.203	1.095	correct	2back	Block1	2back/STIM_000.jpg
7.372	1.05	correct	2back	Block1	2back/STIM_000.jpg
11.886	1.032	correct	2back	Block1	2back/STIM_001.jpg
16.554	1.112	correct	2back	Block1	2back/STIM_001.jpg
20.729	0.678	correct	2back	Block1	2back/STIM_001.jpg
25.212	1.343	correct	2back	Block1	2back/STIM_002.jpg
29.536	0.56	correct	2back	Block1	2back/STIM_002.jpg
32.929	0.842	correct	2back	Block1	2back/STIM_002.jpg
36.695	1.352	incorrect	2back	Block1	2back/STIM_003.jpg
41.926	0.856	correct	2back	Block1	2back/STIM_003.jpg
44.824	0.768	correct	2back	Block1	2back/STIM_003.jpg
47.872	1.201	incorrect	2back	Block1	2back/STIM_004.jpg
52.236	0.808	correct	2back	Block1	2back/STIM_004.jpg
56.674	0.786	correct	2back	Block1	2back/STIM_004.jpg
61.136	0.892	correct	2back	Block1	2back/STIM_005.jpg
65.037	1.04	incorrect	2back	Block1	2back/STIM_005.jpg
68.539	0.738	correct	2back	Block1	2back/STIM_005.jpg
72.383	0.634	correct	2back	Block1	2back/STIM_006.jpg
75.086	0.638	correct	2back	Block1	2back/STIM_006.jpg
79.262	0.697	correct	2back	Block1	2back/STIM_006.jpg
82.138	0.883	correct	2back	Block1	2back/STIM_007.jpg
86.617	1.167	correct	2back	Block1	2back/STIM_007.jpg
91.107	1.23	correct	2back	Block1	2back/STIM_007.jpg
95.618	1.296	correct	2back	Block1	2back/STIM_008.jpg
99.021	1.126	correct	2back	Block1	2back/STIM_008.jpg
102.731	0.61	correct	2back	Block1	2back/STIM_008.jpg
106.039	0.953	correct	2back	Block1	2back/STIM_009.jpg
110.723	1.17	correct	2back	Block1	2back/STIM_009.jpg
115.109	1.067	correct	2back	Block1	2back/STIM_009.jpg
119.121	1.069	correct	2back	Block1	2back/STIM_010.jpg
122.556	0.862	incorrect	2back	Block1	2back/STIM_010.jpg
126.589	1.034	correct	2back	Block1	2back/STIM_010.jpg
130.714	1.229	correct	2back	Block1	2back/STIM_011.jpg
135.407	1.03	correct	2back	Block1	2back/STIM_011.jpg
139.243	0.652	correct	2back	Block1	2back/STIM_011.jpg
141.999	1.301	correct	2back	Block1	2back/STIM_012.jpg
145.343	0.935	correct	2back	Block1	2back/STIM_012.jpg
149.189	0.837	correct	2back	Block1	2back/STIM_012.jpg
152.416	1.185	correct	2back	Block1	2back/STIM_013.jpg
157.116	0.788	correct	2back	Block1	2back/STIM_013.jpg
161.63	0.758	correct	2back	Block1	2back/STIM_013.jpg
165.881	1.268	incorrect	2back	Block1	2back/STIM_014.jpg
170.729	0.583	correct	2back	Block1	2back/STIM_014.jpg
173.668	1.106	incorrect	2back	Block1	2back/STIM_014.jpg
178.727	0.824	correct	2back	Block1	2back/STIM_015.jpg
183.563	1.167	incorrect	2back	Block1	2back/STIM_015.jpg
188.1	0.636	correct	2back	Block1	2back/STIM_015.jpg
192.002	0.875	correct	2back	Block1	2back/STIM_016.jpg
196.368	1.252	correct	2back	Block1	2back/STIM_016.jpg
201.038	0.599	correct	2back	Block1	2back/STIM_016.jpg
205.432	0.977	correct	2back	Block1	2back/STIM_017.jpg
208.893	0.719	correct	2back	Block1	2back/STIM_017.jpg
212.013	1.197	correct	2back	Block1	2back/STIM_017.jpg
216.356	1.351	incorrect	2back	Block1	2back/STIM_018.jpg
221.041	1.035	correct	2back	Block1	2back/STIM_018.jpg
224.86	0.718	correct	2back	Block1	2back/STIM_018.jpg
228.024	1.329	correct	2back	Block1	2back/STIM_019.jpg
231.647	0.817	correct	2back	Block1	2back/STIM_019.jpg
236.367	1.22	correct	2back	Block1	2back/STIM_019.jpg
241.476	1.142	correct	2back	Block1	2back/STIM_020.jpg
244.672	1.098	incorrect	2back	Block1	2back/STIM_020.jpg
247.912	1.053	correct	2back	Block1	2back/STIM_020.jpg
252.016	1.109	correct	2back	Block1	2back/STIM_021.jpg
256.053	1.168	correct	2back	Block1	2back/STIM_021.jpg
259.547	0.913	correct	2back	Block1	2back/STIM_021.jpg
263.715	0.796	correct	2back	Block1	2back/STIM_022.jpg
266.927	0.839	correct	2back	Block1	2back/STIM_022.jpg
270.839	0.679	correct	2back	Block1	2back/STIM_022.jpg
275.144	1.048	correct	2back	Block1	2back/STIM_023.jpg
279.15	1.192	correct	2back	Block1	2back/STIM_023.jpg
282.593	1.004	correct	2back	Block1	2back/STIM_023.jpg
287.064	0.915	incorrect	2back	Block1	2back/STIM_024.jpg
291.721	0.998	correct	2back	Block1	2back/STIM_024.jpg
295.508	0.591	correct	2back	Block1	2back/STIM_024.jpg
299.54	1.223	incorrect	2back	Block1	2back/STIM_025.jpg
304.508	1.246	correct	2back	Block1	2back/STIM_025.jpg
309.155	0.883	incorrect	2back	Block1	2back/STIM_025.jpg
312.077	0.836	incorrect	2back	Block1	2back/STIM_026.jpg
315.357	0.568	correct	2back	Block1	2back/STIM_026.jpg
319.877	0.666	correct	2back	Block1	2back/STIM_026.jpg
323.123	0.627	correct	2back	Block1	2back/STIM_027.jpg
326.46	1.13	correct	2back	Block1	2back/STIM_027.jpg
331.113	0.838	correct	2back	Block1	2back/STIM_027.jpg
334.741	1.334	correct	2back	Block1	2back/STIM_028.jpg
339.549	1.024	incorrect	2back	Block1	2back/STIM_028.jpg
343.818	1.136	correct	2back	Block1	2back/STIM_028.jpg
347.266	1.192	incorrect	2back	Block1	2back/STIM_029.jpg
350.665	0.617	correct	2back	Block1	2back/STIM_029.jpg
353.925	1.181	incorrect	2back	Block1	2back/STIM_029.jpg
357.969	1.354	correct	2back	Block1	2back/STIM_030.jpg
362.681	1.087	correct	2back	Block1	2back/STIM_030.jpg
366.456	0.988	correct	2back	Block1	2back/STIM_030.jpg
369.957	1.264	incorrect	2back	Block1	2back/STIM_031.jpg
373.406	0.711	correct	2back	Block1	2back/STIM_031.jpg
377.77	0.738	correct	2back	Block1	2back/STIM_031.jpg
380.844	1.031	correct	2back	Block1	2back/STIM_032.jpg
385.072	0.575	correct	2back	Block1	2back/STIM_032.jpg
387.966	1.022	correct	2back	Block1	2back/STIM_032.jpg
393.004	1.247	correct	2back	Block1	2back/STIM_033.jpg
397.212	0.766	correct	2back	Block1	2back/STIM_033.jpg
400.449	1.145	incorrect	2back	Block1	2back/STIM_033.jpg
405.397	1.2	correct	2back	Block1	2back/STIM_034.jpg
408.831	1.122	correct	2back	Block1	2back/STIM_034.jpg
412.371	0.997	correct	2back	Block1	2back/STIM_034.jpg
417.328	1.135	incorrect	2back	Block1	2back/STIM_035.jpg
421.928	0.629	correct	2back	Block1	2back/STIM_035.jpg
424.861	0.784	correct	2back	Block1	2back/STIM_035.jpg
427.809	1.245	correct	2back	Block1	2back/STIM_036.jpg
432.381	0.796	correct	2back	Block1	2back/STIM_036.jpg
435.729	0.646	correct	2back	Block1	2back/STIM_036.jpg
440.083	1.326	correct	2back	Block1	2back/STIM_037.jpg
444.538	0.572	incorrect	2back	Block1	2back/STIM_037.jpg
448.419	1.112	correct	2back	Block1	2back/STIM_037.jpg
453.488	0.738	correct	2back	Block1	2back/STIM_038.jpg
458.091	0.8	incorrect	2back	Block1	2back/STIM_038.jpg
462.893	0.951	incorrect	2back	Block1	2back/STIM_038.jpg
466.903	0.764	correct	2back	Block1	2back/STIM_039.jpg
471.542	1.188	correct	2back	Block1	2back/STIM_039.jpg
475.37	0.749	correct	2back	Block1	2back/STIM_039.jpg
478.661	0.7	correct	0back	Block1	0back/STIM_000.jpg
481.941	0.596	correct	0back	Block1	0back/STIM_000.jpg
484.556	0.395	correct	0back	Block1	0back/STIM_000.jpg
487.278	0.391	correct	0back	Block1	0back/STIM_001.jpg
490.171	0.426	correct	0back	Block1	0back/STIM_001.jpg
494.211	0.479	correct	0back	Block1	0back/STIM_001.jpg
497.513	0.689	correct	0back	Block1	0back/STIM_002.jpg
502.11	0.393	correct	0back	Block1	0back/STIM_002.jpg
504.634	0.495	correct	0back	Block1	0back/STIM_002.jpg
509.04	0.591	correct	0back	Block1	0back/STIM_003.jpg
513.122	0.578	correct	0back	Block1	0back/STIM_003.jpg
516.915	0.702	correct	0back	Block1	0back/STIM_003.jpg
520.366	0.465	correct	0back	Block1	0back/STIM_004.jpg
523.07	0.406	incorrect	0back	Block1	0back/STIM_004.jpg
527.03	0.559	correct	0back	Block1	0back/STIM_004.jpg
530.822	0.473	correct	0back	Block1	0back/STIM_005.jpg
534.715	0.439	correct	0back	Block1	0back/STIM_005.jpg
537.924	0.589	correct	0back	Block1	0back/STIM_005.jpg
540.835	0.508	correct	0back	Block1	0back/STIM_006.jpg
545.322	0.418	correct	0back	Block1	0back/STIM_006.jpg
549.451	0.534	correct	0back	Block1	0back/STIM_006.jpg
552.088	0.593	correct	0back	Block1	0back/STIM_007.jpg
556.509	0.481	correct	0back	Block1	0back/STIM_007.jpg
559.04	0.464	correct	0back	Block1	0back/STIM_007.jpg
562.394	0.693	correct	0back	Block1	0back/STIM_008.jpg
566.424	0.511	correct	0back	Block1	0back/STIM_008.jpg
570.467	0.423	correct	0back	Block1	0back/STIM_008.jpg
574.079	0.7	incorrect	0back	Block1	0back/STIM_009.jpg
576.831	0.7	correct	0back	Block1	0back/STIM_009.jpg
581.073	0.433	correct	0back	Block1	0back/STIM_009.jpg
585.486	0.718	correct	0back	Block1	0back/STIM_010.jpg
588.55	0.706	correct	0back	Block1	0back/STIM_010.jpg
592.608	0.61	correct	0back	Block1	0back/STIM_010.jpg
596.537	0.756	correct	0back	Block1	0back/STIM_011.jpg
599.346	0.761	correct	0back	Block1	0back/STIM_011.jpg
603.912	0.543	correct	0back	Block1	0back/STIM_011.jpg
607.913	0.748	correct	0back	Block1	0back/STIM_012.jpg
612.489	0.47	correct	0back	Block1	0back/STIM_012.jpg
616.317	0.494	correct	0back	Block1	0back/STIM_012.jpg
619.389	0.429	correct	0back	Block1	0back/STIM_013.jpg
622.112	0.57	correct	0back	Block1	0back/STIM_013.jpg
626.388	0.722	correct	0back	Block1	0back/STIM_013.jpg
630.021	0.67	correct	0back	Block1	0back/STIM_014.jpg
633.022	0.622	correct	0back	Block1	0back/STIM_014.jpg
637.43	0.503	correct	0back	Block1	0back/STIM_014.jpg
640.592	0.391	correct	0back	Block1	0back/STIM_015.jpg
642.994	0.511	correct	0back	Block1	0back/STIM_015.jpg
646.961	0.468	incorrect	0back	Block1	0back/STIM_015.jpg
650.283	0.538	correct	0back	Block1	0back/STIM_016.jpg
653.443	0.491	correct	0back	Block1	0back/STIM_016.jpg
656.858	0.71	correct	0back	Block1	0back/STIM_016.jpg
660.067	0.751	correct	0back	Block1	0back/STIM_017.jpg
664.019	0.773	correct	0back	Block1	0back/STIM_017.jpg
668.795	0.439	correct	0back	Block1	0back/STIM_017.jpg
672.338	0.515	correct	0back	Block1	0back/STIM_018.jpg
676.85	0.726	correct	0back	Block1	0back/STIM_018.jpg
681.188	0.66	correct	0back	Block1	0back/STIM_018.jpg
685.246	0.668	correct	0back	Block1	0back/STIM_019.jpg
688.558	0.582	correct	0back	Block1	0back/STIM_019.jpg
691.213	0.57	correct	0back	Block1	0back/STIM_019.jpg
695.207	1.016	correct	2back	Block2	2back/STIM_000.jpg
698.893	1.033	correct	2back	Block2	2back/STIM_000.jpg
703.914	0.882	incorrect	2back	Block2	2back/STIM_000.jpg
708.309	0.646	correct	2back	Block2	2back/STIM_001.jpg
711.743	0.757	correct	2back	Block2	2back/STIM_001.jpg
716.327	0.912	correct	2back	Block2	2back/STIM_001.jpg
720.888	0.774	correct	2back	Block2	2back/STIM_002.jpg
723.925	0.632	correct	2back	Block2	2back/STIM_002.jpg
726.826	0.503	correct	2back	Block2	2back/STIM_002.jpg
729.69	0.947	correct	2back	Block2	2back/STIM_003.jpg
733.202	1.086	correct	2back	Block2	2back/STIM_003.jpg
737.474	0.843	correct	2back	Block2	2back/STIM_003.jpg
740.993	0.744	correct	2back	Block2	2back/STIM_004.jpg
745.006	0.915	incorrect	2back	Block2	2back/STIM_004.jpg
748.597	0.712	correct	2back	Block2	2back/STIM_004.jpg
753.051	0.76	correct	2back	Block2	2back/STIM_005.jpg
756.27	0.57	correct	2back	Block2	2back/STIM_005.jpg
759.375	0.566	correct	2back	Block2	2back/STIM_005.jpg
762.933	0.914	correct	2back	Block2	2back/STIM_006.jpg
767.451	0.737	incorrect	2back	Block2	2back/STIM_006.jpg
770.382	0.628	correct	2back	Block2	2back/STIM_006.jpg
774.251	0.978	correct	2back	Block2	2back/STIM_007.jpg
778.791	0.912	correct	2back	Block2	2back/STIM_007.jpg
781.831	0.466	correct	2back	Block2	2back/STIM_007.jpg
785.753	0.898	correct	2back	Block2	2back/STIM_008.jpg
789.128	0.953	correct	2back	Block2	2back/STIM_008.jpg
793.905	0.618	correct	2back	Block2	2back/STIM_008.jpg
796.636	1.123	correct	2back	Block2	2back/STIM_009.jpg
801.761	1.086	correct	2back	Block2	2back/STIM_009.jpg
805.562	0.589	correct	2back	Block2	2back/STIM_009.jpg
808.652	1.04	correct	2back	Block2	2back/STIM_010.jpg
813.032	1.07	correct	2back	Block2	2back/STIM_010.jpg
818.118	1.006	correct	2back	Block2	2back/STIM_010.jpg
821.638	1.111	incorrect	2back	Block2	2back/STIM_011.jpg
824.924	0.906	correct	2back	Block2	2back/STIM_011.jpg
828.577	0.995	correct	2back	Block2	2back/STIM_011.jpg
832.578	1.055	correct	2back	Block2	2back/STIM_012.jpg
836.501	1.047	correct	2back	Block2	2back/STIM_012.jpg
840.835	0.621	correct	2back	Block2	2back/STIM_012.jpg
844.801	0.965	correct	2back	Block2	2back/STIM_013.jpg
848.586	0.734	correct	2back	Block2	2back/STIM_013.jpg
851.546	0.449	correct	2back	Block2	2back/STIM_013.jpg
855.497	0.876	correct	2back	Block2	2back/STIM_014.jpg
859.107	0.509	correct	2back	Block2	2back/STIM_014.jpg
863.479	0.62	correct	2back	Block2	2back/STIM_014.jpg
867.425	1.011	incorrect	2back	Block2	2back/STIM_015.jpg
872.195	0.685	correct	2back	Block2	2back/STIM_015.jpg
876.543	0.629	correct	2back	Block2	2back/STIM_015.jpg
879.6	1.044	correct	2back	Block2	2back/STIM_016.jpg
884.03	0.834	correct	2back	Block2	2back/STIM_016.jpg
888.366	0.868	incorrect	2back	Block2	2back/STIM_016.jpg
892.606	0.988	incorrect	2back	Block2	2back/STIM_017.jpg
896.479	0.702	incorrect	2back	Block2	2back/STIM_017.jpg
899.431	0.971	correct	2back	Block2	2back/STIM_017.jpg
903.819	1.121	correct	2back	Block2	2back/STIM_018.jpg
907.509	0.764	correct	2back	Block2	2back/STIM_018.jpg
911.605	0.662	correct	2back	Block2	2back/STIM_018.jpg
915.363	0.81	correct	2back	Block2	2back/STIM_019.jpg
919.461	1.059	correct	2back	Block2	2back/STIM_019.jpg
924.333	0.686	correct	2back	Block2	2back/STIM_019.jpg
927.742	0.705	correct	2back	Block2	2back/STIM_020.jpg
932.024	0.704	correct	2back	Block2	2back/STIM_020.jpg
936.632	0.478	correct	2back	Block2	2back/STIM_020.jpg
940.873	0.602	correct	2back	Block2	2back/STIM_021.jpg
944.431	0.967	correct	2back	Block2	2back/STIM_021.jpg
948.069	0.572	correct	2back	Block2	2back/STIM_021.jpg
951.762	0.794	correct	2back	Block2	2back/STIM_022.jpg
955.384	0.901	correct	2back	Block2	2back/STIM_022.jpg
958.569	0.934	correct	2back	Block2	2back/STIM_022.jpg
961.821	0.978	correct	2back	Block2	2back/STIM_023.jpg
965.24	0.99	correct	2back	Block2	2back/STIM_023.jpg
969.586	0.542	correct	2back	Block2	2back/STIM_023.jpg
972.157	0.791	correct	2back	Block2	2back/STIM_024.jpg
975.772	0.493	correct	2back	Block2	2back/STIM_024.jpg
979.764	0.672	incorrect	2back	Block2	2back/STIM_024.jpg
982.676	0.84	correct	2back	Block2	2back/STIM_025.jpg
986.106	0.805	correct	2back	Block2	2back/STIM_025.jpg
990.092	0.851	correct	2back	Block2	2back/STIM_025.jpg
994.863	0.535	incorrect	2back	Block2	2back/STIM_026.jpg
998.07	0.577	correct	2back	Block2	2back/STIM_026.jpg
1001.937	0.726	correct	2back	Block2	2back/STIM_026.jpg
1004.688	1.076	correct	2back	Block2	2back/STIM_027.jpg
1009.3	0.904	correct	2back	Block2	2back/STIM_027.jpg
1013.014	0.905	correct	2back	Block2	2back/STIM_027.jpg
1016.809	1.104	correct	2back	Block2	2back/STIM_028.jpg
1021.414	0.577	correct	2back	Block2	2back/STIM_028.jpg
1025.695	0.957	correct	2back	Block2	2back/STIM_028.jpg
1029.726	0.606	correct	2back	Block2	2back/STIM_029.jpg
1034.268	0.779	correct	2back	Block2	2back/STIM_029.jpg
1038.912	0.976	correct	2back	Block2	2back/STIM_029.jpg
1043.58	1.16	correct	2back	Block2	2back/STIM_030.jpg
1048.18	0.87	correct	2back	Block2	2back/STIM_030.jpg
1052.899	0.494	correct	2back	Block2	2back/STIM_030.jpg
1056.878	0.982	correct	2back	Block2	2back/STIM_031.jpg
1059.959	0.944	correct	2back	Block2	2back/STIM_031.jpg
1062.979	0.963	correct	2back	Block2	2back/STIM_031.jpg
1066.076	0.936	correct	2back	Block2	2back/STIM_032.jpg
1070.421	0.573	correct	2back	Block2	2back/STIM_032.jpg
1074.106	0.59	correct	2back	Block2	2back/STIM_032.jpg
1077.804	0.6	correct	2back	Block2	2back/STIM_033.jpg
1081.859	0.531	correct	2back	Block2	2back/STIM_033.jpg
1085.172	0.95	correct	2back	Block2	2back/STIM_033.jpg
1089.514	1.164	correct	2back	Block2	2back/STIM_034.jpg
1093.907	0.525	correct	2back	Block2	2back/STIM_034.jpg
1097.276	0.811	correct	2back	Block2	2back/STIM_034.jpg
1100.813	0.914	correct	2back	Block2	2back/STIM_035.jpg
1103.803	0.782	correct	2back	Block2	2back/STIM_035.jpg
1108.579	0.725	correct	2back	Block2	2back/STIM_035.jpg
1111.922	0.593	correct	2back	Block2	2back/STIM_036.jpg
1115.419	0.611	correct	2back	Block2	2back/STIM_036.jpg
1119.663	0.606	correct	2back	Block2	2back/STIM_036.jpg
1123.785	0.506	correct	2back	Block2	2back/STIM_037.jpg
1126.759	0.733	incorrect	2back	Block2	2back/STIM_037.jpg
1130.012	0.67	correct	2back	Block2	2back/STIM_037.jpg
1133.72	0.63	correct	2back	Block2	2back/STIM_038.jpg
1136.51	0.487	correct	2back	Block2	2back/STIM_038.jpg
1140.639	0.736	incorrect	2back	Block2	2back/STIM_038.jpg
1143.904	0.572	correct	2back	Block2	2back/STIM_039.jpg
1147.036	1.082	correct	2back	Block2	2back/STIM_039.jpg
1151.812	0.63	correct	2back	Block2	2back/STIM_039.jpg
1154.467	0.741	correct	0back	Block2	0back/STIM_000.jpg
1157.772	0.718	correct	0back	Block2	0back/STIM_000.jpg
1161.293	0.414	correct	0back	Block2	0back/STIM_000.jpg
1165.304	0.556	correct	0back	Block2	0back/STIM_001.jpg
1168.914	0.556	correct	0back	Block2	0back/STIM_001.jpg
1171.903	0.492	correct	0back	Block2	0back/STIM_001.jpg
1174.923	0.625	correct	0back	Block2	0back/STIM_002.jpg
1178.574	0.488	correct	0back	Block2	0back/STIM_002.jpg
1182.572	0.684	correct	0back	Block2	0back/STIM_002.jpg
1186.679	0.473	correct	0back	Block2	0back/STIM_003.jpg
1190.549	0.695	correct	0back	Block2	0back/STIM_003.jpg
1193.315	0.586	correct	0back	Block2	0back/STIM_003.jpg
1197.912	0.717	correct	0back	Block2	0back/STIM_004.jpg
1201.383	0.498	correct	0back	Block2	0back/STIM_004.jpg
1205.842	0.535	correct	0back	Block2	0back/STIM_004.jpg
1209.14	0.415	correct	0back	Block2	0back/STIM_005.jpg
1213.146	0.724	correct	0back	Block2	0back/STIM_005.jpg
1217.221	0.395	correct	0back	Block2	0back/STIM_005.jpg
1219.652	0.584	correct	0back	Block2	0back/STIM_006.jpg
1222.768	0.724	correct	0back	Block2	0back/STIM_006.jpg
1227.073	0.455	correct	0back	Block2	0back/STIM_006.jpg
1230.183	0.685	correct	0back	Block2	0back/STIM_007.jpg
1234.306	0.431	correct	0back	Block2	0back/STIM_007.jpg
1238.697	0.699	correct	0back	Block2	0back/STIM_007.jpg
1242.905	0.701	correct	0back	Block2	0back/STIM_008.jpg
1247.359	0.488	correct	0back	Block2	0back/STIM_008.jpg
1250.009	0.41	correct	0back	Block2	0back/STIM_008.jpg
1253.892	0.58	correct	0back	Block2	0back/STIM_009.jpg
1257.04	0.7	correct	0back	Block2	0back/STIM_009.jpg
1261.209	0.644	correct	0back	Block2	0back/STIM_009.jpg
1264.466	0.554	correct	0back	Block2	0back/STIM_010.jpg
1268.429	0.464	correct	0back	Block2	0back/STIM_010.jpg
1272.797	0.634	correct	0back	Block2	0back/STIM_010.jpg
1277.116	0.652	correct	0back	Block2	0back/STIM_011.jpg
1280.12	0.552	correct	0back	Block2	0back/STIM_011.jpg
1284.615	0.632	correct	0back	Block2	0back/STIM_011.jpg
1287.65	0.462	correct	0back	Block2	0back/STIM_012.jpg
1290.769	0.666	correct	0back	Block2	0back/STIM_012.jpg
1293.674	0.764	correct	0back	Block2	0back/STIM_012.jpg
1298.443	0.638	correct	0back	Block2	0back/STIM_013.jpg
1302.944	0.532	correct	0back	Block2	0back/STIM_013.jpg
1305.554	0.502	correct	0back	Block2	0back/STIM_013.jpg
1308.123	0.497	incorrect	0back	Block2	0back/STIM_014.jpg
1311.841	0.447	correct	0back	Block2	0back/STIM_014.jpg
1314.534	0.725	correct	0back	Block2	0back/STIM_014.jpg
1319.189	0.442	correct	0back	Block2	0back/STIM_015.jpg
1322.209	0.747	correct	0back	Block2	0back/STIM_015.jpg
1325.434	0.479	correct	0back	Block2	0back/STIM_015.jpg
1329.705	0.722	correct	0back	Block2	0back/STIM_016.jpg
1333.493	0.492	correct	0back	Block2	0back/STIM_016.jpg
1337.272	0.697	correct	0back	Block2	0back/STIM_016.jpg
1340.278	0.534	correct	0back	Block2	0back/STIM_017.jpg
1344.617	0.616	correct	0back	Block2	0back/STIM_017.jpg
1348.891	0.619	correct	0back	Block2	0back/STIM_017.jpg
1352.713	0.641	correct	0back	Block2	0back/STIM_018.jpg
1357.053	0.659	correct	0back	Block2	0back/STIM_018.jpg
1361.151	0.546	correct	0back	Block2	0back/STIM_018.jpg
1365.112	0.726	correct	0back	Block2	0back/STIM_019.jpg
1369.541	0.424	correct	0back	Block2	0back/STIM_019.jpg
1373.475	0.704	correct	0back	Block2	0back/STIM_019.jpg
1377.86	0.819	correct	2back	Block3	2back/STIM_000.jpg
1382.145	0.76	correct	2back	Block3	2back/STIM_000.jpg
1385.31	0.635	incorrect	2back	Block3	2back/STIM_000.jpg
1388.283	0.955	correct	2back	Block3	2back/STIM_001.jpg
1391.934	0.722	correct	2back	Block3	2back/STIM_001.jpg
1395.517	0.93	correct	2back	Block3	2back/STIM_001.jpg
1398.508	0.847	correct	2back	Block3	2back/STIM_002.jpg
1402.042	0.844	correct	2back	Block3	2back/STIM_002.jpg
1406.764	0.942	correct	2back	Block3	2back/STIM_002.jpg
1410.859	0.775	correct	2back	Block3	2back/STIM_003.jpg
1414.957	0.78	correct	2back	Block3	2back/STIM_003.jpg
1417.854	0.461	correct	2back	Block3	2back/STIM_003.jpg
1422.224	0.686	correct	2back	Block3	2back/STIM_004.jpg
1425.758	0.521	correct	2back	Block3	2back/STIM_004.jpg
1428.512	0.577	correct	2back	Block3	2back/STIM_004.jpg
1431.325	0.617	correct	2back	Block3	2back/STIM_005.jpg
1434.334	0.511	correct	2back	Block3	2back/STIM_005.jpg
1438.588	0.897	correct	2back	Block3	2back/STIM_005.jpg
1443.2	0.892	incorrect	2back	Block3	2back/STIM_006.jpg
1447.785	0.733	correct	2back	Block3	2back/STIM_006.jpg
1451.879	0.754	correct	2back	Block3	2back/STIM_006.jpg
1455.83	0.838	correct	2back	Block3	2back/STIM_007.jpg
1460.298	0.495	correct	2back	Block3	2back/STIM_007.jpg
1464.081	0.442	correct	2back	Block3	2back/STIM_007.jpg
1467.073	0.732	correct	2back	Block3	2back/STIM_008.jpg
1470.176	0.476	correct	2back	Block3	2back/STIM_008.jpg
1473.062	0.858	correct	2back	Block3	2back/STIM_008.jpg
1476.896	0.681	correct	2back	Block3	2back/STIM_009.jpg
1480.179	0.813	correct	2back	Block3	2back/STIM_009.jpg
1483.267	0.691	correct	2back	Block3	2back/STIM_009.jpg
1487.221	0.484	correct	2back	Block3	2back/STIM_010.jpg
1490.647	0.954	correct	2back	Block3	2back/STIM_010.jpg
1495.119	0.59	correct	2back	Block3	2back/STIM_010.jpg
1499.535	0.461	correct	2back	Block3	2back/STIM_011.jpg
1503.955	0.86	correct	2back	Block3	2back/STIM_011.jpg
1508.592	0.512	correct	2back	Block3	2back/STIM_011.jpg
1512.772	0.71	correct	2back	Block3	2back/STIM_012.jpg
1516.142	0.744	correct	2back	Block3	2back/STIM_012.jpg
1520.111	0.582	correct	2back	Block3	2back/STIM_012.jpg
1524.553	0.838	correct	2back	Block3	2back/STIM_013.jpg
1528.049	0.528	correct	2back	Block3	2back/STIM_013.jpg
1531.014	0.642	correct	2back	Block3	2back/STIM_013.jpg
1535.032	0.461	correct	2back	Block3	2back/STIM_014.jpg
1537.536	0.699	correct	2back	Block3	2back/STIM_014.jpg
1541.384	0.421	correct	2back	Block3	2back/STIM_014.jpg
1545.098	0.827	correct	2back	Block3	2back/STIM_015.jpg
1549.528	0.892	correct	2back	Block3	2back/STIM_015.jpg
1552.442	0.823	correct	2back	Block3	2back/STIM_015.jpg
1557.17	0.515	correct	2back	Block3	2back/STIM_016.jpg
1560.399	0.764	correct	2back	Block3	2back/STIM_016.jpg
1564.57	0.948	correct	2back	Block3	2back/STIM_016.jpg
1568.729	0.694	incorrect	2back	Block3	2back/STIM_017.jpg
1572.707	0.8	correct	2back	Block3	2back/STIM_017.jpg
1576.27	0.928	correct	2back	Block3	2back/STIM_017.jpg
1580.153	0.426	incorrect	2back	Block3	2back/STIM_018.jpg
1583.28	0.808	correct	2back	Block3	2back/STIM_018.jpg
1587.452	0.496	correct	2back	Block3	2back/STIM_018.jpg
1591.625	0.87	correct	2back	Block3	2back/STIM_019.jpg
1595.985	0.776	correct	2back	Block3	2back/STIM_019.jpg
1600.479	0.641	correct	2back	Block3	2back/STIM_019.jpg
1604.49	0.516	correct	2back	Block3	2back/STIM_020.jpg
1608.007	0.917	correct	2back	Block3	2back/STIM_020.jpg
1612.26	0.608	correct	2back	Block3	2back/STIM_020.jpg
1615.726	0.913	correct	2back	Block3	2back/STIM_021.jpg
1620.158	0.568	correct	2back	Block3	2back/STIM_021.jpg
1623.757	0.738	correct	2back	Block3	2back/STIM_021.jpg
1626.665	0.818	correct	2back	Block3	2back/STIM_022.jpg
1630.776	0.674	correct	2back	Block3	2back/STIM_022.jpg
1634.122	0.792	correct	2back	Block3	2back/STIM_022.jpg
1637.259	0.503	correct	2back	Block3	2back/STIM_023.jpg
1639.826	0.66	correct	2back	Block3	2back/STIM_023.jpg
1643.084	0.816	correct	2back	Block3	2back/STIM_023.jpg
1646.922	0.703	correct	2back	Block3	2back/STIM_024.jpg
1650.765	0.488	correct	2back	Block3	2back/STIM_024.jpg
1654.216	0.64	correct	2back	Block3	2back/STIM_024.jpg
1658.43	0.463	incorrect	2back	Block3	2back/STIM_025.jpg
1661.575	0.774	correct	2back	Block3	2back/STIM_025.jpg
1664.433	0.755	correct	2back	Block3	2back/STIM_025.jpg
1669.116	0.83	correct	2back	Block3	2back/STIM_026.jpg
1673.812	0.857	correct	2back	Block3	2back/STIM_026.jpg
1677.688	0.946	correct	2back	Block3	2back/STIM_026.jpg
1681.052	0.498	correct	2back	Block3	2back/STIM_027.jpg
1683.747	0.574	correct	2back	Block3	2back/STIM_027.jpg
1686.903	0.95	correct	2back	Block3	2back/STIM_027.jpg
1691.331	0.444	correct	2back	Block3	2back/STIM_028.jpg
1693.802	0.722	correct	2back	Block3	2back/STIM_028.jpg
1698.04	0.61	correct	2back	Block3	2back/STIM_028.jpg
1702.487	0.629	correct	2back	Block3	2back/STIM_029.jpg
1707.015	0.469	correct	2back	Block3	2back/STIM_029.jpg
1711.122	0.791	correct	2back	Block3	2back/STIM_029.jpg
1714.497	0.681	correct	2back	Block3	2back/STIM_030.jpg
1718.274	0.594	correct	2back	Block3	2back/STIM_030.jpg
1721.264	0.874	correct	2back	Block3	2back/STIM_030.jpg
1725.886	0.858	correct	2back	Block3	2back/STIM_031.jpg
1728.765	0.77	correct	2back	Block3	2back/STIM_031.jpg
1733.327	0.849	correct	2back	Block3	2back/STIM_031.jpg
1736.726	0.891	correct	2back	Block3	2back/STIM_032.jpg
1741.159	0.67	correct	2back	Block3	2back/STIM_032.jpg
1744.984	0.571	correct	2back	Block3	2back/STIM_032.jpg
1749.31	0.947	correct	2back	Block3	2back/STIM_033.jpg
1753.843	0.419	correct	2back	Block3	2back/STIM_033.jpg
1757.112	0.462	correct	2back	Block3	2back/STIM_033.jpg
1760.312	0.893	correct	2back	Block3	2back/STIM_034.jpg
1763.483	0.706	correct	2back	Block3	2back/STIM_034.jpg
1767.702	0.604	correct	2back	Block3	2back/STIM_034.jpg
1771.836	0.784	correct	2back	Block3	2back/STIM_035.jpg
1774.964	0.753	correct	2back	Block3	2back/STIM_035.jpg
1777.966	0.789	correct	2back	Block3	2back/STIM_035.jpg
1780.946	0.811	incorrect	2back	Block3	2back/STIM_036.jpg
1784.327	0.488	correct	2back	Block3	2back/STIM_036.jpg
1788.326	0.691	correct	2back	Block3	2back/STIM_036.jpg
1792.339	0.603	correct	2back	Block3	2back/STIM_037.jpg
1795.007	0.741	correct	2back	Block3	2back/STIM_037.jpg
1798.762	0.936	correct	2back	Block3	2back/STIM_037.jpg
1801.848	0.739	correct	2back	Block3	2back/STIM_038.jpg
1806.002	0.953	correct	2back	Block3	2back/STIM_038.jpg
1810.393	0.852	incorrect	2back	Block3	2back/STIM_038.jpg
1814.997	0.807	correct	2back	Block3	2back/STIM_039.jpg
1817.931	0.718	correct	2back	Block3	2back/STIM_039.jpg
1822.627	0.69	incorrect	2back	Block3	2back/STIM_039.jpg
1826.057	0.766	correct	0back	Block3	0back/STIM_000.jpg
1828.945	0.536	incorrect	0back	Block3	0back/STIM_000.jpg
1831.759	0.725	correct	0back	Block3	0back/STIM_000.jpg
1835.31	0.434	correct	0back	Block3	0back/STIM_001.jpg
1838.243	0.701	correct	0back	Block3	0back/STIM_001.jpg
1842.394	0.652	correct	0back	Block3	0back/STIM_001.jpg
1845.241	0.472	correct	0back	Block3	0back/STIM_002.jpg
1848.004	0.661	correct	0back	Block3	0back/STIM_002.jpg
1852.62	0.564	correct	0back	Block3	0back/STIM_002.jpg
1855.439	0.775	correct	0back	Block3	0back/STIM_003.jpg
1859.757	0.665	correct	0back	Block3	0back/STIM_003.jpg
1862.46	0.725	correct	0back	Block3	0back/STIM_003.jpg
1866.93	0.766	correct	0back	Block3	0back/STIM_004.jpg
1869.778	0.475	correct	0back	Block3	0back/STIM_004.jpg
1872.312	0.525	correct	0back	Block3	0back/STIM_004.jpg
1875.762	0.566	correct	0back	Block3	0back/STIM_005.jpg
1879.323	0.474	correct	0back	Block3	0back/STIM_005.jpg
1883.1	0.681	correct	0back	Block3	0back/STIM_005.jpg
1886.771	0.58	correct	0back	Block3	0back/STIM_006.jpg
1889.764	0.511	correct	0back	Block3	0back/STIM_006.jpg
1892.346	0.439	correct	0back	Block3	0back/STIM_006.jpg
1896.461	0.577	incorrect	0back	Block3	0back/STIM_007.jpg
1900.453	0.709	correct	0back	Block3	0back/STIM_007.jpg
1903.283	0.601	correct	0back	Block3	0back/STIM_007.jpg
1907.023	0.464	correct	0back	Block3	0back/STIM_008.jpg
1910.887	0.484	correct	0back	Block3	0back/STIM_008.jpg
1913.392	0.4	incorrect	0back	Block3	0back/STIM_008.jpg
1917.479	0.651	correct	0back	Block3	0back/STIM_009.jpg
1921.202	0.411	correct	0back	Block3	0back/STIM_009.jpg
1924.376	0.407	correct	0back	Block3	0back/STIM_009.jpg
1928.76	0.51	correct	0back	Block3	0back/STIM_010.jpg
1932.379	0.595	incorrect	0back	Block3	0back/STIM_010.jpg
1935.399	0.738	correct	0back	Block3	0back/STIM_010.jpg
1938.242	0.609	correct	0back	Block3	0back/STIM_011.jpg
1942.098	0.668	correct	0back	Block3	0back/STIM_011.jpg
1946.322	0.756	correct	0back	Block3	0back/STIM_011.jpg
1949.651	0.666	correct	0back	Block3	0back/STIM_012.jpg
1953.555	0.708	correct	0back	Block3	0back/STIM_012.jpg
1956.776	0.592	correct	0back	Block3	0back/STIM_012.jpg
1959.411	0.403	correct	0back	Block3	0back/STIM_013.jpg
1963.691	0.661	correct	0back	Block3	0back/STIM_013.jpg
1966.717	0.523	correct	0back	Block3	0back/STIM_013.jpg
1970.87	0.714	correct	0back	Block3	0back/STIM_014.jpg
1975.528	0.739	correct	0back	Block3	0back/STIM_014.jpg
1978.566	0.663	correct	0back	Block3	0back/STIM_014.jpg
1981.395	0.456	correct	0back	Block3	0back/STIM_015.jpg
1984.518	0.77	correct	0back	Block3	0back/STIM_015.jpg
1987.522	0.616	correct	0back	Block3	0back/STIM_015.jpg
1991.752	0.697	correct	0back	Block3	0back/STIM_016.jpg
1995.002	0.421	correct	0back	Block3	0back/STIM_016.jpg
1997.558	0.663	correct	0back	Block3	0back/STIM_016.jpg
2000.247	0.727	correct	0back	Block3	0back/STIM_017.jpg
2004.314	0.683	correct	0back	Block3	0back/STIM_017.jpg
2007.187	0.596	correct	0back	Block3	0back/STIM_017.jpg
2009.976	0.782	correct	0back	Block3	0back/STIM_018.jpg
2013.492	0.594	correct	0back	Block3	0back/STIM_018.jpg
2017.994	0.566	correct	0back	Block3	0back/STIM_018.jpg
2020.633	0.392	correct	0back	Block3	0back/STIM_019.jpg
2024.724	0.417	correct	0back	Block3	0back/STIM_019.jpg
2027.323	0.574	correct	0back	Block3	0back/STIM_019.jpg
2031.707	0.617	correct	2back	Block4	2back/STIM_000.jpg
2034.69	0.912	correct	2back	Block4	2back/STIM_000.jpg
2037.992	0.643	correct	2back	Block4	2back/STIM_000.jpg
2041.05	0.8	correct	2back	Block4	2back/STIM_001.jpg
2044.495	0.579	correct	2back	Block4	2back/STIM_001.jpg
2047.556	0.825	correct	2back	Block4	2back/STIM_001.jpg
2051.758	0.751	correct	2back	Block4	2back/STIM_002.jpg
2055.224	0.516	correct	2back	Block4	2back/STIM_002.jpg
2057.934	0.529	incorrect	2back	Block4	2back/STIM_002.jpg
2060.921	0.894	correct	2back	Block4	2back/STIM_003.jpg
2064.63	0.441	correct	2back	Block4	2back/STIM_003.jpg
2067.614	0.709	correct	2back	Block4	2back/STIM_003.jpg
2071.656	0.576	correct	2back	Block4	2back/STIM_004.jpg
2075.878	0.708	correct	2back	Block4	2back/STIM_004.jpg
2080.393	0.45	correct	2back	Block4	2back/STIM_004.jpg
2083.365	0.645	correct	2back	Block4	2back/STIM_005.jpg
2087.6	0.613	correct	2back	Block4	2back/STIM_005.jpg
2091.811	0.61	correct	2back	Block4	2back/STIM_005.jpg
2094.958	0.45	correct	2back	Block4	2back/STIM_006.jpg
2097.733	0.68	correct	2back	Block4	2back/STIM_006.jpg
2101.077	0.443	correct	2back	Block4	2back/STIM_006.jpg
2103.682	0.852	correct	2back	Block4	2back/STIM_007.jpg
2107.893	0.761	correct	2back	Block4	2back/STIM_007.jpg
2111.884	0.743	correct	2back	Block4	2back/STIM_007.jpg
2116.029	0.651	correct	2back	Block4	2back/STIM_008.jpg
2119.983	0.72	incorrect	2back	Block4	2back/STIM_008.jpg
2123.122	0.661	correct	2back	Block4	2back/STIM_008.jpg
2126.094	0.532	correct	2back	Block4	2back/STIM_009.jpg
2129.962	0.79	correct	2back	Block4	2back/STIM_009.jpg
2133.916	0.813	correct	2back	Block4	2back/STIM_009.jpg
2137.594	0.858	incorrect	2back	Block4	2back/STIM_010.jpg
2141.595	0.552	correct	2back	Block4	2back/STIM_010.jpg
2144.32	0.582	correct	2back	Block4	2back/STIM_010.jpg
2147.582	0.86	correct	2back	Block4	2back/STIM_011.jpg
2151.365	0.795	correct	2back	Block4	2back/STIM_011.jpg
2156.104	0.571	correct	2back	Block4	2back/STIM_011.jpg
2159.925	0.808	correct	2back	Block4	2back/STIM_012.jpg
2163.737	0.777	correct	2back	Block4	2back/STIM_012.jpg
2166.864	0.502	correct	2back	Block4	2back/STIM_012.jpg
2171.126	0.582	correct	2back	Block4	2back/STIM_013.jpg
2173.75	0.86	correct	2back	Block4	2back/STIM_013.jpg
2177.16	0.657	correct	2back	Block4	2back/STIM_013.jpg
2181.678	0.683	correct	2back	Block4	2back/STIM_014.jpg
2186.201	0.748	correct	2back	Block4	2back/STIM_014.jpg
2190.666	0.774	correct	2back	Block4	2back/STIM_014.jpg
2194.435	0.877	correct	2back	Block4	2back/STIM_015.jpg
2198.844	0.907	correct	2back	Block4	2back/STIM_015.jpg
2202.119	0.551	correct	2back	Block4	2back/STIM_015.jpg
2204.76	0.743	correct	2back	Block4	2back/STIM_016.jpg
2208.424	0.813	correct	2back	Block4	2back/STIM_016.jpg
2211.594	0.897	correct	2back	Block4	2back/STIM_016.jpg
2215.258	0.7	incorrect	2back	Block4	2back/STIM_017.jpg
2219.566	0.607	incorrect	2back	Block4	2back/STIM_017.jpg
2222.381	0.619	correct	2back	Block4	2back/STIM_017.jpg
2226.25	0.733	correct	2back	Block4	2back/STIM_018.jpg
2229.635	0.871	correct	2back	Block4	2back/STIM_018.jpg
2233.557	0.49	correct	2back	Block4	2back/STIM_018.jpg
2237.231	0.502	correct	2back	Block4	2back/STIM_019.jpg
2240.386	0.697	correct	2back	Block4	2back/STIM_019.jpg
2243.553	0.588	correct	2back	Block4	2back/STIM_019.jpg
2246.184	0.694	correct	2back	Block4	2back/STIM_020.jpg
2250.486	0.842	correct	2back	Block4	2back/STIM_020.jpg
2253.876	0.747	correct	2back	Block4	2back/STIM_020.jpg
2258.339	0.907	correct	2back	Block4	2back/STIM_021.jpg
2262.759	0.571	correct	2back	Block4	2back/STIM_021.jpg
2265.792	0.675	correct	2back	Block4	2back/STIM_021.jpg
2269.065	0.708	correct	2back	Block4	2back/STIM_022.jpg
2272.215	0.536	correct	2back	Block4	2back/STIM_022.jpg
2275.474	0.776	correct	2back	Block4	2back/STIM_022.jpg
2279.468	0.846	correct	2back	Block4	2back/STIM_023.jpg
2282.63	0.767	correct	2back	Block4	2back/STIM_023.jpg
2286.069	0.428	correct	2back	Block4	2back/STIM_023.jpg
2289.867	0.603	correct	2back	Block4	2back/STIM_024.jpg
2292.682	0.635	correct	2back	Block4	2back/STIM_024.jpg
2295.603	0.57	correct	2back	Block4	2back/STIM_024.jpg
2299.535	0.631	correct	2back	Block4	2back/STIM_025.jpg
2304.065	0.489	correct	2back	Block4	2back/STIM_025.jpg
2307.66	0.87	correct	2back	Block4	2back/STIM_025.jpg
2312.438	0.464	correct	2back	Block4	2back/STIM_026.jpg
2315.947	0.776	correct	2back	Block4	2back/STIM_026.jpg
2319.658	0.532	correct	2back	Block4	2back/STIM_026.jpg
2323.428	0.506	correct	2back	Block4	2back/STIM_027.jpg
2326.374	0.729	correct	2back	Block4	2back/STIM_027.jpg
2329.939	0.858	correct	2back	Block4	2back/STIM_027.jpg
2333.348	0.661	correct	2back	Block4	2back/STIM_028.jpg
2337.585	0.869	correct	2back	Block4	2back/STIM_028.jpg
2341.604	0.735	correct	2back	Block4	2back/STIM_028.jpg
2345.829	0.959	correct	2back	Block4	2back/STIM_029.jpg
2349.102	0.719	correct	2back	Block4	2back/STIM_029.jpg
2352.226	0.894	correct	2back	Block4	2back/STIM_029.jpg
2356.306	0.888	correct	2back	Block4	2back/STIM_030.jpg
2359.467	0.596	correct	2back	Block4	2back/STIM_030.jpg
2362.341	0.58	correct	2back	Block4	2back/STIM_030.jpg
2365.911	0.546	correct	2back	Block4	2back/STIM_031.jpg
2369.789	0.579	correct	2back	Block4	2back/STIM_031.jpg
2373.545	0.94	correct	2back	Block4	2back/STIM_031.jpg
2378.224	0.954	correct	2back	Block4	2back/STIM_032.jpg
2382.43	0.738	correct	2back	Block4	2back/STIM_032.jpg
2385.627	0.501	correct	2back	Block4	2back/STIM_032.jpg
2389.245	0.933	correct	2back	Block4	2back/STIM_033.jpg
2392.484	0.663	correct	2back	Block4	2back/STIM_033.jpg
2396.392	0.558	correct	2back	Block4	2back/STIM_033.jpg
2399.623	0.422	correct	2back	Block4	2back/STIM_034.jpg
2403.182	0.7	correct	2back	Block4	2back/STIM_034.jpg
2407.746	0.427	correct	2back	Block4	2back/STIM_034.jpg
2411.54	0.498	correct	2back	Block4	2back/STIM_035.jpg
2415.961	0.739	correct	2back	Block4	2back/STIM_035.jpg
2419.342	0.905	correct	2back	Block4	2back/STIM_035.jpg
2423.786	0.497	correct	2back	Block4	2back/STIM_036.jpg
2427.136	0.601	correct	2back	Block4	2back/STIM_036.jpg
2430.87	0.621	incorrect	2back	Block4	2back/STIM_036.jpg
2434.274	0.429	correct	2back	Block4	2back/STIM_037.jpg
2438.525	0.732	correct	2back	Block4	2back/STIM_037.jpg
2441.807	0.867	correct	2back	Block4	2back/STIM_037.jpg
2444.743	0.556	correct	2back	Block4	2back/STIM_038.jpg
2448.322	0.733	correct	2back	Block4	2back/STIM_038.jpg
2452.374	0.479	correct	2back	Block4	2back/STIM_038.jpg
2456.692	0.498	correct	2back	Block4	2back/STIM_039.jpg
2459.773	0.581	correct	2back	Block4	2back/STIM_039.jpg
2463.141	0.455	correct	2back	Block4	2back/STIM_039.jpg
2466.286	0.462	correct	0back	Block4	0back/STIM_000.jpg
2469.911	0.397	correct	0back	Block4	0back/STIM_000.jpg
2473.646	0.551	correct	0back	Block4	0back/STIM_000.jpg
2478.047	0.671	correct	0back	Block4	0back/STIM_001.jpg
2481.084	0.773	correct	0back	Block4	0back/STIM_001.jpg
2485.704	0.393	correct	0back	Block4	0back/STIM_001.jpg
2488.945	0.658	correct	0back	Block4	0back/STIM_002.jpg
2493.395	0.538	incorrect	0back	Block4	0back/STIM_002.jpg
2497.37	0.755	correct	0back	Block4	0back/STIM_002.jpg
2500.301	0.487	correct	0back	Block4	0back/STIM_003.jpg
2504.178	0.674	correct	0back	Block4	0back/STIM_003.jpg
2508.383	0.53	correct	0back	Block4	0back/STIM_003.jpg
2512.717	0.781	correct	0back	Block4	0back/STIM_004.jpg
2516.66	0.486	correct	0back	Block4	0back/STIM_004.jpg
2520.629	0.629	correct	0back	Block4	0back/STIM_004.jpg
2525.097	0.494	correct	0back	Block4	0back/STIM_005.jpg
2528.622	0.681	correct	0back	Block4	0back/STIM_005.jpg
2533.183	0.469	correct	0back	Block4	0back/STIM_005.jpg
2536.477	0.659	correct	0back	Block4	0back/STIM_006.jpg
2539.155	0.782	correct	0back	Block4	0back/STIM_006.jpg
2543.087	0.469	correct	0back	Block4	0back/STIM_006.jpg
2546.034	0.438	correct	0back	Block4	0back/STIM_007.jpg
2549.909	0.574	correct	0back	Block4	0back/STIM_007.jpg
2553.626	0.748	correct	0back	Block4	0back/STIM_007.jpg
2557.294	0.618	correct	0back	Block4	0back/STIM_008.jpg
2560.512	0.755	correct	0back	Block4	0back/STIM_008.jpg
2563.705	0.454	correct	0back	Block4	0back/STIM_008.jpg
2567.513	0.72	correct	0back	Block4	0back/STIM_009.jpg
2570.398	0.593	correct	0back	Block4	0back/STIM_009.jpg
2574.94	0.697	correct	0back	Block4	0back/STIM_009.jpg
2578.191	0.72	correct	0back	Block4	0back/STIM_010.jpg
2581.997	0.46	correct	0back	Block4	0back/STIM_010.jpg
2584.538	0.744	correct	0back	Block4	0back/STIM_010.jpg
2588.478	0.687	correct	0back	Block4	0back/STIM_011.jpg
2592.299	0.523	correct	0back	Block4	0back/STIM_011.jpg
2595.83	0.63	correct	0back	Block4	0back/STIM_011.jpg
2599.209	0.555	correct	0back	Block4	0back/STIM_012.jpg
2603.42	0.429	incorrect	0back	Block4	0back/STIM_012.jpg
2607.377	0.688	correct	0back	Block4	0back/STIM_012.jpg
2610.847	0.564	correct	0back	Block4	0back/STIM_013.jpg
2614.872	0.584	correct	0back	Block4	0back/STIM_013.jpg
2617.689	0.74	correct	0back	Block4	0back/STIM_013.jpg
2620.573	0.405	correct	0back	Block4	0back/STIM_014.jpg
2623.639	0.607	correct	0back	Block4	0back/STIM_014.jpg
2627.005	0.539	correct	0back	Block4	0back/STIM_014.jpg
2631.472	0.509	incorrect	0back	Block4	0back/STIM_015.jpg
2635.396	0.74	correct	0back	Block4	0back/STIM_015.jpg
2638.254	0.622	correct	0back	Block4	0back/STIM_015.jpg
2641.839	0.736	correct	0back	Block4	0back/STIM_016.jpg
2646.34	0.493	incorrect	0back	Block4	0back/STIM_016.jpg
2650.207	0.45	correct	0back	Block4	0back/STIM_016.jpg
2653.138	0.484	correct	0back	Block4	0back/STIM_017.jpg
2655.836	0.643	correct	0back	Block4	0back/STIM_017.jpg
2660.475	0.687	correct	0back	Block4	0back/STIM_017.jpg
2664.488	0.745	correct	0back	Block4	0back/STIM_018.jpg
2668.872	0.498	correct	0back	Block4	0back/STIM_018.jpg
2672.995	0.685	correct	0back	Block4	0back/STIM_018.jpg
2675.714	0.461	correct	0back	Block4	0back/STIM_019.jpg
2679.507	0.436	correct	0back	Block4	0back/STIM_019.jpg
2683.512	0.638	correct	0back	Block4	0back/STIM_019.jpg
