onset	duration	response_time_ms	trial_type	learning_stage	stimulus	response_port
0.0	0.754	754.4	2back	Block1	2back/STIM_000.jpg	99
4.39	1.488	1488.5	2back	Block1	2back/STIM_000.jpg	99
9.113	1.294	1293.7	2back	Block1	2back/STIM_000.jpg	100
14.122	1.116	1115.7	2back	Block1	2back/STIM_001.jpg	100
18.707	1.575	1574.9	2back	Block1	2back/STIM_001.jpg	99
23.855	0.804	803.6	2back	Block1	2back/STIM_001.jpg	100
28.165	1.208	1208.5	2back	Block1	2back/STIM_002.jpg	100
31.446	0.825	824.9	2back	Block1	2back/STIM_002.jpg	99
35.452	1.116	1116.5	2back	Block1	2back/STIM_002.jpg	100
39.736	1.349	1349.3	2back	Block1	2back/STIM_003.jpg	99
43.27	0.779	778.6	2back	Block1	2back/STIM_003.jpg	100
47.456	0.933	933.4	2back	Block1	2back/STIM_003.jpg	99
51.458	1.064	1063.7	2back	Block1	2back/STIM_004.jpg	99
54.664	1.015	1014.8	2back	Block1	2back/STIM_004.jpg	100
58.845	1.318	1317.8	2back	Block1	2back/STIM_004.jpg	100
64.096	1.151	1150.7	2back	Block1	2back/STIM_005.jpg	99
67.429	1.46	1459.9	2back	Block1	2back/STIM_005.jpg	100
71.871	0.853	853.3	2back	Block1	2back/STIM_005.jpg	100
76.551	0.83	829.7	2back	Block1	2back/STIM_006.jpg	99
80.446	0.87	870.4	2back	Block1	2back/STIM_006.jpg	100
85.305	1.0	999.8	2back	Block1	2back/STIM_006.jpg	100
90.037	1.037	1036.6	2back	Block1	2back/STIM_007.jpg	99
94.376	1.312	1311.6	2back	Block1	2back/STIM_007.jpg	100
99.126	1.471	1470.8	2back	Block1	2back/STIM_007.jpg	100
103.703	1.178	1178.0	2back	Block1	2back/STIM_008.jpg	100
107.438	0.83	830.1	2back	Block1	2back/STIM_008.jpg	100
111.931	1.089	1088.9	2back	Block1	2back/STIM_008.jpg	100
115.498	1.118	1118.4	2back	Block1	2back/STIM_009.jpg	99
118.97	1.296	1295.8	2back	Block1	2back/STIM_009.jpg	100
123.854	1.545	1545.0	2back	Block1	2back/STIM_009.jpg	100
128.305	1.38	1380.4	2back	Block1	2back/STIM_010.jpg	99
131.982	1.299	1298.8	2back	Block1	2back/STIM_010.jpg	100
135.746	1.137	1136.8	2back	Block1	2back/STIM_010.jpg	100
140.538	1.374	1373.9	2back	Block1	2back/STIM_011.jpg	99
145.417	0.942	942.2	2back	Block1	2back/STIM_011.jpg	100
149.23	1.262	1261.5	2back	Block1	2back/STIM_011.jpg	100
154.045	0.799	799.0	2back	Block1	2back/STIM_012.jpg	100
156.918	1.012	1012.4	2back	Block1	2back/STIM_012.jpg	100
161.139	0.877	877.3	2back	Block1	2back/STIM_012.jpg	99
165.123	1.159	1159.2	2back	Block1	2back/STIM_013.jpg	99
168.511	1.572	1571.8	2back	Block1	2back/STIM_013.jpg	99
174.029	0.779	778.9	2back	Block1	2back/STIM_013.jpg	99
177.677	1.144	1144.2	2back	Block1	2back/STIM_014.jpg	99
182.2	1.09	1090.2	2back	Block1	2back/STIM_014.jpg	99
186.243	0.695	695.1	2back	Block1	2back/STIM_014.jpg	100
190.814	0.925	925.2	2back	Block1	2back/STIM_015.jpg	100
195.351	1.309	1309.2	2back	Block1	2back/STIM_015.jpg	99
200.115	1.225	1225.4	2back	Block1	2back/STIM_015.jpg	99
203.741	0.93	929.8	2back	Block1	2back/STIM_016.jpg	99
207.757	1.064	1064.0	2back	Block1	2back/STIM_016.jpg	100
211.487	0.746	745.6	2back	Block1	2back/STIM_016.jpg	100
215.359	0.867	867.0	2back	Block1	2back/STIM_017.jpg	99
219.288	1.295	1295.3	2back	Block1	2back/STIM_017.jpg	100
224.255	1.031	1031.1	2back	Block1	2back/STIM_017.jpg	99
228.577	0.89	889.7	2back	Block1	2back/STIM_018.jpg	100
232.453	0.909	909.1	2back	Block1	2back/STIM_018.jpg	99
235.442	1.47	1469.5	2back	Block1	2back/STIM_018.jpg	100
239.909	0.842	842.5	2back	Block1	2back/STIM_019.jpg	99
244.367	1.319	1319.1	2back	Block1	2back/STIM_019.jpg	100
249.016	1.13	1129.8	2back	Block1	2back/STIM_019.jpg	99
252.263	1.7	1699.9	2back	Block1	2back/STIM_020.jpg	100
257.361	0.913	913.2	2back	Block1	2back/STIM_020.jpg	100
261.335	1.412	1412.4	2back	Block1	2back/STIM_020.jpg	100
266.362	1.645	1645.2	2back	Block1	2back/STIM_021.jpg	100
271.378	0.843	843.2	2back	Block1	2back/STIM_021.jpg	99
276.197	1.156	1156.2	2back	Block1	2back/STIM_021.jpg	99
280.639	0.82	820.5	2back	Block1	2back/STIM_022.jpg	99
284.477	1.457	1456.9	2back	Block1	2back/STIM_022.jpg	100
289.244	0.999	998.9	2back	Block1	2back/STIM_022.jpg	100
294.223	0.873	873.3	2back	Block1	2back/STIM_023.jpg	99
297.399	1.453	1453.3	2back	Block1	2back/STIM_023.jpg	100
302.776	1.135	1135.3	2back	Block1	2back/STIM_023.jpg	99
307.214	1.359	1359.0	2back	Block1	2back/STIM_024.jpg	99
311.695	1.268	1268.1	2back	Block1	2back/STIM_024.jpg	99
315.178	1.389	1389.0	2back	Block1	2back/STIM_024.jpg	100
319.947	1.25	1250.3	2back	Block1	2back/STIM_025.jpg	100
323.523	1.383	1382.7	2back	Block1	2back/STIM_025.jpg	99
327.912	1.241	1241.3	2back	Block1	2back/STIM_025.jpg	100
333.09	0.824	823.9	2back	Block1	2back/STIM_026.jpg	100
336.972	1.48	1480.0	2back	Block1	2back/STIM_026.jpg	99
341.029	0.846	846.2	2back	Block1	2back/STIM_026.jpg	99
345.112	1.676	1675.7	2back	Block1	2back/STIM_027.jpg	99
350.533	1.387	1387.2	2back	Block1	2back/STIM_027.jpg	100
353.982	1.434	1434.3	2back	Block1	2back/STIM_027.jpg	100
358.723	0.96	959.8	2back	Block1	2back/STIM_028.jpg	100
362.841	1.222	1222.5	2back	Block1	2back/STIM_028.jpg	99
367.876	1.385	1384.6	2back	Block1	2back/STIM_028.jpg	99
373.105	0.976	975.7	2back	Block1	2back/STIM_029.jpg	99
376.966	1.51	1510.3	2back	Block1	2back/STIM_029.jpg	100
380.823	1.246	1246.3	2back	Block1	2back/STIM_029.jpg	99
384.075	1.732	1731.9	2back	Block1	2back/STIM_030.jpg	100
389.429	0.846	846.2	2back	Block1	2back/STIM_030.jpg	100
393.039	1.541	1541.3	2back	Block1	2back/STIM_030.jpg	100
398.356	1.561	1561.1	2back	Block1	2back/STIM_031.jpg	99
402.603	1.202	1202.5	2back	Block1	2back/STIM_031.jpg	100
407.656	1.439	1439.2	2back	Block1	2back/STIM_031.jpg	100
411.365	1.089	1088.7	2back	Block1	2back/STIM_032.jpg	99
415.267	1.315	1314.7	2back	Block1	2back/STIM_032.jpg	100
420.428	0.834	834.3	2back	Block1	2back/STIM_032.jpg	100
423.676	1.141	1141.2	2back	Block1	2back/STIM_033.jpg	99
426.992	1.441	1441.1	2back	Block1	2back/STIM_033.jpg	99
431.255	0.888	888.5	2back	Block1	2back/STIM_033.jpg	99
435.942	1.159	1158.6	2back	Block1	2back/STIM_034.jpg	100
440.259	1.212	1211.6	2back	Block1	2back/STIM_034.jpg	100
443.57	0.691	690.9	2back	Block1	2back/STIM_034.jpg	99
448.071	0.785	785.1	2back	Block1	2back/STIM_035.jpg	99
451.076	0.85	850.3	2back	Block1	2back/STIM_035.jpg	99
455.546	1.134	1133.9	2back	Block1	2back/STIM_035.jpg	100
459.666	1.425	1425.0	2back	Block1	2back/STIM_036.jpg	100
464.665	1.018	1018.3	2back	Block1	2back/STIM_036.jpg	99
468.223	1.098	1098.5	2back	Block1	2back/STIM_036.jpg	100
471.822	1.026	1025.9	2back	Block1	2back/STIM_037.jpg	99
476.515	1.489	1488.9	2back	Block1	2back/STIM_037.jpg	100
481.125	0.754	754.5	2back	Block1	2back/STIM_037.jpg	99
485.127	1.303	1302.9	2back	Block1	2back/STIM_038.jpg	100
489.282	1.168	1167.5	2back	Block1	2back/STIM_038.jpg	100
493.486	1.307	1307.1	2back	Block1	2back/STIM_038.jpg	99
497.861	1.584	1583.7	2back	Block1	2back/STIM_039.jpg	100
502.31	0.844	844.5	2back	Block1	2back/STIM_039.jpg	100
505.386	0.929	929.4	2back	Block1	2back/STIM_039.jpg	100
509.955	0.618	618.3	0back	Block1	0back/STIM_000.jpg	99
512.578	0.89	889.8	0back	Block1	0back/STIM_000.jpg	99
517.221	0.77	770.0	0back	Block1	0back/STIM_000.jpg	99
520.313	0.672	672.0	0back	Block1	0back/STIM_001.jpg	100
523.889	0.656	655.8	0back	Block1	0back/STIM_001.jpg	100
526.947	0.938	938.3	0back	Block1	0back/STIM_001.jpg	99
530.329	0.788	787.8	0back	Block1	0back/STIM_002.jpg	100
533.611	0.884	884.3	0back	Block1	0back/STIM_002.jpg	100
536.951	0.632	632.0	0back	Block1	0back/STIM_002.jpg	99
539.889	0.813	813.0	0back	Block1	0back/STIM_003.jpg	99
543.784	0.782	781.8	0back	Block1	0back/STIM_003.jpg	100
548.393	0.524	524.3	0back	Block1	0back/STIM_003.jpg	100
552.253	0.979	979.0	0back	Block1	0back/STIM_004.jpg	100
556.978	0.81	810.4	0back	Block1	0back/STIM_004.jpg	100
561.237	0.78	780.5	0back	Block1	0back/STIM_004.jpg	100
565.342	0.716	715.5	0back	Block1	0back/STIM_005.jpg	99
569.047	0.697	696.8	0back	Block1	0back/STIM_005.jpg	99
572.203	0.987	987.1	0back	Block1	0back/STIM_005.jpg	100
576.82	0.842	842.3	0back	Block1	0back/STIM_006.jpg	100
581.205	0.53	530.5	0back	Block1	0back/STIM_006.jpg	100
584.881	0.844	844.1	0back	Block1	0back/STIM_006.jpg	100
587.85	0.954	954.5	0back	Block1	0back/STIM_007.jpg	99
590.864	0.833	833.0	0back	Block1	0back/STIM_007.jpg	99
594.647	0.762	761.6	0back	Block1	0back/STIM_007.jpg	99
598.008	0.835	835.1	0back	Block1	0back/STIM_008.jpg	100
601.328	0.853	853.4	0back	Block1	0back/STIM_008.jpg	99
605.311	0.923	922.7	0back	Block1	0back/STIM_008.jpg	99
609.457	0.599	599.2	0back	Block1	0back/STIM_009.jpg	100
613.308	0.89	889.7	0back	Block1	0back/STIM_009.jpg	100
616.73	0.524	523.5	0back	Block1	0back/STIM_009.jpg	99
620.125	0.965	964.7	0back	Block1	0back/STIM_010.jpg	100
623.919	0.759	758.7	0back	Block1	0back/STIM_010.jpg	100
628.081	0.621	621.2	0back	Block1	0back/STIM_010.jpg	100
631.91	0.759	758.8	0back	Block1	0back/STIM_011.jpg	100
636.513	0.975	975.0	0back	Block1	0back/STIM_011.jpg	99
641.003	0.693	692.7	0back	Block1	0back/STIM_011.jpg	99
643.884	0.68	680.4	0back	Block1	0back/STIM_012.jpg	100
648.133	0.952	951.7	0back	Block1	0back/STIM_012.jpg	100
651.802	0.796	795.7	0back	Block1	0back/STIM_012.jpg	99
655.778	0.532	532.3	0back	Block1	0back/STIM_013.jpg	100
658.982	0.532	531.7	0back	Block1	0back/STIM_013.jpg	99
662.32	0.93	930.3	0back	Block1	0back/STIM_013.jpg	99
666.748	0.705	705.3	0back	Block1	0back/STIM_014.jpg	99
671.294	0.973	972.7	0back	Block1	0back/STIM_014.jpg	99
674.383	0.563	563.4	0back	Block1	0back/STIM_014.jpg	99
677.518	0.861	861.4	0back	Block1	0back/STIM_015.jpg	99
680.969	0.852	852.4	0back	Block1	0back/STIM_015.jpg	100
683.896	0.616	616.3	0back	Block1	0back/STIM_015.jpg	100
688.273	0.913	912.7	0back	Block1	0back/STIM_016.jpg	99
691.973	0.849	848.8	0back	Block1	0back/STIM_016.jpg	99
695.965	0.692	692.1	0back	Block1	0back/STIM_016.jpg	99
698.878	0.602	602.1	0back	Block1	0back/STIM_017.jpg	100
702.528	0.534	534.3	0back	Block1	0back/STIM_017.jpg	99
705.56	0.937	937.0	0back	Block1	0back/STIM_017.jpg	99
708.528	0.756	755.6	0back	Block1	0back/STIM_018.jpg	99
713.231	0.834	834.3	0back	Block1	0back/STIM_018.jpg	100
716.497	0.878	877.5	0back	Block1	0back/STIM_018.jpg	99
720.405	0.548	547.5	0back	Block1	0back/STIM_019.jpg	99
724.561	0.512	511.6	0back	Block1	0back/STIM_019.jpg	99
728.942	0.905	905.0	0back	Block1	0back/STIM_019.jpg	99
732.227	1.342	1342.1	2back	Block2	2back/STIM_000.jpg	100
737.278	1.084	1083.6	2back	Block2	2back/STIM_000.jpg	100
740.375	1.236	1235.8	2back	Block2	2back/STIM_000.jpg	99
745.306	1.327	1327.4	2back	Block2	2back/STIM_001.jpg	99
749.7	0.706	706.1	2back	Block2	2back/STIM_001.jpg	99
753.464	1.234	1233.8	2back	Block2	2back/STIM_001.jpg	99
757.104	0.644	644.2	2back	Block2	2back/STIM_002.jpg	99
761.193	1.324	1323.9	2back	Block2	2back/STIM_002.jpg	100
764.841	0.567	567.0	2back	Block2	2back/STIM_002.jpg	100
768.48	1.293	1292.8	2back	Block2	2back/STIM_003.jpg	100
773.204	0.884	884.3	2back	Block2	2back/STIM_003.jpg	99
776.761	1.165	1164.9	2back	Block2	2back/STIM_003.jpg	100
781.894	1.184	1184.0	2back	Block2	2back/STIM_004.jpg	99
785.111	0.788	788.5	2back	Block2	2back/STIM_004.jpg	99
788.398	0.806	805.5	2back	Block2	2back/STIM_004.jpg	99
791.9	1.381	1381.0	2back	Block2	2back/STIM_005.jpg	99
795.571	0.786	786.5	2back	Block2	2back/STIM_005.jpg	100
799.083	0.685	685.2	2back	Block2	2back/STIM_005.jpg	100
803.237	0.641	640.9	2back	Block2	2back/STIM_006.jpg	99
806.729	0.612	611.9	2back	Block2	2back/STIM_006.jpg	100
810.222	1.134	1133.5	2back	Block2	2back/STIM_006.jpg	100
813.96	1.005	1005.2	2back	Block2	2back/STIM_007.jpg	99
818.431	0.952	952.0	2back	Block2	2back/STIM_007.jpg	100
822.498	1.209	1208.8	2back	Block2	2back/STIM_007.jpg	100
827.252	0.869	869.3	2back	Block2	2back/STIM_008.jpg	100
831.963	1.202	1201.5	2back	Block2	2back/STIM_008.jpg	100
836.434	1.262	1262.3	2back	Block2	2back/STIM_008.jpg	99
841.059	1.208	1208.0	2back	Block2	2back/STIM_009.jpg	99
846.01	0.792	792.1	2back	Block2	2back/STIM_009.jpg	99
849.687	1.149	1149.2	2back	Block2	2back/STIM_009.jpg	100
853.463	1.019	1018.9	2back	Block2	2back/STIM_010.jpg	100
858.333	1.261	1260.6	2back	Block2	2back/STIM_010.jpg	100
863.038	0.694	693.9	2back	Block2	2back/STIM_010.jpg	100
867.253	1.21	1209.7	2back	Block2	2back/STIM_011.jpg	100
872.149	1.243	1242.7	2back	Block2	2back/STIM_011.jpg	99
877.052	0.972	971.8	2back	Block2	2back/STIM_011.jpg	100
882.006	1.253	1252.9	2back	Block2	2back/STIM_012.jpg	99
886.097	0.701	701.2	2back	Block2	2back/STIM_012.jpg	99
890.365	0.73	729.5	2back	Block2	2back/STIM_012.jpg	99
893.91	1.187	1187.4	2back	Block2	2back/STIM_013.jpg	99
897.529	1.255	1254.6	2back	Block2	2back/STIM_013.jpg	99
902.193	0.654	653.8	2back	Block2	2back/STIM_013.jpg	100
906.841	1.257	1257.2	2back	Block2	2back/STIM_014.jpg	99
910.277	0.915	914.9	2back	Block2	2back/STIM_014.jpg	99
913.998	1.052	1051.7	2back	Block2	2back/STIM_014.jpg	99
918.292	0.76	760.1	2back	Block2	2back/STIM_015.jpg	99
921.992	0.818	817.6	2back	Block2	2back/STIM_015.jpg	100
925.783	1.287	1287.0	2back	Block2	2back/STIM_015.jpg	100
929.89	0.831	831.0	2back	Block2	2back/STIM_016.jpg	100
934.183	0.645	645.1	2back	Block2	2back/STIM_016.jpg	100
938.341	0.874	873.8	2back	Block2	2back/STIM_016.jpg	99
943.018	0.819	819.0	2back	Block2	2back/STIM_017.jpg	100
947.238	0.895	895.0	2back	Block2	2back/STIM_017.jpg	99
951.762	1.128	1127.7	2back	Block2	2back/STIM_017.jpg	99
956.594	1.357	1357.1	2back	Block2	2back/STIM_018.jpg	100
960.828	1.321	1321.3	2back	Block2	2back/STIM_018.jpg	99
965.37	1.257	1257.2	2back	Block2	2back/STIM_018.jpg	99
968.708	0.842	841.8	2back	Block2	2back/STIM_019.jpg	100
972.985	1.171	1170.6	2back	Block2	2back/STIM_019.jpg	99
976.638	0.807	806.6	2back	Block2	2back/STIM_019.jpg	99
980.455	1.023	1023.2	2back	Block2	2back/STIM_020.jpg	99
984.812	0.695	694.8	2back	Block2	2back/STIM_020.jpg	100
987.905	0.595	594.7	2back	Block2	2back/STIM_020.jpg	99
991.444	0.928	927.8	2back	Block2	2back/STIM_021.jpg	100
995.335	0.926	926.4	2back	Block2	2back/STIM_021.jpg	99
999.512	0.896	895.9	2back	Block2	2back/STIM_021.jpg	99
1003.398	1.26	1260.1	2back	Block2	2back/STIM_022.jpg	100
1007.951	1.118	1117.7	2back	Block2	2back/STIM_022.jpg	99
1011.638	0.901	900.6	2back	Block2	2back/STIM_022.jpg	99
1015.934	0.92	920.1	2back	Block2	2back/STIM_023.jpg	99
1019.554	1.104	1103.5	2back	Block2	2back/STIM_023.jpg	99
1023.238	0.684	683.8	2back	Block2	2back/STIM_023.jpg	99
1026.613	1.065	1065.0	2back	Block2	2back/STIM_024.jpg	99
1031.064	0.995	994.8	2back	Block2	2back/STIM_024.jpg	99
1034.546	0.916	916.2	2back	Block2	2back/STIM_024.jpg	99
1038.651	0.711	710.9	2back	Block2	2back/STIM_025.jpg	100
1042.52	0.818	818.3	2back	Block2	2back/STIM_025.jpg	100
1046.96	1.06	1060.1	2back	Block2	2back/STIM_025.jpg	100
1051.564	1.157	1156.9	2back	Block2	2back/STIM_026.jpg	99
1054.996	0.997	997.3	2back	Block2	2back/STIM_026.jpg	99
1058.009	1.139	1139.1	2back	Block2	2back/STIM_026.jpg	100
1062.355	0.836	836.4	2back	Block2	2back/STIM_027.jpg	99
1066.228	0.954	954.3	2back	Block2	2back/STIM_027.jpg	100
1069.412	1.129	1129.2	2back	Block2	2back/STIM_027.jpg	99
1073.818	0.706	705.6	2back	Block2	2back/STIM_028.jpg	99
1077.102	1.029	1029.2	2back	Block2	2back/STIM_028.jpg	100
1080.188	1.022	1021.7	2back	Block2	2back/STIM_028.jpg	99
1083.74	1.325	1325.3	2back	Block2	2back/STIM_029.jpg	100
1088.012	1.33	1330.2	2back	Block2	2back/STIM_029.jpg	99
1093.154	0.794	794.3	2back	Block2	2back/STIM_029.jpg	100
1096.779	0.856	856.5	2back	Block2	2back/STIM_030.jpg	100
1100.842	1.232	1231.9	2back	Block2	2back/STIM_030.jpg	100
1105.826	0.581	581.4	2back	Block2	2back/STIM_030.jpg	100
1108.775	0.666	665.5	2back	Block2	2back/STIM_031.jpg	99
1111.955	0.766	766.5	2back	Block2	2back/STIM_031.jpg	100
1115.248	1.193	1192.8	2back	Block2	2back/STIM_031.jpg	99
1118.909	1.331	1331.3	2back	Block2	2back/STIM_032.jpg	100
1122.296	1.329	1328.8	2back	Block2	2back/STIM_032.jpg	100
1127.53	0.586	586.1	2back	Block2	2back/STIM_032.jpg	100
1131.566	0.991	990.9	2back	Block2	2back/STIM_033.jpg	99
1136.48	1.02	1019.8	2back	Block2	2back/STIM_033.jpg	100
1139.701	0.932	931.8	2back	Block2	2back/STIM_033.jpg	99
1144.606	1.366	1366.4	2back	Block2	2back/STIM_034.jpg	100
1148.923	0.87	870.1	2back	Block2	2back/STIM_034.jpg	100
1153.424	0.659	659.3	2back	Block2	2back/STIM_034.jpg	99
1157.306	0.831	831.3	2back	Block2	2back/STIM_035.jpg	99
1161.821	1.334	1333.8	2back	Block2	2back/STIM_035.jpg	100
1166.68	1.189	1189.3	2back	Block2	2back/STIM_035.jpg	100
1170.233	0.812	812.1	2back	Block2	2back/STIM_036.jpg	99
1173.917	0.639	639.4	2back	Block2	2back/STIM_036.jpg	100
1178.436	0.635	635.2	2back	Block2	2back/STIM_036.jpg	99
1181.512	1.341	1340.9	2back	Block2	2back/STIM_037.jpg	99
1185.599	0.764	763.6	2back	Block2	2back/STIM_037.jpg	99
1188.701	0.571	570.9	2back	Block2	2back/STIM_037.jpg	100
1191.815	0.748	748.0	2back	Block2	2back/STIM_038.jpg	100
1195.326	1.165	1165.0	2back	Block2	2back/STIM_038.jpg	99
1199.487	1.267	1267.1	2back	Block2	2back/STIM_038.jpg	100
1202.875	0.676	675.5	2back	Block2	2back/STIM_039.jpg	100
1206.399	0.809	809.1	2back	Block2	2back/STIM_039.jpg	99
1211.113	0.903	903.4	2back	Block2	2back/STIM_039.jpg	99
1214.482	0.555	554.7	0back	Block2	0back/STIM_000.jpg	100
1219.005	0.991	990.9	0back	Block2	0back/STIM_000.jpg	99
1223.656	0.872	872.1	0back	Block2	0back/STIM_000.jpg	99
1228.042	0.595	595.2	0back	Block2	0back/STIM_001.jpg	100
1231.957	0.726	725.7	0back	Block2	0back/STIM_001.jpg	99
1235.759	0.697	696.7	0back	Block2	0back/STIM_001.jpg	99
1240.026	0.568	567.9	0back	Block2	0back/STIM_002.jpg	99
1243.967	0.672	671.6	0back	Block2	0back/STIM_002.jpg	100
1248.014	0.933	933.4	0back	Block2	0back/STIM_002.jpg	100
1251.603	0.603	603.0	0back	Block2	0back/STIM_003.jpg	100
1255.808	0.689	689.3	0back	Block2	0back/STIM_003.jpg	100
1260.303	0.82	820.0	0back	Block2	0back/STIM_003.jpg	100
1263.864	0.995	994.6	0back	Block2	0back/STIM_004.jpg	99
1267.176	0.794	793.9	0back	Block2	0back/STIM_004.jpg	99
1270.219	0.88	880.4	0back	Block2	0back/STIM_004.jpg	99
1273.929	0.54	539.7	0back	Block2	0back/STIM_005.jpg	99
1277.529	0.952	952.2	0back	Block2	0back/STIM_005.jpg	99
1281.971	0.694	694.3	0back	Block2	0back/STIM_005.jpg	100
1285.229	0.761	760.6	0back	Block2	0back/STIM_006.jpg	100
1288.045	0.498	498.2	0back	Block2	0back/STIM_006.jpg	100
1291.911	0.615	615.1	0back	Block2	0back/STIM_006.jpg	100
1295.707	0.852	852.0	0back	Block2	0back/STIM_007.jpg	99
1299.005	0.954	954.3	0back	Block2	0back/STIM_007.jpg	99
1303.035	0.538	538.5	0back	Block2	0back/STIM_007.jpg	99
1306.962	0.616	615.7	0back	Block2	0back/STIM_008.jpg	99
1309.941	0.894	893.6	0back	Block2	0back/STIM_008.jpg	100
1313.611	0.574	574.2	0back	Block2	0back/STIM_008.jpg	99
1317.308	0.684	683.7	0back	Block2	0back/STIM_009.jpg	100
1321.803	0.64	639.7	0back	Block2	0back/STIM_009.jpg	100
1325.389	0.621	620.9	0back	Block2	0back/STIM_009.jpg	99
1329.868	0.93	930.4	0back	Block2	0back/STIM_010.jpg	100
1333.894	0.586	586.4	0back	Block2	0back/STIM_010.jpg	99
1336.754	0.572	572.5	0back	Block2	0back/STIM_010.jpg	100
1340.857	0.81	809.5	0back	Block2	0back/STIM_011.jpg	100
1345.073	0.712	712.0	0back	Block2	0back/STIM_011.jpg	99
1347.823	0.694	694.3	0back	Block2	0back/STIM_011.jpg	99
1352.219	0.732	732.2	0back	Block2	0back/STIM_012.jpg	100
1356.762	0.59	590.1	0back	Block2	0back/STIM_012.jpg	99
1360.185	0.94	940.1	0back	Block2	0back/STIM_012.jpg	99
1364.719	0.81	810.4	0back	Block2	0back/STIM_013.jpg	99
1369.356	0.616	616.2	0back	Block2	0back/STIM_013.jpg	100
1373.21	0.832	832.1	0back	Block2	0back/STIM_013.jpg	100
1377.492	0.498	498.3	0back	Block2	0back/STIM_014.jpg	100
1381.112	0.752	751.7	0back	Block2	0back/STIM_014.jpg	99
1384.257	0.816	815.7	0back	Block2	0back/STIM_014.jpg	100
1387.196	0.512	512.0	0back	Block2	0back/STIM_015.jpg	100
1390.228	0.537	536.8	0back	Block2	0back/STIM_015.jpg	99
1393.184	0.92	920.5	0back	Block2	0back/STIM_015.jpg	100
1396.501	0.613	612.9	0back	Block2	0back/STIM_016.jpg	99
1399.358	0.873	872.9	0back	Block2	0back/STIM_016.jpg	99
1402.991	0.522	522.2	0back	Block2	0back/STIM_016.jpg	100
1406.231	0.697	696.7	0back	Block2	0back/STIM_017.jpg	100
1409.25	0.868	868.0	0back	Block2	0back/STIM_017.jpg	99
1413.9	0.857	856.9	0back	Block2	0back/STIM_017.jpg	99
1417.667	0.604	603.6	0back	Block2	0back/STIM_018.jpg	100
1422.207	0.734	734.0	0back	Block2	0back/STIM_018.jpg	100
1426.592	0.772	771.8	0back	Block2	0back/STIM_018.jpg	100
1430.193	0.989	989.2	0back	Block2	0back/STIM_019.jpg	100
1434.001	0.541	541.0	0back	Block2	0back/STIM_019.jpg	99
1437.887	0.736	736.5	0back	Block2	0back/STIM_019.jpg	99
1442.496	1.175	1174.9	2back	Block3	2back/STIM_000.jpg	99
1446.267	0.815	814.7	2back	Block3	2back/STIM_000.jpg	100
1450.049	1.147	1147.3	2back	Block3	2back/STIM_000.jpg	100
1453.555	0.973	973.0	2back	Block3	2back/STIM_001.jpg	100
1457.154	0.94	939.9	2back	Block3	2back/STIM_001.jpg	100
1461.914	0.598	598.0	2back	Block3	2back/STIM_001.jpg	99
1465.397	0.541	541.0	2back	Block3	2back/STIM_002.jpg	100
1469.017	0.884	884.1	2back	Block3	2back/STIM_002.jpg	100
1472.14	0.921	921.4	2back	Block3	2back/STIM_002.jpg	99
1476.777	1.072	1071.9	2back	Block3	2back/STIM_003.jpg	99
1480.017	1.006	1006.4	2back	Block3	2back/STIM_003.jpg	100
1483.347	0.725	725.3	2back	Block3	2back/STIM_003.jpg	99
1486.814	1.199	1198.6	2back	Block3	2back/STIM_004.jpg	99
1490.226	1.14	1139.6	2back	Block3	2back/STIM_004.jpg	100
1494.104	0.982	982.1	2back	Block3	2back/STIM_004.jpg	99
1497.441	0.928	928.5	2back	Block3	2back/STIM_005.jpg	100
1501.103	0.649	648.8	2back	Block3	2back/STIM_005.jpg	99
1504.747	1.086	1086.5	2back	Block3	2back/STIM_005.jpg	100
1507.941	0.636	635.7	2back	Block3	2back/STIM_006.jpg	99
1511.832	1.017	1017.3	2back	Block3	2back/STIM_006.jpg	99
1516.693	0.547	546.8	2back	Block3	2back/STIM_006.jpg	100
1520.07	0.623	622.6	2back	Block3	2back/STIM_007.jpg	100
1523.458	0.536	536.4	2back	Block3	2back/STIM_007.jpg	99
1526.009	0.583	582.8	2back	Block3	2back/STIM_007.jpg	99
1530.066	0.96	959.6	2back	Block3	2back/STIM_008.jpg	100
1535.008	0.963	962.6	2back	Block3	2back/STIM_008.jpg	99
1537.973	1.041	1040.6	2back	Block3	2back/STIM_008.jpg	99
1541.1	0.774	774.4	2back	Block3	2back/STIM_009.jpg	99
1545.737	1.034	1034.5	2back	Block3	2back/STIM_009.jpg	100
1550.027	0.571	570.9	2back	Block3	2back/STIM_009.jpg	100
1554.054	0.565	565.1	2back	Block3	2back/STIM_010.jpg	99
1558.468	0.836	835.7	2back	Block3	2back/STIM_010.jpg	100
1562.763	0.758	758.1	2back	Block3	2back/STIM_010.jpg	100
1567.083	0.82	820.2	2back	Block3	2back/STIM_011.jpg	99
1571.42	0.748	748.1	2back	Block3	2back/STIM_011.jpg	99
1574.502	1.05	1050.0	2back	Block3	2back/STIM_011.jpg	99
1577.556	1.091	1091.3	2back	Block3	2back/STIM_012.jpg	100
1581.881	0.554	554.4	2back	Block3	2back/STIM_012.jpg	100
1586.04	1.213	1212.7	2back	Block3	2back/STIM_012.jpg	100
1589.567	0.689	688.7	2back	Block3	2back/STIM_013.jpg	100
1592.384	1.194	1194.1	2back	Block3	2back/STIM_013.jpg	99
1597.27	0.723	723.1	2back	Block3	2back/STIM_013.jpg	100
1600.748	0.78	779.8	2back	Block3	2back/STIM_014.jpg	100
1604.19	0.537	536.7	2back	Block3	2back/STIM_014.jpg	100
1608.613	1.215	1214.9	2back	Block3	2back/STIM_014.jpg	99
1611.96	0.548	548.4	2back	Block3	2back/STIM_015.jpg	99
1615.427	1.094	1094.1	2back	Block3	2back/STIM_015.jpg	100
1619.189	0.825	824.8	2back	Block3	2back/STIM_015.jpg	100
1622.917	0.998	998.0	2back	Block3	2back/STIM_016.jpg	99
1627.717	1.088	1088.4	2back	Block3	2back/STIM_016.jpg	99
1631.133	0.969	968.6	2back	Block3	2back/STIM_016.jpg	99
1635.448	0.812	812.2	2back	Block3	2back/STIM_017.jpg	99
1638.746	1.036	1036.5	2back	Block3	2back/STIM_017.jpg	100
1642.072	0.948	947.5	2back	Block3	2back/STIM_017.jpg	100
1645.506	1.188	1187.8	2back	Block3	2back/STIM_018.jpg	99
1649.28	0.863	862.6	2back	Block3	2back/STIM_018.jpg	100
1653.795	1.032	1031.9	2back	Block3	2back/STIM_018.jpg	100
1657.353	0.664	663.7	2back	Block3	2back/STIM_019.jpg	100
1661.628	0.847	847.0	2back	Block3	2back/STIM_019.jpg	100
1664.904	0.828	828.0	2back	Block3	2back/STIM_019.jpg	99
1668.507	0.983	982.7	2back	Block3	2back/STIM_020.jpg	99
1672.833	0.772	772.1	2back	Block3	2back/STIM_020.jpg	100
1675.779	0.724	724.3	2back	Block3	2back/STIM_020.jpg	99
1679.039	1.173	1173.3	2back	Block3	2back/STIM_021.jpg	100
1683.506	0.989	989.1	2back	Block3	2back/STIM_021.jpg	100
1686.932	0.56	560.3	2back	Block3	2back/STIM_021.jpg	100
1690.068	0.714	713.9	2back	Block3	2back/STIM_022.jpg	100
1694.317	0.925	925.2	2back	Block3	2back/STIM_022.jpg	100
1697.768	0.638	638.0	2back	Block3	2back/STIM_022.jpg	99
1701.842	0.919	918.9	2back	Block3	2back/STIM_023.jpg	99
1706.395	1.007	1007.3	2back	Block3	2back/STIM_023.jpg	99
1709.641	0.978	978.2	2back	Block3	2back/STIM_023.jpg	99
1713.167	1.122	1122.4	2back	Block3	2back/STIM_024.jpg	100
1717.549	0.758	758.5	2back	Block3	2back/STIM_024.jpg	100
1721.697	0.958	957.8	2back	Block3	2back/STIM_024.jpg	99
1726.148	0.775	775.0	2back	Block3	2back/STIM_025.jpg	99
1729.5	0.527	526.9	2back	Block3	2back/STIM_025.jpg	100
1733.122	0.805	805.0	2back	Block3	2back/STIM_025.jpg	100
1736.571	1.1	1099.5	2back	Block3	2back/STIM_026.jpg	99
1740.025	0.598	597.9	2back	Block3	2back/STIM_026.jpg	100
1742.697	1.182	1181.5	2back	Block3	2back/STIM_026.jpg	100
1746.926	1.095	1094.9	2back	Block3	2back/STIM_027.jpg	100
1751.62	0.526	526.1	2back	Block3	2back/STIM_027.jpg	100
1754.639	1.217	1216.8	2back	Block3	2back/STIM_027.jpg	100
1758.258	1.008	1008.1	2back	Block3	2back/STIM_028.jpg	100
1761.467	0.572	571.8	2back	Block3	2back/STIM_028.jpg	99
1764.275	0.862	862.2	2back	Block3	2back/STIM_028.jpg	100
1767.722	0.657	656.8	2back	Block3	2back/STIM_029.jpg	100
1771.429	1.008	1007.7	2back	Block3	2back/STIM_029.jpg	100
1775.941	1.05	1050.1	2back	Block3	2back/STIM_029.jpg	100
1780.324	0.618	617.9	2back	Block3	2back/STIM_030.jpg	99
1783.519	1.146	1145.6	2back	Block3	2back/STIM_030.jpg	99
1786.911	0.961	960.8	2back	Block3	2back/STIM_030.jpg	99
1791.737	0.909	909.0	2back	Block3	2back/STIM_031.jpg	100
1795.033	1.015	1014.8	2back	Block3	2back/STIM_031.jpg	100
1798.993	1.055	1054.9	2back	Block3	2back/STIM_031.jpg	99
1802.066	0.764	764.1	2back	Block3	2back/STIM_032.jpg	99
1805.893	1.136	1135.6	2back	Block3	2back/STIM_032.jpg	99
1810.583	1.14	1139.5	2back	Block3	2back/STIM_032.jpg	99
1815.649	0.745	744.8	2back	Block3	2back/STIM_033.jpg	99
1820.34	1.133	1132.7	2back	Block3	2back/STIM_033.jpg	100
1823.886	0.917	916.9	2back	Block3	2back/STIM_033.jpg	99
1828.441	0.718	717.5	2back	Block3	2back/STIM_034.jpg	99
1832.388	0.915	914.7	2back	Block3	2back/STIM_034.jpg	99
1836.156	0.527	527.1	2back	Block3	2back/STIM_034.jpg	100
1840.054	1.097	1096.7	2back	Block3	2back/STIM_035.jpg	100
1843.295	0.927	927.1	2back	Block3	2back/STIM_035.jpg	99
1846.568	1.04	1039.6	2back	Block3	2back/STIM_035.jpg	99
1850.849	0.682	682.0	2back	Block3	2back/STIM_036.jpg	99
1855.519	0.754	753.6	2back	Block3	2back/STIM_036.jpg	100
1859.804	1.214	1213.5	2back	Block3	2back/STIM_036.jpg	99
1864.178	1.141	1141.2	2back	Block3	2back/STIM_037.jpg	99
1867.829	0.954	954.1	2back	Block3	2back/STIM_037.jpg	99
1872.396	0.925	925.3	2back	Block3	2back/STIM_037.jpg	99
1876.305	0.998	998.5	2back	Block3	2back/STIM_038.jpg	99
1880.053	0.851	851.0	2back	Block3	2back/STIM_038.jpg	99
1883.71	1.127	1127.1	2back	Block3	2back/STIM_038.jpg	100
1887.316	0.762	761.7	2back	Block3	2back/STIM_039.jpg	99
1890.507	0.601	601.0	2back	Block3	2back/STIM_039.jpg	99
1895.071	1.012	1011.9	2back	Block3	2back/STIM_039.jpg	100
1899.754	0.684	684.1	0back	Block3	0back/STIM_000.jpg	99
1903.296	0.728	728.3	0back	Block3	0back/STIM_000.jpg	100
1907.999	0.575	574.7	0back	Block3	0back/STIM_000.jpg	100
1912.114	0.503	502.6	0back	Block3	0back/STIM_001.jpg	100
1915.554	0.978	978.0	0back	Block3	0back/STIM_001.jpg	99
1919.262	0.77	770.2	0back	Block3	0back/STIM_001.jpg	99
1923.442	0.573	572.7	0back	Block3	0back/STIM_002.jpg	99
1926.371	0.502	501.6	0back	Block3	0back/STIM_002.jpg	100
1929.053	0.879	879.4	0back	Block3	0back/STIM_002.jpg	99
1933.305	0.657	657.0	0back	Block3	0back/STIM_003.jpg	100
1936.112	0.87	870.4	0back	Block3	0back/STIM_003.jpg	99
1939.679	0.834	833.7	0back	Block3	0back/STIM_003.jpg	99
1942.991	0.686	686.5	0back	Block3	0back/STIM_004.jpg	100
1947.529	0.563	562.7	0back	Block3	0back/STIM_004.jpg	99
1951.071	0.546	545.5	0back	Block3	0back/STIM_004.jpg	100
1954.087	0.746	746.5	0back	Block3	0back/STIM_005.jpg	99
1958.237	0.511	511.2	0back	Block3	0back/STIM_005.jpg	99
1961.789	0.782	782.4	0back	Block3	0back/STIM_005.jpg	99
1966.019	0.54	540.3	0back	Block3	0back/STIM_006.jpg	100
1969.319	0.859	858.6	0back	Block3	0back/STIM_006.jpg	100
1973.884	0.698	698.1	0back	Block3	0back/STIM_006.jpg	100
1977.507	0.669	668.6	0back	Block3	0back/STIM_007.jpg	100
1981.814	0.832	832.0	0back	Block3	0back/STIM_007.jpg	99
1986.384	0.849	848.7	0back	Block3	0back/STIM_007.jpg	99
1990.419	0.538	537.6	0back	Block3	0back/STIM_008.jpg	100
1993.347	0.639	638.8	0back	Block3	0back/STIM_008.jpg	99
1997.938	0.888	888.0	0back	Block3	0back/STIM_008.jpg	100
2001.331	0.97	969.5	0back	Block3	0back/STIM_009.jpg	100
2005.103	0.788	787.7	0back	Block3	0back/STIM_009.jpg	99
2009.859	0.961	961.3	0back	Block3	0back/STIM_009.jpg	99
2014.558	0.697	696.6	0back	Block3	0back/STIM_010.jpg	100
2017.719	0.91	909.6	0back	Block3	0back/STIM_010.jpg	99
2021.905	0.921	920.6	0back	Block3	0back/STIM_010.jpg	100
2025.432	0.828	828.4	0back	Block3	0back/STIM_011.jpg	100
2030.027	0.576	576.0	0back	Block3	0back/STIM_011.jpg	99
2034.122	0.973	973.0	0back	Block3	0back/STIM_011.jpg	99
2038.158	0.844	844.0	0back	Block3	0back/STIM_012.jpg	99
2042.191	0.793	793.0	0back	Block3	0back/STIM_012.jpg	99
2045.669	0.936	936.5	0back	Block3	0back/STIM_012.jpg	99
2048.65	0.613	612.7	0back	Block3	0back/STIM_013.jpg	99
2052.608	0.928	927.8	0back	Block3	0back/STIM_013.jpg	100
2056.509	0.858	858.4	0back	Block3	0back/STIM_013.jpg	99
2061.23	0.68	679.6	0back	Block3	0back/STIM_014.jpg	99
2064.874	0.689	689.1	0back	Block3	0back/STIM_014.jpg	100
2069.505	0.694	693.9	0back	Block3	0back/STIM_014.jpg	99
2072.334	0.931	931.1	0back	Block3	0back/STIM_015.jpg	100
2075.528	0.707	706.6	0back	Block3	0back/STIM_015.jpg	100
2079.515	0.906	906.1	0back	Block3	0back/STIM_015.jpg	99
2083.335	0.977	977.3	0back	Block3	0back/STIM_016.jpg	99
2087.3	0.863	863.2	0back	Block3	0back/STIM_016.jpg	99
2091.688	0.871	871.2	0back	Block3	0back/STIM_016.jpg	100
2096.432	0.708	708.5	0back	Block3	0back/STIM_017.jpg	99
2100.961	0.841	841.1	0back	Block3	0back/STIM_017.jpg	99
2105.238	0.942	942.4	0back	Block3	0back/STIM_017.jpg	100
2108.62	0.687	686.6	0back	Block3	0back/STIM_018.jpg	100
2112.295	0.9	899.9	0back	Block3	0back/STIM_018.jpg	100
2116.875	0.882	881.5	0back	Block3	0back/STIM_018.jpg	100
2121.694	0.695	694.7	0back	Block3	0back/STIM_019.jpg	99
2124.812	0.592	592.3	0back	Block3	0back/STIM_019.jpg	99
2127.785	0.552	552.5	0back	Block3	0back/STIM_019.jpg	99
2130.632	0.62	620.4	2back	Block4	2back/STIM_000.jpg	100
2135.213	0.989	989.2	2back	Block4	2back/STIM_000.jpg	100
2138.758	0.949	949.0	2back	Block4	2back/STIM_000.jpg	100
2142.128	0.665	664.7	2back	Block4	2back/STIM_001.jpg	100
2146.117	1.037	1037.2	2back	Block4	2back/STIM_001.jpg	99
2149.639	0.797	797.1	2back	Block4	2back/STIM_001.jpg	100
2153.651	1.164	1163.8	2back	Block4	2back/STIM_002.jpg	99
2158.149	0.603	603.4	2back	Block4	2back/STIM_002.jpg	99
2161.047	0.902	901.9	2back	Block4	2back/STIM_002.jpg	100
2164.756	0.546	546.1	2back	Block4	2back/STIM_003.jpg	99
2167.418	0.717	717.2	2back	Block4	2back/STIM_003.jpg	99
2171.007	0.947	946.7	2back	Block4	2back/STIM_003.jpg	100
2174.687	1.112	1112.3	2back	Block4	2back/STIM_004.jpg	99
2177.8	1.025	1024.6	2back	Block4	2back/STIM_004.jpg	99
2181.177	1.03	1030.4	2back	Block4	2back/STIM_004.jpg	100
2184.544	0.629	629.4	2back	Block4	2back/STIM_005.jpg	99
2189.145	0.894	894.2	2back	Block4	2back/STIM_005.jpg	99
2192.56	0.935	935.1	2back	Block4	2back/STIM_005.jpg	100
2196.154	0.887	887.0	2back	Block4	2back/STIM_006.jpg	99
2200.053	1.129	1129.4	2back	Block4	2back/STIM_006.jpg	100
2204.346	0.644	644.3	2back	Block4	2back/STIM_006.jpg	99
2207.259	0.968	968.1	2back	Block4	2back/STIM_007.jpg	100
2210.397	1.011	1011.2	2back	Block4	2back/STIM_007.jpg	100
2214.249	0.911	910.6	2back	Block4	2back/STIM_007.jpg	99
2218.802	0.562	562.4	2back	Block4	2back/STIM_008.jpg	99
2223.062	0.84	840.3	2back	Block4	2back/STIM_008.jpg	100
2227.722	0.682	682.5	2back	Block4	2back/STIM_008.jpg	99
2232.29	0.648	648.5	2back	Block4	2back/STIM_009.jpg	99
2236.871	0.947	946.6	2back	Block4	2back/STIM_009.jpg	99
2241.757	0.708	707.7	2back	Block4	2back/STIM_009.jpg	99
2244.507	0.949	949.4	2back	Block4	2back/STIM_010.jpg	100
2247.626	0.75	750.0	2back	Block4	2back/STIM_010.jpg	100
2250.931	0.766	765.5	2back	Block4	2back/STIM_010.jpg	99
2255.411	1.177	1176.8	2back	Block4	2back/STIM_011.jpg	99
2259.827	1.002	1002.1	2back	Block4	2back/STIM_011.jpg	100
2264.698	0.623	622.9	2back	Block4	2back/STIM_011.jpg	100
2269.314	0.78	779.7	2back	Block4	2back/STIM_012.jpg	99
2273.911	1.067	1067.4	2back	Block4	2back/STIM_012.jpg	100
2278.387	0.721	720.6	2back	Block4	2back/STIM_012.jpg	99
2282.019	1.209	1208.6	2back	Block4	2back/STIM_013.jpg	100
2285.755	0.732	732.4	2back	Block4	2back/STIM_013.jpg	99
2288.488	0.674	673.7	2back	Block4	2back/STIM_013.jpg	100
2292.653	0.655	654.9	2back	Block4	2back/STIM_014.jpg	99
2296.513	0.922	922.3	2back	Block4	2back/STIM_014.jpg	99
2301.034	0.588	587.9	2back	Block4	2back/STIM_014.jpg	100
2304.537	1.208	1208.5	2back	Block4	2back/STIM_015.jpg	100
2309.239	0.718	718.0	2back	Block4	2back/STIM_015.jpg	100
2312.617	1.165	1165.1	2back	Block4	2back/STIM_015.jpg	100
2317.378	1.006	1005.6	2back	Block4	2back/STIM_016.jpg	99
2321.742	0.635	634.7	2back	Block4	2back/STIM_016.jpg	99
2325.299	0.664	664.3	2back	Block4	2back/STIM_016.jpg	100
2328.04	1.175	1174.7	2back	Block4	2back/STIM_017.jpg	99
2331.796	1.118	1117.7	2back	Block4	2back/STIM_017.jpg	99
2336.799	1.012	1012.1	2back	Block4	2back/STIM_017.jpg	99
2340.447	0.668	667.5	2back	Block4	2back/STIM_018.jpg	100
2343.257	0.905	904.8	2back	Block4	2back/STIM_018.jpg	100
2347.003	1.204	1204.2	2back	Block4	2back/STIM_018.jpg	99
2350.285	0.734	734.2	2back	Block4	2back/STIM_019.jpg	99
2354.758	1.187	1187.4	2back	Block4	2back/STIM_019.jpg	100
2358.505	0.968	967.8	2back	Block4	2back/STIM_019.jpg	99
2363.452	0.982	982.0	2back	Block4	2back/STIM_020.jpg	100
2367.4	0.944	944.3	2back	Block4	2back/STIM_020.jpg	99
2370.85	0.721	720.9	2back	Block4	2back/STIM_020.jpg	100
2374.454	0.87	870.0	2back	Block4	2back/STIM_021.jpg	99
2378.089	1.163	1162.7	2back	Block4	2back/STIM_021.jpg	99
2382.874	0.695	695.2	2back	Block4	2back/STIM_021.jpg	99
2386.276	1.16	1160.4	2back	Block4	2back/STIM_022.jpg	100
2389.621	0.745	744.9	2back	Block4	2back/STIM_022.jpg	100
2393.443	0.769	768.6	2back	Block4	2back/STIM_022.jpg	99
2396.265	1.082	1081.7	2back	Block4	2back/STIM_023.jpg	99
2399.748	0.628	628.2	2back	Block4	2back/STIM_023.jpg	100
2402.554	1.07	1069.7	2back	Block4	2back/STIM_023.jpg	99
2406.083	0.712	712.3	2back	Block4	2back/STIM_024.jpg	100
2409.637	1.0	999.9	2back	Block4	2back/STIM_024.jpg	100
2414.286	0.772	772.2	2back	Block4	2back/STIM_024.jpg	100
2418.699	0.804	803.6	2back	Block4	2back/STIM_025.jpg	99
2422.571	0.802	802.3	2back	Block4	2back/STIM_025.jpg	99
2425.622	0.761	761.4	2back	Block4	2back/STIM_025.jpg	99
2429.058	0.73	729.9	2back	Block4	2back/STIM_026.jpg	100
2432.1	0.87	870.2	2back	Block4	2back/STIM_026.jpg	100
2436.918	1.119	1118.7	2back	Block4	2back/STIM_026.jpg	99
2441.609	1.192	1192.4	2back	Block4	2back/STIM_027.jpg	99
2445.188	0.917	917.4	2back	Block4	2back/STIM_027.jpg	99
2449.906	0.937	936.9	2back	Block4	2back/STIM_027.jpg	100
2452.921	0.932	931.7	2back	Block4	2back/STIM_028.jpg	100
2457.534	0.791	790.8	2back	Block4	2back/STIM_028.jpg	100
2461.448	1.187	1187.0	2back	Block4	2back/STIM_028.jpg	100
2465.247	1.163	1163.0	2back	Block4	2back/STIM_029.jpg	99
2469.885	0.641	640.9	2back	Block4	2back/STIM_029.jpg	100
2473.567	1.16	1160.4	2back	Block4	2back/STIM_029.jpg	99
2478.577	0.972	971.8	2back	Block4	2back/STIM_030.jpg	99
2482.726	0.536	535.8	2back	Block4	2back/STIM_030.jpg	99
2487.024	0.791	790.7	2back	Block4	2back/STIM_030.jpg	100
2489.894	0.539	539.3	2back	Block4	2back/STIM_031.jpg	99
2493.287	0.561	561.1	2back	Block4	2back/STIM_031.jpg	100
2495.986	0.597	597.4	2back	Block4	2back/STIM_031.jpg	100
2500.209	0.972	971.6	2back	Block4	2back/STIM_032.jpg	99
2503.213	0.66	659.9	2back	Block4	2back/STIM_032.jpg	99
2507.065	0.658	658.2	2back	Block4	2back/STIM_032.jpg	99
2511.074	0.722	722.3	2back	Block4	2back/STIM_033.jpg	100
2515.609	1.19	1189.7	2back	Block4	2back/STIM_033.jpg	99
2519.454	1.144	1144.5	2back	Block4	2back/STIM_033.jpg	100
2522.868	0.994	994.1	2back	Block4	2back/STIM_034.jpg	99
2526.229	0.67	670.2	2back	Block4	2back/STIM_034.jpg	99
2528.979	0.597	596.9	2back	Block4	2back/STIM_034.jpg	99
2532.444	0.954	953.9	2back	Block4	2back/STIM_035.jpg	100
2535.853	1.026	1026.4	2back	Block4	2back/STIM_035.jpg	99
2539.763	1.058	1057.6	2back	Block4	2back/STIM_035.jpg	99
2542.974	1.103	1103.1	2back	Block4	2back/STIM_036.jpg	100
2546.566	1.127	1127.4	2back	Block4	2back/STIM_036.jpg	99
2550.164	0.696	696.1	2back	Block4	2back/STIM_036.jpg	99
2553.547	0.594	594.4	2back	Block4	2back/STIM_037.jpg	99
2557.47	0.613	612.9	2back	Block4	2back/STIM_037.jpg	100
2560.523	1.06	1060.4	2back	Block4	2back/STIM_037.jpg	100
2564.874	1.181	1180.7	2back	Block4	2back/STIM_038.jpg	100
2569.18	0.679	678.8	2back	Block4	2back/STIM_038.jpg	99
2572.347	0.871	871.0	2back	Block4	2back/STIM_038.jpg	99
2576.525	0.747	747.2	2back	Block4	2back/STIM_039.jpg	99
2579.911	0.765	765.4	2back	Block4	2back/STIM_039.jpg	100
2583.808	0.784	783.6	2back	Block4	2back/STIM_039.jpg	100
2587.188	0.542	541.8	0back	Block4	0back/STIM_000.jpg	100
2591.111	0.904	903.7	0back	Block4	0back/STIM_000.jpg	99
2594.114	0.958	957.6	0back	Block4	0back/STIM_000.jpg	100
2597.918	0.836	836.4	0back	Block4	0back/STIM_001.jpg	99
2602.688	0.881	880.9	0back	Block4	0back/STIM_001.jpg	99
2607.202	0.513	513.1	0back	Block4	0back/STIM_001.jpg	100
2610.13	0.504	504.3	0back	Block4	0back/STIM_002.jpg	99
2613.562	0.782	782.4	0back	Block4	0back/STIM_002.jpg	100
2617.307	0.655	654.7	0back	Block4	0back/STIM_002.jpg	99
2621.4	0.839	839.2	0back	Block4	0back/STIM_003.jpg	100
2625.902	0.616	615.6	0back	Block4	0back/STIM_003.jpg	99
2630.235	0.783	782.8	0back	Block4	0back/STIM_003.jpg	99
2634.285	0.592	591.7	0back	Block4	0back/STIM_004.jpg	99
2637.799	0.887	887.0	0back	Block4	0back/STIM_004.jpg	99
2641.237	0.764	763.6	0back	Block4	0back/STIM_004.jpg	99
2644.331	0.78	779.8	0back	Block4	0back/STIM_005.jpg	99
2647.166	0.853	853.0	0back	Block4	0back/STIM_005.jpg	99
2650.964	0.736	736.1	0back	Block4	0back/STIM_005.jpg	99
2654.187	0.587	587.2	0back	Block4	0back/STIM_006.jpg	99
2656.988	0.917	917.2	0back	Block4	0back/STIM_006.jpg	100
2660.952	0.534	533.8	0back	Block4	0back/STIM_006.jpg	100
2664.442	0.816	816.1	0back	Block4	0back/STIM_007.jpg	100
2667.663	0.932	931.5	0back	Block4	0back/STIM_007.jpg	99
2671.871	0.806	806.5	0back	Block4	0back/STIM_007.jpg	99
2675.194	0.676	676.2	0back	Block4	0back/STIM_008.jpg	99
2678.238	0.72	720.0	0back	Block4	0back/STIM_008.jpg	100
2682.092	0.874	873.5	0back	Block4	0back/STIM_008.jpg	100
2685.081	0.889	889.0	0back	Block4	0back/STIM_009.jpg	100
2688.859	0.7	699.9	0back	Block4	0back/STIM_009.jpg	99
2692.64	0.826	826.1	0back	Block4	0back/STIM_009.jpg	100
2695.829	0.957	956.8	0back	Block4	0back/STIM_010.jpg	99
2698.943	0.544	544.5	0back	Block4	0back/STIM_010.jpg	99
2703.031	0.725	724.9	0back	Block4	0back/STIM_010.jpg	100
2706.194	0.505	505.4	0back	Block4	0back/STIM_011.jpg	99
2708.839	0.936	935.7	0back	Block4	0back/STIM_011.jpg	100
2711.952	0.7	700.0	0back	Block4	0back/STIM_011.jpg	99
2716.268	0.751	750.8	0back	Block4	0back/STIM_012.jpg	100
2719.031	0.84	840.2	0back	Block4	0back/STIM_012.jpg	100
2723.507	0.724	723.8	0back	Block4	0back/STIM_012.jpg	100
2727.858	0.592	591.5	0back	Block4	0back/STIM_013.jpg	99
2730.617	0.825	825.1	0back	Block4	0back/STIM_013.jpg	100
2734.237	0.674	674.0	0back	Block4	0back/STIM_013.jpg	100
2737.553	0.725	724.8	0back	Block4	0back/STIM_014.jpg	100
2740.681	0.949	948.7	0back	Block4	0back/STIM_014.jpg	100
2745.389	0.92	920.2	0back	Block4	0back/STIM_014.jpg	100
2749.892	0.677	677.2	0back	Block4	0back/STIM_015.jpg	99
2754.44	0.597	596.6	0back	Block4	0back/STIM_015.jpg	100
2758.657	0.54	539.8	0back	Block4	0back/STIM_015.jpg	100
2762.677	0.652	652.0	0back	Block4	0back/STIM_016.jpg	100
2766.162	0.803	802.6	0back	Block4	0back/STIM_016.jpg	100
2770.34	0.695	694.9	0back	Block4	0back/STIM_016.jpg	99
2773.589	0.847	846.8	0back	Block4	0back/STIM_017.jpg	99
2777.03	0.589	588.6	0back	Block4	0back/STIM_017.jpg	100
2781.139	0.642	641.5	0back	Block4	0back/STIM_017.jpg	99
2784.962	0.95	949.8	0back	Block4	0back/STIM_018.jpg	99
2789.613	0.887	887.0	0back	Block4	0back/STIM_018.jpg	100
2792.63	0.673	672.6	0back	Block4	0back/STIM_018.jpg	100
2796.181	0.545	545.4	0back	Block4	0back/STIM_019.jpg	100
2799.47	0.711	711.4	0back	Block4	0back/STIM_019.jpg	100
2803.675	0.982	981.9	0back	Block4	0back/STIM_019.jpg	99
