onset	duration	accuracy	trial_type	learning_stage	stimulus
0.0	1.058	correct	2back	Block1	2back/STIM_000.jpg
4.901	0.814	correct	2back	Block1	2back/STIM_000.jpg
8.413	0.469	correct	2back	Block1	2back/STIM_000.jpg
10.98	0.466	correct	2back	Block1	2back/STIM_001.jpg
14.088	0.62	correct	2back	Block1	2back/STIM_001.jpg
17.681	0.541	correct	2back	Block1	2back/STIM_001.jpg
21.329	0.702	incorrect	2back	Block1	2back/STIM_002.jpg
25.751	0.626	correct	2back	Block1	2back/STIM_002.jpg
28.675	0.485	correct	2back	Block1	2back/STIM_002.jpg
32.091	0.725	correct	2back	Block1	2back/STIM_003.jpg
35.208	0.794	incorrect	2back	Block1	2back/STIM_003.jpg
39.15	0.599	correct	2back	Block1	2back/STIM_003.jpg
42.348	0.898	correct	2back	Block1	2back/STIM_004.jpg
45.736	0.864	correct	2back	Block1	2back/STIM_004.jpg
50.12	0.971	correct	2back	Block1	2back/STIM_004.jpg
54.212	0.577	incorrect	2back	Block1	2back/STIM_005.jpg
57.95	0.98	correct	2back	Block1	2back/STIM_005.jpg
62.025	0.853	correct	2back	Block1	2back/STIM_005.jpg
66.807	0.925	correct	2back	Block1	2back/STIM_006.jpg
70.892	0.692	correct	2back	Block1	2back/STIM_006.jpg
73.772	0.656	correct	2back	Block1	2back/STIM_006.jpg
77.416	0.948	incorrect	2back	Block1	2back/STIM_007.jpg
80.546	0.599	correct	2back	Block1	2back/STIM_007.jpg
85.138	0.736	correct	2back	Block1	2back/STIM_007.jpg
89.32	0.977	correct	2back	Block1	2back/STIM_008.jpg
93.678	0.81	correct	2back	Block1	2back/STIM_008.jpg
98.468	0.768	correct	2back	Block1	2back/STIM_008.jpg
102.246	0.909	incorrect	2back	Block1	2back/STIM_009.jpg
105.881	0.641	correct	2back	Block1	2back/STIM_009.jpg
109.586	0.771	correct	2back	Block1	2back/STIM_009.jpg
113.742	0.921	incorrect	2back	Block1	2back/STIM_010.jpg
116.955	0.852	correct	2back	Block1	2back/STIM_010.jpg
120.183	0.835	correct	2back	Block1	2back/STIM_010.jpg
124.339	0.723	correct	2back	Block1	2back/STIM_011.jpg
127.889	0.447	correct	2back	Block1	2back/STIM_011.jpg
131.416	0.502	incorrect	2back	Block1	2back/STIM_011.jpg
134.772	0.914	correct	2back	Block1	2back/STIM_012.jpg
139.455	0.474	incorrect	2back	Block1	2back/STIM_012.jpg
142.033	0.581	correct	2back	Block1	2back/STIM_012.jpg
145.836	0.721	correct	2back	Block1	2back/STIM_013.jpg
148.926	0.95	correct	2back	Block1	2back/STIM_013.jpg
153.273	0.925	correct	2back	Block1	2back/STIM_013.jpg
157.974	0.975	correct	2back	Block1	2back/STIM_014.jpg
161.244	0.76	correct	2back	Block1	2back/STIM_014.jpg
164.049	0.523	incorrect	2back	Block1	2back/STIM_014.jpg
166.629	0.931	incorrect	2back	Block1	2back/STIM_015.jpg
170.644	0.676	incorrect	2back	Block1	2back/STIM_015.jpg
174.044	0.574	correct	2back	Block1	2back/STIM_015.jpg
176.844	0.534	incorrect	2back	Block1	2back/STIM_016.jpg
180.462	0.996	correct	2back	Block1	2back/STIM_016.jpg
183.576	0.48	incorrect	2back	Block1	2back/STIM_016.jpg
186.949	0.625	incorrect	2back	Block1	2back/STIM_017.jpg
190.105	0.643	incorrect	2back	Block1	2back/STIM_017.jpg
194.496	0.556	incorrect	2back	Block1	2back/STIM_017.jpg
197.823	1.022	incorrect	2back	Block1	2back/STIM_018.jpg
202.253	0.759	correct	2back	Block1	2back/STIM_018.jpg
205.271	0.481	correct	2back	Block1	2back/STIM_018.jpg
208.679	0.802	incorrect	2back	Block1	2back/STIM_019.jpg
213.222	0.855	correct	2back	Block1	2back/STIM_019.jpg
218.047	0.523	incorrect	2back	Block1	2back/STIM_019.jpg
221.752	1.037	incorrect	2back	Block1	2back/STIM_020.jpg
226.495	0.583	correct	2back	Block1	2back/STIM_020.jpg
230.118	0.476	correct	2back	Block1	2back/STIM_020.jpg
232.699	0.658	correct	2back	Block1	2back/STIM_021.jpg
235.715	0.739	correct	2back	Block1	2back/STIM_021.jpg
239.31	0.524	correct	2back	Block1	2back/STIM_021.jpg
242.313	1.0	incorrect	2back	Block1	2back/STIM_022.jpg
246.437	0.591	correct	2back	Block1	2back/STIM_022.jpg
250.466	0.539	incorrect	2back	Block1	2back/STIM_022.jpg
254.627	0.544	correct	2back	Block1	2back/STIM_023.jpg
259.156	0.741	incorrect	2back	Block1	2back/STIM_023.jpg
263.366	0.534	incorrect	2back	Block1	2back/STIM_023.jpg
267.149	0.505	correct	2back	Block1	2back/STIM_024.jpg
271.028	0.909	correct	2back	Block1	2back/STIM_024.jpg
274.412	0.744	correct	2back	Block1	2back/STIM_024.jpg
277.782	0.496	correct	2back	Block1	2back/STIM_025.jpg
280.307	0.523	incorrect	2back	Block1	2back/STIM_025.jpg
283.942	0.822	incorrect	2back	Block1	2back/STIM_025.jpg
287.507	0.533	incorrect	2back	Block1	2back/STIM_026.jpg
290.15	0.875	incorrect	2back	Block1	2back/STIM_026.jpg
293.237	0.592	correct	2back	Block1	2back/STIM_026.jpg
296.956	0.854	incorrect	2back	Block1	2back/STIM_027.jpg
299.923	0.562	correct	2back	Block1	2back/STIM_027.jpg
303.461	0.9	correct	2back	Block1	2back/STIM_027.jpg
306.614	0.888	correct	2back	Block1	2back/STIM_028.jpg
311.005	0.733	correct	2back	Block1	2back/STIM_028.jpg
314.313	0.472	correct	2back	Block1	2back/STIM_028.jpg
318.058	0.689	correct	2back	Block1	2back/STIM_029.jpg
321.064	0.842	correct	2back	Block1	2back/STIM_029.jpg
325.597	0.93	correct	2back	Block1	2back/STIM_029.jpg
328.556	0.739	incorrect	2back	Block1	2back/STIM_030.jpg
331.568	0.768	correct	2back	Block1	2back/STIM_030.jpg
336.017	0.824	correct	2back	Block1	2back/STIM_030.jpg
340.322	0.729	correct	2back	Block1	2back/STIM_031.jpg
343.407	1.007	incorrect	2back	Block1	2back/STIM_031.jpg
347.722	0.802	correct	2back	Block1	2back/STIM_031.jpg
352.412	0.881	correct	2back	Block1	2back/STIM_032.jpg
357.026	0.596	correct	2back	Block1	2back/STIM_032.jpg
361.443	0.428	correct	2back	Block1	2back/STIM_032.jpg
364.037	0.659	correct	2back	Block1	2back/STIM_033.jpg
368.624	0.753	correct	2back	Block1	2back/STIM_033.jpg
372.028	0.534	correct	2back	Block1	2back/STIM_033.jpg
376.137	0.585	incorrect	2back	Block1	2back/STIM_034.jpg
380.035	0.681	correct	2back	Block1	2back/STIM_034.jpg
383.442	0.798	correct	2back	Block1	2back/STIM_034.jpg
387.432	0.562	correct	2back	Block1	2back/STIM_035.jpg
391.913	0.453	correct	2back	Block1	2back/STIM_035.jpg
395.251	0.697	correct	2back	Block1	2back/STIM_035.jpg
398.724	1.035	correct	2back	Block1	2back/STIM_036.jpg
403.712	0.557	incorrect	2back	Block1	2back/STIM_036.jpg
406.484	0.97	correct	2back	Block1	2back/STIM_036.jpg
410.215	0.883	incorrect	2back	Block1	2back/STIM_037.jpg
413.192	0.962	correct	2back	Block1	2back/STIM_037.jpg
418.121	0.701	correct	2back	Block1	2back/STIM_037.jpg
421.659	0.516	incorrect	2back	Block1	2back/STIM_038.jpg
425.992	0.891	correct	2back	Block1	2back/STIM_038.jpg
430.161	0.777	incorrect	2back	Block1	2back/STIM_038.jpg
434.367	0.482	correct	2back	Block1	2back/STIM_039.jpg
437.977	0.533	correct	2back	Block1	2back/STIM_039.jpg
440.81	0.694	incorrect	2back	Block1	2back/STIM_039.jpg
444.954	0.461	correct	0back	Block1	0back/STIM_000.jpg
448.654	0.58	correct	0back	Block1	0back/STIM_000.jpg
451.696	0.502	incorrect	0back	Block1	0back/STIM_000.jpg
454.52	0.582	correct	0back	Block1	0back/STIM_001.jpg
457.14	0.351	correct	0back	Block1	0back/STIM_001.jpg
460.647	0.614	correct	0back	Block1	0back/STIM_001.jpg
463.418	0.344	correct	0back	Block1	0back/STIM_002.jpg
467.761	0.33	incorrect	0back	Block1	0back/STIM_002.jpg
470.164	0.565	correct	0back	Block1	0back/STIM_002.jpg
473.607	0.399	correct	0back	Block1	0back/STIM_003.jpg
476.939	0.329	incorrect	0back	Block1	0back/STIM_003.jpg
480.873	0.375	correct	0back	Block1	0back/STIM_003.jpg
483.877	0.53	correct	0back	Block1	0back/STIM_004.jpg
486.964	0.551	correct	0back	Block1	0back/STIM_004.jpg
491.328	0.313	correct	0back	Block1	0back/STIM_004.jpg
493.701	0.583	correct	0back	Block1	0back/STIM_005.jpg
497.745	0.427	correct	0back	Block1	0back/STIM_005.jpg
501.633	0.534	incorrect	0back	Block1	0back/STIM_005.jpg
505.482	0.548	correct	0back	Block1	0back/STIM_006.jpg
508.367	0.392	correct	0back	Block1	0back/STIM_006.jpg
511.316	0.355	correct	0back	Block1	0back/STIM_006.jpg
514.324	0.537	correct	0back	Block1	0back/STIM_007.jpg
517.656	0.608	correct	0back	Block1	0back/STIM_007.jpg
520.797	0.466	correct	0back	Block1	0back/STIM_007.jpg
524.095	0.528	incorrect	0back	Block1	0back/STIM_008.jpg
527.491	0.592	correct	0back	Block1	0back/STIM_008.jpg
530.82	0.441	incorrect	0back	Block1	0back/STIM_008.jpg
534.513	0.348	correct	0back	Block1	0back/STIM_009.jpg
537.323	0.48	correct	0back	Block1	0back/STIM_009.jpg
539.966	0.402	correct	0back	Block1	0back/STIM_009.jpg
544.15	0.391	correct	0back	Block1	0back/STIM_010.jpg
548.048	0.379	incorrect	0back	Block1	0back/STIM_010.jpg
552.419	0.549	correct	0back	Block1	0back/STIM_010.jpg
556.652	0.362	correct	0back	Block1	0back/STIM_011.jpg
560.034	0.501	incorrect	0back	Block1	0back/STIM_011.jpg
562.583	0.436	correct	0back	Block1	0back/STIM_011.jpg
566.037	0.396	incorrect	0back	Block1	0back/STIM_012.jpg
569.279	0.47	correct	0back	Block1	0back/STIM_012.jpg
572.61	0.386	correct	0back	Block1	0back/STIM_012.jpg
575.482	0.591	correct	0back	Block1	0back/STIM_013.jpg
578.833	0.33	incorrect	0back	Block1	0back/STIM_013.jpg
581.449	0.502	incorrect	0back	Block1	0back/STIM_013.jpg
585.372	0.551	correct	0back	Block1	0back/STIM_014.jpg
589.828	0.448	incorrect	0back	Block1	0back/STIM_014.jpg
594.173	0.33	correct	0back	Block1	0back/STIM_014.jpg
596.785	0.334	correct	0back	Block1	0back/STIM_015.jpg
600.236	0.574	correct	0back	Block1	0back/STIM_015.jpg
603.265	0.34	correct	0back	Block1	0back/STIM_015.jpg
606.321	0.325	correct	0back	Block1	0back/STIM_016.jpg
609.772	0.429	correct	0back	Block1	0back/STIM_016.jpg
613.851	0.388	incorrect	0back	Block1	0back/STIM_016.jpg
617.189	0.583	correct	0back	Block1	0back/STIM_017.jpg
621.452	0.331	correct	0back	Block1	0back/STIM_017.jpg
625.36	0.328	correct	0back	Block1	0back/STIM_017.jpg
627.863	0.579	incorrect	0back	Block1	0back/STIM_018.jpg
630.975	0.568	correct	0back	Block1	0back/STIM_018.jpg
633.643	0.479	correct	0back	Block1	0back/STIM_018.jpg
636.737	0.346	incorrect	0back	Block1	0back/STIM_019.jpg
640.666	0.405	correct	0back	Block1	0back/STIM_019.jpg
644.635	0.482	correct	0back	Block1	0back/STIM_019.jpg
647.667	0.721	correct	2back	Block2	2back/STIM_000.jpg
651.243	0.712	incorrect	2back	Block2	2back/STIM_000.jpg
654.768	0.739	correct	2back	Block2	2back/STIM_000.jpg
658.465	0.705	correct	2back	Block2	2back/STIM_001.jpg
663.004	0.758	incorrect	2back	Block2	2back/STIM_001.jpg
666.393	0.778	correct	2back	Block2	2back/STIM_001.jpg
670.436	0.572	correct	2back	Block2	2back/STIM_002.jpg
674.665	0.634	incorrect	2back	Block2	2back/STIM_002.jpg
677.689	0.385	correct	2back	Block2	2back/STIM_002.jpg
681.334	0.712	incorrect	2back	Block2	2back/STIM_003.jpg
686.025	0.615	incorrect	2back	Block2	2back/STIM_003.jpg
688.961	0.364	incorrect	2back	Block2	2back/STIM_003.jpg
692.088	0.914	incorrect	2back	Block2	2back/STIM_004.jpg
696.746	0.717	correct	2back	Block2	2back/STIM_004.jpg
699.58	0.657	correct	2back	Block2	2back/STIM_004.jpg
703.942	0.765	incorrect	2back	Block2	2back/STIM_005.jpg
708.07	0.506	correct	2back	Block2	2back/STIM_005.jpg
711.316	0.452	correct	2back	Block2	2back/STIM_005.jpg
713.837	0.856	incorrect	2back	Block2	2back/STIM_006.jpg
718.519	0.484	correct	2back	Block2	2back/STIM_006.jpg
722.197	0.559	correct	2back	Block2	2back/STIM_006.jpg
725.936	0.414	correct	2back	Block2	2back/STIM_007.jpg
728.836	0.865	incorrect	2back	Block2	2back/STIM_007.jpg
732.542	0.448	correct	2back	Block2	2back/STIM_007.jpg
735.279	0.457	correct	2back	Block2	2back/STIM_008.jpg
738.235	0.401	correct	2back	Block2	2back/STIM_008.jpg
741.589	0.418	incorrect	2back	Block2	2back/STIM_008.jpg
744.754	0.849	incorrect	2back	Block2	2back/STIM_009.jpg
747.873	0.418	correct	2back	Block2	2back/STIM_009.jpg
751.705	0.622	incorrect	2back	Block2	2back/STIM_009.jpg
756.161	0.747	correct	2back	Block2	2back/STIM_010.jpg
759.472	0.62	incorrect	2back	Block2	2back/STIM_010.jpg
763.252	0.634	correct	2back	Block2	2back/STIM_010.jpg
766.145	0.5	correct	2back	Block2	2back/STIM_011.jpg
769.273	0.504	correct	2back	Block2	2back/STIM_011.jpg
772.268	0.599	correct	2back	Block2	2back/STIM_011.jpg
776.04	0.726	incorrect	2back	Block2	2back/STIM_012.jpg
779.713	0.574	correct	2back	Block2	2back/STIM_012.jpg
782.781	0.66	correct	2back	Block2	2back/STIM_012.jpg
786.57	0.54	correct	2back	Block2	2back/STIM_013.jpg
791.062	0.613	incorrect	2back	Block2	2back/STIM_013.jpg
794.34	0.512	incorrect	2back	Block2	2back/STIM_013.jpg
798.298	0.495	incorrect	2back	Block2	2back/STIM_014.jpg
802.562	0.516	correct	2back	Block2	2back/STIM_014.jpg
805.457	0.387	correct	2back	Block2	2back/STIM_014.jpg
809.681	0.797	correct	2back	Block2	2back/STIM_015.jpg
813.786	0.815	correct	2back	Block2	2back/STIM_015.jpg
818.138	0.729	incorrect	2back	Block2	2back/STIM_015.jpg
822.779	0.6	correct	2back	Block2	2back/STIM_016.jpg
827.335	0.699	correct	2back	Block2	2back/STIM_016.jpg
831.912	0.421	correct	2back	Block2	2back/STIM_016.jpg
835.18	0.832	incorrect	2back	Block2	2back/STIM_017.jpg
839.557	0.464	correct	2back	Block2	2back/STIM_017.jpg
843.009	0.588	incorrect	2back	Block2	2back/STIM_017.jpg
846.312	0.884	correct	2back	Block2	2back/STIM_018.jpg
851.086	0.789	correct	2back	Block2	2back/STIM_018.jpg
854.75	0.571	correct	2back	Block2	2back/STIM_018.jpg
858.346	0.858	correct	2back	Block2	2back/STIM_019.jpg
861.505	0.57	correct	2back	Block2	2back/STIM_019.jpg
864.374	0.487	incorrect	2back	Block2	2back/STIM_019.jpg
868.639	0.573	incorrect	2back	Block2	2back/STIM_020.jpg
872.456	0.564	correct	2back	Block2	2back/STIM_020.jpg
875.852	0.54	correct	2back	Block2	2back/STIM_020.jpg
879.468	0.866	correct	2back	Block2	2back/STIM_021.jpg
883.09	0.566	correct	2back	Block2	2back/STIM_021.jpg
886.356	0.637	incorrect	2back	Block2	2back/STIM_021.jpg
890.117	0.569	correct	2back	Block2	2back/STIM_022.jpg
893.648	0.502	correct	2back	Block2	2back/STIM_022.jpg
897.713	0.559	correct	2back	Block2	2back/STIM_022.jpg
900.554	0.615	correct	2back	Block2	2back/STIM_023.jpg
903.713	0.576	incorrect	2back	Block2	2back/STIM_023.jpg
906.432	0.374	correct	2back	Block2	2back/STIM_023.jpg
909.001	0.736	correct	2back	Block2	2back/STIM_024.jpg
913.046	0.437	correct	2back	Block2	2back/STIM_024.jpg
915.86	0.774	correct	2back	Block2	2back/STIM_024.jpg
918.684	0.445	correct	2back	Block2	2back/STIM_025.jpg
921.574	0.735	correct	2back	Block2	2back/STIM_025.jpg
925.681	0.456	correct	2back	Block2	2back/STIM_025.jpg
928.28	0.822	correct	2back	Block2	2back/STIM_026.jpg
931.731	0.679	correct	2back	Block2	2back/STIM_026.jpg
936.36	0.653	correct	2back	Block2	2back/STIM_026.jpg
939.711	0.57	correct	2back	Block2	2back/STIM_027.jpg
942.575	0.455	correct	2back	Block2	2back/STIM_027.jpg
946.267	0.453	correct	2back	Block2	2back/STIM_027.jpg
949.241	0.649	incorrect	2back	Block2	2back/STIM_028.jpg
953.184	0.468	correct	2back	Block2	2back/STIM_028.jpg
957.033	0.624	correct	2back	Block2	2back/STIM_028.jpg
960.124	0.549	correct	2back	Block2	2back/STIM_029.jpg
962.877	0.75	correct	2back	Block2	2back/STIM_029.jpg
967.22	0.81	correct	2back	Block2	2back/STIM_029.jpg
971.865	0.758	correct	2back	Block2	2back/STIM_030.jpg
976.602	0.809	correct	2back	Block2	2back/STIM_030.jpg
981.037	0.463	incorrect	2back	Block2	2back/STIM_030.jpg
984.78	0.828	correct	2back	Block2	2back/STIM_031.jpg
988.308	0.796	correct	2back	Block2	2back/STIM_031.jpg
992.039	0.667	correct	2back	Block2	2back/STIM_031.jpg
996.63	0.508	incorrect	2back	Block2	2back/STIM_032.jpg
999.876	0.391	correct	2back	Block2	2back/STIM_032.jpg
1003.951	0.564	correct	2back	Block2	2back/STIM_032.jpg
1006.769	0.42	incorrect	2back	Block2	2back/STIM_033.jpg
1010.809	0.437	correct	2back	Block2	2back/STIM_033.jpg
1015.081	0.501	correct	2back	Block2	2back/STIM_033.jpg
1018.678	0.65	incorrect	2back	Block2	2back/STIM_034.jpg
1022.941	0.492	correct	2back	Block2	2back/STIM_034.jpg
1026.835	0.448	incorrect	2back	Block2	2back/STIM_034.jpg
1030.279	0.568	correct	2back	Block2	2back/STIM_035.jpg
1033.864	0.69	correct	2back	Block2	2back/STIM_035.jpg
1036.81	0.471	correct	2back	Block2	2back/STIM_035.jpg
1039.516	0.467	incorrect	2back	Block2	2back/STIM_036.jpg
1042.809	0.497	correct	2back	Block2	2back/STIM_036.jpg
1045.652	0.48	correct	2back	Block2	2back/STIM_036.jpg
1049.846	0.685	correct	2back	Block2	2back/STIM_037.jpg
1053.427	0.86	incorrect	2back	Block2	2back/STIM_037.jpg
1058.101	0.491	correct	2back	Block2	2back/STIM_037.jpg
1061.441	0.773	correct	2back	Block2	2back/STIM_038.jpg
1065.974	0.388	incorrect	2back	Block2	2back/STIM_038.jpg
1069.222	0.362	incorrect	2back	Block2	2back/STIM_038.jpg
1073.5	0.68	correct	2back	Block2	2back/STIM_039.jpg
1076.991	0.404	correct	2back	Block2	2back/STIM_039.jpg
1081.321	0.66	incorrect	2back	Block2	2back/STIM_039.jpg
1085.541	0.455	correct	0back	Block2	0back/STIM_000.jpg
1088.649	0.346	correct	0back	Block2	0back/STIM_000.jpg
1091.628	0.494	correct	0back	Block2	0back/STIM_000.jpg
1095.069	0.595	correct	0back	Block2	0back/STIM_001.jpg
1098.519	0.595	correct	0back	Block2	0back/STIM_001.jpg
1101.591	0.429	correct	0back	Block2	0back/STIM_001.jpg
1104.159	0.36	correct	0back	Block2	0back/STIM_002.jpg
1107.04	0.45	correct	0back	Block2	0back/STIM_002.jpg
1110.739	0.416	incorrect	0back	Block2	0back/STIM_002.jpg
1114.641	0.41	correct	0back	Block2	0back/STIM_003.jpg
1117.939	0.457	correct	0back	Block2	0back/STIM_003.jpg
1121.856	0.557	correct	0back	Block2	0back/STIM_003.jpg
1126.194	0.425	incorrect	0back	Block2	0back/STIM_004.jpg
1129.055	0.427	incorrect	0back	Block2	0back/STIM_004.jpg
1132.932	0.524	correct	0back	Block2	0back/STIM_004.jpg
1136.469	0.613	correct	0back	Block2	0back/STIM_005.jpg
1140.239	0.555	correct	0back	Block2	0back/STIM_005.jpg
1144.211	0.378	correct	0back	Block2	0back/STIM_005.jpg
1147.345	0.491	incorrect	0back	Block2	0back/STIM_006.jpg
1150.068	0.336	correct	0back	Block2	0back/STIM_006.jpg
1154.288	0.588	correct	0back	Block2	0back/STIM_006.jpg
1157.0	0.43	incorrect	0back	Block2	0back/STIM_007.jpg
1161.338	0.444	correct	0back	Block2	0back/STIM_007.jpg
1164.807	0.498	correct	0back	Block2	0back/STIM_007.jpg
1168.247	0.444	correct	0back	Block2	0back/STIM_008.jpg
1172.163	0.356	correct	0back	Block2	0back/STIM_008.jpg
1175.531	0.472	correct	0back	Block2	0back/STIM_008.jpg
1179.277	0.51	incorrect	0back	Block2	0back/STIM_009.jpg
1183.069	0.61	correct	0back	Block2	0back/STIM_009.jpg
1187.476	0.392	incorrect	0back	Block2	0back/STIM_009.jpg
1191.32	0.612	incorrect	0back	Block2	0back/STIM_010.jpg
1194.625	0.537	correct	0back	Block2	0back/STIM_010.jpg
1197.574	0.553	correct	0back	Block2	0back/STIM_010.jpg
1200.853	0.401	correct	0back	Block2	0back/STIM_011.jpg
1204.511	0.53	correct	0back	Block2	0back/STIM_011.jpg
1208.463	0.438	incorrect	0back	Block2	0back/STIM_011.jpg
1210.937	0.612	incorrect	0back	Block2	0back/STIM_012.jpg
1213.951	0.435	incorrect	0back	Block2	0back/STIM_012.jpg
1217.376	0.537	correct	0back	Block2	0back/STIM_012.jpg
1221.702	0.392	correct	0back	Block2	0back/STIM_013.jpg
1224.656	0.611	correct	0back	Block2	0back/STIM_013.jpg
1227.414	0.466	correct	0back	Block2	0back/STIM_013.jpg
1231.201	0.52	correct	0back	Block2	0back/STIM_014.jpg
1233.999	0.57	incorrect	0back	Block2	0back/STIM_014.jpg
1238.209	0.515	correct	0back	Block2	0back/STIM_014.jpg
1241.67	0.521	correct	0back	Block2	0back/STIM_015.jpg
1244.425	0.34	incorrect	0back	Block2	0back/STIM_015.jpg
1248.628	0.389	correct	0back	Block2	0back/STIM_015.jpg
1251.032	0.463	correct	0back	Block2	0back/STIM_016.jpg
1253.996	0.511	incorrect	0back	Block2	0back/STIM_016.jpg
1257.549	0.325	incorrect	0back	Block2	0back/STIM_016.jpg
1261.339	0.509	correct	0back	Block2	0back/STIM_017.jpg
1264.749	0.373	correct	0back	Block2	0back/STIM_017.jpg
1267.627	0.601	correct	0back	Block2	0back/STIM_017.jpg
1270.646	0.611	correct	0back	Block2	0back/STIM_018.jpg
1275.088	0.393	correct	0back	Block2	0back/STIM_018.jpg
1278.534	0.526	incorrect	0back	Block2	0back/STIM_018.jpg
1282.144	0.499	correct	0back	Block2	0back/STIM_019.jpg
1286.437	0.548	incorrect	0back	Block2	0back/STIM_019.jpg
1290.431	0.604	correct	0back	Block2	0back/STIM_019.jpg
1293.538	0.497	incorrect	2back	Block3	2back/STIM_000.jpg
1296.222	0.378	incorrect	2back	Block3	2back/STIM_000.jpg
1298.702	0.632	correct	2back	Block3	2back/STIM_000.jpg
1302.046	0.52	correct	2back	Block3	2back/STIM_001.jpg
1306.484	0.635	correct	2back	Block3	2back/STIM_001.jpg
1310.817	0.536	correct	2back	Block3	2back/STIM_001.jpg
1314.577	0.366	incorrect	2back	Block3	2back/STIM_002.jpg
1317.802	0.533	correct	2back	Block3	2back/STIM_002.jpg
1322.131	0.653	correct	2back	Block3	2back/STIM_002.jpg
1325.625	0.573	correct	2back	Block3	2back/STIM_003.jpg
1328.306	0.688	incorrect	2back	Block3	2back/STIM_003.jpg
1332.019	0.475	correct	2back	Block3	2back/STIM_003.jpg
1334.705	0.591	correct	2back	Block3	2back/STIM_004.jpg
1337.314	0.733	correct	2back	Block3	2back/STIM_004.jpg
1340.184	0.593	correct	2back	Block3	2back/STIM_004.jpg
1342.977	0.445	correct	2back	Block3	2back/STIM_005.jpg
1346.059	0.342	correct	2back	Block3	2back/STIM_005.jpg
1348.546	0.35	correct	2back	Block3	2back/STIM_005.jpg
1351.996	0.623	correct	2back	Block3	2back/STIM_006.jpg
1356.26	0.454	correct	2back	Block3	2back/STIM_006.jpg
1359.772	0.348	correct	2back	Block3	2back/STIM_006.jpg
1363.427	0.517	correct	2back	Block3	2back/STIM_007.jpg
1366.171	0.655	incorrect	2back	Block3	2back/STIM_007.jpg
1370.785	0.705	correct	2back	Block3	2back/STIM_007.jpg
1375.029	0.414	correct	2back	Block3	2back/STIM_008.jpg
1378.671	0.413	incorrect	2back	Block3	2back/STIM_008.jpg
1381.435	0.484	incorrect	2back	Block3	2back/STIM_008.jpg
1384.778	0.54	incorrect	2back	Block3	2back/STIM_009.jpg
1388.854	0.528	correct	2back	Block3	2back/STIM_009.jpg
1393.306	0.481	correct	2back	Block3	2back/STIM_009.jpg
1397.734	0.584	correct	2back	Block3	2back/STIM_010.jpg
1401.811	0.512	correct	2back	Block3	2back/STIM_010.jpg
1404.764	0.692	correct	2back	Block3	2back/STIM_010.jpg
1407.786	0.554	correct	2back	Block3	2back/STIM_011.jpg
1411.271	0.668	correct	2back	Block3	2back/STIM_011.jpg
1414.039	0.61	incorrect	2back	Block3	2back/STIM_011.jpg
1418.115	0.341	incorrect	2back	Block3	2back/STIM_012.jpg
1420.827	0.385	incorrect	2back	Block3	2back/STIM_012.jpg
1424.397	0.352	incorrect	2back	Block3	2back/STIM_012.jpg
1428.478	0.479	correct	2back	Block3	2back/STIM_013.jpg
1432.586	0.367	correct	2back	Block3	2back/STIM_013.jpg
1435.066	0.531	incorrect	2back	Block3	2back/STIM_013.jpg
1439.431	0.748	incorrect	2back	Block3	2back/STIM_014.jpg
1442.798	0.408	correct	2back	Block3	2back/STIM_014.jpg
1446.953	0.586	incorrect	2back	Block3	2back/STIM_014.jpg
1450.901	0.662	correct	2back	Block3	2back/STIM_015.jpg
1454.037	0.612	correct	2back	Block3	2back/STIM_015.jpg
1458.278	0.587	correct	2back	Block3	2back/STIM_015.jpg
1461.033	0.488	correct	2back	Block3	2back/STIM_016.jpg
1464.152	0.728	correct	2back	Block3	2back/STIM_016.jpg
1466.95	0.704	correct	2back	Block3	2back/STIM_016.jpg
1470.128	0.512	correct	2back	Block3	2back/STIM_017.jpg
1474.51	0.472	correct	2back	Block3	2back/STIM_017.jpg
1477.002	0.749	correct	2back	Block3	2back/STIM_017.jpg
1480.489	0.419	incorrect	2back	Block3	2back/STIM_018.jpg
1484.492	0.699	correct	2back	Block3	2back/STIM_018.jpg
1487.326	0.631	correct	2back	Block3	2back/STIM_018.jpg
1490.69	0.384	incorrect	2back	Block3	2back/STIM_019.jpg
1493.424	0.711	correct	2back	Block3	2back/STIM_019.jpg
1497.928	0.412	incorrect	2back	Block3	2back/STIM_019.jpg
1502.31	0.356	incorrect	2back	Block3	2back/STIM_020.jpg
1505.304	0.648	correct	2back	Block3	2back/STIM_020.jpg
1509.812	0.497	incorrect	2back	Block3	2back/STIM_020.jpg
1513.357	0.333	correct	2back	Block3	2back/STIM_021.jpg
1516.925	0.546	correct	2back	Block3	2back/STIM_021.jpg
1520.203	0.38	correct	2back	Block3	2back/STIM_021.jpg
1524.556	0.545	correct	2back	Block3	2back/STIM_022.jpg
1528.781	0.648	correct	2back	Block3	2back/STIM_022.jpg
1531.907	0.534	correct	2back	Block3	2back/STIM_022.jpg
1534.671	0.722	correct	2back	Block3	2back/STIM_023.jpg
1537.881	0.597	correct	2back	Block3	2back/STIM_023.jpg
1541.043	0.472	correct	2back	Block3	2back/STIM_023.jpg
1544.317	0.74	correct	2back	Block3	2back/STIM_024.jpg
1547.722	0.502	correct	2back	Block3	2back/STIM_024.jpg
1550.307	0.46	incorrect	2back	Block3	2back/STIM_024.jpg
1553.197	0.528	correct	2back	Block3	2back/STIM_025.jpg
1556.802	0.458	correct	2back	Block3	2back/STIM_025.jpg
1559.925	0.328	correct	2back	Block3	2back/STIM_025.jpg
1562.434	0.403	correct	2back	Block3	2back/STIM_026.jpg
1565.196	0.453	correct	2back	Block3	2back/STIM_026.jpg
1569.014	0.351	correct	2back	Block3	2back/STIM_026.jpg
1571.759	0.54	correct	2back	Block3	2back/STIM_027.jpg
1576.174	0.429	correct	2back	Block3	2back/STIM_027.jpg
1578.72	0.646	incorrect	2back	Block3	2back/STIM_027.jpg
1581.986	0.593	correct	2back	Block3	2back/STIM_028.jpg
1585.202	0.405	correct	2back	Block3	2back/STIM_028.jpg
1589.279	0.589	incorrect	2back	Block3	2back/STIM_028.jpg
1593.102	0.524	correct	2back	Block3	2back/STIM_029.jpg
1597.398	0.439	incorrect	2back	Block3	2back/STIM_029.jpg
1600.873	0.571	correct	2back	Block3	2back/STIM_029.jpg
1605.298	0.506	incorrect	2back	Block3	2back/STIM_030.jpg
1608.775	0.731	correct	2back	Block3	2back/STIM_030.jpg
1613.4	0.484	correct	2back	Block3	2back/STIM_030.jpg
1616.939	0.557	correct	2back	Block3	2back/STIM_031.jpg
1620.26	0.667	correct	2back	Block3	2back/STIM_031.jpg
1623.972	0.657	correct	2back	Block3	2back/STIM_031.jpg
1627.639	0.372	incorrect	2back	Block3	2back/STIM_032.jpg
1631.93	0.388	incorrect	2back	Block3	2back/STIM_032.jpg
1635.429	0.353	correct	2back	Block3	2back/STIM_032.jpg
1638.446	0.37	incorrect	2back	Block3	2back/STIM_033.jpg
1641.91	0.601	incorrect	2back	Block3	2back/STIM_033.jpg
1646.295	0.525	correct	2back	Block3	2back/STIM_033.jpg
1650.357	0.378	correct	2back	Block3	2back/STIM_034.jpg
1654.009	0.473	correct	2back	Block3	2back/STIM_034.jpg
1657.864	0.592	correct	2back	Block3	2back/STIM_034.jpg
1662.313	0.403	correct	2back	Block3	2back/STIM_035.jpg
1664.865	0.65	incorrect	2back	Block3	2back/STIM_035.jpg
1669.102	0.701	correct	2back	Block3	2back/STIM_035.jpg
1673.057	0.332	incorrect	2back	Block3	2back/STIM_036.jpg
1676.999	0.465	incorrect	2back	Block3	2back/STIM_036.jpg
1681.236	0.744	incorrect	2back	Block3	2back/STIM_036.jpg
1685.282	0.365	correct	2back	Block3	2back/STIM_037.jpg
1689.0	0.438	correct	2back	Block3	2back/STIM_037.jpg
1691.86	0.57	incorrect	2back	Block3	2back/STIM_037.jpg
1694.634	0.664	correct	2back	Block3	2back/STIM_038.jpg
1697.427	0.606	correct	2back	Block3	2back/STIM_038.jpg
1701.496	0.451	correct	2back	Block3	2back/STIM_038.jpg
1704.673	0.637	incorrect	2back	Block3	2back/STIM_039.jpg
1707.317	0.641	incorrect	2back	Block3	2back/STIM_039.jpg
1710.251	0.463	correct	2back	Block3	2back/STIM_039.jpg
1713.799	0.573	incorrect	0back	Block3	0back/STIM_000.jpg
1717.559	0.505	incorrect	0back	Block3	0back/STIM_000.jpg
1721.541	0.59	correct	0back	Block3	0back/STIM_000.jpg
1725.345	0.412	incorrect	0back	Block3	0back/STIM_001.jpg
1729.284	0.445	incorrect	0back	Block3	0back/STIM_001.jpg
1732.177	0.324	correct	0back	Block3	0back/STIM_001.jpg
1736.036	0.555	correct	0back	Block3	0back/STIM_002.jpg
1738.624	0.568	correct	0back	Block3	0back/STIM_002.jpg
1742.535	0.561	correct	0back	Block3	0back/STIM_002.jpg
1746.81	0.541	correct	0back	Block3	0back/STIM_003.jpg
1751.009	0.398	correct	0back	Block3	0back/STIM_003.jpg
1753.61	0.345	correct	0back	Block3	0back/STIM_003.jpg
1757.266	0.324	correct	0back	Block3	0back/STIM_004.jpg
1761.569	0.384	correct	0back	Block3	0back/STIM_004.jpg
1765.692	0.406	correct	0back	Block3	0back/STIM_004.jpg
1769.868	0.583	correct	0back	Block3	0back/STIM_005.jpg
1774.345	0.356	incorrect	0back	Block3	0back/STIM_005.jpg
1778.057	0.513	correct	0back	Block3	0back/STIM_005.jpg
1781.593	0.458	correct	0back	Block3	0back/STIM_006.jpg
1785.32	0.397	correct	0back	Block3	0back/STIM_006.jpg
1788.261	0.341	correct	0back	Block3	0back/STIM_006.jpg
1791.967	0.465	correct	0back	Block3	0back/STIM_007.jpg
1795.578	0.561	incorrect	0back	Block3	0back/STIM_007.jpg
1799.638	0.453	correct	0back	Block3	0back/STIM_007.jpg
1803.312	0.58	incorrect	0back	Block3	0back/STIM_008.jpg
1807.741	0.346	correct	0back	Block3	0back/STIM_008.jpg
1810.097	0.391	correct	0back	Block3	0back/STIM_008.jpg
1813.398	0.497	correct	0back	Block3	0back/STIM_009.jpg
1816.329	0.523	correct	0back	Block3	0back/STIM_009.jpg
1819.57	0.487	incorrect	0back	Block3	0back/STIM_009.jpg
1822.379	0.509	correct	0back	Block3	0back/STIM_010.jpg
1826.052	0.568	correct	0back	Block3	0back/STIM_010.jpg
1830.002	0.555	correct	0back	Block3	0back/STIM_010.jpg
1832.714	0.399	correct	0back	Block3	0back/STIM_011.jpg
1836.953	0.576	correct	0back	Block3	0back/STIM_011.jpg
1840.061	0.512	correct	0back	Block3	0back/STIM_011.jpg
1843.809	0.32	correct	0back	Block3	0back/STIM_012.jpg
1847.83	0.618	correct	0back	Block3	0back/STIM_012.jpg
1852.161	0.427	correct	0back	Block3	0back/STIM_012.jpg
1855.692	0.5	correct	0back	Block3	0back/STIM_013.jpg
1858.213	0.525	incorrect	0back	Block3	0back/STIM_013.jpg
1862.314	0.602	correct	0back	Block3	0back/STIM_013.jpg
1865.365	0.493	incorrect	0back	Block3	0back/STIM_014.jpg
1869.026	0.357	incorrect	0back	Block3	0back/STIM_014.jpg
1872.693	0.456	correct	0back	Block3	0back/STIM_014.jpg
1875.678	0.544	correct	0back	Block3	0back/STIM_015.jpg
1878.477	0.413	incorrect	0back	Block3	0back/STIM_015.jpg
1882.137	0.313	incorrect	0back	Block3	0back/STIM_015.jpg
1886.083	0.352	incorrect	0back	Block3	0back/STIM_016.jpg
1890.188	0.507	incorrect	0back	Block3	0back/STIM_016.jpg
1893.407	0.336	incorrect	0back	Block3	0back/STIM_016.jpg
1896.205	0.525	correct	0back	Block3	0back/STIM_017.jpg
1900.473	0.587	correct	0back	Block3	0back/STIM_017.jpg
1904.151	0.413	incorrect	0back	Block3	0back/STIM_017.jpg
1907.538	0.615	incorrect	0back	Block3	0back/STIM_018.jpg
1911.984	0.365	correct	0back	Block3	0back/STIM_018.jpg
1914.675	0.518	correct	0back	Block3	0back/STIM_018.jpg
1918.392	0.312	correct	0back	Block3	0back/STIM_019.jpg
1920.779	0.404	correct	0back	Block3	0back/STIM_019.jpg
1924.167	0.577	correct	0back	Block3	0back/STIM_019.jpg
1927.773	0.678	correct	2back	Block4	2back/STIM_000.jpg
1931.376	0.392	correct	2back	Block4	2back/STIM_000.jpg
1935.087	0.663	correct	2back	Block4	2back/STIM_000.jpg
1939.122	0.69	correct	2back	Block4	2back/STIM_001.jpg
1942.811	0.344	incorrect	2back	Block4	2back/STIM_001.jpg
1946.691	0.498	incorrect	2back	Block4	2back/STIM_001.jpg
1950.133	0.532	correct	2back	Block4	2back/STIM_002.jpg
1953.856	0.719	incorrect	2back	Block4	2back/STIM_002.jpg
1957.09	0.393	correct	2back	Block4	2back/STIM_002.jpg
1960.489	0.637	correct	2back	Block4	2back/STIM_003.jpg
1964.037	0.666	correct	2back	Block4	2back/STIM_003.jpg
1967.382	0.647	correct	2back	Block4	2back/STIM_003.jpg
1970.785	0.438	correct	2back	Block4	2back/STIM_004.jpg
1974.263	0.352	correct	2back	Block4	2back/STIM_004.jpg
1976.858	0.709	correct	2back	Block4	2back/STIM_004.jpg
1980.736	0.405	correct	2back	Block4	2back/STIM_005.jpg
1984.14	0.496	incorrect	2back	Block4	2back/STIM_005.jpg
1986.637	0.454	correct	2back	Block4	2back/STIM_005.jpg
1989.221	0.488	correct	2back	Block4	2back/STIM_006.jpg
1993.053	0.449	correct	2back	Block4	2back/STIM_006.jpg
1995.813	0.517	incorrect	2back	Block4	2back/STIM_006.jpg
1998.618	0.561	correct	2back	Block4	2back/STIM_007.jpg
2001.802	0.722	incorrect	2back	Block4	2back/STIM_007.jpg
2006.286	0.519	incorrect	2back	Block4	2back/STIM_007.jpg
2009.562	0.407	correct	2back	Block4	2back/STIM_008.jpg
2012.843	0.435	correct	2back	Block4	2back/STIM_008.jpg
2017.108	0.363	correct	2back	Block4	2back/STIM_008.jpg
2020.314	0.326	correct	2back	Block4	2back/STIM_009.jpg
2024.293	0.542	correct	2back	Block4	2back/STIM_009.jpg
2028.616	0.338	correct	2back	Block4	2back/STIM_009.jpg
2031.138	0.602	correct	2back	Block4	2back/STIM_010.jpg
2034.669	0.612	correct	2back	Block4	2back/STIM_010.jpg
2038.4	0.653	correct	2back	Block4	2back/STIM_010.jpg
2042.902	0.585	correct	2back	Block4	2back/STIM_011.jpg
2047.121	0.498	correct	2back	Block4	2back/STIM_011.jpg
2049.985	0.499	correct	2back	Block4	2back/STIM_011.jpg
2053.249	0.625	correct	2back	Block4	2back/STIM_012.jpg
2056.899	0.563	correct	2back	Block4	2back/STIM_012.jpg
2060.769	0.631	correct	2back	Block4	2back/STIM_012.jpg
2064.333	0.578	correct	2back	Block4	2back/STIM_013.jpg
2067.205	0.468	correct	2back	Block4	2back/STIM_013.jpg
2070.355	0.47	correct	2back	Block4	2back/STIM_013.jpg
2073.769	0.553	correct	2back	Block4	2back/STIM_014.jpg
2076.554	0.497	correct	2back	Block4	2back/STIM_014.jpg
2079.968	0.532	correct	2back	Block4	2back/STIM_014.jpg
2083.869	0.521	correct	2back	Block4	2back/STIM_015.jpg
2086.612	0.358	correct	2back	Block4	2back/STIM_015.jpg
2089.824	0.372	correct	2back	Block4	2back/STIM_015.jpg
2093.884	0.535	correct	2back	Block4	2back/STIM_016.jpg
2098.315	0.365	correct	2back	Block4	2back/STIM_016.jpg
2100.859	0.504	correct	2back	Block4	2back/STIM_016.jpg
2105.146	0.53	correct	2back	Block4	2back/STIM_017.jpg
2108.985	0.56	correct	2back	Block4	2back/STIM_017.jpg
2111.93	0.326	correct	2back	Block4	2back/STIM_017.jpg
2115.968	0.695	correct	2back	Block4	2back/STIM_018.jpg
2118.868	0.344	incorrect	2back	Block4	2back/STIM_018.jpg
2121.848	0.682	correct	2back	Block4	2back/STIM_018.jpg
2126.249	0.436	incorrect	2back	Block4	2back/STIM_019.jpg
2129.275	0.663	correct	2back	Block4	2back/STIM_019.jpg
2132.425	0.57	correct	2back	Block4	2back/STIM_019.jpg
2135.705	0.613	correct	2back	Block4	2back/STIM_020.jpg
2138.75	0.499	correct	2back	Block4	2back/STIM_020.jpg
2142.565	0.498	correct	2back	Block4	2back/STIM_020.jpg
2146.151	0.491	correct	2back	Block4	2back/STIM_021.jpg
2149.503	0.568	correct	2back	Block4	2back/STIM_021.jpg
2152.415	0.609	correct	2back	Block4	2back/STIM_021.jpg
2156.375	0.437	correct	2back	Block4	2back/STIM_022.jpg
2160.736	0.481	correct	2back	Block4	2back/STIM_022.jpg
2164.199	0.611	correct	2back	Block4	2back/STIM_022.jpg
2168.809	0.516	correct	2back	Block4	2back/STIM_023.jpg
2172.018	0.671	correct	2back	Block4	2back/STIM_023.jpg
2174.96	0.432	correct	2back	Block4	2back/STIM_023.jpg
2179.088	0.383	correct	2back	Block4	2back/STIM_024.jpg
2183.365	0.599	correct	2back	Block4	2back/STIM_024.jpg
2186.569	0.669	incorrect	2back	Block4	2back/STIM_024.jpg
2190.202	0.488	correct	2back	Block4	2back/STIM_025.jpg
2194.347	0.627	correct	2back	Block4	2back/STIM_025.jpg
2197.235	0.727	correct	2back	Block4	2back/STIM_025.jpg
2200.677	0.332	correct	2back	Block4	2back/STIM_026.jpg
2203.824	0.478	correct	2back	Block4	2back/STIM_026.jpg
2206.516	0.484	correct	2back	Block4	2back/STIM_026.jpg
2209.766	0.42	incorrect	2back	Block4	2back/STIM_027.jpg
2213.023	0.424	correct	2back	Block4	2back/STIM_027.jpg
2216.121	0.724	correct	2back	Block4	2back/STIM_027.jpg
2219.294	0.443	correct	2back	Block4	2back/STIM_028.jpg
2222.255	0.358	correct	2back	Block4	2back/STIM_028.jpg
2226.357	0.72	incorrect	2back	Block4	2back/STIM_028.jpg
2231.015	0.524	correct	2back	Block4	2back/STIM_029.jpg
2234.047	0.541	incorrect	2back	Block4	2back/STIM_029.jpg
2237.165	0.704	correct	2back	Block4	2back/STIM_029.jpg
2241.268	0.734	correct	2back	Block4	2back/STIM_030.jpg
2244.63	0.34	incorrect	2back	Block4	2back/STIM_030.jpg
2248.729	0.737	correct	2back	Block4	2back/STIM_030.jpg
2252.233	0.404	correct	2back	Block4	2back/STIM_031.jpg
2256.438	0.506	incorrect	2back	Block4	2back/STIM_031.jpg
2259.805	0.583	correct	2back	Block4	2back/STIM_031.jpg
2263.037	0.556	correct	2back	Block4	2back/STIM_032.jpg
2267.254	0.39	correct	2back	Block4	2back/STIM_032.jpg
2270.09	0.334	correct	2back	Block4	2back/STIM_032.jpg
2273.926	0.43	correct	2back	Block4	2back/STIM_033.jpg
2277.777	0.487	correct	2back	Block4	2back/STIM_033.jpg
2282.186	0.712	correct	2back	Block4	2back/STIM_033.jpg
2284.989	0.64	correct	2back	Block4	2back/STIM_034.jpg
2287.937	0.378	incorrect	2back	Block4	2back/STIM_034.jpg
2291.287	0.518	correct	2back	Block4	2back/STIM_034.jpg
2295.135	0.356	correct	2back	Block4	2back/STIM_035.jpg
2298.03	0.547	incorrect	2back	Block4	2back/STIM_035.jpg
2301.925	0.683	correct	2back	Block4	2back/STIM_035.jpg
2306.031	0.483	correct	2back	Block4	2back/STIM_036.jpg
2310.019	0.509	correct	2back	Block4	2back/STIM_036.jpg
2313.316	0.364	correct	2back	Block4	2back/STIM_036.jpg
2315.749	0.626	correct	2back	Block4	2back/STIM_037.jpg
2319.548	0.624	correct	2back	Block4	2back/STIM_037.jpg
2323.07	0.639	incorrect	2back	Block4	2back/STIM_037.jpg
2327.152	0.37	incorrect	2back	Block4	2back/STIM_038.jpg
2330.635	0.612	correct	2back	Block4	2back/STIM_038.jpg
2334.568	0.554	correct	2back	Block4	2back/STIM_038.jpg
2338.366	0.502	correct	2back	Block4	2back/STIM_039.jpg
2342.094	0.686	correct	2back	Block4	2back/STIM_039.jpg
2344.85	0.739	correct	2back	Block4	2back/STIM_039.jpg
2347.705	0.399	incorrect	0back	Block4	0back/STIM_000.jpg
2351.977	0.404	correct	0back	Block4	0back/STIM_000.jpg
2356.01	0.332	correct	0back	Block4	0back/STIM_000.jpg
2359.004	0.513	incorrect	0back	Block4	0back/STIM_001.jpg
2361.517	0.407	correct	0back	Block4	0back/STIM_001.jpg
2365.1	0.526	incorrect	0back	Block4	0back/STIM_001.jpg
2369.342	0.364	correct	0back	Block4	0back/STIM_002.jpg
2373.582	0.558	correct	0back	Block4	0back/STIM_002.jpg
2377.296	0.348	incorrect	0back	Block4	0back/STIM_002.jpg
2380.227	0.577	correct	0back	Block4	0back/STIM_003.jpg
2383.996	0.432	correct	0back	Block4	0back/STIM_003.jpg
2387.987	0.525	incorrect	0back	Block4	0back/STIM_003.jpg
2391.949	0.462	correct	0back	Block4	0back/STIM_004.jpg
2394.563	0.463	correct	0back	Block4	0back/STIM_004.jpg
2397.733	0.326	correct	0back	Block4	0back/STIM_004.jpg
2400.167	0.553	incorrect	0back	Block4	0back/STIM_005.jpg
2403.198	0.567	correct	0back	Block4	0back/STIM_005.jpg
2407.472	0.313	correct	0back	Block4	0back/STIM_005.jpg
2411.753	0.388	correct	0back	Block4	0back/STIM_006.jpg
2416.074	0.602	correct	0back	Block4	0back/STIM_006.jpg
2418.841	0.353	correct	0back	Block4	0back/STIM_006.jpg
2422.076	0.541	correct	0back	Block4	0back/STIM_007.jpg
2424.983	0.57	incorrect	0back	Block4	0back/STIM_007.jpg
2428.004	0.6	correct	0back	Block4	0back/STIM_007.jpg
2432.58	0.381	correct	0back	Block4	0back/STIM_008.jpg
2436.3	0.513	correct	0back	Block4	0back/STIM_008.jpg
2440.623	0.534	incorrect	0back	Block4	0back/STIM_008.jpg
2444.827	0.317	correct	0back	Block4	0back/STIM_009.jpg
2447.154	0.369	correct	0back	Block4	0back/STIM_009.jpg
2450.877	0.528	incorrect	0back	Block4	0back/STIM_009.jpg
2454.529	0.353	correct	0back	Block4	0back/STIM_010.jpg
2458.857	0.508	correct	0back	Block4	0back/STIM_010.jpg
2463.072	0.352	correct	0back	Block4	0back/STIM_010.jpg
2466.939	0.351	correct	0back	Block4	0back/STIM_011.jpg
2470.531	0.379	correct	0back	Block4	0back/STIM_011.jpg
2473.456	0.392	correct	0back	Block4	0back/STIM_011.jpg
2476.013	0.584	correct	0back	Block4	0back/STIM_012.jpg
2479.047	0.378	incorrect	0back	Block4	0back/STIM_012.jpg
2481.437	0.43	correct	0back	Block4	0back/STIM_012.jpg
2484.074	0.381	correct	0back	Block4	0back/STIM_013.jpg
2488.056	0.526	correct	0back	Block4	0back/STIM_013.jpg
2491.234	0.57	correct	0back	Block4	0back/STIM_013.jpg
2494.021	0.419	incorrect	0back	Block4	0back/STIM_014.jpg
2496.822	0.433	incorrect	0back	Block4	0back/STIM_014.jpg
2499.351	0.547	correct	0back	Block4	0back/STIM_014.jpg
2503.633	0.47	correct	0back	Block4	0back/STIM_015.jpg
2507.849	0.5	incorrect	0back	Block4	0back/STIM_015.jpg
2511.057	0.612	incorrect	0back	Block4	0back/STIM_015.jpg
2515.084	0.324	correct	0back	Block4	0back/STIM_016.jpg
2517.978	0.515	correct	0back	Block4	0back/STIM_016.jpg
2520.534	0.438	incorrect	0back	Block4	0back/STIM_016.jpg
2524.159	0.316	correct	0back	Block4	0back/STIM_017.jpg
2527.042	0.587	correct	0back	Block4	0back/STIM_017.jpg
2529.776	0.405	correct	0back	Block4	0back/STIM_017.jpg
2534.173	0.347	correct	0back	Block4	0back/STIM_018.jpg
2538.431	0.33	correct	0back	Block4	0back/STIM_018.jpg
2540.959	0.356	correct	0back	Block4	0back/STIM_018.jpg
2544.362	0.407	correct	0back	Block4	0back/STIM_019.jpg
2548.077	0.433	correct	0back	Block4	0back/STIM_019.jpg
2551.192	0.513	correct	0back	Block4	0back/STIM_019.jpg
