onset	duration	response_time_ms	trial_type	learning_stage	stimulus	response_port
0.0	0.801	800.8	2back	Block1	2back/STIM_000.jpg	99
4.522	1.243	1243.1	2back	Block1	2back/STIM_000.jpg	100
9.292	0.904	903.6	2back	Block1	2back/STIM_000.jpg	99
13.227	1.024	1023.5	2back	Block1	2back/STIM_001.jpg	99
17.698	0.996	996.1	2back	Block1	2back/STIM_001.jpg	100
22.417	0.87	869.5	2back	Block1	2back/STIM_001.jpg	99
26.901	0.73	729.9	2back	Block1	2back/STIM_002.jpg	100
31.073	0.977	976.8	2back	Block1	2back/STIM_002.jpg	100
35.735	0.824	824.3	2back	Block1	2back/STIM_002.jpg	99
40.499	0.7	699.6	2back	Block1	2back/STIM_003.jpg	100
43.327	1.022	1021.8	2back	Block1	2back/STIM_003.jpg	100
47.621	0.892	892.5	2back	Block1	2back/STIM_003.jpg	100
51.169	1.065	1065.2	2back	Block1	2back/STIM_004.jpg	99
55.984	0.626	625.6	2back	Block1	2back/STIM_004.jpg	100
59.445	1.101	1101.0	2back	Block1	2back/STIM_004.jpg	99
64.408	1.243	1242.9	2back	Block1	2back/STIM_005.jpg	99
68.355	0.686	686.0	2back	Block1	2back/STIM_005.jpg	100
72.613	0.761	760.7	2back	Block1	2back/STIM_005.jpg	99
75.992	1.012	1011.8	2back	Block1	2back/STIM_006.jpg	99
80.518	0.564	564.4	2back	Block1	2back/STIM_006.jpg	99
85.187	0.874	874.1	2back	Block1	2back/STIM_006.jpg	99
88.455	1.343	1342.8	2back	Block1	2back/STIM_007.jpg	99
93.321	0.762	761.9	2back	Block1	2back/STIM_007.jpg	99
97.045	0.702	701.8	2back	Block1	2back/STIM_007.jpg	99
99.959	1.13	1129.6	2back	Block1	2back/STIM_008.jpg	99
103.297	1.256	1255.7	2back	Block1	2back/STIM_008.jpg	99
107.326	0.876	876.4	2back	Block1	2back/STIM_008.jpg	100
111.087	0.68	680.0	2back	Block1	2back/STIM_009.jpg	99
115.055	0.575	575.2	2back	Block1	2back/STIM_009.jpg	99
119.037	1.043	1043.4	2back	Block1	2back/STIM_009.jpg	100
122.813	0.683	683.0	2back	Block1	2back/STIM_010.jpg	99
126.974	1.203	1202.7	2back	Block1	2back/STIM_010.jpg	100
131.633	1.035	1035.3	2back	Block1	2back/STIM_010.jpg	100
136.135	1.363	1362.9	2back	Block1	2back/STIM_011.jpg	99
141.513	0.642	641.7	2back	Block1	2back/STIM_011.jpg	99
145.797	1.26	1259.6	2back	Block1	2back/STIM_011.jpg	99
150.001	1.355	1354.9	2back	Block1	2back/STIM_012.jpg	100
153.386	0.754	754.5	2back	Block1	2back/STIM_012.jpg	100
157.364	1.163	1162.7	2back	Block1	2back/STIM_012.jpg	99
160.859	1.332	1332.2	2back	Block1	2back/STIM_013.jpg	100
164.507	0.702	702.0	2back	Block1	2back/STIM_013.jpg	100
167.262	1.208	1207.5	2back	Block1	2back/STIM_013.jpg	100
171.279	1.242	1241.6	2back	Block1	2back/STIM_014.jpg	100
175.786	0.696	695.7	2back	Block1	2back/STIM_014.jpg	99
179.369	1.158	1157.5	2back	Block1	2back/STIM_014.jpg	100
182.833	1.155	1155.1	2back	Block1	2back/STIM_015.jpg	100
186.285	0.916	915.6	2back	Block1	2back/STIM_015.jpg	99
190.697	0.945	944.8	2back	Block1	2back/STIM_015.jpg	100
194.741	0.772	771.7	2back	Block1	2back/STIM_016.jpg	100
198.179	0.861	861.2	2back	Block1	2back/STIM_016.jpg	100
202.883	0.834	834.1	2back	Block1	2back/STIM_016.jpg	99
206.827	0.581	581.1	2back	Block1	2back/STIM_017.jpg	99
210.029	0.643	643.0	2back	Block1	2back/STIM_017.jpg	100
213.936	0.813	812.9	2back	Block1	2back/STIM_017.jpg	99
218.107	1.215	1214.9	2back	Block1	2back/STIM_018.jpg	99
222.515	0.575	575.4	2back	Block1	2back/STIM_018.jpg	100
226.123	0.82	820.3	2back	Block1	2back/STIM_018.jpg	99
229.119	0.696	695.6	2back	Block1	2back/STIM_019.jpg	100
231.982	0.75	750.1	2back	Block1	2back/STIM_019.jpg	99
236.156	0.68	679.6	2back	Block1	2back/STIM_019.jpg	100
238.938	1.179	1179.2	2back	Block1	2back/STIM_020.jpg	99
242.149	0.537	536.7	2back	Block1	2back/STIM_020.jpg	100
246.007	1.223	1222.7	2back	Block1	2back/STIM_020.jpg	100
249.666	1.138	1137.5	2back	Block1	2back/STIM_021.jpg	99
254.415	1.101	1101.4	2back	Block1	2back/STIM_021.jpg	99
258.633	0.678	678.0	2back	Block1	2back/STIM_021.jpg	99
262.544	1.448	1448.4	2back	Block1	2back/STIM_022.jpg	99
266.141	0.875	875.2	2back	Block1	2back/STIM_022.jpg	100
269.663	1.141	1141.3	2back	Block1	2back/STIM_022.jpg	100
274.106	1.364	1363.7	2back	Block1	2back/STIM_023.jpg	99
277.675	1.087	1087.0	2back	Block1	2back/STIM_023.jpg	100
280.994	0.855	855.1	2back	Block1	2back/STIM_023.jpg	100
285.54	0.702	701.5	2back	Block1	2back/STIM_024.jpg	99
289.296	1.002	1001.5	2back	Block1	2back/STIM_024.jpg	99
294.14	0.712	711.9	2back	Block1	2back/STIM_024.jpg	99
298.173	1.321	1321.3	2back	Block1	2back/STIM_025.jpg	100
301.674	0.851	850.6	2back	Block1	2back/STIM_025.jpg	100
304.906	0.702	701.9	2back	Block1	2back/STIM_025.jpg	100
308.067	1.202	1202.1	2back	Block1	2back/STIM_026.jpg	100
311.895	0.748	747.9	2back	Block1	2back/STIM_026.jpg	100
316.159	0.799	798.8	2back	Block1	2back/STIM_026.jpg	100
320.567	0.822	822.5	2back	Block1	2back/STIM_027.jpg	99
324.18	0.71	709.8	2back	Block1	2back/STIM_027.jpg	100
327.95	1.333	1333.3	2back	Block1	2back/STIM_027.jpg	99
331.352	1.023	1023.0	2back	Block1	2back/STIM_028.jpg	100
335.575	0.642	641.5	2back	Block1	2back/STIM_028.jpg	99
339.658	1.113	1113.2	2back	Block1	2back/STIM_028.jpg	100
343.317	1.017	1016.9	2back	Block1	2back/STIM_029.jpg	99
347.438	0.888	887.5	2back	Block1	2back/STIM_029.jpg	99
351.606	1.253	1252.7	2back	Block1	2back/STIM_029.jpg	99
355.55	1.145	1145.3	2back	Block1	2back/STIM_030.jpg	100
359.023	0.692	692.4	2back	Block1	2back/STIM_030.jpg	100
363.774	1.099	1099.0	2back	Block1	2back/STIM_030.jpg	100
367.994	1.148	1148.5	2back	Block1	2back/STIM_031.jpg	99
372.858	1.314	1314.2	2back	Block1	2back/STIM_031.jpg	99
376.678	1.0	1000.4	2back	Block1	2back/STIM_031.jpg	99
381.171	1.314	1314.0	2back	Block1	2back/STIM_032.jpg	99
385.0	1.103	1102.6	2back	Block1	2back/STIM_032.jpg	100
389.757	1.103	1102.6	2back	Block1	2back/STIM_032.jpg	100
393.495	1.235	1234.6	2back	Block1	2back/STIM_033.jpg	99
398.158	0.74	739.8	2back	Block1	2back/STIM_033.jpg	100
401.391	1.144	1143.7	2back	Block1	2back/STIM_033.jpg	99
406.043	0.89	890.0	2back	Block1	2back/STIM_034.jpg	100
410.864	1.152	1152.4	2back	Block1	2back/STIM_034.jpg	99
415.352	1.164	1164.5	2back	Block1	2back/STIM_034.jpg	100
418.679	0.908	907.8	2back	Block1	2back/STIM_035.jpg	100
423.171	1.307	1306.6	2back	Block1	2back/STIM_035.jpg	99
428.167	0.797	796.8	2back	Block1	2back/STIM_035.jpg	100
431.679	1.207	1206.9	2back	Block1	2back/STIM_036.jpg	99
435.032	0.604	603.9	2back	Block1	2back/STIM_036.jpg	100
438.558	1.177	1177.0	2back	Block1	2back/STIM_036.jpg	100
442.0	0.62	619.9	2back	Block1	2back/STIM_037.jpg	100
445.129	0.53	529.9	2back	Block1	2back/STIM_037.jpg	99
449.206	1.046	1046.3	2back	Block1	2back/STIM_037.jpg	100
452.259	1.252	1251.6	2back	Block1	2back/STIM_038.jpg	100
457.092	1.118	1117.5	2back	Block1	2back/STIM_038.jpg	99
461.729	0.589	588.9	2back	Block1	2back/STIM_038.jpg	100
466.027	1.103	1102.8	2back	Block1	2back/STIM_039.jpg	100
470.973	1.132	1131.5	2back	Block1	2back/STIM_039.jpg	99
475.478	0.685	685.1	2back	Block1	2back/STIM_039.jpg	100
478.843	0.37	369.6	0back	Block1	0back/STIM_000.jpg	99
482.014	0.662	661.6	0back	Block1	0back/STIM_000.jpg	100
485.869	0.617	616.7	0back	Block1	0back/STIM_000.jpg	100
489.241	0.746	745.6	0back	Block1	0back/STIM_001.jpg	99
492.868	0.574	574.5	0back	Block1	0back/STIM_001.jpg	99
496.816	0.577	576.6	0back	Block1	0back/STIM_001.jpg	99
500.275	0.866	865.7	0back	Block1	0back/STIM_002.jpg	100
503.611	0.791	790.6	0back	Block1	0back/STIM_002.jpg	99
507.265	0.513	513.3	0back	Block1	0back/STIM_002.jpg	99
510.541	0.536	536.0	0back	Block1	0back/STIM_003.jpg	100
514.803	0.43	430.0	0back	Block1	0back/STIM_003.jpg	99
517.641	0.685	684.7	0back	Block1	0back/STIM_003.jpg	99
521.285	0.752	751.9	0back	Block1	0back/STIM_004.jpg	99
524.94	0.543	543.2	0back	Block1	0back/STIM_004.jpg	99
529.34	0.527	526.8	0back	Block1	0back/STIM_004.jpg	100
533.693	0.567	566.9	0back	Block1	0back/STIM_005.jpg	99
536.393	0.4	399.6	0back	Block1	0back/STIM_005.jpg	100
540.156	0.613	612.8	0back	Block1	0back/STIM_005.jpg	99
542.814	0.37	370.0	0back	Block1	0back/STIM_006.jpg	99
547.062	0.795	795.1	0back	Block1	0back/STIM_006.jpg	99
551.124	0.75	750.2	0back	Block1	0back/STIM_006.jpg	100
555.452	0.745	744.6	0back	Block1	0back/STIM_007.jpg	100
559.858	0.762	762.4	0back	Block1	0back/STIM_007.jpg	99
564.28	0.61	609.9	0back	Block1	0back/STIM_007.jpg	100
567.239	0.533	532.9	0back	Block1	0back/STIM_008.jpg	99
570.96	0.63	629.6	0back	Block1	0back/STIM_008.jpg	100
575.42	0.58	579.5	0back	Block1	0back/STIM_008.jpg	100
579.625	0.621	621.2	0back	Block1	0back/STIM_009.jpg	99
583.119	0.358	358.0	0back	Block1	0back/STIM_009.jpg	99
586.132	0.498	497.7	0back	Block1	0back/STIM_009.jpg	99
590.025	0.522	521.5	0back	Block1	0back/STIM_010.jpg	100
593.743	0.712	712.4	0back	Block1	0back/STIM_010.jpg	99
598.001	0.406	406.0	0back	Block1	0back/STIM_010.jpg	100
602.479	0.405	405.4	0back	Block1	0back/STIM_011.jpg	100
605.606	0.813	812.9	0back	Block1	0back/STIM_011.jpg	100
609.88	0.69	690.0	0back	Block1	0back/STIM_011.jpg	99
613.736	0.708	708.4	0back	Block1	0back/STIM_012.jpg	99
618.234	0.68	680.0	0back	Block1	0back/STIM_012.jpg	100
622.822	0.441	441.2	0back	Block1	0back/STIM_012.jpg	99
625.235	0.815	815.2	0back	Block1	0back/STIM_013.jpg	100
629.339	0.729	729.2	0back	Block1	0back/STIM_013.jpg	99
632.344	0.643	643.3	0back	Block1	0back/STIM_013.jpg	99
635.745	0.391	390.8	0back	Block1	0back/STIM_014.jpg	99
638.397	0.519	518.8	0back	Block1	0back/STIM_014.jpg	100
642.466	0.58	580.0	0back	Block1	0back/STIM_014.jpg	99
645.363	0.464	463.6	0back	Block1	0back/STIM_015.jpg	99
648.505	0.51	510.5	0back	Block1	0back/STIM_015.jpg	100
651.196	0.692	692.2	0back	Block1	0back/STIM_015.jpg	99
654.866	0.696	695.6	0back	Block1	0back/STIM_016.jpg	99
659.183	0.799	798.7	0back	Block1	0back/STIM_016.jpg	99
662.724	0.685	685.0	0back	Block1	0back/STIM_016.jpg	100
667.2	0.743	743.2	0back	Block1	0back/STIM_017.jpg	99
671.665	0.47	470.0	0back	Block1	0back/STIM_017.jpg	99
674.877	0.53	530.0	0back	Block1	0back/STIM_017.jpg	99
679.08	0.573	572.6	0back	Block1	0back/STIM_018.jpg	99
683.118	0.621	620.8	0back	Block1	0back/STIM_018.jpg	99
687.224	0.574	574.3	0back	Block1	0back/STIM_018.jpg	99
690.898	0.561	561.0	0back	Block1	0back/STIM_019.jpg	99
693.98	0.66	659.8	0back	Block1	0back/STIM_019.jpg	100
697.266	0.67	669.7	0back	Block1	0back/STIM_019.jpg	99
701.532	0.938	938.0	2back	Block2	2back/STIM_000.jpg	100
706.037	0.507	507.1	2back	Block2	2back/STIM_000.jpg	100
709.002	0.702	701.6	2back	Block2	2back/STIM_000.jpg	99
713.12	0.568	567.8	2back	Block2	2back/STIM_001.jpg	100
717.677	0.632	632.1	2back	Block2	2back/STIM_001.jpg	100
720.455	0.68	679.9	2back	Block2	2back/STIM_001.jpg	99
723.128	0.496	496.2	2back	Block2	2back/STIM_002.jpg	100
727.324	0.644	644.3	2back	Block2	2back/STIM_002.jpg	99
731.543	0.63	630.4	2back	Block2	2back/STIM_002.jpg	99
734.522	0.629	629.4	2back	Block2	2back/STIM_003.jpg	100
738.985	0.467	466.9	2back	Block2	2back/STIM_003.jpg	99
743.07	0.754	754.5	2back	Block2	2back/STIM_003.jpg	100
747.446	0.577	576.7	2back	Block2	2back/STIM_004.jpg	99
751.533	1.051	1050.9	2back	Block2	2back/STIM_004.jpg	100
756.076	0.518	518.1	2back	Block2	2back/STIM_004.jpg	100
759.242	0.674	674.5	2back	Block2	2back/STIM_005.jpg	99
762.618	0.975	974.7	2back	Block2	2back/STIM_005.jpg	99
766.794	0.88	880.3	2back	Block2	2back/STIM_005.jpg	99
769.693	0.577	577.0	2back	Block2	2back/STIM_006.jpg	100
774.174	0.554	554.3	2back	Block2	2back/STIM_006.jpg	100
777.939	0.819	818.7	2back	Block2	2back/STIM_006.jpg	99
782.065	0.975	974.6	2back	Block2	2back/STIM_007.jpg	100
785.907	0.671	671.4	2back	Block2	2back/STIM_007.jpg	99
789.167	1.004	1003.5	2back	Block2	2back/STIM_007.jpg	100
793.692	1.067	1067.1	2back	Block2	2back/STIM_008.jpg	100
796.886	0.507	506.8	2back	Block2	2back/STIM_008.jpg	99
799.62	0.668	668.1	2back	Block2	2back/STIM_008.jpg	100
802.506	0.809	809.0	2back	Block2	2back/STIM_009.jpg	99
805.632	0.949	949.2	2back	Block2	2back/STIM_009.jpg	99
809.335	0.838	837.9	2back	Block2	2back/STIM_009.jpg	99
813.483	0.743	742.6	2back	Block2	2back/STIM_010.jpg	99
817.708	0.903	903.3	2back	Block2	2back/STIM_010.jpg	99
822.309	0.855	855.3	2back	Block2	2back/STIM_010.jpg	100
825.091	0.935	935.4	2back	Block2	2back/STIM_011.jpg	99
828.838	1.138	1138.3	2back	Block2	2back/STIM_011.jpg	100
833.809	0.911	910.9	2back	Block2	2back/STIM_011.jpg	100
838.71	0.504	503.7	2back	Block2	2back/STIM_012.jpg	99
842.449	0.703	703.0	2back	Block2	2back/STIM_012.jpg	100
845.845	0.798	797.9	2back	Block2	2back/STIM_012.jpg	100
849.996	0.521	521.4	2back	Block2	2back/STIM_013.jpg	100
853.782	1.01	1010.2	2back	Block2	2back/STIM_013.jpg	99
856.932	0.488	488.4	2back	Block2	2back/STIM_013.jpg	99
860.655	0.942	941.8	2back	Block2	2back/STIM_014.jpg	99
864.195	0.898	898.5	2back	Block2	2back/STIM_014.jpg	100
868.186	0.536	535.8	2back	Block2	2back/STIM_014.jpg	99
871.135	1.055	1055.0	2back	Block2	2back/STIM_015.jpg	100
875.256	0.568	568.2	2back	Block2	2back/STIM_015.jpg	100
878.593	0.764	763.7	2back	Block2	2back/STIM_015.jpg	100
882.051	0.594	594.4	2back	Block2	2back/STIM_016.jpg	99
885.148	1.062	1061.9	2back	Block2	2back/STIM_016.jpg	99
890.119	0.478	478.3	2back	Block2	2back/STIM_016.jpg	99
893.28	0.767	767.1	2back	Block2	2back/STIM_017.jpg	99
896.234	0.816	816.0	2back	Block2	2back/STIM_017.jpg	100
900.785	0.838	838.1	2back	Block2	2back/STIM_017.jpg	99
904.313	0.908	908.0	2back	Block2	2back/STIM_018.jpg	99
907.822	0.559	559.4	2back	Block2	2back/STIM_018.jpg	100
911.419	0.857	856.8	2back	Block2	2back/STIM_018.jpg	100
914.57	0.663	662.6	2back	Block2	2back/STIM_019.jpg	99
917.628	0.712	711.8	2back	Block2	2back/STIM_019.jpg	100
920.61	0.957	956.8	2back	Block2	2back/STIM_019.jpg	100
925.16	1.096	1096.5	2back	Block2	2back/STIM_020.jpg	99
929.155	0.6	599.6	2back	Block2	2back/STIM_020.jpg	99
932.64	0.79	790.0	2back	Block2	2back/STIM_020.jpg	99
936.146	0.569	569.1	2back	Block2	2back/STIM_021.jpg	100
939.233	0.942	942.4	2back	Block2	2back/STIM_021.jpg	100
943.257	1.081	1081.0	2back	Block2	2back/STIM_021.jpg	100
947.653	1.147	1147.1	2back	Block2	2back/STIM_022.jpg	99
952.407	1.078	1078.4	2back	Block2	2back/STIM_022.jpg	99
956.642	0.57	569.9	2back	Block2	2back/STIM_022.jpg	100
959.791	0.836	836.5	2back	Block2	2back/STIM_023.jpg	100
964.017	1.085	1085.4	2back	Block2	2back/STIM_023.jpg	100
967.178	0.913	912.8	2back	Block2	2back/STIM_023.jpg	100
971.126	0.809	809.3	2back	Block2	2back/STIM_024.jpg	100
975.786	0.939	938.7	2back	Block2	2back/STIM_024.jpg	100
980.117	0.422	422.2	2back	Block2	2back/STIM_024.jpg	100
984.626	0.683	683.2	2back	Block2	2back/STIM_025.jpg	100
989.309	0.514	513.6	2back	Block2	2back/STIM_025.jpg	100
992.17	1.013	1013.0	2back	Block2	2back/STIM_025.jpg	99
996.231	0.987	987.3	2back	Block2	2back/STIM_026.jpg	99
1000.175	0.967	967.0	2back	Block2	2back/STIM_026.jpg	100
1003.447	0.894	893.9	2back	Block2	2back/STIM_026.jpg	99
1006.895	1.108	1108.3	2back	Block2	2back/STIM_027.jpg	100
1011.463	0.934	934.2	2back	Block2	2back/STIM_027.jpg	99
1014.547	0.838	837.8	2back	Block2	2back/STIM_027.jpg	100
1017.447	0.831	831.1	2back	Block2	2back/STIM_028.jpg	100
1022.066	1.198	1197.8	2back	Block2	2back/STIM_028.jpg	99
1025.902	1.087	1087.3	2back	Block2	2back/STIM_028.jpg	99
1030.443	1.074	1073.6	2back	Block2	2back/STIM_029.jpg	99
1035.489	0.956	956.1	2back	Block2	2back/STIM_029.jpg	100
1040.085	0.946	946.5	2back	Block2	2back/STIM_029.jpg	100
1044.079	1.126	1125.8	2back	Block2	2back/STIM_030.jpg	100
1047.332	0.921	920.6	2back	Block2	2back/STIM_030.jpg	100
1051.743	0.777	776.8	2back	Block2	2back/STIM_030.jpg	99
1055.719	0.663	663.0	2back	Block2	2back/STIM_031.jpg	99
1059.392	1.048	1048.5	2back	Block2	2back/STIM_031.jpg	100
1064.128	0.9	899.7	2back	Block2	2back/STIM_031.jpg	100
1068.079	0.591	591.1	2back	Block2	2back/STIM_032.jpg	100
1072.271	0.52	519.5	2back	Block2	2back/STIM_032.jpg	100
1075.111	1.001	1001.0	2back	Block2	2back/STIM_032.jpg	99
1079.679	0.75	749.6	2back	Block2	2back/STIM_033.jpg	100
1083.014	0.86	860.5	2back	Block2	2back/STIM_033.jpg	100
1085.979	1.0	999.7	2back	Block2	2back/STIM_033.jpg	100
1089.116	0.5	499.8	2back	Block2	2back/STIM_034.jpg	100
1092.062	0.775	774.9	2back	Block2	2back/STIM_034.jpg	100
1095.83	1.086	1086.3	2back	Block2	2back/STIM_034.jpg	99
1099.402	0.927	926.9	2back	Block2	2back/STIM_035.jpg	100
1102.427	1.105	1104.9	2back	Block2	2back/STIM_035.jpg	100
1106.634	1.011	1010.7	2back	Block2	2back/STIM_035.jpg	100
1111.653	1.117	1117.2	2back	Block2	2back/STIM_036.jpg	100
1115.426	0.774	774.5	2back	Block2	2back/STIM_036.jpg	99
1118.879	0.789	789.4	2back	Block2	2back/STIM_036.jpg	99
1123.243	0.772	771.5	2back	Block2	2back/STIM_037.jpg	99
1126.585	0.619	619.3	2back	Block2	2back/STIM_037.jpg	100
1130.734	0.516	516.1	2back	Block2	2back/STIM_037.jpg	100
1133.782	0.911	911.3	2back	Block2	2back/STIM_038.jpg	100
1138.084	0.628	628.4	2back	Block2	2back/STIM_038.jpg	100
1142.44	0.783	782.7	2back	Block2	2back/STIM_038.jpg	99
1146.862	0.684	683.5	2back	Block2	2back/STIM_039.jpg	99
1149.777	1.078	1077.8	2back	Block2	2back/STIM_039.jpg	99
1153.958	0.682	682.0	2back	Block2	2back/STIM_039.jpg	99
1156.736	0.898	897.6	0back	Block2	0back/STIM_000.jpg	100
1159.849	0.43	429.8	0back	Block2	0back/STIM_000.jpg	100
1162.861	0.716	715.5	0back	Block2	0back/STIM_000.jpg	99
1165.746	0.63	629.5	0back	Block2	0back/STIM_001.jpg	100
1170.254	0.622	621.8	0back	Block2	0back/STIM_001.jpg	100
1174.287	0.713	713.3	0back	Block2	0back/STIM_001.jpg	99
1178.61	0.495	494.7	0back	Block2	0back/STIM_002.jpg	99
1183.026	0.746	745.9	0back	Block2	0back/STIM_002.jpg	100
1185.965	0.765	765.4	0back	Block2	0back/STIM_002.jpg	100
1190.245	0.44	440.2	0back	Block2	0back/STIM_003.jpg	99
1192.929	0.41	410.0	0back	Block2	0back/STIM_003.jpg	99
1195.681	0.384	383.8	0back	Block2	0back/STIM_003.jpg	99
1198.154	0.766	766.1	0back	Block2	0back/STIM_004.jpg	100
1201.845	0.69	690.5	0back	Block2	0back/STIM_004.jpg	99
1206.024	0.807	807.1	0back	Block2	0back/STIM_004.jpg	99
1210.014	0.67	669.9	0back	Block2	0back/STIM_005.jpg	99
1213.014	0.591	590.9	0back	Block2	0back/STIM_005.jpg	99
1216.375	0.74	740.3	0back	Block2	0back/STIM_005.jpg	99
1220.207	0.508	507.9	0back	Block2	0back/STIM_006.jpg	99
1223.497	0.639	639.1	0back	Block2	0back/STIM_006.jpg	99
1227.232	0.721	720.9	0back	Block2	0back/STIM_006.jpg	100
1231.788	0.553	553.1	0back	Block2	0back/STIM_007.jpg	99
1234.976	0.53	530.3	0back	Block2	0back/STIM_007.jpg	99
1237.849	0.709	708.9	0back	Block2	0back/STIM_007.jpg	100
1241.962	0.548	548.4	0back	Block2	0back/STIM_008.jpg	100
1244.978	0.654	653.9	0back	Block2	0back/STIM_008.jpg	100
1248.269	0.646	645.8	0back	Block2	0back/STIM_008.jpg	99
1252.399	0.696	695.8	0back	Block2	0back/STIM_009.jpg	100
1256.666	0.782	782.3	0back	Block2	0back/STIM_009.jpg	99
1260.765	0.439	438.7	0back	Block2	0back/STIM_009.jpg	99
1264.533	0.355	355.2	0back	Block2	0back/STIM_010.jpg	99
1267.82	0.479	478.8	0back	Block2	0back/STIM_010.jpg	99
1271.414	0.602	602.0	0back	Block2	0back/STIM_010.jpg	100
1274.343	0.519	519.1	0back	Block2	0back/STIM_011.jpg	100
1277.864	0.714	713.9	0back	Block2	0back/STIM_011.jpg	100
1281.908	0.739	739.0	0back	Block2	0back/STIM_011.jpg	99
1285.593	0.574	573.9	0back	Block2	0back/STIM_012.jpg	99
1289.894	0.495	494.6	0back	Block2	0back/STIM_012.jpg	100
1293.884	0.424	424.4	0back	Block2	0back/STIM_012.jpg	100
1296.408	0.73	730.4	0back	Block2	0back/STIM_013.jpg	100
1300.623	0.638	638.3	0back	Block2	0back/STIM_013.jpg	99
1303.748	0.506	505.6	0back	Block2	0back/STIM_013.jpg	99
1306.944	0.588	587.6	0back	Block2	0back/STIM_014.jpg	99
1311.26	0.539	538.6	0back	Block2	0back/STIM_014.jpg	100
1314.812	0.812	811.7	0back	Block2	0back/STIM_014.jpg	100
1318.139	0.441	441.4	0back	Block2	0back/STIM_015.jpg	99
1321.293	0.552	552.1	0back	Block2	0back/STIM_015.jpg	99
1324.667	0.47	469.5	0back	Block2	0back/STIM_015.jpg	100
1327.692	0.593	593.1	0back	Block2	0back/STIM_016.jpg	99
1332.289	0.63	630.4	0back	Block2	0back/STIM_016.jpg	99
1335.1	0.678	678.5	0back	Block2	0back/STIM_016.jpg	100
1338.979	0.678	677.7	0back	Block2	0back/STIM_017.jpg	99
1341.943	0.732	732.4	0back	Block2	0back/STIM_017.jpg	100
1345.485	0.66	660.3	0back	Block2	0back/STIM_017.jpg	100
1349.81	0.499	498.7	0back	Block2	0back/STIM_018.jpg	100
1352.977	0.615	615.2	0back	Block2	0back/STIM_018.jpg	100
1356.323	0.559	558.8	0back	Block2	0back/STIM_018.jpg	100
1359.515	0.517	516.6	0back	Block2	0back/STIM_019.jpg	100
1363.682	0.427	427.0	0back	Block2	0back/STIM_019.jpg	100
1367.576	0.528	527.9	0back	Block2	0back/STIM_019.jpg	100
1370.411	0.832	831.5	2back	Block3	2back/STIM_000.jpg	100
1374.126	0.765	765.1	2back	Block3	2back/STIM_000.jpg	99
1377.62	0.461	461.4	2back	Block3	2back/STIM_000.jpg	99
1380.447	0.584	584.0	2back	Block3	2back/STIM_001.jpg	100
1383.36	0.78	780.5	2back	Block3	2back/STIM_001.jpg	100
1386.883	0.616	616.4	2back	Block3	2back/STIM_001.jpg	100
1389.797	0.789	788.6	2back	Block3	2back/STIM_002.jpg	99
1394.554	0.855	855.1	2back	Block3	2back/STIM_002.jpg	99
1397.712	0.501	500.8	2back	Block3	2back/STIM_002.jpg	100
1400.238	0.833	833.1	2back	Block3	2back/STIM_003.jpg	99
1404.597	0.595	594.8	2back	Block3	2back/STIM_003.jpg	100
1407.846	0.791	791.2	2back	Block3	2back/STIM_003.jpg	100
1410.914	0.583	582.6	2back	Block3	2back/STIM_004.jpg	100
1415.021	0.484	483.5	2back	Block3	2back/STIM_004.jpg	99
1418.183	0.877	876.8	2back	Block3	2back/STIM_004.jpg	100
1422.879	0.766	765.7	2back	Block3	2back/STIM_005.jpg	99
1425.933	0.826	825.7	2back	Block3	2back/STIM_005.jpg	99
1429.902	0.482	482.2	2back	Block3	2back/STIM_005.jpg	99
1433.137	0.693	693.3	2back	Block3	2back/STIM_006.jpg	99
1436.89	0.394	393.8	2back	Block3	2back/STIM_006.jpg	100
1439.448	0.501	501.1	2back	Block3	2back/STIM_006.jpg	100
1443.191	0.455	454.8	2back	Block3	2back/STIM_007.jpg	99
1445.731	0.599	598.9	2back	Block3	2back/STIM_007.jpg	99
1450.16	0.783	783.0	2back	Block3	2back/STIM_007.jpg	99
1453.334	0.974	973.7	2back	Block3	2back/STIM_008.jpg	100
1458.153	0.746	745.8	2back	Block3	2back/STIM_008.jpg	100
1461.011	0.775	775.0	2back	Block3	2back/STIM_008.jpg	99
1464.106	0.957	957.0	2back	Block3	2back/STIM_009.jpg	99
1468.864	0.671	670.8	2back	Block3	2back/STIM_009.jpg	100
1471.684	0.38	380.4	2back	Block3	2back/STIM_009.jpg	99
1475.044	0.568	568.3	2back	Block3	2back/STIM_010.jpg	99
1478.81	0.884	884.3	2back	Block3	2back/STIM_010.jpg	100
1483.134	0.483	483.2	2back	Block3	2back/STIM_010.jpg	99
1486.232	0.529	529.1	2back	Block3	2back/STIM_011.jpg	99
1489.287	0.606	605.6	2back	Block3	2back/STIM_011.jpg	99
1493.061	0.7	699.6	2back	Block3	2back/STIM_011.jpg	100
1497.29	0.935	935.3	2back	Block3	2back/STIM_012.jpg	99
1501.581	0.744	743.7	2back	Block3	2back/STIM_012.jpg	100
1505.111	0.508	508.4	2back	Block3	2back/STIM_012.jpg	99
1509.558	0.598	598.1	2back	Block3	2back/STIM_013.jpg	99
1513.713	0.801	800.6	2back	Block3	2back/STIM_013.jpg	99
1517.048	0.768	767.7	2back	Block3	2back/STIM_013.jpg	100
1520.268	0.622	622.3	2back	Block3	2back/STIM_014.jpg	100
1523.95	0.65	649.6	2back	Block3	2back/STIM_014.jpg	100
1527.636	0.457	457.0	2back	Block3	2back/STIM_014.jpg	99
1530.088	0.777	777.0	2back	Block3	2back/STIM_015.jpg	100
1533.192	0.53	530.3	2back	Block3	2back/STIM_015.jpg	100
1536.589	0.536	536.4	2back	Block3	2back/STIM_015.jpg	100
1540.945	0.767	766.7	2back	Block3	2back/STIM_016.jpg	99
1543.766	0.566	565.7	2back	Block3	2back/STIM_016.jpg	100
1547.139	0.522	522.4	2back	Block3	2back/STIM_016.jpg	99
1551.134	0.553	553.1	2back	Block3	2back/STIM_017.jpg	99
1555.28	0.926	925.8	2back	Block3	2back/STIM_017.jpg	99
1558.98	0.646	645.9	2back	Block3	2back/STIM_017.jpg	100
1563.336	0.744	744.0	2back	Block3	2back/STIM_018.jpg	100
1566.87	0.728	727.7	2back	Block3	2back/STIM_018.jpg	99
1569.853	0.54	539.5	2back	Block3	2back/STIM_018.jpg	100
1573.991	0.436	436.2	2back	Block3	2back/STIM_019.jpg	99
1577.595	0.524	523.9	2back	Block3	2back/STIM_019.jpg	99
1581.037	0.468	467.5	2back	Block3	2back/STIM_019.jpg	99
1585.194	0.645	645.0	2back	Block3	2back/STIM_020.jpg	100
1589.409	0.71	709.6	2back	Block3	2back/STIM_020.jpg	99
1592.134	0.542	541.5	2back	Block3	2back/STIM_020.jpg	100
1595.613	0.478	478.1	2back	Block3	2back/STIM_021.jpg	99
1598.512	0.574	573.6	2back	Block3	2back/STIM_021.jpg	99
1602.288	0.688	687.5	2back	Block3	2back/STIM_021.jpg	99
1605.022	0.701	701.1	2back	Block3	2back/STIM_022.jpg	99
1609.364	0.476	475.7	2back	Block3	2back/STIM_022.jpg	100
1613.263	0.494	493.8	2back	Block3	2back/STIM_022.jpg	100
1616.903	0.796	796.3	2back	Block3	2back/STIM_023.jpg	100
1621.374	0.91	910.5	2back	Block3	2back/STIM_023.jpg	99
1626.217	0.583	582.7	2back	Block3	2back/STIM_023.jpg	100
1629.314	0.507	506.9	2back	Block3	2back/STIM_024.jpg	100
1632.256	0.558	558.1	2back	Block3	2back/STIM_024.jpg	100
1636.106	0.911	911.4	2back	Block3	2back/STIM_024.jpg	100
1639.335	0.929	929.4	2back	Block3	2back/STIM_025.jpg	100
1643.507	0.774	774.2	2back	Block3	2back/STIM_025.jpg	100
1646.381	0.653	652.8	2back	Block3	2back/STIM_025.jpg	99
1650.845	0.655	655.1	2back	Block3	2back/STIM_026.jpg	99
1654.03	0.821	821.1	2back	Block3	2back/STIM_026.jpg	99
1657.953	0.563	562.9	2back	Block3	2back/STIM_026.jpg	100
1662.218	0.872	871.6	2back	Block3	2back/STIM_027.jpg	99
1666.993	0.585	584.6	2back	Block3	2back/STIM_027.jpg	100
1670.435	0.57	569.8	2back	Block3	2back/STIM_027.jpg	99
1674.77	0.497	497.3	2back	Block3	2back/STIM_028.jpg	99
1678.5	0.542	542.0	2back	Block3	2back/STIM_028.jpg	99
1681.322	0.548	547.9	2back	Block3	2back/STIM_028.jpg	100
1685.279	0.884	884.1	2back	Block3	2back/STIM_029.jpg	100
1689.888	0.706	705.7	2back	Block3	2back/STIM_029.jpg	100
1692.837	0.417	417.3	2back	Block3	2back/STIM_029.jpg	99
1697.153	0.675	674.8	2back	Block3	2back/STIM_030.jpg	100
1700.069	0.562	561.8	2back	Block3	2back/STIM_030.jpg	100
1703.552	0.815	815.1	2back	Block3	2back/STIM_030.jpg	99
1708.121	0.701	700.6	2back	Block3	2back/STIM_031.jpg	99
1712.076	0.632	632.3	2back	Block3	2back/STIM_031.jpg	99
1715.379	0.486	486.2	2back	Block3	2back/STIM_031.jpg	99
1718.577	0.528	527.9	2back	Block3	2back/STIM_032.jpg	99
1722.688	0.643	642.9	2back	Block3	2back/STIM_032.jpg	99
1726.338	0.837	837.0	2back	Block3	2back/STIM_032.jpg	99
1730.763	0.52	520.3	2back	Block3	2back/STIM_033.jpg	100
1734.667	0.665	664.6	2back	Block3	2back/STIM_033.jpg	100
1739.238	0.34	340.2	2back	Block3	2back/STIM_033.jpg	100
1742.461	0.753	753.1	2back	Block3	2back/STIM_034.jpg	99
1745.499	0.761	761.2	2back	Block3	2back/STIM_034.jpg	100
1749.686	0.538	537.5	2back	Block3	2back/STIM_034.jpg	100
1754.07	0.689	689.3	2back	Block3	2back/STIM_035.jpg	99
1758.13	0.601	600.6	2back	Block3	2back/STIM_035.jpg	99
1761.888	0.45	449.5	2back	Block3	2back/STIM_035.jpg	100
1765.656	0.56	559.7	2back	Block3	2back/STIM_036.jpg	100
1769.283	0.806	805.8	2back	Block3	2back/STIM_036.jpg	100
1772.249	0.724	723.6	2back	Block3	2back/STIM_036.jpg	100
1775.455	0.812	812.1	2back	Block3	2back/STIM_037.jpg	99
1780.092	0.782	781.7	2back	Block3	2back/STIM_037.jpg	100
1783.941	1.001	1001.2	2back	Block3	2back/STIM_037.jpg	99
1788.114	0.5	500.5	2back	Block3	2back/STIM_038.jpg	100
1792.448	0.389	388.7	2back	Block3	2back/STIM_038.jpg	100
1796.194	0.629	629.2	2back	Block3	2back/STIM_038.jpg	99
1800.265	0.715	715.0	2back	Block3	2back/STIM_039.jpg	99
1804.464	0.81	809.8	2back	Block3	2back/STIM_039.jpg	100
1809.197	0.727	727.1	2back	Block3	2back/STIM_039.jpg	100
1813.004	0.399	398.7	0back	Block3	0back/STIM_000.jpg	100
1817.312	0.625	625.4	0back	Block3	0back/STIM_000.jpg	100
1820.512	0.516	516.0	0back	Block3	0back/STIM_000.jpg	99
1823.189	0.566	566.2	0back	Block3	0back/STIM_001.jpg	99
1826.14	0.702	702.2	0back	Block3	0back/STIM_001.jpg	99
1829.465	0.668	668.1	0back	Block3	0back/STIM_001.jpg	100
1832.778	0.489	489.4	0back	Block3	0back/STIM_002.jpg	99
1836.277	0.676	676.3	0back	Block3	0back/STIM_002.jpg	99
1839.322	0.623	623.1	0back	Block3	0back/STIM_002.jpg	100
1842.822	0.492	491.6	0back	Block3	0back/STIM_003.jpg	99
1846.209	0.719	719.4	0back	Block3	0back/STIM_003.jpg	99
1849.905	0.51	510.2	0back	Block3	0back/STIM_003.jpg	100
1852.835	0.66	660.0	0back	Block3	0back/STIM_004.jpg	99
1856.307	0.409	409.4	0back	Block3	0back/STIM_004.jpg	100
1859.247	0.736	736.0	0back	Block3	0back/STIM_004.jpg	99
1862.62	0.498	498.5	0back	Block3	0back/STIM_005.jpg	99
1865.447	0.438	438.5	0back	Block3	0back/STIM_005.jpg	99
1868.647	0.467	466.7	0back	Block3	0back/STIM_005.jpg	100
1871.522	0.73	730.4	0back	Block3	0back/STIM_006.jpg	99
1875.242	0.62	620.0	0back	Block3	0back/STIM_006.jpg	99
1878.968	0.691	690.7	0back	Block3	0back/STIM_006.jpg	100
1882.076	0.738	738.5	0back	Block3	0back/STIM_007.jpg	100
1885.076	0.724	723.7	0back	Block3	0back/STIM_007.jpg	99
1888.442	0.679	679.1	0back	Block3	0back/STIM_007.jpg	99
1893.064	0.754	753.6	0back	Block3	0back/STIM_008.jpg	99
1896.623	0.505	505.1	0back	Block3	0back/STIM_008.jpg	99
1900.911	0.679	679.1	0back	Block3	0back/STIM_008.jpg	99
1905.52	0.748	748.3	0back	Block3	0back/STIM_009.jpg	100
1909.365	0.657	657.0	0back	Block3	0back/STIM_009.jpg	100
1913.539	0.707	707.2	0back	Block3	0back/STIM_009.jpg	100
1916.253	0.564	564.3	0back	Block3	0back/STIM_010.jpg	100
1920.371	0.766	766.4	0back	Block3	0back/STIM_010.jpg	100
1924.63	0.46	459.6	0back	Block3	0back/STIM_010.jpg	99
1928.839	0.713	712.8	0back	Block3	0back/STIM_011.jpg	100
1932.929	0.484	483.7	0back	Block3	0back/STIM_011.jpg	99
1935.613	0.463	463.3	0back	Block3	0back/STIM_011.jpg	99
1939.176	0.632	631.7	0back	Block3	0back/STIM_012.jpg	99
1942.126	0.612	612.3	0back	Block3	0back/STIM_012.jpg	99
1945.313	0.565	565.2	0back	Block3	0back/STIM_012.jpg	100
1949.286	0.379	378.9	0back	Block3	0back/STIM_013.jpg	99
1952.637	0.639	639.0	0back	Block3	0back/STIM_013.jpg	100
1956.311	0.522	522.3	0back	Block3	0back/STIM_013.jpg	100
1960.055	0.55	549.8	0back	Block3	0back/STIM_014.jpg	100
1963.284	0.554	554.1	0back	Block3	0back/STIM_014.jpg	100
1967.557	0.487	486.8	0back	Block3	0back/STIM_014.jpg	99
1970.853	0.745	745.4	0back	Block3	0back/STIM_015.jpg	99
1973.678	0.771	771.3	0back	Block3	0back/STIM_015.jpg	99
1977.116	0.788	788.4	0back	Block3	0back/STIM_015.jpg	99
1981.179	0.388	387.8	0back	Block3	0back/STIM_016.jpg	100
1985.492	0.697	696.7	0back	Block3	0back/STIM_016.jpg	100
1989.08	0.607	606.6	0back	Block3	0back/STIM_016.jpg	100
1992.174	0.445	444.7	0back	Block3	0back/STIM_017.jpg	99
1995.186	0.582	582.1	0back	Block3	0back/STIM_017.jpg	100
1999.533	0.759	759.4	0back	Block3	0back/STIM_017.jpg	100
2004.234	0.637	636.7	0back	Block3	0back/STIM_018.jpg	99
2007.28	0.4	400.2	0back	Block3	0back/STIM_018.jpg	100
2010.913	0.427	427.1	0back	Block3	0back/STIM_018.jpg	99
2013.662	0.67	670.2	0back	Block3	0back/STIM_019.jpg	100
2017.91	0.468	468.2	0back	Block3	0back/STIM_019.jpg	100
2020.756	0.463	462.8	0back	Block3	0back/STIM_019.jpg	99
2024.817	0.676	675.9	2back	Block4	2back/STIM_000.jpg	99
2028.324	0.77	770.2	2back	Block4	2back/STIM_000.jpg	99
2032.997	0.867	867.4	2back	Block4	2back/STIM_000.jpg	99
2037.377	0.82	819.9	2back	Block4	2back/STIM_001.jpg	100
2042.069	0.874	874.4	2back	Block4	2back/STIM_001.jpg	99
2045.02	0.416	416.5	2back	Block4	2back/STIM_001.jpg	100
2049.196	0.74	740.2	2back	Block4	2back/STIM_002.jpg	99
2052.122	0.62	620.1	2back	Block4	2back/STIM_002.jpg	100
2054.714	0.713	712.8	2back	Block4	2back/STIM_002.jpg	99
2057.706	0.858	857.9	2back	Block4	2back/STIM_003.jpg	100
2060.746	0.898	897.9	2back	Block4	2back/STIM_003.jpg	100
2064.87	0.522	522.4	2back	Block4	2back/STIM_003.jpg	99
2067.858	0.926	925.5	2back	Block4	2back/STIM_004.jpg	100
2071.201	0.78	779.8	2back	Block4	2back/STIM_004.jpg	100
2075.007	0.718	717.9	2back	Block4	2back/STIM_004.jpg	99
2078.835	0.788	788.3	2back	Block4	2back/STIM_005.jpg	100
2082.838	0.469	469.1	2back	Block4	2back/STIM_005.jpg	99
2086.533	0.714	714.0	2back	Block4	2back/STIM_005.jpg	99
2089.767	0.794	793.8	2back	Block4	2back/STIM_006.jpg	99
2093.694	0.533	533.0	2back	Block4	2back/STIM_006.jpg	99
2096.373	0.549	549.1	2back	Block4	2back/STIM_006.jpg	100
2100.139	0.647	646.7	2back	Block4	2back/STIM_007.jpg	100
2103.779	0.687	686.6	2back	Block4	2back/STIM_007.jpg	99
2106.886	0.446	446.1	2back	Block4	2back/STIM_007.jpg	99
2110.033	0.917	917.1	2back	Block4	2back/STIM_008.jpg	100
2114.041	0.847	846.7	2back	Block4	2back/STIM_008.jpg	100
2118.31	0.48	480.4	2back	Block4	2back/STIM_008.jpg	99
2122.064	0.6	599.9	2back	Block4	2back/STIM_009.jpg	99
2126.463	0.557	557.4	2back	Block4	2back/STIM_009.jpg	100
2129.521	0.833	832.6	2back	Block4	2back/STIM_009.jpg	100
2132.507	0.574	574.0	2back	Block4	2back/STIM_010.jpg	99
2137.041	0.871	870.6	2back	Block4	2back/STIM_010.jpg	100
2140.239	0.85	849.6	2back	Block4	2back/STIM_010.jpg	99
2143.412	0.561	561.2	2back	Block4	2back/STIM_011.jpg	100
2146.76	0.545	545.4	2back	Block4	2back/STIM_011.jpg	99
2149.626	0.796	796.1	2back	Block4	2back/STIM_011.jpg	100
2153.678	0.423	423.0	2back	Block4	2back/STIM_012.jpg	99
2158.069	0.962	961.9	2back	Block4	2back/STIM_012.jpg	100
2162.951	0.893	893.3	2back	Block4	2back/STIM_012.jpg	100
2167.365	0.809	809.1	2back	Block4	2back/STIM_013.jpg	100
2171.719	0.909	909.2	2back	Block4	2back/STIM_013.jpg	100
2174.974	0.636	636.3	2back	Block4	2back/STIM_013.jpg	100
2177.583	0.98	980.5	2back	Block4	2back/STIM_014.jpg	99
2182.259	0.668	667.9	2back	Block4	2back/STIM_014.jpg	100
2184.994	0.934	933.8	2back	Block4	2back/STIM_014.jpg	99
2188.107	0.622	621.7	2back	Block4	2back/STIM_015.jpg	99
2190.749	0.879	878.8	2back	Block4	2back/STIM_015.jpg	99
2194.811	0.6	599.8	2back	Block4	2back/STIM_015.jpg	100
2199.06	0.876	876.4	2back	Block4	2back/STIM_016.jpg	100
2202.505	0.81	810.3	2back	Block4	2back/STIM_016.jpg	100
2207.061	0.729	728.6	2back	Block4	2back/STIM_016.jpg	99
2210.527	0.764	764.1	2back	Block4	2back/STIM_017.jpg	99
2215.144	1.006	1005.5	2back	Block4	2back/STIM_017.jpg	99
2218.483	0.626	625.9	2back	Block4	2back/STIM_017.jpg	100
2221.512	0.888	888.2	2back	Block4	2back/STIM_018.jpg	99
2226.278	0.845	845.2	2back	Block4	2back/STIM_018.jpg	100
2230.705	0.697	696.7	2back	Block4	2back/STIM_018.jpg	99
2235.032	0.863	863.4	2back	Block4	2back/STIM_019.jpg	100
2238.218	0.62	619.8	2back	Block4	2back/STIM_019.jpg	100
2241.375	0.757	756.6	2back	Block4	2back/STIM_019.jpg	100
2245.398	0.73	729.9	2back	Block4	2back/STIM_020.jpg	99
2249.407	0.734	734.0	2back	Block4	2back/STIM_020.jpg	100
2253.922	0.907	907.3	2back	Block4	2back/STIM_020.jpg	99
2256.999	0.871	871.4	2back	Block4	2back/STIM_021.jpg	99
2261.16	0.686	686.1	2back	Block4	2back/STIM_021.jpg	99
2264.357	0.868	867.7	2back	Block4	2back/STIM_021.jpg	99
2268.1	0.967	966.7	2back	Block4	2back/STIM_022.jpg	100
2272.466	0.658	658.5	2back	Block4	2back/STIM_022.jpg	99
2275.733	0.766	765.8	2back	Block4	2back/STIM_022.jpg	99
2280.188	0.727	726.7	2back	Block4	2back/STIM_023.jpg	99
2283.047	0.584	583.8	2back	Block4	2back/STIM_023.jpg	99
2285.759	0.683	683.1	2back	Block4	2back/STIM_023.jpg	100
2290.325	0.875	875.4	2back	Block4	2back/STIM_024.jpg	100
2293.286	0.482	481.9	2back	Block4	2back/STIM_024.jpg	99
2297.447	0.683	682.6	2back	Block4	2back/STIM_024.jpg	100
2302.061	0.827	826.6	2back	Block4	2back/STIM_025.jpg	99
2306.291	0.691	691.2	2back	Block4	2back/STIM_025.jpg	99
2309.981	0.49	490.1	2back	Block4	2back/STIM_025.jpg	99
2313.238	0.57	569.7	2back	Block4	2back/STIM_026.jpg	100
2317.273	0.574	573.7	2back	Block4	2back/STIM_026.jpg	100
2320.923	0.497	496.8	2back	Block4	2back/STIM_026.jpg	99
2324.314	0.533	533.3	2back	Block4	2back/STIM_027.jpg	100
2328.658	0.732	731.6	2back	Block4	2back/STIM_027.jpg	99
2331.644	0.717	716.9	2back	Block4	2back/STIM_027.jpg	100
2335.507	0.53	529.9	2back	Block4	2back/STIM_028.jpg	99
2338.807	0.552	552.3	2back	Block4	2back/STIM_028.jpg	99
2342.673	0.801	800.8	2back	Block4	2back/STIM_028.jpg	99
2346.066	0.87	870.5	2back	Block4	2back/STIM_029.jpg	100
2349.867	0.778	778.2	2back	Block4	2back/STIM_029.jpg	99
2352.8	0.846	845.7	2back	Block4	2back/STIM_029.jpg	100
2357.309	0.717	717.3	2back	Block4	2back/STIM_030.jpg	99
2361.228	0.824	823.8	2back	Block4	2back/STIM_030.jpg	99
2364.504	0.533	533.2	2back	Block4	2back/STIM_030.jpg	100
2368.809	0.474	474.2	2back	Block4	2back/STIM_031.jpg	100
2372.946	0.871	871.3	2back	Block4	2back/STIM_031.jpg	100
2375.878	0.621	620.9	2back	Block4	2back/STIM_031.jpg	100
2378.691	0.729	729.4	2back	Block4	2back/STIM_032.jpg	99
2382.919	0.41	410.2	2back	Block4	2back/STIM_032.jpg	100
2387.133	0.4	399.8	2back	Block4	2back/STIM_032.jpg	100
2390.408	0.603	602.6	2back	Block4	2back/STIM_033.jpg	99
2394.365	0.439	439.1	2back	Block4	2back/STIM_033.jpg	99
2397.252	0.539	538.9	2back	Block4	2back/STIM_033.jpg	99
2400.127	0.884	883.6	2back	Block4	2back/STIM_034.jpg	99
2404.346	0.772	772.0	2back	Block4	2back/STIM_034.jpg	100
2408.813	0.731	731.2	2back	Block4	2back/STIM_034.jpg	99
2412.467	0.438	438.5	2back	Block4	2back/STIM_035.jpg	100
2415.556	0.902	902.5	2back	Block4	2back/STIM_035.jpg	100
2419.263	0.724	723.8	2back	Block4	2back/STIM_035.jpg	99
2422.369	0.712	711.8	2back	Block4	2back/STIM_036.jpg	100
2425.812	0.924	924.1	2back	Block4	2back/STIM_036.jpg	99
2430.269	0.99	989.8	2back	Block4	2back/STIM_036.jpg	100
2433.712	0.598	597.5	2back	Block4	2back/STIM_037.jpg	100
2436.825	0.896	896.2	2back	Block4	2back/STIM_037.jpg	100
2440.646	0.931	930.6	2back	Block4	2back/STIM_037.jpg	100
2443.936	0.962	962.3	2back	Block4	2back/STIM_038.jpg	99
2447.811	0.527	526.8	2back	Block4	2back/STIM_038.jpg	100
2452.224	0.695	695.2	2back	Block4	2back/STIM_038.jpg	100
2455.645	0.605	604.6	2back	Block4	2back/STIM_039.jpg	99
2459.042	0.619	618.9	2back	Block4	2back/STIM_039.jpg	100
2462.379	0.582	581.5	2back	Block4	2back/STIM_039.jpg	99
2465.344	0.777	777.2	0back	Block4	0back/STIM_000.jpg	99
2469.879	0.805	804.8	0back	Block4	0back/STIM_000.jpg	99
2474.47	0.68	680.0	0back	Block4	0back/STIM_000.jpg	100
2478.474	0.752	752.3	0back	Block4	0back/STIM_001.jpg	99
2483.162	0.77	770.1	0back	Block4	0back/STIM_001.jpg	100
2487.26	0.513	513.4	0back	Block4	0back/STIM_001.jpg	100
2490.974	0.664	663.8	0back	Block4	0back/STIM_002.jpg	99
2494.927	0.657	657.3	0back	Block4	0back/STIM_002.jpg	100
2499.352	0.528	528.4	0back	Block4	0back/STIM_002.jpg	100
2503.304	0.678	678.2	0back	Block4	0back/STIM_003.jpg	99
2506.042	0.712	711.9	0back	Block4	0back/STIM_003.jpg	99
2509.526	0.47	469.8	0back	Block4	0back/STIM_003.jpg	99
2512.35	0.451	450.6	0back	Block4	0back/STIM_004.jpg	99
2516.289	0.657	656.8	0back	Block4	0back/STIM_004.jpg	100
2518.992	0.631	631.4	0back	Block4	0back/STIM_004.jpg	99
2523.013	0.726	726.5	0back	Block4	0back/STIM_005.jpg	100
2527.592	0.476	476.1	0back	Block4	0back/STIM_005.jpg	100
2530.713	0.641	641.1	0back	Block4	0back/STIM_005.jpg	99
2533.897	0.716	715.8	0back	Block4	0back/STIM_006.jpg	99
2537.12	0.746	745.8	0back	Block4	0back/STIM_006.jpg	100
2541.132	0.488	488.5	0back	Block4	0back/STIM_006.jpg	100
2543.79	0.626	626.3	0back	Block4	0back/STIM_007.jpg	99
2546.554	0.815	815.0	0back	Block4	0back/STIM_007.jpg	100
2550.574	0.655	654.7	0back	Block4	0back/STIM_007.jpg	100
2553.444	0.561	560.8	0back	Block4	0back/STIM_008.jpg	100
2558.0	0.681	680.9	0back	Block4	0back/STIM_008.jpg	99
2562.345	0.387	387.3	0back	Block4	0back/STIM_008.jpg	100
2565.412	0.691	691.4	0back	Block4	0back/STIM_009.jpg	100
2568.889	0.298	297.7	0back	Block4	0back/STIM_009.jpg	100
2572.239	0.603	602.7	0back	Block4	0back/STIM_009.jpg	99
2575.679	0.788	787.9	0back	Block4	0back/STIM_010.jpg	100
2579.347	0.473	473.0	0back	Block4	0back/STIM_010.jpg	100
2582.141	0.62	620.1	0back	Block4	0back/STIM_010.jpg	99
2585.852	0.662	662.0	0back	Block4	0back/STIM_011.jpg	99
2589.565	0.684	684.4	0back	Block4	0back/STIM_011.jpg	100
2593.016	0.642	641.9	0back	Block4	0back/STIM_011.jpg	99
2595.922	0.824	824.1	0back	Block4	0back/STIM_012.jpg	100
2599.229	0.386	385.6	0back	Block4	0back/STIM_012.jpg	99
2602.306	0.788	788.3	0back	Block4	0back/STIM_012.jpg	100
2605.422	0.716	716.2	0back	Block4	0back/STIM_013.jpg	100
2609.32	0.703	702.6	0back	Block4	0back/STIM_013.jpg	100
2613.874	0.424	424.1	0back	Block4	0back/STIM_013.jpg	99
2617.771	0.547	547.4	0back	Block4	0back/STIM_014.jpg	99
2621.351	0.51	510.1	0back	Block4	0back/STIM_014.jpg	100
2624.651	0.675	674.6	0back	Block4	0back/STIM_014.jpg	100
2627.435	0.723	723.1	0back	Block4	0back/STIM_015.jpg	99
2631.52	0.657	656.8	0back	Block4	0back/STIM_015.jpg	100
2634.623	0.673	673.1	0back	Block4	0back/STIM_015.jpg	99
2639.136	0.392	392.3	0back	Block4	0back/STIM_016.jpg	100
2642.288	0.396	396.2	0back	Block4	0back/STIM_016.jpg	99
2646.191	0.517	517.0	0back	Block4	0back/STIM_016.jpg	99
2649.237	0.4	400.5	0back	Block4	0back/STIM_017.jpg	100
2652.203	0.405	404.9	0back	Block4	0back/STIM_017.jpg	99
2655.036	0.528	528.4	0back	Block4	0back/STIM_017.jpg	100
2658.298	0.441	441.3	0back	Block4	0back/STIM_018.jpg	100
2662.628	0.419	418.6	0back	Block4	0back/STIM_018.jpg	99
2666.513	0.604	604.1	0back	Block4	0back/STIM_018.jpg	99
2669.282	0.648	647.8	0back	Block4	0back/STIM_019.jpg	99
2672.162	0.476	476.2	0back	Block4	0back/STIM_019.jpg	99
2674.838	0.798	797.7	0back	Block4	0back/STIM_019.jpg	100
