onset	duration	accuracy	trial_type	learning_stage	stimulus
0.0	2.303	incorrect	generate	Run1	generate/STIM_000.jpg
5.106	2.381	correct	generate	Run1	generate/STIM_000.jpg
11.294	2.098	incorrect	generate	Run1	generate/STIM_000.jpg
16.724	1.66	incorrect	generate	Run1	generate/STIM_000.jpg
20.69	1.712	correct	generate	Run1	generate/STIM_000.jpg
26.03	2.409	correct	generate	Run1	generate/STIM_001.jpg
31.783	2.359	correct	generate	Run1	generate/STIM_001.jpg
36.871	1.188	correct	generate	Run1	generate/STIM_001.jpg
41.022	2.373	incorrect	generate	Run1	generate/STIM_001.jpg
46.388	2.289	correct	generate	Run1	generate/STIM_001.jpg
51.703	1.706	correct	generate	Run1	generate/STIM_002.jpg
55.476	1.747	incorrect	generate	Run1	generate/STIM_002.jpg
60.532	2.16	incorrect	generate	Run1	generate/STIM_002.jpg
66.281	2.259	incorrect	generate	Run1	generate/STIM_002.jpg
72.263	1.76	correct	generate	Run1	generate/STIM_002.jpg
77.678	1.546	correct	generate	Run1	generate/STIM_003.jpg
82.229	1.985	correct	generate	Run1	generate/STIM_003.jpg
86.356	1.23	correct	generate	Run1	generate/STIM_003.jpg
89.711	1.511	correct	generate	Run1	generate/STIM_003.jpg
94.384	1.441	incorrect	generate	Run1	generate/STIM_003.jpg
98.449	2.455	incorrect	generate	Run1	generate/STIM_004.jpg
103.506	2.15	correct	generate	Run1	generate/STIM_004.jpg
108.622	1.958	correct	generate	Run1	generate/STIM_004.jpg
114.139	1.408	incorrect	generate	Run1	generate/STIM_004.jpg
117.707	1.344	incorrect	generate	Run1	generate/STIM_004.jpg
122.637	2.479	incorrect	generate	Run1	generate/STIM_005.jpg
128.988	2.402	correct	generate	Run1	generate/STIM_005.jpg
134.187	2.538	correct	generate	Run1	generate/STIM_005.jpg
139.639	1.928	correct	generate	Run1	generate/STIM_005.jpg
144.954	1.346	correct	generate	Run1	generate/STIM_005.jpg
148.736	2.498	correct	generate	Run1	generate/STIM_006.jpg
154.454	1.571	correct	generate	Run1	generate/STIM_006.jpg
159.44	2.186	incorrect	generate	Run1	generate/STIM_006.jpg
164.922	2.305	correct	generate	Run1	generate/STIM_006.jpg
169.48	1.881	correct	generate	Run1	generate/STIM_006.jpg
174.876	1.451	correct	generate	Run1	generate/STIM_007.jpg
178.804	1.519	incorrect	generate	Run1	generate/STIM_007.jpg
183.268	2.54	correct	generate	Run1	generate/STIM_007.jpg
189.199	2.086	correct	generate	Run1	generate/STIM_007.jpg
194.145	2.196	correct	generate	Run1	generate/STIM_007.jpg
199.49	2.365	correct	generate	Run1	generate/STIM_008.jpg
205.476	1.76	incorrect	generate	Run1	generate/STIM_008.jpg
210.955	2.299	correct	generate	Run1	generate/STIM_008.jpg
215.748	1.771	incorrect	generate	Run1	generate/STIM_008.jpg
221.426	1.89	incorrect	generate	Run1	generate/STIM_008.jpg
225.532	1.244	incorrect	generate	Run1	generate/STIM_009.jpg
230.552	2.023	incorrect	generate	Run1	generate/STIM_009.jpg
236.166	1.632	correct	generate	Run1	generate/STIM_009.jpg
241.708	1.708	correct	generate	Run1	generate/STIM_009.jpg
247.285	1.297	correct	generate	Run1	generate/STIM_009.jpg
251.164	1.676	correct	generate	Run1	generate/STIM_010.jpg
255.704	1.563	incorrect	generate	Run1	generate/STIM_010.jpg
261.192	2.517	correct	generate	Run1	generate/STIM_010.jpg
267.442	1.999	incorrect	generate	Run1	generate/STIM_010.jpg
271.814	2.127	correct	generate	Run1	generate/STIM_010.jpg
277.213	2.209	correct	generate	Run1	generate/STIM_011.jpg
282.346	1.587	incorrect	generate	Run1	generate/STIM_011.jpg
286.732	2.096	incorrect	generate	Run1	generate/STIM_011.jpg
292.394	2.451	correct	generate	Run1	generate/STIM_011.jpg
298.572	1.973	correct	generate	Run1	generate/STIM_011.jpg
303.883	1.518	incorrect	generate	Run1	generate/STIM_012.jpg
309.216	2.36	correct	generate	Run1	generate/STIM_012.jpg
314.299	1.45	correct	generate	Run1	generate/STIM_012.jpg
318.518	1.737	incorrect	generate	Run1	generate/STIM_012.jpg
322.689	1.58	incorrect	generate	Run1	generate/STIM_012.jpg
327.459	1.734	incorrect	generate	Run1	generate/STIM_013.jpg
331.949	1.283	correct	generate	Run1	generate/STIM_013.jpg
336.734	1.892	correct	generate	Run1	generate/STIM_013.jpg
342.167	1.398	correct	generate	Run1	generate/STIM_013.jpg
346.979	1.093	correct	generate	Run1	generate/STIM_013.jpg
350.481	2.412	correct	generate	Run1	generate/STIM_014.jpg
356.778	1.905	incorrect	generate	Run1	generate/STIM_014.jpg
361.505	1.296	correct	generate	Run1	generate/STIM_014.jpg
365.395	1.177	correct	generate	Run1	generate/STIM_014.jpg
368.89	1.928	correct	generate	Run1	generate/STIM_014.jpg
374.173	1.268	correct	generate	Run1	generate/STIM_015.jpg
377.644	1.44	correct	generate	Run1	generate/STIM_015.jpg
382.786	2.535	correct	generate	Run1	generate/STIM_015.jpg
387.534	1.765	incorrect	generate	Run1	generate/STIM_015.jpg
392.118	1.57	incorrect	generate	Run1	generate/STIM_015.jpg
396.815	2.119	correct	generate	Run1	generate/STIM_016.jpg
402.282	2.417	correct	generate	Run1	generate/STIM_016.jpg
407.217	1.648	incorrect	generate	Run1	generate/STIM_016.jpg
411.111	1.505	incorrect	generate	Run1	generate/STIM_016.jpg
415.413	2.053	correct	generate	Run1	generate/STIM_016.jpg
420.622	2.507	incorrect	generate	Run1	generate/STIM_017.jpg
426.779	1.121	correct	generate	Run1	generate/STIM_017.jpg
429.933	2.278	incorrect	generate	Run1	generate/STIM_017.jpg
435.177	1.527	incorrect	generate	Run1	generate/STIM_017.jpg
439.558	1.076	correct	generate	Run1	generate/STIM_017.jpg
444.139	1.549	incorrect	generate	Run1	generate/STIM_018.jpg
448.728	1.883	correct	generate	Run1	generate/STIM_018.jpg
452.913	1.961	correct	generate	Run1	generate/STIM_018.jpg
457.177	1.834	correct	generate	Run1	generate/STIM_018.jpg
461.43	2.049	correct	generate	Run1	generate/STIM_018.jpg
466.972	1.22	incorrect	generate	Run1	generate/STIM_019.jpg
472.107	2.562	incorrect	generate	Run1	generate/STIM_019.jpg
477.841	1.586	incorrect	generate	Run1	generate/STIM_019.jpg
481.944	1.143	correct	generate	Run1	generate/STIM_019.jpg
486.779	1.02	incorrect	generate	Run1	generate/STIM_019.jpg
489.984	2.259	correct	generate	Run1	generate/STIM_020.jpg
495.977	1.319	correct	generate	Run1	generate/STIM_020.jpg
499.954	1.196	correct	generate	Run1	generate/STIM_020.jpg
504.604	1.552	incorrect	generate	Run1	generate/STIM_020.jpg
509.214	2.082	incorrect	generate	Run1	generate/STIM_020.jpg
513.356	1.763	incorrect	generate	Run1	generate/STIM_021.jpg
517.721	2.354	correct	generate	Run1	generate/STIM_021.jpg
522.874	1.117	correct	generate	Run1	generate/STIM_021.jpg
527.526	2.337	correct	generate	Run1	generate/STIM_021.jpg
533.645	1.608	incorrect	generate	Run1	generate/STIM_021.jpg
537.381	1.649	correct	generate	Run1	generate/STIM_022.jpg
542.982	2.037	correct	generate	Run1	generate/STIM_022.jpg
548.804	2.506	incorrect	generate	Run1	generate/STIM_022.jpg
554.266	2.345	correct	generate	Run1	generate/STIM_022.jpg
558.664	2.215	incorrect	generate	Run1	generate/STIM_022.jpg
564.789	1.347	incorrect	generate	Run1	generate/STIM_023.jpg
568.934	1.108	correct	generate	Run1	generate/STIM_023.jpg
573.614	2.155	correct	generate	Run1	generate/STIM_023.jpg
577.81	2.166	correct	generate	Run1	generate/STIM_023.jpg
582.784	1.162	correct	generate	Run1	generate/STIM_023.jpg
586.881	2.368	correct	generate	Run1	generate/STIM_024.jpg
593.214	1.469	incorrect	generate	Run1	generate/STIM_024.jpg
597.81	1.502	incorrect	generate	Run1	generate/STIM_024.jpg
603.096	2.002	correct	generate	Run1	generate/STIM_024.jpg
608.435	1.343	incorrect	generate	Run1	generate/STIM_024.jpg
612.062	0.755	incorrect	repeat	Run1	repeat/STIM_000.jpg
616.702	0.637	incorrect	repeat	Run1	repeat/STIM_000.jpg
621.029	0.618	correct	repeat	Run1	repeat/STIM_000.jpg
624.444	0.562	correct	repeat	Run1	repeat/STIM_000.jpg
627.311	0.524	correct	repeat	Run1	repeat/STIM_000.jpg
630.924	0.572	incorrect	repeat	Run1	repeat/STIM_001.jpg
633.946	0.673	correct	repeat	Run1	repeat/STIM_001.jpg
637.852	0.955	correct	repeat	Run1	repeat/STIM_001.jpg
641.763	0.524	correct	repeat	Run1	repeat/STIM_001.jpg
644.375	0.648	correct	repeat	Run1	repeat/STIM_001.jpg
648.064	0.623	correct	repeat	Run1	repeat/STIM_002.jpg
652.267	0.722	correct	repeat	Run1	repeat/STIM_002.jpg
656.423	0.729	correct	repeat	Run1	repeat/STIM_002.jpg
660.886	0.554	correct	repeat	Run1	repeat/STIM_002.jpg
663.453	0.868	correct	repeat	Run1	repeat/STIM_002.jpg
667.549	0.683	correct	repeat	Run1	repeat/STIM_003.jpg
670.973	0.605	incorrect	repeat	Run1	repeat/STIM_003.jpg
674.616	0.725	correct	repeat	Run1	repeat/STIM_003.jpg
677.796	0.612	correct	repeat	Run1	repeat/STIM_003.jpg
681.099	0.498	correct	repeat	Run1	repeat/STIM_003.jpg
684.784	0.735	correct	repeat	Run1	repeat/STIM_004.jpg
688.713	0.956	correct	repeat	Run1	repeat/STIM_004.jpg
693.298	0.515	correct	repeat	Run1	repeat/STIM_004.jpg
697.052	0.635	correct	repeat	Run1	repeat/STIM_004.jpg
699.71	0.575	incorrect	repeat	Run1	repeat/STIM_004.jpg
702.934	0.616	correct	repeat	Run1	repeat/STIM_005.jpg
705.614	0.922	correct	repeat	Run1	repeat/STIM_005.jpg
709.089	0.896	correct	repeat	Run1	repeat/STIM_005.jpg
713.418	0.659	incorrect	repeat	Run1	repeat/STIM_005.jpg
716.411	0.49	correct	repeat	Run1	repeat/STIM_005.jpg
720.52	0.521	correct	repeat	Run1	repeat/STIM_006.jpg
723.752	0.684	correct	repeat	Run1	repeat/STIM_006.jpg
728.27	0.809	correct	repeat	Run1	repeat/STIM_006.jpg
731.704	0.946	incorrect	repeat	Run1	repeat/STIM_006.jpg
734.999	0.558	correct	repeat	Run1	repeat/STIM_006.jpg
738.339	0.957	correct	repeat	Run1	repeat/STIM_007.jpg
742.135	0.767	correct	repeat	Run1	repeat/STIM_007.jpg
745.82	0.6	incorrect	repeat	Run1	repeat/STIM_007.jpg
749.022	0.497	correct	repeat	Run1	repeat/STIM_007.jpg
752.979	0.754	correct	repeat	Run1	repeat/STIM_007.jpg
755.968	0.494	correct	repeat	Run1	repeat/STIM_008.jpg
759.914	0.593	correct	repeat	Run1	repeat/STIM_008.jpg
764.497	0.736	correct	repeat	Run1	repeat/STIM_008.jpg
768.967	0.662	correct	repeat	Run1	repeat/STIM_008.jpg
773.215	0.615	correct	repeat	Run1	repeat/STIM_008.jpg
777.436	0.797	correct	repeat	Run1	repeat/STIM_009.jpg
782.123	0.489	correct	repeat	Run1	repeat/STIM_009.jpg
786.139	0.673	correct	repeat	Run1	repeat/STIM_009.jpg
789.397	0.617	incorrect	repeat	Run1	repeat/STIM_009.jpg
793.516	0.624	correct	repeat	Run1	repeat/STIM_009.jpg
796.241	0.67	correct	repeat	Run1	repeat/STIM_010.jpg
800.166	0.492	correct	repeat	Run1	repeat/STIM_010.jpg
803.947	0.908	correct	repeat	Run1	repeat/STIM_010.jpg
808.395	0.489	correct	repeat	Run1	repeat/STIM_010.jpg
811.982	0.95	correct	repeat	Run1	repeat/STIM_010.jpg
815.747	0.889	correct	repeat	Run1	repeat/STIM_011.jpg
819.52	0.813	correct	repeat	Run1	repeat/STIM_011.jpg
823.343	0.496	correct	repeat	Run1	repeat/STIM_011.jpg
826.768	0.571	correct	repeat	Run1	repeat/STIM_011.jpg
830.762	0.623	correct	repeat	Run1	repeat/STIM_011.jpg
834.051	0.547	correct	repeat	Run1	repeat/STIM_012.jpg
837.845	0.513	incorrect	repeat	Run1	repeat/STIM_012.jpg
841.273	0.76	correct	repeat	Run1	repeat/STIM_012.jpg
845.828	0.541	correct	repeat	Run1	repeat/STIM_012.jpg
848.789	0.535	incorrect	repeat	Run1	repeat/STIM_012.jpg
852.386	0.732	correct	repeat	Run1	repeat/STIM_013.jpg
856.984	0.944	correct	repeat	Run1	repeat/STIM_013.jpg
861.541	0.582	correct	repeat	Run1	repeat/STIM_013.jpg
865.609	0.854	correct	repeat	Run1	repeat/STIM_013.jpg
870.431	0.962	correct	repeat	Run1	repeat/STIM_013.jpg
874.39	0.864	correct	repeat	Run1	repeat/STIM_014.jpg
877.836	0.845	correct	repeat	Run1	repeat/STIM_014.jpg
880.762	0.656	correct	repeat	Run1	repeat/STIM_014.jpg
883.781	0.725	correct	repeat	Run1	repeat/STIM_014.jpg
887.002	0.799	correct	repeat	Run1	repeat/STIM_014.jpg
890.282	1.421	incorrect	generate	Run2	generate/STIM_000.jpg
894.174	1.917	correct	generate	Run2	generate/STIM_000.jpg
899.404	1.242	correct	generate	Run2	generate/STIM_000.jpg
903.465	1.521	correct	generate	Run2	generate/STIM_000.jpg
908.344	1.889	correct	generate	Run2	generate/STIM_000.jpg
913.014	1.741	correct	generate	Run2	generate/STIM_001.jpg
918.468	2.189	correct	generate	Run2	generate/STIM_001.jpg
924.297	1.737	incorrect	generate	Run2	generate/STIM_001.jpg
928.593	1.855	correct	generate	Run2	generate/STIM_001.jpg
932.606	1.254	incorrect	generate	Run2	generate/STIM_001.jpg
937.123	2.042	correct	generate	Run2	generate/STIM_002.jpg
941.786	0.974	incorrect	generate	Run2	generate/STIM_002.jpg
945.933	1.1	incorrect	generate	Run2	generate/STIM_002.jpg
949.295	1.935	correct	generate	Run2	generate/STIM_002.jpg
953.268	1.866	correct	generate	Run2	generate/STIM_002.jpg
957.732	1.291	incorrect	generate	Run2	generate/STIM_003.jpg
961.232	1.252	incorrect	generate	Run2	generate/STIM_003.jpg
965.034	1.23	correct	generate	Run2	generate/STIM_003.jpg
969.106	0.87	correct	generate	Run2	generate/STIM_003.jpg
972.269	1.319	correct	generate	Run2	generate/STIM_003.jpg
976.6	1.274	correct	generate	Run2	generate/STIM_004.jpg
981.815	1.559	correct	generate	Run2	generate/STIM_004.jpg
987.29	1.47	incorrect	generate	Run2	generate/STIM_004.jpg
992.487	1.743	correct	generate	Run2	generate/STIM_004.jpg
998.018	1.119	correct	generate	Run2	generate/STIM_004.jpg
1002.82	2.344	correct	generate	Run2	generate/STIM_005.jpg
1008.135	1.936	incorrect	generate	Run2	generate/STIM_005.jpg
1013.464	1.512	correct	generate	Run2	generate/STIM_005.jpg
1017.523	1.433	correct	generate	Run2	generate/STIM_005.jpg
1022.453	1.533	correct	generate	Run2	generate/STIM_005.jpg
1026.341	1.043	incorrect	generate	Run2	generate/STIM_006.jpg
1030.61	2.282	correct	generate	Run2	generate/STIM_006.jpg
1036.346	1.656	correct	generate	Run2	generate/STIM_006.jpg
1040.95	1.872	correct	generate	Run2	generate/STIM_006.jpg
1045.367	1.995	correct	generate	Run2	generate/STIM_006.jpg
1050.771	2.401	correct	generate	Run2	generate/STIM_007.jpg
1056.718	1.0	correct	generate	Run2	generate/STIM_007.jpg
1061.696	1.769	incorrect	generate	Run2	generate/STIM_007.jpg
1065.659	0.826	correct	generate	Run2	generate/STIM_007.jpg
1070.084	1.471	correct	generate	Run2	generate/STIM_007.jpg
1074.45	1.138	correct	generate	Run2	generate/STIM_008.jpg
1079.408	2.11	correct	generate	Run2	generate/STIM_008.jpg
1084.008	1.114	correct	generate	Run2	generate/STIM_008.jpg
1088.211	1.617	incorrect	generate	Run2	generate/STIM_008.jpg
1092.168	1.651	correct	generate	Run2	generate/STIM_008.jpg
1096.169	2.46	correct	generate	Run2	generate/STIM_009.jpg
1100.665	1.291	correct	generate	Run2	generate/STIM_009.jpg
1104.605	1.7	correct	generate	Run2	generate/STIM_009.jpg
1108.508	1.855	correct	generate	Run2	generate/STIM_009.jpg
1112.864	1.215	correct	generate	Run2	generate/STIM_009.jpg
1116.502	2.246	incorrect	generate	Run2	generate/STIM_010.jpg
1120.969	0.959	correct	generate	Run2	generate/STIM_010.jpg
1125.728	1.06	correct	generate	Run2	generate/STIM_010.jpg
1129.32	1.014	correct	generate	Run2	generate/STIM_010.jpg
1132.831	0.82	correct	generate	Run2	generate/STIM_010.jpg
1136.607	1.169	correct	generate	Run2	generate/STIM_011.jpg
1141.101	2.078	correct	generate	Run2	generate/STIM_011.jpg
1146.779	1.606	incorrect	generate	Run2	generate/STIM_011.jpg
1150.397	0.818	correct	generate	Run2	generate/STIM_011.jpg
1153.45	1.323	incorrect	generate	Run2	generate/STIM_011.jpg
1157.233	2.356	correct	generate	Run2	generate/STIM_012.jpg
1163.177	0.948	correct	generate	Run2	generate/STIM_012.jpg
1166.227	1.605	correct	generate	Run2	generate/STIM_012.jpg
1170.845	1.644	correct	generate	Run2	generate/STIM_012.jpg
1175.049	1.202	correct	generate	Run2	generate/STIM_012.jpg
1179.749	1.686	correct	generate	Run2	generate/STIM_013.jpg
1184.725	1.675	correct	generate	Run2	generate/STIM_013.jpg
1189.6	1.808	correct	generate	Run2	generate/STIM_013.jpg
1194.06	1.874	incorrect	generate	Run2	generate/STIM_013.jpg
1199.133	1.053	correct	generate	Run2	generate/STIM_013.jpg
1203.73	1.401	correct	generate	Run2	generate/STIM_014.jpg
1207.807	1.189	incorrect	generate	Run2	generate/STIM_014.jpg
1212.754	1.114	incorrect	generate	Run2	generate/STIM_014.jpg
1217.764	1.533	correct	generate	Run2	generate/STIM_014.jpg
1221.835	2.011	incorrect	generate	Run2	generate/STIM_014.jpg
1226.01	1.899	correct	generate	Run2	generate/STIM_015.jpg
1230.057	1.772	correct	generate	Run2	generate/STIM_015.jpg
1234.57	1.158	correct	generate	Run2	generate/STIM_015.jpg
1238.174	1.479	correct	generate	Run2	generate/STIM_015.jpg
1242.243	1.296	correct	generate	Run2	generate/STIM_015.jpg
1246.404	1.196	correct	generate	Run2	generate/STIM_016.jpg
1250.538	2.077	correct	generate	Run2	generate/STIM_016.jpg
1256.026	1.738	correct	generate	Run2	generate/STIM_016.jpg
1261.601	1.302	correct	generate	Run2	generate/STIM_016.jpg
1266.133	1.179	correct	generate	Run2	generate/STIM_016.jpg
1270.361	2.189	correct	generate	Run2	generate/STIM_017.jpg
1275.569	0.971	incorrect	generate	Run2	generate/STIM_017.jpg
1280.301	1.607	correct	generate	Run2	generate/STIM_017.jpg
1285.156	1.028	correct	generate	Run2	generate/STIM_017.jpg
1288.63	1.807	incorrect	generate	Run2	generate/STIM_017.jpg
1294.154	1.165	correct	generate	Run2	generate/STIM_018.jpg
1298.069	1.304	correct	generate	Run2	generate/STIM_018.jpg
1302.294	1.34	correct	generate	Run2	generate/STIM_018.jpg
1307.21	0.993	correct	generate	Run2	generate/STIM_018.jpg
1310.388	1.48	correct	generate	Run2	generate/STIM_018.jpg
1315.069	2.039	correct	generate	Run2	generate/STIM_019.jpg
1320.999	2.034	correct	generate	Run2	generate/STIM_019.jpg
1325.318	1.155	correct	generate	Run2	generate/STIM_019.jpg
1328.928	1.443	correct	generate	Run2	generate/STIM_019.jpg
1333.541	0.864	correct	generate	Run2	generate/STIM_019.jpg
1338.187	1.369	correct	generate	Run2	generate/STIM_020.jpg
1341.616	2.289	incorrect	generate	Run2	generate/STIM_020.jpg
1346.941	1.22	correct	generate	Run2	generate/STIM_020.jpg
1350.559	1.328	incorrect	generate	Run2	generate/STIM_020.jpg
1353.99	1.794	correct	generate	Run2	generate/STIM_020.jpg
1359.45	1.199	correct	generate	Run2	generate/STIM_021.jpg
1363.492	1.514	incorrect	generate	Run2	generate/STIM_021.jpg
1367.993	2.12	correct	generate	Run2	generate/STIM_021.jpg
1374.063	1.891	incorrect	generate	Run2	generate/STIM_021.jpg
1379.611	1.665	correct	generate	Run2	generate/STIM_021.jpg
1383.721	2.153	incorrect	generate	Run2	generate/STIM_022.jpg
1388.001	0.945	incorrect	generate	Run2	generate/STIM_022.jpg
1392.405	1.435	correct	generate	Run2	generate/STIM_022.jpg
1396.129	1.236	correct	generate	Run2	generate/STIM_022.jpg
1400.186	0.944	correct	generate	Run2	generate/STIM_022.jpg
1403.885	1.504	correct	generate	Run2	generate/STIM_023.jpg
1407.597	1.015	correct	generate	Run2	generate/STIM_023.jpg
1410.697	1.858	correct	generate	Run2	generate/STIM_023.jpg
1414.595	1.5	correct	generate	Run2	generate/STIM_023.jpg
1419.64	0.984	correct	generate	Run2	generate/STIM_023.jpg
1424.176	2.142	correct	generate	Run2	generate/STIM_024.jpg
1428.995	1.419	correct	generate	Run2	generate/STIM_024.jpg
1434.132	2.012	correct	generate	Run2	generate/STIM_024.jpg
1438.333	0.981	correct	generate	Run2	generate/STIM_024.jpg
1443.025	1.015	correct	generate	Run2	generate/STIM_024.jpg
1446.927	0.943	correct	repeat	Run2	repeat/STIM_000.jpg
1451.235	0.552	correct	repeat	Run2	repeat/STIM_000.jpg
1455.356	0.667	correct	repeat	Run2	repeat/STIM_000.jpg
1459.616	0.78	correct	repeat	Run2	repeat/STIM_000.jpg
1462.592	0.535	correct	repeat	Run2	repeat/STIM_000.jpg
1466.706	0.883	correct	repeat	Run2	repeat/STIM_001.jpg
1470.171	0.493	correct	repeat	Run2	repeat/STIM_001.jpg
1472.941	0.617	correct	repeat	Run2	repeat/STIM_001.jpg
1476.781	0.864	correct	repeat	Run2	repeat/STIM_001.jpg
1480.626	0.796	correct	repeat	Run2	repeat/STIM_001.jpg
1483.536	0.544	correct	repeat	Run2	repeat/STIM_002.jpg
1486.333	0.752	correct	repeat	Run2	repeat/STIM_002.jpg
1490.527	0.622	correct	repeat	Run2	repeat/STIM_002.jpg
1493.567	0.701	correct	repeat	Run2	repeat/STIM_002.jpg
1497.639	0.908	incorrect	repeat	Run2	repeat/STIM_002.jpg
1501.754	0.562	correct	repeat	Run2	repeat/STIM_003.jpg
1505.421	0.745	incorrect	repeat	Run2	repeat/STIM_003.jpg
1508.458	0.949	incorrect	repeat	Run2	repeat/STIM_003.jpg
1513.318	0.521	correct	repeat	Run2	repeat/STIM_003.jpg
1516.605	0.862	incorrect	repeat	Run2	repeat/STIM_003.jpg
1520.334	0.649	correct	repeat	Run2	repeat/STIM_004.jpg
1523.771	0.712	correct	repeat	Run2	repeat/STIM_004.jpg
1526.602	0.962	correct	repeat	Run2	repeat/STIM_004.jpg
1530.613	0.522	correct	repeat	Run2	repeat/STIM_004.jpg
1535.074	0.604	correct	repeat	Run2	repeat/STIM_004.jpg
1537.886	0.587	correct	repeat	Run2	repeat/STIM_005.jpg
1541.991	0.494	correct	repeat	Run2	repeat/STIM_005.jpg
1544.626	0.909	correct	repeat	Run2	repeat/STIM_005.jpg
1547.682	0.508	correct	repeat	Run2	repeat/STIM_005.jpg
1550.279	0.675	incorrect	repeat	Run2	repeat/STIM_005.jpg
1554.172	0.681	correct	repeat	Run2	repeat/STIM_006.jpg
1558.754	0.556	correct	repeat	Run2	repeat/STIM_006.jpg
1562.699	0.785	incorrect	repeat	Run2	repeat/STIM_006.jpg
1567.041	0.92	incorrect	repeat	Run2	repeat/STIM_006.jpg
1571.127	0.769	correct	repeat	Run2	repeat/STIM_006.jpg
1574.862	0.855	incorrect	repeat	Run2	repeat/STIM_007.jpg
1578.339	0.848	correct	repeat	Run2	repeat/STIM_007.jpg
1581.632	0.577	correct	repeat	Run2	repeat/STIM_007.jpg
1584.301	0.736	correct	repeat	Run2	repeat/STIM_007.jpg
1587.766	0.54	correct	repeat	Run2	repeat/STIM_007.jpg
1592.043	0.846	correct	repeat	Run2	repeat/STIM_008.jpg
1595.38	0.488	correct	repeat	Run2	repeat/STIM_008.jpg
1599.202	0.84	correct	repeat	Run2	repeat/STIM_008.jpg
1602.516	0.665	correct	repeat	Run2	repeat/STIM_008.jpg
1606.699	0.638	correct	repeat	Run2	repeat/STIM_008.jpg
1610.951	0.537	correct	repeat	Run2	repeat/STIM_009.jpg
1614.455	0.903	incorrect	repeat	Run2	repeat/STIM_009.jpg
1617.36	0.946	correct	repeat	Run2	repeat/STIM_009.jpg
1621.786	0.8	incorrect	repeat	Run2	repeat/STIM_009.jpg
1626.396	0.965	correct	repeat	Run2	repeat/STIM_009.jpg
1630.03	0.921	incorrect	repeat	Run2	repeat/STIM_010.jpg
1634.236	0.768	incorrect	repeat	Run2	repeat/STIM_010.jpg
1638.158	0.587	incorrect	repeat	Run2	repeat/STIM_010.jpg
1642.148	0.798	incorrect	repeat	Run2	repeat/STIM_010.jpg
1645.601	0.879	correct	repeat	Run2	repeat/STIM_010.jpg
1650.391	0.547	incorrect	repeat	Run2	repeat/STIM_011.jpg
1653.634	0.952	correct	repeat	Run2	repeat/STIM_011.jpg
1657.242	0.913	correct	repeat	Run2	repeat/STIM_011.jpg
1661.711	0.492	correct	repeat	Run2	repeat/STIM_011.jpg
1664.567	0.878	correct	repeat	Run2	repeat/STIM_011.jpg
1669.359	0.678	correct	repeat	Run2	repeat/STIM_012.jpg
1672.55	0.555	correct	repeat	Run2	repeat/STIM_012.jpg
1675.844	0.515	correct	repeat	Run2	repeat/STIM_012.jpg
1679.754	0.648	correct	repeat	Run2	repeat/STIM_012.jpg
1682.46	0.817	correct	repeat	Run2	repeat/STIM_012.jpg
1686.62	0.559	incorrect	repeat	Run2	repeat/STIM_013.jpg
1690.801	0.533	correct	repeat	Run2	repeat/STIM_013.jpg
1695.045	0.498	correct	repeat	Run2	repeat/STIM_013.jpg
1697.747	0.779	incorrect	repeat	Run2	repeat/STIM_013.jpg
1700.651	0.609	incorrect	repeat	Run2	repeat/STIM_013.jpg
1703.678	0.928	correct	repeat	Run2	repeat/STIM_014.jpg
1706.646	0.884	correct	repeat	Run2	repeat/STIM_014.jpg
1711.08	0.787	correct	repeat	Run2	repeat/STIM_014.jpg
1715.372	0.548	correct	repeat	Run2	repeat/STIM_014.jpg
1719.268	0.612	incorrect	repeat	Run2	repeat/STIM_014.jpg
1722.99	1.959	correct	generate	Run3	generate/STIM_000.jpg
1728.588	1.074	correct	generate	Run3	generate/STIM_000.jpg
1731.75	1.309	correct	generate	Run3	generate/STIM_000.jpg
1735.791	2.028	correct	generate	Run3	generate/STIM_000.jpg
1740.453	1.538	correct	generate	Run3	generate/STIM_000.jpg
1744.666	1.364	correct	generate	Run3	generate/STIM_001.jpg
1749.093	1.215	correct	generate	Run3	generate/STIM_001.jpg
1752.987	1.405	correct	generate	Run3	generate/STIM_001.jpg
1757.03	1.059	incorrect	generate	Run3	generate/STIM_001.jpg
1760.478	1.569	correct	generate	Run3	generate/STIM_001.jpg
1764.429	0.865	correct	generate	Run3	generate/STIM_002.jpg
1768.994	1.44	incorrect	generate	Run3	generate/STIM_002.jpg
1773.838	1.557	correct	generate	Run3	generate/STIM_002.jpg
1778.74	2.029	correct	generate	Run3	generate/STIM_002.jpg
1784.751	1.379	correct	generate	Run3	generate/STIM_002.jpg
1789.308	1.275	correct	generate	Run3	generate/STIM_003.jpg
1793.584	0.835	correct	generate	Run3	generate/STIM_003.jpg
1798.27	1.235	correct	generate	Run3	generate/STIM_003.jpg
1802.14	2.023	incorrect	generate	Run3	generate/STIM_003.jpg
1807.549	2.003	correct	generate	Run3	generate/STIM_003.jpg
1813.506	2.005	incorrect	generate	Run3	generate/STIM_004.jpg
1819.301	1.406	correct	generate	Run3	generate/STIM_004.jpg
1823.583	1.536	correct	generate	Run3	generate/STIM_004.jpg
1828.66	1.568	correct	generate	Run3	generate/STIM_004.jpg
1832.245	1.55	correct	generate	Run3	generate/STIM_004.jpg
1836.288	1.035	correct	generate	Run3	generate/STIM_005.jpg
1841.321	1.796	correct	generate	Run3	generate/STIM_005.jpg
1845.553	1.082	correct	generate	Run3	generate/STIM_005.jpg
1849.544	1.192	correct	generate	Run3	generate/STIM_005.jpg
1854.323	1.515	incorrect	generate	Run3	generate/STIM_005.jpg
1858.733	1.582	correct	generate	Run3	generate/STIM_006.jpg
1863.888	0.878	correct	generate	Run3	generate/STIM_006.jpg
1867.385	1.118	correct	generate	Run3	generate/STIM_006.jpg
1871.653	1.898	correct	generate	Run3	generate/STIM_006.jpg
1876.848	1.08	correct	generate	Run3	generate/STIM_006.jpg
1881.861	1.343	correct	generate	Run3	generate/STIM_007.jpg
1885.227	1.74	correct	generate	Run3	generate/STIM_007.jpg
1889.226	1.56	correct	generate	Run3	generate/STIM_007.jpg
1894.182	0.863	correct	generate	Run3	generate/STIM_007.jpg
1898.187	1.568	correct	generate	Run3	generate/STIM_007.jpg
1902.989	1.774	incorrect	generate	Run3	generate/STIM_008.jpg
1906.809	1.004	incorrect	generate	Run3	generate/STIM_008.jpg
1911.397	1.1	correct	generate	Run3	generate/STIM_008.jpg
1915.786	1.491	correct	generate	Run3	generate/STIM_008.jpg
1920.81	1.054	incorrect	generate	Run3	generate/STIM_008.jpg
1924.756	1.323	correct	generate	Run3	generate/STIM_009.jpg
1928.902	1.998	correct	generate	Run3	generate/STIM_009.jpg
1933.935	1.612	incorrect	generate	Run3	generate/STIM_009.jpg
1937.95	1.878	correct	generate	Run3	generate/STIM_009.jpg
1941.93	0.819	correct	generate	Run3	generate/STIM_009.jpg
1945.652	1.079	correct	generate	Run3	generate/STIM_010.jpg
1948.859	1.615	incorrect	generate	Run3	generate/STIM_010.jpg
1953.93	1.449	correct	generate	Run3	generate/STIM_010.jpg
1958.869	1.068	correct	generate	Run3	generate/STIM_010.jpg
1961.968	1.593	correct	generate	Run3	generate/STIM_010.jpg
1967.484	1.609	correct	generate	Run3	generate/STIM_011.jpg
1972.616	1.67	correct	generate	Run3	generate/STIM_011.jpg
1977.411	1.589	correct	generate	Run3	generate/STIM_011.jpg
1981.527	1.773	correct	generate	Run3	generate/STIM_011.jpg
1987.207	1.185	correct	generate	Run3	generate/STIM_011.jpg
1991.204	1.344	incorrect	generate	Run3	generate/STIM_012.jpg
1995.626	1.305	correct	generate	Run3	generate/STIM_012.jpg
2000.174	1.707	correct	generate	Run3	generate/STIM_012.jpg
2004.061	1.965	correct	generate	Run3	generate/STIM_012.jpg
2008.431	1.347	correct	generate	Run3	generate/STIM_012.jpg
2013.46	1.935	incorrect	generate	Run3	generate/STIM_013.jpg
2017.443	1.599	correct	generate	Run3	generate/STIM_013.jpg
2022.509	0.9	correct	generate	Run3	generate/STIM_013.jpg
2026.706	1.11	incorrect	generate	Run3	generate/STIM_013.jpg
2030.646	1.726	correct	generate	Run3	generate/STIM_013.jpg
2034.598	1.691	correct	generate	Run3	generate/STIM_014.jpg
2039.562	1.101	incorrect	generate	Run3	generate/STIM_014.jpg
2044.568	1.786	correct	generate	Run3	generate/STIM_014.jpg
2048.446	1.422	correct	generate	Run3	generate/STIM_014.jpg
2052.711	0.89	correct	generate	Run3	generate/STIM_014.jpg
2056.473	1.626	correct	generate	Run3	generate/STIM_015.jpg
2060.64	1.992	correct	generate	Run3	generate/STIM_015.jpg
2065.161	1.828	incorrect	generate	Run3	generate/STIM_015.jpg
2069.722	1.777	correct	generate	Run3	generate/STIM_015.jpg
2074.959	1.103	correct	generate	Run3	generate/STIM_015.jpg
2079.123	1.119	correct	generate	Run3	generate/STIM_016.jpg
2082.709	1.092	correct	generate	Run3	generate/STIM_016.jpg
2087.38	1.929	incorrect	generate	Run3	generate/STIM_016.jpg
2093.286	1.31	correct	generate	Run3	generate/STIM_016.jpg
2098.461	1.303	incorrect	generate	Run3	generate/STIM_016.jpg
2103.216	1.73	correct	generate	Run3	generate/STIM_017.jpg
2106.95	1.594	correct	generate	Run3	generate/STIM_017.jpg
2110.887	1.627	correct	generate	Run3	generate/STIM_017.jpg
2116.436	1.547	incorrect	generate	Run3	generate/STIM_017.jpg
2121.62	0.949	incorrect	generate	Run3	generate/STIM_017.jpg
2125.337	1.172	correct	generate	Run3	generate/STIM_018.jpg
2129.148	1.038	correct	generate	Run3	generate/STIM_018.jpg
2132.383	1.978	correct	generate	Run3	generate/STIM_018.jpg
2137.955	1.265	correct	generate	Run3	generate/STIM_018.jpg
2142.367	1.78	correct	generate	Run3	generate/STIM_018.jpg
2147.363	1.25	correct	generate	Run3	generate/STIM_019.jpg
2151.845	1.843	incorrect	generate	Run3	generate/STIM_019.jpg
2156.506	0.852	incorrect	generate	Run3	generate/STIM_019.jpg
2161.219	1.866	correct	generate	Run3	generate/STIM_019.jpg
2165.293	1.642	correct	generate	Run3	generate/STIM_019.jpg
2170.216	0.982	correct	generate	Run3	generate/STIM_020.jpg
2173.675	1.295	correct	generate	Run3	generate/STIM_020.jpg
2177.24	0.937	correct	generate	Run3	generate/STIM_020.jpg
2181.566	1.74	correct	generate	Run3	generate/STIM_020.jpg
2186.97	1.398	correct	generate	Run3	generate/STIM_020.jpg
2191.571	1.768	correct	generate	Run3	generate/STIM_021.jpg
2196.996	2.009	correct	generate	Run3	generate/STIM_021.jpg
2201.074	1.394	correct	generate	Run3	generate/STIM_021.jpg
2206.458	1.18	incorrect	generate	Run3	generate/STIM_021.jpg
2210.465	1.624	correct	generate	Run3	generate/STIM_021.jpg
2215.298	1.353	correct	generate	Run3	generate/STIM_022.jpg
2220.3	1.938	correct	generate	Run3	generate/STIM_022.jpg
2225.158	1.41	correct	generate	Run3	generate/STIM_022.jpg
2229.584	1.313	correct	generate	Run3	generate/STIM_022.jpg
2234.341	1.251	correct	generate	Run3	generate/STIM_022.jpg
2238.745	1.789	incorrect	generate	Run3	generate/STIM_023.jpg
2243.431	1.171	correct	generate	Run3	generate/STIM_023.jpg
2247.731	0.96	correct	generate	Run3	generate/STIM_023.jpg
2251.387	1.089	correct	generate	Run3	generate/STIM_023.jpg
2255.983	1.288	correct	generate	Run3	generate/STIM_023.jpg
2260.999	1.569	correct	generate	Run3	generate/STIM_024.jpg
2265.489	1.626	correct	generate	Run3	generate/STIM_024.jpg
2269.678	1.596	correct	generate	Run3	generate/STIM_024.jpg
2273.995	1.918	correct	generate	Run3	generate/STIM_024.jpg
2278.751	1.48	incorrect	generate	Run3	generate/STIM_024.jpg
2283.98	0.568	incorrect	repeat	Run3	repeat/STIM_000.jpg
2287.381	0.947	correct	repeat	Run3	repeat/STIM_000.jpg
2291.29	0.633	correct	repeat	Run3	repeat/STIM_000.jpg
2295.897	0.75	correct	repeat	Run3	repeat/STIM_000.jpg
2299.863	0.832	correct	repeat	Run3	repeat/STIM_000.jpg
2302.915	0.751	correct	repeat	Run3	repeat/STIM_001.jpg
2306.895	0.624	correct	repeat	Run3	repeat/STIM_001.jpg
2310.202	0.562	correct	repeat	Run3	repeat/STIM_001.jpg
2314.64	0.843	correct	repeat	Run3	repeat/STIM_001.jpg
2318.734	0.534	correct	repeat	Run3	repeat/STIM_001.jpg
2321.434	0.813	correct	repeat	Run3	repeat/STIM_002.jpg
2325.595	0.646	correct	repeat	Run3	repeat/STIM_002.jpg
2328.909	0.962	correct	repeat	Run3	repeat/STIM_002.jpg
2332.835	0.844	correct	repeat	Run3	repeat/STIM_002.jpg
2336.312	0.61	correct	repeat	Run3	repeat/STIM_002.jpg
2340.075	0.957	correct	repeat	Run3	repeat/STIM_003.jpg
2343.897	0.836	correct	repeat	Run3	repeat/STIM_003.jpg
2348.061	0.854	correct	repeat	Run3	repeat/STIM_003.jpg
2352.766	0.965	incorrect	repeat	Run3	repeat/STIM_003.jpg
2356.549	0.529	correct	repeat	Run3	repeat/STIM_003.jpg
2361.061	0.582	correct	repeat	Run3	repeat/STIM_004.jpg
2365.237	0.966	correct	repeat	Run3	repeat/STIM_004.jpg
2369.102	0.734	correct	repeat	Run3	repeat/STIM_004.jpg
2373.26	0.792	correct	repeat	Run3	repeat/STIM_004.jpg
2377.268	0.612	correct	repeat	Run3	repeat/STIM_004.jpg
2380.65	0.918	correct	repeat	Run3	repeat/STIM_005.jpg
2385.443	0.765	correct	repeat	Run3	repeat/STIM_005.jpg
2389.947	0.646	correct	repeat	Run3	repeat/STIM_005.jpg
2394.25	0.767	correct	repeat	Run3	repeat/STIM_005.jpg
2397.944	0.848	correct	repeat	Run3	repeat/STIM_005.jpg
2402.576	0.495	correct	repeat	Run3	repeat/STIM_006.jpg
2405.445	0.729	correct	repeat	Run3	repeat/STIM_006.jpg
2409.567	0.784	correct	repeat	Run3	repeat/STIM_006.jpg
2414.084	0.816	correct	repeat	Run3	repeat/STIM_006.jpg
2417.658	0.62	correct	repeat	Run3	repeat/STIM_006.jpg
2421.4	0.806	correct	repeat	Run3	repeat/STIM_007.jpg
2424.329	0.957	correct	repeat	Run3	repeat/STIM_007.jpg
2427.562	0.861	correct	repeat	Run3	repeat/STIM_007.jpg
2430.446	0.562	correct	repeat	Run3	repeat/STIM_007.jpg
2433.493	0.595	incorrect	repeat	Run3	repeat/STIM_007.jpg
2436.654	0.559	correct	repeat	Run3	repeat/STIM_008.jpg
2439.365	0.948	correct	repeat	Run3	repeat/STIM_008.jpg
2442.35	0.583	correct	repeat	Run3	repeat/STIM_008.jpg
2445.772	0.614	correct	repeat	Run3	repeat/STIM_008.jpg
2449.883	0.941	correct	repeat	Run3	repeat/STIM_008.jpg
2453.888	0.551	correct	repeat	Run3	repeat/STIM_009.jpg
2456.663	0.899	correct	repeat	Run3	repeat/STIM_009.jpg
2459.576	0.589	correct	repeat	Run3	repeat/STIM_009.jpg
2463.43	0.543	correct	repeat	Run3	repeat/STIM_009.jpg
2467.291	0.615	correct	repeat	Run3	repeat/STIM_009.jpg
2471.262	0.755	incorrect	repeat	Run3	repeat/STIM_010.jpg
2475.095	0.768	correct	repeat	Run3	repeat/STIM_010.jpg
2479.151	0.762	correct	repeat	Run3	repeat/STIM_010.jpg
2482.805	0.586	correct	repeat	Run3	repeat/STIM_010.jpg
2485.432	0.831	incorrect	repeat	Run3	repeat/STIM_010.jpg
2488.375	0.542	correct	repeat	Run3	repeat/STIM_011.jpg
2491.523	0.665	correct	repeat	Run3	repeat/STIM_011.jpg
2496.12	0.805	correct	repeat	Run3	repeat/STIM_011.jpg
2499.401	0.629	correct	repeat	Run3	repeat/STIM_011.jpg
2502.271	0.849	incorrect	repeat	Run3	repeat/STIM_011.jpg
2505.814	0.57	incorrect	repeat	Run3	repeat/STIM_012.jpg
2509.758	0.901	correct	repeat	Run3	repeat/STIM_012.jpg
2513.279	0.737	correct	repeat	Run3	repeat/STIM_012.jpg
2516.427	0.964	correct	repeat	Run3	repeat/STIM_012.jpg
2519.575	0.653	incorrect	repeat	Run3	repeat/STIM_012.jpg
2523.767	0.768	correct	repeat	Run3	repeat/STIM_013.jpg
2528.299	0.642	correct	repeat	Run3	repeat/STIM_013.jpg
2532.566	0.738	correct	repeat	Run3	repeat/STIM_013.jpg
2536.526	0.785	correct	repeat	Run3	repeat/STIM_013.jpg
2540.229	0.868	correct	repeat	Run3	repeat/STIM_013.jpg
2544.429	0.804	correct	repeat	Run3	repeat/STIM_014.jpg
2547.384	0.686	correct	repeat	Run3	repeat/STIM_014.jpg
2550.598	0.784	correct	repeat	Run3	repeat/STIM_014.jpg
2554.923	0.522	correct	repeat	Run3	repeat/STIM_014.jpg
2557.553	0.778	correct	repeat	Run3	repeat/STIM_014.jpg
2561.738	1.328	incorrect	generate	Run4	generate/STIM_000.jpg
2566.803	1.523	correct	generate	Run4	generate/STIM_000.jpg
2571.037	1.068	correct	generate	Run4	generate/STIM_000.jpg
2575.191	1.741	correct	generate	Run4	generate/STIM_000.jpg
2580.533	1.955	correct	generate	Run4	generate/STIM_000.jpg
2586.248	1.135	correct	generate	Run4	generate/STIM_001.jpg
2591.098	1.796	correct	generate	Run4	generate/STIM_001.jpg
2596.343	1.041	correct	generate	Run4	generate/STIM_001.jpg
2600.728	0.883	correct	generate	Run4	generate/STIM_001.jpg
2604.967	1.437	correct	generate	Run4	generate/STIM_001.jpg
2610.359	1.123	correct	generate	Run4	generate/STIM_002.jpg
2614.657	1.593	correct	generate	Run4	generate/STIM_002.jpg
2619.189	1.226	correct	generate	Run4	generate/STIM_002.jpg
2622.701	0.865	correct	generate	Run4	generate/STIM_002.jpg
2627.121	1.753	incorrect	generate	Run4	generate/STIM_002.jpg
2632.405	1.298	correct	generate	Run4	generate/STIM_003.jpg
2635.955	1.606	correct	generate	Run4	generate/STIM_003.jpg
2641.117	0.919	correct	generate	Run4	generate/STIM_003.jpg
2645.801	1.979	correct	generate	Run4	generate/STIM_003.jpg
2650.734	1.231	correct	generate	Run4	generate/STIM_003.jpg
2655.857	1.53	correct	generate	Run4	generate/STIM_004.jpg
2661.15	0.931	correct	generate	Run4	generate/STIM_004.jpg
2665.018	1.25	correct	generate	Run4	generate/STIM_004.jpg
2668.761	1.733	correct	generate	Run4	generate/STIM_004.jpg
2672.968	1.952	correct	generate	Run4	generate/STIM_004.jpg
2678.316	1.641	correct	generate	Run4	generate/STIM_005.jpg
2682.721	1.984	correct	generate	Run4	generate/STIM_005.jpg
2686.936	1.412	correct	generate	Run4	generate/STIM_005.jpg
2692.226	1.894	correct	generate	Run4	generate/STIM_005.jpg
2697.278	1.359	incorrect	generate	Run4	generate/STIM_005.jpg
2701.754	1.623	correct	generate	Run4	generate/STIM_006.jpg
2706.026	1.705	correct	generate	Run4	generate/STIM_006.jpg
2711.162	0.813	incorrect	generate	Run4	generate/STIM_006.jpg
2714.379	1.24	correct	generate	Run4	generate/STIM_006.jpg
2719.389	1.821	correct	generate	Run4	generate/STIM_006.jpg
2724.203	1.385	correct	generate	Run4	generate/STIM_007.jpg
2728.326	0.881	correct	generate	Run4	generate/STIM_007.jpg
2731.626	0.872	correct	generate	Run4	generate/STIM_007.jpg
2735.965	1.687	correct	generate	Run4	generate/STIM_007.jpg
2741.403	1.677	incorrect	generate	Run4	generate/STIM_007.jpg
2745.755	1.864	correct	generate	Run4	generate/STIM_008.jpg
2751.014	1.827	correct	generate	Run4	generate/STIM_008.jpg
2755.636	1.592	correct	generate	Run4	generate/STIM_008.jpg
2760.445	1.057	correct	generate	Run4	generate/STIM_008.jpg
2764.787	1.979	correct	generate	Run4	generate/STIM_008.jpg
2769.751	1.592	incorrect	generate	Run4	generate/STIM_009.jpg
2774.7	1.427	incorrect	generate	Run4	generate/STIM_009.jpg
2778.824	1.214	correct	generate	Run4	generate/STIM_009.jpg
2783.013	1.152	correct	generate	Run4	generate/STIM_009.jpg
2787.438	1.796	correct	generate	Run4	generate/STIM_009.jpg
2791.305	1.191	incorrect	generate	Run4	generate/STIM_010.jpg
2794.611	1.029	correct	generate	Run4	generate/STIM_010.jpg
2798.385	1.185	correct	generate	Run4	generate/STIM_010.jpg
2801.669	1.091	correct	generate	Run4	generate/STIM_010.jpg
2806.161	1.222	correct	generate	Run4	generate/STIM_010.jpg
2810.339	1.406	correct	generate	Run4	generate/STIM_011.jpg
2815.026	1.235	correct	generate	Run4	generate/STIM_011.jpg
2818.625	1.022	correct	generate	Run4	generate/STIM_011.jpg
2822.089	1.321	correct	generate	Run4	generate/STIM_011.jpg
2827.226	1.408	correct	generate	Run4	generate/STIM_011.jpg
2831.312	1.758	correct	generate	Run4	generate/STIM_012.jpg
2836.225	1.932	correct	generate	Run4	generate/STIM_012.jpg
2841.393	2.004	correct	generate	Run4	generate/STIM_012.jpg
2845.88	1.145	correct	generate	Run4	generate/STIM_012.jpg
2850.778	1.137	correct	generate	Run4	generate/STIM_012.jpg
2855.047	0.914	incorrect	generate	Run4	generate/STIM_013.jpg
2859.89	1.676	correct	generate	Run4	generate/STIM_013.jpg
2863.701	0.922	correct	generate	Run4	generate/STIM_013.jpg
2866.767	1.859	correct	generate	Run4	generate/STIM_013.jpg
2870.65	0.871	correct	generate	Run4	generate/STIM_013.jpg
2873.852	0.913	correct	generate	Run4	generate/STIM_014.jpg
2878.65	1.107	incorrect	generate	Run4	generate/STIM_014.jpg
2881.83	1.454	correct	generate	Run4	generate/STIM_014.jpg
2885.47	1.316	correct	generate	Run4	generate/STIM_014.jpg
2889.858	1.444	correct	generate	Run4	generate/STIM_014.jpg
2895.263	0.941	correct	generate	Run4	generate/STIM_015.jpg
2898.895	1.705	correct	generate	Run4	generate/STIM_015.jpg
2904.189	1.104	correct	generate	Run4	generate/STIM_015.jpg
2908.574	1.924	correct	generate	Run4	generate/STIM_015.jpg
2912.973	2.006	correct	generate	Run4	generate/STIM_015.jpg
2917.551	1.711	correct	generate	Run4	generate/STIM_016.jpg
2922.902	1.813	correct	generate	Run4	generate/STIM_016.jpg
2927.78	1.988	correct	generate	Run4	generate/STIM_016.jpg
2931.941	1.256	incorrect	generate	Run4	generate/STIM_016.jpg
2935.591	1.316	correct	generate	Run4	generate/STIM_016.jpg
2940.638	1.108	correct	generate	Run4	generate/STIM_017.jpg
2945.338	1.056	incorrect	generate	Run4	generate/STIM_017.jpg
2949.205	0.966	correct	generate	Run4	generate/STIM_017.jpg
2952.56	1.134	correct	generate	Run4	generate/STIM_017.jpg
2956.281	1.435	correct	generate	Run4	generate/STIM_017.jpg
2960.905	1.745	correct	generate	Run4	generate/STIM_018.jpg
2964.785	1.185	incorrect	generate	Run4	generate/STIM_018.jpg
2968.54	1.45	correct	generate	Run4	generate/STIM_018.jpg
2973.543	1.421	correct	generate	Run4	generate/STIM_018.jpg
2977.614	1.114	correct	generate	Run4	generate/STIM_018.jpg
2981.781	1.879	correct	generate	Run4	generate/STIM_019.jpg
2987.041	2.008	correct	generate	Run4	generate/STIM_019.jpg
2991.424	1.912	correct	generate	Run4	generate/STIM_019.jpg
2995.346	1.95	correct	generate	Run4	generate/STIM_019.jpg
3000.094	0.821	correct	generate	Run4	generate/STIM_019.jpg
3004.829	1.576	correct	generate	Run4	generate/STIM_020.jpg
3008.854	1.006	correct	generate	Run4	generate/STIM_020.jpg
3013.187	0.85	correct	generate	Run4	generate/STIM_020.jpg
3017.94	1.704	correct	generate	Run4	generate/STIM_020.jpg
3021.98	0.821	incorrect	generate	Run4	generate/STIM_020.jpg
3026.742	1.852	correct	generate	Run4	generate/STIM_021.jpg
3032.209	1.327	correct	generate	Run4	generate/STIM_021.jpg
3036.301	1.222	correct	generate	Run4	generate/STIM_021.jpg
3040.417	1.401	correct	generate	Run4	generate/STIM_021.jpg
3044.818	0.844	correct	generate	Run4	generate/STIM_021.jpg
3048.931	1.062	correct	generate	Run4	generate/STIM_022.jpg
3053.826	1.56	correct	generate	Run4	generate/STIM_022.jpg
3058.778	0.83	correct	generate	Run4	generate/STIM_022.jpg
3063.402	2.015	correct	generate	Run4	generate/STIM_022.jpg
3068.845	1.955	correct	generate	Run4	generate/STIM_022.jpg
3073.278	0.943	correct	generate	Run4	generate/STIM_023.jpg
3076.688	1.463	correct	generate	Run4	generate/STIM_023.jpg
3081.537	1.619	incorrect	generate	Run4	generate/STIM_023.jpg
3087.018	1.945	correct	generate	Run4	generate/STIM_023.jpg
3091.122	1.949	correct	generate	Run4	generate/STIM_023.jpg
3095.319	1.536	correct	generate	Run4	generate/STIM_024.jpg
3099.115	1.976	correct	generate	Run4	generate/STIM_024.jpg
3103.653	1.608	correct	generate	Run4	generate/STIM_024.jpg
3108.142	1.104	correct	generate	Run4	generate/STIM_024.jpg
3111.603	1.759	incorrect	generate	Run4	generate/STIM_024.jpg
3115.568	0.748	correct	repeat	Run4	repeat/STIM_000.jpg
3120.157	0.643	correct	repeat	Run4	repeat/STIM_000.jpg
3124.757	0.937	correct	repeat	Run4	repeat/STIM_000.jpg
3128.252	0.7	correct	repeat	Run4	repeat/STIM_000.jpg
3132.609	0.635	correct	repeat	Run4	repeat/STIM_000.jpg
3136.221	0.839	correct	repeat	Run4	repeat/STIM_001.jpg
3139.56	0.688	correct	repeat	Run4	repeat/STIM_001.jpg
3143.727	0.507	incorrect	repeat	Run4	repeat/STIM_001.jpg
3146.337	0.957	correct	repeat	Run4	repeat/STIM_001.jpg
3150.578	0.815	correct	repeat	Run4	repeat/STIM_001.jpg
3154.232	0.892	incorrect	repeat	Run4	repeat/STIM_002.jpg
3158.393	0.552	correct	repeat	Run4	repeat/STIM_002.jpg
3162.706	0.551	correct	repeat	Run4	repeat/STIM_002.jpg
3165.841	0.831	correct	repeat	Run4	repeat/STIM_002.jpg
3170.602	0.685	correct	repeat	Run4	repeat/STIM_002.jpg
3174.395	0.821	correct	repeat	Run4	repeat/STIM_003.jpg
3178.226	0.514	correct	repeat	Run4	repeat/STIM_003.jpg
3182.214	0.492	correct	repeat	Run4	repeat/STIM_003.jpg
3184.895	0.917	correct	repeat	Run4	repeat/STIM_003.jpg
3189.782	0.817	correct	repeat	Run4	repeat/STIM_003.jpg
3193.044	0.556	correct	repeat	Run4	repeat/STIM_004.jpg
3197.522	0.633	correct	repeat	Run4	repeat/STIM_004.jpg
3200.851	0.628	correct	repeat	Run4	repeat/STIM_004.jpg
3205.108	0.716	correct	repeat	Run4	repeat/STIM_004.jpg
3207.85	0.588	correct	repeat	Run4	repeat/STIM_004.jpg
3210.705	0.672	incorrect	repeat	Run4	repeat/STIM_005.jpg
3215.327	0.678	correct	repeat	Run4	repeat/STIM_005.jpg
3219.797	0.765	correct	repeat	Run4	repeat/STIM_005.jpg
3224.386	0.943	correct	repeat	Run4	repeat/STIM_005.jpg
3228.227	0.758	correct	repeat	Run4	repeat/STIM_005.jpg
3231.291	0.717	correct	repeat	Run4	repeat/STIM_006.jpg
3235.216	0.724	incorrect	repeat	Run4	repeat/STIM_006.jpg
3239.786	0.531	correct	repeat	Run4	repeat/STIM_006.jpg
3243.136	0.737	correct	repeat	Run4	repeat/STIM_006.jpg
3246.712	0.845	correct	repeat	Run4	repeat/STIM_006.jpg
3250.534	0.712	correct	repeat	Run4	repeat/STIM_007.jpg
3254.074	0.84	correct	repeat	Run4	repeat/STIM_007.jpg
3257.322	0.906	correct	repeat	Run4	repeat/STIM_007.jpg
3261.012	0.566	correct	repeat	Run4	repeat/STIM_007.jpg
3265.473	0.861	correct	repeat	Run4	repeat/STIM_007.jpg
3268.555	0.678	correct	repeat	Run4	repeat/STIM_008.jpg
3272.487	0.764	correct	repeat	Run4	repeat/STIM_008.jpg
3276.204	0.773	correct	repeat	Run4	repeat/STIM_008.jpg
3279.191	0.715	correct	repeat	Run4	repeat/STIM_008.jpg
3282.718	0.809	correct	repeat	Run4	repeat/STIM_008.jpg
3286.392	0.535	incorrect	repeat	Run4	repeat/STIM_009.jpg
3289.566	0.875	correct	repeat	Run4	repeat/STIM_009.jpg
3292.597	0.965	correct	repeat	Run4	repeat/STIM_009.jpg
3297.514	0.732	correct	repeat	Run4	repeat/STIM_009.jpg
3301.37	0.619	correct	repeat	Run4	repeat/STIM_009.jpg
3305.632	0.518	correct	repeat	Run4	repeat/STIM_010.jpg
3308.309	0.716	correct	repeat	Run4	repeat/STIM_010.jpg
3312.503	0.501	correct	repeat	Run4	repeat/STIM_010.jpg
3316.516	0.584	incorrect	repeat	Run4	repeat/STIM_010.jpg
3319.832	0.529	correct	repeat	Run4	repeat/STIM_010.jpg
3323.181	0.779	incorrect	repeat	Run4	repeat/STIM_011.jpg
3325.963	0.945	correct	repeat	Run4	repeat/STIM_011.jpg
3329.463	0.561	correct	repeat	Run4	repeat/STIM_011.jpg
3332.286	0.81	incorrect	repeat	Run4	repeat/STIM_011.jpg
3336.202	0.504	correct	repeat	Run4	repeat/STIM_011.jpg
3338.784	0.961	correct	repeat	Run4	repeat/STIM_012.jpg
3342.409	0.786	correct	repeat	Run4	repeat/STIM_012.jpg
3346.5	0.649	correct	repeat	Run4	repeat/STIM_012.jpg
3349.779	0.582	correct	repeat	Run4	repeat/STIM_012.jpg
3353.959	0.539	incorrect	repeat	Run4	repeat/STIM_012.jpg
3357.757	0.549	correct	repeat	Run4	repeat/STIM_013.jpg
3362.046	0.683	correct	repeat	Run4	repeat/STIM_013.jpg
3365.523	0.6	correct	repeat	Run4	repeat/STIM_013.jpg
3369.285	0.698	incorrect	repeat	Run4	repeat/STIM_013.jpg
3372.922	0.85	correct	repeat	Run4	repeat/STIM_013.jpg
3377.257	0.714	correct	repeat	Run4	repeat/STIM_014.jpg
3380.721	0.797	correct	repeat	Run4	repeat/STIM_014.jpg
3384.213	0.735	incorrect	repeat	Run4	repeat/STIM_014.jpg
3387.664	0.612	correct	repeat	Run4	repeat/STIM_014.jpg
3390.549	0.526	correct	repeat	Run4	repeat/STIM_014.jpg
