onset	duration	accuracy_binary	trial_type	learning_stage	stimulus
0.0	1.667	0	generate	Run1	generate/STIM_000.jpg
4.623	1.367	1	generate	Run1	generate/STIM_000.jpg
9.283	2.535	0	generate	Run1	generate/STIM_000.jpg
13.851	2.655	0	generate	Run1	generate/STIM_000.jpg
19.891	1.556	1	generate	Run1	generate/STIM_000.jpg
23.709	1.343	1	generate	Run1	generate/STIM_001.jpg
27.213	2.705	1	generate	Run1	generate/STIM_001.jpg
33.596	2.119	1	generate	Run1	generate/STIM_001.jpg
38.399	2.473	0	generate	Run1	generate/STIM_001.jpg
44.095	1.893	1	generate	Run1	generate/STIM_001.jpg
49.144	1.716	1	generate	Run1	generate/STIM_002.jpg
53.374	1.864	0	generate	Run1	generate/STIM_002.jpg
59.03	1.174	0	generate	Run1	generate/STIM_002.jpg
63.54	1.28	0	generate	Run1	generate/STIM_002.jpg
68.503	1.27	1	generate	Run1	generate/STIM_002.jpg
72.34	1.285	1	generate	Run1	generate/STIM_003.jpg
75.988	1.43	1	generate	Run1	generate/STIM_003.jpg
80.659	2.811	1	generate	Run1	generate/STIM_003.jpg
87.075	2.527	1	generate	Run1	generate/STIM_003.jpg
92.317	1.656	0	generate	Run1	generate/STIM_003.jpg
97.627	2.561	1	generate	Run1	generate/STIM_004.jpg
103.136	2.869	1	generate	Run1	generate/STIM_004.jpg
108.282	2.826	1	generate	Run1	generate/STIM_004.jpg
112.983	1.149	0	generate	Run1	generate/STIM_004.jpg
118.043	1.513	0	generate	Run1	generate/STIM_004.jpg
121.61	2.843	0	generate	Run1	generate/STIM_005.jpg
126.883	1.764	1	generate	Run1	generate/STIM_005.jpg
131.236	1.682	1	generate	Run1	generate/STIM_005.jpg
136.277	1.5	1	generate	Run1	generate/STIM_005.jpg
140.59	2.427	1	generate	Run1	generate/STIM_005.jpg
145.733	2.35	1	generate	Run1	generate/STIM_006.jpg
151.813	1.231	1	generate	Run1	generate/STIM_006.jpg
156.437	2.811	0	generate	Run1	generate/STIM_006.jpg
161.236	1.893	1	generate	Run1	generate/STIM_006.jpg
166.352	1.235	1	generate	Run1	generate/STIM_006.jpg
170.346	1.551	1	generate	Run1	generate/STIM_007.jpg
175.077	2.423	0	generate	Run1	generate/STIM_007.jpg
180.519	1.977	1	generate	Run1	generate/STIM_007.jpg
185.342	2.665	1	generate	Run1	generate/STIM_007.jpg
191.754	1.669	1	generate	Run1	generate/STIM_007.jpg
195.584	2.32	1	generate	Run1	generate/STIM_008.jpg
200.195	1.99	0	generate	Run1	generate/STIM_008.jpg
204.756	1.682	1	generate	Run1	generate/STIM_008.jpg
209.969	1.34	1	generate	Run1	generate/STIM_008.jpg
213.392	2.45	1	generate	Run1	generate/STIM_008.jpg
217.782	2.272	0	generate	Run1	generate/STIM_009.jpg
223.801	1.432	1	generate	Run1	generate/STIM_009.jpg
227.489	2.28	1	generate	Run1	generate/STIM_009.jpg
233.123	1.299	1	generate	Run1	generate/STIM_009.jpg
237.223	2.112	1	generate	Run1	generate/STIM_009.jpg
242.975	2.386	1	generate	Run1	generate/STIM_010.jpg
247.902	2.789	0	generate	Run1	generate/STIM_010.jpg
253.593	1.553	1	generate	Run1	generate/STIM_010.jpg
257.602	1.532	0	generate	Run1	generate/STIM_010.jpg
261.954	1.665	1	generate	Run1	generate/STIM_010.jpg
266.389	2.813	1	generate	Run1	generate/STIM_011.jpg
271.709	1.696	0	generate	Run1	generate/STIM_011.jpg
277.059	1.466	0	generate	Run1	generate/STIM_011.jpg
282.194	1.278	1	generate	Run1	generate/STIM_011.jpg
286.646	1.576	1	generate	Run1	generate/STIM_011.jpg
291.347	3.127	0	generate	Run1	generate/STIM_012.jpg
298.024	1.886	1	generate	Run1	generate/STIM_012.jpg
302.213	1.483	1	generate	Run1	generate/STIM_012.jpg
306.45	2.38	1	generate	Run1	generate/STIM_012.jpg
312.31	1.611	0	generate	Run1	generate/STIM_012.jpg
317.481	1.899	0	generate	Run1	generate/STIM_013.jpg
321.832	2.373	1	generate	Run1	generate/STIM_013.jpg
327.886	2.419	1	generate	Run1	generate/STIM_013.jpg
333.067	1.129	1	generate	Run1	generate/STIM_013.jpg
336.286	1.716	1	generate	Run1	generate/STIM_013.jpg
340.838	1.528	1	generate	Run1	generate/STIM_014.jpg
345.269	2.973	0	generate	Run1	generate/STIM_014.jpg
351.425	1.3	1	generate	Run1	generate/STIM_014.jpg
356.478	2.613	1	generate	Run1	generate/STIM_014.jpg
360.998	2.15	1	generate	Run1	generate/STIM_014.jpg
366.237	3.055	1	generate	Run1	generate/STIM_015.jpg
371.489	2.865	1	generate	Run1	generate/STIM_015.jpg
377.24	2.037	1	generate	Run1	generate/STIM_015.jpg
382.791	1.784	1	generate	Run1	generate/STIM_015.jpg
388.369	2.248	0	generate	Run1	generate/STIM_015.jpg
393.871	2.451	1	generate	Run1	generate/STIM_016.jpg
400.12	2.72	1	generate	Run1	generate/STIM_016.jpg
405.034	1.686	0	generate	Run1	generate/STIM_016.jpg
409.586	2.074	0	generate	Run1	generate/STIM_016.jpg
413.855	1.462	1	generate	Run1	generate/STIM_016.jpg
418.319	1.288	0	generate	Run1	generate/STIM_017.jpg
423.302	1.822	1	generate	Run1	generate/STIM_017.jpg
428.01	2.762	0	generate	Run1	generate/STIM_017.jpg
434.044	1.52	0	generate	Run1	generate/STIM_017.jpg
439.357	2.517	1	generate	Run1	generate/STIM_017.jpg
444.106	2.705	0	generate	Run1	generate/STIM_018.jpg
449.696	2.504	1	generate	Run1	generate/STIM_018.jpg
455.168	1.685	1	generate	Run1	generate/STIM_018.jpg
458.941	1.531	1	generate	Run1	generate/STIM_018.jpg
463.977	1.681	1	generate	Run1	generate/STIM_018.jpg
468.515	1.402	0	generate	Run1	generate/STIM_019.jpg
473.549	2.901	0	generate	Run1	generate/STIM_019.jpg
479.489	1.406	0	generate	Run1	generate/STIM_019.jpg
484.082	1.436	1	generate	Run1	generate/STIM_019.jpg
487.859	2.231	0	generate	Run1	generate/STIM_019.jpg
492.761	2.02	1	generate	Run1	generate/STIM_020.jpg
497.27	1.49	1	generate	Run1	generate/STIM_020.jpg
501.613	1.277	1	generate	Run1	generate/STIM_020.jpg
504.887	2.455	0	generate	Run1	generate/STIM_020.jpg
509.231	2.202	0	generate	Run1	generate/STIM_020.jpg
513.866	3.016	0	generate	Run1	generate/STIM_021.jpg
519.027	2.957	1	generate	Run1	generate/STIM_021.jpg
525.074	1.463	1	generate	Run1	generate/STIM_021.jpg
529.313	2.456	1	generate	Run1	generate/STIM_021.jpg
533.994	2.07	1	generate	Run1	generate/STIM_021.jpg
538.205	1.521	1	generate	Run1	generate/STIM_022.jpg
542.287	2.876	1	generate	Run1	generate/STIM_022.jpg
548.788	2.258	1	generate	Run1	generate/STIM_022.jpg
554.094	2.551	1	generate	Run1	generate/STIM_022.jpg
560.341	2.052	0	generate	Run1	generate/STIM_022.jpg
565.156	3.083	0	generate	Run1	generate/STIM_023.jpg
570.316	1.288	1	generate	Run1	generate/STIM_023.jpg
575.476	2.19	1	generate	Run1	generate/STIM_023.jpg
579.859	1.849	1	generate	Run1	generate/STIM_023.jpg
585.428	1.906	1	generate	Run1	generate/STIM_023.jpg
589.453	2.534	1	generate	Run1	generate/STIM_024.jpg
593.932	2.634	1	generate	Run1	generate/STIM_024.jpg
598.959	2.783	0	generate	Run1	generate/STIM_024.jpg
604.105	1.131	1	generate	Run1	generate/STIM_024.jpg
608.989	1.483	0	generate	Run1	generate/STIM_024.jpg
612.517	0.977	1	repeat	Run1	repeat/STIM_000.jpg
616.953	0.697	0	repeat	Run1	repeat/STIM_000.jpg
621.139	0.971	1	repeat	Run1	repeat/STIM_000.jpg
625.981	0.54	1	repeat	Run1	repeat/STIM_000.jpg
630.383	1.066	1	repeat	Run1	repeat/STIM_000.jpg
633.572	0.694	1	repeat	Run1	repeat/STIM_001.jpg
636.904	0.772	1	repeat	Run1	repeat/STIM_001.jpg
641.288	0.709	1	repeat	Run1	repeat/STIM_001.jpg
644.121	0.541	1	repeat	Run1	repeat/STIM_001.jpg
647.278	0.872	1	repeat	Run1	repeat/STIM_001.jpg
650.158	1.029	1	repeat	Run1	repeat/STIM_002.jpg
654.013	0.987	1	repeat	Run1	repeat/STIM_002.jpg
658.801	0.662	1	repeat	Run1	repeat/STIM_002.jpg
662.817	0.58	1	repeat	Run1	repeat/STIM_002.jpg
667.229	0.924	1	repeat	Run1	repeat/STIM_002.jpg
671.685	1.045	1	repeat	Run1	repeat/STIM_003.jpg
674.94	0.748	1	repeat	Run1	repeat/STIM_003.jpg
679.121	0.928	1	repeat	Run1	repeat/STIM_003.jpg
683.46	0.89	1	repeat	Run1	repeat/STIM_003.jpg
688.01	0.968	1	repeat	Run1	repeat/STIM_003.jpg
691.749	0.6	1	repeat	Run1	repeat/STIM_004.jpg
694.4	0.967	1	repeat	Run1	repeat/STIM_004.jpg
698.917	1.031	1	repeat	Run1	repeat/STIM_004.jpg
702.724	0.9	1	repeat	Run1	repeat/STIM_004.jpg
705.758	0.955	1	repeat	Run1	repeat/STIM_004.jpg
710.145	0.715	1	repeat	Run1	repeat/STIM_005.jpg
714.737	0.978	1	repeat	Run1	repeat/STIM_005.jpg
719.561	1.026	1	repeat	Run1	repeat/STIM_005.jpg
723.953	0.755	1	repeat	Run1	repeat/STIM_005.jpg
728.557	0.535	1	repeat	Run1	repeat/STIM_005.jpg
731.179	0.556	1	repeat	Run1	repeat/STIM_006.jpg
733.945	0.551	1	repeat	Run1	repeat/STIM_006.jpg
737.617	0.685	1	repeat	Run1	repeat/STIM_006.jpg
740.909	0.588	1	repeat	Run1	repeat/STIM_006.jpg
743.577	0.832	1	repeat	Run1	repeat/STIM_006.jpg
747.347	0.69	1	repeat	Run1	repeat/STIM_007.jpg
751.09	1.016	1	repeat	Run1	repeat/STIM_007.jpg
755.666	0.607	0	repeat	Run1	repeat/STIM_007.jpg
760.165	0.764	1	repeat	Run1	repeat/STIM_007.jpg
763.799	1.006	1	repeat	Run1	repeat/STIM_007.jpg
768.009	0.585	1	repeat	Run1	repeat/STIM_008.jpg
770.666	1.005	1	repeat	Run1	repeat/STIM_008.jpg
774.414	0.553	1	repeat	Run1	repeat/STIM_008.jpg
777.683	0.886	1	repeat	Run1	repeat/STIM_008.jpg
782.403	0.985	1	repeat	Run1	repeat/STIM_008.jpg
785.984	1.028	1	repeat	Run1	repeat/STIM_009.jpg
789.353	0.562	1	repeat	Run1	repeat/STIM_009.jpg
793.286	0.883	1	repeat	Run1	repeat/STIM_009.jpg
797.717	0.871	0	repeat	Run1	repeat/STIM_009.jpg
801.017	0.651	1	repeat	Run1	repeat/STIM_009.jpg
804.943	0.738	1	repeat	Run1	repeat/STIM_010.jpg
808.077	0.746	1	repeat	Run1	repeat/STIM_010.jpg
811.743	0.848	1	repeat	Run1	repeat/STIM_010.jpg
816.233	0.905	1	repeat	Run1	repeat/STIM_010.jpg
820.58	0.584	1	repeat	Run1	repeat/STIM_010.jpg
823.318	0.778	1	repeat	Run1	repeat/STIM_011.jpg
826.594	0.642	1	repeat	Run1	repeat/STIM_011.jpg
830.396	0.688	1	repeat	Run1	repeat/STIM_011.jpg
834.757	0.544	1	repeat	Run1	repeat/STIM_011.jpg
838.304	1.046	1	repeat	Run1	repeat/STIM_011.jpg
841.316	0.957	1	repeat	Run1	repeat/STIM_012.jpg
844.238	0.989	1	repeat	Run1	repeat/STIM_012.jpg
848.832	1.022	1	repeat	Run1	repeat/STIM_012.jpg
853.444	0.875	1	repeat	Run1	repeat/STIM_012.jpg
857.551	1.01	0	repeat	Run1	repeat/STIM_012.jpg
860.739	0.662	1	repeat	Run1	repeat/STIM_013.jpg
864.675	0.873	1	repeat	Run1	repeat/STIM_013.jpg
868.612	0.82	1	repeat	Run1	repeat/STIM_013.jpg
872.836	0.875	1	repeat	Run1	repeat/STIM_013.jpg
877.538	0.756	1	repeat	Run1	repeat/STIM_013.jpg
881.616	0.715	1	repeat	Run1	repeat/STIM_014.jpg
885.593	0.844	1	repeat	Run1	repeat/STIM_014.jpg
889.456	0.888	1	repeat	Run1	repeat/STIM_014.jpg
893.332	1.039	1	repeat	Run1	repeat/STIM_014.jpg
896.588	0.661	1	repeat	Run1	repeat/STIM_014.jpg
899.967	1.758	1	generate	Run2	generate/STIM_000.jpg
903.651	2.179	1	generate	Run2	generate/STIM_000.jpg
909.678	2.153	1	generate	Run2	generate/STIM_000.jpg
915.24	1.635	1	generate	Run2	generate/STIM_000.jpg
920.263	1.744	1	generate	Run2	generate/STIM_000.jpg
925.736	2.523	1	generate	Run2	generate/STIM_001.jpg
930.73	1.837	1	generate	Run2	generate/STIM_001.jpg
934.902	1.301	0	generate	Run2	generate/STIM_001.jpg
939.894	1.586	1	generate	Run2	generate/STIM_001.jpg
944.581	0.922	1	generate	Run2	generate/STIM_001.jpg
948.046	1.818	1	generate	Run2	generate/STIM_002.jpg
953.146	2.118	1	generate	Run2	generate/STIM_002.jpg
958.736	1.84	1	generate	Run2	generate/STIM_002.jpg
962.974	1.388	1	generate	Run2	generate/STIM_002.jpg
966.702	1.324	1	generate	Run2	generate/STIM_002.jpg
970.993	1.383	1	generate	Run2	generate/STIM_003.jpg
976.27	2.315	0	generate	Run2	generate/STIM_003.jpg
981.668	2.379	1	generate	Run2	generate/STIM_003.jpg
987.633	1.184	1	generate	Run2	generate/STIM_003.jpg
991.642	1.839	1	generate	Run2	generate/STIM_003.jpg
995.72	2.109	1	generate	Run2	generate/STIM_004.jpg
1001.106	1.158	1	generate	Run2	generate/STIM_004.jpg
1005.451	1.778	1	generate	Run2	generate/STIM_004.jpg
1010.112	0.939	1	generate	Run2	generate/STIM_004.jpg
1014.487	1.65	1	generate	Run2	generate/STIM_004.jpg
1019.928	1.13	1	generate	Run2	generate/STIM_005.jpg
1023.325	1.4	1	generate	Run2	generate/STIM_005.jpg
1028.24	1.324	1	generate	Run2	generate/STIM_005.jpg
1033.277	1.376	1	generate	Run2	generate/STIM_005.jpg
1037.239	1.942	1	generate	Run2	generate/STIM_005.jpg
1042.001	1.55	0	generate	Run2	generate/STIM_006.jpg
1045.548	2.124	1	generate	Run2	generate/STIM_006.jpg
1050.502	1.079	1	generate	Run2	generate/STIM_006.jpg
1053.629	2.155	1	generate	Run2	generate/STIM_006.jpg
1059.448	2.113	1	generate	Run2	generate/STIM_006.jpg
1064.093	2.319	1	generate	Run2	generate/STIM_007.jpg
1069.087	1.829	1	generate	Run2	generate/STIM_007.jpg
1074.361	1.609	0	generate	Run2	generate/STIM_007.jpg
1078.477	1.361	1	generate	Run2	generate/STIM_007.jpg
1083.173	1.692	1	generate	Run2	generate/STIM_007.jpg
1086.934	2.446	1	generate	Run2	generate/STIM_008.jpg
1091.749	2.052	1	generate	Run2	generate/STIM_008.jpg
1097.49	2.316	1	generate	Run2	generate/STIM_008.jpg
1102.155	0.996	1	generate	Run2	generate/STIM_008.jpg
1105.377	1.411	1	generate	Run2	generate/STIM_008.jpg
1108.857	1.31	1	generate	Run2	generate/STIM_009.jpg
1112.75	1.38	1	generate	Run2	generate/STIM_009.jpg
1117.171	2.244	1	generate	Run2	generate/STIM_009.jpg
1122.926	0.93	1	generate	Run2	generate/STIM_009.jpg
1127.094	0.97	1	generate	Run2	generate/STIM_009.jpg
1130.65	1.748	0	generate	Run2	generate/STIM_010.jpg
1134.774	1.459	1	generate	Run2	generate/STIM_010.jpg
1139.725	1.44	1	generate	Run2	generate/STIM_010.jpg
1143.558	1.42	1	generate	Run2	generate/STIM_010.jpg
1146.993	1.523	1	generate	Run2	generate/STIM_010.jpg
1152.275	2.545	1	generate	Run2	generate/STIM_011.jpg
1158.071	1.805	1	generate	Run2	generate/STIM_011.jpg
1163.663	2.005	0	generate	Run2	generate/STIM_011.jpg
1169.515	1.239	1	generate	Run2	generate/STIM_011.jpg
1173.153	2.211	1	generate	Run2	generate/STIM_011.jpg
1178.591	1.251	1	generate	Run2	generate/STIM_012.jpg
1182.816	1.283	1	generate	Run2	generate/STIM_012.jpg
1186.413	1.1	1	generate	Run2	generate/STIM_012.jpg
1191.043	1.873	1	generate	Run2	generate/STIM_012.jpg
1196.215	1.677	1	generate	Run2	generate/STIM_012.jpg
1200.871	2.607	1	generate	Run2	generate/STIM_013.jpg
1206.789	1.551	1	generate	Run2	generate/STIM_013.jpg
1210.383	2.007	1	generate	Run2	generate/STIM_013.jpg
1215.545	2.034	0	generate	Run2	generate/STIM_013.jpg
1221.004	1.054	1	generate	Run2	generate/STIM_013.jpg
1224.443	2.401	1	generate	Run2	generate/STIM_014.jpg
1230.603	2.069	1	generate	Run2	generate/STIM_014.jpg
1236.519	1.223	1	generate	Run2	generate/STIM_014.jpg
1241.268	1.905	1	generate	Run2	generate/STIM_014.jpg
1246.321	2.123	0	generate	Run2	generate/STIM_014.jpg
1252.023	1.613	1	generate	Run2	generate/STIM_015.jpg
1255.537	1.892	1	generate	Run2	generate/STIM_015.jpg
1259.396	2.24	1	generate	Run2	generate/STIM_015.jpg
1264.388	0.977	1	generate	Run2	generate/STIM_015.jpg
1267.383	1.181	1	generate	Run2	generate/STIM_015.jpg
1272.446	2.241	1	generate	Run2	generate/STIM_016.jpg
1277.947	2.548	1	generate	Run2	generate/STIM_016.jpg
1282.485	1.168	1	generate	Run2	generate/STIM_016.jpg
1287.049	1.563	1	generate	Run2	generate/STIM_016.jpg
1291.642	1.851	1	generate	Run2	generate/STIM_016.jpg
1297.36	1.196	1	generate	Run2	generate/STIM_017.jpg
1300.607	2.376	1	generate	Run2	generate/STIM_017.jpg
1305.007	0.98	1	generate	Run2	generate/STIM_017.jpg
1309.504	2.187	1	generate	Run2	generate/STIM_017.jpg
1314.713	1.361	1	generate	Run2	generate/STIM_017.jpg
1319.143	2.182	1	generate	Run2	generate/STIM_018.jpg
1323.951	1.756	1	generate	Run2	generate/STIM_018.jpg
1327.994	1.791	1	generate	Run2	generate/STIM_018.jpg
1333.601	2.06	1	generate	Run2	generate/STIM_018.jpg
1339.313	1.494	1	generate	Run2	generate/STIM_018.jpg
1343.089	1.652	1	generate	Run2	generate/STIM_019.jpg
1347.571	1.525	1	generate	Run2	generate/STIM_019.jpg
1351.184	1.223	1	generate	Run2	generate/STIM_019.jpg
1355.246	1.955	1	generate	Run2	generate/STIM_019.jpg
1360.686	0.899	1	generate	Run2	generate/STIM_019.jpg
1364.784	1.215	1	generate	Run2	generate/STIM_020.jpg
1368.501	1.111	0	generate	Run2	generate/STIM_020.jpg
1373.161	2.251	1	generate	Run2	generate/STIM_020.jpg
1378.071	1.616	0	generate	Run2	generate/STIM_020.jpg
1383.026	1.882	1	generate	Run2	generate/STIM_020.jpg
1388.229	2.595	1	generate	Run2	generate/STIM_021.jpg
1393.043	1.71	1	generate	Run2	generate/STIM_021.jpg
1397.743	1.479	1	generate	Run2	generate/STIM_021.jpg
1402.71	1.602	0	generate	Run2	generate/STIM_021.jpg
1406.586	2.013	1	generate	Run2	generate/STIM_021.jpg
1411.983	1.127	0	generate	Run2	generate/STIM_022.jpg
1416.48	1.616	0	generate	Run2	generate/STIM_022.jpg
1421.493	1.09	1	generate	Run2	generate/STIM_022.jpg
1425.151	1.099	1	generate	Run2	generate/STIM_022.jpg
1428.235	2.003	1	generate	Run2	generate/STIM_022.jpg
1432.937	1.63	1	generate	Run2	generate/STIM_023.jpg
1438.195	2.442	1	generate	Run2	generate/STIM_023.jpg
1443.148	1.19	1	generate	Run2	generate/STIM_023.jpg
1447.766	1.957	1	generate	Run2	generate/STIM_023.jpg
1452.63	2.174	1	generate	Run2	generate/STIM_023.jpg
1457.186	1.705	1	generate	Run2	generate/STIM_024.jpg
1462.75	1.41	1	generate	Run2	generate/STIM_024.jpg
1467.0	2.322	1	generate	Run2	generate/STIM_024.jpg
1472.692	1.619	1	generate	Run2	generate/STIM_024.jpg
1476.456	1.243	0	generate	Run2	generate/STIM_024.jpg
1480.169	0.964	1	repeat	Run2	repeat/STIM_000.jpg
1484.457	0.886	1	repeat	Run2	repeat/STIM_000.jpg
1487.573	0.776	1	repeat	Run2	repeat/STIM_000.jpg
1491.052	0.633	1	repeat	Run2	repeat/STIM_000.jpg
1494.26	0.684	1	repeat	Run2	repeat/STIM_000.jpg
1497.407	0.577	1	repeat	Run2	repeat/STIM_001.jpg
1499.949	0.623	1	repeat	Run2	repeat/STIM_001.jpg
1504.489	0.845	1	repeat	Run2	repeat/STIM_001.jpg
1508.099	0.849	1	repeat	Run2	repeat/STIM_001.jpg
1511.727	0.9	1	repeat	Run2	repeat/STIM_001.jpg
1515.709	0.76	1	repeat	Run2	repeat/STIM_002.jpg
1520.14	0.703	1	repeat	Run2	repeat/STIM_002.jpg
1522.938	0.657	1	repeat	Run2	repeat/STIM_002.jpg
1526.561	0.594	1	repeat	Run2	repeat/STIM_002.jpg
1530.243	0.613	1	repeat	Run2	repeat/STIM_002.jpg
1533.571	0.839	1	repeat	Run2	repeat/STIM_003.jpg
1538.225	0.718	1	repeat	Run2	repeat/STIM_003.jpg
1541.673	1.026	1	repeat	Run2	repeat/STIM_003.jpg
1545.74	1.02	1	repeat	Run2	repeat/STIM_003.jpg
1550.295	0.771	0	repeat	Run2	repeat/STIM_003.jpg
1553.751	0.985	1	repeat	Run2	repeat/STIM_004.jpg
1557.825	0.77	1	repeat	Run2	repeat/STIM_004.jpg
1561.283	0.966	1	repeat	Run2	repeat/STIM_004.jpg
1566.066	0.794	1	repeat	Run2	repeat/STIM_004.jpg
1570.086	1.005	1	repeat	Run2	repeat/STIM_004.jpg
1573.474	0.841	1	repeat	Run2	repeat/STIM_005.jpg
1576.535	0.964	1	repeat	Run2	repeat/STIM_005.jpg
1580.248	0.8	1	repeat	Run2	repeat/STIM_005.jpg
1584.611	0.842	1	repeat	Run2	repeat/STIM_005.jpg
1589.205	0.676	0	repeat	Run2	repeat/STIM_005.jpg
1592.442	0.99	1	repeat	Run2	repeat/STIM_006.jpg
1596.774	0.824	1	repeat	Run2	repeat/STIM_006.jpg
1600.768	1.013	1	repeat	Run2	repeat/STIM_006.jpg
1604.14	0.695	1	repeat	Run2	repeat/STIM_006.jpg
1608.202	0.959	1	repeat	Run2	repeat/STIM_006.jpg
1611.974	0.724	1	repeat	Run2	repeat/STIM_007.jpg
1614.825	0.807	1	repeat	Run2	repeat/STIM_007.jpg
1618.533	0.93	1	repeat	Run2	repeat/STIM_007.jpg
1622.938	0.835	1	repeat	Run2	repeat/STIM_007.jpg
1626.553	0.571	1	repeat	Run2	repeat/STIM_007.jpg
1630.949	0.588	1	repeat	Run2	repeat/STIM_008.jpg
1634.02	0.624	1	repeat	Run2	repeat/STIM_008.jpg
1637.665	0.974	1	repeat	Run2	repeat/STIM_008.jpg
1641.295	1.004	1	repeat	Run2	repeat/STIM_008.jpg
1644.295	1.047	1	repeat	Run2	repeat/STIM_008.jpg
1648.547	0.675	1	repeat	Run2	repeat/STIM_009.jpg
1652.282	0.677	0	repeat	Run2	repeat/STIM_009.jpg
1655.895	0.557	1	repeat	Run2	repeat/STIM_009.jpg
1659.374	0.823	0	repeat	Run2	repeat/STIM_009.jpg
1663.802	0.994	1	repeat	Run2	repeat/STIM_009.jpg
1667.64	1.02	1	repeat	Run2	repeat/STIM_010.jpg
1670.682	0.699	1	repeat	Run2	repeat/STIM_010.jpg
1673.611	0.708	1	repeat	Run2	repeat/STIM_010.jpg
1677.459	0.98	0	repeat	Run2	repeat/STIM_010.jpg
1681.378	0.815	1	repeat	Run2	repeat/STIM_010.jpg
1685.063	0.854	1	repeat	Run2	repeat/STIM_011.jpg
1688.775	0.784	1	repeat	Run2	repeat/STIM_011.jpg
1692.268	0.794	1	repeat	Run2	repeat/STIM_011.jpg
1696.03	0.974	1	repeat	Run2	repeat/STIM_011.jpg
1699.075	0.806	1	repeat	Run2	repeat/STIM_011.jpg
1702.555	0.709	1	repeat	Run2	repeat/STIM_012.jpg
1706.881	0.974	1	repeat	Run2	repeat/STIM_012.jpg
1710.903	0.564	1	repeat	Run2	repeat/STIM_012.jpg
1714.302	0.673	1	repeat	Run2	repeat/STIM_012.jpg
1718.016	0.61	1	repeat	Run2	repeat/STIM_012.jpg
1721.448	0.572	1	repeat	Run2	repeat/STIM_013.jpg
1724.061	0.884	1	repeat	Run2	repeat/STIM_013.jpg
1728.838	0.771	1	repeat	Run2	repeat/STIM_013.jpg
1732.438	0.889	1	repeat	Run2	repeat/STIM_013.jpg
1735.382	0.704	0	repeat	Run2	repeat/STIM_013.jpg
1738.098	1.049	1	repeat	Run2	repeat/STIM_014.jpg
1741.41	0.699	1	repeat	Run2	repeat/STIM_014.jpg
1745.265	0.619	1	repeat	Run2	repeat/STIM_014.jpg
1749.698	0.623	1	repeat	Run2	repeat/STIM_014.jpg
1753.191	0.916	0	repeat	Run2	repeat/STIM_014.jpg
1756.323	2.1	1	generate	Run3	generate/STIM_000.jpg
1761.759	1.139	1	generate	Run3	generate/STIM_000.jpg
1766.2	1.747	1	generate	Run3	generate/STIM_000.jpg
1769.845	1.255	1	generate	Run3	generate/STIM_000.jpg
1774.391	1.256	1	generate	Run3	generate/STIM_000.jpg
1778.114	1.128	1	generate	Run3	generate/STIM_001.jpg
1782.009	1.231	1	generate	Run3	generate/STIM_001.jpg
1786.442	2.098	1	generate	Run3	generate/STIM_001.jpg
1791.627	2.166	1	generate	Run3	generate/STIM_001.jpg
1797.465	1.055	1	generate	Run3	generate/STIM_001.jpg
1801.053	1.176	1	generate	Run3	generate/STIM_002.jpg
1806.067	1.159	1	generate	Run3	generate/STIM_002.jpg
1810.965	1.639	1	generate	Run3	generate/STIM_002.jpg
1814.901	1.768	1	generate	Run3	generate/STIM_002.jpg
1819.687	1.388	1	generate	Run3	generate/STIM_002.jpg
1823.079	1.38	1	generate	Run3	generate/STIM_003.jpg
1827.99	1.564	1	generate	Run3	generate/STIM_003.jpg
1832.397	1.417	1	generate	Run3	generate/STIM_003.jpg
1836.21	1.168	1	generate	Run3	generate/STIM_003.jpg
1839.535	1.263	1	generate	Run3	generate/STIM_003.jpg
1843.874	1.587	0	generate	Run3	generate/STIM_004.jpg
1848.54	1.977	1	generate	Run3	generate/STIM_004.jpg
1854.127	1.816	1	generate	Run3	generate/STIM_004.jpg
1859.82	0.986	1	generate	Run3	generate/STIM_004.jpg
1863.792	1.106	1	generate	Run3	generate/STIM_004.jpg
1868.314	1.305	1	generate	Run3	generate/STIM_005.jpg
1873.39	0.978	1	generate	Run3	generate/STIM_005.jpg
1877.859	1.686	1	generate	Run3	generate/STIM_005.jpg
1882.851	1.397	1	generate	Run3	generate/STIM_005.jpg
1887.098	2.042	1	generate	Run3	generate/STIM_005.jpg
1892.307	1.877	1	generate	Run3	generate/STIM_006.jpg
1897.549	1.491	1	generate	Run3	generate/STIM_006.jpg
1902.503	2.003	1	generate	Run3	generate/STIM_006.jpg
1908.049	2.23	1	generate	Run3	generate/STIM_006.jpg
1912.452	2.047	1	generate	Run3	generate/STIM_006.jpg
1917.415	2.158	1	generate	Run3	generate/STIM_007.jpg
1921.6	2.186	1	generate	Run3	generate/STIM_007.jpg
1926.543	2.199	1	generate	Run3	generate/STIM_007.jpg
1931.397	1.431	1	generate	Run3	generate/STIM_007.jpg
1936.441	1.384	1	generate	Run3	generate/STIM_007.jpg
1940.374	1.145	1	generate	Run3	generate/STIM_008.jpg
1944.03	2.208	0	generate	Run3	generate/STIM_008.jpg
1949.901	2.177	1	generate	Run3	generate/STIM_008.jpg
1955.812	2.233	1	generate	Run3	generate/STIM_008.jpg
1959.99	2.03	1	generate	Run3	generate/STIM_008.jpg
1963.962	1.983	1	generate	Run3	generate/STIM_009.jpg
1968.532	1.697	1	generate	Run3	generate/STIM_009.jpg
1973.17	1.144	1	generate	Run3	generate/STIM_009.jpg
1976.37	1.581	1	generate	Run3	generate/STIM_009.jpg
1980.507	1.759	1	generate	Run3	generate/STIM_009.jpg
1985.098	1.262	1	generate	Run3	generate/STIM_010.jpg
1989.779	1.436	0	generate	Run3	generate/STIM_010.jpg
1993.908	1.85	1	generate	Run3	generate/STIM_010.jpg
1998.178	1.236	1	generate	Run3	generate/STIM_010.jpg
2002.3	1.688	0	generate	Run3	generate/STIM_010.jpg
2006.744	1.055	1	generate	Run3	generate/STIM_011.jpg
2009.769	1.978	1	generate	Run3	generate/STIM_011.jpg
2015.257	1.581	1	generate	Run3	generate/STIM_011.jpg
2020.577	1.56	1	generate	Run3	generate/STIM_011.jpg
2025.485	1.101	1	generate	Run3	generate/STIM_011.jpg
2028.684	1.69	1	generate	Run3	generate/STIM_012.jpg
2032.812	2.088	1	generate	Run3	generate/STIM_012.jpg
2038.123	0.952	1	generate	Run3	generate/STIM_012.jpg
2041.603	1.915	1	generate	Run3	generate/STIM_012.jpg
2046.228	1.788	1	generate	Run3	generate/STIM_012.jpg
2050.222	1.237	1	generate	Run3	generate/STIM_013.jpg
2054.73	2.158	1	generate	Run3	generate/STIM_013.jpg
2059.245	2.095	1	generate	Run3	generate/STIM_013.jpg
2065.181	1.186	1	generate	Run3	generate/STIM_013.jpg
2069.998	1.817	1	generate	Run3	generate/STIM_013.jpg
2075.179	0.996	1	generate	Run3	generate/STIM_014.jpg
2079.443	1.094	1	generate	Run3	generate/STIM_014.jpg
2082.89	1.804	1	generate	Run3	generate/STIM_014.jpg
2087.598	1.372	1	generate	Run3	generate/STIM_014.jpg
2091.393	1.008	1	generate	Run3	generate/STIM_014.jpg
2094.414	1.3	1	generate	Run3	generate/STIM_015.jpg
2097.645	0.917	1	generate	Run3	generate/STIM_015.jpg
2102.466	1.149	0	generate	Run3	generate/STIM_015.jpg
2107.376	1.968	1	generate	Run3	generate/STIM_015.jpg
2111.844	1.342	1	generate	Run3	generate/STIM_015.jpg
2116.031	1.859	1	generate	Run3	generate/STIM_016.jpg
2120.359	1.517	1	generate	Run3	generate/STIM_016.jpg
2124.119	2.19	1	generate	Run3	generate/STIM_016.jpg
2128.355	1.088	1	generate	Run3	generate/STIM_016.jpg
2133.021	2.074	0	generate	Run3	generate/STIM_016.jpg
2137.602	1.774	1	generate	Run3	generate/STIM_017.jpg
2142.844	1.246	1	generate	Run3	generate/STIM_017.jpg
2146.453	1.309	1	generate	Run3	generate/STIM_017.jpg
2149.814	1.777	1	generate	Run3	generate/STIM_017.jpg
2154.392	1.207	1	generate	Run3	generate/STIM_017.jpg
2158.093	1.754	1	generate	Run3	generate/STIM_018.jpg
2161.867	1.239	1	generate	Run3	generate/STIM_018.jpg
2166.3	1.81	1	generate	Run3	generate/STIM_018.jpg
2170.348	1.93	1	generate	Run3	generate/STIM_018.jpg
2176.098	1.112	1	generate	Run3	generate/STIM_018.jpg
2179.348	1.56	1	generate	Run3	generate/STIM_019.jpg
2183.239	1.406	1	generate	Run3	generate/STIM_019.jpg
2187.347	1.218	1	generate	Run3	generate/STIM_019.jpg
2192.046	1.364	1	generate	Run3	generate/STIM_019.jpg
2196.214	2.119	1	generate	Run3	generate/STIM_019.jpg
2200.576	1.971	1	generate	Run3	generate/STIM_020.jpg
2205.015	1.026	1	generate	Run3	generate/STIM_020.jpg
2209.481	0.902	1	generate	Run3	generate/STIM_020.jpg
2213.601	1.872	1	generate	Run3	generate/STIM_020.jpg
2218.218	1.398	1	generate	Run3	generate/STIM_020.jpg
2222.984	1.763	1	generate	Run3	generate/STIM_021.jpg
2227.333	1.977	1	generate	Run3	generate/STIM_021.jpg
2232.224	1.756	1	generate	Run3	generate/STIM_021.jpg
2237.46	1.068	0	generate	Run3	generate/STIM_021.jpg
2241.76	1.867	1	generate	Run3	generate/STIM_021.jpg
2245.716	1.36	1	generate	Run3	generate/STIM_022.jpg
2249.013	2.034	1	generate	Run3	generate/STIM_022.jpg
2253.481	1.204	1	generate	Run3	generate/STIM_022.jpg
2257.814	1.745	1	generate	Run3	generate/STIM_022.jpg
2262.898	1.682	1	generate	Run3	generate/STIM_022.jpg
2268.259	1.694	0	generate	Run3	generate/STIM_023.jpg
2271.975	1.889	1	generate	Run3	generate/STIM_023.jpg
2276.822	1.006	1	generate	Run3	generate/STIM_023.jpg
2281.399	1.618	1	generate	Run3	generate/STIM_023.jpg
2286.059	1.379	1	generate	Run3	generate/STIM_023.jpg
2290.539	1.509	1	generate	Run3	generate/STIM_024.jpg
2294.666	1.78	1	generate	Run3	generate/STIM_024.jpg
2299.163	1.365	1	generate	Run3	generate/STIM_024.jpg
2303.348	1.492	1	generate	Run3	generate/STIM_024.jpg
2308.034	1.928	0	generate	Run3	generate/STIM_024.jpg
2312.635	0.91	1	repeat	Run3	repeat/STIM_000.jpg
2316.983	0.704	1	repeat	Run3	repeat/STIM_000.jpg
2320.79	0.631	1	repeat	Run3	repeat/STIM_000.jpg
2324.335	1.032	1	repeat	Run3	repeat/STIM_000.jpg
2327.704	0.815	1	repeat	Run3	repeat/STIM_000.jpg
2331.99	0.589	1	repeat	Run3	repeat/STIM_001.jpg
2336.492	0.962	1	repeat	Run3	repeat/STIM_001.jpg
2339.425	0.677	1	repeat	Run3	repeat/STIM_001.jpg
2343.602	1.038	1	repeat	Run3	repeat/STIM_001.jpg
2347.001	0.819	1	repeat	Run3	repeat/STIM_001.jpg
2350.151	1.016	1	repeat	Run3	repeat/STIM_002.jpg
2353.687	0.641	1	repeat	Run3	repeat/STIM_002.jpg
2357.824	0.999	1	repeat	Run3	repeat/STIM_002.jpg
2361.631	0.569	1	repeat	Run3	repeat/STIM_002.jpg
2366.101	0.804	1	repeat	Run3	repeat/STIM_002.jpg
2369.978	0.882	1	repeat	Run3	repeat/STIM_003.jpg
2373.485	0.805	1	repeat	Run3	repeat/STIM_003.jpg
2376.655	0.789	1	repeat	Run3	repeat/STIM_003.jpg
2380.124	0.55	1	repeat	Run3	repeat/STIM_003.jpg
2382.66	0.553	1	repeat	Run3	repeat/STIM_003.jpg
2385.905	0.634	1	repeat	Run3	repeat/STIM_004.jpg
2390.174	0.94	1	repeat	Run3	repeat/STIM_004.jpg
2395.028	0.549	1	repeat	Run3	repeat/STIM_004.jpg
2398.398	0.896	1	repeat	Run3	repeat/STIM_004.jpg
2401.42	0.966	1	repeat	Run3	repeat/STIM_004.jpg
2404.692	1.009	1	repeat	Run3	repeat/STIM_005.jpg
2408.703	0.652	1	repeat	Run3	repeat/STIM_005.jpg
2411.32	0.901	1	repeat	Run3	repeat/STIM_005.jpg
2414.59	0.916	1	repeat	Run3	repeat/STIM_005.jpg
2419.393	0.574	1	repeat	Run3	repeat/STIM_005.jpg
2423.119	0.896	1	repeat	Run3	repeat/STIM_006.jpg
2427.413	1.002	1	repeat	Run3	repeat/STIM_006.jpg
2430.707	0.905	1	repeat	Run3	repeat/STIM_006.jpg
2434.031	0.696	1	repeat	Run3	repeat/STIM_006.jpg
2437.773	0.894	1	repeat	Run3	repeat/STIM_006.jpg
2441.176	0.883	1	repeat	Run3	repeat/STIM_007.jpg
2444.405	0.827	1	repeat	Run3	repeat/STIM_007.jpg
2448.406	0.704	1	repeat	Run3	repeat/STIM_007.jpg
2451.45	1.001	1	repeat	Run3	repeat/STIM_007.jpg
2455.009	0.642	0	repeat	Run3	repeat/STIM_007.jpg
2457.777	0.804	1	repeat	Run3	repeat/STIM_008.jpg
2460.734	0.779	1	repeat	Run3	repeat/STIM_008.jpg
2464.3	0.797	1	repeat	Run3	repeat/STIM_008.jpg
2468.906	0.553	1	repeat	Run3	repeat/STIM_008.jpg
2473.073	0.908	1	repeat	Run3	repeat/STIM_008.jpg
2477.923	1.045	1	repeat	Run3	repeat/STIM_009.jpg
2482.047	0.998	1	repeat	Run3	repeat/STIM_009.jpg
2485.486	0.673	1	repeat	Run3	repeat/STIM_009.jpg
2488.528	0.548	1	repeat	Run3	repeat/STIM_009.jpg
2492.043	1.067	1	repeat	Run3	repeat/STIM_009.jpg
2496.308	0.79	1	repeat	Run3	repeat/STIM_010.jpg
2499.288	0.614	1	repeat	Run3	repeat/STIM_010.jpg
2502.8	0.925	1	repeat	Run3	repeat/STIM_010.jpg
2506.095	0.802	1	repeat	Run3	repeat/STIM_010.jpg
2510.407	0.683	1	repeat	Run3	repeat/STIM_010.jpg
2514.416	0.597	1	repeat	Run3	repeat/STIM_011.jpg
2518.246	0.785	1	repeat	Run3	repeat/STIM_011.jpg
2521.544	0.753	1	repeat	Run3	repeat/STIM_011.jpg
2525.14	0.617	1	repeat	Run3	repeat/STIM_011.jpg
2527.927	0.57	0	repeat	Run3	repeat/STIM_011.jpg
2532.348	0.701	1	repeat	Run3	repeat/STIM_012.jpg
2536.311	0.906	1	repeat	Run3	repeat/STIM_012.jpg
2539.99	0.546	1	repeat	Run3	repeat/STIM_012.jpg
2544.374	0.828	1	repeat	Run3	repeat/STIM_012.jpg
2548.295	1.009	0	repeat	Run3	repeat/STIM_012.jpg
2552.909	0.624	1	repeat	Run3	repeat/STIM_013.jpg
2557.017	0.987	1	repeat	Run3	repeat/STIM_013.jpg
2560.405	0.835	1	repeat	Run3	repeat/STIM_013.jpg
2563.785	0.696	1	repeat	Run3	repeat/STIM_013.jpg
2567.765	0.864	1	repeat	Run3	repeat/STIM_013.jpg
2570.626	0.915	1	repeat	Run3	repeat/STIM_014.jpg
2573.88	0.722	1	repeat	Run3	repeat/STIM_014.jpg
2577.705	0.845	1	repeat	Run3	repeat/STIM_014.jpg
2581.292	0.731	1	repeat	Run3	repeat/STIM_014.jpg
2585.641	0.793	1	repeat	Run3	repeat/STIM_014.jpg
2589.143	1.146	1	generate	Run4	generate/STIM_000.jpg
2592.37	1.746	1	generate	Run4	generate/STIM_000.jpg
2596.887	2.217	1	generate	Run4	generate/STIM_000.jpg
2602.496	1.664	1	generate	Run4	generate/STIM_000.jpg
2606.968	1.97	1	generate	Run4	generate/STIM_000.jpg
2611.156	1.425	1	generate	Run4	generate/STIM_001.jpg
2615.02	1.013	1	generate	Run4	generate/STIM_001.jpg
2618.788	1.183	1	generate	Run4	generate/STIM_001.jpg
2622.48	0.988	1	generate	Run4	generate/STIM_001.jpg
2626.421	1.237	1	generate	Run4	generate/STIM_001.jpg
2631.294	2.055	1	generate	Run4	generate/STIM_002.jpg
2635.279	2.198	1	generate	Run4	generate/STIM_002.jpg
2640.48	2.23	1	generate	Run4	generate/STIM_002.jpg
2645.273	1.767	1	generate	Run4	generate/STIM_002.jpg
2650.32	1.853	1	generate	Run4	generate/STIM_002.jpg
2655.983	1.978	1	generate	Run4	generate/STIM_003.jpg
2660.919	1.829	1	generate	Run4	generate/STIM_003.jpg
2664.979	1.078	1	generate	Run4	generate/STIM_003.jpg
2668.43	1.268	1	generate	Run4	generate/STIM_003.jpg
2672.191	1.367	1	generate	Run4	generate/STIM_003.jpg
2677.003	2.105	1	generate	Run4	generate/STIM_004.jpg
2681.502	1.382	1	generate	Run4	generate/STIM_004.jpg
2686.055	2.061	1	generate	Run4	generate/STIM_004.jpg
2691.392	2.173	1	generate	Run4	generate/STIM_004.jpg
2696.147	1.088	1	generate	Run4	generate/STIM_004.jpg
2700.355	1.168	1	generate	Run4	generate/STIM_005.jpg
2703.629	1.551	1	generate	Run4	generate/STIM_005.jpg
2707.882	1.031	1	generate	Run4	generate/STIM_005.jpg
2711.296	1.899	1	generate	Run4	generate/STIM_005.jpg
2715.986	2.051	1	generate	Run4	generate/STIM_005.jpg
2721.187	0.987	1	generate	Run4	generate/STIM_006.jpg
2725.389	2.063	1	generate	Run4	generate/STIM_006.jpg
2731.074	1.823	0	generate	Run4	generate/STIM_006.jpg
2736.032	2.111	1	generate	Run4	generate/STIM_006.jpg
2741.93	1.748	1	generate	Run4	generate/STIM_006.jpg
2746.74	1.687	1	generate	Run4	generate/STIM_007.jpg
2751.539	1.741	1	generate	Run4	generate/STIM_007.jpg
2756.315	2.236	1	generate	Run4	generate/STIM_007.jpg
2761.022	1.191	1	generate	Run4	generate/STIM_007.jpg
2764.588	0.961	1	generate	Run4	generate/STIM_007.jpg
2767.953	2.027	1	generate	Run4	generate/STIM_008.jpg
2772.432	1.694	1	generate	Run4	generate/STIM_008.jpg
2777.221	1.281	1	generate	Run4	generate/STIM_008.jpg
2781.407	1.523	1	generate	Run4	generate/STIM_008.jpg
2785.178	1.516	1	generate	Run4	generate/STIM_008.jpg
2789.204	1.605	0	generate	Run4	generate/STIM_009.jpg
2792.984	2.242	1	generate	Run4	generate/STIM_009.jpg
2798.373	1.63	1	generate	Run4	generate/STIM_009.jpg
2802.979	0.91	1	generate	Run4	generate/STIM_009.jpg
2807.454	1.932	1	generate	Run4	generate/STIM_009.jpg
2812.511	2.037	0	generate	Run4	generate/STIM_010.jpg
2817.222	1.665	1	generate	Run4	generate/STIM_010.jpg
2821.229	2.132	1	generate	Run4	generate/STIM_010.jpg
2825.287	1.481	1	generate	Run4	generate/STIM_010.jpg
2830.096	2.12	1	generate	Run4	generate/STIM_010.jpg
2835.34	0.899	1	generate	Run4	generate/STIM_011.jpg
2838.658	1.723	1	generate	Run4	generate/STIM_011.jpg
2842.605	1.281	1	generate	Run4	generate/STIM_011.jpg
2846.144	1.382	1	generate	Run4	generate/STIM_011.jpg
2849.733	2.038	1	generate	Run4	generate/STIM_011.jpg
2855.198	1.67	1	generate	Run4	generate/STIM_012.jpg
2860.673	2.068	1	generate	Run4	generate/STIM_012.jpg
2865.52	1.081	1	generate	Run4	generate/STIM_012.jpg
2870.118	1.484	1	generate	Run4	generate/STIM_012.jpg
2875.439	0.943	1	generate	Run4	generate/STIM_012.jpg
2878.939	1.062	1	generate	Run4	generate/STIM_013.jpg
2882.287	1.219	1	generate	Run4	generate/STIM_013.jpg
2886.048	1.689	1	generate	Run4	generate/STIM_013.jpg
2889.916	1.228	1	generate	Run4	generate/STIM_013.jpg
2893.98	1.95	1	generate	Run4	generate/STIM_013.jpg
2898.739	1.566	1	generate	Run4	generate/STIM_014.jpg
2904.031	1.938	0	generate	Run4	generate/STIM_014.jpg
2909.565	1.8	1	generate	Run4	generate/STIM_014.jpg
2914.008	2.21	1	generate	Run4	generate/STIM_014.jpg
2918.966	1.994	1	generate	Run4	generate/STIM_014.jpg
2924.385	1.041	1	generate	Run4	generate/STIM_015.jpg
2927.401	1.243	1	generate	Run4	generate/STIM_015.jpg
2931.911	1.801	1	generate	Run4	generate/STIM_015.jpg
2936.949	2.08	1	generate	Run4	generate/STIM_015.jpg
2941.277	1.287	1	generate	Run4	generate/STIM_015.jpg
2945.362	1.17	1	generate	Run4	generate/STIM_016.jpg
2948.678	1.572	1	generate	Run4	generate/STIM_016.jpg
2952.345	1.51	1	generate	Run4	generate/STIM_016.jpg
2957.03	1.426	0	generate	Run4	generate/STIM_016.jpg
2960.716	2.239	1	generate	Run4	generate/STIM_016.jpg
2965.222	2.141	1	generate	Run4	generate/STIM_017.jpg
2970.886	1.831	1	generate	Run4	generate/STIM_017.jpg
2976.543	1.558	1	generate	Run4	generate/STIM_017.jpg
2981.558	2.058	1	generate	Run4	generate/STIM_017.jpg
2987.26	1.551	1	generate	Run4	generate/STIM_017.jpg
2991.94	1.396	1	generate	Run4	generate/STIM_018.jpg
2996.938	1.996	1	generate	Run4	generate/STIM_018.jpg
3000.994	0.978	1	generate	Run4	generate/STIM_018.jpg
3005.09	1.34	0	generate	Run4	generate/STIM_018.jpg
3009.485	1.483	1	generate	Run4	generate/STIM_018.jpg
3014.357	1.08	1	generate	Run4	generate/STIM_019.jpg
3017.469	1.322	1	generate	Run4	generate/STIM_019.jpg
3022.116	1.076	1	generate	Run4	generate/STIM_019.jpg
3026.884	1.881	1	generate	Run4	generate/STIM_019.jpg
3032.186	1.489	1	generate	Run4	generate/STIM_019.jpg
3037.561	0.989	1	generate	Run4	generate/STIM_020.jpg
3042.457	1.395	1	generate	Run4	generate/STIM_020.jpg
3045.831	1.35	1	generate	Run4	generate/STIM_020.jpg
3050.415	2.11	1	generate	Run4	generate/STIM_020.jpg
3054.461	1.619	1	generate	Run4	generate/STIM_020.jpg
3058.235	1.147	1	generate	Run4	generate/STIM_021.jpg
3061.776	1.437	1	generate	Run4	generate/STIM_021.jpg
3066.748	1.444	1	generate	Run4	generate/STIM_021.jpg
3071.08	1.574	1	generate	Run4	generate/STIM_021.jpg
3076.207	1.948	1	generate	Run4	generate/STIM_021.jpg
3080.801	1.306	1	generate	Run4	generate/STIM_022.jpg
3084.746	1.159	1	generate	Run4	generate/STIM_022.jpg
3088.565	1.563	1	generate	Run4	generate/STIM_022.jpg
3093.379	1.688	1	generate	Run4	generate/STIM_022.jpg
3098.153	2.146	1	generate	Run4	generate/STIM_022.jpg
3103.908	1.178	1	generate	Run4	generate/STIM_023.jpg
3108.99	1.95	1	generate	Run4	generate/STIM_023.jpg
3114.533	1.996	0	generate	Run4	generate/STIM_023.jpg
3119.858	1.52	1	generate	Run4	generate/STIM_023.jpg
3123.606	1.132	1	generate	Run4	generate/STIM_023.jpg
3126.74	2.19	1	generate	Run4	generate/STIM_024.jpg
3131.521	1.081	1	generate	Run4	generate/STIM_024.jpg
3135.454	2.064	1	generate	Run4	generate/STIM_024.jpg
3140.264	1.009	1	generate	Run4	generate/STIM_024.jpg
3144.57	1.395	1	generate	Run4	generate/STIM_024.jpg
3149.408	0.565	1	repeat	Run4	repeat/STIM_000.jpg
3153.184	1.034	1	repeat	Run4	repeat/STIM_000.jpg
3156.267	0.764	1	repeat	Run4	repeat/STIM_000.jpg
3159.643	0.787	1	repeat	Run4	repeat/STIM_000.jpg
3162.77	0.85	1	repeat	Run4	repeat/STIM_000.jpg
3166.535	0.78	1	repeat	Run4	repeat/STIM_001.jpg
3170.602	0.893	1	repeat	Run4	repeat/STIM_001.jpg
3174.456	0.776	0	repeat	Run4	repeat/STIM_001.jpg
3179.026	0.956	1	repeat	Run4	repeat/STIM_001.jpg
3182.718	0.622	1	repeat	Run4	repeat/STIM_001.jpg
3186.365	0.641	1	repeat	Run4	repeat/STIM_002.jpg
3189.396	0.982	1	repeat	Run4	repeat/STIM_002.jpg
3194.222	0.612	1	repeat	Run4	repeat/STIM_002.jpg
3196.978	1.052	1	repeat	Run4	repeat/STIM_002.jpg
3201.757	0.904	1	repeat	Run4	repeat/STIM_002.jpg
3205.069	1.016	1	repeat	Run4	repeat/STIM_003.jpg
3208.237	0.783	1	repeat	Run4	repeat/STIM_003.jpg
3211.6	1.062	1	repeat	Run4	repeat/STIM_003.jpg
3215.415	0.664	1	repeat	Run4	repeat/STIM_003.jpg
3218.631	0.828	1	repeat	Run4	repeat/STIM_003.jpg
3222.707	0.828	1	repeat	Run4	repeat/STIM_004.jpg
3227.298	0.562	1	repeat	Run4	repeat/STIM_004.jpg
3230.161	0.598	1	repeat	Run4	repeat/STIM_004.jpg
3234.589	0.548	1	repeat	Run4	repeat/STIM_004.jpg
3237.611	0.536	1	repeat	Run4	repeat/STIM_004.jpg
3241.703	0.646	0	repeat	Run4	repeat/STIM_005.jpg
3245.803	0.995	1	repeat	Run4	repeat/STIM_005.jpg
3249.439	0.694	1	repeat	Run4	repeat/STIM_005.jpg
3253.094	0.686	1	repeat	Run4	repeat/STIM_005.jpg
3256.021	0.955	1	repeat	Run4	repeat/STIM_005.jpg
3259.465	1.054	1	repeat	Run4	repeat/STIM_006.jpg
3262.879	0.613	1	repeat	Run4	repeat/STIM_006.jpg
3267.378	0.821	1	repeat	Run4	repeat/STIM_006.jpg
3270.717	0.76	1	repeat	Run4	repeat/STIM_006.jpg
3274.184	0.568	1	repeat	Run4	repeat/STIM_006.jpg
3277.976	0.857	1	repeat	Run4	repeat/STIM_007.jpg
3282.262	0.641	1	repeat	Run4	repeat/STIM_007.jpg
3286.369	0.609	1	repeat	Run4	repeat/STIM_007.jpg
3289.653	0.784	1	repeat	Run4	repeat/STIM_007.jpg
3293.034	0.81	1	repeat	Run4	repeat/STIM_007.jpg
3297.329	0.625	1	repeat	Run4	repeat/STIM_008.jpg
3301.288	0.698	1	repeat	Run4	repeat/STIM_008.jpg
3305.369	0.95	1	repeat	Run4	repeat/STIM_008.jpg
3309.836	0.712	1	repeat	Run4	repeat/STIM_008.jpg
3313.784	0.605	1	repeat	Run4	repeat/STIM_008.jpg
3316.46	0.996	1	repeat	Run4	repeat/STIM_009.jpg
3321.327	0.55	1	repeat	Run4	repeat/STIM_009.jpg
3325.827	0.887	1	repeat	Run4	repeat/STIM_009.jpg
3328.969	1.05	1	repeat	Run4	repeat/STIM_009.jpg
3333.13	1.011	1	repeat	Run4	repeat/STIM_009.jpg
3336.953	0.549	1	repeat	Run4	repeat/STIM_010.jpg
3339.712	0.789	1	repeat	Run4	repeat/STIM_010.jpg
3343.485	0.763	1	repeat	Run4	repeat/STIM_010.jpg
3348.056	0.888	0	repeat	Run4	repeat/STIM_010.jpg
3351.412	0.808	1	repeat	Run4	repeat/STIM_010.jpg
3354.979	0.853	0	repeat	Run4	repeat/STIM_011.jpg
3358.255	0.734	1	repeat	Run4	repeat/STIM_011.jpg
3361.242	0.955	1	repeat	Run4	repeat/STIM_011.jpg
3364.993	0.707	0	repeat	Run4	repeat/STIM_011.jpg
3369.125	0.877	1	repeat	Run4	repeat/STIM_011.jpg
3373.871	1.057	1	repeat	Run4	repeat/STIM_012.jpg
3377.289	0.568	1	repeat	Run4	repeat/STIM_012.jpg
3380.79	0.688	1	repeat	Run4	repeat/STIM_012.jpg
3384.492	0.757	1	repeat	Run4	repeat/STIM_012.jpg
3388.681	0.631	0	repeat	Run4	repeat/STIM_012.jpg
3391.845	0.808	1	repeat	Run4	repeat/STIM_013.jpg
3396.332	0.628	1	repeat	Run4	repeat/STIM_013.jpg
3399.772	0.696	1	repeat	Run4	repeat/STIM_013.jpg
3404.133	0.899	0	repeat	Run4	repeat/STIM_013.jpg
3407.736	0.908	1	repeat	Run4	repeat/STIM_013.jpg
3410.676	0.858	1	repeat	Run4	repeat/STIM_014.jpg
3415.061	0.833	1	repeat	Run4	repeat/STIM_014.jpg
3419.03	0.783	0	repeat	Run4	repeat/STIM_014.jpg
3423.39	0.74	1	repeat	Run4	repeat/STIM_014.jpg
3426.995	0.626	1	repeat	Run4	repeat/STIM_014.jpg
