onset	duration	response_time_ms	trial_type	learning_stage	stimulus	response_port
0.0	2.711	2710.7	navigation	Trial1	navigation/STIM_000.jpg	99
6.283	4.167	4167.3	navigation	Trial1	navigation/STIM_000.jpg	99
12.858	4.493	4492.9	navigation	Trial1	navigation/STIM_000.jpg	99
19.162	1.856	1856.3	navigation	Trial1	navigation/STIM_000.jpg	100
24.49	3.783	3783.4	navigation	Trial1	navigation/STIM_000.jpg	100
31.152	4.084	4083.8	navigation	Trial1	navigation/STIM_000.jpg	99
38.449	3.73	3729.8	navigation	Trial1	navigation/STIM_001.jpg	100
45.41	4.629	4628.8	navigation	Trial1	navigation/STIM_001.jpg	99
53.356	2.12	2120.5	navigation	Trial1	navigation/STIM_001.jpg	100
58.352	2.737	2737.3	navigation	Trial1	navigation/STIM_001.jpg	100
64.725	3.993	3993.3	navigation	Trial1	navigation/STIM_001.jpg	100
71.635	2.578	2578.2	navigation	Trial1	navigation/STIM_001.jpg	99
76.836	3.845	3844.6	navigation	Trial1	navigation/STIM_002.jpg	99
83.787	4.592	4591.6	navigation	Trial1	navigation/STIM_002.jpg	99
90.265	2.725	2724.9	navigation	Trial1	navigation/STIM_002.jpg	99
96.208	2.787	2787.1	navigation	Trial1	navigation/STIM_002.jpg	100
101.493	3.189	3189.3	navigation	Trial1	navigation/STIM_002.jpg	99
107.818	2.399	2399.0	navigation	Trial1	navigation/STIM_002.jpg	99
112.357	5.096	5096.5	navigation	Trial1	navigation/STIM_003.jpg	100
119.973	4.622	4622.0	navigation	Trial1	navigation/STIM_003.jpg	99
126.682	4.864	4863.6	navigation	Trial1	navigation/STIM_003.jpg	99
133.768	3.07	3070.3	navigation	Trial1	navigation/STIM_003.jpg	100
139.181	2.161	2160.7	navigation	Trial1	navigation/STIM_003.jpg	100
144.774	1.75	1750.2	navigation	Trial1	navigation/STIM_003.jpg	99
149.662	3.59	3589.7	navigation	Trial1	navigation/STIM_004.jpg	99
156.561	3.057	3056.9	navigation	Trial1	navigation/STIM_004.jpg	100
161.809	2.842	2842.3	navigation	Trial1	navigation/STIM_004.jpg	99
167.935	3.77	3769.9	navigation	Trial1	navigation/STIM_004.jpg	100
174.206	3.096	3096.1	navigation	Trial1	navigation/STIM_004.jpg	100
179.743	3.332	3331.5	navigation	Trial1	navigation/STIM_004.jpg	100
186.173	3.115	3114.6	navigation	Trial1	navigation/STIM_005.jpg	99
191.329	3.915	3915.1	navigation	Trial1	navigation/STIM_005.jpg	100
197.492	4.302	4302.0	navigation	Trial1	navigation/STIM_005.jpg	100
203.876	4.082	4082.2	navigation	Trial1	navigation/STIM_005.jpg	99
210.159	2.172	2171.6	navigation	Trial1	navigation/STIM_005.jpg	100
216.027	3.916	3916.5	navigation	Trial1	navigation/STIM_005.jpg	100
222.951	3.777	3777.1	navigation	Trial1	navigation/STIM_006.jpg	100
228.411	2.218	2218.5	navigation	Trial1	navigation/STIM_006.jpg	99
233.643	4.808	4808.5	navigation	Trial1	navigation/STIM_006.jpg	100
240.114	4.391	4391.0	navigation	Trial1	navigation/STIM_006.jpg	100
247.695	2.104	2103.8	navigation	Trial1	navigation/STIM_006.jpg	99
251.933	2.838	2837.6	navigation	Trial1	navigation/STIM_006.jpg	100
256.741	2.382	2381.9	navigation	Trial1	navigation/STIM_007.jpg	99
261.626	2.408	2408.4	navigation	Trial1	navigation/STIM_007.jpg	99
267.444	3.691	3690.7	navigation	Trial1	navigation/STIM_007.jpg	100
274.084	2.579	2578.8	navigation	Trial1	navigation/STIM_007.jpg	99
280.177	2.516	2516.1	navigation	Trial1	navigation/STIM_007.jpg	99
285.254	2.989	2989.4	navigation	Trial1	navigation/STIM_007.jpg	100
291.494	3.269	3269.3	navigation	Trial1	navigation/STIM_008.jpg	100
297.58	2.79	2789.6	navigation	Trial1	navigation/STIM_008.jpg	99
302.436	3.905	3904.7	navigation	Trial1	navigation/STIM_008.jpg	99
308.479	4.078	4077.8	navigation	Trial1	navigation/STIM_008.jpg	99
314.335	1.769	1769.2	navigation	Trial1	navigation/STIM_008.jpg	99
319.622	3.06	3060.5	navigation	Trial1	navigation/STIM_008.jpg	99
324.599	3.98	3980.4	navigation	Trial1	navigation/STIM_009.jpg	99
331.586	3.237	3237.4	navigation	Trial1	navigation/STIM_009.jpg	100
337.321	2.902	2901.9	navigation	Trial1	navigation/STIM_009.jpg	100
343.14	3.556	3556.1	navigation	Trial1	navigation/STIM_009.jpg	100
350.274	4.144	4143.8	navigation	Trial1	navigation/STIM_009.jpg	100
357.895	3.23	3230.0	navigation	Trial1	navigation/STIM_009.jpg	99
362.963	4.626	4625.5	navigation	Trial1	navigation/STIM_010.jpg	100
370.241	2.617	2616.9	navigation	Trial1	navigation/STIM_010.jpg	99
375.376	4.164	4163.8	navigation	Trial1	navigation/STIM_010.jpg	100
381.883	2.274	2274.1	navigation	Trial1	navigation/STIM_010.jpg	100
386.211	4.188	4188.1	navigation	Trial1	navigation/STIM_010.jpg	100
392.816	3.752	3752.2	navigation	Trial1	navigation/STIM_010.jpg	99
398.619	3.43	3430.2	navigation	Trial1	navigation/STIM_011.jpg	99
404.068	4.086	4086.0	navigation	Trial1	navigation/STIM_011.jpg	99
411.197	4.579	4578.7	navigation	Trial1	navigation/STIM_011.jpg	99
419.294	4.577	4576.9	navigation	Trial1	navigation/STIM_011.jpg	100
426.228	1.95	1949.6	navigation	Trial1	navigation/STIM_011.jpg	100
431.806	2.523	2522.8	navigation	Trial1	navigation/STIM_011.jpg	100
436.811	1.376	1375.9	pointing	Trial1	pointing/STIM_000.jpg	99
440.725	0.943	943.2	pointing	Trial1	pointing/STIM_000.jpg	100
445.433	1.13	1130.4	pointing	Trial1	pointing/STIM_000.jpg	100
450.06	1.324	1323.8	pointing	Trial1	pointing/STIM_000.jpg	100
455.119	1.637	1637.2	pointing	Trial1	pointing/STIM_000.jpg	99
459.96	1.197	1196.8	pointing	Trial1	pointing/STIM_000.jpg	99
464.745	1.143	1142.7	pointing	Trial1	pointing/STIM_001.jpg	100
468.164	1.074	1073.7	pointing	Trial1	pointing/STIM_001.jpg	100
472.203	0.886	886.5	pointing	Trial1	pointing/STIM_001.jpg	100
476.955	1.542	1541.8	pointing	Trial1	pointing/STIM_001.jpg	100
480.821	1.547	1546.9	pointing	Trial1	pointing/STIM_001.jpg	99
486.059	1.103	1102.9	pointing	Trial1	pointing/STIM_001.jpg	99
489.864	1.484	1483.7	pointing	Trial1	pointing/STIM_002.jpg	99
494.884	1.32	1319.6	pointing	Trial1	pointing/STIM_002.jpg	99
499.013	1.067	1067.2	pointing	Trial1	pointing/STIM_002.jpg	99
503.661	1.543	1543.1	pointing	Trial1	pointing/STIM_002.jpg	99
508.1	0.876	876.0	pointing	Trial1	pointing/STIM_002.jpg	99
511.056	1.196	1195.6	pointing	Trial1	pointing/STIM_002.jpg	100
514.838	1.55	1549.7	pointing	Trial1	pointing/STIM_003.jpg	99
519.533	1.235	1235.1	pointing	Trial1	pointing/STIM_003.jpg	99
523.925	1.214	1214.0	pointing	Trial1	pointing/STIM_003.jpg	100
528.045	1.272	1272.3	pointing	Trial1	pointing/STIM_003.jpg	99
531.869	1.358	1357.9	pointing	Trial1	pointing/STIM_003.jpg	99
536.473	1.198	1197.7	pointing	Trial1	pointing/STIM_003.jpg	100
539.911	0.928	928.2	pointing	Trial1	pointing/STIM_004.jpg	99
543.415	1.596	1596.3	pointing	Trial1	pointing/STIM_004.jpg	99
547.412	1.043	1043.2	pointing	Trial1	pointing/STIM_004.jpg	100
550.531	1.334	1334.5	pointing	Trial1	pointing/STIM_004.jpg	100
554.91	0.948	948.5	pointing	Trial1	pointing/STIM_004.jpg	99
559.039	0.829	829.2	pointing	Trial1	pointing/STIM_004.jpg	99
561.912	1.468	1468.1	pointing	Trial1	pointing/STIM_005.jpg	100
565.479	1.271	1271.1	pointing	Trial1	pointing/STIM_005.jpg	100
569.64	0.871	870.8	pointing	Trial1	pointing/STIM_005.jpg	100
574.075	1.568	1568.5	pointing	Trial1	pointing/STIM_005.jpg	99
578.702	1.474	1474.3	pointing	Trial1	pointing/STIM_005.jpg	100
583.617	1.04	1040.0	pointing	Trial1	pointing/STIM_005.jpg	99
586.694	1.332	1332.1	pointing	Trial1	pointing/STIM_006.jpg	100
591.835	1.275	1274.6	pointing	Trial1	pointing/STIM_006.jpg	100
596.265	1.303	1302.9	pointing	Trial1	pointing/STIM_006.jpg	99
600.08	0.883	883.0	pointing	Trial1	pointing/STIM_006.jpg	100
604.195	0.948	948.5	pointing	Trial1	pointing/STIM_006.jpg	99
607.475	1.654	1654.5	pointing	Trial1	pointing/STIM_006.jpg	99
612.823	1.197	1197.0	pointing	Trial1	pointing/STIM_007.jpg	100
616.293	1.027	1027.4	pointing	Trial1	pointing/STIM_007.jpg	99
619.789	1.405	1405.2	pointing	Trial1	pointing/STIM_007.jpg	100
624.907	1.565	1564.8	pointing	Trial1	pointing/STIM_007.jpg	99
630.038	1.031	1031.1	pointing	Trial1	pointing/STIM_007.jpg	100
634.58	0.99	989.9	pointing	Trial1	pointing/STIM_007.jpg	100
637.715	1.234	1233.9	pointing	Trial1	pointing/STIM_008.jpg	99
641.888	1.395	1395.4	pointing	Trial1	pointing/STIM_008.jpg	99
645.415	0.978	977.7	pointing	Trial1	pointing/STIM_008.jpg	100
648.354	1.602	1602.4	pointing	Trial1	pointing/STIM_008.jpg	100
653.163	1.232	1231.6	pointing	Trial1	pointing/STIM_008.jpg	99
658.092	1.017	1017.4	pointing	Trial1	pointing/STIM_008.jpg	100
661.92	1.664	1664.4	pointing	Trial1	pointing/STIM_009.jpg	99
667.325	1.653	1653.1	pointing	Trial1	pointing/STIM_009.jpg	100
671.227	1.087	1087.2	pointing	Trial1	pointing/STIM_009.jpg	99
674.412	1.601	1600.6	pointing	Trial1	pointing/STIM_009.jpg	99
678.393	1.477	1477.3	pointing	Trial1	pointing/STIM_009.jpg	100
682.53	1.563	1562.9	pointing	Trial1	pointing/STIM_009.jpg	100
687.828	1.242	1242.5	pointing	Trial1	pointing/STIM_010.jpg	99
691.133	0.944	944.4	pointing	Trial1	pointing/STIM_010.jpg	99
694.859	1.536	1535.8	pointing	Trial1	pointing/STIM_010.jpg	100
699.5	1.064	1064.4	pointing	Trial1	pointing/STIM_010.jpg	99
703.814	1.497	1496.9	pointing	Trial1	pointing/STIM_010.jpg	100
707.582	1.434	1434.5	pointing	Trial1	pointing/STIM_010.jpg	100
712.678	0.987	987.4	pointing	Trial1	pointing/STIM_011.jpg	99
716.915	1.184	1183.7	pointing	Trial1	pointing/STIM_011.jpg	100
720.955	0.96	960.0	pointing	Trial1	pointing/STIM_011.jpg	100
724.048	1.496	1495.8	pointing	Trial1	pointing/STIM_011.jpg	100
729.173	1.577	1577.2	pointing	Trial1	pointing/STIM_011.jpg	99
732.664	1.125	1125.2	pointing	Trial1	pointing/STIM_011.jpg	99
736.769	2.877	2877.2	navigation	Trial2	navigation/STIM_000.jpg	99
741.674	3.448	3448.0	navigation	Trial2	navigation/STIM_000.jpg	100
747.09	2.167	2167.2	navigation	Trial2	navigation/STIM_000.jpg	100
752.312	1.81	1809.8	navigation	Trial2	navigation/STIM_000.jpg	100
756.482	3.451	3451.1	navigation	Trial2	navigation/STIM_000.jpg	100
762.365	2.759	2759.1	navigation	Trial2	navigation/STIM_000.jpg	100
767.607	3.074	3073.8	navigation	Trial2	navigation/STIM_001.jpg	99
773.987	2.127	2127.3	navigation	Trial2	navigation/STIM_001.jpg	100
779.874	3.478	3478.1	navigation	Trial2	navigation/STIM_001.jpg	99
785.933	2.466	2466.0	navigation	Trial2	navigation/STIM_001.jpg	99
790.673	3.077	3076.9	navigation	Trial2	navigation/STIM_001.jpg	100
796.066	3.747	3747.3	navigation	Trial2	navigation/STIM_001.jpg	99
803.224	4.44	4439.9	navigation	Trial2	navigation/STIM_002.jpg	100
809.884	2.97	2969.7	navigation	Trial2	navigation/STIM_002.jpg	100
815.786	3.481	3480.6	navigation	Trial2	navigation/STIM_002.jpg	100
821.829	2.674	2673.7	navigation	Trial2	navigation/STIM_002.jpg	99
827.56	1.677	1676.9	navigation	Trial2	navigation/STIM_002.jpg	100
832.988	2.11	2110.5	navigation	Trial2	navigation/STIM_002.jpg	100
838.915	4.104	4104.3	navigation	Trial2	navigation/STIM_003.jpg	100
845.031	4.321	4320.6	navigation	Trial2	navigation/STIM_003.jpg	99
852.821	2.562	2561.9	navigation	Trial2	navigation/STIM_003.jpg	100
857.866	3.207	3206.8	navigation	Trial2	navigation/STIM_003.jpg	99
864.02	1.771	1770.8	navigation	Trial2	navigation/STIM_003.jpg	100
869.163	1.514	1513.5	navigation	Trial2	navigation/STIM_003.jpg	100
874.51	2.638	2637.5	navigation	Trial2	navigation/STIM_004.jpg	99
880.092	2.148	2148.0	navigation	Trial2	navigation/STIM_004.jpg	99
885.875	3.122	3122.5	navigation	Trial2	navigation/STIM_004.jpg	99
892.317	2.773	2772.9	navigation	Trial2	navigation/STIM_004.jpg	99
897.815	2.289	2289.3	navigation	Trial2	navigation/STIM_004.jpg	99
903.337	3.691	3690.6	navigation	Trial2	navigation/STIM_004.jpg	99
909.0	3.5	3499.9	navigation	Trial2	navigation/STIM_005.jpg	100
915.274	4.035	4034.5	navigation	Trial2	navigation/STIM_005.jpg	99
922.456	2.972	2971.8	navigation	Trial2	navigation/STIM_005.jpg	100
928.299	2.765	2765.2	navigation	Trial2	navigation/STIM_005.jpg	99
933.857	2.32	2320.1	navigation	Trial2	navigation/STIM_005.jpg	99
938.338	2.16	2159.6	navigation	Trial2	navigation/STIM_005.jpg	99
942.937	2.537	2536.6	navigation	Trial2	navigation/STIM_006.jpg	100
947.894	1.746	1745.8	navigation	Trial2	navigation/STIM_006.jpg	99
953.477	3.267	3267.3	navigation	Trial2	navigation/STIM_006.jpg	99
958.76	2.643	2642.6	navigation	Trial2	navigation/STIM_006.jpg	100
963.235	1.989	1988.8	navigation	Trial2	navigation/STIM_006.jpg	100
967.774	3.265	3264.9	navigation	Trial2	navigation/STIM_006.jpg	99
974.806	3.59	3590.0	navigation	Trial2	navigation/STIM_007.jpg	100
981.415	3.942	3941.8	navigation	Trial2	navigation/STIM_007.jpg	100
987.759	2.363	2363.0	navigation	Trial2	navigation/STIM_007.jpg	100
992.406	2.416	2416.0	navigation	Trial2	navigation/STIM_007.jpg	100
997.431	1.632	1632.5	navigation	Trial2	navigation/STIM_007.jpg	100
1001.835	3.545	3544.7	navigation	Trial2	navigation/STIM_007.jpg	99
1007.104	4.607	4607.3	navigation	Trial2	navigation/STIM_008.jpg	99
1014.852	1.771	1771.0	navigation	Trial2	navigation/STIM_008.jpg	99
1018.556	3.212	3212.1	navigation	Trial2	navigation/STIM_008.jpg	100
1024.353	2.622	2622.3	navigation	Trial2	navigation/STIM_008.jpg	99
1029.357	2.302	2301.9	navigation	Trial2	navigation/STIM_008.jpg	99
1034.378	2.055	2055.3	navigation	Trial2	navigation/STIM_008.jpg	99
1038.939	4.652	4652.3	navigation	Trial2	navigation/STIM_009.jpg	100
1046.566	3.593	3593.3	navigation	Trial2	navigation/STIM_009.jpg	99
1052.038	3.87	3870.0	navigation	Trial2	navigation/STIM_009.jpg	99
1059.525	2.716	2715.6	navigation	Trial2	navigation/STIM_009.jpg	99
1065.774	1.698	1697.7	navigation	Trial2	navigation/STIM_009.jpg	99
1070.598	2.442	2441.6	navigation	Trial2	navigation/STIM_009.jpg	99
1075.701	3.426	3425.7	navigation	Trial2	navigation/STIM_010.jpg	100
1081.081	4.312	4311.8	navigation	Trial2	navigation/STIM_010.jpg	100
1087.867	1.716	1715.6	navigation	Trial2	navigation/STIM_010.jpg	100
1092.506	2.326	2325.7	navigation	Trial2	navigation/STIM_010.jpg	100
1096.977	3.067	3066.8	navigation	Trial2	navigation/STIM_010.jpg	100
1101.743	1.753	1753.0	navigation	Trial2	navigation/STIM_010.jpg	99
1106.01	4.084	4084.3	navigation	Trial2	navigation/STIM_011.jpg	99
1111.994	3.194	3194.4	navigation	Trial2	navigation/STIM_011.jpg	99
1117.39	3.188	3188.5	navigation	Trial2	navigation/STIM_011.jpg	99
1123.247	2.247	2247.2	navigation	Trial2	navigation/STIM_011.jpg	99
1128.111	1.627	1626.7	navigation	Trial2	navigation/STIM_011.jpg	100
1133.125	3.48	3480.4	navigation	Trial2	navigation/STIM_011.jpg	100
1138.701	1.702	1702.4	pointing	Trial2	pointing/STIM_000.jpg	99
1143.36	1.21	1209.8	pointing	Trial2	pointing/STIM_000.jpg	100
1147.732	1.547	1547.3	pointing	Trial2	pointing/STIM_000.jpg	99
1151.976	1.317	1316.8	pointing	Trial2	pointing/STIM_000.jpg	99
1156.819	1.158	1158.0	pointing	Trial2	pointing/STIM_000.jpg	99
1160.843	1.354	1353.7	pointing	Trial2	pointing/STIM_000.jpg	100
1165.406	0.992	991.7	pointing	Trial2	pointing/STIM_001.jpg	100
1170.132	1.301	1300.6	pointing	Trial2	pointing/STIM_001.jpg	100
1174.621	1.661	1660.7	pointing	Trial2	pointing/STIM_001.jpg	99
1179.256	1.308	1307.6	pointing	Trial2	pointing/STIM_001.jpg	100
1182.854	1.368	1367.8	pointing	Trial2	pointing/STIM_001.jpg	100
1187.972	1.033	1033.2	pointing	Trial2	pointing/STIM_001.jpg	99
1192.817	1.42	1420.0	pointing	Trial2	pointing/STIM_002.jpg	99
1197.669	1.518	1517.5	pointing	Trial2	pointing/STIM_002.jpg	99
1202.322	1.306	1305.7	pointing	Trial2	pointing/STIM_002.jpg	100
1205.987	1.603	1602.7	pointing	Trial2	pointing/STIM_002.jpg	100
1209.693	0.824	824.3	pointing	Trial2	pointing/STIM_002.jpg	99
1212.78	1.644	1643.6	pointing	Trial2	pointing/STIM_002.jpg	100
1218.257	1.615	1615.4	pointing	Trial2	pointing/STIM_003.jpg	99
1222.112	1.525	1525.2	pointing	Trial2	pointing/STIM_003.jpg	99
1227.285	1.432	1432.0	pointing	Trial2	pointing/STIM_003.jpg	99
1232.332	1.252	1252.0	pointing	Trial2	pointing/STIM_003.jpg	99
1237.078	1.144	1144.2	pointing	Trial2	pointing/STIM_003.jpg	99
1240.844	1.036	1035.6	pointing	Trial2	pointing/STIM_003.jpg	100
1244.322	0.947	947.1	pointing	Trial2	pointing/STIM_004.jpg	99
1247.879	0.967	967.4	pointing	Trial2	pointing/STIM_004.jpg	99
1251.209	1.535	1534.7	pointing	Trial2	pointing/STIM_004.jpg	100
1254.823	1.602	1601.9	pointing	Trial2	pointing/STIM_004.jpg	99
1259.799	1.294	1294.1	pointing	Trial2	pointing/STIM_004.jpg	99
1263.267	0.858	858.0	pointing	Trial2	pointing/STIM_004.jpg	100
1266.839	0.819	819.3	pointing	Trial2	pointing/STIM_005.jpg	100
1271.533	1.005	1005.2	pointing	Trial2	pointing/STIM_005.jpg	99
1275.432	1.686	1686.5	pointing	Trial2	pointing/STIM_005.jpg	100
1279.877	1.29	1290.5	pointing	Trial2	pointing/STIM_005.jpg	100
1284.141	1.552	1552.4	pointing	Trial2	pointing/STIM_005.jpg	100
1287.847	1.444	1443.9	pointing	Trial2	pointing/STIM_005.jpg	99
1292.787	1.165	1164.7	pointing	Trial2	pointing/STIM_006.jpg	99
1296.285	1.067	1067.3	pointing	Trial2	pointing/STIM_006.jpg	100
1300.823	0.915	914.8	pointing	Trial2	pointing/STIM_006.jpg	99
1305.211	1.689	1689.2	pointing	Trial2	pointing/STIM_006.jpg	100
1310.077	1.369	1368.9	pointing	Trial2	pointing/STIM_006.jpg	100
1314.865	1.224	1223.9	pointing	Trial2	pointing/STIM_006.jpg	99
1318.736	1.345	1344.7	pointing	Trial2	pointing/STIM_007.jpg	99
1322.386	1.355	1355.1	pointing	Trial2	pointing/STIM_007.jpg	100
1326.303	1.162	1162.5	pointing	Trial2	pointing/STIM_007.jpg	100
1329.761	1.188	1187.5	pointing	Trial2	pointing/STIM_007.jpg	100
1334.128	1.561	1561.2	pointing	Trial2	pointing/STIM_007.jpg	100
1338.113	1.568	1567.5	pointing	Trial2	pointing/STIM_007.jpg	99
1342.05	1.101	1100.9	pointing	Trial2	pointing/STIM_008.jpg	100
1345.326	1.52	1519.5	pointing	Trial2	pointing/STIM_008.jpg	99
1349.136	1.123	1122.7	pointing	Trial2	pointing/STIM_008.jpg	100
1352.887	1.328	1328.2	pointing	Trial2	pointing/STIM_008.jpg	100
1357.701	1.483	1482.8	pointing	Trial2	pointing/STIM_008.jpg	99
1361.344	1.376	1375.6	pointing	Trial2	pointing/STIM_008.jpg	99
1366.686	1.281	1280.6	pointing	Trial2	pointing/STIM_009.jpg	100
1371.05	1.144	1143.6	pointing	Trial2	pointing/STIM_009.jpg	99
1375.509	1.087	1086.7	pointing	Trial2	pointing/STIM_009.jpg	100
1379.896	1.338	1337.7	pointing	Trial2	pointing/STIM_009.jpg	100
1383.176	0.883	883.1	pointing	Trial2	pointing/STIM_009.jpg	100
1387.216	0.854	853.6	pointing	Trial2	pointing/STIM_009.jpg	99
1392.012	0.915	915.3	pointing	Trial2	pointing/STIM_010.jpg	100
1394.889	1.186	1186.3	pointing	Trial2	pointing/STIM_010.jpg	99
1399.451	1.099	1099.3	pointing	Trial2	pointing/STIM_010.jpg	99
1402.542	1.248	1248.5	pointing	Trial2	pointing/STIM_010.jpg	100
1407.173	1.279	1278.6	pointing	Trial2	pointing/STIM_010.jpg	100
1410.83	1.639	1639.4	pointing	Trial2	pointing/STIM_010.jpg	99
1416.152	1.507	1506.8	pointing	Trial2	pointing/STIM_011.jpg	99
1420.198	1.264	1264.3	pointing	Trial2	pointing/STIM_011.jpg	100
1424.334	1.344	1343.9	pointing	Trial2	pointing/STIM_011.jpg	99
1427.514	1.265	1264.9	pointing	Trial2	pointing/STIM_011.jpg	99
1431.91	1.524	1524.3	pointing	Trial2	pointing/STIM_011.jpg	99
1436.924	1.333	1332.6	pointing	Trial2	pointing/STIM_011.jpg	99
1441.444	2.987	2986.7	navigation	Trial3	navigation/STIM_000.jpg	99
1447.317	2.744	2743.9	navigation	Trial3	navigation/STIM_000.jpg	100
1452.668	3.693	3692.8	navigation	Trial3	navigation/STIM_000.jpg	99
1458.073	1.86	1859.6	navigation	Trial3	navigation/STIM_000.jpg	99
1462.872	2.892	2891.9	navigation	Trial3	navigation/STIM_000.jpg	100
1469.408	3.667	3667.2	navigation	Trial3	navigation/STIM_000.jpg	99
1474.967	3.629	3628.7	navigation	Trial3	navigation/STIM_001.jpg	100
1480.873	2.598	2597.9	navigation	Trial3	navigation/STIM_001.jpg	100
1485.902	3.629	3629.4	navigation	Trial3	navigation/STIM_001.jpg	99
1491.769	2.882	2882.0	navigation	Trial3	navigation/STIM_001.jpg	99
1497.669	1.715	1715.4	navigation	Trial3	navigation/STIM_001.jpg	99
1502.927	2.691	2690.9	navigation	Trial3	navigation/STIM_001.jpg	99
1508.67	2.581	2581.2	navigation	Trial3	navigation/STIM_002.jpg	100
1514.145	1.863	1863.0	navigation	Trial3	navigation/STIM_002.jpg	100
1518.345	2.402	2401.8	navigation	Trial3	navigation/STIM_002.jpg	99
1523.744	3.272	3271.9	navigation	Trial3	navigation/STIM_002.jpg	100
1528.822	1.72	1720.2	navigation	Trial3	navigation/STIM_002.jpg	99
1533.744	1.869	1869.0	navigation	Trial3	navigation/STIM_002.jpg	99
1539.079	3.479	3478.7	navigation	Trial3	navigation/STIM_003.jpg	100
1545.985	1.923	1922.8	navigation	Trial3	navigation/STIM_003.jpg	100
1551.657	3.644	3644.5	navigation	Trial3	navigation/STIM_003.jpg	100
1558.127	1.691	1691.0	navigation	Trial3	navigation/STIM_003.jpg	99
1563.484	3.524	3524.2	navigation	Trial3	navigation/STIM_003.jpg	99
1569.407	2.834	2834.2	navigation	Trial3	navigation/STIM_003.jpg	99
1574.587	2.422	2421.8	navigation	Trial3	navigation/STIM_004.jpg	100
1580.732	2.48	2479.9	navigation	Trial3	navigation/STIM_004.jpg	99
1585.268	3.305	3305.0	navigation	Trial3	navigation/STIM_004.jpg	99
1591.375	2.851	2850.8	navigation	Trial3	navigation/STIM_004.jpg	100
1596.64	2.927	2926.8	navigation	Trial3	navigation/STIM_004.jpg	99
1602.877	1.589	1589.2	navigation	Trial3	navigation/STIM_004.jpg	99
1608.344	2.314	2313.7	navigation	Trial3	navigation/STIM_005.jpg	100
1614.043	3.317	3316.8	navigation	Trial3	navigation/STIM_005.jpg	99
1619.819	2.368	2367.5	navigation	Trial3	navigation/STIM_005.jpg	99
1625.904	3.057	3056.7	navigation	Trial3	navigation/STIM_005.jpg	100
1632.025	1.976	1976.5	navigation	Trial3	navigation/STIM_005.jpg	99
1636.719	2.028	2027.7	navigation	Trial3	navigation/STIM_005.jpg	100
1641.01	1.611	1611.4	navigation	Trial3	navigation/STIM_006.jpg	99
1645.13	2.219	2219.3	navigation	Trial3	navigation/STIM_006.jpg	99
1650.123	2.815	2814.8	navigation	Trial3	navigation/STIM_006.jpg	99
1656.017	1.702	1701.8	navigation	Trial3	navigation/STIM_006.jpg	100
1661.216	1.588	1588.3	navigation	Trial3	navigation/STIM_006.jpg	99
1665.158	3.041	3040.8	navigation	Trial3	navigation/STIM_006.jpg	99
1670.356	2.614	2614.3	navigation	Trial3	navigation/STIM_007.jpg	99
1676.732	2.046	2045.8	navigation	Trial3	navigation/STIM_007.jpg	99
1680.804	3.093	3092.6	navigation	Trial3	navigation/STIM_007.jpg	100
1685.941	1.873	1873.3	navigation	Trial3	navigation/STIM_007.jpg	99
1689.669	1.793	1793.3	navigation	Trial3	navigation/STIM_007.jpg	100
1695.256	3.682	3681.6	navigation	Trial3	navigation/STIM_007.jpg	99
1701.131	2.553	2553.4	navigation	Trial3	navigation/STIM_008.jpg	100
1706.1	1.719	1719.0	navigation	Trial3	navigation/STIM_008.jpg	100
1710.282	2.271	2270.9	navigation	Trial3	navigation/STIM_008.jpg	99
1714.893	3.246	3245.6	navigation	Trial3	navigation/STIM_008.jpg	99
1721.125	1.669	1669.0	navigation	Trial3	navigation/STIM_008.jpg	100
1725.313	3.203	3202.8	navigation	Trial3	navigation/STIM_008.jpg	99
1730.53	3.665	3664.8	navigation	Trial3	navigation/STIM_009.jpg	99
1737.47	1.707	1707.0	navigation	Trial3	navigation/STIM_009.jpg	100
1742.373	2.582	2581.8	navigation	Trial3	navigation/STIM_009.jpg	99
1747.243	1.796	1795.8	navigation	Trial3	navigation/STIM_009.jpg	99
1752.662	3.606	3606.1	navigation	Trial3	navigation/STIM_009.jpg	100
1759.093	3.213	3213.2	navigation	Trial3	navigation/STIM_009.jpg	100
1765.617	1.754	1753.7	navigation	Trial3	navigation/STIM_010.jpg	99
1771.248	2.862	2861.5	navigation	Trial3	navigation/STIM_010.jpg	99
1775.983	2.895	2895.0	navigation	Trial3	navigation/STIM_010.jpg	99
1782.52	1.681	1681.3	navigation	Trial3	navigation/STIM_010.jpg	100
1787.696	3.477	3477.2	navigation	Trial3	navigation/STIM_010.jpg	100
1794.646	3.214	3213.7	navigation	Trial3	navigation/STIM_010.jpg	100
1800.89	2.182	2182.4	navigation	Trial3	navigation/STIM_011.jpg	99
1804.986	2.253	2252.8	navigation	Trial3	navigation/STIM_011.jpg	99
1809.288	1.552	1552.3	navigation	Trial3	navigation/STIM_011.jpg	100
1813.669	1.665	1664.7	navigation	Trial3	navigation/STIM_011.jpg	100
1818.262	2.819	2818.8	navigation	Trial3	navigation/STIM_011.jpg	99
1824.876	3.519	3518.6	navigation	Trial3	navigation/STIM_011.jpg	100
1830.456	1.345	1345.1	pointing	Trial3	pointing/STIM_000.jpg	100
1833.79	1.366	1366.1	pointing	Trial3	pointing/STIM_000.jpg	100
1838.637	1.103	1102.7	pointing	Trial3	pointing/STIM_000.jpg	99
1842.081	1.01	1010.1	pointing	Trial3	pointing/STIM_000.jpg	99
1846.241	1.147	1147.1	pointing	Trial3	pointing/STIM_000.jpg	100
1850.605	0.988	987.8	pointing	Trial3	pointing/STIM_000.jpg	99
1855.203	1.403	1402.7	pointing	Trial3	pointing/STIM_001.jpg	99
1859.15	1.408	1408.0	pointing	Trial3	pointing/STIM_001.jpg	100
1863.265	1.648	1648.1	pointing	Trial3	pointing/STIM_001.jpg	100
1867.073	1.548	1547.6	pointing	Trial3	pointing/STIM_001.jpg	100
1871.818	0.808	808.1	pointing	Trial3	pointing/STIM_001.jpg	99
1876.423	1.411	1411.4	pointing	Trial3	pointing/STIM_001.jpg	100
1880.949	1.135	1134.8	pointing	Trial3	pointing/STIM_002.jpg	99
1885.709	1.167	1167.4	pointing	Trial3	pointing/STIM_002.jpg	100
1890.297	1.472	1471.6	pointing	Trial3	pointing/STIM_002.jpg	100
1893.853	0.889	889.3	pointing	Trial3	pointing/STIM_002.jpg	100
1897.469	0.943	943.1	pointing	Trial3	pointing/STIM_002.jpg	100
1902.037	1.394	1394.3	pointing	Trial3	pointing/STIM_002.jpg	99
1906.958	0.933	933.1	pointing	Trial3	pointing/STIM_003.jpg	99
1910.171	1.093	1093.0	pointing	Trial3	pointing/STIM_003.jpg	99
1915.163	1.13	1130.4	pointing	Trial3	pointing/STIM_003.jpg	100
1918.601	1.082	1082.5	pointing	Trial3	pointing/STIM_003.jpg	100
1922.591	1.36	1360.1	pointing	Trial3	pointing/STIM_003.jpg	100
1927.454	1.586	1586.4	pointing	Trial3	pointing/STIM_003.jpg	100
1932.137	1.198	1198.4	pointing	Trial3	pointing/STIM_004.jpg	100
1936.442	0.987	986.9	pointing	Trial3	pointing/STIM_004.jpg	99
1940.669	1.274	1273.8	pointing	Trial3	pointing/STIM_004.jpg	100
1944.182	1.047	1047.1	pointing	Trial3	pointing/STIM_004.jpg	99
1948.282	1.088	1088.5	pointing	Trial3	pointing/STIM_004.jpg	100
1952.804	1.016	1016.0	pointing	Trial3	pointing/STIM_004.jpg	99
1957.542	1.2	1199.9	pointing	Trial3	pointing/STIM_005.jpg	99
1961.797	1.31	1310.5	pointing	Trial3	pointing/STIM_005.jpg	100
1965.621	1.263	1263.1	pointing	Trial3	pointing/STIM_005.jpg	99
1970.352	1.105	1105.0	pointing	Trial3	pointing/STIM_005.jpg	99
1974.167	0.973	973.2	pointing	Trial3	pointing/STIM_005.jpg	100
1978.589	1.325	1325.0	pointing	Trial3	pointing/STIM_005.jpg	100
1983.586	1.522	1521.9	pointing	Trial3	pointing/STIM_006.jpg	100
1988.904	1.543	1542.9	pointing	Trial3	pointing/STIM_006.jpg	99
1994.071	1.692	1691.9	pointing	Trial3	pointing/STIM_006.jpg	99
1998.761	1.365	1365.1	pointing	Trial3	pointing/STIM_006.jpg	100
2002.762	1.571	1570.7	pointing	Trial3	pointing/STIM_006.jpg	99
2006.209	0.94	939.9	pointing	Trial3	pointing/STIM_006.jpg	99
2010.028	1.5	1499.5	pointing	Trial3	pointing/STIM_007.jpg	100
2014.817	1.642	1641.7	pointing	Trial3	pointing/STIM_007.jpg	100
2019.961	0.84	840.2	pointing	Trial3	pointing/STIM_007.jpg	99
2024.765	1.165	1164.7	pointing	Trial3	pointing/STIM_007.jpg	99
2029.761	1.278	1278.2	pointing	Trial3	pointing/STIM_007.jpg	99
2034.079	1.106	1105.5	pointing	Trial3	pointing/STIM_007.jpg	100
2038.567	1.416	1415.9	pointing	Trial3	pointing/STIM_008.jpg	99
2042.08	1.584	1584.4	pointing	Trial3	pointing/STIM_008.jpg	99
2046.238	1.474	1473.8	pointing	Trial3	pointing/STIM_008.jpg	99
2049.973	1.435	1435.4	pointing	Trial3	pointing/STIM_008.jpg	100
2053.71	1.298	1298.4	pointing	Trial3	pointing/STIM_008.jpg	100
2058.028	0.977	977.1	pointing	Trial3	pointing/STIM_008.jpg	99
2062.22	1.557	1557.0	pointing	Trial3	pointing/STIM_009.jpg	99
2067.539	1.6	1600.1	pointing	Trial3	pointing/STIM_009.jpg	100
2072.729	1.184	1184.4	pointing	Trial3	pointing/STIM_009.jpg	99
2076.67	1.025	1025.3	pointing	Trial3	pointing/STIM_009.jpg	99
2081.289	0.982	982.1	pointing	Trial3	pointing/STIM_009.jpg	100
2085.263	1.313	1313.3	pointing	Trial3	pointing/STIM_009.jpg	99
2088.751	1.019	1019.1	pointing	Trial3	pointing/STIM_010.jpg	100
2092.819	1.488	1488.2	pointing	Trial3	pointing/STIM_010.jpg	100
2096.732	1.504	1503.7	pointing	Trial3	pointing/STIM_010.jpg	100
2101.021	1.498	1498.4	pointing	Trial3	pointing/STIM_010.jpg	99
2104.901	1.126	1125.9	pointing	Trial3	pointing/STIM_010.jpg	100
2109.561	1.66	1660.3	pointing	Trial3	pointing/STIM_010.jpg	99
2114.073	1.169	1168.7	pointing	Trial3	pointing/STIM_011.jpg	99
2118.204	1.519	1518.7	pointing	Trial3	pointing/STIM_011.jpg	100
2123.514	1.564	1564.3	pointing	Trial3	pointing/STIM_011.jpg	100
2128.323	1.47	1470.2	pointing	Trial3	pointing/STIM_011.jpg	100
2133.671	0.911	911.3	pointing	Trial3	pointing/STIM_011.jpg	100
2136.531	1.538	1537.8	pointing	Trial3	pointing/STIM_011.jpg	99
