onset	duration	response_time_ms	trial_type	learning_stage	stimulus	response_port
0.0	3.946	3945.6	navigation	Trial1	navigation/STIM_000.jpg	99
7.101	2.783	2783.4	navigation	Trial1	navigation/STIM_000.jpg	99
13.845	2.959	2958.6	navigation	Trial1	navigation/STIM_000.jpg	100
18.858	3.136	3135.8	navigation	Trial1	navigation/STIM_000.jpg	100
25.779	2.714	2714.0	navigation	Trial1	navigation/STIM_000.jpg	99
30.603	2.638	2638.0	navigation	Trial1	navigation/STIM_000.jpg	100
35.881	2.014	2014.2	navigation	Trial1	navigation/STIM_001.jpg	99
40.083	3.569	3568.7	navigation	Trial1	navigation/STIM_001.jpg	100
45.939	3.641	3641.1	navigation	Trial1	navigation/STIM_001.jpg	99
53.441	2.198	2197.9	navigation	Trial1	navigation/STIM_001.jpg	100
59.505	1.51	1509.7	navigation	Trial1	navigation/STIM_001.jpg	99
64.557	2.963	2963.1	navigation	Trial1	navigation/STIM_001.jpg	99
70.192	3.601	3601.0	navigation	Trial1	navigation/STIM_002.jpg	99
77.513	1.985	1984.7	navigation	Trial1	navigation/STIM_002.jpg	99
83.348	2.54	2539.6	navigation	Trial1	navigation/STIM_002.jpg	99
88.392	3.242	3242.2	navigation	Trial1	navigation/STIM_002.jpg	99
94.571	2.046	2045.5	navigation	Trial1	navigation/STIM_002.jpg	100
99.408	1.731	1730.7	navigation	Trial1	navigation/STIM_002.jpg	99
104.53	2.494	2494.0	navigation	Trial1	navigation/STIM_003.jpg	100
109.266	2.957	2957.1	navigation	Trial1	navigation/STIM_003.jpg	100
116.153	2.593	2592.6	navigation	Trial1	navigation/STIM_003.jpg	100
120.864	1.865	1865.3	navigation	Trial1	navigation/STIM_003.jpg	99
125.475	2.973	2973.2	navigation	Trial1	navigation/STIM_003.jpg	99
132.124	2.845	2844.6	navigation	Trial1	navigation/STIM_003.jpg	100
138.026	1.832	1832.1	navigation	Trial1	navigation/STIM_004.jpg	100
143.585	3.365	3365.0	navigation	Trial1	navigation/STIM_004.jpg	99
150.212	2.866	2866.5	navigation	Trial1	navigation/STIM_004.jpg	99
156.644	3.637	3637.4	navigation	Trial1	navigation/STIM_004.jpg	99
164.192	1.921	1921.1	navigation	Trial1	navigation/STIM_004.jpg	100
168.697	3.193	3193.0	navigation	Trial1	navigation/STIM_004.jpg	99
175.195	2.43	2430.3	navigation	Trial1	navigation/STIM_005.jpg	100
180.793	3.927	3927.0	navigation	Trial1	navigation/STIM_005.jpg	99
186.721	2.386	2386.4	navigation	Trial1	navigation/STIM_005.jpg	99
191.182	2.9	2900.4	navigation	Trial1	navigation/STIM_005.jpg	100
198.076	2.765	2765.2	navigation	Trial1	navigation/STIM_005.jpg	100
203.96	1.521	1520.9	navigation	Trial1	navigation/STIM_005.jpg	100
209.123	3.45	3449.9	navigation	Trial1	navigation/STIM_006.jpg	100
216.496	3.373	3372.8	navigation	Trial1	navigation/STIM_006.jpg	100
223.772	2.181	2181.1	navigation	Trial1	navigation/STIM_006.jpg	100
229.344	3.249	3249.2	navigation	Trial1	navigation/STIM_006.jpg	99
235.377	2.044	2043.6	navigation	Trial1	navigation/STIM_006.jpg	99
240.755	1.53	1530.0	navigation	Trial1	navigation/STIM_006.jpg	100
245.013	2.233	2232.7	navigation	Trial1	navigation/STIM_007.jpg	100
250.529	2.782	2782.0	navigation	Trial1	navigation/STIM_007.jpg	99
255.547	3.536	3535.8	navigation	Trial1	navigation/STIM_007.jpg	100
263.073	1.97	1969.6	navigation	Trial1	navigation/STIM_007.jpg	100
268.233	1.968	1968.2	navigation	Trial1	navigation/STIM_007.jpg	99
273.674	1.901	1901.0	navigation	Trial1	navigation/STIM_007.jpg	99
278.854	3.384	3384.5	navigation	Trial1	navigation/STIM_008.jpg	100
285.701	1.836	1835.6	navigation	Trial1	navigation/STIM_008.jpg	100
291.107	3.828	3827.8	navigation	Trial1	navigation/STIM_008.jpg	100
297.482	2.582	2581.5	navigation	Trial1	navigation/STIM_008.jpg	99
302.304	3.544	3544.5	navigation	Trial1	navigation/STIM_008.jpg	99
309.064	2.981	2980.8	navigation	Trial1	navigation/STIM_008.jpg	99
314.129	3.163	3163.0	navigation	Trial1	navigation/STIM_009.jpg	99
320.19	1.94	1939.5	navigation	Trial1	navigation/STIM_009.jpg	100
326.115	2.411	2410.7	navigation	Trial1	navigation/STIM_009.jpg	99
331.817	2.887	2887.2	navigation	Trial1	navigation/STIM_009.jpg	100
338.19	2.281	2280.9	navigation	Trial1	navigation/STIM_009.jpg	99
344.436	3.086	3086.4	navigation	Trial1	navigation/STIM_009.jpg	99
351.29	3.895	3895.0	navigation	Trial1	navigation/STIM_010.jpg	100
357.466	2.77	2769.9	navigation	Trial1	navigation/STIM_010.jpg	99
364.105	2.705	2705.0	navigation	Trial1	navigation/STIM_010.jpg	100
370.755	3.089	3089.2	navigation	Trial1	navigation/STIM_010.jpg	100
377.7	3.366	3366.0	navigation	Trial1	navigation/STIM_010.jpg	99
384.542	2.299	2298.8	navigation	Trial1	navigation/STIM_010.jpg	99
388.974	2.646	2645.5	navigation	Trial1	navigation/STIM_011.jpg	99
395.324	3.784	3784.0	navigation	Trial1	navigation/STIM_011.jpg	99
402.069	3.312	3311.7	navigation	Trial1	navigation/STIM_011.jpg	99
408.848	2.037	2036.8	navigation	Trial1	navigation/STIM_011.jpg	99
414.825	1.618	1618.3	navigation	Trial1	navigation/STIM_011.jpg	99
419.291	2.152	2152.5	navigation	Trial1	navigation/STIM_011.jpg	100
424.104	0.738	737.5	pointing	Trial1	pointing/STIM_000.jpg	100
427.298	0.802	802.5	pointing	Trial1	pointing/STIM_000.jpg	100
431.934	0.911	911.3	pointing	Trial1	pointing/STIM_000.jpg	100
435.084	1.242	1242.3	pointing	Trial1	pointing/STIM_000.jpg	99
438.333	0.758	757.6	pointing	Trial1	pointing/STIM_000.jpg	100
442.35	1.099	1099.2	pointing	Trial1	pointing/STIM_000.jpg	99
446.602	1.089	1089.3	pointing	Trial1	pointing/STIM_001.jpg	100
450.243	0.812	812.4	pointing	Trial1	pointing/STIM_001.jpg	99
455.034	1.116	1115.9	pointing	Trial1	pointing/STIM_001.jpg	99
460.024	0.902	901.7	pointing	Trial1	pointing/STIM_001.jpg	99
464.235	1.139	1138.9	pointing	Trial1	pointing/STIM_001.jpg	99
468.706	1.34	1339.9	pointing	Trial1	pointing/STIM_001.jpg	100
472.629	0.752	751.9	pointing	Trial1	pointing/STIM_002.jpg	100
476.653	1.002	1002.5	pointing	Trial1	pointing/STIM_002.jpg	100
481.106	1.007	1007.1	pointing	Trial1	pointing/STIM_002.jpg	100
484.259	1.179	1179.4	pointing	Trial1	pointing/STIM_002.jpg	100
487.455	1.152	1152.2	pointing	Trial1	pointing/STIM_002.jpg	100
492.408	1.094	1094.5	pointing	Trial1	pointing/STIM_002.jpg	100
497.284	0.722	722.2	pointing	Trial1	pointing/STIM_003.jpg	99
500.962	0.922	921.9	pointing	Trial1	pointing/STIM_003.jpg	99
505.775	1.164	1163.7	pointing	Trial1	pointing/STIM_003.jpg	100
509.625	0.904	904.5	pointing	Trial1	pointing/STIM_003.jpg	100
512.997	0.996	995.8	pointing	Trial1	pointing/STIM_003.jpg	100
516.961	1.322	1321.9	pointing	Trial1	pointing/STIM_003.jpg	99
522.105	1.154	1154.0	pointing	Trial1	pointing/STIM_004.jpg	100
526.928	1.129	1129.1	pointing	Trial1	pointing/STIM_004.jpg	100
532.047	1.138	1138.0	pointing	Trial1	pointing/STIM_004.jpg	100
535.672	1.234	1234.5	pointing	Trial1	pointing/STIM_004.jpg	100
539.54	0.994	994.5	pointing	Trial1	pointing/STIM_004.jpg	99
543.773	0.774	773.5	pointing	Trial1	pointing/STIM_004.jpg	100
547.164	1.116	1115.5	pointing	Trial1	pointing/STIM_005.jpg	99
551.86	1.203	1202.9	pointing	Trial1	pointing/STIM_005.jpg	99
557.035	1.093	1092.6	pointing	Trial1	pointing/STIM_005.jpg	100
560.446	1.093	1092.8	pointing	Trial1	pointing/STIM_005.jpg	100
564.353	1.209	1209.4	pointing	Trial1	pointing/STIM_005.jpg	99
568.722	0.747	746.8	pointing	Trial1	pointing/STIM_005.jpg	100
572.077	1.299	1298.9	pointing	Trial1	pointing/STIM_006.jpg	99
576.852	0.957	957.3	pointing	Trial1	pointing/STIM_006.jpg	99
581.091	0.905	905.3	pointing	Trial1	pointing/STIM_006.jpg	99
585.404	0.743	742.6	pointing	Trial1	pointing/STIM_006.jpg	99
589.179	1.107	1107.3	pointing	Trial1	pointing/STIM_006.jpg	100
593.413	0.923	922.9	pointing	Trial1	pointing/STIM_006.jpg	100
597.606	1.297	1297.1	pointing	Trial1	pointing/STIM_007.jpg	100
601.594	1.003	1003.0	pointing	Trial1	pointing/STIM_007.jpg	99
604.879	1.277	1276.9	pointing	Trial1	pointing/STIM_007.jpg	100
610.055	0.912	912.2	pointing	Trial1	pointing/STIM_007.jpg	100
613.438	0.785	784.8	pointing	Trial1	pointing/STIM_007.jpg	99
617.318	1.225	1224.6	pointing	Trial1	pointing/STIM_007.jpg	99
620.894	1.128	1127.5	pointing	Trial1	pointing/STIM_008.jpg	100
624.635	0.91	910.4	pointing	Trial1	pointing/STIM_008.jpg	100
629.378	1.326	1325.6	pointing	Trial1	pointing/STIM_008.jpg	99
633.602	1.16	1160.5	pointing	Trial1	pointing/STIM_008.jpg	100
636.84	1.01	1010.1	pointing	Trial1	pointing/STIM_008.jpg	99
640.329	1.279	1279.0	pointing	Trial1	pointing/STIM_008.jpg	100
644.733	1.063	1063.1	pointing	Trial1	pointing/STIM_009.jpg	99
648.4	1.334	1334.5	pointing	Trial1	pointing/STIM_009.jpg	99
653.15	1.126	1126.0	pointing	Trial1	pointing/STIM_009.jpg	100
657.4	1.237	1236.8	pointing	Trial1	pointing/STIM_009.jpg	100
661.727	1.323	1323.3	pointing	Trial1	pointing/STIM_009.jpg	99
665.138	1.16	1159.7	pointing	Trial1	pointing/STIM_009.jpg	100
668.609	1.278	1277.7	pointing	Trial1	pointing/STIM_010.jpg	100
673.322	0.924	924.2	pointing	Trial1	pointing/STIM_010.jpg	99
677.18	0.879	878.9	pointing	Trial1	pointing/STIM_010.jpg	100
680.989	0.977	977.2	pointing	Trial1	pointing/STIM_010.jpg	100
684.865	0.907	906.8	pointing	Trial1	pointing/STIM_010.jpg	100
688.352	0.761	761.3	pointing	Trial1	pointing/STIM_010.jpg	99
691.405	0.909	909.0	pointing	Trial1	pointing/STIM_011.jpg	100
695.829	0.846	846.3	pointing	Trial1	pointing/STIM_011.jpg	99
700.085	0.82	819.8	pointing	Trial1	pointing/STIM_011.jpg	99
703.598	1.04	1039.8	pointing	Trial1	pointing/STIM_011.jpg	99
706.973	1.024	1023.8	pointing	Trial1	pointing/STIM_011.jpg	99
710.575	1.19	1189.6	pointing	Trial1	pointing/STIM_011.jpg	99
714.222	1.973	1973.1	navigation	Trial2	navigation/STIM_000.jpg	99
720.084	2.206	2205.6	navigation	Trial2	navigation/STIM_000.jpg	99
726.235	2.262	2261.6	navigation	Trial2	navigation/STIM_000.jpg	100
732.328	1.488	1488.3	navigation	Trial2	navigation/STIM_000.jpg	100
735.85	2.526	2525.8	navigation	Trial2	navigation/STIM_000.jpg	99
741.794	2.145	2145.3	navigation	Trial2	navigation/STIM_000.jpg	100
747.83	2.404	2403.7	navigation	Trial2	navigation/STIM_001.jpg	100
753.385	1.988	1987.9	navigation	Trial2	navigation/STIM_001.jpg	100
758.272	3.132	3132.4	navigation	Trial2	navigation/STIM_001.jpg	100
764.278	2.408	2408.4	navigation	Trial2	navigation/STIM_001.jpg	99
769.776	1.989	1988.6	navigation	Trial2	navigation/STIM_001.jpg	99
774.332	1.805	1805.1	navigation	Trial2	navigation/STIM_001.jpg	100
779.228	2.834	2834.5	navigation	Trial2	navigation/STIM_002.jpg	100
784.61	2.513	2513.4	navigation	Trial2	navigation/STIM_002.jpg	99
790.973	3.036	3035.9	navigation	Trial2	navigation/STIM_002.jpg	100
796.956	2.302	2301.7	navigation	Trial2	navigation/STIM_002.jpg	100
801.377	2.896	2896.3	navigation	Trial2	navigation/STIM_002.jpg	100
807.464	1.976	1976.5	navigation	Trial2	navigation/STIM_002.jpg	100
812.547	2.235	2235.0	navigation	Trial2	navigation/STIM_003.jpg	100
818.298	2.277	2276.8	navigation	Trial2	navigation/STIM_003.jpg	100
823.653	3.158	3158.3	navigation	Trial2	navigation/STIM_003.jpg	99
829.438	3.044	3043.9	navigation	Trial2	navigation/STIM_003.jpg	99
835.097	3.085	3085.4	navigation	Trial2	navigation/STIM_003.jpg	100
840.358	1.573	1573.0	navigation	Trial2	navigation/STIM_003.jpg	99
845.79	3.432	3432.2	navigation	Trial2	navigation/STIM_004.jpg	99
851.722	1.448	1447.6	navigation	Trial2	navigation/STIM_004.jpg	99
856.185	3.302	3301.8	navigation	Trial2	navigation/STIM_004.jpg	100
861.707	2.029	2029.2	navigation	Trial2	navigation/STIM_004.jpg	100
867.137	1.259	1259.3	navigation	Trial2	navigation/STIM_004.jpg	99
870.927	2.081	2081.4	navigation	Trial2	navigation/STIM_004.jpg	99
876.652	1.586	1585.7	navigation	Trial2	navigation/STIM_005.jpg	100
881.287	2.973	2972.8	navigation	Trial2	navigation/STIM_005.jpg	100
887.884	3.333	3333.0	navigation	Trial2	navigation/STIM_005.jpg	100
894.902	1.669	1669.1	navigation	Trial2	navigation/STIM_005.jpg	99
898.726	2.625	2625.2	navigation	Trial2	navigation/STIM_005.jpg	99
904.324	2.86	2860.3	navigation	Trial2	navigation/STIM_005.jpg	100
909.579	1.626	1625.9	navigation	Trial2	navigation/STIM_006.jpg	100
914.246	2.358	2358.2	navigation	Trial2	navigation/STIM_006.jpg	100
918.782	2.629	2628.6	navigation	Trial2	navigation/STIM_006.jpg	100
923.889	2.796	2796.0	navigation	Trial2	navigation/STIM_006.jpg	99
929.388	2.514	2514.0	navigation	Trial2	navigation/STIM_006.jpg	99
934.716	1.968	1968.4	navigation	Trial2	navigation/STIM_006.jpg	99
939.301	3.344	3343.7	navigation	Trial2	navigation/STIM_007.jpg	100
945.42	2.331	2331.2	navigation	Trial2	navigation/STIM_007.jpg	99
950.186	1.492	1492.3	navigation	Trial2	navigation/STIM_007.jpg	100
953.807	1.517	1517.4	navigation	Trial2	navigation/STIM_007.jpg	99
957.379	2.76	2759.8	navigation	Trial2	navigation/STIM_007.jpg	100
964.118	2.371	2371.1	navigation	Trial2	navigation/STIM_007.jpg	99
970.485	1.65	1650.1	navigation	Trial2	navigation/STIM_008.jpg	100
974.986	1.649	1648.6	navigation	Trial2	navigation/STIM_008.jpg	99
979.89	2.739	2739.0	navigation	Trial2	navigation/STIM_008.jpg	100
985.191	1.964	1963.6	navigation	Trial2	navigation/STIM_008.jpg	100
990.115	1.302	1301.9	navigation	Trial2	navigation/STIM_008.jpg	100
994.736	3.054	3053.7	navigation	Trial2	navigation/STIM_008.jpg	100
1000.618	3.752	3751.8	navigation	Trial2	navigation/STIM_009.jpg	100
1007.098	2.331	2330.8	navigation	Trial2	navigation/STIM_009.jpg	99
1011.479	1.812	1812.0	navigation	Trial2	navigation/STIM_009.jpg	99
1016.054	1.452	1452.0	navigation	Trial2	navigation/STIM_009.jpg	99
1021.225	2.009	2009.1	navigation	Trial2	navigation/STIM_009.jpg	100
1025.612	2.36	2360.3	navigation	Trial2	navigation/STIM_009.jpg	100
1031.051	2.822	2822.4	navigation	Trial2	navigation/STIM_010.jpg	99
1036.011	2.64	2639.5	navigation	Trial2	navigation/STIM_010.jpg	100
1041.587	2.305	2305.2	navigation	Trial2	navigation/STIM_010.jpg	99
1046.714	1.526	1525.5	navigation	Trial2	navigation/STIM_010.jpg	99
1051.188	1.508	1507.8	navigation	Trial2	navigation/STIM_010.jpg	99
1055.187	1.963	1962.8	navigation	Trial2	navigation/STIM_010.jpg	99
1060.54	1.718	1718.4	navigation	Trial2	navigation/STIM_011.jpg	100
1064.39	1.863	1862.9	navigation	Trial2	navigation/STIM_011.jpg	99
1069.776	1.664	1663.8	navigation	Trial2	navigation/STIM_011.jpg	100
1073.55	1.955	1954.6	navigation	Trial2	navigation/STIM_011.jpg	99
1077.519	2.993	2993.1	navigation	Trial2	navigation/STIM_011.jpg	100
1083.587	2.167	2167.1	navigation	Trial2	navigation/STIM_011.jpg	99
1089.109	0.741	741.4	pointing	Trial2	pointing/STIM_000.jpg	100
1093.418	1.334	1333.9	pointing	Trial2	pointing/STIM_000.jpg	99
1096.942	0.918	918.5	pointing	Trial2	pointing/STIM_000.jpg	99
1100.033	1.059	1059.4	pointing	Trial2	pointing/STIM_000.jpg	100
1104.268	1.067	1067.4	pointing	Trial2	pointing/STIM_000.jpg	100
1108.555	1.118	1117.8	pointing	Trial2	pointing/STIM_000.jpg	99
1113.546	0.877	877.3	pointing	Trial2	pointing/STIM_001.jpg	100
1117.601	0.909	908.8	pointing	Trial2	pointing/STIM_001.jpg	100
1120.85	0.907	907.4	pointing	Trial2	pointing/STIM_001.jpg	100
1124.384	0.794	794.0	pointing	Trial2	pointing/STIM_001.jpg	100
1128.613	1.19	1190.0	pointing	Trial2	pointing/STIM_001.jpg	99
1132.457	0.947	947.2	pointing	Trial2	pointing/STIM_001.jpg	100
1135.925	1.212	1212.4	pointing	Trial2	pointing/STIM_002.jpg	99
1141.057	0.761	760.8	pointing	Trial2	pointing/STIM_002.jpg	99
1144.123	1.2	1199.7	pointing	Trial2	pointing/STIM_002.jpg	99
1148.495	1.094	1094.5	pointing	Trial2	pointing/STIM_002.jpg	100
1153.053	1.241	1241.4	pointing	Trial2	pointing/STIM_002.jpg	100
1158.151	0.886	885.7	pointing	Trial2	pointing/STIM_002.jpg	99
1161.733	1.342	1342.1	pointing	Trial2	pointing/STIM_003.jpg	100
1165.869	1.066	1066.4	pointing	Trial2	pointing/STIM_003.jpg	100
1170.865	0.957	956.8	pointing	Trial2	pointing/STIM_003.jpg	99
1175.185	1.182	1182.0	pointing	Trial2	pointing/STIM_003.jpg	100
1178.566	0.937	936.8	pointing	Trial2	pointing/STIM_003.jpg	100
1183.42	0.766	766.3	pointing	Trial2	pointing/STIM_003.jpg	100
1187.18	1.065	1065.2	pointing	Trial2	pointing/STIM_004.jpg	100
1191.058	0.873	873.2	pointing	Trial2	pointing/STIM_004.jpg	99
1194.327	1.21	1209.8	pointing	Trial2	pointing/STIM_004.jpg	99
1198.307	1.044	1044.5	pointing	Trial2	pointing/STIM_004.jpg	100
1201.434	0.888	887.6	pointing	Trial2	pointing/STIM_004.jpg	100
1206.135	1.047	1046.8	pointing	Trial2	pointing/STIM_004.jpg	100
1209.879	1.096	1096.2	pointing	Trial2	pointing/STIM_005.jpg	99
1214.229	1.023	1022.9	pointing	Trial2	pointing/STIM_005.jpg	100
1218.828	1.107	1106.6	pointing	Trial2	pointing/STIM_005.jpg	99
1223.327	1.138	1138.5	pointing	Trial2	pointing/STIM_005.jpg	99
1227.85	1.206	1205.9	pointing	Trial2	pointing/STIM_005.jpg	100
1231.627	1.013	1013.2	pointing	Trial2	pointing/STIM_005.jpg	99
1235.755	1.09	1090.4	pointing	Trial2	pointing/STIM_006.jpg	99
1239.573	1.158	1157.8	pointing	Trial2	pointing/STIM_006.jpg	99
1244.569	1.159	1158.8	pointing	Trial2	pointing/STIM_006.jpg	99
1247.813	0.721	720.9	pointing	Trial2	pointing/STIM_006.jpg	99
1251.143	1.051	1051.0	pointing	Trial2	pointing/STIM_006.jpg	99
1254.345	1.229	1229.1	pointing	Trial2	pointing/STIM_006.jpg	100
1258.095	1.052	1052.1	pointing	Trial2	pointing/STIM_007.jpg	99
1262.098	0.8	799.8	pointing	Trial2	pointing/STIM_007.jpg	100
1265.505	0.935	935.3	pointing	Trial2	pointing/STIM_007.jpg	100
1269.843	0.785	784.7	pointing	Trial2	pointing/STIM_007.jpg	100
1274.177	0.884	884.2	pointing	Trial2	pointing/STIM_007.jpg	100
1278.257	0.908	908.5	pointing	Trial2	pointing/STIM_007.jpg	99
1283.135	0.781	780.8	pointing	Trial2	pointing/STIM_008.jpg	100
1286.365	1.021	1021.0	pointing	Trial2	pointing/STIM_008.jpg	99
1290.792	0.962	961.9	pointing	Trial2	pointing/STIM_008.jpg	100
1295.726	1.04	1040.4	pointing	Trial2	pointing/STIM_008.jpg	99
1298.989	1.193	1193.4	pointing	Trial2	pointing/STIM_008.jpg	100
1303.699	1.087	1086.9	pointing	Trial2	pointing/STIM_008.jpg	100
1307.516	1.116	1115.9	pointing	Trial2	pointing/STIM_009.jpg	99
1311.572	0.944	943.9	pointing	Trial2	pointing/STIM_009.jpg	99
1316.361	0.899	899.1	pointing	Trial2	pointing/STIM_009.jpg	100
1320.599	0.78	779.7	pointing	Trial2	pointing/STIM_009.jpg	100
1324.038	0.79	790.2	pointing	Trial2	pointing/STIM_009.jpg	100
1327.576	1.288	1287.9	pointing	Trial2	pointing/STIM_009.jpg	100
1331.059	1.332	1331.7	pointing	Trial2	pointing/STIM_010.jpg	99
1335.868	0.949	949.2	pointing	Trial2	pointing/STIM_010.jpg	99
1339.928	1.143	1142.8	pointing	Trial2	pointing/STIM_010.jpg	99
1344.006	0.825	824.7	pointing	Trial2	pointing/STIM_010.jpg	99
1348.605	1.027	1027.0	pointing	Trial2	pointing/STIM_010.jpg	100
1352.223	0.952	952.2	pointing	Trial2	pointing/STIM_010.jpg	99
1355.766	1.339	1338.6	pointing	Trial2	pointing/STIM_011.jpg	100
1360.993	0.784	783.5	pointing	Trial2	pointing/STIM_011.jpg	99
1364.203	0.735	734.6	pointing	Trial2	pointing/STIM_011.jpg	99
1368.43	0.743	743.1	pointing	Trial2	pointing/STIM_011.jpg	99
1372.727	1.16	1160.2	pointing	Trial2	pointing/STIM_011.jpg	100
1377.687	0.833	833.0	pointing	Trial2	pointing/STIM_011.jpg	100
1380.534	1.464	1464.3	navigation	Trial3	navigation/STIM_000.jpg	100
1384.66	1.721	1720.6	navigation	Trial3	navigation/STIM_000.jpg	99
1388.591	2.524	2524.4	navigation	Trial3	navigation/STIM_000.jpg	100
1393.325	2.056	2055.9	navigation	Trial3	navigation/STIM_000.jpg	99
1397.95	2.602	2601.7	navigation	Trial3	navigation/STIM_000.jpg	100
1404.414	2.238	2238.5	navigation	Trial3	navigation/STIM_000.jpg	100
1410.489	1.336	1336.3	navigation	Trial3	navigation/STIM_001.jpg	99
1415.218	2.061	2060.8	navigation	Trial3	navigation/STIM_001.jpg	99
1420.633	1.93	1930.3	navigation	Trial3	navigation/STIM_001.jpg	100
1425.268	1.271	1271.2	navigation	Trial3	navigation/STIM_001.jpg	99
1428.761	2.833	2833.0	navigation	Trial3	navigation/STIM_001.jpg	100
1434.799	1.424	1423.7	navigation	Trial3	navigation/STIM_001.jpg	99
1439.267	2.694	2694.2	navigation	Trial3	navigation/STIM_002.jpg	99
1445.067	1.736	1735.8	navigation	Trial3	navigation/STIM_002.jpg	99
1449.478	1.831	1831.3	navigation	Trial3	navigation/STIM_002.jpg	99
1453.451	2.641	2640.6	navigation	Trial3	navigation/STIM_002.jpg	100
1458.191	2.188	2187.8	navigation	Trial3	navigation/STIM_002.jpg	100
1462.576	2.66	2660.3	navigation	Trial3	navigation/STIM_002.jpg	99
1467.941	1.492	1492.5	navigation	Trial3	navigation/STIM_003.jpg	100
1471.784	1.342	1341.7	navigation	Trial3	navigation/STIM_003.jpg	99
1475.439	2.374	2373.6	navigation	Trial3	navigation/STIM_003.jpg	100
1481.428	1.597	1597.1	navigation	Trial3	navigation/STIM_003.jpg	99
1486.885	3.026	3026.4	navigation	Trial3	navigation/STIM_003.jpg	100
1492.793	1.679	1678.7	navigation	Trial3	navigation/STIM_003.jpg	100
1496.728	2.194	2193.9	navigation	Trial3	navigation/STIM_004.jpg	99
1501.082	2.994	2993.8	navigation	Trial3	navigation/STIM_004.jpg	99
1506.95	2.044	2044.0	navigation	Trial3	navigation/STIM_004.jpg	99
1512.294	2.7	2699.8	navigation	Trial3	navigation/STIM_004.jpg	100
1518.204	1.518	1518.5	navigation	Trial3	navigation/STIM_004.jpg	99
1521.867	2.086	2086.0	navigation	Trial3	navigation/STIM_004.jpg	99
1527.307	1.896	1895.6	navigation	Trial3	navigation/STIM_005.jpg	100
1532.335	2.711	2710.8	navigation	Trial3	navigation/STIM_005.jpg	99
1538.54	2.547	2547.4	navigation	Trial3	navigation/STIM_005.jpg	100
1543.499	1.917	1916.7	navigation	Trial3	navigation/STIM_005.jpg	100
1548.137	3.083	3082.7	navigation	Trial3	navigation/STIM_005.jpg	99
1554.03	2.204	2204.3	navigation	Trial3	navigation/STIM_005.jpg	100
1558.534	2.629	2629.1	navigation	Trial3	navigation/STIM_006.jpg	99
1565.094	3.096	3096.4	navigation	Trial3	navigation/STIM_006.jpg	99
1570.781	3.057	3056.9	navigation	Trial3	navigation/STIM_006.jpg	99
1577.216	2.38	2380.5	navigation	Trial3	navigation/STIM_006.jpg	99
1582.155	2.181	2181.0	navigation	Trial3	navigation/STIM_006.jpg	100
1587.427	2.546	2546.4	navigation	Trial3	navigation/STIM_006.jpg	100
1592.995	2.675	2675.4	navigation	Trial3	navigation/STIM_007.jpg	100
1598.559	1.492	1492.5	navigation	Trial3	navigation/STIM_007.jpg	99
1603.334	2.656	2655.5	navigation	Trial3	navigation/STIM_007.jpg	99
1608.595	1.368	1368.5	navigation	Trial3	navigation/STIM_007.jpg	99
1613.859	1.529	1528.6	navigation	Trial3	navigation/STIM_007.jpg	100
1618.435	2.807	2806.7	navigation	Trial3	navigation/STIM_007.jpg	100
1623.499	2.654	2653.7	navigation	Trial3	navigation/STIM_008.jpg	100
1629.876	2.484	2484.0	navigation	Trial3	navigation/STIM_008.jpg	99
1634.568	1.383	1383.1	navigation	Trial3	navigation/STIM_008.jpg	99
1638.035	2.986	2986.0	navigation	Trial3	navigation/STIM_008.jpg	99
1644.829	2.557	2557.1	navigation	Trial3	navigation/STIM_008.jpg	100
1650.44	1.272	1272.4	navigation	Trial3	navigation/STIM_008.jpg	99
1655.595	1.294	1293.5	navigation	Trial3	navigation/STIM_009.jpg	99
1659.035	2.821	2821.1	navigation	Trial3	navigation/STIM_009.jpg	100
1664.985	2.076	2075.5	navigation	Trial3	navigation/STIM_009.jpg	100
1670.284	1.494	1493.5	navigation	Trial3	navigation/STIM_009.jpg	100
1674.846	3.075	3075.2	navigation	Trial3	navigation/STIM_009.jpg	99
1681.158	3.021	3021.3	navigation	Trial3	navigation/STIM_009.jpg	99
1688.138	2.761	2761.1	navigation	Trial3	navigation/STIM_010.jpg	100
1694.884	2.488	2487.9	navigation	Trial3	navigation/STIM_010.jpg	100
1699.866	2.468	2468.5	navigation	Trial3	navigation/STIM_010.jpg	100
1705.436	2.95	2949.7	navigation	Trial3	navigation/STIM_010.jpg	100
1712.259	1.588	1587.5	navigation	Trial3	navigation/STIM_010.jpg	100
1717.341	3.011	3010.9	navigation	Trial3	navigation/STIM_010.jpg	99
1723.161	2.976	2976.1	navigation	Trial3	navigation/STIM_011.jpg	100
1729.947	2.427	2426.7	navigation	Trial3	navigation/STIM_011.jpg	99
1734.852	1.562	1561.5	navigation	Trial3	navigation/STIM_011.jpg	99
1739.051	2.534	2533.5	navigation	Trial3	navigation/STIM_011.jpg	99
1745.196	1.443	1442.9	navigation	Trial3	navigation/STIM_011.jpg	99
1749.264	2.641	2640.6	navigation	Trial3	navigation/STIM_011.jpg	100
1753.927	1.037	1037.0	pointing	Trial3	pointing/STIM_000.jpg	100
1758.649	1.213	1212.8	pointing	Trial3	pointing/STIM_000.jpg	99
1762.703	1.048	1048.2	pointing	Trial3	pointing/STIM_000.jpg	100
1766.836	1.127	1127.2	pointing	Trial3	pointing/STIM_000.jpg	100
1771.436	0.999	999.1	pointing	Trial3	pointing/STIM_000.jpg	99
1775.512	1.302	1302.1	pointing	Trial3	pointing/STIM_000.jpg	100
1778.944	1.258	1257.6	pointing	Trial3	pointing/STIM_001.jpg	99
1783.318	0.928	927.6	pointing	Trial3	pointing/STIM_001.jpg	100
1787.947	1.124	1124.5	pointing	Trial3	pointing/STIM_001.jpg	100
1791.382	0.805	805.3	pointing	Trial3	pointing/STIM_001.jpg	99
1795.716	0.718	717.8	pointing	Trial3	pointing/STIM_001.jpg	100
1799.141	0.903	903.3	pointing	Trial3	pointing/STIM_001.jpg	99
1803.821	1.292	1292.1	pointing	Trial3	pointing/STIM_002.jpg	99
1809.051	0.93	930.3	pointing	Trial3	pointing/STIM_002.jpg	99
1813.427	0.751	751.0	pointing	Trial3	pointing/STIM_002.jpg	99
1817.167	1.084	1083.9	pointing	Trial3	pointing/STIM_002.jpg	100
1821.722	1.269	1269.1	pointing	Trial3	pointing/STIM_002.jpg	99
1825.684	1.01	1009.6	pointing	Trial3	pointing/STIM_002.jpg	99
1830.547	1.072	1072.3	pointing	Trial3	pointing/STIM_003.jpg	99
1833.939	0.965	965.2	pointing	Trial3	pointing/STIM_003.jpg	100
1838.426	0.997	996.8	pointing	Trial3	pointing/STIM_003.jpg	100
1841.548	1.094	1093.6	pointing	Trial3	pointing/STIM_003.jpg	100
1844.821	0.865	864.8	pointing	Trial3	pointing/STIM_003.jpg	100
1848.567	1.314	1313.7	pointing	Trial3	pointing/STIM_003.jpg	100
1852.609	0.991	990.9	pointing	Trial3	pointing/STIM_004.jpg	99
1857.028	1.039	1038.6	pointing	Trial3	pointing/STIM_004.jpg	100
1860.576	1.151	1150.9	pointing	Trial3	pointing/STIM_004.jpg	100
1865.053	1.192	1192.3	pointing	Trial3	pointing/STIM_004.jpg	99
1869.748	1.247	1246.6	pointing	Trial3	pointing/STIM_004.jpg	100
1874.974	1.321	1320.6	pointing	Trial3	pointing/STIM_004.jpg	100
1880.089	0.82	820.4	pointing	Trial3	pointing/STIM_005.jpg	99
1883.142	1.272	1272.2	pointing	Trial3	pointing/STIM_005.jpg	99
1887.337	0.848	847.7	pointing	Trial3	pointing/STIM_005.jpg	99
1891.602	1.291	1291.4	pointing	Trial3	pointing/STIM_005.jpg	99
1896.029	1.163	1163.3	pointing	Trial3	pointing/STIM_005.jpg	99
1900.526	0.979	978.9	pointing	Trial3	pointing/STIM_005.jpg	100
1905.298	0.91	910.2	pointing	Trial3	pointing/STIM_006.jpg	100
1909.66	0.829	828.8	pointing	Trial3	pointing/STIM_006.jpg	99
1913.392	1.24	1239.6	pointing	Trial3	pointing/STIM_006.jpg	100
1918.503	1.114	1113.8	pointing	Trial3	pointing/STIM_006.jpg	100
1923.172	1.222	1221.5	pointing	Trial3	pointing/STIM_006.jpg	99
1926.736	0.823	823.2	pointing	Trial3	pointing/STIM_006.jpg	99
1930.186	1.314	1313.6	pointing	Trial3	pointing/STIM_007.jpg	99
1933.52	1.312	1312.2	pointing	Trial3	pointing/STIM_007.jpg	100
1936.977	1.066	1066.2	pointing	Trial3	pointing/STIM_007.jpg	99
1940.082	1.098	1097.9	pointing	Trial3	pointing/STIM_007.jpg	99
1944.651	1.121	1120.7	pointing	Trial3	pointing/STIM_007.jpg	99
1947.87	0.834	834.5	pointing	Trial3	pointing/STIM_007.jpg	99
1952.622	1.236	1235.6	pointing	Trial3	pointing/STIM_008.jpg	99
1957.058	1.037	1036.7	pointing	Trial3	pointing/STIM_008.jpg	99
1961.193	1.328	1328.3	pointing	Trial3	pointing/STIM_008.jpg	99
1964.886	0.83	829.6	pointing	Trial3	pointing/STIM_008.jpg	99
1968.51	1.287	1286.6	pointing	Trial3	pointing/STIM_008.jpg	100
1972.844	0.854	853.6	pointing	Trial3	pointing/STIM_008.jpg	100
1976.543	1.138	1138.3	pointing	Trial3	pointing/STIM_009.jpg	100
1981.32	1.128	1127.5	pointing	Trial3	pointing/STIM_009.jpg	99
1985.091	0.728	728.2	pointing	Trial3	pointing/STIM_009.jpg	100
1988.28	1.335	1334.7	pointing	Trial3	pointing/STIM_009.jpg	100
1992.337	0.838	837.8	pointing	Trial3	pointing/STIM_009.jpg	100
1996.054	1.219	1218.6	pointing	Trial3	pointing/STIM_009.jpg	99
2001.033	0.854	854.3	pointing	Trial3	pointing/STIM_010.jpg	99
2004.298	1.187	1186.9	pointing	Trial3	pointing/STIM_010.jpg	100
2008.696	1.235	1235.4	pointing	Trial3	pointing/STIM_010.jpg	99
2011.933	1.266	1266.1	pointing	Trial3	pointing/STIM_010.jpg	100
2015.242	1.273	1272.6	pointing	Trial3	pointing/STIM_010.jpg	99
2019.418	0.852	852.3	pointing	Trial3	pointing/STIM_010.jpg	100
2022.779	0.931	931.1	pointing	Trial3	pointing/STIM_011.jpg	100
2027.145	1.186	1185.7	pointing	Trial3	pointing/STIM_011.jpg	100
2030.572	0.799	799.4	pointing	Trial3	pointing/STIM_011.jpg	99
2035.353	1.036	1035.6	pointing	Trial3	pointing/STIM_011.jpg	100
2038.671	1.215	1215.1	pointing	Trial3	pointing/STIM_011.jpg	100
2042.9	1.066	1066.3	pointing	Trial3	pointing/STIM_011.jpg	100
