onset	duration	response_time_ms	trial_type	learning_stage	stimulus	response_port
0.0	5.183	5183.2	navigation	Trial1	navigation/STIM_000.jpg	99
7.207	3.722	3722.1	navigation	Trial1	navigation/STIM_000.jpg	99
13.437	3.398	3398.3	navigation	Trial1	navigation/STIM_000.jpg	100
18.874	2.14	2139.8	navigation	Trial1	navigation/STIM_000.jpg	100
24.2	2.092	2092.5	navigation	Trial1	navigation/STIM_000.jpg	99
29.513	2.795	2795.0	navigation	Trial1	navigation/STIM_000.jpg	100
35.47	2.332	2331.8	navigation	Trial1	navigation/STIM_001.jpg	99
41.212	2.429	2428.7	navigation	Trial1	navigation/STIM_001.jpg	100
46.241	2.692	2692.5	navigation	Trial1	navigation/STIM_001.jpg	99
52.206	4.784	4783.9	navigation	Trial1	navigation/STIM_001.jpg	100
60.186	3.661	3660.9	navigation	Trial1	navigation/STIM_001.jpg	99
65.836	4.054	4054.4	navigation	Trial1	navigation/STIM_001.jpg	99
72.698	2.833	2833.3	navigation	Trial1	navigation/STIM_002.jpg	99
77.172	4.14	4140.2	navigation	Trial1	navigation/STIM_002.jpg	99
84.155	3.482	3481.6	navigation	Trial1	navigation/STIM_002.jpg	99
90.185	2.589	2588.7	navigation	Trial1	navigation/STIM_002.jpg	99
94.922	3.685	3685.2	navigation	Trial1	navigation/STIM_002.jpg	100
102.116	2.286	2286.0	navigation	Trial1	navigation/STIM_002.jpg	99
106.957	2.735	2734.7	navigation	Trial1	navigation/STIM_003.jpg	100
111.473	4.61	4610.5	navigation	Trial1	navigation/STIM_003.jpg	100
118.496	2.187	2186.7	navigation	Trial1	navigation/STIM_003.jpg	100
123.855	2.281	2281.4	navigation	Trial1	navigation/STIM_003.jpg	99
128.428	3.99	3990.5	navigation	Trial1	navigation/STIM_003.jpg	99
135.49	3.675	3674.7	navigation	Trial1	navigation/STIM_003.jpg	100
141.811	3.338	3338.4	navigation	Trial1	navigation/STIM_004.jpg	100
146.763	4.265	4264.6	navigation	Trial1	navigation/STIM_004.jpg	99
153.235	4.037	4037.0	navigation	Trial1	navigation/STIM_004.jpg	99
158.834	2.494	2493.7	navigation	Trial1	navigation/STIM_004.jpg	99
164.633	1.931	1931.1	navigation	Trial1	navigation/STIM_004.jpg	100
170.228	4.139	4139.1	navigation	Trial1	navigation/STIM_004.jpg	99
177.657	2.76	2760.0	navigation	Trial1	navigation/STIM_005.jpg	100
183.457	2.627	2626.8	navigation	Trial1	navigation/STIM_005.jpg	99
189.655	2.214	2214.3	navigation	Trial1	navigation/STIM_005.jpg	99
194.901	2.917	2917.2	navigation	Trial1	navigation/STIM_005.jpg	100
200.029	2.736	2736.3	navigation	Trial1	navigation/STIM_005.jpg	100
205.3	2.046	2046.5	navigation	Trial1	navigation/STIM_005.jpg	100
209.887	4.825	4824.9	navigation	Trial1	navigation/STIM_006.jpg	100
217.653	4.258	4257.5	navigation	Trial1	navigation/STIM_006.jpg	100
224.712	2.57	2569.8	navigation	Trial1	navigation/STIM_006.jpg	100
229.488	3.853	3853.2	navigation	Trial1	navigation/STIM_006.jpg	99
236.766	3.816	3816.0	navigation	Trial1	navigation/STIM_006.jpg	99
242.705	3.231	3230.6	navigation	Trial1	navigation/STIM_006.jpg	100
248.651	3.886	3885.6	navigation	Trial1	navigation/STIM_007.jpg	100
255.849	5.362	5362.2	navigation	Trial1	navigation/STIM_007.jpg	99
264.209	4.73	4730.4	navigation	Trial1	navigation/STIM_007.jpg	100
271.287	2.157	2157.2	navigation	Trial1	navigation/STIM_007.jpg	100
275.237	3.098	3098.0	navigation	Trial1	navigation/STIM_007.jpg	99
280.197	1.826	1825.5	navigation	Trial1	navigation/STIM_007.jpg	99
284.333	3.762	3762.1	navigation	Trial1	navigation/STIM_008.jpg	100
289.794	3.367	3366.8	navigation	Trial1	navigation/STIM_008.jpg	100
296.469	3.667	3666.8	navigation	Trial1	navigation/STIM_008.jpg	100
303.02	2.756	2755.5	navigation	Trial1	navigation/STIM_008.jpg	99
309.218	2.099	2098.9	navigation	Trial1	navigation/STIM_008.jpg	99
314.752	4.009	4009.0	navigation	Trial1	navigation/STIM_008.jpg	99
321.56	3.444	3444.2	navigation	Trial1	navigation/STIM_009.jpg	99
327.339	5.101	5101.2	navigation	Trial1	navigation/STIM_009.jpg	100
334.851	4.262	4262.3	navigation	Trial1	navigation/STIM_009.jpg	99
342.048	4.156	4155.7	navigation	Trial1	navigation/STIM_009.jpg	100
348.525	4.108	4108.0	navigation	Trial1	navigation/STIM_009.jpg	99
356.044	2.061	2060.8	navigation	Trial1	navigation/STIM_009.jpg	99
361.533	4.596	4595.8	navigation	Trial1	navigation/STIM_010.jpg	100
368.779	4.362	4361.8	navigation	Trial1	navigation/STIM_010.jpg	99
374.812	4.008	4007.5	navigation	Trial1	navigation/STIM_010.jpg	100
382.253	2.26	2259.5	navigation	Trial1	navigation/STIM_010.jpg	100
387.429	2.358	2358.5	navigation	Trial1	navigation/STIM_010.jpg	99
391.533	3.939	3939.0	navigation	Trial1	navigation/STIM_010.jpg	99
398.186	2.701	2701.0	navigation	Trial1	navigation/STIM_011.jpg	99
404.168	3.737	3737.3	navigation	Trial1	navigation/STIM_011.jpg	99
410.841	3.059	3059.2	navigation	Trial1	navigation/STIM_011.jpg	99
415.805	3.761	3761.1	navigation	Trial1	navigation/STIM_011.jpg	99
422.291	2.902	2902.5	navigation	Trial1	navigation/STIM_011.jpg	99
428.385	1.888	1887.6	navigation	Trial1	navigation/STIM_011.jpg	100
432.542	1.722	1721.6	pointing	Trial1	pointing/STIM_000.jpg	100
437.855	1.347	1346.8	pointing	Trial1	pointing/STIM_000.jpg	100
441.979	1.285	1284.7	pointing	Trial1	pointing/STIM_000.jpg	100
445.306	1.112	1111.7	pointing	Trial1	pointing/STIM_000.jpg	99
449.902	1.451	1450.7	pointing	Trial1	pointing/STIM_000.jpg	100
454.65	1.393	1393.4	pointing	Trial1	pointing/STIM_000.jpg	99
458.752	1.118	1117.7	pointing	Trial1	pointing/STIM_001.jpg	100
463.388	1.024	1023.9	pointing	Trial1	pointing/STIM_001.jpg	99
467.409	1.702	1702.2	pointing	Trial1	pointing/STIM_001.jpg	99
472.047	1.096	1096.5	pointing	Trial1	pointing/STIM_001.jpg	99
476.687	1.276	1275.6	pointing	Trial1	pointing/STIM_001.jpg	99
480.207	1.252	1252.3	pointing	Trial1	pointing/STIM_001.jpg	100
484.62	1.337	1336.9	pointing	Trial1	pointing/STIM_002.jpg	100
489.26	1.447	1446.6	pointing	Trial1	pointing/STIM_002.jpg	100
493.537	1.461	1460.6	pointing	Trial1	pointing/STIM_002.jpg	100
498.66	1.003	1003.1	pointing	Trial1	pointing/STIM_002.jpg	100
502.058	1.609	1608.8	pointing	Trial1	pointing/STIM_002.jpg	100
505.971	1.239	1238.6	pointing	Trial1	pointing/STIM_002.jpg	100
510.53	1.039	1039.4	pointing	Trial1	pointing/STIM_003.jpg	99
514.799	1.641	1640.7	pointing	Trial1	pointing/STIM_003.jpg	99
518.445	1.551	1550.6	pointing	Trial1	pointing/STIM_003.jpg	100
523.33	1.324	1323.8	pointing	Trial1	pointing/STIM_003.jpg	100
527.084	0.971	971.2	pointing	Trial1	pointing/STIM_003.jpg	100
529.977	1.614	1613.5	pointing	Trial1	pointing/STIM_003.jpg	99
534.886	1.117	1117.3	pointing	Trial1	pointing/STIM_004.jpg	100
539.384	1.379	1378.9	pointing	Trial1	pointing/STIM_004.jpg	100
542.881	1.591	1590.9	pointing	Trial1	pointing/STIM_004.jpg	100
547.082	0.934	933.5	pointing	Trial1	pointing/STIM_004.jpg	100
550.49	1.509	1508.8	pointing	Trial1	pointing/STIM_004.jpg	99
555.447	1.703	1703.1	pointing	Trial1	pointing/STIM_004.jpg	100
559.708	1.28	1280.4	pointing	Trial1	pointing/STIM_005.jpg	99
563.138	1.342	1342.1	pointing	Trial1	pointing/STIM_005.jpg	99
566.779	1.344	1343.5	pointing	Trial1	pointing/STIM_005.jpg	100
571.9	1.025	1025.4	pointing	Trial1	pointing/STIM_005.jpg	100
576.097	1.024	1023.5	pointing	Trial1	pointing/STIM_005.jpg	99
579.846	1.035	1034.7	pointing	Trial1	pointing/STIM_005.jpg	100
584.412	1.274	1274.0	pointing	Trial1	pointing/STIM_006.jpg	99
588.118	1.418	1418.5	pointing	Trial1	pointing/STIM_006.jpg	99
593.326	1.313	1313.2	pointing	Trial1	pointing/STIM_006.jpg	99
598.162	1.224	1223.6	pointing	Trial1	pointing/STIM_006.jpg	99
601.655	1.072	1072.2	pointing	Trial1	pointing/STIM_006.jpg	100
605.314	1.455	1455.0	pointing	Trial1	pointing/STIM_006.jpg	100
608.671	1.562	1561.9	pointing	Trial1	pointing/STIM_007.jpg	100
612.661	1.295	1295.4	pointing	Trial1	pointing/STIM_007.jpg	99
616.192	1.172	1172.1	pointing	Trial1	pointing/STIM_007.jpg	100
620.122	1.484	1483.9	pointing	Trial1	pointing/STIM_007.jpg	100
623.926	1.142	1142.4	pointing	Trial1	pointing/STIM_007.jpg	99
627.945	1.06	1059.6	pointing	Trial1	pointing/STIM_007.jpg	99
631.689	0.98	979.6	pointing	Trial1	pointing/STIM_008.jpg	100
636.225	1.493	1492.6	pointing	Trial1	pointing/STIM_008.jpg	100
641.27	1.134	1133.9	pointing	Trial1	pointing/STIM_008.jpg	99
645.467	1.171	1170.9	pointing	Trial1	pointing/STIM_008.jpg	100
649.089	1.707	1707.3	pointing	Trial1	pointing/STIM_008.jpg	99
652.875	1.296	1296.2	pointing	Trial1	pointing/STIM_008.jpg	100
657.181	0.943	942.7	pointing	Trial1	pointing/STIM_009.jpg	99
660.709	1.494	1494.4	pointing	Trial1	pointing/STIM_009.jpg	99
665.874	1.386	1385.5	pointing	Trial1	pointing/STIM_009.jpg	100
669.424	1.163	1163.1	pointing	Trial1	pointing/STIM_009.jpg	100
674.409	0.98	980.1	pointing	Trial1	pointing/STIM_009.jpg	99
677.893	1.515	1514.8	pointing	Trial1	pointing/STIM_009.jpg	100
682.041	1.408	1408.2	pointing	Trial1	pointing/STIM_010.jpg	100
686.594	1.307	1307.3	pointing	Trial1	pointing/STIM_010.jpg	99
691.228	1.441	1441.4	pointing	Trial1	pointing/STIM_010.jpg	100
695.329	1.537	1537.4	pointing	Trial1	pointing/STIM_010.jpg	100
699.386	1.08	1080.0	pointing	Trial1	pointing/STIM_010.jpg	100
703.518	1.5	1500.1	pointing	Trial1	pointing/STIM_010.jpg	99
707.129	1.65	1650.3	pointing	Trial1	pointing/STIM_011.jpg	100
711.275	1.076	1076.3	pointing	Trial1	pointing/STIM_011.jpg	99
716.17	1.231	1231.0	pointing	Trial1	pointing/STIM_011.jpg	99
720.702	1.482	1482.1	pointing	Trial1	pointing/STIM_011.jpg	99
725.273	1.125	1124.8	pointing	Trial1	pointing/STIM_011.jpg	99
729.436	1.499	1499.0	pointing	Trial1	pointing/STIM_011.jpg	99
733.603	4.158	4158.1	navigation	Trial2	navigation/STIM_000.jpg	99
740.323	3.926	3926.0	navigation	Trial2	navigation/STIM_000.jpg	99
746.1	2.269	2268.7	navigation	Trial2	navigation/STIM_000.jpg	100
751.47	2.969	2969.4	navigation	Trial2	navigation/STIM_000.jpg	100
756.996	2.416	2416.2	navigation	Trial2	navigation/STIM_000.jpg	99
762.271	1.828	1828.0	navigation	Trial2	navigation/STIM_000.jpg	100
767.164	3.598	3597.8	navigation	Trial2	navigation/STIM_001.jpg	100
772.737	3.064	3064.1	navigation	Trial2	navigation/STIM_001.jpg	100
779.34	2.741	2741.1	navigation	Trial2	navigation/STIM_001.jpg	100
784.742	1.825	1824.8	navigation	Trial2	navigation/STIM_001.jpg	99
788.678	3.189	3188.9	navigation	Trial2	navigation/STIM_001.jpg	99
794.727	1.625	1624.9	navigation	Trial2	navigation/STIM_001.jpg	100
798.278	3.143	3142.8	navigation	Trial2	navigation/STIM_002.jpg	100
803.535	4.191	4191.1	navigation	Trial2	navigation/STIM_002.jpg	99
810.586	2.483	2483.2	navigation	Trial2	navigation/STIM_002.jpg	100
816.577	2.434	2434.3	navigation	Trial2	navigation/STIM_002.jpg	100
822.125	2.588	2587.5	navigation	Trial2	navigation/STIM_002.jpg	100
826.808	1.913	1913.1	navigation	Trial2	navigation/STIM_002.jpg	100
831.548	3.909	3908.9	navigation	Trial2	navigation/STIM_003.jpg	100
837.057	2.468	2468.4	navigation	Trial2	navigation/STIM_003.jpg	100
843.02	3.926	3926.4	navigation	Trial2	navigation/STIM_003.jpg	99
849.007	3.615	3614.8	navigation	Trial2	navigation/STIM_003.jpg	99
854.228	3.536	3535.5	navigation	Trial2	navigation/STIM_003.jpg	100
860.507	2.778	2777.5	navigation	Trial2	navigation/STIM_003.jpg	99
865.435	2.506	2506.4	navigation	Trial2	navigation/STIM_004.jpg	99
870.886	2.263	2262.9	navigation	Trial2	navigation/STIM_004.jpg	99
875.924	3.4	3400.5	navigation	Trial2	navigation/STIM_004.jpg	100
880.924	2.358	2358.4	navigation	Trial2	navigation/STIM_004.jpg	100
885.068	1.653	1652.7	navigation	Trial2	navigation/STIM_004.jpg	99
889.511	3.115	3114.9	navigation	Trial2	navigation/STIM_004.jpg	99
894.643	4.746	4746.3	navigation	Trial2	navigation/STIM_005.jpg	100
901.917	2.213	2212.9	navigation	Trial2	navigation/STIM_005.jpg	100
906.795	3.794	3793.7	navigation	Trial2	navigation/STIM_005.jpg	100
913.239	2.282	2282.0	navigation	Trial2	navigation/STIM_005.jpg	99
917.814	3.07	3069.5	navigation	Trial2	navigation/STIM_005.jpg	99
923.057	2.548	2547.6	navigation	Trial2	navigation/STIM_005.jpg	100
928.417	3.865	3865.4	navigation	Trial2	navigation/STIM_006.jpg	100
934.752	4.223	4223.4	navigation	Trial2	navigation/STIM_006.jpg	100
941.568	2.515	2514.7	navigation	Trial2	navigation/STIM_006.jpg	100
946.833	3.987	3987.3	navigation	Trial2	navigation/STIM_006.jpg	99
953.373	2.978	2978.3	navigation	Trial2	navigation/STIM_006.jpg	99
958.312	3.392	3392.4	navigation	Trial2	navigation/STIM_006.jpg	99
964.0	3.98	3979.9	navigation	Trial2	navigation/STIM_007.jpg	100
970.947	4.264	4264.1	navigation	Trial2	navigation/STIM_007.jpg	99
977.618	1.73	1729.8	navigation	Trial2	navigation/STIM_007.jpg	100
981.935	1.753	1752.6	navigation	Trial2	navigation/STIM_007.jpg	99
986.426	2.904	2904.2	navigation	Trial2	navigation/STIM_007.jpg	100
992.208	3.89	3889.9	navigation	Trial2	navigation/STIM_007.jpg	99
999.204	2.78	2780.3	navigation	Trial2	navigation/STIM_008.jpg	100
1003.795	2.852	2851.8	navigation	Trial2	navigation/STIM_008.jpg	99
1010.085	2.913	2913.1	navigation	Trial2	navigation/STIM_008.jpg	100
1015.347	3.101	3100.9	navigation	Trial2	navigation/STIM_008.jpg	100
1020.833	3.032	3031.5	navigation	Trial2	navigation/STIM_008.jpg	100
1027.452	3.199	3199.4	navigation	Trial2	navigation/STIM_008.jpg	100
1034.059	3.279	3279.0	navigation	Trial2	navigation/STIM_009.jpg	100
1039.691	3.08	3080.1	navigation	Trial2	navigation/STIM_009.jpg	99
1045.562	2.121	2121.2	navigation	Trial2	navigation/STIM_009.jpg	99
1049.938	2.288	2288.2	navigation	Trial2	navigation/STIM_009.jpg	99
1054.855	2.765	2764.6	navigation	Trial2	navigation/STIM_009.jpg	100
1060.08	3.392	3392.3	navigation	Trial2	navigation/STIM_009.jpg	100
1065.627	3.688	3688.0	navigation	Trial2	navigation/STIM_010.jpg	99
1072.541	3.967	3967.1	navigation	Trial2	navigation/STIM_010.jpg	100
1079.729	3.795	3794.7	navigation	Trial2	navigation/STIM_010.jpg	99
1085.458	1.85	1850.4	navigation	Trial2	navigation/STIM_010.jpg	99
1089.417	3.156	3156.2	navigation	Trial2	navigation/STIM_010.jpg	99
1096.067	3.28	3280.2	navigation	Trial2	navigation/STIM_010.jpg	99
1102.675	2.963	2963.2	navigation	Trial2	navigation/STIM_011.jpg	100
1107.489	3.91	3910.0	navigation	Trial2	navigation/STIM_011.jpg	99
1112.896	4.282	4281.7	navigation	Trial2	navigation/STIM_011.jpg	100
1119.025	2.018	2017.8	navigation	Trial2	navigation/STIM_011.jpg	99
1124.139	3.467	3467.2	navigation	Trial2	navigation/STIM_011.jpg	100
1129.165	2.806	2806.2	navigation	Trial2	navigation/STIM_011.jpg	99
1135.587	1.003	1002.6	pointing	Trial2	pointing/STIM_000.jpg	100
1139.413	1.208	1208.0	pointing	Trial2	pointing/STIM_000.jpg	99
1142.733	1.373	1372.7	pointing	Trial2	pointing/STIM_000.jpg	99
1146.283	1.467	1466.7	pointing	Trial2	pointing/STIM_000.jpg	100
1151.079	1.524	1524.3	pointing	Trial2	pointing/STIM_000.jpg	100
1155.442	1.206	1205.7	pointing	Trial2	pointing/STIM_000.jpg	99
1158.73	1.638	1638.2	pointing	Trial2	pointing/STIM_001.jpg	100
1162.372	1.398	1397.5	pointing	Trial2	pointing/STIM_001.jpg	100
1166.317	1.136	1135.7	pointing	Trial2	pointing/STIM_001.jpg	100
1169.71	1.513	1513.2	pointing	Trial2	pointing/STIM_001.jpg	100
1174.8	1.231	1231.1	pointing	Trial2	pointing/STIM_001.jpg	99
1178.723	1.097	1096.6	pointing	Trial2	pointing/STIM_001.jpg	100
1182.104	1.077	1076.6	pointing	Trial2	pointing/STIM_002.jpg	99
1185.208	1.414	1413.6	pointing	Trial2	pointing/STIM_002.jpg	99
1189.128	1.275	1274.6	pointing	Trial2	pointing/STIM_002.jpg	99
1192.691	1.054	1054.5	pointing	Trial2	pointing/STIM_002.jpg	100
1197.095	0.951	951.0	pointing	Trial2	pointing/STIM_002.jpg	100
1200.691	1.389	1389.1	pointing	Trial2	pointing/STIM_002.jpg	99
1204.319	1.093	1093.0	pointing	Trial2	pointing/STIM_003.jpg	100
1208.513	1.637	1636.8	pointing	Trial2	pointing/STIM_003.jpg	100
1213.938	1.27	1270.2	pointing	Trial2	pointing/STIM_003.jpg	99
1217.162	1.504	1504.4	pointing	Trial2	pointing/STIM_003.jpg	100
1220.761	1.625	1625.0	pointing	Trial2	pointing/STIM_003.jpg	100
1225.27	1.011	1010.8	pointing	Trial2	pointing/STIM_003.jpg	100
1229.613	1.486	1485.9	pointing	Trial2	pointing/STIM_004.jpg	100
1234.275	1.23	1230.5	pointing	Trial2	pointing/STIM_004.jpg	99
1237.438	1.72	1720.0	pointing	Trial2	pointing/STIM_004.jpg	99
1242.357	1.672	1672.4	pointing	Trial2	pointing/STIM_004.jpg	100
1246.328	1.319	1319.2	pointing	Trial2	pointing/STIM_004.jpg	100
1250.228	1.258	1258.4	pointing	Trial2	pointing/STIM_004.jpg	100
1254.035	1.697	1697.2	pointing	Trial2	pointing/STIM_005.jpg	99
1259.093	1.196	1196.5	pointing	Trial2	pointing/STIM_005.jpg	100
1263.555	1.195	1195.3	pointing	Trial2	pointing/STIM_005.jpg	99
1268.367	1.504	1504.1	pointing	Trial2	pointing/STIM_005.jpg	99
1272.623	1.482	1481.5	pointing	Trial2	pointing/STIM_005.jpg	100
1276.437	1.33	1329.7	pointing	Trial2	pointing/STIM_005.jpg	99
1280.082	1.51	1510.0	pointing	Trial2	pointing/STIM_006.jpg	99
1285.127	1.441	1440.7	pointing	Trial2	pointing/STIM_006.jpg	99
1290.196	1.547	1547.4	pointing	Trial2	pointing/STIM_006.jpg	99
1295.348	1.004	1004.1	pointing	Trial2	pointing/STIM_006.jpg	99
1300.171	1.195	1195.4	pointing	Trial2	pointing/STIM_006.jpg	99
1304.547	1.64	1640.4	pointing	Trial2	pointing/STIM_006.jpg	100
1308.357	1.22	1219.7	pointing	Trial2	pointing/STIM_007.jpg	99
1312.23	0.97	969.6	pointing	Trial2	pointing/STIM_007.jpg	100
1316.782	1.422	1422.1	pointing	Trial2	pointing/STIM_007.jpg	100
1320.337	1.078	1077.6	pointing	Trial2	pointing/STIM_007.jpg	100
1323.789	1.615	1614.8	pointing	Trial2	pointing/STIM_007.jpg	100
1327.343	1.214	1213.6	pointing	Trial2	pointing/STIM_007.jpg	99
1330.587	1.537	1537.4	pointing	Trial2	pointing/STIM_008.jpg	100
1334.18	1.6	1600.3	pointing	Trial2	pointing/STIM_008.jpg	99
1337.602	1.062	1061.8	pointing	Trial2	pointing/STIM_008.jpg	100
1341.084	1.478	1478.1	pointing	Trial2	pointing/STIM_008.jpg	99
1345.882	1.714	1713.6	pointing	Trial2	pointing/STIM_008.jpg	100
1350.469	1.519	1518.9	pointing	Trial2	pointing/STIM_008.jpg	100
1353.966	1.612	1611.8	pointing	Trial2	pointing/STIM_009.jpg	99
1359.233	1.167	1166.9	pointing	Trial2	pointing/STIM_009.jpg	99
1363.284	0.962	962.2	pointing	Trial2	pointing/STIM_009.jpg	100
1366.611	1.516	1516.2	pointing	Trial2	pointing/STIM_009.jpg	100
1370.959	1.009	1009.2	pointing	Trial2	pointing/STIM_009.jpg	100
1375.561	0.997	997.1	pointing	Trial2	pointing/STIM_009.jpg	100
1379.882	1.499	1499.3	pointing	Trial2	pointing/STIM_010.jpg	99
1383.628	1.628	1628.0	pointing	Trial2	pointing/STIM_010.jpg	99
1387.699	0.991	991.2	pointing	Trial2	pointing/STIM_010.jpg	99
1391.895	1.0	999.7	pointing	Trial2	pointing/STIM_010.jpg	99
1395.558	1.652	1651.7	pointing	Trial2	pointing/STIM_010.jpg	100
1399.004	1.537	1537.2	pointing	Trial2	pointing/STIM_010.jpg	99
1403.027	1.274	1273.7	pointing	Trial2	pointing/STIM_011.jpg	100
1407.092	1.372	1371.7	pointing	Trial2	pointing/STIM_011.jpg	99
1410.321	1.418	1418.4	pointing	Trial2	pointing/STIM_011.jpg	99
1415.45	1.607	1607.0	pointing	Trial2	pointing/STIM_011.jpg	99
1419.691	1.652	1652.0	pointing	Trial2	pointing/STIM_011.jpg	100
1424.908	1.293	1292.6	pointing	Trial2	pointing/STIM_011.jpg	100
1429.907	2.991	2991.0	navigation	Trial3	navigation/STIM_000.jpg	100
1435.192	3.862	3861.5	navigation	Trial3	navigation/STIM_000.jpg	99
1441.637	3.28	3279.5	navigation	Trial3	navigation/STIM_000.jpg	100
1446.644	1.8	1799.9	navigation	Trial3	navigation/STIM_000.jpg	99
1451.09	2.477	2476.6	navigation	Trial3	navigation/STIM_000.jpg	100
1457.162	2.618	2617.6	navigation	Trial3	navigation/STIM_000.jpg	100
1462.453	2.009	2008.8	navigation	Trial3	navigation/STIM_001.jpg	99
1467.063	3.189	3188.9	navigation	Trial3	navigation/STIM_001.jpg	99
1472.483	2.452	2451.9	navigation	Trial3	navigation/STIM_001.jpg	100
1478.571	2.134	2134.3	navigation	Trial3	navigation/STIM_001.jpg	99
1484.111	2.918	2917.7	navigation	Trial3	navigation/STIM_001.jpg	100
1489.209	2.966	2966.5	navigation	Trial3	navigation/STIM_001.jpg	99
1494.951	3.045	3044.7	navigation	Trial3	navigation/STIM_002.jpg	99
1500.826	2.472	2472.5	navigation	Trial3	navigation/STIM_002.jpg	99
1505.79	2.082	2081.7	navigation	Trial3	navigation/STIM_002.jpg	99
1510.668	2.244	2243.8	navigation	Trial3	navigation/STIM_002.jpg	100
1516.506	1.8	1799.8	navigation	Trial3	navigation/STIM_002.jpg	100
1521.263	3.416	3415.9	navigation	Trial3	navigation/STIM_002.jpg	99
1526.462	2.389	2388.8	navigation	Trial3	navigation/STIM_003.jpg	100
1532.448	2.471	2471.1	navigation	Trial3	navigation/STIM_003.jpg	99
1537.291	2.82	2820.2	navigation	Trial3	navigation/STIM_003.jpg	100
1542.593	2.608	2608.2	navigation	Trial3	navigation/STIM_003.jpg	99
1547.739	3.856	3856.0	navigation	Trial3	navigation/STIM_003.jpg	100
1553.257	3.919	3919.3	navigation	Trial3	navigation/STIM_003.jpg	100
1558.91	2.634	2633.9	navigation	Trial3	navigation/STIM_004.jpg	99
1564.034	1.74	1740.0	navigation	Trial3	navigation/STIM_004.jpg	99
1569.358	3.248	3248.4	navigation	Trial3	navigation/STIM_004.jpg	99
1574.49	2.147	2147.0	navigation	Trial3	navigation/STIM_004.jpg	100
1580.218	2.659	2658.8	navigation	Trial3	navigation/STIM_004.jpg	99
1585.704	3.496	3496.2	navigation	Trial3	navigation/STIM_004.jpg	99
1592.394	2.393	2393.3	navigation	Trial3	navigation/STIM_005.jpg	100
1597.889	2.511	2510.8	navigation	Trial3	navigation/STIM_005.jpg	99
1602.744	2.119	2119.1	navigation	Trial3	navigation/STIM_005.jpg	100
1607.292	3.689	3688.6	navigation	Trial3	navigation/STIM_005.jpg	100
1614.242	2.199	2199.1	navigation	Trial3	navigation/STIM_005.jpg	99
1619.193	3.526	3525.5	navigation	Trial3	navigation/STIM_005.jpg	100
1626.002	3.732	3732.0	navigation	Trial3	navigation/STIM_006.jpg	99
1631.45	2.776	2776.2	navigation	Trial3	navigation/STIM_006.jpg	99
1636.845	3.482	3481.5	navigation	Trial3	navigation/STIM_006.jpg	99
1642.628	2.502	2501.8	navigation	Trial3	navigation/STIM_006.jpg	99
1647.98	3.677	3677.2	navigation	Trial3	navigation/STIM_006.jpg	100
1653.563	2.017	2017.2	navigation	Trial3	navigation/STIM_006.jpg	100
1657.986	2.12	2119.9	navigation	Trial3	navigation/STIM_007.jpg	100
1662.964	1.931	1930.9	navigation	Trial3	navigation/STIM_007.jpg	99
1666.805	1.623	1622.9	navigation	Trial3	navigation/STIM_007.jpg	99
1670.624	2.347	2346.9	navigation	Trial3	navigation/STIM_007.jpg	99
1675.013	2.722	2721.6	navigation	Trial3	navigation/STIM_007.jpg	100
1681.146	2.255	2254.9	navigation	Trial3	navigation/STIM_007.jpg	100
1686.171	2.236	2235.8	navigation	Trial3	navigation/STIM_008.jpg	100
1691.32	3.971	3971.3	navigation	Trial3	navigation/STIM_008.jpg	99
1698.567	3.417	3416.9	navigation	Trial3	navigation/STIM_008.jpg	99
1704.433	2.3	2300.3	navigation	Trial3	navigation/STIM_008.jpg	99
1710.366	2.332	2331.9	navigation	Trial3	navigation/STIM_008.jpg	100
1714.94	2.434	2434.4	navigation	Trial3	navigation/STIM_008.jpg	99
1719.359	2.528	2528.5	navigation	Trial3	navigation/STIM_009.jpg	99
1724.264	3.117	3117.3	navigation	Trial3	navigation/STIM_009.jpg	100
1729.111	2.926	2926.1	navigation	Trial3	navigation/STIM_009.jpg	100
1733.783	3.271	3271.4	navigation	Trial3	navigation/STIM_009.jpg	100
1740.579	3.395	3394.9	navigation	Trial3	navigation/STIM_009.jpg	99
1746.559	3.446	3446.0	navigation	Trial3	navigation/STIM_009.jpg	99
1751.649	2.533	2532.7	navigation	Trial3	navigation/STIM_010.jpg	100
1756.128	3.025	3024.6	navigation	Trial3	navigation/STIM_010.jpg	100
1761.177	2.03	2030.3	navigation	Trial3	navigation/STIM_010.jpg	100
1765.664	2.043	2043.5	navigation	Trial3	navigation/STIM_010.jpg	100
1770.786	3.589	3589.3	navigation	Trial3	navigation/STIM_010.jpg	100
1776.884	1.933	1933.2	navigation	Trial3	navigation/STIM_010.jpg	99
1781.892	3.118	3118.1	navigation	Trial3	navigation/STIM_011.jpg	100
1787.787	1.74	1739.5	navigation	Trial3	navigation/STIM_011.jpg	99
1792.815	3.328	3327.8	navigation	Trial3	navigation/STIM_011.jpg	99
1799.172	3.046	3045.6	navigation	Trial3	navigation/STIM_011.jpg	99
1804.32	2.069	2068.7	navigation	Trial3	navigation/STIM_011.jpg	99
1809.578	1.764	1764.1	navigation	Trial3	navigation/STIM_011.jpg	100
1814.724	0.927	926.8	pointing	Trial3	pointing/STIM_000.jpg	100
1818.443	1.331	1331.3	pointing	Trial3	pointing/STIM_000.jpg	99
1823.531	1.697	1697.0	pointing	Trial3	pointing/STIM_000.jpg	100
1828.506	1.137	1137.1	pointing	Trial3	pointing/STIM_000.jpg	100
1833.277	1.672	1671.8	pointing	Trial3	pointing/STIM_000.jpg	99
1837.763	1.26	1260.5	pointing	Trial3	pointing/STIM_000.jpg	100
1841.19	1.052	1052.5	pointing	Trial3	pointing/STIM_001.jpg	99
1845.379	1.402	1402.0	pointing	Trial3	pointing/STIM_001.jpg	100
1850.024	1.528	1527.7	pointing	Trial3	pointing/STIM_001.jpg	100
1855.305	1.708	1707.6	pointing	Trial3	pointing/STIM_001.jpg	99
1860.528	1.046	1045.5	pointing	Trial3	pointing/STIM_001.jpg	100
1864.441	1.327	1326.8	pointing	Trial3	pointing/STIM_001.jpg	99
1868.714	1.65	1650.5	pointing	Trial3	pointing/STIM_002.jpg	99
1874.093	0.928	927.9	pointing	Trial3	pointing/STIM_002.jpg	99
1878.497	1.053	1052.7	pointing	Trial3	pointing/STIM_002.jpg	99
1881.748	1.336	1335.8	pointing	Trial3	pointing/STIM_002.jpg	100
1885.259	1.108	1107.7	pointing	Trial3	pointing/STIM_002.jpg	99
1890.13	1.0	999.6	pointing	Trial3	pointing/STIM_002.jpg	99
1894.375	1.277	1276.8	pointing	Trial3	pointing/STIM_003.jpg	99
1899.061	1.135	1135.0	pointing	Trial3	pointing/STIM_003.jpg	100
1902.167	1.638	1637.9	pointing	Trial3	pointing/STIM_003.jpg	100
1905.787	1.646	1645.8	pointing	Trial3	pointing/STIM_003.jpg	100
1910.57	1.047	1047.3	pointing	Trial3	pointing/STIM_003.jpg	100
1915.055	1.49	1489.8	pointing	Trial3	pointing/STIM_003.jpg	100
1919.05	1.214	1213.8	pointing	Trial3	pointing/STIM_004.jpg	99
1923.139	1.185	1184.6	pointing	Trial3	pointing/STIM_004.jpg	100
1928.145	1.555	1555.1	pointing	Trial3	pointing/STIM_004.jpg	100
1932.278	1.279	1278.6	pointing	Trial3	pointing/STIM_004.jpg	99
1937.01	1.124	1124.5	pointing	Trial3	pointing/STIM_004.jpg	100
1940.513	1.632	1631.7	pointing	Trial3	pointing/STIM_004.jpg	100
1944.728	1.272	1271.8	pointing	Trial3	pointing/STIM_005.jpg	99
1948.964	1.584	1583.8	pointing	Trial3	pointing/STIM_005.jpg	99
1953.62	1.64	1640.5	pointing	Trial3	pointing/STIM_005.jpg	99
1958.655	1.443	1443.3	pointing	Trial3	pointing/STIM_005.jpg	99
1963.874	0.927	927.2	pointing	Trial3	pointing/STIM_005.jpg	99
1967.156	1.499	1499.2	pointing	Trial3	pointing/STIM_005.jpg	100
1970.517	1.603	1603.1	pointing	Trial3	pointing/STIM_006.jpg	100
1974.527	1.054	1053.5	pointing	Trial3	pointing/STIM_006.jpg	99
1978.13	1.367	1367.1	pointing	Trial3	pointing/STIM_006.jpg	100
1983.062	1.385	1385.1	pointing	Trial3	pointing/STIM_006.jpg	100
1987.82	1.082	1082.3	pointing	Trial3	pointing/STIM_006.jpg	99
1991.845	1.473	1473.2	pointing	Trial3	pointing/STIM_006.jpg	99
1996.801	0.919	918.6	pointing	Trial3	pointing/STIM_007.jpg	99
1999.904	1.289	1288.6	pointing	Trial3	pointing/STIM_007.jpg	100
2004.087	1.031	1031.4	pointing	Trial3	pointing/STIM_007.jpg	99
2007.202	1.643	1643.0	pointing	Trial3	pointing/STIM_007.jpg	99
2011.219	1.061	1060.8	pointing	Trial3	pointing/STIM_007.jpg	99
2014.18	1.702	1701.6	pointing	Trial3	pointing/STIM_007.jpg	99
2018.826	1.494	1494.5	pointing	Trial3	pointing/STIM_008.jpg	99
2023.565	1.174	1173.8	pointing	Trial3	pointing/STIM_008.jpg	99
2027.632	1.391	1391.1	pointing	Trial3	pointing/STIM_008.jpg	99
2031.829	1.485	1485.3	pointing	Trial3	pointing/STIM_008.jpg	99
2036.219	1.252	1252.3	pointing	Trial3	pointing/STIM_008.jpg	100
2040.792	1.477	1477.4	pointing	Trial3	pointing/STIM_008.jpg	100
2044.612	1.34	1340.5	pointing	Trial3	pointing/STIM_009.jpg	100
2048.264	1.665	1664.9	pointing	Trial3	pointing/STIM_009.jpg	99
2052.127	1.48	1479.8	pointing	Trial3	pointing/STIM_009.jpg	100
2056.583	1.346	1346.3	pointing	Trial3	pointing/STIM_009.jpg	100
2060.854	1.036	1035.6	pointing	Trial3	pointing/STIM_009.jpg	100
2065.099	0.933	933.2	pointing	Trial3	pointing/STIM_009.jpg	99
2067.949	1.612	1611.9	pointing	Trial3	pointing/STIM_010.jpg	99
2071.909	1.471	1470.7	pointing	Trial3	pointing/STIM_010.jpg	100
2077.169	1.154	1153.5	pointing	Trial3	pointing/STIM_010.jpg	99
2080.853	1.007	1007.4	pointing	Trial3	pointing/STIM_010.jpg	100
2084.321	1.46	1459.8	pointing	Trial3	pointing/STIM_010.jpg	99
2087.914	1.652	1651.7	pointing	Trial3	pointing/STIM_010.jpg	100
2092.937	1.508	1508.3	pointing	Trial3	pointing/STIM_011.jpg	100
2097.48	1.104	1104.3	pointing	Trial3	pointing/STIM_011.jpg	100
2102.36	1.702	1702.2	pointing	Trial3	pointing/STIM_011.jpg	99
2105.933	1.138	1138.4	pointing	Trial3	pointing/STIM_011.jpg	100
2110.799	1.121	1120.9	pointing	Trial3	pointing/STIM_011.jpg	100
2114.664	1.481	1481.2	pointing	Trial3	pointing/STIM_011.jpg	100
