onset	duration	response_time_ms	trial_type	learning_stage	stimulus	response_port
0.0	2.625	2625.4	regulate	Run1	regulate/STIM_000.jpg	100
5.397	2.826	2825.9	regulate	Run1	regulate/STIM_000.jpg	100
11.24	3.063	3062.8	regulate	Run1	regulate/STIM_000.jpg	99
15.978	1.515	1515.3	regulate	Run1	regulate/STIM_000.jpg	99
19.644	2.012	2011.9	regulate	Run1	regulate/STIM_001.jpg	99
24.313	2.333	2332.6	regulate	Run1	regulate/STIM_001.jpg	100
29.475	2.803	2803.1	regulate	Run1	regulate/STIM_001.jpg	99
34.464	2.694	2693.9	regulate	Run1	regulate/STIM_001.jpg	99
39.791	2.9	2899.5	regulate	Run1	regulate/STIM_002.jpg	99
44.906	3.069	3069.0	regulate	Run1	regulate/STIM_002.jpg	100
51.475	3.286	3286.0	regulate	Run1	regulate/STIM_002.jpg	99
56.428	1.903	1902.7	regulate	Run1	regulate/STIM_002.jpg	99
61.364	2.797	2797.1	regulate	Run1	regulate/STIM_003.jpg	100
67.15	3.105	3104.6	regulate	Run1	regulate/STIM_003.jpg	100
72.724	2.846	2845.5	regulate	Run1	regulate/STIM_003.jpg	99
77.927	2.187	2187.0	regulate	Run1	regulate/STIM_003.jpg	99
81.872	3.428	3428.5	regulate	Run1	regulate/STIM_004.jpg	99
87.462	1.791	1790.7	regulate	Run1	regulate/STIM_004.jpg	100
91.462	2.163	2163.2	regulate	Run1	regulate/STIM_004.jpg	100
96.834	3.322	3321.7	regulate	Run1	regulate/STIM_004.jpg	99
102.514	3.136	3136.3	regulate	Run1	regulate/STIM_005.jpg	99
108.004	2.167	2167.2	regulate	Run1	regulate/STIM_005.jpg	100
113.624	3.123	3122.6	regulate	Run1	regulate/STIM_005.jpg	100
120.385	2.007	2006.8	regulate	Run1	regulate/STIM_005.jpg	99
125.098	1.852	1852.3	regulate	Run1	regulate/STIM_006.jpg	100
129.701	1.62	1620.5	regulate	Run1	regulate/STIM_006.jpg	99
133.222	2.927	2927.2	regulate	Run1	regulate/STIM_006.jpg	99
139.606	2.988	2988.4	regulate	Run1	regulate/STIM_006.jpg	99
145.386	2.575	2575.0	regulate	Run1	regulate/STIM_007.jpg	99
150.971	2.313	2313.1	regulate	Run1	regulate/STIM_007.jpg	100
156.856	2.94	2940.0	regulate	Run1	regulate/STIM_007.jpg	99
163.169	3.293	3292.7	regulate	Run1	regulate/STIM_007.jpg	100
168.401	3.135	3134.9	regulate	Run1	regulate/STIM_008.jpg	100
173.157	3.342	3342.0	regulate	Run1	regulate/STIM_008.jpg	99
179.488	3.33	3329.7	regulate	Run1	regulate/STIM_008.jpg	99
186.346	2.739	2738.7	regulate	Run1	regulate/STIM_008.jpg	99
191.899	2.806	2806.4	regulate	Run1	regulate/STIM_009.jpg	100
197.943	3.479	3479.2	regulate	Run1	regulate/STIM_009.jpg	100
204.836	1.645	1645.0	regulate	Run1	regulate/STIM_009.jpg	100
208.463	2.121	2121.1	regulate	Run1	regulate/STIM_009.jpg	99
213.04	3.299	3299.0	regulate	Run1	regulate/STIM_010.jpg	100
219.255	2.491	2491.3	regulate	Run1	regulate/STIM_010.jpg	99
223.916	2.474	2473.7	regulate	Run1	regulate/STIM_010.jpg	99
228.495	1.653	1653.0	regulate	Run1	regulate/STIM_010.jpg	100
233.644	3.698	3698.2	regulate	Run1	regulate/STIM_011.jpg	100
239.726	2.939	2938.9	regulate	Run1	regulate/STIM_011.jpg	100
245.89	2.895	2894.6	regulate	Run1	regulate/STIM_011.jpg	100
252.28	1.903	1903.2	regulate	Run1	regulate/STIM_011.jpg	100
256.309	3.826	3826.5	regulate	Run1	regulate/STIM_012.jpg	99
263.076	2.006	2006.3	regulate	Run1	regulate/STIM_012.jpg	100
267.871	3.555	3554.6	regulate	Run1	regulate/STIM_012.jpg	99
273.974	2.198	2198.1	regulate	Run1	regulate/STIM_012.jpg	99
279.841	3.609	3609.3	regulate	Run1	regulate/STIM_013.jpg	100
286.007	3.632	3632.0	regulate	Run1	regulate/STIM_013.jpg	100
292.948	2.324	2323.7	regulate	Run1	regulate/STIM_013.jpg	100
297.361	1.846	1846.1	regulate	Run1	regulate/STIM_013.jpg	99
302.478	2.203	2202.7	regulate	Run1	regulate/STIM_014.jpg	100
308.354	3.544	3543.6	regulate	Run1	regulate/STIM_014.jpg	99
313.877	2.117	2116.8	regulate	Run1	regulate/STIM_014.jpg	100
318.096	2.754	2753.8	regulate	Run1	regulate/STIM_014.jpg	99
323.302	2.893	2893.0	regulate	Run1	regulate/STIM_015.jpg	99
328.523	1.917	1917.0	regulate	Run1	regulate/STIM_015.jpg	100
332.535	2.447	2447.2	regulate	Run1	regulate/STIM_015.jpg	99
337.409	3.101	3100.9	regulate	Run1	regulate/STIM_015.jpg	100
342.473	3.645	3644.6	regulate	Run1	regulate/STIM_016.jpg	99
348.868	1.798	1797.5	regulate	Run1	regulate/STIM_016.jpg	99
352.803	2.761	2761.3	regulate	Run1	regulate/STIM_016.jpg	100
358.866	1.604	1604.0	regulate	Run1	regulate/STIM_016.jpg	100
364.101	2.018	2017.9	regulate	Run1	regulate/STIM_017.jpg	100
369.33	2.363	2362.8	regulate	Run1	regulate/STIM_017.jpg	99
373.812	2.439	2438.6	regulate	Run1	regulate/STIM_017.jpg	99
377.994	2.432	2432.4	regulate	Run1	regulate/STIM_017.jpg	99
383.825	3.148	3147.9	regulate	Run1	regulate/STIM_018.jpg	100
390.258	2.216	2216.2	regulate	Run1	regulate/STIM_018.jpg	99
394.576	2.978	2978.2	regulate	Run1	regulate/STIM_018.jpg	100
400.568	3.223	3223.1	regulate	Run1	regulate/STIM_018.jpg	100
406.356	2.783	2782.9	regulate	Run1	regulate/STIM_019.jpg	100
412.225	3.135	3135.1	regulate	Run1	regulate/STIM_019.jpg	99
417.73	1.986	1985.9	regulate	Run1	regulate/STIM_019.jpg	100
421.59	3.344	3344.1	regulate	Run1	regulate/STIM_019.jpg	99
427.162	1.635	1635.4	regulate	Run1	regulate/STIM_020.jpg	100
430.747	3.76	3759.5	regulate	Run1	regulate/STIM_020.jpg	100
437.253	1.685	1685.0	regulate	Run1	regulate/STIM_020.jpg	99
442.539	1.804	1804.3	regulate	Run1	regulate/STIM_020.jpg	100
448.164	2.079	2078.9	regulate	Run1	regulate/STIM_021.jpg	99
452.433	3.208	3207.9	regulate	Run1	regulate/STIM_021.jpg	100
457.441	2.3	2299.7	regulate	Run1	regulate/STIM_021.jpg	100
463.404	2.897	2897.2	regulate	Run1	regulate/STIM_021.jpg	100
468.026	3.109	3108.8	regulate	Run1	regulate/STIM_022.jpg	99
473.433	2.582	2582.0	regulate	Run1	regulate/STIM_022.jpg	99
478.315	3.315	3314.9	regulate	Run1	regulate/STIM_022.jpg	100
483.732	2.344	2344.1	regulate	Run1	regulate/STIM_022.jpg	99
489.729	3.988	3987.5	regulate	Run1	regulate/STIM_023.jpg	99
496.541	3.432	3432.3	regulate	Run1	regulate/STIM_023.jpg	99
503.209	2.219	2219.3	regulate	Run1	regulate/STIM_023.jpg	100
508.33	2.614	2614.3	regulate	Run1	regulate/STIM_023.jpg	100
513.938	3.796	3796.0	regulate	Run1	regulate/STIM_024.jpg	99
520.319	1.692	1692.3	regulate	Run1	regulate/STIM_024.jpg	99
524.696	2.043	2043.3	regulate	Run1	regulate/STIM_024.jpg	100
529.091	2.138	2138.5	regulate	Run1	regulate/STIM_024.jpg	100
533.212	3.351	3350.6	regulate	Run1	regulate/STIM_025.jpg	100
540.038	3.166	3166.5	regulate	Run1	regulate/STIM_025.jpg	99
546.528	3.581	3580.6	regulate	Run1	regulate/STIM_025.jpg	99
552.801	2.893	2892.9	regulate	Run1	regulate/STIM_025.jpg	100
558.427	3.095	3095.3	regulate	Run1	regulate/STIM_026.jpg	100
563.145	1.964	1964.1	regulate	Run1	regulate/STIM_026.jpg	99
567.429	1.879	1879.3	regulate	Run1	regulate/STIM_026.jpg	99
572.574	1.914	1913.5	regulate	Run1	regulate/STIM_026.jpg	99
577.964	2.129	2128.6	regulate	Run1	regulate/STIM_027.jpg	100
582.963	2.106	2106.2	regulate	Run1	regulate/STIM_027.jpg	99
588.314	3.396	3396.1	regulate	Run1	regulate/STIM_027.jpg	99
594.154	2.79	2790.4	regulate	Run1	regulate/STIM_027.jpg	99
599.055	3.504	3504.4	regulate	Run1	regulate/STIM_028.jpg	99
604.322	3.496	3496.3	regulate	Run1	regulate/STIM_028.jpg	100
610.477	2.544	2543.7	regulate	Run1	regulate/STIM_028.jpg	100
615.343	2.122	2121.8	regulate	Run1	regulate/STIM_028.jpg	100
619.229	2.77	2770.5	regulate	Run1	regulate/STIM_029.jpg	100
623.744	3.076	3075.6	regulate	Run1	regulate/STIM_029.jpg	99
629.008	3.013	3013.3	regulate	Run1	regulate/STIM_029.jpg	100
635.282	2.999	2999.4	regulate	Run1	regulate/STIM_029.jpg	99
640.786	1.704	1703.5	observe	Run1	observe/STIM_000.jpg	99
644.988	1.002	1001.9	observe	Run1	observe/STIM_000.jpg	100
649.619	1.813	1813.1	observe	Run1	observe/STIM_000.jpg	100
654.265	1.585	1584.6	observe	Run1	observe/STIM_000.jpg	99
657.809	1.717	1716.9	observe	Run1	observe/STIM_001.jpg	99
661.913	1.49	1490.3	observe	Run1	observe/STIM_001.jpg	100
665.594	1.35	1349.7	observe	Run1	observe/STIM_001.jpg	100
669.659	1.75	1750.1	observe	Run1	observe/STIM_001.jpg	99
674.214	1.115	1114.8	observe	Run1	observe/STIM_002.jpg	100
678.201	1.242	1242.4	observe	Run1	observe/STIM_002.jpg	99
681.971	1.182	1181.8	observe	Run1	observe/STIM_002.jpg	99
686.332	1.267	1267.1	observe	Run1	observe/STIM_002.jpg	100
690.325	0.932	932.5	observe	Run1	observe/STIM_003.jpg	99
695.081	1.631	1631.0	observe	Run1	observe/STIM_003.jpg	100
699.473	1.517	1516.9	observe	Run1	observe/STIM_003.jpg	100
704.435	1.175	1175.1	observe	Run1	observe/STIM_003.jpg	99
707.98	1.373	1372.8	observe	Run1	observe/STIM_004.jpg	99
712.594	1.24	1240.4	observe	Run1	observe/STIM_004.jpg	99
717.502	1.41	1410.1	observe	Run1	observe/STIM_004.jpg	99
721.092	1.752	1752.1	observe	Run1	observe/STIM_004.jpg	99
725.872	1.642	1642.5	observe	Run1	observe/STIM_005.jpg	99
730.433	1.081	1081.0	observe	Run1	observe/STIM_005.jpg	100
734.874	1.128	1128.4	observe	Run1	observe/STIM_005.jpg	99
739.125	1.034	1033.5	observe	Run1	observe/STIM_005.jpg	99
742.382	1.398	1398.0	observe	Run1	observe/STIM_006.jpg	100
746.613	1.722	1721.8	observe	Run1	observe/STIM_006.jpg	99
751.85	1.202	1201.6	observe	Run1	observe/STIM_006.jpg	100
755.68	1.236	1236.1	observe	Run1	observe/STIM_006.jpg	99
759.989	1.202	1201.6	observe	Run1	observe/STIM_007.jpg	100
764.388	1.067	1066.8	observe	Run1	observe/STIM_007.jpg	100
768.334	1.577	1576.7	observe	Run1	observe/STIM_007.jpg	99
773.159	1.216	1216.5	observe	Run1	observe/STIM_007.jpg	99
777.68	1.002	1002.2	observe	Run1	observe/STIM_008.jpg	99
781.596	1.588	1587.8	observe	Run1	observe/STIM_008.jpg	100
786.685	1.41	1409.9	observe	Run1	observe/STIM_008.jpg	100
790.848	1.279	1278.9	observe	Run1	observe/STIM_008.jpg	99
794.505	1.548	1548.2	observe	Run1	observe/STIM_009.jpg	100
799.513	1.744	1743.9	observe	Run1	observe/STIM_009.jpg	99
803.68	1.803	1803.4	observe	Run1	observe/STIM_009.jpg	100
807.803	1.232	1231.8	observe	Run1	observe/STIM_009.jpg	99
811.179	1.808	1808.2	observe	Run1	observe/STIM_010.jpg	99
815.019	1.771	1770.8	observe	Run1	observe/STIM_010.jpg	99
819.608	1.7	1700.3	observe	Run1	observe/STIM_010.jpg	99
824.716	1.091	1091.3	observe	Run1	observe/STIM_010.jpg	100
828.153	1.372	1371.5	observe	Run1	observe/STIM_011.jpg	99
831.4	1.403	1402.6	observe	Run1	observe/STIM_011.jpg	99
835.398	1.545	1545.3	observe	Run1	observe/STIM_011.jpg	99
839.74	1.696	1696.0	observe	Run1	observe/STIM_011.jpg	100
843.344	1.518	1518.4	observe	Run1	observe/STIM_012.jpg	100
846.858	1.09	1089.9	observe	Run1	observe/STIM_012.jpg	100
851.177	1.767	1766.9	observe	Run1	observe/STIM_012.jpg	99
855.924	1.684	1683.6	observe	Run1	observe/STIM_012.jpg	100
860.052	0.98	979.9	observe	Run1	observe/STIM_013.jpg	99
864.218	1.426	1425.8	observe	Run1	observe/STIM_013.jpg	100
869.305	1.375	1375.2	observe	Run1	observe/STIM_013.jpg	99
874.349	1.19	1190.0	observe	Run1	observe/STIM_013.jpg	99
877.672	0.961	961.4	observe	Run1	observe/STIM_014.jpg	100
881.952	0.935	934.9	observe	Run1	observe/STIM_014.jpg	99
885.756	1.233	1233.1	observe	Run1	observe/STIM_014.jpg	100
889.76	1.66	1660.4	observe	Run1	observe/STIM_014.jpg	99
895.16	1.568	1567.6	observe	Run1	observe/STIM_015.jpg	99
900.331	1.7	1699.6	observe	Run1	observe/STIM_015.jpg	100
905.181	1.666	1665.7	observe	Run1	observe/STIM_015.jpg	99
909.892	1.009	1008.9	observe	Run1	observe/STIM_015.jpg	99
913.739	1.571	1571.1	observe	Run1	observe/STIM_016.jpg	100
918.588	1.041	1040.8	observe	Run1	observe/STIM_016.jpg	100
922.204	1.362	1362.1	observe	Run1	observe/STIM_016.jpg	99
925.851	1.606	1606.5	observe	Run1	observe/STIM_016.jpg	100
930.775	1.333	1333.4	observe	Run1	observe/STIM_017.jpg	99
934.026	1.741	1740.7	observe	Run1	observe/STIM_017.jpg	99
938.519	1.81	1810.0	observe	Run1	observe/STIM_017.jpg	99
944.034	1.43	1429.7	observe	Run1	observe/STIM_017.jpg	100
948.27	1.775	1775.4	observe	Run1	observe/STIM_018.jpg	99
952.93	1.567	1567.4	observe	Run1	observe/STIM_018.jpg	99
958.112	1.466	1466.5	observe	Run1	observe/STIM_018.jpg	99
961.493	1.513	1512.8	observe	Run1	observe/STIM_018.jpg	100
966.829	1.202	1202.4	observe	Run1	observe/STIM_019.jpg	100
971.546	1.03	1030.4	observe	Run1	observe/STIM_019.jpg	99
975.53	1.04	1039.7	observe	Run1	observe/STIM_019.jpg	99
979.825	1.203	1203.4	observe	Run1	observe/STIM_019.jpg	99
983.037	1.452	1452.1	regulate	Run2	regulate/STIM_000.jpg	100
986.442	1.452	1452.1	regulate	Run2	regulate/STIM_000.jpg	100
990.416	1.936	1936.1	regulate	Run2	regulate/STIM_000.jpg	99
994.241	1.912	1911.5	regulate	Run2	regulate/STIM_000.jpg	99
999.571	1.574	1574.0	regulate	Run2	regulate/STIM_001.jpg	99
1003.558	2.438	2438.2	regulate	Run2	regulate/STIM_001.jpg	100
1009.373	1.402	1401.6	regulate	Run2	regulate/STIM_001.jpg	100
1013.727	1.392	1391.9	regulate	Run2	regulate/STIM_001.jpg	99
1018.419	3.145	3145.3	regulate	Run2	regulate/STIM_002.jpg	100
1023.646	2.08	2079.5	regulate	Run2	regulate/STIM_002.jpg	99
1028.121	2.758	2757.7	regulate	Run2	regulate/STIM_002.jpg	100
1033.291	1.34	1340.2	regulate	Run2	regulate/STIM_002.jpg	100
1037.311	2.568	2567.8	regulate	Run2	regulate/STIM_003.jpg	99
1043.337	2.13	2130.0	regulate	Run2	regulate/STIM_003.jpg	99
1047.922	2.695	2695.2	regulate	Run2	regulate/STIM_003.jpg	99
1052.577	1.337	1336.6	regulate	Run2	regulate/STIM_003.jpg	100
1057.449	2.159	2159.3	regulate	Run2	regulate/STIM_004.jpg	99
1062.049	2.013	2013.4	regulate	Run2	regulate/STIM_004.jpg	99
1066.729	1.569	1569.2	regulate	Run2	regulate/STIM_004.jpg	100
1070.318	2.074	2074.3	regulate	Run2	regulate/STIM_004.jpg	100
1075.116	2.61	2609.8	regulate	Run2	regulate/STIM_005.jpg	100
1079.914	1.642	1641.5	regulate	Run2	regulate/STIM_005.jpg	100
1083.61	1.304	1304.1	regulate	Run2	regulate/STIM_005.jpg	100
1087.014	1.381	1381.0	regulate	Run2	regulate/STIM_005.jpg	99
1092.061	2.228	2228.1	regulate	Run2	regulate/STIM_006.jpg	100
1096.35	2.662	2662.0	regulate	Run2	regulate/STIM_006.jpg	100
1102.522	2.595	2594.7	regulate	Run2	regulate/STIM_006.jpg	99
1108.607	1.269	1269.2	regulate	Run2	regulate/STIM_006.jpg	100
1112.259	1.498	1498.1	regulate	Run2	regulate/STIM_007.jpg	100
1117.295	3.076	3075.7	regulate	Run2	regulate/STIM_007.jpg	100
1123.175	1.808	1807.9	regulate	Run2	regulate/STIM_007.jpg	100
1127.272	2.017	2017.1	regulate	Run2	regulate/STIM_007.jpg	99
1132.214	1.702	1701.7	regulate	Run2	regulate/STIM_008.jpg	99
1136.877	2.673	2673.1	regulate	Run2	regulate/STIM_008.jpg	100
1142.813	2.842	2842.3	regulate	Run2	regulate/STIM_008.jpg	100
1148.514	1.242	1241.7	regulate	Run2	regulate/STIM_008.jpg	100
1152.2	2.986	2986.0	regulate	Run2	regulate/STIM_009.jpg	99
1157.604	2.693	2692.9	regulate	Run2	regulate/STIM_009.jpg	100
1162.512	2.533	2532.7	regulate	Run2	regulate/STIM_009.jpg	99
1168.48	2.505	2505.3	regulate	Run2	regulate/STIM_009.jpg	99
1174.03	1.47	1469.6	regulate	Run2	regulate/STIM_010.jpg	100
1178.971	3.043	3042.9	regulate	Run2	regulate/STIM_010.jpg	100
1184.374	1.593	1592.9	regulate	Run2	regulate/STIM_010.jpg	100
1189.674	1.705	1705.1	regulate	Run2	regulate/STIM_010.jpg	99
1194.62	1.817	1816.6	regulate	Run2	regulate/STIM_011.jpg	100
1199.999	2.143	2143.3	regulate	Run2	regulate/STIM_011.jpg	99
1204.194	2.694	2694.3	regulate	Run2	regulate/STIM_011.jpg	100
1208.716	1.811	1811.2	regulate	Run2	regulate/STIM_011.jpg	99
1212.747	1.682	1682.4	regulate	Run2	regulate/STIM_012.jpg	99
1216.938	3.126	3126.3	regulate	Run2	regulate/STIM_012.jpg	100
1222.462	2.877	2877.1	regulate	Run2	regulate/STIM_012.jpg	99
1228.927	1.429	1429.0	regulate	Run2	regulate/STIM_012.jpg	99
1232.449	2.012	2011.6	regulate	Run2	regulate/STIM_013.jpg	100
1238.263	3.116	3115.9	regulate	Run2	regulate/STIM_013.jpg	100
1244.016	1.626	1625.9	regulate	Run2	regulate/STIM_013.jpg	100
1249.283	2.441	2440.7	regulate	Run2	regulate/STIM_013.jpg	100
1253.539	3.278	3278.3	regulate	Run2	regulate/STIM_014.jpg	99
1259.007	2.558	2557.9	regulate	Run2	regulate/STIM_014.jpg	99
1265.213	2.323	2323.0	regulate	Run2	regulate/STIM_014.jpg	99
1269.605	2.666	2665.9	regulate	Run2	regulate/STIM_014.jpg	99
1274.705	2.409	2408.7	regulate	Run2	regulate/STIM_015.jpg	100
1278.989	1.682	1682.1	regulate	Run2	regulate/STIM_015.jpg	100
1282.449	1.754	1753.6	regulate	Run2	regulate/STIM_015.jpg	99
1286.989	1.519	1518.8	regulate	Run2	regulate/STIM_015.jpg	99
1291.428	3.377	3377.0	regulate	Run2	regulate/STIM_016.jpg	100
1296.574	2.912	2911.9	regulate	Run2	regulate/STIM_016.jpg	99
1302.933	1.325	1324.7	regulate	Run2	regulate/STIM_016.jpg	99
1306.916	2.357	2356.7	regulate	Run2	regulate/STIM_016.jpg	99
1311.23	2.669	2668.6	regulate	Run2	regulate/STIM_017.jpg	99
1316.733	1.705	1705.0	regulate	Run2	regulate/STIM_017.jpg	99
1322.204	1.448	1448.1	regulate	Run2	regulate/STIM_017.jpg	100
1325.617	2.214	2213.8	regulate	Run2	regulate/STIM_017.jpg	99
1330.693	2.197	2197.3	regulate	Run2	regulate/STIM_018.jpg	100
1335.884	3.095	3095.1	regulate	Run2	regulate/STIM_018.jpg	100
1342.308	1.242	1242.1	regulate	Run2	regulate/STIM_018.jpg	99
1346.313	2.146	2146.5	regulate	Run2	regulate/STIM_018.jpg	100
1350.743	3.029	3029.2	regulate	Run2	regulate/STIM_019.jpg	100
1356.011	2.421	2421.1	regulate	Run2	regulate/STIM_019.jpg	99
1360.386	2.051	2051.3	regulate	Run2	regulate/STIM_019.jpg	99
1365.03	2.468	2467.8	regulate	Run2	regulate/STIM_019.jpg	100
1370.085	3.294	3294.1	regulate	Run2	regulate/STIM_020.jpg	99
1376.559	2.644	2643.8	regulate	Run2	regulate/STIM_020.jpg	99
1382.791	2.588	2587.6	regulate	Run2	regulate/STIM_020.jpg	99
1387.58	2.444	2444.5	regulate	Run2	regulate/STIM_020.jpg	100
1392.507	1.482	1481.5	regulate	Run2	regulate/STIM_021.jpg	100
1396.373	3.047	3046.9	regulate	Run2	regulate/STIM_021.jpg	99
1401.664	2.082	2082.3	regulate	Run2	regulate/STIM_021.jpg	100
1405.826	2.236	2235.8	regulate	Run2	regulate/STIM_021.jpg	99
1411.615	2.042	2041.6	regulate	Run2	regulate/STIM_022.jpg	100
1415.437	1.398	1398.5	regulate	Run2	regulate/STIM_022.jpg	99
1420.02	2.637	2636.8	regulate	Run2	regulate/STIM_022.jpg	100
1426.368	2.532	2531.6	regulate	Run2	regulate/STIM_022.jpg	100
1432.037	2.169	2169.3	regulate	Run2	regulate/STIM_023.jpg	100
1437.636	2.666	2666.1	regulate	Run2	regulate/STIM_023.jpg	100
1443.206	1.253	1253.1	regulate	Run2	regulate/STIM_023.jpg	100
1446.371	2.556	2556.5	regulate	Run2	regulate/STIM_023.jpg	100
1452.335	1.528	1528.1	regulate	Run2	regulate/STIM_024.jpg	99
1456.877	1.424	1424.5	regulate	Run2	regulate/STIM_024.jpg	100
1461.866	2.392	2392.0	regulate	Run2	regulate/STIM_024.jpg	100
1466.401	1.269	1269.1	regulate	Run2	regulate/STIM_024.jpg	100
1471.036	1.757	1756.9	regulate	Run2	regulate/STIM_025.jpg	99
1475.294	3.147	3146.6	regulate	Run2	regulate/STIM_025.jpg	100
1480.72	1.408	1407.9	regulate	Run2	regulate/STIM_025.jpg	99
1483.986	1.467	1466.8	regulate	Run2	regulate/STIM_025.jpg	100
1489.048	2.284	2284.1	regulate	Run2	regulate/STIM_026.jpg	100
1494.506	2.619	2618.6	regulate	Run2	regulate/STIM_026.jpg	100
1499.194	2.498	2497.7	regulate	Run2	regulate/STIM_026.jpg	100
1503.89	2.364	2364.0	regulate	Run2	regulate/STIM_026.jpg	100
1509.667	2.64	2640.3	regulate	Run2	regulate/STIM_027.jpg	100
1514.896	2.796	2796.5	regulate	Run2	regulate/STIM_027.jpg	100
1520.843	2.701	2701.4	regulate	Run2	regulate/STIM_027.jpg	100
1525.459	1.973	1972.9	regulate	Run2	regulate/STIM_027.jpg	99
1530.611	2.44	2439.6	regulate	Run2	regulate/STIM_028.jpg	100
1536.64	3.068	3067.8	regulate	Run2	regulate/STIM_028.jpg	100
1543.209	2.616	2616.0	regulate	Run2	regulate/STIM_028.jpg	99
1548.713	2.081	2081.2	regulate	Run2	regulate/STIM_028.jpg	100
1553.616	2.821	2821.4	regulate	Run2	regulate/STIM_029.jpg	100
1558.041	2.838	2838.5	regulate	Run2	regulate/STIM_029.jpg	100
1563.117	2.492	2492.1	regulate	Run2	regulate/STIM_029.jpg	100
1568.858	1.438	1438.3	regulate	Run2	regulate/STIM_029.jpg	100
1572.908	1.202	1201.9	observe	Run2	observe/STIM_000.jpg	99
1577.719	1.698	1697.7	observe	Run2	observe/STIM_000.jpg	99
1581.318	1.086	1085.5	observe	Run2	observe/STIM_000.jpg	100
1584.406	1.464	1463.5	observe	Run2	observe/STIM_000.jpg	100
1588.871	1.28	1279.7	observe	Run2	observe/STIM_001.jpg	99
1593.57	1.735	1734.6	observe	Run2	observe/STIM_001.jpg	100
1597.529	1.113	1112.6	observe	Run2	observe/STIM_001.jpg	99
1602.135	0.897	897.4	observe	Run2	observe/STIM_001.jpg	100
1606.231	1.098	1097.8	observe	Run2	observe/STIM_002.jpg	100
1610.596	1.257	1256.8	observe	Run2	observe/STIM_002.jpg	99
1614.199	1.005	1004.7	observe	Run2	observe/STIM_002.jpg	99
1618.387	1.679	1679.3	observe	Run2	observe/STIM_002.jpg	99
1622.911	1.388	1387.5	observe	Run2	observe/STIM_003.jpg	99
1627.214	1.313	1312.8	observe	Run2	observe/STIM_003.jpg	99
1631.926	1.663	1662.8	observe	Run2	observe/STIM_003.jpg	100
1637.185	1.663	1663.4	observe	Run2	observe/STIM_003.jpg	100
1641.725	1.08	1079.7	observe	Run2	observe/STIM_004.jpg	100
1645.471	1.27	1270.0	observe	Run2	observe/STIM_004.jpg	99
1650.198	0.995	995.0	observe	Run2	observe/STIM_004.jpg	99
1653.86	0.986	985.9	observe	Run2	observe/STIM_004.jpg	99
1657.041	1.014	1014.0	observe	Run2	observe/STIM_005.jpg	100
1661.946	1.024	1023.7	observe	Run2	observe/STIM_005.jpg	99
1665.779	1.688	1687.8	observe	Run2	observe/STIM_005.jpg	100
1671.224	1.242	1242.2	observe	Run2	observe/STIM_005.jpg	100
1675.714	1.153	1152.9	observe	Run2	observe/STIM_006.jpg	99
1679.898	1.282	1282.0	observe	Run2	observe/STIM_006.jpg	99
1683.72	1.705	1705.4	observe	Run2	observe/STIM_006.jpg	100
1687.816	1.042	1042.0	observe	Run2	observe/STIM_006.jpg	100
1691.454	1.496	1496.5	observe	Run2	observe/STIM_007.jpg	99
1695.279	1.679	1679.1	observe	Run2	observe/STIM_007.jpg	99
1700.043	1.35	1350.2	observe	Run2	observe/STIM_007.jpg	99
1704.859	1.77	1770.1	observe	Run2	observe/STIM_007.jpg	99
1709.562	1.076	1075.9	observe	Run2	observe/STIM_008.jpg	100
1713.808	0.917	917.1	observe	Run2	observe/STIM_008.jpg	99
1717.07	0.925	925.2	observe	Run2	observe/STIM_008.jpg	99
1721.051	1.648	1647.5	observe	Run2	observe/STIM_008.jpg	100
1725.295	1.557	1557.2	observe	Run2	observe/STIM_009.jpg	99
1730.604	1.113	1112.8	observe	Run2	observe/STIM_009.jpg	100
1735.196	1.385	1385.0	observe	Run2	observe/STIM_009.jpg	99
1739.722	1.199	1198.8	observe	Run2	observe/STIM_009.jpg	100
1744.004	1.574	1573.8	observe	Run2	observe/STIM_010.jpg	99
1747.971	1.39	1390.3	observe	Run2	observe/STIM_010.jpg	100
1753.219	1.325	1324.8	observe	Run2	observe/STIM_010.jpg	100
1756.473	1.802	1802.1	observe	Run2	observe/STIM_010.jpg	99
1760.641	1.797	1797.4	observe	Run2	observe/STIM_011.jpg	99
1766.162	0.971	970.6	observe	Run2	observe/STIM_011.jpg	99
1770.826	1.678	1677.5	observe	Run2	observe/STIM_011.jpg	100
1775.728	1.63	1629.8	observe	Run2	observe/STIM_011.jpg	99
1780.022	1.225	1225.3	observe	Run2	observe/STIM_012.jpg	99
1785.135	1.713	1712.7	observe	Run2	observe/STIM_012.jpg	100
1790.473	1.697	1696.8	observe	Run2	observe/STIM_012.jpg	100
1794.355	1.129	1129.0	observe	Run2	observe/STIM_012.jpg	100
1797.766	1.2	1200.2	observe	Run2	observe/STIM_013.jpg	99
1801.727	1.357	1356.7	observe	Run2	observe/STIM_013.jpg	99
1805.699	0.868	868.2	observe	Run2	observe/STIM_013.jpg	99
1810.429	1.341	1340.9	observe	Run2	observe/STIM_013.jpg	99
1815.26	1.278	1278.0	observe	Run2	observe/STIM_014.jpg	100
1820.16	1.842	1841.5	observe	Run2	observe/STIM_014.jpg	100
1824.138	1.618	1618.4	observe	Run2	observe/STIM_014.jpg	100
1828.398	0.958	957.7	observe	Run2	observe/STIM_014.jpg	99
1831.87	1.241	1241.0	observe	Run2	observe/STIM_015.jpg	100
1835.372	1.751	1751.3	observe	Run2	observe/STIM_015.jpg	100
1839.442	1.12	1120.3	observe	Run2	observe/STIM_015.jpg	100
1844.035	1.545	1545.3	observe	Run2	observe/STIM_015.jpg	100
1847.854	1.088	1088.1	observe	Run2	observe/STIM_016.jpg	100
1852.197	0.988	988.4	observe	Run2	observe/STIM_016.jpg	100
1855.836	1.59	1589.9	observe	Run2	observe/STIM_016.jpg	99
1861.038	0.93	929.5	observe	Run2	observe/STIM_016.jpg	100
1864.795	1.74	1740.4	observe	Run2	observe/STIM_017.jpg	100
1870.012	1.211	1211.1	observe	Run2	observe/STIM_017.jpg	100
1874.339	1.594	1594.2	observe	Run2	observe/STIM_017.jpg	99
1879.274	1.783	1783.1	observe	Run2	observe/STIM_017.jpg	100
1884.414	1.7	1699.7	observe	Run2	observe/STIM_018.jpg	100
1889.883	1.428	1427.8	observe	Run2	observe/STIM_018.jpg	100
1893.292	1.523	1522.7	observe	Run2	observe/STIM_018.jpg	99
1898.474	1.659	1659.1	observe	Run2	observe/STIM_018.jpg	100
1903.853	1.24	1240.2	observe	Run2	observe/STIM_019.jpg	100
1908.831	1.158	1157.8	observe	Run2	observe/STIM_019.jpg	99
1913.597	1.771	1771.0	observe	Run2	observe/STIM_019.jpg	99
1918.227	1.216	1216.3	observe	Run2	observe/STIM_019.jpg	99
1922.122	2.428	2427.6	regulate	Run3	regulate/STIM_000.jpg	99
1926.256	1.353	1353.3	regulate	Run3	regulate/STIM_000.jpg	99
1929.88	1.841	1841.3	regulate	Run3	regulate/STIM_000.jpg	99
1933.881	2.23	2229.6	regulate	Run3	regulate/STIM_000.jpg	99
1939.854	1.797	1796.8	regulate	Run3	regulate/STIM_001.jpg	100
1944.102	2.261	2260.8	regulate	Run3	regulate/STIM_001.jpg	99
1949.177	2.732	2732.3	regulate	Run3	regulate/STIM_001.jpg	99
1953.813	2.042	2042.1	regulate	Run3	regulate/STIM_001.jpg	100
1958.84	1.184	1184.2	regulate	Run3	regulate/STIM_002.jpg	99
1962.677	2.336	2335.5	regulate	Run3	regulate/STIM_002.jpg	99
1967.206	1.918	1917.5	regulate	Run3	regulate/STIM_002.jpg	100
1972.666	1.906	1906.1	regulate	Run3	regulate/STIM_002.jpg	99
1978.311	2.166	2166.4	regulate	Run3	regulate/STIM_003.jpg	99
1983.25	1.904	1903.6	regulate	Run3	regulate/STIM_003.jpg	100
1988.473	1.844	1844.4	regulate	Run3	regulate/STIM_003.jpg	100
1992.473	2.3	2300.3	regulate	Run3	regulate/STIM_003.jpg	99
1997.4	1.603	1603.1	regulate	Run3	regulate/STIM_004.jpg	99
2002.055	2.669	2668.8	regulate	Run3	regulate/STIM_004.jpg	100
2006.43	2.53	2529.9	regulate	Run3	regulate/STIM_004.jpg	100
2010.888	1.405	1405.0	regulate	Run3	regulate/STIM_004.jpg	99
2014.545	2.401	2401.2	regulate	Run3	regulate/STIM_005.jpg	99
2019.157	1.56	1560.5	regulate	Run3	regulate/STIM_005.jpg	100
2023.958	2.145	2145.4	regulate	Run3	regulate/STIM_005.jpg	99
2028.127	1.785	1784.7	regulate	Run3	regulate/STIM_005.jpg	99
2031.973	2.65	2650.3	regulate	Run3	regulate/STIM_006.jpg	99
2037.009	2.587	2587.3	regulate	Run3	regulate/STIM_006.jpg	99
2042.819	2.365	2365.2	regulate	Run3	regulate/STIM_006.jpg	99
2046.997	2.215	2214.9	regulate	Run3	regulate/STIM_006.jpg	99
2051.691	2.816	2816.1	regulate	Run3	regulate/STIM_007.jpg	99
2056.926	2.404	2404.5	regulate	Run3	regulate/STIM_007.jpg	100
2061.951	1.523	1523.0	regulate	Run3	regulate/STIM_007.jpg	99
2065.972	2.299	2299.4	regulate	Run3	regulate/STIM_007.jpg	99
2071.856	2.073	2073.2	regulate	Run3	regulate/STIM_008.jpg	99
2077.64	2.41	2410.2	regulate	Run3	regulate/STIM_008.jpg	100
2082.556	1.716	1715.6	regulate	Run3	regulate/STIM_008.jpg	100
2087.748	1.701	1700.9	regulate	Run3	regulate/STIM_008.jpg	100
2091.793	1.588	1588.2	regulate	Run3	regulate/STIM_009.jpg	100
2096.93	2.74	2740.0	regulate	Run3	regulate/STIM_009.jpg	100
2101.953	1.633	1633.2	regulate	Run3	regulate/STIM_009.jpg	99
2106.876	1.348	1348.2	regulate	Run3	regulate/STIM_009.jpg	100
2110.269	1.443	1442.6	regulate	Run3	regulate/STIM_010.jpg	100
2115.284	1.371	1371.1	regulate	Run3	regulate/STIM_010.jpg	100
2120.101	1.977	1977.1	regulate	Run3	regulate/STIM_010.jpg	100
2123.985	1.776	1776.3	regulate	Run3	regulate/STIM_010.jpg	99
2128.329	2.623	2623.0	regulate	Run3	regulate/STIM_011.jpg	99
2133.603	2.147	2147.2	regulate	Run3	regulate/STIM_011.jpg	100
2137.481	2.222	2222.5	regulate	Run3	regulate/STIM_011.jpg	99
2142.332	2.471	2471.2	regulate	Run3	regulate/STIM_011.jpg	100
2147.947	2.222	2221.6	regulate	Run3	regulate/STIM_012.jpg	100
2153.76	1.526	1526.4	regulate	Run3	regulate/STIM_012.jpg	99
2157.852	2.676	2676.0	regulate	Run3	regulate/STIM_012.jpg	100
2164.018	1.676	1676.3	regulate	Run3	regulate/STIM_012.jpg	99
2168.809	2.324	2324.5	regulate	Run3	regulate/STIM_013.jpg	100
2173.249	1.086	1086.1	regulate	Run3	regulate/STIM_013.jpg	100
2177.689	1.204	1203.5	regulate	Run3	regulate/STIM_013.jpg	100
2182.238	2.239	2238.9	regulate	Run3	regulate/STIM_013.jpg	100
2186.969	2.642	2642.0	regulate	Run3	regulate/STIM_014.jpg	99
2192.724	2.28	2280.2	regulate	Run3	regulate/STIM_014.jpg	99
2196.75	2.426	2425.5	regulate	Run3	regulate/STIM_014.jpg	99
2201.068	1.454	1453.5	regulate	Run3	regulate/STIM_014.jpg	99
2205.765	2.174	2174.5	regulate	Run3	regulate/STIM_015.jpg	99
2210.11	1.539	1539.0	regulate	Run3	regulate/STIM_015.jpg	99
2215.096	2.245	2245.3	regulate	Run3	regulate/STIM_015.jpg	100
2219.568	1.329	1328.6	regulate	Run3	regulate/STIM_015.jpg	100
2224.249	1.903	1902.7	regulate	Run3	regulate/STIM_016.jpg	99
2228.684	1.303	1303.3	regulate	Run3	regulate/STIM_016.jpg	99
2233.449	2.188	2188.2	regulate	Run3	regulate/STIM_016.jpg	100
2238.126	1.93	1930.1	regulate	Run3	regulate/STIM_016.jpg	99
2243.085	1.818	1818.1	regulate	Run3	regulate/STIM_017.jpg	100
2247.529	1.957	1956.6	regulate	Run3	regulate/STIM_017.jpg	100
2252.813	2.362	2361.5	regulate	Run3	regulate/STIM_017.jpg	100
2257.466	2.048	2048.5	regulate	Run3	regulate/STIM_017.jpg	99
2262.806	1.793	1793.2	regulate	Run3	regulate/STIM_018.jpg	99
2268.352	2.692	2692.4	regulate	Run3	regulate/STIM_018.jpg	99
2274.117	2.619	2619.2	regulate	Run3	regulate/STIM_018.jpg	100
2278.827	2.134	2134.4	regulate	Run3	regulate/STIM_018.jpg	99
2283.988	1.767	1767.2	regulate	Run3	regulate/STIM_019.jpg	99
2287.847	1.517	1517.0	regulate	Run3	regulate/STIM_019.jpg	100
2291.424	2.002	2002.2	regulate	Run3	regulate/STIM_019.jpg	100
2295.226	2.398	2397.9	regulate	Run3	regulate/STIM_019.jpg	99
2300.734	1.442	1441.8	regulate	Run3	regulate/STIM_020.jpg	100
2304.947	2.781	2781.4	regulate	Run3	regulate/STIM_020.jpg	100
2309.969	1.291	1291.4	regulate	Run3	regulate/STIM_020.jpg	100
2314.665	2.696	2695.9	regulate	Run3	regulate/STIM_020.jpg	100
2320.683	1.997	1997.0	regulate	Run3	regulate/STIM_021.jpg	100
2326.215	2.067	2066.7	regulate	Run3	regulate/STIM_021.jpg	100
2331.062	2.474	2474.0	regulate	Run3	regulate/STIM_021.jpg	99
2337.007	1.787	1787.2	regulate	Run3	regulate/STIM_021.jpg	100
2342.156	1.202	1201.8	regulate	Run3	regulate/STIM_022.jpg	99
2346.236	2.74	2739.8	regulate	Run3	regulate/STIM_022.jpg	99
2351.563	2.394	2393.6	regulate	Run3	regulate/STIM_022.jpg	99
2356.594	2.556	2556.1	regulate	Run3	regulate/STIM_022.jpg	99
2361.627	2.158	2157.9	regulate	Run3	regulate/STIM_023.jpg	99
2366.685	2.548	2547.7	regulate	Run3	regulate/STIM_023.jpg	100
2372.071	1.671	1670.7	regulate	Run3	regulate/STIM_023.jpg	100
2375.99	1.825	1825.0	regulate	Run3	regulate/STIM_023.jpg	100
2379.676	2.386	2385.5	regulate	Run3	regulate/STIM_024.jpg	99
2384.532	1.223	1223.3	regulate	Run3	regulate/STIM_024.jpg	100
2388.867	1.233	1233.0	regulate	Run3	regulate/STIM_024.jpg	100
2392.299	2.498	2498.2	regulate	Run3	regulate/STIM_024.jpg	100
2397.684	2.498	2497.8	regulate	Run3	regulate/STIM_025.jpg	100
2402.627	1.568	1567.9	regulate	Run3	regulate/STIM_025.jpg	100
2406.161	1.3	1300.0	regulate	Run3	regulate/STIM_025.jpg	99
2410.303	1.498	1498.3	regulate	Run3	regulate/STIM_025.jpg	99
2414.091	1.316	1315.5	regulate	Run3	regulate/STIM_026.jpg	99
2418.887	1.433	1432.9	regulate	Run3	regulate/STIM_026.jpg	100
2422.945	1.928	1927.6	regulate	Run3	regulate/STIM_026.jpg	100
2428.071	1.996	1996.2	regulate	Run3	regulate/STIM_026.jpg	100
2432.989	1.633	1632.6	regulate	Run3	regulate/STIM_027.jpg	100
2436.825	1.718	1717.9	regulate	Run3	regulate/STIM_027.jpg	99
2441.291	2.346	2346.5	regulate	Run3	regulate/STIM_027.jpg	99
2445.481	1.945	1944.7	regulate	Run3	regulate/STIM_027.jpg	100
2450.997	2.684	2684.5	regulate	Run3	regulate/STIM_028.jpg	100
2457.111	1.682	1681.9	regulate	Run3	regulate/STIM_028.jpg	99
2462.034	2.534	2533.8	regulate	Run3	regulate/STIM_028.jpg	100
2466.76	2.195	2195.0	regulate	Run3	regulate/STIM_028.jpg	100
2470.81	2.404	2404.3	regulate	Run3	regulate/STIM_029.jpg	100
2475.289	1.586	1586.0	regulate	Run3	regulate/STIM_029.jpg	100
2479.403	2.206	2206.4	regulate	Run3	regulate/STIM_029.jpg	99
2483.598	2.821	2821.4	regulate	Run3	regulate/STIM_029.jpg	99
2487.984	1.669	1669.1	observe	Run3	observe/STIM_000.jpg	99
2492.057	1.621	1620.6	observe	Run3	observe/STIM_000.jpg	100
2496.594	1.014	1014.0	observe	Run3	observe/STIM_000.jpg	100
2499.618	1.658	1658.2	observe	Run3	observe/STIM_000.jpg	99
2503.767	1.2	1199.5	observe	Run3	observe/STIM_001.jpg	99
2507.613	1.294	1294.2	observe	Run3	observe/STIM_001.jpg	99
2512.328	1.094	1094.2	observe	Run3	observe/STIM_001.jpg	99
2517.15	1.689	1688.9	observe	Run3	observe/STIM_001.jpg	99
2521.018	1.754	1754.2	observe	Run3	observe/STIM_002.jpg	99
2525.324	1.422	1421.9	observe	Run3	observe/STIM_002.jpg	100
2530.216	1.22	1219.5	observe	Run3	observe/STIM_002.jpg	99
2533.674	1.648	1647.6	observe	Run3	observe/STIM_002.jpg	99
2537.544	1.525	1525.2	observe	Run3	observe/STIM_003.jpg	100
2540.959	0.903	903.0	observe	Run3	observe/STIM_003.jpg	100
2544.296	0.945	945.0	observe	Run3	observe/STIM_003.jpg	100
2548.496	1.204	1204.2	observe	Run3	observe/STIM_003.jpg	100
2552.703	1.042	1041.7	observe	Run3	observe/STIM_004.jpg	100
2555.774	1.652	1652.1	observe	Run3	observe/STIM_004.jpg	99
2560.474	1.739	1738.8	observe	Run3	observe/STIM_004.jpg	100
2565.297	0.993	992.9	observe	Run3	observe/STIM_004.jpg	99
2569.933	1.398	1397.5	observe	Run3	observe/STIM_005.jpg	100
2575.112	1.204	1203.9	observe	Run3	observe/STIM_005.jpg	100
2579.384	1.553	1552.7	observe	Run3	observe/STIM_005.jpg	100
2583.133	1.514	1513.7	observe	Run3	observe/STIM_005.jpg	100
2586.545	1.617	1616.7	observe	Run3	observe/STIM_006.jpg	100
2591.322	1.422	1422.4	observe	Run3	observe/STIM_006.jpg	99
2596.277	1.682	1681.9	observe	Run3	observe/STIM_006.jpg	100
2601.092	1.39	1390.4	observe	Run3	observe/STIM_006.jpg	99
2604.793	0.946	945.9	observe	Run3	observe/STIM_007.jpg	100
2608.509	1.781	1781.0	observe	Run3	observe/STIM_007.jpg	99
2612.939	1.465	1465.2	observe	Run3	observe/STIM_007.jpg	100
2616.312	1.726	1725.8	observe	Run3	observe/STIM_007.jpg	99
2620.679	1.268	1267.9	observe	Run3	observe/STIM_008.jpg	99
2624.273	1.51	1510.3	observe	Run3	observe/STIM_008.jpg	100
2628.602	1.832	1832.5	observe	Run3	observe/STIM_008.jpg	100
2633.008	1.717	1716.6	observe	Run3	observe/STIM_008.jpg	99
2637.556	1.118	1118.5	observe	Run3	observe/STIM_009.jpg	99
2640.575	1.247	1247.3	observe	Run3	observe/STIM_009.jpg	99
2644.705	1.168	1167.8	observe	Run3	observe/STIM_009.jpg	100
2649.673	1.887	1887.4	observe	Run3	observe/STIM_009.jpg	100
2655.082	1.228	1228.1	observe	Run3	observe/STIM_010.jpg	99
2658.924	1.138	1138.0	observe	Run3	observe/STIM_010.jpg	100
2662.585	0.936	935.5	observe	Run3	observe/STIM_010.jpg	100
2666.492	1.146	1146.2	observe	Run3	observe/STIM_010.jpg	100
2671.359	1.537	1537.0	observe	Run3	observe/STIM_011.jpg	100
2674.858	1.07	1069.8	observe	Run3	observe/STIM_011.jpg	99
2678.454	1.673	1673.1	observe	Run3	observe/STIM_011.jpg	100
2682.96	1.605	1605.2	observe	Run3	observe/STIM_011.jpg	100
2687.185	1.098	1098.1	observe	Run3	observe/STIM_012.jpg	100
2692.086	1.14	1139.5	observe	Run3	observe/STIM_012.jpg	100
2695.18	1.265	1264.6	observe	Run3	observe/STIM_012.jpg	100
2698.429	1.684	1683.7	observe	Run3	observe/STIM_012.jpg	99
2701.925	0.967	967.4	observe	Run3	observe/STIM_013.jpg	99
2704.846	1.513	1513.4	observe	Run3	observe/STIM_013.jpg	100
2708.606	1.417	1416.6	observe	Run3	observe/STIM_013.jpg	100
2713.115	1.138	1137.6	observe	Run3	observe/STIM_013.jpg	99
2716.837	1.737	1737.4	observe	Run3	observe/STIM_014.jpg	100
2721.189	1.185	1185.1	observe	Run3	observe/STIM_014.jpg	99
2725.502	1.911	1910.7	observe	Run3	observe/STIM_014.jpg	100
2730.332	1.726	1726.3	observe	Run3	observe/STIM_014.jpg	99
2735.721	1.376	1376.5	observe	Run3	observe/STIM_015.jpg	100
2739.379	1.313	1313.1	observe	Run3	observe/STIM_015.jpg	99
2744.323	1.214	1214.1	observe	Run3	observe/STIM_015.jpg	100
2747.65	0.984	984.0	observe	Run3	observe/STIM_015.jpg	100
2752.17	1.356	1355.5	observe	Run3	observe/STIM_016.jpg	100
2757.262	1.489	1489.4	observe	Run3	observe/STIM_016.jpg	100
2760.598	1.758	1758.1	observe	Run3	observe/STIM_016.jpg	100
2764.465	1.627	1626.7	observe	Run3	observe/STIM_016.jpg	99
2769.762	1.358	1358.0	observe	Run3	observe/STIM_017.jpg	99
2773.936	1.503	1503.3	observe	Run3	observe/STIM_017.jpg	100
2778.665	1.218	1217.6	observe	Run3	observe/STIM_017.jpg	100
2783.064	1.633	1632.9	observe	Run3	observe/STIM_017.jpg	99
2787.637	1.117	1116.6	observe	Run3	observe/STIM_018.jpg	100
2792.577	1.609	1608.7	observe	Run3	observe/STIM_018.jpg	99
2797.08	1.168	1168.3	observe	Run3	observe/STIM_018.jpg	99
2801.292	1.18	1179.7	observe	Run3	observe/STIM_018.jpg	100
2804.698	0.919	918.6	observe	Run3	observe/STIM_019.jpg	99
2807.964	1.354	1354.3	observe	Run3	observe/STIM_019.jpg	100
2812.577	1.533	1533.2	observe	Run3	observe/STIM_019.jpg	99
2817.852	1.054	1054.2	observe	Run3	observe/STIM_019.jpg	100
