onset	duration	accuracy	trial_type	learning_stage	stimulus
0.0	2.625	correct	regulate	Run1	regulate/STIM_000.jpg
5.397	2.826	correct	regulate	Run1	regulate/STIM_000.jpg
11.24	3.063	correct	regulate	Run1	regulate/STIM_000.jpg
15.978	1.515	correct	regulate	Run1	regulate/STIM_000.jpg
19.644	2.012	correct	regulate	Run1	regulate/STIM_001.jpg
24.313	2.333	incorrect	regulate	Run1	regulate/STIM_001.jpg
29.475	2.803	correct	regulate	Run1	regulate/STIM_001.jpg
34.464	2.694	correct	regulate	Run1	regulate/STIM_001.jpg
39.791	2.9	incorrect	regulate	Run1	regulate/STIM_002.jpg
44.906	3.069	correct	regulate	Run1	regulate/STIM_002.jpg
51.475	3.286	incorrect	regulate	Run1	regulate/STIM_002.jpg
56.428	1.903	correct	regulate	Run1	regulate/STIM_002.jpg
61.364	2.797	correct	regulate	Run1	regulate/STIM_003.jpg
67.15	3.105	correct	regulate	Run1	regulate/STIM_003.jpg
72.724	2.846	correct	regulate	Run1	regulate/STIM_003.jpg
77.927	2.187	correct	regulate	Run1	regulate/STIM_003.jpg
81.872	3.428	correct	regulate	Run1	regulate/STIM_004.jpg
87.462	1.791	correct	regulate	Run1	regulate/STIM_004.jpg
91.462	2.163	correct	regulate	Run1	regulate/STIM_004.jpg
96.834	3.322	correct	regulate	Run1	regulate/STIM_004.jpg
102.514	3.136	correct	regulate	Run1	regulate/STIM_005.jpg
108.004	2.167	incorrect	regulate	Run1	regulate/STIM_005.jpg
113.624	3.123	correct	regulate	Run1	regulate/STIM_005.jpg
120.385	2.007	correct	regulate	Run1	regulate/STIM_005.jpg
125.098	1.852	correct	regulate	Run1	regulate/STIM_006.jpg
129.701	1.62	correct	regulate	Run1	regulate/STIM_006.jpg
133.222	2.927	correct	regulate	Run1	regulate/STIM_006.jpg
139.606	2.988	correct	regulate	Run1	regulate/STIM_006.jpg
145.386	2.575	correct	regulate	Run1	regulate/STIM_007.jpg
150.971	2.313	correct	regulate	Run1	regulate/STIM_007.jpg
156.856	2.94	correct	regulate	Run1	regulate/STIM_007.jpg
163.169	3.293	correct	regulate	Run1	regulate/STIM_007.jpg
168.401	3.135	correct	regulate	Run1	regulate/STIM_008.jpg
173.157	3.342	correct	regulate	Run1	regulate/STIM_008.jpg
179.488	3.33	correct	regulate	Run1	regulate/STIM_008.jpg
186.346	2.739	incorrect	regulate	Run1	regulate/STIM_008.jpg
191.899	2.806	correct	regulate	Run1	regulate/STIM_009.jpg
197.943	3.479	correct	regulate	Run1	regulate/STIM_009.jpg
204.836	1.645	correct	regulate	Run1	regulate/STIM_009.jpg
208.463	2.121	correct	regulate	Run1	regulate/STIM_009.jpg
213.04	3.299	correct	regulate	Run1	regulate/STIM_010.jpg
219.255	2.491	correct	regulate	Run1	regulate/STIM_010.jpg
223.916	2.474	correct	regulate	Run1	regulate/STIM_010.jpg
228.495	1.653	correct	regulate	Run1	regulate/STIM_010.jpg
233.644	3.698	incorrect	regulate	Run1	regulate/STIM_011.jpg
239.726	2.939	correct	regulate	Run1	regulate/STIM_011.jpg
245.89	2.895	correct	regulate	Run1	regulate/STIM_011.jpg
252.28	1.903	correct	regulate	Run1	regulate/STIM_011.jpg
256.309	3.826	incorrect	regulate	Run1	regulate/STIM_012.jpg
263.076	2.006	correct	regulate	Run1	regulate/STIM_012.jpg
267.871	3.555	correct	regulate	Run1	regulate/STIM_012.jpg
273.974	2.198	correct	regulate	Run1	regulate/STIM_012.jpg
279.841	3.609	correct	regulate	Run1	regulate/STIM_013.jpg
286.007	3.632	correct	regulate	Run1	regulate/STIM_013.jpg
292.948	2.324	incorrect	regulate	Run1	regulate/STIM_013.jpg
297.361	1.846	incorrect	regulate	Run1	regulate/STIM_013.jpg
302.478	2.203	correct	regulate	Run1	regulate/STIM_014.jpg
308.354	3.544	correct	regulate	Run1	regulate/STIM_014.jpg
313.877	2.117	correct	regulate	Run1	regulate/STIM_014.jpg
318.096	2.754	correct	regulate	Run1	regulate/STIM_014.jpg
323.302	2.893	correct	regulate	Run1	regulate/STIM_015.jpg
328.523	1.917	correct	regulate	Run1	regulate/STIM_015.jpg
332.535	2.447	correct	regulate	Run1	regulate/STIM_015.jpg
337.409	3.101	correct	regulate	Run1	regulate/STIM_015.jpg
342.473	3.645	incorrect	regulate	Run1	regulate/STIM_016.jpg
348.868	1.798	correct	regulate	Run1	regulate/STIM_016.jpg
352.803	2.761	correct	regulate	Run1	regulate/STIM_016.jpg
358.866	1.604	correct	regulate	Run1	regulate/STIM_016.jpg
364.101	2.018	incorrect	regulate	Run1	regulate/STIM_017.jpg
369.33	2.363	correct	regulate	Run1	regulate/STIM_017.jpg
373.812	2.439	incorrect	regulate	Run1	regulate/STIM_017.jpg
377.994	2.432	correct	regulate	Run1	regulate/STIM_017.jpg
383.825	3.148	correct	regulate	Run1	regulate/STIM_018.jpg
390.258	2.216	incorrect	regulate	Run1	regulate/STIM_018.jpg
394.576	2.978	correct	regulate	Run1	regulate/STIM_018.jpg
400.568	3.223	correct	regulate	Run1	regulate/STIM_018.jpg
406.356	2.783	incorrect	regulate	Run1	regulate/STIM_019.jpg
412.225	3.135	incorrect	regulate	Run1	regulate/STIM_019.jpg
417.73	1.986	correct	regulate	Run1	regulate/STIM_019.jpg
421.59	3.344	correct	regulate	Run1	regulate/STIM_019.jpg
427.162	1.635	correct	regulate	Run1	regulate/STIM_020.jpg
430.747	3.76	correct	regulate	Run1	regulate/STIM_020.jpg
437.253	1.685	correct	regulate	Run1	regulate/STIM_020.jpg
442.539	1.804	correct	regulate	Run1	regulate/STIM_020.jpg
448.164	2.079	correct	regulate	Run1	regulate/STIM_021.jpg
452.433	3.208	correct	regulate	Run1	regulate/STIM_021.jpg
457.441	2.3	correct	regulate	Run1	regulate/STIM_021.jpg
463.404	2.897	correct	regulate	Run1	regulate/STIM_021.jpg
468.026	3.109	correct	regulate	Run1	regulate/STIM_022.jpg
473.433	2.582	correct	regulate	Run1	regulate/STIM_022.jpg
478.315	3.315	correct	regulate	Run1	regulate/STIM_022.jpg
483.732	2.344	correct	regulate	Run1	regulate/STIM_022.jpg
489.729	3.988	incorrect	regulate	Run1	regulate/STIM_023.jpg
496.541	3.432	correct	regulate	Run1	regulate/STIM_023.jpg
503.209	2.219	incorrect	regulate	Run1	regulate/STIM_023.jpg
508.33	2.614	correct	regulate	Run1	regulate/STIM_023.jpg
513.938	3.796	incorrect	regulate	Run1	regulate/STIM_024.jpg
520.319	1.692	correct	regulate	Run1	regulate/STIM_024.jpg
524.696	2.043	correct	regulate	Run1	regulate/STIM_024.jpg
529.091	2.138	correct	regulate	Run1	regulate/STIM_024.jpg
533.212	3.351	correct	regulate	Run1	regulate/STIM_025.jpg
540.038	3.166	correct	regulate	Run1	regulate/STIM_025.jpg
546.528	3.581	correct	regulate	Run1	regulate/STIM_025.jpg
552.801	2.893	correct	regulate	Run1	regulate/STIM_025.jpg
558.427	3.095	correct	regulate	Run1	regulate/STIM_026.jpg
563.145	1.964	correct	regulate	Run1	regulate/STIM_026.jpg
567.429	1.879	correct	regulate	Run1	regulate/STIM_026.jpg
572.574	1.914	correct	regulate	Run1	regulate/STIM_026.jpg
577.964	2.129	correct	regulate	Run1	regulate/STIM_027.jpg
582.963	2.106	incorrect	regulate	Run1	regulate/STIM_027.jpg
588.314	3.396	correct	regulate	Run1	regulate/STIM_027.jpg
594.154	2.79	correct	regulate	Run1	regulate/STIM_027.jpg
599.055	3.504	incorrect	regulate	Run1	regulate/STIM_028.jpg
604.322	3.496	correct	regulate	Run1	regulate/STIM_028.jpg
610.477	2.544	correct	regulate	Run1	regulate/STIM_028.jpg
615.343	2.122	correct	regulate	Run1	regulate/STIM_028.jpg
619.229	2.77	incorrect	regulate	Run1	regulate/STIM_029.jpg
623.744	3.076	correct	regulate	Run1	regulate/STIM_029.jpg
629.008	3.013	correct	regulate	Run1	regulate/STIM_029.jpg
635.282	2.999	correct	regulate	Run1	regulate/STIM_029.jpg
640.786	1.704	correct	observe	Run1	observe/STIM_000.jpg
644.988	1.002	correct	observe	Run1	observe/STIM_000.jpg
649.619	1.813	correct	observe	Run1	observe/STIM_000.jpg
654.265	1.585	correct	observe	Run1	observe/STIM_000.jpg
657.809	1.717	correct	observe	Run1	observe/STIM_001.jpg
661.913	1.49	correct	observe	Run1	observe/STIM_001.jpg
665.594	1.35	correct	observe	Run1	observe/STIM_001.jpg
669.659	1.75	correct	observe	Run1	observe/STIM_001.jpg
674.214	1.115	correct	observe	Run1	observe/STIM_002.jpg
678.201	1.242	correct	observe	Run1	observe/STIM_002.jpg
681.971	1.182	correct	observe	Run1	observe/STIM_002.jpg
686.332	1.267	correct	observe	Run1	observe/STIM_002.jpg
690.325	0.932	correct	observe	Run1	observe/STIM_003.jpg
695.081	1.631	correct	observe	Run1	observe/STIM_003.jpg
699.473	1.517	correct	observe	Run1	observe/STIM_003.jpg
704.435	1.175	correct	observe	Run1	observe/STIM_003.jpg
707.98	1.373	correct	observe	Run1	observe/STIM_004.jpg
712.594	1.24	correct	observe	Run1	observe/STIM_004.jpg
717.502	1.41	correct	observe	Run1	observe/STIM_004.jpg
721.092	1.752	correct	observe	Run1	observe/STIM_004.jpg
725.872	1.642	correct	observe	Run1	observe/STIM_005.jpg
730.433	1.081	correct	observe	Run1	observe/STIM_005.jpg
734.874	1.128	correct	observe	Run1	observe/STIM_005.jpg
739.125	1.034	correct	observe	Run1	observe/STIM_005.jpg
742.382	1.398	correct	observe	Run1	observe/STIM_006.jpg
746.613	1.722	correct	observe	Run1	observe/STIM_006.jpg
751.85	1.202	correct	observe	Run1	observe/STIM_006.jpg
755.68	1.236	incorrect	observe	Run1	observe/STIM_006.jpg
759.989	1.202	incorrect	observe	Run1	observe/STIM_007.jpg
764.388	1.067	correct	observe	Run1	observe/STIM_007.jpg
768.334	1.577	incorrect	observe	Run1	observe/STIM_007.jpg
773.159	1.216	correct	observe	Run1	observe/STIM_007.jpg
777.68	1.002	correct	observe	Run1	observe/STIM_008.jpg
781.596	1.588	correct	observe	Run1	observe/STIM_008.jpg
786.685	1.41	correct	observe	Run1	observe/STIM_008.jpg
790.848	1.279	correct	observe	Run1	observe/STIM_008.jpg
794.505	1.548	correct	observe	Run1	observe/STIM_009.jpg
799.513	1.744	correct	observe	Run1	observe/STIM_009.jpg
803.68	1.803	correct	observe	Run1	observe/STIM_009.jpg
807.803	1.232	correct	observe	Run1	observe/STIM_009.jpg
811.179	1.808	correct	observe	Run1	observe/STIM_010.jpg
815.019	1.771	correct	observe	Run1	observe/STIM_010.jpg
819.608	1.7	correct	observe	Run1	observe/STIM_010.jpg
824.716	1.091	correct	observe	Run1	observe/STIM_010.jpg
828.153	1.372	correct	observe	Run1	observe/STIM_011.jpg
831.4	1.403	correct	observe	Run1	observe/STIM_011.jpg
835.398	1.545	correct	observe	Run1	observe/STIM_011.jpg
839.74	1.696	correct	observe	Run1	observe/STIM_011.jpg
843.344	1.518	correct	observe	Run1	observe/STIM_012.jpg
846.858	1.09	correct	observe	Run1	observe/STIM_012.jpg
851.177	1.767	correct	observe	Run1	observe/STIM_012.jpg
855.924	1.684	correct	observe	Run1	observe/STIM_012.jpg
860.052	0.98	correct	observe	Run1	observe/STIM_013.jpg
864.218	1.426	correct	observe	Run1	observe/STIM_013.jpg
869.305	1.375	incorrect	observe	Run1	observe/STIM_013.jpg
874.349	1.19	correct	observe	Run1	observe/STIM_013.jpg
877.672	0.961	correct	observe	Run1	observe/STIM_014.jpg
881.952	0.935	incorrect	observe	Run1	observe/STIM_014.jpg
885.756	1.233	correct	observe	Run1	observe/STIM_014.jpg
889.76	1.66	correct	observe	Run1	observe/STIM_014.jpg
895.16	1.568	correct	observe	Run1	observe/STIM_015.jpg
900.331	1.7	correct	observe	Run1	observe/STIM_015.jpg
905.181	1.666	correct	observe	Run1	observe/STIM_015.jpg
909.892	1.009	correct	observe	Run1	observe/STIM_015.jpg
913.739	1.571	correct	observe	Run1	observe/STIM_016.jpg
918.588	1.041	incorrect	observe	Run1	observe/STIM_016.jpg
922.204	1.362	incorrect	observe	Run1	observe/STIM_016.jpg
925.851	1.606	correct	observe	Run1	observe/STIM_016.jpg
930.775	1.333	correct	observe	Run1	observe/STIM_017.jpg
934.026	1.741	correct	observe	Run1	observe/STIM_017.jpg
938.519	1.81	correct	observe	Run1	observe/STIM_017.jpg
944.034	1.43	correct	observe	Run1	observe/STIM_017.jpg
948.27	1.775	correct	observe	Run1	observe/STIM_018.jpg
952.93	1.567	incorrect	observe	Run1	observe/STIM_018.jpg
958.112	1.466	incorrect	observe	Run1	observe/STIM_018.jpg
961.493	1.513	correct	observe	Run1	observe/STIM_018.jpg
966.829	1.202	correct	observe	Run1	observe/STIM_019.jpg
971.546	1.03	correct	observe	Run1	observe/STIM_019.jpg
975.53	1.04	incorrect	observe	Run1	observe/STIM_019.jpg
979.825	1.203	correct	observe	Run1	observe/STIM_019.jpg
983.037	1.452	correct	regulate	Run2	regulate/STIM_000.jpg
986.442	1.452	correct	regulate	Run2	regulate/STIM_000.jpg
990.416	1.936	correct	regulate	Run2	regulate/STIM_000.jpg
994.241	1.912	correct	regulate	Run2	regulate/STIM_000.jpg
999.571	1.574	correct	regulate	Run2	regulate/STIM_001.jpg
1003.558	2.438	correct	regulate	Run2	regulate/STIM_001.jpg
1009.373	1.402	incorrect	regulate	Run2	regulate/STIM_001.jpg
1013.727	1.392	correct	regulate	Run2	regulate/STIM_001.jpg
1018.419	3.145	correct	regulate	Run2	regulate/STIM_002.jpg
1023.646	2.08	correct	regulate	Run2	regulate/STIM_002.jpg
1028.121	2.758	correct	regulate	Run2	regulate/STIM_002.jpg
1033.291	1.34	correct	regulate	Run2	regulate/STIM_002.jpg
1037.311	2.568	correct	regulate	Run2	regulate/STIM_003.jpg
1043.337	2.13	correct	regulate	Run2	regulate/STIM_003.jpg
1047.922	2.695	correct	regulate	Run2	regulate/STIM_003.jpg
1052.577	1.337	correct	regulate	Run2	regulate/STIM_003.jpg
1057.449	2.159	incorrect	regulate	Run2	regulate/STIM_004.jpg
1062.049	2.013	correct	regulate	Run2	regulate/STIM_004.jpg
1066.729	1.569	correct	regulate	Run2	regulate/STIM_004.jpg
1070.318	2.074	correct	regulate	Run2	regulate/STIM_004.jpg
1075.116	2.61	correct	regulate	Run2	regulate/STIM_005.jpg
1079.914	1.642	correct	regulate	Run2	regulate/STIM_005.jpg
1083.61	1.304	correct	regulate	Run2	regulate/STIM_005.jpg
1087.014	1.381	correct	regulate	Run2	regulate/STIM_005.jpg
1092.061	2.228	correct	regulate	Run2	regulate/STIM_006.jpg
1096.35	2.662	incorrect	regulate	Run2	regulate/STIM_006.jpg
1102.522	2.595	correct	regulate	Run2	regulate/STIM_006.jpg
1108.607	1.269	correct	regulate	Run2	regulate/STIM_006.jpg
1112.259	1.498	correct	regulate	Run2	regulate/STIM_007.jpg
1117.295	3.076	correct	regulate	Run2	regulate/STIM_007.jpg
1123.175	1.808	correct	regulate	Run2	regulate/STIM_007.jpg
1127.272	2.017	correct	regulate	Run2	regulate/STIM_007.jpg
1132.214	1.702	correct	regulate	Run2	regulate/STIM_008.jpg
1136.877	2.673	correct	regulate	Run2	regulate/STIM_008.jpg
1142.813	2.842	correct	regulate	Run2	regulate/STIM_008.jpg
1148.514	1.242	correct	regulate	Run2	regulate/STIM_008.jpg
1152.2	2.986	correct	regulate	Run2	regulate/STIM_009.jpg
1157.604	2.693	correct	regulate	Run2	regulate/STIM_009.jpg
1162.512	2.533	correct	regulate	Run2	regulate/STIM_009.jpg
1168.48	2.505	correct	regulate	Run2	regulate/STIM_009.jpg
1174.03	1.47	correct	regulate	Run2	regulate/STIM_010.jpg
1178.971	3.043	correct	regulate	Run2	regulate/STIM_010.jpg
1184.374	1.593	correct	regulate	Run2	regulate/STIM_010.jpg
1189.674	1.705	correct	regulate	Run2	regulate/STIM_010.jpg
1194.62	1.817	correct	regulate	Run2	regulate/STIM_011.jpg
1199.999	2.143	correct	regulate	Run2	regulate/STIM_011.jpg
1204.194	2.694	correct	regulate	Run2	regulate/STIM_011.jpg
1208.716	1.811	correct	regulate	Run2	regulate/STIM_011.jpg
1212.747	1.682	incorrect	regulate	Run2	regulate/STIM_012.jpg
1216.938	3.126	correct	regulate	Run2	regulate/STIM_012.jpg
1222.462	2.877	correct	regulate	Run2	regulate/STIM_012.jpg
1228.927	1.429	correct	regulate	Run2	regulate/STIM_012.jpg
1232.449	2.012	correct	regulate	Run2	regulate/STIM_013.jpg
1238.263	3.116	correct	regulate	Run2	regulate/STIM_013.jpg
1244.016	1.626	correct	regulate	Run2	regulate/STIM_013.jpg
1249.283	2.441	correct	regulate	Run2	regulate/STIM_013.jpg
1253.539	3.278	correct	regulate	Run2	regulate/STIM_014.jpg
1259.007	2.558	correct	regulate	Run2	regulate/STIM_014.jpg
1265.213	2.323	correct	regulate	Run2	regulate/STIM_014.jpg
1269.605	2.666	correct	regulate	Run2	regulate/STIM_014.jpg
1274.705	2.409	correct	regulate	Run2	regulate/STIM_015.jpg
1278.989	1.682	correct	regulate	Run2	regulate/STIM_015.jpg
1282.449	1.754	correct	regulate	Run2	regulate/STIM_015.jpg
1286.989	1.519	correct	regulate	Run2	regulate/STIM_015.jpg
1291.428	3.377	correct	regulate	Run2	regulate/STIM_016.jpg
1296.574	2.912	correct	regulate	Run2	regulate/STIM_016.jpg
1302.933	1.325	correct	regulate	Run2	regulate/STIM_016.jpg
1306.916	2.357	correct	regulate	Run2	regulate/STIM_016.jpg
1311.23	2.669	correct	regulate	Run2	regulate/STIM_017.jpg
1316.733	1.705	correct	regulate	Run2	regulate/STIM_017.jpg
1322.204	1.448	correct	regulate	Run2	regulate/STIM_017.jpg
1325.617	2.214	correct	regulate	Run2	regulate/STIM_017.jpg
1330.693	2.197	correct	regulate	Run2	regulate/STIM_018.jpg
1335.884	3.095	correct	regulate	Run2	regulate/STIM_018.jpg
1342.308	1.242	correct	regulate	Run2	regulate/STIM_018.jpg
1346.313	2.146	correct	regulate	Run2	regulate/STIM_018.jpg
1350.743	3.029	correct	regulate	Run2	regulate/STIM_019.jpg
1356.011	2.421	correct	regulate	Run2	regulate/STIM_019.jpg
1360.386	2.051	correct	regulate	Run2	regulate/STIM_019.jpg
1365.03	2.468	correct	regulate	Run2	regulate/STIM_019.jpg
1370.085	3.294	correct	regulate	Run2	regulate/STIM_020.jpg
1376.559	2.644	correct	regulate	Run2	regulate/STIM_020.jpg
1382.791	2.588	correct	regulate	Run2	regulate/STIM_020.jpg
1387.58	2.444	correct	regulate	Run2	regulate/STIM_020.jpg
1392.507	1.482	correct	regulate	Run2	regulate/STIM_021.jpg
1396.373	3.047	correct	regulate	Run2	regulate/STIM_021.jpg
1401.664	2.082	correct	regulate	Run2	regulate/STIM_021.jpg
1405.826	2.236	correct	regulate	Run2	regulate/STIM_021.jpg
1411.615	2.042	incorrect	regulate	Run2	regulate/STIM_022.jpg
1415.437	1.398	correct	regulate	Run2	regulate/STIM_022.jpg
1420.02	2.637	correct	regulate	Run2	regulate/STIM_022.jpg
1426.368	2.532	correct	regulate	Run2	regulate/STIM_022.jpg
1432.037	2.169	correct	regulate	Run2	regulate/STIM_023.jpg
1437.636	2.666	correct	regulate	Run2	regulate/STIM_023.jpg
1443.206	1.253	correct	regulate	Run2	regulate/STIM_023.jpg
1446.371	2.556	correct	regulate	Run2	regulate/STIM_023.jpg
1452.335	1.528	correct	regulate	Run2	regulate/STIM_024.jpg
1456.877	1.424	incorrect	regulate	Run2	regulate/STIM_024.jpg
1461.866	2.392	incorrect	regulate	Run2	regulate/STIM_024.jpg
1466.401	1.269	correct	regulate	Run2	regulate/STIM_024.jpg
1471.036	1.757	correct	regulate	Run2	regulate/STIM_025.jpg
1475.294	3.147	correct	regulate	Run2	regulate/STIM_025.jpg
1480.72	1.408	correct	regulate	Run2	regulate/STIM_025.jpg
1483.986	1.467	correct	regulate	Run2	regulate/STIM_025.jpg
1489.048	2.284	correct	regulate	Run2	regulate/STIM_026.jpg
1494.506	2.619	incorrect	regulate	Run2	regulate/STIM_026.jpg
1499.194	2.498	correct	regulate	Run2	regulate/STIM_026.jpg
1503.89	2.364	correct	regulate	Run2	regulate/STIM_026.jpg
1509.667	2.64	incorrect	regulate	Run2	regulate/STIM_027.jpg
1514.896	2.796	incorrect	regulate	Run2	regulate/STIM_027.jpg
1520.843	2.701	correct	regulate	Run2	regulate/STIM_027.jpg
1525.459	1.973	correct	regulate	Run2	regulate/STIM_027.jpg
1530.611	2.44	correct	regulate	Run2	regulate/STIM_028.jpg
1536.64	3.068	correct	regulate	Run2	regulate/STIM_028.jpg
1543.209	2.616	correct	regulate	Run2	regulate/STIM_028.jpg
1548.713	2.081	correct	regulate	Run2	regulate/STIM_028.jpg
1553.616	2.821	correct	regulate	Run2	regulate/STIM_029.jpg
1558.041	2.838	correct	regulate	Run2	regulate/STIM_029.jpg
1563.117	2.492	correct	regulate	Run2	regulate/STIM_029.jpg
1568.858	1.438	correct	regulate	Run2	regulate/STIM_029.jpg
1572.908	1.202	correct	observe	Run2	observe/STIM_000.jpg
1577.719	1.698	incorrect	observe	Run2	observe/STIM_000.jpg
1581.318	1.086	correct	observe	Run2	observe/STIM_000.jpg
1584.406	1.464	correct	observe	Run2	observe/STIM_000.jpg
1588.871	1.28	correct	observe	Run2	observe/STIM_001.jpg
1593.57	1.735	correct	observe	Run2	observe/STIM_001.jpg
1597.529	1.113	correct	observe	Run2	observe/STIM_001.jpg
1602.135	0.897	correct	observe	Run2	observe/STIM_001.jpg
1606.231	1.098	incorrect	observe	Run2	observe/STIM_002.jpg
1610.596	1.257	correct	observe	Run2	observe/STIM_002.jpg
1614.199	1.005	correct	observe	Run2	observe/STIM_002.jpg
1618.387	1.679	correct	observe	Run2	observe/STIM_002.jpg
1622.911	1.388	correct	observe	Run2	observe/STIM_003.jpg
1627.214	1.313	correct	observe	Run2	observe/STIM_003.jpg
1631.926	1.663	correct	observe	Run2	observe/STIM_003.jpg
1637.185	1.663	correct	observe	Run2	observe/STIM_003.jpg
1641.725	1.08	correct	observe	Run2	observe/STIM_004.jpg
1645.471	1.27	correct	observe	Run2	observe/STIM_004.jpg
1650.198	0.995	correct	observe	Run2	observe/STIM_004.jpg
1653.86	0.986	correct	observe	Run2	observe/STIM_004.jpg
1657.041	1.014	correct	observe	Run2	observe/STIM_005.jpg
1661.946	1.024	correct	observe	Run2	observe/STIM_005.jpg
1665.779	1.688	correct	observe	Run2	observe/STIM_005.jpg
1671.224	1.242	correct	observe	Run2	observe/STIM_005.jpg
1675.714	1.153	incorrect	observe	Run2	observe/STIM_006.jpg
1679.898	1.282	correct	observe	Run2	observe/STIM_006.jpg
1683.72	1.705	correct	observe	Run2	observe/STIM_006.jpg
1687.816	1.042	correct	observe	Run2	observe/STIM_006.jpg
1691.454	1.496	correct	observe	Run2	observe/STIM_007.jpg
1695.279	1.679	incorrect	observe	Run2	observe/STIM_007.jpg
1700.043	1.35	correct	observe	Run2	observe/STIM_007.jpg
1704.859	1.77	correct	observe	Run2	observe/STIM_007.jpg
1709.562	1.076	correct	observe	Run2	observe/STIM_008.jpg
1713.808	0.917	correct	observe	Run2	observe/STIM_008.jpg
1717.07	0.925	correct	observe	Run2	observe/STIM_008.jpg
1721.051	1.648	correct	observe	Run2	observe/STIM_008.jpg
1725.295	1.557	correct	observe	Run2	observe/STIM_009.jpg
1730.604	1.113	incorrect	observe	Run2	observe/STIM_009.jpg
1735.196	1.385	correct	observe	Run2	observe/STIM_009.jpg
1739.722	1.199	correct	observe	Run2	observe/STIM_009.jpg
1744.004	1.574	correct	observe	Run2	observe/STIM_010.jpg
1747.971	1.39	correct	observe	Run2	observe/STIM_010.jpg
1753.219	1.325	incorrect	observe	Run2	observe/STIM_010.jpg
1756.473	1.802	correct	observe	Run2	observe/STIM_010.jpg
1760.641	1.797	incorrect	observe	Run2	observe/STIM_011.jpg
1766.162	0.971	incorrect	observe	Run2	observe/STIM_011.jpg
1770.826	1.678	correct	observe	Run2	observe/STIM_011.jpg
1775.728	1.63	correct	observe	Run2	observe/STIM_011.jpg
1780.022	1.225	correct	observe	Run2	observe/STIM_012.jpg
1785.135	1.713	correct	observe	Run2	observe/STIM_012.jpg
1790.473	1.697	correct	observe	Run2	observe/STIM_012.jpg
1794.355	1.129	correct	observe	Run2	observe/STIM_012.jpg
1797.766	1.2	correct	observe	Run2	observe/STIM_013.jpg
1801.727	1.357	correct	observe	Run2	observe/STIM_013.jpg
1805.699	0.868	correct	observe	Run2	observe/STIM_013.jpg
1810.429	1.341	correct	observe	Run2	observe/STIM_013.jpg
1815.26	1.278	correct	observe	Run2	observe/STIM_014.jpg
1820.16	1.842	correct	observe	Run2	observe/STIM_014.jpg
1824.138	1.618	correct	observe	Run2	observe/STIM_014.jpg
1828.398	0.958	correct	observe	Run2	observe/STIM_014.jpg
1831.87	1.241	correct	observe	Run2	observe/STIM_015.jpg
1835.372	1.751	correct	observe	Run2	observe/STIM_015.jpg
1839.442	1.12	correct	observe	Run2	observe/STIM_015.jpg
1844.035	1.545	correct	observe	Run2	observe/STIM_015.jpg
1847.854	1.088	correct	observe	Run2	observe/STIM_016.jpg
1852.197	0.988	correct	observe	Run2	observe/STIM_016.jpg
1855.836	1.59	correct	observe	Run2	observe/STIM_016.jpg
1861.038	0.93	correct	observe	Run2	observe/STIM_016.jpg
1864.795	1.74	correct	observe	Run2	observe/STIM_017.jpg
1870.012	1.211	correct	observe	Run2	observe/STIM_017.jpg
1874.339	1.594	correct	observe	Run2	observe/STIM_017.jpg
1879.274	1.783	correct	observe	Run2	observe/STIM_017.jpg
1884.414	1.7	correct	observe	Run2	observe/STIM_018.jpg
1889.883	1.428	correct	observe	Run2	observe/STIM_018.jpg
1893.292	1.523	incorrect	observe	Run2	observe/STIM_018.jpg
1898.474	1.659	correct	observe	Run2	observe/STIM_018.jpg
1903.853	1.24	correct	observe	Run2	observe/STIM_019.jpg
1908.831	1.158	correct	observe	Run2	observe/STIM_019.jpg
1913.597	1.771	correct	observe	Run2	observe/STIM_019.jpg
1918.227	1.216	correct	observe	Run2	observe/STIM_019.jpg
1922.122	2.428	correct	regulate	Run3	regulate/STIM_000.jpg
1926.256	1.353	correct	regulate	Run3	regulate/STIM_000.jpg
1929.88	1.841	correct	regulate	Run3	regulate/STIM_000.jpg
1933.881	2.23	correct	regulate	Run3	regulate/STIM_000.jpg
1939.854	1.797	incorrect	regulate	Run3	regulate/STIM_001.jpg
1944.102	2.261	correct	regulate	Run3	regulate/STIM_001.jpg
1949.177	2.732	incorrect	regulate	Run3	regulate/STIM_001.jpg
1953.813	2.042	correct	regulate	Run3	regulate/STIM_001.jpg
1958.84	1.184	correct	regulate	Run3	regulate/STIM_002.jpg
1962.677	2.336	correct	regulate	Run3	regulate/STIM_002.jpg
1967.206	1.918	correct	regulate	Run3	regulate/STIM_002.jpg
1972.666	1.906	correct	regulate	Run3	regulate/STIM_002.jpg
1978.311	2.166	correct	regulate	Run3	regulate/STIM_003.jpg
1983.25	1.904	correct	regulate	Run3	regulate/STIM_003.jpg
1988.473	1.844	correct	regulate	Run3	regulate/STIM_003.jpg
1992.473	2.3	correct	regulate	Run3	regulate/STIM_003.jpg
1997.4	1.603	correct	regulate	Run3	regulate/STIM_004.jpg
2002.055	2.669	correct	regulate	Run3	regulate/STIM_004.jpg
2006.43	2.53	correct	regulate	Run3	regulate/STIM_004.jpg
2010.888	1.405	correct	regulate	Run3	regulate/STIM_004.jpg
2014.545	2.401	correct	regulate	Run3	regulate/STIM_005.jpg
2019.157	1.56	correct	regulate	Run3	regulate/STIM_005.jpg
2023.958	2.145	incorrect	regulate	Run3	regulate/STIM_005.jpg
2028.127	1.785	correct	regulate	Run3	regulate/STIM_005.jpg
2031.973	2.65	correct	regulate	Run3	regulate/STIM_006.jpg
2037.009	2.587	correct	regulate	Run3	regulate/STIM_006.jpg
2042.819	2.365	correct	regulate	Run3	regulate/STIM_006.jpg
2046.997	2.215	correct	regulate	Run3	regulate/STIM_006.jpg
2051.691	2.816	correct	regulate	Run3	regulate/STIM_007.jpg
2056.926	2.404	correct	regulate	Run3	regulate/STIM_007.jpg
2061.951	1.523	correct	regulate	Run3	regulate/STIM_007.jpg
2065.972	2.299	correct	regulate	Run3	regulate/STIM_007.jpg
2071.856	2.073	correct	regulate	Run3	regulate/STIM_008.jpg
2077.64	2.41	correct	regulate	Run3	regulate/STIM_008.jpg
2082.556	1.716	correct	regulate	Run3	regulate/STIM_008.jpg
2087.748	1.701	correct	regulate	Run3	regulate/STIM_008.jpg
2091.793	1.588	correct	regulate	Run3	regulate/STIM_009.jpg
2096.93	2.74	correct	regulate	Run3	regulate/STIM_009.jpg
2101.953	1.633	correct	regulate	Run3	regulate/STIM_009.jpg
2106.876	1.348	correct	regulate	Run3	regulate/STIM_009.jpg
2110.269	1.443	correct	regulate	Run3	regulate/STIM_010.jpg
2115.284	1.371	correct	regulate	Run3	regulate/STIM_010.jpg
2120.101	1.977	correct	regulate	Run3	regulate/STIM_010.jpg
2123.985	1.776	correct	regulate	Run3	regulate/STIM_010.jpg
2128.329	2.623	correct	regulate	Run3	regulate/STIM_011.jpg
2133.603	2.147	correct	regulate	Run3	regulate/STIM_011.jpg
2137.481	2.222	correct	regulate	Run3	regulate/STIM_011.jpg
2142.332	2.471	correct	regulate	Run3	regulate/STIM_011.jpg
2147.947	2.222	correct	regulate	Run3	regulate/STIM_012.jpg
2153.76	1.526	correct	regulate	Run3	regulate/STIM_012.jpg
2157.852	2.676	correct	regulate	Run3	regulate/STIM_012.jpg
2164.018	1.676	correct	regulate	Run3	regulate/STIM_012.jpg
2168.809	2.324	incorrect	regulate	Run3	regulate/STIM_013.jpg
2173.249	1.086	correct	regulate	Run3	regulate/STIM_013.jpg
2177.689	1.204	correct	regulate	Run3	regulate/STIM_013.jpg
2182.238	2.239	correct	regulate	Run3	regulate/STIM_013.jpg
2186.969	2.642	correct	regulate	Run3	regulate/STIM_014.jpg
2192.724	2.28	correct	regulate	Run3	regulate/STIM_014.jpg
2196.75	2.426	correct	regulate	Run3	regulate/STIM_014.jpg
2201.068	1.454	correct	regulate	Run3	regulate/STIM_014.jpg
2205.765	2.174	correct	regulate	Run3	regulate/STIM_015.jpg
2210.11	1.539	correct	regulate	Run3	regulate/STIM_015.jpg
2215.096	2.245	correct	regulate	Run3	regulate/STIM_015.jpg
2219.568	1.329	correct	regulate	Run3	regulate/STIM_015.jpg
2224.249	1.903	correct	regulate	Run3	regulate/STIM_016.jpg
2228.684	1.303	correct	regulate	Run3	regulate/STIM_016.jpg
2233.449	2.188	correct	regulate	Run3	regulate/STIM_016.jpg
2238.126	1.93	correct	regulate	Run3	regulate/STIM_016.jpg
2243.085	1.818	correct	regulate	Run3	regulate/STIM_017.jpg
2247.529	1.957	correct	regulate	Run3	regulate/STIM_017.jpg
2252.813	2.362	correct	regulate	Run3	regulate/STIM_017.jpg
2257.466	2.048	correct	regulate	Run3	regulate/STIM_017.jpg
2262.806	1.793	incorrect	regulate	Run3	regulate/STIM_018.jpg
2268.352	2.692	correct	regulate	Run3	regulate/STIM_018.jpg
2274.117	2.619	correct	regulate	Run3	regulate/STIM_018.jpg
2278.827	2.134	correct	regulate	Run3	regulate/STIM_018.jpg
2283.988	1.767	correct	regulate	Run3	regulate/STIM_019.jpg
2287.847	1.517	correct	regulate	Run3	regulate/STIM_019.jpg
2291.424	2.002	correct	regulate	Run3	regulate/STIM_019.jpg
2295.226	2.398	correct	regulate	Run3	regulate/STIM_019.jpg
2300.734	1.442	correct	regulate	Run3	regulate/STIM_020.jpg
2304.947	2.781	correct	regulate	Run3	regulate/STIM_020.jpg
2309.969	1.291	correct	regulate	Run3	regulate/STIM_020.jpg
2314.665	2.696	correct	regulate	Run3	regulate/STIM_020.jpg
2320.683	1.997	correct	regulate	Run3	regulate/STIM_021.jpg
2326.215	2.067	correct	regulate	Run3	regulate/STIM_021.jpg
2331.062	2.474	correct	regulate	Run3	regulate/STIM_021.jpg
2337.007	1.787	correct	regulate	Run3	regulate/STIM_021.jpg
2342.156	1.202	correct	regulate	Run3	regulate/STIM_022.jpg
2346.236	2.74	incorrect	regulate	Run3	regulate/STIM_022.jpg
2351.563	2.394	correct	regulate	Run3	regulate/STIM_022.jpg
2356.594	2.556	correct	regulate	Run3	regulate/STIM_022.jpg
2361.627	2.158	correct	regulate	Run3	regulate/STIM_023.jpg
2366.685	2.548	correct	regulate	Run3	regulate/STIM_023.jpg
2372.071	1.671	correct	regulate	Run3	regulate/STIM_023.jpg
2375.99	1.825	correct	regulate	Run3	regulate/STIM_023.jpg
2379.676	2.386	correct	regulate	Run3	regulate/STIM_024.jpg
2384.532	1.223	correct	regulate	Run3	regulate/STIM_024.jpg
2388.867	1.233	correct	regulate	Run3	regulate/STIM_024.jpg
2392.299	2.498	correct	regulate	Run3	regulate/STIM_024.jpg
2397.684	2.498	correct	regulate	Run3	regulate/STIM_025.jpg
2402.627	1.568	correct	regulate	Run3	regulate/STIM_025.jpg
2406.161	1.3	correct	regulate	Run3	regulate/STIM_025.jpg
2410.303	1.498	correct	regulate	Run3	regulate/STIM_025.jpg
2414.091	1.316	correct	regulate	Run3	regulate/STIM_026.jpg
2418.887	1.433	correct	regulate	Run3	regulate/STIM_026.jpg
2422.945	1.928	correct	regulate	Run3	regulate/STIM_026.jpg
2428.071	1.996	correct	regulate	Run3	regulate/STIM_026.jpg
2432.989	1.633	correct	regulate	Run3	regulate/STIM_027.jpg
2436.825	1.718	correct	regulate	Run3	regulate/STIM_027.jpg
2441.291	2.346	correct	regulate	Run3	regulate/STIM_027.jpg
2445.481	1.945	correct	regulate	Run3	regulate/STIM_027.jpg
2450.997	2.684	correct	regulate	Run3	regulate/STIM_028.jpg
2457.111	1.682	correct	regulate	Run3	regulate/STIM_028.jpg
2462.034	2.534	correct	regulate	Run3	regulate/STIM_028.jpg
2466.76	2.195	correct	regulate	Run3	regulate/STIM_028.jpg
2470.81	2.404	correct	regulate	Run3	regulate/STIM_029.jpg
2475.289	1.586	correct	regulate	Run3	regulate/STIM_029.jpg
2479.403	2.206	correct	regulate	Run3	regulate/STIM_029.jpg
2483.598	2.821	correct	regulate	Run3	regulate/STIM_029.jpg
2487.984	1.669	correct	observe	Run3	observe/STIM_000.jpg
2492.057	1.621	incorrect	observe	Run3	observe/STIM_000.jpg
2496.594	1.014	incorrect	observe	Run3	observe/STIM_000.jpg
2499.618	1.658	correct	observe	Run3	observe/STIM_000.jpg
2503.767	1.2	correct	observe	Run3	observe/STIM_001.jpg
2507.613	1.294	correct	observe	Run3	observe/STIM_001.jpg
2512.328	1.094	correct	observe	Run3	observe/STIM_001.jpg
2517.15	1.689	correct	observe	Run3	observe/STIM_001.jpg
2521.018	1.754	incorrect	observe	Run3	observe/STIM_002.jpg
2525.324	1.422	correct	observe	Run3	observe/STIM_002.jpg
2530.216	1.22	correct	observe	Run3	observe/STIM_002.jpg
2533.674	1.648	correct	observe	Run3	observe/STIM_002.jpg
2537.544	1.525	correct	observe	Run3	observe/STIM_003.jpg
2540.959	0.903	correct	observe	Run3	observe/STIM_003.jpg
2544.296	0.945	correct	observe	Run3	observe/STIM_003.jpg
2548.496	1.204	correct	observe	Run3	observe/STIM_003.jpg
2552.703	1.042	correct	observe	Run3	observe/STIM_004.jpg
2555.774	1.652	correct	observe	Run3	observe/STIM_004.jpg
2560.474	1.739	correct	observe	Run3	observe/STIM_004.jpg
2565.297	0.993	correct	observe	Run3	observe/STIM_004.jpg
2569.933	1.398	correct	observe	Run3	observe/STIM_005.jpg
2575.112	1.204	correct	observe	Run3	observe/STIM_005.jpg
2579.384	1.553	correct	observe	Run3	observe/STIM_005.jpg
2583.133	1.514	correct	observe	Run3	observe/STIM_005.jpg
2586.545	1.617	correct	observe	Run3	observe/STIM_006.jpg
2591.322	1.422	correct	observe	Run3	observe/STIM_006.jpg
2596.277	1.682	correct	observe	Run3	observe/STIM_006.jpg
2601.092	1.39	correct	observe	Run3	observe/STIM_006.jpg
2604.793	0.946	correct	observe	Run3	observe/STIM_007.jpg
2608.509	1.781	correct	observe	Run3	observe/STIM_007.jpg
2612.939	1.465	correct	observe	Run3	observe/STIM_007.jpg
2616.312	1.726	correct	observe	Run3	observe/STIM_007.jpg
2620.679	1.268	incorrect	observe	Run3	observe/STIM_008.jpg
2624.273	1.51	correct	observe	Run3	observe/STIM_008.jpg
2628.602	1.832	correct	observe	Run3	observe/STIM_008.jpg
2633.008	1.717	correct	observe	Run3	observe/STIM_008.jpg
2637.556	1.118	correct	observe	Run3	observe/STIM_009.jpg
2640.575	1.247	correct	observe	Run3	observe/STIM_009.jpg
2644.705	1.168	correct	observe	Run3	observe/STIM_009.jpg
2649.673	1.887	correct	observe	Run3	observe/STIM_009.jpg
2655.082	1.228	correct	observe	Run3	observe/STIM_010.jpg
2658.924	1.138	incorrect	observe	Run3	observe/STIM_010.jpg
2662.585	0.936	correct	observe	Run3	observe/STIM_010.jpg
2666.492	1.146	correct	observe	Run3	observe/STIM_010.jpg
2671.359	1.537	incorrect	observe	Run3	observe/STIM_011.jpg
2674.858	1.07	correct	observe	Run3	observe/STIM_011.jpg
2678.454	1.673	incorrect	observe	Run3	observe/STIM_011.jpg
2682.96	1.605	correct	observe	Run3	observe/STIM_011.jpg
2687.185	1.098	correct	observe	Run3	observe/STIM_012.jpg
2692.086	1.14	correct	observe	Run3	observe/STIM_012.jpg
2695.18	1.265	incorrect	observe	Run3	observe/STIM_012.jpg
2698.429	1.684	correct	observe	Run3	observe/STIM_012.jpg
2701.925	0.967	correct	observe	Run3	observe/STIM_013.jpg
2704.846	1.513	incorrect	observe	Run3	observe/STIM_013.jpg
2708.606	1.417	correct	observe	Run3	observe/STIM_013.jpg
2713.115	1.138	correct	observe	Run3	observe/STIM_013.jpg
2716.837	1.737	correct	observe	Run3	observe/STIM_014.jpg
2721.189	1.185	correct	observe	Run3	observe/STIM_014.jpg
2725.502	1.911	correct	observe	Run3	observe/STIM_014.jpg
2730.332	1.726	correct	observe	Run3	observe/STIM_014.jpg
2735.721	1.376	correct	observe	Run3	observe/STIM_015.jpg
2739.379	1.313	correct	observe	Run3	observe/STIM_015.jpg
2744.323	1.214	incorrect	observe	Run3	observe/STIM_015.jpg
2747.65	0.984	correct	observe	Run3	observe/STIM_015.jpg
2752.17	1.356	incorrect	observe	Run3	observe/STIM_016.jpg
2757.262	1.489	correct	observe	Run3	observe/STIM_016.jpg
2760.598	1.758	correct	observe	Run3	observe/STIM_016.jpg
2764.465	1.627	correct	observe	Run3	observe/STIM_016.jpg
2769.762	1.358	correct	observe	Run3	observe/STIM_017.jpg
2773.936	1.503	correct	observe	Run3	observe/STIM_017.jpg
2778.665	1.218	correct	observe	Run3	observe/STIM_017.jpg
2783.064	1.633	correct	observe	Run3	observe/STIM_017.jpg
2787.637	1.117	correct	observe	Run3	observe/STIM_018.jpg
2792.577	1.609	correct	observe	Run3	observe/STIM_018.jpg
2797.08	1.168	incorrect	observe	Run3	observe/STIM_018.jpg
2801.292	1.18	correct	observe	Run3	observe/STIM_018.jpg
2804.698	0.919	correct	observe	Run3	observe/STIM_019.jpg
2807.964	1.354	correct	observe	Run3	observe/STIM_019.jpg
2812.577	1.533	correct	observe	Run3	observe/STIM_019.jpg
2817.852	1.054	correct	observe	Run3	observe/STIM_019.jpg
