onset	duration	response_time_ms	trial_type	learning_stage	stimulus	response_port
0.0	1.878	1878.1	regulate	Run1	regulate/STIM_000.jpg	100
5.232	1.847	1847.0	regulate	Run1	regulate/STIM_000.jpg	100
10.925	2.682	2681.9	regulate	Run1	regulate/STIM_000.jpg	99
16.504	2.943	2942.8	regulate	Run1	regulate/STIM_000.jpg	99
23.177	1.722	1722.0	regulate	Run1	regulate/STIM_001.jpg	99
26.989	1.713	1712.7	regulate	Run1	regulate/STIM_001.jpg	100
31.601	1.654	1653.6	regulate	Run1	regulate/STIM_001.jpg	99
36.243	2.326	2325.5	regulate	Run1	regulate/STIM_001.jpg	99
40.733	1.752	1751.5	regulate	Run1	regulate/STIM_002.jpg	99
45.409	3.089	3089.4	regulate	Run1	regulate/STIM_002.jpg	100
51.392	2.48	2480.5	regulate	Run1	regulate/STIM_002.jpg	99
56.233	2.42	2419.6	regulate	Run1	regulate/STIM_002.jpg	99
61.794	3.313	3312.7	regulate	Run1	regulate/STIM_003.jpg	100
67.822	2.691	2690.7	regulate	Run1	regulate/STIM_003.jpg	100
73.861	2.227	2226.8	regulate	Run1	regulate/STIM_003.jpg	99
79.555	2.269	2269.2	regulate	Run1	regulate/STIM_003.jpg	99
84.6	1.899	1898.7	regulate	Run1	regulate/STIM_004.jpg	99
90.089	3.272	3272.2	regulate	Run1	regulate/STIM_004.jpg	100
96.588	3.053	3053.1	regulate	Run1	regulate/STIM_004.jpg	100
102.983	2.964	2963.7	regulate	Run1	regulate/STIM_004.jpg	99
108.395	2.334	2334.3	regulate	Run1	regulate/STIM_005.jpg	99
114.425	2.008	2007.7	regulate	Run1	regulate/STIM_005.jpg	100
119.994	2.291	2290.6	regulate	Run1	regulate/STIM_005.jpg	100
124.541	1.706	1706.2	regulate	Run1	regulate/STIM_005.jpg	99
129.252	1.797	1796.9	regulate	Run1	regulate/STIM_006.jpg	100
133.62	1.749	1748.6	regulate	Run1	regulate/STIM_006.jpg	99
139.084	1.534	1534.2	regulate	Run1	regulate/STIM_006.jpg	99
142.777	2.945	2945.2	regulate	Run1	regulate/STIM_006.jpg	99
148.398	3.334	3333.9	regulate	Run1	regulate/STIM_007.jpg	99
155.548	3.45	3449.5	regulate	Run1	regulate/STIM_007.jpg	100
162.43	3.237	3236.6	regulate	Run1	regulate/STIM_007.jpg	99
167.87	1.574	1574.3	regulate	Run1	regulate/STIM_007.jpg	100
172.338	2.065	2065.2	regulate	Run1	regulate/STIM_008.jpg	100
178.058	1.987	1986.7	regulate	Run1	regulate/STIM_008.jpg	99
183.975	2.306	2306.2	regulate	Run1	regulate/STIM_008.jpg	99
189.071	2.211	2211.2	regulate	Run1	regulate/STIM_008.jpg	99
193.432	1.918	1917.9	regulate	Run1	regulate/STIM_009.jpg	100
198.037	2.865	2865.3	regulate	Run1	regulate/STIM_009.jpg	100
203.7	2.442	2442.1	regulate	Run1	regulate/STIM_009.jpg	100
208.177	2.213	2212.7	regulate	Run1	regulate/STIM_009.jpg	99
213.587	2.559	2559.2	regulate	Run1	regulate/STIM_010.jpg	100
219.63	2.132	2132.0	regulate	Run1	regulate/STIM_010.jpg	99
225.744	2.396	2396.0	regulate	Run1	regulate/STIM_010.jpg	99
231.234	1.877	1877.3	regulate	Run1	regulate/STIM_010.jpg	100
236.248	2.561	2560.9	regulate	Run1	regulate/STIM_011.jpg	100
241.888	2.948	2947.8	regulate	Run1	regulate/STIM_011.jpg	100
248.572	2.836	2835.9	regulate	Run1	regulate/STIM_011.jpg	100
254.169	2.201	2200.6	regulate	Run1	regulate/STIM_011.jpg	100
260.239	2.11	2109.9	regulate	Run1	regulate/STIM_012.jpg	99
265.393	2.531	2530.9	regulate	Run1	regulate/STIM_012.jpg	100
271.288	2.419	2418.8	regulate	Run1	regulate/STIM_012.jpg	99
276.923	2.958	2957.6	regulate	Run1	regulate/STIM_012.jpg	99
283.847	1.852	1851.6	regulate	Run1	regulate/STIM_013.jpg	100
287.93	1.699	1698.8	regulate	Run1	regulate/STIM_013.jpg	100
292.405	3.008	3007.5	regulate	Run1	regulate/STIM_013.jpg	100
298.536	2.474	2474.2	regulate	Run1	regulate/STIM_013.jpg	99
303.562	3.314	3314.5	regulate	Run1	regulate/STIM_014.jpg	100
310.704	1.758	1758.4	regulate	Run1	regulate/STIM_014.jpg	99
315.712	2.108	2108.0	regulate	Run1	regulate/STIM_014.jpg	100
320.146	1.816	1815.5	regulate	Run1	regulate/STIM_014.jpg	99
325.183	2.139	2139.3	regulate	Run1	regulate/STIM_015.jpg	99
329.44	2.212	2212.5	regulate	Run1	regulate/STIM_015.jpg	100
335.542	3.194	3193.9	regulate	Run1	regulate/STIM_015.jpg	99
341.914	2.516	2516.3	regulate	Run1	regulate/STIM_015.jpg	100
346.528	2.496	2496.1	regulate	Run1	regulate/STIM_016.jpg	99
352.076	1.675	1674.9	regulate	Run1	regulate/STIM_016.jpg	99
357.337	1.987	1987.0	regulate	Run1	regulate/STIM_016.jpg	100
362.914	1.899	1899.4	regulate	Run1	regulate/STIM_016.jpg	100
368.294	1.703	1703.0	regulate	Run1	regulate/STIM_017.jpg	100
372.054	3.059	3059.3	regulate	Run1	regulate/STIM_017.jpg	99
377.562	2.21	2210.1	regulate	Run1	regulate/STIM_017.jpg	99
382.086	2.173	2173.1	regulate	Run1	regulate/STIM_017.jpg	99
387.173	2.274	2274.2	regulate	Run1	regulate/STIM_018.jpg	100
392.282	2.303	2303.2	regulate	Run1	regulate/STIM_018.jpg	99
398.418	1.571	1571.4	regulate	Run1	regulate/STIM_018.jpg	100
403.384	2.442	2441.6	regulate	Run1	regulate/STIM_018.jpg	100
409.357	2.88	2879.7	regulate	Run1	regulate/STIM_019.jpg	100
414.783	2.674	2674.2	regulate	Run1	regulate/STIM_019.jpg	99
421.231	1.845	1845.1	regulate	Run1	regulate/STIM_019.jpg	100
426.438	3.046	3046.3	regulate	Run1	regulate/STIM_019.jpg	99
433.056	1.928	1928.1	regulate	Run1	regulate/STIM_020.jpg	100
437.941	2.164	2164.1	regulate	Run1	regulate/STIM_020.jpg	100
442.346	2.836	2836.3	regulate	Run1	regulate/STIM_020.jpg	99
447.994	2.764	2763.5	regulate	Run1	regulate/STIM_020.jpg	100
454.193	3.482	3481.6	regulate	Run1	regulate/STIM_021.jpg	99
460.309	3.011	3010.8	regulate	Run1	regulate/STIM_021.jpg	100
466.592	2.142	2141.5	regulate	Run1	regulate/STIM_021.jpg	100
472.327	1.624	1624.0	regulate	Run1	regulate/STIM_021.jpg	100
476.737	2.533	2533.0	regulate	Run1	regulate/STIM_022.jpg	99
482.357	2.404	2404.2	regulate	Run1	regulate/STIM_022.jpg	99
487.844	2.692	2692.3	regulate	Run1	regulate/STIM_022.jpg	100
493.941	2.055	2054.9	regulate	Run1	regulate/STIM_022.jpg	99
498.444	2.073	2072.6	regulate	Run1	regulate/STIM_023.jpg	99
504.094	2.698	2697.6	regulate	Run1	regulate/STIM_023.jpg	99
510.065	1.703	1702.7	regulate	Run1	regulate/STIM_023.jpg	100
514.873	1.347	1347.4	regulate	Run1	regulate/STIM_023.jpg	100
519.543	1.592	1591.8	regulate	Run1	regulate/STIM_024.jpg	99
524.978	1.84	1839.7	regulate	Run1	regulate/STIM_024.jpg	99
530.592	1.97	1970.3	regulate	Run1	regulate/STIM_024.jpg	100
535.135	1.479	1479.3	regulate	Run1	regulate/STIM_024.jpg	100
540.235	1.699	1699.0	regulate	Run1	regulate/STIM_025.jpg	100
545.723	2.858	2858.1	regulate	Run1	regulate/STIM_025.jpg	99
551.906	2.199	2199.0	regulate	Run1	regulate/STIM_025.jpg	99
557.56	2.862	2862.5	regulate	Run1	regulate/STIM_025.jpg	100
562.428	3.329	3329.0	regulate	Run1	regulate/STIM_026.jpg	100
568.442	1.631	1630.6	regulate	Run1	regulate/STIM_026.jpg	99
573.402	2.843	2843.2	regulate	Run1	regulate/STIM_026.jpg	99
578.902	2.309	2309.0	regulate	Run1	regulate/STIM_026.jpg	99
584.62	2.199	2198.6	regulate	Run1	regulate/STIM_027.jpg	100
589.67	3.002	3002.4	regulate	Run1	regulate/STIM_027.jpg	99
596.589	2.174	2173.5	regulate	Run1	regulate/STIM_027.jpg	99
601.383	2.982	2982.0	regulate	Run1	regulate/STIM_027.jpg	99
607.918	3.509	3508.9	regulate	Run1	regulate/STIM_028.jpg	99
614.649	1.685	1684.8	regulate	Run1	regulate/STIM_028.jpg	100
619.899	2.166	2166.0	regulate	Run1	regulate/STIM_028.jpg	100
625.651	1.767	1766.8	regulate	Run1	regulate/STIM_028.jpg	100
631.147	1.775	1774.8	regulate	Run1	regulate/STIM_029.jpg	100
636.376	2.124	2123.7	regulate	Run1	regulate/STIM_029.jpg	99
640.726	2.103	2103.3	regulate	Run1	regulate/STIM_029.jpg	100
646.527	1.438	1437.9	regulate	Run1	regulate/STIM_029.jpg	99
650.925	1.63	1630.0	observe	Run1	observe/STIM_000.jpg	99
655.954	1.183	1183.2	observe	Run1	observe/STIM_000.jpg	100
659.756	1.556	1556.3	observe	Run1	observe/STIM_000.jpg	100
663.88	1.001	1001.1	observe	Run1	observe/STIM_000.jpg	99
668.418	0.87	870.0	observe	Run1	observe/STIM_001.jpg	99
673.247	1.452	1452.2	observe	Run1	observe/STIM_001.jpg	100
676.987	0.864	863.6	observe	Run1	observe/STIM_001.jpg	100
681.709	1.492	1491.7	observe	Run1	observe/STIM_001.jpg	99
687.193	1.206	1206.3	observe	Run1	observe/STIM_002.jpg	100
690.536	1.395	1394.8	observe	Run1	observe/STIM_002.jpg	99
695.017	1.409	1408.6	observe	Run1	observe/STIM_002.jpg	99
700.202	1.038	1037.8	observe	Run1	observe/STIM_002.jpg	100
705.032	1.02	1019.6	observe	Run1	observe/STIM_003.jpg	99
709.834	1.467	1467.0	observe	Run1	observe/STIM_003.jpg	100
715.2	1.057	1056.7	observe	Run1	observe/STIM_003.jpg	100
719.426	1.514	1514.0	observe	Run1	observe/STIM_003.jpg	99
724.357	1.174	1174.3	observe	Run1	observe/STIM_004.jpg	99
729.462	1.309	1309.0	observe	Run1	observe/STIM_004.jpg	99
734.081	1.433	1433.3	observe	Run1	observe/STIM_004.jpg	99
738.167	1.31	1309.6	observe	Run1	observe/STIM_004.jpg	99
742.093	1.11	1110.4	observe	Run1	observe/STIM_005.jpg	99
745.853	1.36	1359.8	observe	Run1	observe/STIM_005.jpg	100
750.829	1.061	1061.2	observe	Run1	observe/STIM_005.jpg	99
755.52	0.884	883.8	observe	Run1	observe/STIM_005.jpg	99
759.691	1.082	1081.5	observe	Run1	observe/STIM_006.jpg	100
763.857	1.269	1269.0	observe	Run1	observe/STIM_006.jpg	99
768.639	1.02	1019.7	observe	Run1	observe/STIM_006.jpg	100
772.718	1.35	1350.2	observe	Run1	observe/STIM_006.jpg	99
776.732	1.203	1203.2	observe	Run1	observe/STIM_007.jpg	100
780.466	1.584	1583.6	observe	Run1	observe/STIM_007.jpg	100
786.017	0.895	895.2	observe	Run1	observe/STIM_007.jpg	99
790.868	1.434	1434.2	observe	Run1	observe/STIM_007.jpg	99
795.689	0.883	883.1	observe	Run1	observe/STIM_008.jpg	99
799.93	1.536	1535.8	observe	Run1	observe/STIM_008.jpg	100
805.321	0.862	862.1	observe	Run1	observe/STIM_008.jpg	100
808.89	1.438	1437.9	observe	Run1	observe/STIM_008.jpg	99
814.322	1.626	1625.7	observe	Run1	observe/STIM_009.jpg	100
818.245	1.655	1654.7	observe	Run1	observe/STIM_009.jpg	99
822.358	0.915	914.6	observe	Run1	observe/STIM_009.jpg	100
826.166	1.138	1138.4	observe	Run1	observe/STIM_009.jpg	99
830.734	1.223	1222.6	observe	Run1	observe/STIM_010.jpg	99
834.165	1.544	1544.5	observe	Run1	observe/STIM_010.jpg	99
839.33	1.195	1195.4	observe	Run1	observe/STIM_010.jpg	99
843.701	1.544	1543.8	observe	Run1	observe/STIM_010.jpg	100
847.375	1.414	1413.6	observe	Run1	observe/STIM_011.jpg	99
852.657	1.337	1337.0	observe	Run1	observe/STIM_011.jpg	99
857.311	1.049	1049.3	observe	Run1	observe/STIM_011.jpg	99
861.101	1.216	1215.6	observe	Run1	observe/STIM_011.jpg	100
865.059	0.865	865.0	observe	Run1	observe/STIM_012.jpg	100
869.268	1.554	1553.5	observe	Run1	observe/STIM_012.jpg	100
874.793	1.481	1481.2	observe	Run1	observe/STIM_012.jpg	99
878.904	1.245	1245.4	observe	Run1	observe/STIM_012.jpg	100
882.859	1.025	1025.2	observe	Run1	observe/STIM_013.jpg	99
887.717	0.882	881.7	observe	Run1	observe/STIM_013.jpg	100
890.614	1.54	1540.4	observe	Run1	observe/STIM_013.jpg	99
894.193	0.892	891.8	observe	Run1	observe/STIM_013.jpg	99
898.209	0.992	991.6	observe	Run1	observe/STIM_014.jpg	100
901.555	0.97	970.3	observe	Run1	observe/STIM_014.jpg	99
906.063	1.586	1586.5	observe	Run1	observe/STIM_014.jpg	100
910.477	1.302	1302.2	observe	Run1	observe/STIM_014.jpg	99
914.465	1.398	1397.6	observe	Run1	observe/STIM_015.jpg	99
918.031	0.918	918.4	observe	Run1	observe/STIM_015.jpg	100
922.326	1.265	1265.1	observe	Run1	observe/STIM_015.jpg	99
927.258	1.469	1468.6	observe	Run1	observe/STIM_015.jpg	99
931.714	1.051	1051.3	observe	Run1	observe/STIM_016.jpg	100
934.772	1.031	1031.3	observe	Run1	observe/STIM_016.jpg	100
939.219	1.112	1112.5	observe	Run1	observe/STIM_016.jpg	99
942.816	1.308	1307.9	observe	Run1	observe/STIM_016.jpg	100
947.451	0.967	966.6	observe	Run1	observe/STIM_017.jpg	99
951.4	1.631	1630.7	observe	Run1	observe/STIM_017.jpg	99
955.5	0.991	991.2	observe	Run1	observe/STIM_017.jpg	99
959.17	1.596	1596.1	observe	Run1	observe/STIM_017.jpg	100
964.306	1.489	1489.1	observe	Run1	observe/STIM_018.jpg	99
969.037	1.321	1320.7	observe	Run1	observe/STIM_018.jpg	99
973.553	1.155	1155.4	observe	Run1	observe/STIM_018.jpg	99
977.596	1.075	1075.1	observe	Run1	observe/STIM_018.jpg	100
982.239	1.438	1437.7	observe	Run1	observe/STIM_019.jpg	100
986.656	1.015	1015.3	observe	Run1	observe/STIM_019.jpg	99
990.039	0.938	937.7	observe	Run1	observe/STIM_019.jpg	99
993.907	1.324	1323.9	observe	Run1	observe/STIM_019.jpg	99
997.419	1.991	1990.8	regulate	Run2	regulate/STIM_000.jpg	100
1001.426	2.898	2897.6	regulate	Run2	regulate/STIM_000.jpg	100
1008.217	1.575	1574.9	regulate	Run2	regulate/STIM_000.jpg	99
1012.908	2.056	2055.7	regulate	Run2	regulate/STIM_000.jpg	99
1017.027	1.621	1621.2	regulate	Run2	regulate/STIM_001.jpg	99
1021.588	1.835	1834.6	regulate	Run2	regulate/STIM_001.jpg	100
1026.665	2.574	2573.7	regulate	Run2	regulate/STIM_001.jpg	100
1033.001	1.618	1617.7	regulate	Run2	regulate/STIM_001.jpg	99
1037.204	1.468	1468.5	regulate	Run2	regulate/STIM_002.jpg	100
1041.907	1.413	1412.6	regulate	Run2	regulate/STIM_002.jpg	99
1046.184	1.299	1298.7	regulate	Run2	regulate/STIM_002.jpg	100
1049.497	1.442	1441.6	regulate	Run2	regulate/STIM_002.jpg	100
1053.012	2.177	2177.1	regulate	Run2	regulate/STIM_003.jpg	99
1058.749	1.334	1334.4	regulate	Run2	regulate/STIM_003.jpg	99
1063.16	1.709	1709.0	regulate	Run2	regulate/STIM_003.jpg	99
1068.736	2.138	2137.7	regulate	Run2	regulate/STIM_003.jpg	100
1072.897	1.773	1773.2	regulate	Run2	regulate/STIM_004.jpg	99
1077.696	1.716	1716.5	regulate	Run2	regulate/STIM_004.jpg	99
1082.399	1.858	1858.2	regulate	Run2	regulate/STIM_004.jpg	100
1087.685	2.004	2004.4	regulate	Run2	regulate/STIM_004.jpg	100
1092.741	2.572	2571.9	regulate	Run2	regulate/STIM_005.jpg	100
1098.131	1.88	1880.4	regulate	Run2	regulate/STIM_005.jpg	100
1103.077	2.149	2148.7	regulate	Run2	regulate/STIM_005.jpg	100
1108.887	2.486	2485.6	regulate	Run2	regulate/STIM_005.jpg	99
1114.178	2.653	2653.3	regulate	Run2	regulate/STIM_006.jpg	100
1120.076	1.833	1832.9	regulate	Run2	regulate/STIM_006.jpg	100
1124.602	2.056	2055.6	regulate	Run2	regulate/STIM_006.jpg	99
1130.24	2.428	2428.2	regulate	Run2	regulate/STIM_006.jpg	100
1135.429	1.976	1976.1	regulate	Run2	regulate/STIM_007.jpg	100
1140.482	2.872	2872.3	regulate	Run2	regulate/STIM_007.jpg	100
1146.713	2.636	2636.3	regulate	Run2	regulate/STIM_007.jpg	100
1151.978	1.73	1729.7	regulate	Run2	regulate/STIM_007.jpg	99
1156.186	2.677	2677.4	regulate	Run2	regulate/STIM_008.jpg	99
1161.531	1.991	1991.0	regulate	Run2	regulate/STIM_008.jpg	100
1166.415	2.292	2291.7	regulate	Run2	regulate/STIM_008.jpg	100
1170.862	2.356	2356.0	regulate	Run2	regulate/STIM_008.jpg	100
1175.684	2.098	2097.7	regulate	Run2	regulate/STIM_009.jpg	99
1180.884	1.611	1610.8	regulate	Run2	regulate/STIM_009.jpg	100
1185.467	2.43	2430.2	regulate	Run2	regulate/STIM_009.jpg	99
1191.882	1.613	1612.7	regulate	Run2	regulate/STIM_009.jpg	99
1196.55	2.038	2038.5	regulate	Run2	regulate/STIM_010.jpg	100
1202.46	2.795	2795.2	regulate	Run2	regulate/STIM_010.jpg	100
1207.799	1.777	1776.8	regulate	Run2	regulate/STIM_010.jpg	100
1212.936	1.501	1501.1	regulate	Run2	regulate/STIM_010.jpg	99
1216.532	1.91	1909.6	regulate	Run2	regulate/STIM_011.jpg	100
1220.688	2.71	2709.6	regulate	Run2	regulate/STIM_011.jpg	99
1226.822	2.469	2468.6	regulate	Run2	regulate/STIM_011.jpg	100
1233.206	1.48	1479.5	regulate	Run2	regulate/STIM_011.jpg	99
1237.533	3.016	3015.6	regulate	Run2	regulate/STIM_012.jpg	99
1244.494	1.935	1934.7	regulate	Run2	regulate/STIM_012.jpg	100
1249.156	1.792	1791.6	regulate	Run2	regulate/STIM_012.jpg	99
1252.989	1.317	1317.3	regulate	Run2	regulate/STIM_012.jpg	99
1257.689	1.631	1631.2	regulate	Run2	regulate/STIM_013.jpg	100
1261.336	2.709	2708.7	regulate	Run2	regulate/STIM_013.jpg	100
1267.112	1.776	1776.5	regulate	Run2	regulate/STIM_013.jpg	100
1271.354	1.32	1319.7	regulate	Run2	regulate/STIM_013.jpg	100
1274.679	1.888	1888.3	regulate	Run2	regulate/STIM_014.jpg	99
1280.057	1.381	1381.0	regulate	Run2	regulate/STIM_014.jpg	99
1284.72	1.969	1968.6	regulate	Run2	regulate/STIM_014.jpg	99
1290.274	1.769	1769.2	regulate	Run2	regulate/STIM_014.jpg	99
1294.07	2.366	2365.5	regulate	Run2	regulate/STIM_015.jpg	100
1300.411	1.531	1530.8	regulate	Run2	regulate/STIM_015.jpg	100
1304.254	1.41	1410.2	regulate	Run2	regulate/STIM_015.jpg	99
1308.253	2.091	2090.7	regulate	Run2	regulate/STIM_015.jpg	99
1313.54	1.57	1570.1	regulate	Run2	regulate/STIM_016.jpg	100
1317.261	1.492	1491.9	regulate	Run2	regulate/STIM_016.jpg	99
1322.592	1.485	1485.0	regulate	Run2	regulate/STIM_016.jpg	99
1327.894	2.368	2367.7	regulate	Run2	regulate/STIM_016.jpg	99
1332.965	2.309	2309.3	regulate	Run2	regulate/STIM_017.jpg	99
1338.242	2.516	2516.0	regulate	Run2	regulate/STIM_017.jpg	99
1344.09	2.504	2503.6	regulate	Run2	regulate/STIM_017.jpg	100
1349.572	2.134	2133.6	regulate	Run2	regulate/STIM_017.jpg	99
1355.497	1.475	1475.4	regulate	Run2	regulate/STIM_018.jpg	100
1359.372	1.494	1493.9	regulate	Run2	regulate/STIM_018.jpg	100
1364.088	2.385	2384.9	regulate	Run2	regulate/STIM_018.jpg	99
1369.103	2.508	2508.0	regulate	Run2	regulate/STIM_018.jpg	100
1374.971	2.505	2504.9	regulate	Run2	regulate/STIM_019.jpg	100
1380.904	2.212	2212.1	regulate	Run2	regulate/STIM_019.jpg	99
1386.235	2.078	2078.5	regulate	Run2	regulate/STIM_019.jpg	99
1390.912	2.457	2457.3	regulate	Run2	regulate/STIM_019.jpg	100
1396.31	2.515	2515.2	regulate	Run2	regulate/STIM_020.jpg	99
1401.232	2.336	2336.0	regulate	Run2	regulate/STIM_020.jpg	99
1407.288	1.49	1490.0	regulate	Run2	regulate/STIM_020.jpg	99
1411.433	1.414	1413.6	regulate	Run2	regulate/STIM_020.jpg	100
1416.148	2.201	2200.6	regulate	Run2	regulate/STIM_021.jpg	100
1421.798	2.392	2391.6	regulate	Run2	regulate/STIM_021.jpg	99
1427.189	2.05	2050.1	regulate	Run2	regulate/STIM_021.jpg	100
1431.761	2.043	2043.4	regulate	Run2	regulate/STIM_021.jpg	99
1436.051	2.774	2774.0	regulate	Run2	regulate/STIM_022.jpg	100
1442.605	2.761	2760.6	regulate	Run2	regulate/STIM_022.jpg	99
1447.72	2.32	2320.5	regulate	Run2	regulate/STIM_022.jpg	100
1452.082	2.206	2206.1	regulate	Run2	regulate/STIM_022.jpg	100
1457.199	2.989	2989.2	regulate	Run2	regulate/STIM_023.jpg	100
1463.422	1.334	1334.3	regulate	Run2	regulate/STIM_023.jpg	100
1467.649	2.316	2316.0	regulate	Run2	regulate/STIM_023.jpg	100
1472.374	2.022	2022.3	regulate	Run2	regulate/STIM_023.jpg	100
1477.713	3.005	3004.8	regulate	Run2	regulate/STIM_024.jpg	99
1483.452	2.295	2295.4	regulate	Run2	regulate/STIM_024.jpg	100
1489.474	1.659	1659.3	regulate	Run2	regulate/STIM_024.jpg	100
1494.742	2.188	2188.1	regulate	Run2	regulate/STIM_024.jpg	100
1499.908	1.81	1810.4	regulate	Run2	regulate/STIM_025.jpg	99
1503.933	1.714	1713.9	regulate	Run2	regulate/STIM_025.jpg	100
1509.507	2.163	2163.0	regulate	Run2	regulate/STIM_025.jpg	99
1514.329	1.789	1789.2	regulate	Run2	regulate/STIM_025.jpg	100
1519.924	1.734	1734.2	regulate	Run2	regulate/STIM_026.jpg	100
1524.87	1.472	1472.0	regulate	Run2	regulate/STIM_026.jpg	100
1528.606	1.671	1671.1	regulate	Run2	regulate/STIM_026.jpg	100
1532.713	2.178	2177.6	regulate	Run2	regulate/STIM_026.jpg	100
1536.988	3.043	3043.0	regulate	Run2	regulate/STIM_027.jpg	100
1542.6	1.537	1536.9	regulate	Run2	regulate/STIM_027.jpg	100
1548.106	2.024	2024.2	regulate	Run2	regulate/STIM_027.jpg	100
1553.125	1.292	1292.4	regulate	Run2	regulate/STIM_027.jpg	99
1557.903	1.729	1729.1	regulate	Run2	regulate/STIM_028.jpg	100
1563.252	1.905	1905.4	regulate	Run2	regulate/STIM_028.jpg	100
1568.779	1.493	1493.0	regulate	Run2	regulate/STIM_028.jpg	99
1573.831	2.514	2514.2	regulate	Run2	regulate/STIM_028.jpg	100
1579.394	2.14	2139.8	regulate	Run2	regulate/STIM_029.jpg	100
1584.303	2.861	2861.2	regulate	Run2	regulate/STIM_029.jpg	100
1590.108	2.304	2303.7	regulate	Run2	regulate/STIM_029.jpg	100
1595.157	1.484	1483.7	regulate	Run2	regulate/STIM_029.jpg	100
1600.487	1.197	1197.2	observe	Run2	observe/STIM_000.jpg	99
1605.594	1.129	1129.2	observe	Run2	observe/STIM_000.jpg	99
1610.529	1.018	1018.2	observe	Run2	observe/STIM_000.jpg	100
1614.606	0.851	851.2	observe	Run2	observe/STIM_000.jpg	100
1618.824	1.281	1281.0	observe	Run2	observe/STIM_001.jpg	99
1622.345	1.586	1586.5	observe	Run2	observe/STIM_001.jpg	100
1627.451	1.13	1130.5	observe	Run2	observe/STIM_001.jpg	99
1631.269	1.021	1021.0	observe	Run2	observe/STIM_001.jpg	100
1634.819	1.644	1644.5	observe	Run2	observe/STIM_002.jpg	100
1639.079	1.557	1557.0	observe	Run2	observe/STIM_002.jpg	99
1643.656	1.63	1629.6	observe	Run2	observe/STIM_002.jpg	99
1648.728	0.842	841.8	observe	Run2	observe/STIM_002.jpg	99
1651.943	1.056	1056.0	observe	Run2	observe/STIM_003.jpg	99
1656.617	1.536	1535.5	observe	Run2	observe/STIM_003.jpg	99
1660.365	1.142	1142.2	observe	Run2	observe/STIM_003.jpg	100
1664.272	1.625	1624.6	observe	Run2	observe/STIM_003.jpg	100
1668.556	1.4	1400.3	observe	Run2	observe/STIM_004.jpg	100
1672.224	1.259	1258.7	observe	Run2	observe/STIM_004.jpg	99
1675.812	1.442	1441.9	observe	Run2	observe/STIM_004.jpg	99
1680.33	1.487	1487.4	observe	Run2	observe/STIM_004.jpg	99
1683.952	1.581	1581.4	observe	Run2	observe/STIM_005.jpg	100
1687.67	1.212	1211.7	observe	Run2	observe/STIM_005.jpg	99
1691.505	1.325	1324.7	observe	Run2	observe/STIM_005.jpg	100
1696.525	0.992	992.3	observe	Run2	observe/STIM_005.jpg	100
1700.728	0.863	862.7	observe	Run2	observe/STIM_006.jpg	99
1705.341	1.462	1462.5	observe	Run2	observe/STIM_006.jpg	99
1710.228	1.383	1383.1	observe	Run2	observe/STIM_006.jpg	100
1714.657	1.467	1467.4	observe	Run2	observe/STIM_006.jpg	100
1719.123	1.471	1471.0	observe	Run2	observe/STIM_007.jpg	99
1723.0	1.606	1605.9	observe	Run2	observe/STIM_007.jpg	99
1728.586	1.206	1205.7	observe	Run2	observe/STIM_007.jpg	99
1732.283	0.84	840.0	observe	Run2	observe/STIM_007.jpg	99
1735.435	1.391	1390.6	observe	Run2	observe/STIM_008.jpg	100
1739.629	1.258	1257.7	observe	Run2	observe/STIM_008.jpg	99
1743.911	1.515	1515.1	observe	Run2	observe/STIM_008.jpg	99
1748.422	1.586	1585.7	observe	Run2	observe/STIM_008.jpg	100
1752.866	1.613	1612.9	observe	Run2	observe/STIM_009.jpg	99
1757.168	1.565	1565.1	observe	Run2	observe/STIM_009.jpg	100
1762.716	0.964	964.4	observe	Run2	observe/STIM_009.jpg	99
1767.144	0.911	910.6	observe	Run2	observe/STIM_009.jpg	100
1770.447	1.001	1001.3	observe	Run2	observe/STIM_010.jpg	99
1773.5	0.893	893.3	observe	Run2	observe/STIM_010.jpg	100
1777.006	1.239	1239.2	observe	Run2	observe/STIM_010.jpg	100
1781.346	1.314	1313.7	observe	Run2	observe/STIM_010.jpg	99
1785.81	1.1	1099.5	observe	Run2	observe/STIM_011.jpg	99
1790.186	1.519	1519.4	observe	Run2	observe/STIM_011.jpg	99
1793.887	0.939	939.1	observe	Run2	observe/STIM_011.jpg	100
1798.428	1.278	1277.9	observe	Run2	observe/STIM_011.jpg	99
1802.281	0.934	934.5	observe	Run2	observe/STIM_012.jpg	99
1807.12	0.904	904.4	observe	Run2	observe/STIM_012.jpg	100
1810.939	1.006	1005.5	observe	Run2	observe/STIM_012.jpg	100
1814.47	1.307	1306.7	observe	Run2	observe/STIM_012.jpg	100
1819.722	0.924	924.0	observe	Run2	observe/STIM_013.jpg	99
1824.229	1.646	1645.8	observe	Run2	observe/STIM_013.jpg	99
1829.653	0.999	998.6	observe	Run2	observe/STIM_013.jpg	99
1834.175	1.441	1440.6	observe	Run2	observe/STIM_013.jpg	99
1839.365	1.169	1169.2	observe	Run2	observe/STIM_014.jpg	100
1843.171	1.278	1278.5	observe	Run2	observe/STIM_014.jpg	100
1848.259	1.283	1282.7	observe	Run2	observe/STIM_014.jpg	100
1852.808	1.047	1046.9	observe	Run2	observe/STIM_014.jpg	99
1857.129	0.994	994.5	observe	Run2	observe/STIM_015.jpg	100
1860.258	1.09	1090.4	observe	Run2	observe/STIM_015.jpg	100
1864.031	1.589	1589.1	observe	Run2	observe/STIM_015.jpg	100
1869.132	1.04	1040.5	observe	Run2	observe/STIM_015.jpg	100
1873.482	1.475	1475.0	observe	Run2	observe/STIM_016.jpg	100
1876.994	0.883	882.7	observe	Run2	observe/STIM_016.jpg	100
1880.792	1.168	1168.2	observe	Run2	observe/STIM_016.jpg	99
1884.797	0.903	902.7	observe	Run2	observe/STIM_016.jpg	100
1888.724	0.972	971.6	observe	Run2	observe/STIM_017.jpg	100
1892.684	1.474	1474.3	observe	Run2	observe/STIM_017.jpg	100
1897.951	1.215	1214.8	observe	Run2	observe/STIM_017.jpg	99
1901.662	1.375	1375.2	observe	Run2	observe/STIM_017.jpg	100
1906.524	1.473	1473.3	observe	Run2	observe/STIM_018.jpg	100
1911.598	1.512	1511.7	observe	Run2	observe/STIM_018.jpg	100
1915.979	0.887	887.1	observe	Run2	observe/STIM_018.jpg	99
1919.512	1.206	1206.4	observe	Run2	observe/STIM_018.jpg	100
1923.089	1.272	1272.5	observe	Run2	observe/STIM_019.jpg	100
1927.13	1.114	1113.8	observe	Run2	observe/STIM_019.jpg	99
1931.594	1.274	1273.7	observe	Run2	observe/STIM_019.jpg	99
1935.09	1.091	1090.7	observe	Run2	observe/STIM_019.jpg	99
1938.82	2.374	2374.3	regulate	Run3	regulate/STIM_000.jpg	99
1944.893	1.92	1920.0	regulate	Run3	regulate/STIM_000.jpg	99
1950.778	2.437	2436.6	regulate	Run3	regulate/STIM_000.jpg	99
1955.721	1.86	1860.3	regulate	Run3	regulate/STIM_000.jpg	99
1960.006	2.178	2178.3	regulate	Run3	regulate/STIM_001.jpg	100
1966.038	1.233	1232.9	regulate	Run3	regulate/STIM_001.jpg	99
1969.734	1.639	1638.7	regulate	Run3	regulate/STIM_001.jpg	99
1974.583	1.774	1773.8	regulate	Run3	regulate/STIM_001.jpg	100
1978.756	2.504	2504.0	regulate	Run3	regulate/STIM_002.jpg	99
1984.499	2.206	2206.1	regulate	Run3	regulate/STIM_002.jpg	99
1989.65	2.255	2255.4	regulate	Run3	regulate/STIM_002.jpg	100
1993.984	2.0	2000.2	regulate	Run3	regulate/STIM_002.jpg	99
1998.361	1.407	1406.8	regulate	Run3	regulate/STIM_003.jpg	99
2002.425	1.914	1914.5	regulate	Run3	regulate/STIM_003.jpg	100
2006.349	1.634	1634.2	regulate	Run3	regulate/STIM_003.jpg	100
2010.943	1.772	1771.5	regulate	Run3	regulate/STIM_003.jpg	99
2016.014	2.528	2527.8	regulate	Run3	regulate/STIM_004.jpg	99
2021.695	1.718	1718.3	regulate	Run3	regulate/STIM_004.jpg	100
2026.647	2.282	2282.1	regulate	Run3	regulate/STIM_004.jpg	100
2032.39	2.095	2095.3	regulate	Run3	regulate/STIM_004.jpg	99
2037.998	1.175	1174.7	regulate	Run3	regulate/STIM_005.jpg	99
2042.054	2.504	2503.6	regulate	Run3	regulate/STIM_005.jpg	100
2048.05	1.431	1431.2	regulate	Run3	regulate/STIM_005.jpg	99
2051.506	1.428	1428.2	regulate	Run3	regulate/STIM_005.jpg	99
2055.758	1.427	1426.9	regulate	Run3	regulate/STIM_006.jpg	99
2060.078	2.377	2377.0	regulate	Run3	regulate/STIM_006.jpg	99
2066.148	1.334	1333.9	regulate	Run3	regulate/STIM_006.jpg	99
2071.182	1.45	1450.0	regulate	Run3	regulate/STIM_006.jpg	99
2075.666	1.876	1876.5	regulate	Run3	regulate/STIM_007.jpg	99
2081.173	2.22	2219.8	regulate	Run3	regulate/STIM_007.jpg	100
2086.037	1.869	1869.1	regulate	Run3	regulate/STIM_007.jpg	99
2091.107	2.01	2009.7	regulate	Run3	regulate/STIM_007.jpg	99
2096.379	2.364	2363.7	regulate	Run3	regulate/STIM_008.jpg	99
2100.864	1.958	1958.4	regulate	Run3	regulate/STIM_008.jpg	100
2106.543	1.173	1173.2	regulate	Run3	regulate/STIM_008.jpg	100
2111.291	1.561	1561.2	regulate	Run3	regulate/STIM_008.jpg	100
2115.922	1.891	1891.4	regulate	Run3	regulate/STIM_009.jpg	100
2121.743	2.398	2398.3	regulate	Run3	regulate/STIM_009.jpg	100
2126.324	1.725	1725.2	regulate	Run3	regulate/STIM_009.jpg	99
2130.874	2.286	2285.5	regulate	Run3	regulate/STIM_009.jpg	100
2136.271	1.696	1696.2	regulate	Run3	regulate/STIM_010.jpg	100
2141.271	1.414	1413.5	regulate	Run3	regulate/STIM_010.jpg	100
2145.962	2.064	2064.3	regulate	Run3	regulate/STIM_010.jpg	100
2150.261	2.212	2211.6	regulate	Run3	regulate/STIM_010.jpg	99
2155.385	1.762	1762.2	regulate	Run3	regulate/STIM_011.jpg	99
2159.931	1.09	1090.3	regulate	Run3	regulate/STIM_011.jpg	100
2163.99	2.04	2040.2	regulate	Run3	regulate/STIM_011.jpg	99
2169.73	1.815	1815.3	regulate	Run3	regulate/STIM_011.jpg	100
2174.666	1.428	1427.7	regulate	Run3	regulate/STIM_012.jpg	100
2178.741	2.542	2541.7	regulate	Run3	regulate/STIM_012.jpg	99
2184.994	1.893	1893.3	regulate	Run3	regulate/STIM_012.jpg	100
2189.981	2.104	2103.5	regulate	Run3	regulate/STIM_012.jpg	99
2195.043	1.722	1721.8	regulate	Run3	regulate/STIM_013.jpg	100
2199.916	1.654	1653.5	regulate	Run3	regulate/STIM_013.jpg	100
2204.03	2.296	2295.9	regulate	Run3	regulate/STIM_013.jpg	100
2208.358	2.439	2439.3	regulate	Run3	regulate/STIM_013.jpg	100
2212.819	2.042	2041.8	regulate	Run3	regulate/STIM_014.jpg	99
2218.397	1.416	1416.1	regulate	Run3	regulate/STIM_014.jpg	99
2222.701	2.267	2267.3	regulate	Run3	regulate/STIM_014.jpg	99
2227.181	1.568	1567.7	regulate	Run3	regulate/STIM_014.jpg	99
2232.286	1.108	1107.6	regulate	Run3	regulate/STIM_015.jpg	99
2237.097	2.094	2094.4	regulate	Run3	regulate/STIM_015.jpg	99
2242.863	1.306	1306.2	regulate	Run3	regulate/STIM_015.jpg	100
2247.696	2.421	2421.4	regulate	Run3	regulate/STIM_015.jpg	100
2254.001	1.594	1594.3	regulate	Run3	regulate/STIM_016.jpg	99
2258.749	2.285	2285.4	regulate	Run3	regulate/STIM_016.jpg	99
2263.421	1.868	1868.1	regulate	Run3	regulate/STIM_016.jpg	100
2267.898	1.834	1834.1	regulate	Run3	regulate/STIM_016.jpg	99
2272.161	1.225	1224.7	regulate	Run3	regulate/STIM_017.jpg	100
2277.225	2.35	2350.2	regulate	Run3	regulate/STIM_017.jpg	100
2283.416	2.117	2117.4	regulate	Run3	regulate/STIM_017.jpg	100
2288.606	2.357	2357.3	regulate	Run3	regulate/STIM_017.jpg	99
2293.331	1.308	1307.5	regulate	Run3	regulate/STIM_018.jpg	99
2298.181	1.886	1886.2	regulate	Run3	regulate/STIM_018.jpg	99
2302.827	1.786	1786.5	regulate	Run3	regulate/STIM_018.jpg	100
2307.296	1.429	1429.4	regulate	Run3	regulate/STIM_018.jpg	99
2312.549	2.183	2182.6	regulate	Run3	regulate/STIM_019.jpg	99
2318.305	2.49	2489.5	regulate	Run3	regulate/STIM_019.jpg	100
2323.653	2.255	2255.4	regulate	Run3	regulate/STIM_019.jpg	100
2329.332	2.123	2122.7	regulate	Run3	regulate/STIM_019.jpg	99
2334.694	1.261	1260.9	regulate	Run3	regulate/STIM_020.jpg	100
2339.275	1.995	1995.4	regulate	Run3	regulate/STIM_020.jpg	100
2343.436	1.756	1755.8	regulate	Run3	regulate/STIM_020.jpg	100
2347.38	1.646	1646.4	regulate	Run3	regulate/STIM_020.jpg	100
2351.056	1.502	1501.6	regulate	Run3	regulate/STIM_021.jpg	100
2355.724	2.264	2263.5	regulate	Run3	regulate/STIM_021.jpg	100
2360.908	1.401	1401.2	regulate	Run3	regulate/STIM_021.jpg	99
2365.226	2.031	2031.3	regulate	Run3	regulate/STIM_021.jpg	100
2369.299	2.053	2052.9	regulate	Run3	regulate/STIM_022.jpg	99
2374.935	2.204	2204.0	regulate	Run3	regulate/STIM_022.jpg	99
2380.73	2.258	2258.5	regulate	Run3	regulate/STIM_022.jpg	99
2385.403	2.205	2204.8	regulate	Run3	regulate/STIM_022.jpg	99
2390.015	1.208	1208.0	regulate	Run3	regulate/STIM_023.jpg	99
2394.955	1.649	1648.9	regulate	Run3	regulate/STIM_023.jpg	100
2398.653	2.359	2359.4	regulate	Run3	regulate/STIM_023.jpg	100
2403.179	1.661	1660.8	regulate	Run3	regulate/STIM_023.jpg	100
2408.001	2.143	2143.0	regulate	Run3	regulate/STIM_024.jpg	99
2412.863	1.825	1825.0	regulate	Run3	regulate/STIM_024.jpg	100
2417.515	2.138	2138.3	regulate	Run3	regulate/STIM_024.jpg	100
2422.564	1.806	1806.4	regulate	Run3	regulate/STIM_024.jpg	100
2426.771	1.286	1286.2	regulate	Run3	regulate/STIM_025.jpg	100
2431.863	1.449	1449.4	regulate	Run3	regulate/STIM_025.jpg	100
2436.901	1.284	1283.8	regulate	Run3	regulate/STIM_025.jpg	99
2440.248	2.001	2000.7	regulate	Run3	regulate/STIM_025.jpg	99
2444.951	2.407	2406.9	regulate	Run3	regulate/STIM_026.jpg	99
2449.748	2.384	2383.7	regulate	Run3	regulate/STIM_026.jpg	100
2456.046	1.595	1594.9	regulate	Run3	regulate/STIM_026.jpg	100
2460.29	1.262	1262.2	regulate	Run3	regulate/STIM_026.jpg	100
2464.09	1.912	1912.2	regulate	Run3	regulate/STIM_027.jpg	100
2469.414	1.967	1967.2	regulate	Run3	regulate/STIM_027.jpg	99
2474.44	1.915	1914.7	regulate	Run3	regulate/STIM_027.jpg	99
2478.513	1.435	1434.6	regulate	Run3	regulate/STIM_027.jpg	100
2483.278	1.68	1679.5	regulate	Run3	regulate/STIM_028.jpg	100
2488.662	1.131	1131.0	regulate	Run3	regulate/STIM_028.jpg	99
2492.295	2.462	2462.4	regulate	Run3	regulate/STIM_028.jpg	100
2497.882	1.909	1909.1	regulate	Run3	regulate/STIM_028.jpg	100
2503.533	2.432	2431.7	regulate	Run3	regulate/STIM_029.jpg	100
2508.275	1.476	1476.4	regulate	Run3	regulate/STIM_029.jpg	100
2513.191	1.87	1869.7	regulate	Run3	regulate/STIM_029.jpg	99
2518.168	2.326	2326.1	regulate	Run3	regulate/STIM_029.jpg	99
2523.906	1.04	1040.3	observe	Run3	observe/STIM_000.jpg	99
2528.926	1.497	1496.8	observe	Run3	observe/STIM_000.jpg	100
2534.313	1.268	1268.2	observe	Run3	observe/STIM_000.jpg	100
2539.362	1.513	1513.1	observe	Run3	observe/STIM_000.jpg	99
2543.619	1.127	1127.4	observe	Run3	observe/STIM_001.jpg	99
2548.527	1.454	1453.9	observe	Run3	observe/STIM_001.jpg	99
2552.006	0.899	899.1	observe	Run3	observe/STIM_001.jpg	99
2555.904	1.322	1322.0	observe	Run3	observe/STIM_001.jpg	99
2559.798	1.246	1246.3	observe	Run3	observe/STIM_002.jpg	99
2563.33	1.108	1107.7	observe	Run3	observe/STIM_002.jpg	100
2567.967	1.255	1255.3	observe	Run3	observe/STIM_002.jpg	99
2571.513	1.44	1439.9	observe	Run3	observe/STIM_002.jpg	99
2576.282	1.241	1241.2	observe	Run3	observe/STIM_003.jpg	100
2581.089	1.52	1520.4	observe	Run3	observe/STIM_003.jpg	100
2584.859	1.203	1203.4	observe	Run3	observe/STIM_003.jpg	100
2588.79	1.341	1340.6	observe	Run3	observe/STIM_003.jpg	100
2592.532	1.412	1411.6	observe	Run3	observe/STIM_004.jpg	100
2597.761	1.246	1245.7	observe	Run3	observe/STIM_004.jpg	99
2601.805	1.442	1442.1	observe	Run3	observe/STIM_004.jpg	100
2606.34	1.061	1061.0	observe	Run3	observe/STIM_004.jpg	99
2609.791	1.193	1192.8	observe	Run3	observe/STIM_005.jpg	100
2614.64	1.443	1443.3	observe	Run3	observe/STIM_005.jpg	100
2619.112	1.048	1047.9	observe	Run3	observe/STIM_005.jpg	100
2622.215	1.278	1278.0	observe	Run3	observe/STIM_005.jpg	100
2625.962	1.518	1518.1	observe	Run3	observe/STIM_006.jpg	100
2630.89	1.539	1539.0	observe	Run3	observe/STIM_006.jpg	99
2635.132	1.366	1366.3	observe	Run3	observe/STIM_006.jpg	100
2639.202	1.333	1332.8	observe	Run3	observe/STIM_006.jpg	99
2643.883	1.404	1403.8	observe	Run3	observe/STIM_007.jpg	100
2648.773	1.019	1018.6	observe	Run3	observe/STIM_007.jpg	99
2652.498	1.396	1396.3	observe	Run3	observe/STIM_007.jpg	100
2656.531	1.426	1425.5	observe	Run3	observe/STIM_007.jpg	99
2661.929	1.058	1057.9	observe	Run3	observe/STIM_008.jpg	99
2666.466	0.944	944.5	observe	Run3	observe/STIM_008.jpg	100
2670.452	1.236	1236.1	observe	Run3	observe/STIM_008.jpg	100
2673.867	1.545	1544.8	observe	Run3	observe/STIM_008.jpg	99
2679.108	1.496	1496.5	observe	Run3	observe/STIM_009.jpg	99
2683.661	1.414	1413.6	observe	Run3	observe/STIM_009.jpg	99
2687.781	0.994	994.2	observe	Run3	observe/STIM_009.jpg	100
2691.685	1.479	1479.4	observe	Run3	observe/STIM_009.jpg	100
2695.379	1.063	1063.4	observe	Run3	observe/STIM_010.jpg	99
2698.687	1.43	1429.5	observe	Run3	observe/STIM_010.jpg	100
2702.729	1.044	1044.3	observe	Run3	observe/STIM_010.jpg	100
2707.588	1.433	1433.1	observe	Run3	observe/STIM_010.jpg	100
2712.266	1.362	1362.2	observe	Run3	observe/STIM_011.jpg	100
2717.073	1.015	1015.1	observe	Run3	observe/STIM_011.jpg	99
2721.434	1.137	1136.8	observe	Run3	observe/STIM_011.jpg	100
2726.335	1.569	1568.7	observe	Run3	observe/STIM_011.jpg	100
2730.868	1.513	1512.8	observe	Run3	observe/STIM_012.jpg	100
2734.449	1.181	1180.8	observe	Run3	observe/STIM_012.jpg	100
2737.768	1.564	1563.8	observe	Run3	observe/STIM_012.jpg	100
2741.919	1.092	1092.2	observe	Run3	observe/STIM_012.jpg	99
2745.738	1.132	1132.2	observe	Run3	observe/STIM_013.jpg	99
2749.88	1.2	1200.4	observe	Run3	observe/STIM_013.jpg	100
2754.392	1.62	1619.6	observe	Run3	observe/STIM_013.jpg	100
2758.844	1.51	1510.3	observe	Run3	observe/STIM_013.jpg	99
2763.746	1.055	1054.7	observe	Run3	observe/STIM_014.jpg	100
2767.9	1.587	1586.7	observe	Run3	observe/STIM_014.jpg	99
2772.133	1.32	1319.7	observe	Run3	observe/STIM_014.jpg	100
2776.08	0.983	982.6	observe	Run3	observe/STIM_014.jpg	99
2780.391	1.267	1267.4	observe	Run3	observe/STIM_015.jpg	100
2783.881	0.923	923.3	observe	Run3	observe/STIM_015.jpg	99
2788.692	1.541	1540.7	observe	Run3	observe/STIM_015.jpg	100
2792.397	1.557	1557.4	observe	Run3	observe/STIM_015.jpg	100
2796.122	1.362	1362.3	observe	Run3	observe/STIM_016.jpg	100
2801.23	1.107	1107.0	observe	Run3	observe/STIM_016.jpg	100
2806.223	1.54	1540.0	observe	Run3	observe/STIM_016.jpg	100
2810.971	1.487	1486.8	observe	Run3	observe/STIM_016.jpg	99
2814.642	1.542	1542.0	observe	Run3	observe/STIM_017.jpg	99
2819.44	0.906	905.8	observe	Run3	observe/STIM_017.jpg	100
2822.708	0.942	942.0	observe	Run3	observe/STIM_017.jpg	100
2827.284	1.35	1350.2	observe	Run3	observe/STIM_017.jpg	99
2832.302	0.945	944.9	observe	Run3	observe/STIM_018.jpg	100
2836.486	0.964	963.9	observe	Run3	observe/STIM_018.jpg	99
2839.496	1.399	1398.6	observe	Run3	observe/STIM_018.jpg	99
2844.401	1.408	1408.3	observe	Run3	observe/STIM_018.jpg	100
2848.389	1.328	1327.9	observe	Run3	observe/STIM_019.jpg	99
2852.667	1.515	1514.8	observe	Run3	observe/STIM_019.jpg	100
2857.545	1.583	1582.9	observe	Run3	observe/STIM_019.jpg	99
2862.286	0.942	942.0	observe	Run3	observe/STIM_019.jpg	100
