onset	duration	response_time_ms	trial_type	learning_stage	stimulus	response_port
0.0	2.838	2838.2	navigation	Trial1	navigation/STIM_000.jpg	99
6.033	3.732	3732.1	navigation	Trial1	navigation/STIM_000.jpg	100
13.718	2.095	2094.8	navigation	Trial1	navigation/STIM_000.jpg	99
19.207	2.692	2692.5	navigation	Trial1	navigation/STIM_000.jpg	100
24.26	3.376	3375.9	navigation	Trial1	navigation/STIM_000.jpg	99
31.305	2.041	2040.9	navigation	Trial1	navigation/STIM_000.jpg	100
36.421	3.677	3677.3	navigation	Trial1	navigation/STIM_001.jpg	99
42.964	2.353	2353.0	navigation	Trial1	navigation/STIM_001.jpg	100
48.072	3.246	3245.7	navigation	Trial1	navigation/STIM_001.jpg	100
55.225	3.11	3109.8	navigation	Trial1	navigation/STIM_001.jpg	100
61.38	1.713	1712.8	navigation	Trial1	navigation/STIM_001.jpg	100
65.612	2.646	2646.0	navigation	Trial1	navigation/STIM_001.jpg	100
70.931	3.818	3817.5	navigation	Trial1	navigation/STIM_002.jpg	100
77.947	1.763	1762.6	navigation	Trial1	navigation/STIM_002.jpg	99
83.385	2.801	2800.9	navigation	Trial1	navigation/STIM_002.jpg	100
89.531	2.774	2774.2	navigation	Trial1	navigation/STIM_002.jpg	99
95.68	3.232	3231.9	navigation	Trial1	navigation/STIM_002.jpg	100
101.349	3.097	3096.7	navigation	Trial1	navigation/STIM_002.jpg	100
107.51	2.8	2799.8	navigation	Trial1	navigation/STIM_003.jpg	99
112.919	3.727	3727.4	navigation	Trial1	navigation/STIM_003.jpg	100
119.874	3.282	3282.4	navigation	Trial1	navigation/STIM_003.jpg	99
126.48	2.757	2756.9	navigation	Trial1	navigation/STIM_003.jpg	99
131.553	2.116	2115.5	navigation	Trial1	navigation/STIM_003.jpg	99
136.04	3.305	3304.6	navigation	Trial1	navigation/STIM_003.jpg	99
142.765	2.197	2196.8	navigation	Trial1	navigation/STIM_004.jpg	100
148.622	2.84	2839.6	navigation	Trial1	navigation/STIM_004.jpg	100
153.956	1.985	1984.8	navigation	Trial1	navigation/STIM_004.jpg	99
158.521	2.658	2657.7	navigation	Trial1	navigation/STIM_004.jpg	100
165.059	2.361	2360.9	navigation	Trial1	navigation/STIM_004.jpg	99
170.497	2.9	2899.7	navigation	Trial1	navigation/STIM_004.jpg	100
176.592	4.093	4093.3	navigation	Trial1	navigation/STIM_005.jpg	99
183.341	2.106	2105.9	navigation	Trial1	navigation/STIM_005.jpg	99
188.771	3.276	3275.7	navigation	Trial1	navigation/STIM_005.jpg	99
194.272	2.592	2592.2	navigation	Trial1	navigation/STIM_005.jpg	100
199.836	3.645	3645.4	navigation	Trial1	navigation/STIM_005.jpg	100
206.357	2.706	2705.8	navigation	Trial1	navigation/STIM_005.jpg	100
211.428	2.76	2759.7	navigation	Trial1	navigation/STIM_006.jpg	99
217.626	4.402	4401.7	navigation	Trial1	navigation/STIM_006.jpg	100
224.702	3.257	3257.4	navigation	Trial1	navigation/STIM_006.jpg	100
232.208	3.731	3730.8	navigation	Trial1	navigation/STIM_006.jpg	100
238.448	1.758	1758.4	navigation	Trial1	navigation/STIM_006.jpg	99
242.903	2.628	2627.5	navigation	Trial1	navigation/STIM_006.jpg	99
247.772	2.926	2926.4	navigation	Trial1	navigation/STIM_007.jpg	99
254.539	2.995	2995.4	navigation	Trial1	navigation/STIM_007.jpg	100
260.513	3.499	3499.4	navigation	Trial1	navigation/STIM_007.jpg	100
268.213	1.748	1748.0	navigation	Trial1	navigation/STIM_007.jpg	100
273.409	1.612	1611.5	navigation	Trial1	navigation/STIM_007.jpg	100
277.6	1.582	1582.3	navigation	Trial1	navigation/STIM_007.jpg	99
282.311	4.263	4263.4	navigation	Trial1	navigation/STIM_008.jpg	100
290.512	2.183	2183.3	navigation	Trial1	navigation/STIM_008.jpg	100
295.881	3.677	3677.1	navigation	Trial1	navigation/STIM_008.jpg	99
302.93	3.559	3558.7	navigation	Trial1	navigation/STIM_008.jpg	100
308.999	3.074	3073.7	navigation	Trial1	navigation/STIM_008.jpg	100
315.059	1.713	1712.7	navigation	Trial1	navigation/STIM_008.jpg	99
320.836	2.098	2098.3	navigation	Trial1	navigation/STIM_009.jpg	100
327.034	3.617	3617.2	navigation	Trial1	navigation/STIM_009.jpg	99
334.339	3.513	3512.8	navigation	Trial1	navigation/STIM_009.jpg	99
341.948	2.33	2330.1	navigation	Trial1	navigation/STIM_009.jpg	99
347.853	3.314	3314.1	navigation	Trial1	navigation/STIM_009.jpg	100
354.918	2.279	2278.6	navigation	Trial1	navigation/STIM_009.jpg	99
360.322	1.941	1941.3	navigation	Trial1	navigation/STIM_010.jpg	100
365.068	3.226	3225.7	navigation	Trial1	navigation/STIM_010.jpg	99
370.716	3.637	3637.0	navigation	Trial1	navigation/STIM_010.jpg	100
377.363	2.102	2102.1	navigation	Trial1	navigation/STIM_010.jpg	99
382.537	3.027	3026.7	navigation	Trial1	navigation/STIM_010.jpg	100
389.189	1.612	1612.3	navigation	Trial1	navigation/STIM_010.jpg	99
393.525	2.392	2392.0	navigation	Trial1	navigation/STIM_011.jpg	100
398.092	2.856	2855.7	navigation	Trial1	navigation/STIM_011.jpg	100
404.592	2.973	2973.3	navigation	Trial1	navigation/STIM_011.jpg	100
411.331	2.648	2647.7	navigation	Trial1	navigation/STIM_011.jpg	99
418.053	2.963	2962.7	navigation	Trial1	navigation/STIM_011.jpg	100
425.095	2.717	2717.1	navigation	Trial1	navigation/STIM_011.jpg	100
431.924	1.265	1265.1	pointing	Trial1	pointing/STIM_000.jpg	100
435.395	0.818	818.5	pointing	Trial1	pointing/STIM_000.jpg	100
440.245	1.257	1256.7	pointing	Trial1	pointing/STIM_000.jpg	100
443.566	1.138	1138.5	pointing	Trial1	pointing/STIM_000.jpg	100
448.555	0.76	760.5	pointing	Trial1	pointing/STIM_000.jpg	100
452.838	1.304	1304.0	pointing	Trial1	pointing/STIM_000.jpg	100
457.782	1.166	1166.1	pointing	Trial1	pointing/STIM_001.jpg	99
461.237	1.036	1035.9	pointing	Trial1	pointing/STIM_001.jpg	99
464.569	1.213	1213.1	pointing	Trial1	pointing/STIM_001.jpg	100
468.467	1.027	1026.9	pointing	Trial1	pointing/STIM_001.jpg	99
471.75	1.14	1140.5	pointing	Trial1	pointing/STIM_001.jpg	99
476.781	0.843	842.7	pointing	Trial1	pointing/STIM_001.jpg	99
480.473	1.25	1250.0	pointing	Trial1	pointing/STIM_002.jpg	99
484.086	0.796	795.5	pointing	Trial1	pointing/STIM_002.jpg	99
487.772	0.904	904.3	pointing	Trial1	pointing/STIM_002.jpg	100
491.828	0.969	969.3	pointing	Trial1	pointing/STIM_002.jpg	100
496.8	1.109	1109.1	pointing	Trial1	pointing/STIM_002.jpg	100
500.962	1.374	1374.1	pointing	Trial1	pointing/STIM_002.jpg	100
504.633	1.115	1115.2	pointing	Trial1	pointing/STIM_003.jpg	99
509.161	1.011	1010.8	pointing	Trial1	pointing/STIM_003.jpg	100
513.248	1.267	1267.2	pointing	Trial1	pointing/STIM_003.jpg	100
516.954	0.768	767.6	pointing	Trial1	pointing/STIM_003.jpg	100
521.555	1.167	1167.0	pointing	Trial1	pointing/STIM_003.jpg	99
525.239	0.871	871.3	pointing	Trial1	pointing/STIM_003.jpg	99
529.592	0.698	697.7	pointing	Trial1	pointing/STIM_004.jpg	99
533.022	0.862	861.8	pointing	Trial1	pointing/STIM_004.jpg	100
536.37	1.122	1122.0	pointing	Trial1	pointing/STIM_004.jpg	99
540.691	0.96	959.7	pointing	Trial1	pointing/STIM_004.jpg	99
544.768	1.421	1420.7	pointing	Trial1	pointing/STIM_004.jpg	100
549.056	1.374	1374.1	pointing	Trial1	pointing/STIM_004.jpg	99
552.724	1.215	1214.9	pointing	Trial1	pointing/STIM_005.jpg	100
556.499	0.848	847.5	pointing	Trial1	pointing/STIM_005.jpg	100
561.119	1.071	1070.7	pointing	Trial1	pointing/STIM_005.jpg	99
564.338	0.836	836.3	pointing	Trial1	pointing/STIM_005.jpg	100
567.409	0.751	751.0	pointing	Trial1	pointing/STIM_005.jpg	100
571.071	1.278	1278.4	pointing	Trial1	pointing/STIM_005.jpg	100
574.777	1.221	1220.8	pointing	Trial1	pointing/STIM_006.jpg	100
578.263	1.103	1103.1	pointing	Trial1	pointing/STIM_006.jpg	99
581.932	1.044	1043.6	pointing	Trial1	pointing/STIM_006.jpg	100
586.904	1.117	1117.4	pointing	Trial1	pointing/STIM_006.jpg	99
591.364	1.074	1074.1	pointing	Trial1	pointing/STIM_006.jpg	99
596.382	1.289	1289.1	pointing	Trial1	pointing/STIM_006.jpg	99
599.807	0.895	895.4	pointing	Trial1	pointing/STIM_007.jpg	100
603.592	0.77	770.0	pointing	Trial1	pointing/STIM_007.jpg	100
607.516	1.025	1025.1	pointing	Trial1	pointing/STIM_007.jpg	99
612.331	1.172	1171.7	pointing	Trial1	pointing/STIM_007.jpg	99
615.646	0.96	960.2	pointing	Trial1	pointing/STIM_007.jpg	100
620.103	0.872	871.7	pointing	Trial1	pointing/STIM_007.jpg	99
623.096	1.228	1228.3	pointing	Trial1	pointing/STIM_008.jpg	99
627.922	0.819	818.8	pointing	Trial1	pointing/STIM_008.jpg	100
632.138	1.285	1284.9	pointing	Trial1	pointing/STIM_008.jpg	99
636.927	1.098	1098.1	pointing	Trial1	pointing/STIM_008.jpg	99
641.477	1.096	1096.4	pointing	Trial1	pointing/STIM_008.jpg	99
644.861	1.398	1398.3	pointing	Trial1	pointing/STIM_008.jpg	99
650.125	1.342	1341.6	pointing	Trial1	pointing/STIM_009.jpg	100
654.358	1.239	1239.0	pointing	Trial1	pointing/STIM_009.jpg	100
658.984	0.832	832.0	pointing	Trial1	pointing/STIM_009.jpg	99
662.095	0.878	877.9	pointing	Trial1	pointing/STIM_009.jpg	99
666.905	1.163	1162.8	pointing	Trial1	pointing/STIM_009.jpg	100
670.893	0.85	849.9	pointing	Trial1	pointing/STIM_009.jpg	99
675.742	1.1	1100.5	pointing	Trial1	pointing/STIM_010.jpg	99
680.847	1.214	1213.8	pointing	Trial1	pointing/STIM_010.jpg	100
685.937	1.077	1077.1	pointing	Trial1	pointing/STIM_010.jpg	100
690.458	0.844	844.1	pointing	Trial1	pointing/STIM_010.jpg	99
694.283	0.933	933.1	pointing	Trial1	pointing/STIM_010.jpg	99
697.892	0.808	807.9	pointing	Trial1	pointing/STIM_010.jpg	100
701.779	1.397	1397.4	pointing	Trial1	pointing/STIM_011.jpg	100
706.418	0.797	797.4	pointing	Trial1	pointing/STIM_011.jpg	99
709.656	0.912	911.8	pointing	Trial1	pointing/STIM_011.jpg	99
713.538	0.781	780.6	pointing	Trial1	pointing/STIM_011.jpg	99
717.536	1.112	1111.7	pointing	Trial1	pointing/STIM_011.jpg	100
720.92	1.065	1064.9	pointing	Trial1	pointing/STIM_011.jpg	99
725.834	2.634	2634.3	navigation	Trial2	navigation/STIM_000.jpg	100
732.509	2.064	2063.5	navigation	Trial2	navigation/STIM_000.jpg	100
737.573	2.126	2125.5	navigation	Trial2	navigation/STIM_000.jpg	100
742.008	1.754	1753.5	navigation	Trial2	navigation/STIM_000.jpg	99
747.223	1.73	1729.9	navigation	Trial2	navigation/STIM_000.jpg	99
751.512	2.452	2451.6	navigation	Trial2	navigation/STIM_000.jpg	100
757.094	3.633	3632.9	navigation	Trial2	navigation/STIM_001.jpg	99
763.645	2.246	2246.5	navigation	Trial2	navigation/STIM_001.jpg	100
769.423	1.979	1979.4	navigation	Trial2	navigation/STIM_001.jpg	100
774.364	2.15	2150.2	navigation	Trial2	navigation/STIM_001.jpg	99
779.447	1.774	1773.7	navigation	Trial2	navigation/STIM_001.jpg	100
784.332	1.283	1283.3	navigation	Trial2	navigation/STIM_001.jpg	99
788.059	3.105	3105.1	navigation	Trial2	navigation/STIM_002.jpg	99
794.836	3.121	3120.9	navigation	Trial2	navigation/STIM_002.jpg	99
801.1	2.588	2588.5	navigation	Trial2	navigation/STIM_002.jpg	99
807.771	3.135	3134.6	navigation	Trial2	navigation/STIM_002.jpg	100
813.339	1.245	1244.6	navigation	Trial2	navigation/STIM_002.jpg	100
818.002	2.031	2030.8	navigation	Trial2	navigation/STIM_002.jpg	99
822.725	3.36	3360.1	navigation	Trial2	navigation/STIM_003.jpg	100
829.432	3.063	3063.1	navigation	Trial2	navigation/STIM_003.jpg	100
836.1	2.402	2401.9	navigation	Trial2	navigation/STIM_003.jpg	99
841.942	2.619	2618.8	navigation	Trial2	navigation/STIM_003.jpg	100
848.857	2.585	2584.9	navigation	Trial2	navigation/STIM_003.jpg	100
854.989	2.264	2263.8	navigation	Trial2	navigation/STIM_003.jpg	100
859.548	2.904	2904.2	navigation	Trial2	navigation/STIM_004.jpg	99
865.308	1.748	1748.5	navigation	Trial2	navigation/STIM_004.jpg	100
871.136	3.05	3049.9	navigation	Trial2	navigation/STIM_004.jpg	100
878.044	1.755	1754.6	navigation	Trial2	navigation/STIM_004.jpg	99
883.351	2.078	2078.5	navigation	Trial2	navigation/STIM_004.jpg	100
888.543	1.392	1392.2	navigation	Trial2	navigation/STIM_004.jpg	100
892.419	3.697	3697.3	navigation	Trial2	navigation/STIM_005.jpg	99
899.087	2.427	2426.8	navigation	Trial2	navigation/STIM_005.jpg	99
905.122	2.541	2541.2	navigation	Trial2	navigation/STIM_005.jpg	99
909.912	3.163	3162.8	navigation	Trial2	navigation/STIM_005.jpg	99
916.572	2.17	2170.5	navigation	Trial2	navigation/STIM_005.jpg	99
921.005	2.913	2913.3	navigation	Trial2	navigation/STIM_005.jpg	99
926.673	3.606	3605.6	navigation	Trial2	navigation/STIM_006.jpg	100
932.687	2.789	2789.1	navigation	Trial2	navigation/STIM_006.jpg	99
938.295	2.745	2744.9	navigation	Trial2	navigation/STIM_006.jpg	99
944.601	1.651	1651.1	navigation	Trial2	navigation/STIM_006.jpg	99
949.838	2.173	2172.7	navigation	Trial2	navigation/STIM_006.jpg	100
954.642	1.567	1567.3	navigation	Trial2	navigation/STIM_006.jpg	99
959.267	3.708	3707.7	navigation	Trial2	navigation/STIM_007.jpg	99
966.393	3.52	3520.4	navigation	Trial2	navigation/STIM_007.jpg	100
972.3	3.392	3391.5	navigation	Trial2	navigation/STIM_007.jpg	100
978.428	2.206	2206.3	navigation	Trial2	navigation/STIM_007.jpg	100
983.438	1.295	1294.9	navigation	Trial2	navigation/STIM_007.jpg	100
986.907	1.786	1786.0	navigation	Trial2	navigation/STIM_007.jpg	100
990.998	3.725	3725.2	navigation	Trial2	navigation/STIM_008.jpg	99
997.378	1.943	1942.7	navigation	Trial2	navigation/STIM_008.jpg	100
1002.206	1.966	1965.8	navigation	Trial2	navigation/STIM_008.jpg	100
1007.475	2.347	2346.8	navigation	Trial2	navigation/STIM_008.jpg	100
1012.111	1.34	1340.2	navigation	Trial2	navigation/STIM_008.jpg	100
1016.051	2.268	2267.5	navigation	Trial2	navigation/STIM_008.jpg	99
1020.81	3.239	3238.9	navigation	Trial2	navigation/STIM_009.jpg	99
1026.563	1.616	1616.2	navigation	Trial2	navigation/STIM_009.jpg	99
1032.094	2.634	2633.7	navigation	Trial2	navigation/STIM_009.jpg	99
1038.465	1.957	1957.4	navigation	Trial2	navigation/STIM_009.jpg	99
1042.859	1.579	1579.2	navigation	Trial2	navigation/STIM_009.jpg	100
1048.444	2.852	2851.8	navigation	Trial2	navigation/STIM_009.jpg	100
1054.259	3.214	3214.5	navigation	Trial2	navigation/STIM_010.jpg	100
1059.875	2.895	2894.9	navigation	Trial2	navigation/STIM_010.jpg	99
1065.469	1.905	1904.8	navigation	Trial2	navigation/STIM_010.jpg	100
1070.033	1.342	1341.5	navigation	Trial2	navigation/STIM_010.jpg	99
1073.551	3.039	3039.2	navigation	Trial2	navigation/STIM_010.jpg	100
1079.818	2.249	2249.2	navigation	Trial2	navigation/STIM_010.jpg	100
1084.988	3.796	3795.5	navigation	Trial2	navigation/STIM_011.jpg	100
1092.917	1.634	1633.7	navigation	Trial2	navigation/STIM_011.jpg	99
1097.667	1.967	1967.1	navigation	Trial2	navigation/STIM_011.jpg	100
1103.307	1.316	1315.9	navigation	Trial2	navigation/STIM_011.jpg	99
1106.838	2.352	2352.3	navigation	Trial2	navigation/STIM_011.jpg	100
1111.727	3.015	3015.0	navigation	Trial2	navigation/STIM_011.jpg	100
1118.946	1.302	1301.6	pointing	Trial2	pointing/STIM_000.jpg	99
1123.586	1.143	1142.6	pointing	Trial2	pointing/STIM_000.jpg	100
1127.957	1.315	1314.8	pointing	Trial2	pointing/STIM_000.jpg	100
1132.016	1.24	1239.6	pointing	Trial2	pointing/STIM_000.jpg	100
1135.415	0.673	673.0	pointing	Trial2	pointing/STIM_000.jpg	100
1139.657	1.324	1323.7	pointing	Trial2	pointing/STIM_000.jpg	99
1143.991	1.094	1093.9	pointing	Trial2	pointing/STIM_001.jpg	100
1147.477	1.18	1179.9	pointing	Trial2	pointing/STIM_001.jpg	99
1150.838	1.154	1154.3	pointing	Trial2	pointing/STIM_001.jpg	99
1155.393	0.737	736.9	pointing	Trial2	pointing/STIM_001.jpg	99
1158.424	1.217	1217.2	pointing	Trial2	pointing/STIM_001.jpg	99
1162.939	1.226	1226.0	pointing	Trial2	pointing/STIM_001.jpg	100
1167.946	1.329	1328.9	pointing	Trial2	pointing/STIM_002.jpg	99
1171.676	0.872	871.8	pointing	Trial2	pointing/STIM_002.jpg	99
1175.062	0.876	875.6	pointing	Trial2	pointing/STIM_002.jpg	100
1178.718	0.768	767.9	pointing	Trial2	pointing/STIM_002.jpg	100
1182.776	1.193	1192.6	pointing	Trial2	pointing/STIM_002.jpg	99
1186.375	0.933	933.4	pointing	Trial2	pointing/STIM_002.jpg	99
1189.576	1.053	1052.7	pointing	Trial2	pointing/STIM_003.jpg	100
1192.812	1.028	1028.1	pointing	Trial2	pointing/STIM_003.jpg	100
1197.517	1.325	1325.2	pointing	Trial2	pointing/STIM_003.jpg	100
1202.63	1.061	1061.4	pointing	Trial2	pointing/STIM_003.jpg	99
1206.105	1.136	1136.1	pointing	Trial2	pointing/STIM_003.jpg	100
1210.969	1.022	1022.0	pointing	Trial2	pointing/STIM_003.jpg	99
1215.199	1.243	1242.7	pointing	Trial2	pointing/STIM_004.jpg	100
1218.842	1.348	1348.5	pointing	Trial2	pointing/STIM_004.jpg	100
1223.242	1.227	1227.3	pointing	Trial2	pointing/STIM_004.jpg	100
1227.145	1.144	1143.8	pointing	Trial2	pointing/STIM_004.jpg	99
1230.701	0.897	896.6	pointing	Trial2	pointing/STIM_004.jpg	99
1234.967	0.819	818.9	pointing	Trial2	pointing/STIM_004.jpg	99
1238.079	1.144	1144.4	pointing	Trial2	pointing/STIM_005.jpg	99
1242.737	0.86	859.7	pointing	Trial2	pointing/STIM_005.jpg	100
1245.994	1.121	1120.6	pointing	Trial2	pointing/STIM_005.jpg	99
1249.676	0.972	971.9	pointing	Trial2	pointing/STIM_005.jpg	100
1253.942	0.885	884.6	pointing	Trial2	pointing/STIM_005.jpg	99
1256.982	1.304	1303.8	pointing	Trial2	pointing/STIM_005.jpg	100
1260.741	1.31	1310.1	pointing	Trial2	pointing/STIM_006.jpg	100
1264.397	1.294	1294.0	pointing	Trial2	pointing/STIM_006.jpg	99
1268.751	0.985	985.3	pointing	Trial2	pointing/STIM_006.jpg	100
1273.709	0.836	835.5	pointing	Trial2	pointing/STIM_006.jpg	100
1277.989	1.446	1445.5	pointing	Trial2	pointing/STIM_006.jpg	99
1282.285	1.118	1117.7	pointing	Trial2	pointing/STIM_006.jpg	100
1286.75	1.211	1211.2	pointing	Trial2	pointing/STIM_007.jpg	99
1291.484	0.9	900.0	pointing	Trial2	pointing/STIM_007.jpg	100
1294.544	1.025	1025.2	pointing	Trial2	pointing/STIM_007.jpg	100
1298.923	0.932	931.7	pointing	Trial2	pointing/STIM_007.jpg	100
1303.625	1.079	1078.7	pointing	Trial2	pointing/STIM_007.jpg	99
1307.954	1.319	1318.9	pointing	Trial2	pointing/STIM_007.jpg	99
1313.208	0.783	783.3	pointing	Trial2	pointing/STIM_008.jpg	100
1317.221	1.125	1125.0	pointing	Trial2	pointing/STIM_008.jpg	100
1320.806	0.935	934.9	pointing	Trial2	pointing/STIM_008.jpg	99
1324.671	0.809	808.8	pointing	Trial2	pointing/STIM_008.jpg	100
1327.785	1.061	1061.4	pointing	Trial2	pointing/STIM_008.jpg	100
1332.586	0.948	947.8	pointing	Trial2	pointing/STIM_008.jpg	99
1336.798	1.271	1271.3	pointing	Trial2	pointing/STIM_009.jpg	99
1341.61	1.28	1280.0	pointing	Trial2	pointing/STIM_009.jpg	100
1346.697	0.802	802.4	pointing	Trial2	pointing/STIM_009.jpg	99
1350.259	1.29	1289.5	pointing	Trial2	pointing/STIM_009.jpg	100
1353.747	1.336	1336.1	pointing	Trial2	pointing/STIM_009.jpg	99
1357.886	1.418	1417.9	pointing	Trial2	pointing/STIM_009.jpg	99
1362.881	1.273	1272.7	pointing	Trial2	pointing/STIM_010.jpg	100
1368.096	1.143	1142.8	pointing	Trial2	pointing/STIM_010.jpg	99
1372.349	1.162	1161.6	pointing	Trial2	pointing/STIM_010.jpg	100
1376.58	1.083	1083.0	pointing	Trial2	pointing/STIM_010.jpg	100
1380.901	1.346	1346.3	pointing	Trial2	pointing/STIM_010.jpg	99
1385.493	0.819	818.8	pointing	Trial2	pointing/STIM_010.jpg	100
1388.917	1.138	1138.3	pointing	Trial2	pointing/STIM_011.jpg	99
1392.46	1.254	1253.7	pointing	Trial2	pointing/STIM_011.jpg	100
1397.648	0.813	812.9	pointing	Trial2	pointing/STIM_011.jpg	100
1402.002	1.303	1302.7	pointing	Trial2	pointing/STIM_011.jpg	100
1405.48	1.034	1034.5	pointing	Trial2	pointing/STIM_011.jpg	99
1408.614	0.91	910.4	pointing	Trial2	pointing/STIM_011.jpg	100
1412.025	2.489	2488.6	navigation	Trial3	navigation/STIM_000.jpg	99
1417.751	2.639	2639.2	navigation	Trial3	navigation/STIM_000.jpg	100
1424.088	1.991	1990.9	navigation	Trial3	navigation/STIM_000.jpg	100
1429.669	2.504	2503.7	navigation	Trial3	navigation/STIM_000.jpg	99
1434.947	1.659	1658.7	navigation	Trial3	navigation/STIM_000.jpg	99
1439.905	2.345	2344.8	navigation	Trial3	navigation/STIM_000.jpg	100
1445.952	1.935	1934.9	navigation	Trial3	navigation/STIM_001.jpg	99
1451.832	2.98	2980.1	navigation	Trial3	navigation/STIM_001.jpg	100
1458.014	1.576	1576.1	navigation	Trial3	navigation/STIM_001.jpg	99
1462.093	2.195	2194.6	navigation	Trial3	navigation/STIM_001.jpg	99
1467.64	3.005	3005.2	navigation	Trial3	navigation/STIM_001.jpg	100
1473.701	2.938	2938.3	navigation	Trial3	navigation/STIM_001.jpg	100
1480.631	1.591	1591.0	navigation	Trial3	navigation/STIM_002.jpg	100
1485.958	2.551	2550.8	navigation	Trial3	navigation/STIM_002.jpg	100
1491.591	2.794	2794.1	navigation	Trial3	navigation/STIM_002.jpg	99
1498.479	2.313	2312.8	navigation	Trial3	navigation/STIM_002.jpg	99
1503.15	2.888	2888.5	navigation	Trial3	navigation/STIM_002.jpg	99
1508.612	2.52	2519.9	navigation	Trial3	navigation/STIM_002.jpg	99
1514.313	2.068	2067.5	navigation	Trial3	navigation/STIM_003.jpg	100
1519.964	2.977	2977.4	navigation	Trial3	navigation/STIM_003.jpg	99
1526.986	1.464	1463.5	navigation	Trial3	navigation/STIM_003.jpg	99
1532.339	3.214	3214.0	navigation	Trial3	navigation/STIM_003.jpg	100
1538.875	2.221	2220.8	navigation	Trial3	navigation/STIM_003.jpg	100
1543.635	1.937	1937.1	navigation	Trial3	navigation/STIM_003.jpg	100
1549.158	1.878	1878.4	navigation	Trial3	navigation/STIM_004.jpg	99
1553.613	2.639	2638.7	navigation	Trial3	navigation/STIM_004.jpg	100
1560.293	2.371	2371.3	navigation	Trial3	navigation/STIM_004.jpg	99
1565.064	2.704	2704.0	navigation	Trial3	navigation/STIM_004.jpg	99
1570.817	2.924	2923.7	navigation	Trial3	navigation/STIM_004.jpg	100
1576.005	1.44	1439.9	navigation	Trial3	navigation/STIM_004.jpg	100
1580.589	2.791	2791.3	navigation	Trial3	navigation/STIM_005.jpg	99
1587.017	1.323	1323.4	navigation	Trial3	navigation/STIM_005.jpg	99
1591.033	2.298	2297.7	navigation	Trial3	navigation/STIM_005.jpg	99
1597.167	2.628	2627.7	navigation	Trial3	navigation/STIM_005.jpg	99
1602.589	2.377	2377.3	navigation	Trial3	navigation/STIM_005.jpg	100
1608.952	1.534	1533.9	navigation	Trial3	navigation/STIM_005.jpg	100
1613.316	2.848	2848.3	navigation	Trial3	navigation/STIM_006.jpg	99
1619.849	1.44	1439.9	navigation	Trial3	navigation/STIM_006.jpg	99
1623.414	1.542	1542.4	navigation	Trial3	navigation/STIM_006.jpg	99
1627.105	2.217	2217.2	navigation	Trial3	navigation/STIM_006.jpg	99
1633.069	1.54	1539.5	navigation	Trial3	navigation/STIM_006.jpg	100
1637.346	3.13	3130.2	navigation	Trial3	navigation/STIM_006.jpg	99
1643.353	2.836	2836.3	navigation	Trial3	navigation/STIM_007.jpg	100
1650.041	3.088	3088.2	navigation	Trial3	navigation/STIM_007.jpg	99
1657.01	2.907	2907.3	navigation	Trial3	navigation/STIM_007.jpg	99
1663.912	2.115	2114.7	navigation	Trial3	navigation/STIM_007.jpg	100
1668.835	2.825	2825.2	navigation	Trial3	navigation/STIM_007.jpg	100
1674.519	3.088	3087.6	navigation	Trial3	navigation/STIM_007.jpg	100
1681.008	2.771	2770.9	navigation	Trial3	navigation/STIM_008.jpg	99
1687.91	1.916	1916.0	navigation	Trial3	navigation/STIM_008.jpg	100
1693.56	1.936	1936.1	navigation	Trial3	navigation/STIM_008.jpg	99
1699.643	2.568	2568.3	navigation	Trial3	navigation/STIM_008.jpg	100
1704.454	2.688	2687.5	navigation	Trial3	navigation/STIM_008.jpg	99
1710.894	3.047	3047.2	navigation	Trial3	navigation/STIM_008.jpg	100
1717.109	2.92	2919.6	navigation	Trial3	navigation/STIM_009.jpg	99
1724.329	2.174	2174.5	navigation	Trial3	navigation/STIM_009.jpg	99
1729.034	1.349	1348.9	navigation	Trial3	navigation/STIM_009.jpg	99
1733.973	1.314	1313.6	navigation	Trial3	navigation/STIM_009.jpg	100
1739.413	2.291	2291.2	navigation	Trial3	navigation/STIM_009.jpg	100
1744.826	2.6	2600.0	navigation	Trial3	navigation/STIM_009.jpg	100
1749.719	2.541	2541.3	navigation	Trial3	navigation/STIM_010.jpg	99
1756.194	1.556	1556.2	navigation	Trial3	navigation/STIM_010.jpg	100
1760.596	2.071	2070.6	navigation	Trial3	navigation/STIM_010.jpg	99
1766.469	3.093	3093.1	navigation	Trial3	navigation/STIM_010.jpg	99
1772.644	1.575	1574.6	navigation	Trial3	navigation/STIM_010.jpg	100
1776.889	1.556	1555.7	navigation	Trial3	navigation/STIM_010.jpg	99
1782.374	1.512	1512.4	navigation	Trial3	navigation/STIM_011.jpg	99
1787.121	2.306	2306.1	navigation	Trial3	navigation/STIM_011.jpg	100
1791.681	2.059	2059.1	navigation	Trial3	navigation/STIM_011.jpg	100
1797.21	1.768	1768.0	navigation	Trial3	navigation/STIM_011.jpg	100
1802.996	2.565	2564.7	navigation	Trial3	navigation/STIM_011.jpg	99
1808.855	2.229	2229.4	navigation	Trial3	navigation/STIM_011.jpg	100
1813.723	1.29	1290.3	pointing	Trial3	pointing/STIM_000.jpg	99
1818.748	1.061	1061.1	pointing	Trial3	pointing/STIM_000.jpg	99
1822.67	1.184	1183.7	pointing	Trial3	pointing/STIM_000.jpg	99
1827.185	1.157	1156.9	pointing	Trial3	pointing/STIM_000.jpg	100
1832.136	1.041	1041.4	pointing	Trial3	pointing/STIM_000.jpg	100
1835.503	0.877	876.9	pointing	Trial3	pointing/STIM_000.jpg	99
1839.475	1.086	1086.4	pointing	Trial3	pointing/STIM_001.jpg	100
1843.971	0.952	952.2	pointing	Trial3	pointing/STIM_001.jpg	100
1848.743	1.032	1032.2	pointing	Trial3	pointing/STIM_001.jpg	99
1852.555	0.963	962.7	pointing	Trial3	pointing/STIM_001.jpg	99
1857.513	1.229	1229.4	pointing	Trial3	pointing/STIM_001.jpg	99
1862.675	1.271	1271.2	pointing	Trial3	pointing/STIM_001.jpg	99
1866.666	1.058	1057.8	pointing	Trial3	pointing/STIM_002.jpg	100
1871.326	0.969	969.3	pointing	Trial3	pointing/STIM_002.jpg	99
1876.304	1.195	1195.1	pointing	Trial3	pointing/STIM_002.jpg	100
1881.322	0.847	847.2	pointing	Trial3	pointing/STIM_002.jpg	100
1885.437	1.16	1159.6	pointing	Trial3	pointing/STIM_002.jpg	99
1889.608	1.286	1286.1	pointing	Trial3	pointing/STIM_002.jpg	99
1894.622	1.338	1337.8	pointing	Trial3	pointing/STIM_003.jpg	100
1899.904	0.973	973.4	pointing	Trial3	pointing/STIM_003.jpg	100
1904.208	1.109	1108.7	pointing	Trial3	pointing/STIM_003.jpg	99
1907.663	0.808	808.5	pointing	Trial3	pointing/STIM_003.jpg	99
1910.994	1.07	1069.5	pointing	Trial3	pointing/STIM_003.jpg	100
1914.984	1.17	1170.1	pointing	Trial3	pointing/STIM_003.jpg	99
1918.546	0.814	814.2	pointing	Trial3	pointing/STIM_004.jpg	100
1921.429	0.763	762.8	pointing	Trial3	pointing/STIM_004.jpg	100
1925.375	1.12	1120.2	pointing	Trial3	pointing/STIM_004.jpg	99
1930.253	1.138	1138.3	pointing	Trial3	pointing/STIM_004.jpg	100
1933.502	1.389	1389.0	pointing	Trial3	pointing/STIM_004.jpg	99
1938.733	1.34	1340.2	pointing	Trial3	pointing/STIM_004.jpg	100
1943.948	0.87	869.6	pointing	Trial3	pointing/STIM_005.jpg	99
1948.163	1.092	1092.5	pointing	Trial3	pointing/STIM_005.jpg	99
1952.655	1.164	1163.7	pointing	Trial3	pointing/STIM_005.jpg	99
1956.128	1.31	1309.5	pointing	Trial3	pointing/STIM_005.jpg	99
1961.136	0.992	991.7	pointing	Trial3	pointing/STIM_005.jpg	99
1965.667	1.118	1118.4	pointing	Trial3	pointing/STIM_005.jpg	100
1969.357	1.17	1169.5	pointing	Trial3	pointing/STIM_006.jpg	100
1972.661	1.164	1163.7	pointing	Trial3	pointing/STIM_006.jpg	99
1977.753	1.145	1145.1	pointing	Trial3	pointing/STIM_006.jpg	100
1981.275	0.952	952.2	pointing	Trial3	pointing/STIM_006.jpg	100
1985.266	1.103	1102.7	pointing	Trial3	pointing/STIM_006.jpg	99
1988.888	1.343	1342.6	pointing	Trial3	pointing/STIM_006.jpg	100
1993.155	1.152	1152.0	pointing	Trial3	pointing/STIM_007.jpg	100
1997.454	1.144	1144.2	pointing	Trial3	pointing/STIM_007.jpg	99
2002.679	1.006	1006.2	pointing	Trial3	pointing/STIM_007.jpg	99
2007.586	0.78	780.3	pointing	Trial3	pointing/STIM_007.jpg	99
2010.995	0.936	935.7	pointing	Trial3	pointing/STIM_007.jpg	99
2014.277	1.425	1425.2	pointing	Trial3	pointing/STIM_007.jpg	99
2017.936	1.2	1200.0	pointing	Trial3	pointing/STIM_008.jpg	99
2021.323	1.099	1099.2	pointing	Trial3	pointing/STIM_008.jpg	100
2025.2	0.87	870.3	pointing	Trial3	pointing/STIM_008.jpg	100
2028.425	0.819	818.7	pointing	Trial3	pointing/STIM_008.jpg	100
2031.89	0.978	977.9	pointing	Trial3	pointing/STIM_008.jpg	99
2036.772	1.37	1369.9	pointing	Trial3	pointing/STIM_008.jpg	100
2041.585	0.841	841.1	pointing	Trial3	pointing/STIM_009.jpg	99
2046.343	1.284	1283.7	pointing	Trial3	pointing/STIM_009.jpg	99
2050.978	0.899	899.0	pointing	Trial3	pointing/STIM_009.jpg	100
2054.02	1.287	1286.7	pointing	Trial3	pointing/STIM_009.jpg	100
2058.756	1.134	1133.9	pointing	Trial3	pointing/STIM_009.jpg	99
2063.577	1.166	1165.8	pointing	Trial3	pointing/STIM_009.jpg	100
2068.124	0.922	921.9	pointing	Trial3	pointing/STIM_010.jpg	99
2071.595	0.876	875.9	pointing	Trial3	pointing/STIM_010.jpg	99
2076.034	1.29	1289.6	pointing	Trial3	pointing/STIM_010.jpg	99
2079.524	1.418	1417.5	pointing	Trial3	pointing/STIM_010.jpg	100
2084.514	0.948	947.6	pointing	Trial3	pointing/STIM_010.jpg	100
2089.177	0.789	789.1	pointing	Trial3	pointing/STIM_010.jpg	100
2092.6	0.783	782.6	pointing	Trial3	pointing/STIM_011.jpg	99
2096.286	0.797	796.6	pointing	Trial3	pointing/STIM_011.jpg	100
2099.341	1.236	1235.5	pointing	Trial3	pointing/STIM_011.jpg	100
2104.593	0.95	949.5	pointing	Trial3	pointing/STIM_011.jpg	99
2109.086	1.217	1217.2	pointing	Trial3	pointing/STIM_011.jpg	99
2112.709	0.996	996.4	pointing	Trial3	pointing/STIM_011.jpg	100
