onset	duration	accuracy_binary	trial_type	learning_stage	stimulus
0.0	2.838	0	navigation	Trial1	navigation/STIM_000.jpg
6.033	3.732	0	navigation	Trial1	navigation/STIM_000.jpg
13.718	2.095	0	navigation	Trial1	navigation/STIM_000.jpg
19.207	2.692	1	navigation	Trial1	navigation/STIM_000.jpg
24.26	3.376	1	navigation	Trial1	navigation/STIM_000.jpg
31.305	2.041	0	navigation	Trial1	navigation/STIM_000.jpg
36.421	3.677	1	navigation	Trial1	navigation/STIM_001.jpg
42.964	2.353	1	navigation	Trial1	navigation/STIM_001.jpg
48.072	3.246	1	navigation	Trial1	navigation/STIM_001.jpg
55.225	3.11	1	navigation	Trial1	navigation/STIM_001.jpg
61.38	1.713	1	navigation	Trial1	navigation/STIM_001.jpg
65.612	2.646	1	navigation	Trial1	navigation/STIM_001.jpg
70.931	3.818	1	navigation	Trial1	navigation/STIM_002.jpg
77.947	1.763	1	navigation	Trial1	navigation/STIM_002.jpg
83.385	2.801	1	navigation	Trial1	navigation/STIM_002.jpg
89.531	2.774	0	navigation	Trial1	navigation/STIM_002.jpg
95.68	3.232	1	navigation	Trial1	navigation/STIM_002.jpg
101.349	3.097	1	navigation	Trial1	navigation/STIM_002.jpg
107.51	2.8	0	navigation	Trial1	navigation/STIM_003.jpg
112.919	3.727	1	navigation	Trial1	navigation/STIM_003.jpg
119.874	3.282	1	navigation	Trial1	navigation/STIM_003.jpg
126.48	2.757	1	navigation	Trial1	navigation/STIM_003.jpg
131.553	2.116	0	navigation	Trial1	navigation/STIM_003.jpg
136.04	3.305	1	navigation	Trial1	navigation/STIM_003.jpg
142.765	2.197	1	navigation	Trial1	navigation/STIM_004.jpg
148.622	2.84	0	navigation	Trial1	navigation/STIM_004.jpg
153.956	1.985	1	navigation	Trial1	navigation/STIM_004.jpg
158.521	2.658	1	navigation	Trial1	navigation/STIM_004.jpg
165.059	2.361	0	navigation	Trial1	navigation/STIM_004.jpg
170.497	2.9	0	navigation	Trial1	navigation/STIM_004.jpg
176.592	4.093	1	navigation	Trial1	navigation/STIM_005.jpg
183.341	2.106	0	navigation	Trial1	navigation/STIM_005.jpg
188.771	3.276	1	navigation	Trial1	navigation/STIM_005.jpg
194.272	2.592	1	navigation	Trial1	navigation/STIM_005.jpg
199.836	3.645	1	navigation	Trial1	navigation/STIM_005.jpg
206.357	2.706	0	navigation	Trial1	navigation/STIM_005.jpg
211.428	2.76	0	navigation	Trial1	navigation/STIM_006.jpg
217.626	4.402	1	navigation	Trial1	navigation/STIM_006.jpg
224.702	3.257	1	navigation	Trial1	navigation/STIM_006.jpg
232.208	3.731	1	navigation	Trial1	navigation/STIM_006.jpg
238.448	1.758	1	navigation	Trial1	navigation/STIM_006.jpg
242.903	2.628	1	navigation	Trial1	navigation/STIM_006.jpg
247.772	2.926	1	navigation	Trial1	navigation/STIM_007.jpg
254.539	2.995	0	navigation	Trial1	navigation/STIM_007.jpg
260.513	3.499	1	navigation	Trial1	navigation/STIM_007.jpg
268.213	1.748	1	navigation	Trial1	navigation/STIM_007.jpg
273.409	1.612	1	navigation	Trial1	navigation/STIM_007.jpg
277.6	1.582	1	navigation	Trial1	navigation/STIM_007.jpg
282.311	4.263	0	navigation	Trial1	navigation/STIM_008.jpg
290.512	2.183	1	navigation	Trial1	navigation/STIM_008.jpg
295.881	3.677	1	navigation	Trial1	navigation/STIM_008.jpg
302.93	3.559	0	navigation	Trial1	navigation/STIM_008.jpg
308.999	3.074	1	navigation	Trial1	navigation/STIM_008.jpg
315.059	1.713	0	navigation	Trial1	navigation/STIM_008.jpg
320.836	2.098	1	navigation	Trial1	navigation/STIM_009.jpg
327.034	3.617	1	navigation	Trial1	navigation/STIM_009.jpg
334.339	3.513	1	navigation	Trial1	navigation/STIM_009.jpg
341.948	2.33	1	navigation	Trial1	navigation/STIM_009.jpg
347.853	3.314	1	navigation	Trial1	navigation/STIM_009.jpg
354.918	2.279	1	navigation	Trial1	navigation/STIM_009.jpg
360.322	1.941	0	navigation	Trial1	navigation/STIM_010.jpg
365.068	3.226	0	navigation	Trial1	navigation/STIM_010.jpg
370.716	3.637	1	navigation	Trial1	navigation/STIM_010.jpg
377.363	2.102	1	navigation	Trial1	navigation/STIM_010.jpg
382.537	3.027	1	navigation	Trial1	navigation/STIM_010.jpg
389.189	1.612	1	navigation	Trial1	navigation/STIM_010.jpg
393.525	2.392	1	navigation	Trial1	navigation/STIM_011.jpg
398.092	2.856	1	navigation	Trial1	navigation/STIM_011.jpg
404.592	2.973	1	navigation	Trial1	navigation/STIM_011.jpg
411.331	2.648	1	navigation	Trial1	navigation/STIM_011.jpg
418.053	2.963	1	navigation	Trial1	navigation/STIM_011.jpg
425.095	2.717	1	navigation	Trial1	navigation/STIM_011.jpg
431.924	1.265	1	pointing	Trial1	pointing/STIM_000.jpg
435.395	0.818	1	pointing	Trial1	pointing/STIM_000.jpg
440.245	1.257	1	pointing	Trial1	pointing/STIM_000.jpg
443.566	1.138	1	pointing	Trial1	pointing/STIM_000.jpg
448.555	0.76	1	pointing	Trial1	pointing/STIM_000.jpg
452.838	1.304	1	pointing	Trial1	pointing/STIM_000.jpg
457.782	1.166	1	pointing	Trial1	pointing/STIM_001.jpg
461.237	1.036	1	pointing	Trial1	pointing/STIM_001.jpg
464.569	1.213	1	pointing	Trial1	pointing/STIM_001.jpg
468.467	1.027	1	pointing	Trial1	pointing/STIM_001.jpg
471.75	1.14	1	pointing	Trial1	pointing/STIM_001.jpg
476.781	0.843	1	pointing	Trial1	pointing/STIM_001.jpg
480.473	1.25	1	pointing	Trial1	pointing/STIM_002.jpg
484.086	0.796	1	pointing	Trial1	pointing/STIM_002.jpg
487.772	0.904	1	pointing	Trial1	pointing/STIM_002.jpg
491.828	0.969	0	pointing	Trial1	pointing/STIM_002.jpg
496.8	1.109	1	pointing	Trial1	pointing/STIM_002.jpg
500.962	1.374	1	pointing	Trial1	pointing/STIM_002.jpg
504.633	1.115	1	pointing	Trial1	pointing/STIM_003.jpg
509.161	1.011	1	pointing	Trial1	pointing/STIM_003.jpg
513.248	1.267	1	pointing	Trial1	pointing/STIM_003.jpg
516.954	0.768	1	pointing	Trial1	pointing/STIM_003.jpg
521.555	1.167	0	pointing	Trial1	pointing/STIM_003.jpg
525.239	0.871	1	pointing	Trial1	pointing/STIM_003.jpg
529.592	0.698	1	pointing	Trial1	pointing/STIM_004.jpg
533.022	0.862	1	pointing	Trial1	pointing/STIM_004.jpg
536.37	1.122	1	pointing	Trial1	pointing/STIM_004.jpg
540.691	0.96	1	pointing	Trial1	pointing/STIM_004.jpg
544.768	1.421	1	pointing	Trial1	pointing/STIM_004.jpg
549.056	1.374	1	pointing	Trial1	pointing/STIM_004.jpg
552.724	1.215	1	pointing	Trial1	pointing/STIM_005.jpg
556.499	0.848	1	pointing	Trial1	pointing/STIM_005.jpg
561.119	1.071	1	pointing	Trial1	pointing/STIM_005.jpg
564.338	0.836	1	pointing	Trial1	pointing/STIM_005.jpg
567.409	0.751	1	pointing	Trial1	pointing/STIM_005.jpg
571.071	1.278	0	pointing	Trial1	pointing/STIM_005.jpg
574.777	1.221	1	pointing	Trial1	pointing/STIM_006.jpg
578.263	1.103	1	pointing	Trial1	pointing/STIM_006.jpg
581.932	1.044	1	pointing	Trial1	pointing/STIM_006.jpg
586.904	1.117	1	pointing	Trial1	pointing/STIM_006.jpg
591.364	1.074	1	pointing	Trial1	pointing/STIM_006.jpg
596.382	1.289	1	pointing	Trial1	pointing/STIM_006.jpg
599.807	0.895	1	pointing	Trial1	pointing/STIM_007.jpg
603.592	0.77	1	pointing	Trial1	pointing/STIM_007.jpg
607.516	1.025	1	pointing	Trial1	pointing/STIM_007.jpg
612.331	1.172	1	pointing	Trial1	pointing/STIM_007.jpg
615.646	0.96	1	pointing	Trial1	pointing/STIM_007.jpg
620.103	0.872	1	pointing	Trial1	pointing/STIM_007.jpg
623.096	1.228	1	pointing	Trial1	pointing/STIM_008.jpg
627.922	0.819	1	pointing	Trial1	pointing/STIM_008.jpg
632.138	1.285	1	pointing	Trial1	pointing/STIM_008.jpg
636.927	1.098	1	pointing	Trial1	pointing/STIM_008.jpg
641.477	1.096	1	pointing	Trial1	pointing/STIM_008.jpg
644.861	1.398	1	pointing	Trial1	pointing/STIM_008.jpg
650.125	1.342	1	pointing	Trial1	pointing/STIM_009.jpg
654.358	1.239	1	pointing	Trial1	pointing/STIM_009.jpg
658.984	0.832	1	pointing	Trial1	pointing/STIM_009.jpg
662.095	0.878	1	pointing	Trial1	pointing/STIM_009.jpg
666.905	1.163	1	pointing	Trial1	pointing/STIM_009.jpg
670.893	0.85	1	pointing	Trial1	pointing/STIM_009.jpg
675.742	1.1	1	pointing	Trial1	pointing/STIM_010.jpg
680.847	1.214	1	pointing	Trial1	pointing/STIM_010.jpg
685.937	1.077	1	pointing	Trial1	pointing/STIM_010.jpg
690.458	0.844	1	pointing	Trial1	pointing/STIM_010.jpg
694.283	0.933	0	pointing	Trial1	pointing/STIM_010.jpg
697.892	0.808	1	pointing	Trial1	pointing/STIM_010.jpg
701.779	1.397	1	pointing	Trial1	pointing/STIM_011.jpg
706.418	0.797	1	pointing	Trial1	pointing/STIM_011.jpg
709.656	0.912	1	pointing	Trial1	pointing/STIM_011.jpg
713.538	0.781	1	pointing	Trial1	pointing/STIM_011.jpg
717.536	1.112	0	pointing	Trial1	pointing/STIM_011.jpg
720.92	1.065	1	pointing	Trial1	pointing/STIM_011.jpg
725.834	2.634	1	navigation	Trial2	navigation/STIM_000.jpg
732.509	2.064	1	navigation	Trial2	navigation/STIM_000.jpg
737.573	2.126	0	navigation	Trial2	navigation/STIM_000.jpg
742.008	1.754	1	navigation	Trial2	navigation/STIM_000.jpg
747.223	1.73	1	navigation	Trial2	navigation/STIM_000.jpg
751.512	2.452	1	navigation	Trial2	navigation/STIM_000.jpg
757.094	3.633	0	navigation	Trial2	navigation/STIM_001.jpg
763.645	2.246	1	navigation	Trial2	navigation/STIM_001.jpg
769.423	1.979	1	navigation	Trial2	navigation/STIM_001.jpg
774.364	2.15	1	navigation	Trial2	navigation/STIM_001.jpg
779.447	1.774	0	navigation	Trial2	navigation/STIM_001.jpg
784.332	1.283	1	navigation	Trial2	navigation/STIM_001.jpg
788.059	3.105	1	navigation	Trial2	navigation/STIM_002.jpg
794.836	3.121	1	navigation	Trial2	navigation/STIM_002.jpg
801.1	2.588	1	navigation	Trial2	navigation/STIM_002.jpg
807.771	3.135	1	navigation	Trial2	navigation/STIM_002.jpg
813.339	1.245	0	navigation	Trial2	navigation/STIM_002.jpg
818.002	2.031	1	navigation	Trial2	navigation/STIM_002.jpg
822.725	3.36	1	navigation	Trial2	navigation/STIM_003.jpg
829.432	3.063	0	navigation	Trial2	navigation/STIM_003.jpg
836.1	2.402	1	navigation	Trial2	navigation/STIM_003.jpg
841.942	2.619	1	navigation	Trial2	navigation/STIM_003.jpg
848.857	2.585	1	navigation	Trial2	navigation/STIM_003.jpg
854.989	2.264	1	navigation	Trial2	navigation/STIM_003.jpg
859.548	2.904	1	navigation	Trial2	navigation/STIM_004.jpg
865.308	1.748	1	navigation	Trial2	navigation/STIM_004.jpg
871.136	3.05	1	navigation	Trial2	navigation/STIM_004.jpg
878.044	1.755	1	navigation	Trial2	navigation/STIM_004.jpg
883.351	2.078	1	navigation	Trial2	navigation/STIM_004.jpg
888.543	1.392	1	navigation	Trial2	navigation/STIM_004.jpg
892.419	3.697	1	navigation	Trial2	navigation/STIM_005.jpg
899.087	2.427	1	navigation	Trial2	navigation/STIM_005.jpg
905.122	2.541	1	navigation	Trial2	navigation/STIM_005.jpg
909.912	3.163	1	navigation	Trial2	navigation/STIM_005.jpg
916.572	2.17	1	navigation	Trial2	navigation/STIM_005.jpg
921.005	2.913	1	navigation	Trial2	navigation/STIM_005.jpg
926.673	3.606	1	navigation	Trial2	navigation/STIM_006.jpg
932.687	2.789	0	navigation	Trial2	navigation/STIM_006.jpg
938.295	2.745	0	navigation	Trial2	navigation/STIM_006.jpg
944.601	1.651	1	navigation	Trial2	navigation/STIM_006.jpg
949.838	2.173	1	navigation	Trial2	navigation/STIM_006.jpg
954.642	1.567	1	navigation	Trial2	navigation/STIM_006.jpg
959.267	3.708	1	navigation	Trial2	navigation/STIM_007.jpg
966.393	3.52	1	navigation	Trial2	navigation/STIM_007.jpg
972.3	3.392	1	navigation	Trial2	navigation/STIM_007.jpg
978.428	2.206	1	navigation	Trial2	navigation/STIM_007.jpg
983.438	1.295	1	navigation	Trial2	navigation/STIM_007.jpg
986.907	1.786	1	navigation	Trial2	navigation/STIM_007.jpg
990.998	3.725	1	navigation	Trial2	navigation/STIM_008.jpg
997.378	1.943	1	navigation	Trial2	navigation/STIM_008.jpg
1002.206	1.966	0	navigation	Trial2	navigation/STIM_008.jpg
1007.475	2.347	1	navigation	Trial2	navigation/STIM_008.jpg
1012.111	1.34	1	navigation	Trial2	navigation/STIM_008.jpg
1016.051	2.268	1	navigation	Trial2	navigation/STIM_008.jpg
1020.81	3.239	1	navigation	Trial2	navigation/STIM_009.jpg
1026.563	1.616	1	navigation	Trial2	navigation/STIM_009.jpg
1032.094	2.634	1	navigation	Trial2	navigation/STIM_009.jpg
1038.465	1.957	1	navigation	Trial2	navigation/STIM_009.jpg
1042.859	1.579	0	navigation	Trial2	navigation/STIM_009.jpg
1048.444	2.852	0	navigation	Trial2	navigation/STIM_009.jpg
1054.259	3.214	0	navigation	Trial2	navigation/STIM_010.jpg
1059.875	2.895	1	navigation	Trial2	navigation/STIM_010.jpg
1065.469	1.905	1	navigation	Trial2	navigation/STIM_010.jpg
1070.033	1.342	1	navigation	Trial2	navigation/STIM_010.jpg
1073.551	3.039	0	navigation	Trial2	navigation/STIM_010.jpg
1079.818	2.249	1	navigation	Trial2	navigation/STIM_010.jpg
1084.988	3.796	1	navigation	Trial2	navigation/STIM_011.jpg
1092.917	1.634	0	navigation	Trial2	navigation/STIM_011.jpg
1097.667	1.967	1	navigation	Trial2	navigation/STIM_011.jpg
1103.307	1.316	1	navigation	Trial2	navigation/STIM_011.jpg
1106.838	2.352	1	navigation	Trial2	navigation/STIM_011.jpg
1111.727	3.015	1	navigation	Trial2	navigation/STIM_011.jpg
1118.946	1.302	1	pointing	Trial2	pointing/STIM_000.jpg
1123.586	1.143	1	pointing	Trial2	pointing/STIM_000.jpg
1127.957	1.315	1	pointing	Trial2	pointing/STIM_000.jpg
1132.016	1.24	1	pointing	Trial2	pointing/STIM_000.jpg
1135.415	0.673	1	pointing	Trial2	pointing/STIM_000.jpg
1139.657	1.324	1	pointing	Trial2	pointing/STIM_000.jpg
1143.991	1.094	1	pointing	Trial2	pointing/STIM_001.jpg
1147.477	1.18	0	pointing	Trial2	pointing/STIM_001.jpg
1150.838	1.154	1	pointing	Trial2	pointing/STIM_001.jpg
1155.393	0.737	1	pointing	Trial2	pointing/STIM_001.jpg
1158.424	1.217	1	pointing	Trial2	pointing/STIM_001.jpg
1162.939	1.226	1	pointing	Trial2	pointing/STIM_001.jpg
1167.946	1.329	0	pointing	Trial2	pointing/STIM_002.jpg
1171.676	0.872	1	pointing	Trial2	pointing/STIM_002.jpg
1175.062	0.876	1	pointing	Trial2	pointing/STIM_002.jpg
1178.718	0.768	1	pointing	Trial2	pointing/STIM_002.jpg
1182.776	1.193	1	pointing	Trial2	pointing/STIM_002.jpg
1186.375	0.933	1	pointing	Trial2	pointing/STIM_002.jpg
1189.576	1.053	1	pointing	Trial2	pointing/STIM_003.jpg
1192.812	1.028	1	pointing	Trial2	pointing/STIM_003.jpg
1197.517	1.325	1	pointing	Trial2	pointing/STIM_003.jpg
1202.63	1.061	1	pointing	Trial2	pointing/STIM_003.jpg
1206.105	1.136	1	pointing	Trial2	pointing/STIM_003.jpg
1210.969	1.022	1	pointing	Trial2	pointing/STIM_003.jpg
1215.199	1.243	1	pointing	Trial2	pointing/STIM_004.jpg
1218.842	1.348	1	pointing	Trial2	pointing/STIM_004.jpg
1223.242	1.227	1	pointing	Trial2	pointing/STIM_004.jpg
1227.145	1.144	1	pointing	Trial2	pointing/STIM_004.jpg
1230.701	0.897	1	pointing	Trial2	pointing/STIM_004.jpg
1234.967	0.819	1	pointing	Trial2	pointing/STIM_004.jpg
1238.079	1.144	1	pointing	Trial2	pointing/STIM_005.jpg
1242.737	0.86	1	pointing	Trial2	pointing/STIM_005.jpg
1245.994	1.121	1	pointing	Trial2	pointing/STIM_005.jpg
1249.676	0.972	1	pointing	Trial2	pointing/STIM_005.jpg
1253.942	0.885	1	pointing	Trial2	pointing/STIM_005.jpg
1256.982	1.304	1	pointing	Trial2	pointing/STIM_005.jpg
1260.741	1.31	0	pointing	Trial2	pointing/STIM_006.jpg
1264.397	1.294	1	pointing	Trial2	pointing/STIM_006.jpg
1268.751	0.985	1	pointing	Trial2	pointing/STIM_006.jpg
1273.709	0.836	1	pointing	Trial2	pointing/STIM_006.jpg
1277.989	1.446	0	pointing	Trial2	pointing/STIM_006.jpg
1282.285	1.118	1	pointing	Trial2	pointing/STIM_006.jpg
1286.75	1.211	1	pointing	Trial2	pointing/STIM_007.jpg
1291.484	0.9	1	pointing	Trial2	pointing/STIM_007.jpg
1294.544	1.025	1	pointing	Trial2	pointing/STIM_007.jpg
1298.923	0.932	1	pointing	Trial2	pointing/STIM_007.jpg
1303.625	1.079	1	pointing	Trial2	pointing/STIM_007.jpg
1307.954	1.319	1	pointing	Trial2	pointing/STIM_007.jpg
1313.208	0.783	1	pointing	Trial2	pointing/STIM_008.jpg
1317.221	1.125	1	pointing	Trial2	pointing/STIM_008.jpg
1320.806	0.935	1	pointing	Trial2	pointing/STIM_008.jpg
1324.671	0.809	1	pointing	Trial2	pointing/STIM_008.jpg
1327.785	1.061	1	pointing	Trial2	pointing/STIM_008.jpg
1332.586	0.948	0	pointing	Trial2	pointing/STIM_008.jpg
1336.798	1.271	1	pointing	Trial2	pointing/STIM_009.jpg
1341.61	1.28	1	pointing	Trial2	pointing/STIM_009.jpg
1346.697	0.802	1	pointing	Trial2	pointing/STIM_009.jpg
1350.259	1.29	1	pointing	Trial2	pointing/STIM_009.jpg
1353.747	1.336	1	pointing	Trial2	pointing/STIM_009.jpg
1357.886	1.418	1	pointing	Trial2	pointing/STIM_009.jpg
1362.881	1.273	1	pointing	Trial2	pointing/STIM_010.jpg
1368.096	1.143	1	pointing	Trial2	pointing/STIM_010.jpg
1372.349	1.162	1	pointing	Trial2	pointing/STIM_010.jpg
1376.58	1.083	1	pointing	Trial2	pointing/STIM_010.jpg
1380.901	1.346	1	pointing	Trial2	pointing/STIM_010.jpg
1385.493	0.819	1	pointing	Trial2	pointing/STIM_010.jpg
1388.917	1.138	1	pointing	Trial2	pointing/STIM_011.jpg
1392.46	1.254	1	pointing	Trial2	pointing/STIM_011.jpg
1397.648	0.813	1	pointing	Trial2	pointing/STIM_011.jpg
1402.002	1.303	1	pointing	Trial2	pointing/STIM_011.jpg
1405.48	1.034	1	pointing	Trial2	pointing/STIM_011.jpg
1408.614	0.91	0	pointing	Trial2	pointing/STIM_011.jpg
1412.025	2.489	1	navigation	Trial3	navigation/STIM_000.jpg
1417.751	2.639	1	navigation	Trial3	navigation/STIM_000.jpg
1424.088	1.991	1	navigation	Trial3	navigation/STIM_000.jpg
1429.669	2.504	1	navigation	Trial3	navigation/STIM_000.jpg
1434.947	1.659	1	navigation	Trial3	navigation/STIM_000.jpg
1439.905	2.345	1	navigation	Trial3	navigation/STIM_000.jpg
1445.952	1.935	1	navigation	Trial3	navigation/STIM_001.jpg
1451.832	2.98	1	navigation	Trial3	navigation/STIM_001.jpg
1458.014	1.576	1	navigation	Trial3	navigation/STIM_001.jpg
1462.093	2.195	1	navigation	Trial3	navigation/STIM_001.jpg
1467.64	3.005	1	navigation	Trial3	navigation/STIM_001.jpg
1473.701	2.938	1	navigation	Trial3	navigation/STIM_001.jpg
1480.631	1.591	1	navigation	Trial3	navigation/STIM_002.jpg
1485.958	2.551	1	navigation	Trial3	navigation/STIM_002.jpg
1491.591	2.794	1	navigation	Trial3	navigation/STIM_002.jpg
1498.479	2.313	1	navigation	Trial3	navigation/STIM_002.jpg
1503.15	2.888	1	navigation	Trial3	navigation/STIM_002.jpg
1508.612	2.52	1	navigation	Trial3	navigation/STIM_002.jpg
1514.313	2.068	1	navigation	Trial3	navigation/STIM_003.jpg
1519.964	2.977	1	navigation	Trial3	navigation/STIM_003.jpg
1526.986	1.464	1	navigation	Trial3	navigation/STIM_003.jpg
1532.339	3.214	1	navigation	Trial3	navigation/STIM_003.jpg
1538.875	2.221	1	navigation	Trial3	navigation/STIM_003.jpg
1543.635	1.937	1	navigation	Trial3	navigation/STIM_003.jpg
1549.158	1.878	1	navigation	Trial3	navigation/STIM_004.jpg
1553.613	2.639	0	navigation	Trial3	navigation/STIM_004.jpg
1560.293	2.371	1	navigation	Trial3	navigation/STIM_004.jpg
1565.064	2.704	1	navigation	Trial3	navigation/STIM_004.jpg
1570.817	2.924	1	navigation	Trial3	navigation/STIM_004.jpg
1576.005	1.44	1	navigation	Trial3	navigation/STIM_004.jpg
1580.589	2.791	1	navigation	Trial3	navigation/STIM_005.jpg
1587.017	1.323	1	navigation	Trial3	navigation/STIM_005.jpg
1591.033	2.298	1	navigation	Trial3	navigation/STIM_005.jpg
1597.167	2.628	1	navigation	Trial3	navigation/STIM_005.jpg
1602.589	2.377	1	navigation	Trial3	navigation/STIM_005.jpg
1608.952	1.534	1	navigation	Trial3	navigation/STIM_005.jpg
1613.316	2.848	1	navigation	Trial3	navigation/STIM_006.jpg
1619.849	1.44	1	navigation	Trial3	navigation/STIM_006.jpg
1623.414	1.542	1	navigation	Trial3	navigation/STIM_006.jpg
1627.105	2.217	1	navigation	Trial3	navigation/STIM_006.jpg
1633.069	1.54	1	navigation	Trial3	navigation/STIM_006.jpg
1637.346	3.13	1	navigation	Trial3	navigation/STIM_006.jpg
1643.353	2.836	1	navigation	Trial3	navigation/STIM_007.jpg
1650.041	3.088	1	navigation	Trial3	navigation/STIM_007.jpg
1657.01	2.907	1	navigation	Trial3	navigation/STIM_007.jpg
1663.912	2.115	1	navigation	Trial3	navigation/STIM_007.jpg
1668.835	2.825	1	navigation	Trial3	navigation/STIM_007.jpg
1674.519	3.088	1	navigation	Trial3	navigation/STIM_007.jpg
1681.008	2.771	1	navigation	Trial3	navigation/STIM_008.jpg
1687.91	1.916	1	navigation	Trial3	navigation/STIM_008.jpg
1693.56	1.936	1	navigation	Trial3	navigation/STIM_008.jpg
1699.643	2.568	1	navigation	Trial3	navigation/STIM_008.jpg
1704.454	2.688	1	navigation	Trial3	navigation/STIM_008.jpg
1710.894	3.047	1	navigation	Trial3	navigation/STIM_008.jpg
1717.109	2.92	1	navigation	Trial3	navigation/STIM_009.jpg
1724.329	2.174	1	navigation	Trial3	navigation/STIM_009.jpg
1729.034	1.349	1	navigation	Trial3	navigation/STIM_009.jpg
1733.973	1.314	1	navigation	Trial3	navigation/STIM_009.jpg
1739.413	2.291	1	navigation	Trial3	navigation/STIM_009.jpg
1744.826	2.6	1	navigation	Trial3	navigation/STIM_009.jpg
1749.719	2.541	0	navigation	Trial3	navigation/STIM_010.jpg
1756.194	1.556	1	navigation	Trial3	navigation/STIM_010.jpg
1760.596	2.071	1	navigation	Trial3	navigation/STIM_010.jpg
1766.469	3.093	1	navigation	Trial3	navigation/STIM_010.jpg
1772.644	1.575	1	navigation	Trial3	navigation/STIM_010.jpg
1776.889	1.556	1	navigation	Trial3	navigation/STIM_010.jpg
1782.374	1.512	0	navigation	Trial3	navigation/STIM_011.jpg
1787.121	2.306	1	navigation	Trial3	navigation/STIM_011.jpg
1791.681	2.059	1	navigation	Trial3	navigation/STIM_011.jpg
1797.21	1.768	0	navigation	Trial3	navigation/STIM_011.jpg
1802.996	2.565	1	navigation	Trial3	navigation/STIM_011.jpg
1808.855	2.229	0	navigation	Trial3	navigation/STIM_011.jpg
1813.723	1.29	1	pointing	Trial3	pointing/STIM_000.jpg
1818.748	1.061	1	pointing	Trial3	pointing/STIM_000.jpg
1822.67	1.184	0	pointing	Trial3	pointing/STIM_000.jpg
1827.185	1.157	1	pointing	Trial3	pointing/STIM_000.jpg
1832.136	1.041	0	pointing	Trial3	pointing/STIM_000.jpg
1835.503	0.877	1	pointing	Trial3	pointing/STIM_000.jpg
1839.475	1.086	0	pointing	Trial3	pointing/STIM_001.jpg
1843.971	0.952	1	pointing	Trial3	pointing/STIM_001.jpg
1848.743	1.032	1	pointing	Trial3	pointing/STIM_001.jpg
1852.555	0.963	1	pointing	Trial3	pointing/STIM_001.jpg
1857.513	1.229	1	pointing	Trial3	pointing/STIM_001.jpg
1862.675	1.271	1	pointing	Trial3	pointing/STIM_001.jpg
1866.666	1.058	1	pointing	Trial3	pointing/STIM_002.jpg
1871.326	0.969	1	pointing	Trial3	pointing/STIM_002.jpg
1876.304	1.195	1	pointing	Trial3	pointing/STIM_002.jpg
1881.322	0.847	1	pointing	Trial3	pointing/STIM_002.jpg
1885.437	1.16	1	pointing	Trial3	pointing/STIM_002.jpg
1889.608	1.286	1	pointing	Trial3	pointing/STIM_002.jpg
1894.622	1.338	1	pointing	Trial3	pointing/STIM_003.jpg
1899.904	0.973	1	pointing	Trial3	pointing/STIM_003.jpg
1904.208	1.109	0	pointing	Trial3	pointing/STIM_003.jpg
1907.663	0.808	1	pointing	Trial3	pointing/STIM_003.jpg
1910.994	1.07	1	pointing	Trial3	pointing/STIM_003.jpg
1914.984	1.17	1	pointing	Trial3	pointing/STIM_003.jpg
1918.546	0.814	0	pointing	Trial3	pointing/STIM_004.jpg
1921.429	0.763	1	pointing	Trial3	pointing/STIM_004.jpg
1925.375	1.12	1	pointing	Trial3	pointing/STIM_004.jpg
1930.253	1.138	1	pointing	Trial3	pointing/STIM_004.jpg
1933.502	1.389	1	pointing	Trial3	pointing/STIM_004.jpg
1938.733	1.34	0	pointing	Trial3	pointing/STIM_004.jpg
1943.948	0.87	0	pointing	Trial3	pointing/STIM_005.jpg
1948.163	1.092	1	pointing	Trial3	pointing/STIM_005.jpg
1952.655	1.164	1	pointing	Trial3	pointing/STIM_005.jpg
1956.128	1.31	1	pointing	Trial3	pointing/STIM_005.jpg
1961.136	0.992	1	pointing	Trial3	pointing/STIM_005.jpg
1965.667	1.118	1	pointing	Trial3	pointing/STIM_005.jpg
1969.357	1.17	1	pointing	Trial3	pointing/STIM_006.jpg
1972.661	1.164	1	pointing	Trial3	pointing/STIM_006.jpg
1977.753	1.145	1	pointing	Trial3	pointing/STIM_006.jpg
1981.275	0.952	1	pointing	Trial3	pointing/STIM_006.jpg
1985.266	1.103	1	pointing	Trial3	pointing/STIM_006.jpg
1988.888	1.343	1	pointing	Trial3	pointing/STIM_006.jpg
1993.155	1.152	0	pointing	Trial3	pointing/STIM_007.jpg
1997.454	1.144	1	pointing	Trial3	pointing/STIM_007.jpg
2002.679	1.006	1	pointing	Trial3	pointing/STIM_007.jpg
2007.586	0.78	1	pointing	Trial3	pointing/STIM_007.jpg
2010.995	0.936	1	pointing	Trial3	pointing/STIM_007.jpg
2014.277	1.425	1	pointing	Trial3	pointing/STIM_007.jpg
2017.936	1.2	1	pointing	Trial3	pointing/STIM_008.jpg
2021.323	1.099	1	pointing	Trial3	pointing/STIM_008.jpg
2025.2	0.87	1	pointing	Trial3	pointing/STIM_008.jpg
2028.425	0.819	1	pointing	Trial3	pointing/STIM_008.jpg
2031.89	0.978	1	pointing	Trial3	pointing/STIM_008.jpg
2036.772	1.37	1	pointing	Trial3	pointing/STIM_008.jpg
2041.585	0.841	1	pointing	Trial3	pointing/STIM_009.jpg
2046.343	1.284	1	pointing	Trial3	pointing/STIM_009.jpg
2050.978	0.899	1	pointing	Trial3	pointing/STIM_009.jpg
2054.02	1.287	1	pointing	Trial3	pointing/STIM_009.jpg
2058.756	1.134	1	pointing	Trial3	pointing/STIM_009.jpg
2063.577	1.166	1	pointing	Trial3	pointing/STIM_009.jpg
2068.124	0.922	1	pointing	Trial3	pointing/STIM_010.jpg
2071.595	0.876	1	pointing	Trial3	pointing/STIM_010.jpg
2076.034	1.29	1	pointing	Trial3	pointing/STIM_010.jpg
2079.524	1.418	1	pointing	Trial3	pointing/STIM_010.jpg
2084.514	0.948	1	pointing	Trial3	pointing/STIM_010.jpg
2089.177	0.789	1	pointing	Trial3	pointing/STIM_010.jpg
2092.6	0.783	1	pointing	Trial3	pointing/STIM_011.jpg
2096.286	0.797	0	pointing	Trial3	pointing/STIM_011.jpg
2099.341	1.236	1	pointing	Trial3	pointing/STIM_011.jpg
2104.593	0.95	1	pointing	Trial3	pointing/STIM_011.jpg
2109.086	1.217	1	pointing	Trial3	pointing/STIM_011.jpg
2112.709	0.996	0	pointing	Trial3	pointing/STIM_011.jpg
