onset	duration	response_time_ms	trial_type	learning_stage	stimulus	response_port
0.0	1.471	1471.4	2back	Block1	2back/STIM_000.jpg	99
5.348	1.244	1244.0	2back	Block1	2back/STIM_000.jpg	99
9.385	0.796	796.5	2back	Block1	2back/STIM_000.jpg	99
13.081	0.856	856.2	2back	Block1	2back/STIM_001.jpg	99
17.87	0.958	957.9	2back	Block1	2back/STIM_001.jpg	100
22.174	1.4	1399.5	2back	Block1	2back/STIM_001.jpg	99
26.326	1.479	1478.8	2back	Block1	2back/STIM_002.jpg	100
31.143	0.987	987.4	2back	Block1	2back/STIM_002.jpg	99
35.454	1.166	1166.2	2back	Block1	2back/STIM_002.jpg	100
39.44	1.267	1267.2	2back	Block1	2back/STIM_003.jpg	99
43.161	1.311	1311.2	2back	Block1	2back/STIM_003.jpg	100
47.483	1.063	1063.4	2back	Block1	2back/STIM_003.jpg	100
50.761	0.753	753.4	2back	Block1	2back/STIM_004.jpg	99
55.201	0.968	968.4	2back	Block1	2back/STIM_004.jpg	99
59.318	1.347	1347.2	2back	Block1	2back/STIM_004.jpg	99
64.091	1.24	1239.8	2back	Block1	2back/STIM_005.jpg	100
68.429	0.826	825.7	2back	Block1	2back/STIM_005.jpg	99
72.673	1.215	1214.8	2back	Block1	2back/STIM_005.jpg	99
77.885	1.325	1325.4	2back	Block1	2back/STIM_006.jpg	99
82.114	0.988	988.5	2back	Block1	2back/STIM_006.jpg	99
85.811	1.379	1378.8	2back	Block1	2back/STIM_006.jpg	100
90.06	0.888	887.9	2back	Block1	2back/STIM_007.jpg	100
93.478	1.085	1085.1	2back	Block1	2back/STIM_007.jpg	100
96.604	1.01	1010.3	2back	Block1	2back/STIM_007.jpg	100
100.176	0.72	720.3	2back	Block1	2back/STIM_008.jpg	100
102.928	1.134	1134.0	2back	Block1	2back/STIM_008.jpg	100
107.425	0.835	834.9	2back	Block1	2back/STIM_008.jpg	99
110.71	0.83	830.4	2back	Block1	2back/STIM_009.jpg	100
113.543	0.696	696.1	2back	Block1	2back/STIM_009.jpg	100
117.85	0.676	676.1	2back	Block1	2back/STIM_009.jpg	100
121.72	1.086	1085.6	2back	Block1	2back/STIM_010.jpg	100
125.182	1.038	1038.2	2back	Block1	2back/STIM_010.jpg	100
128.484	1.42	1419.7	2back	Block1	2back/STIM_010.jpg	99
133.428	0.779	778.6	2back	Block1	2back/STIM_011.jpg	99
137.07	1.127	1127.0	2back	Block1	2back/STIM_011.jpg	100
140.54	0.712	711.7	2back	Block1	2back/STIM_011.jpg	99
145.0	1.268	1268.1	2back	Block1	2back/STIM_012.jpg	100
149.472	1.12	1119.9	2back	Block1	2back/STIM_012.jpg	99
153.712	0.666	666.2	2back	Block1	2back/STIM_012.jpg	100
156.659	1.294	1294.4	2back	Block1	2back/STIM_013.jpg	100
160.581	0.748	747.7	2back	Block1	2back/STIM_013.jpg	100
163.594	0.638	637.8	2back	Block1	2back/STIM_013.jpg	100
168.228	1.561	1560.8	2back	Block1	2back/STIM_014.jpg	99
173.655	1.232	1232.0	2back	Block1	2back/STIM_014.jpg	99
178.123	1.15	1150.5	2back	Block1	2back/STIM_014.jpg	100
181.82	0.801	800.8	2back	Block1	2back/STIM_015.jpg	100
185.838	1.338	1338.3	2back	Block1	2back/STIM_015.jpg	99
191.042	0.741	741.0	2back	Block1	2back/STIM_015.jpg	99
193.888	1.088	1088.1	2back	Block1	2back/STIM_016.jpg	99
198.783	1.49	1490.0	2back	Block1	2back/STIM_016.jpg	99
203.887	1.365	1364.9	2back	Block1	2back/STIM_016.jpg	100
208.539	1.18	1180.0	2back	Block1	2back/STIM_017.jpg	99
212.734	0.756	756.4	2back	Block1	2back/STIM_017.jpg	99
217.014	1.35	1350.1	2back	Block1	2back/STIM_017.jpg	100
221.238	0.766	765.9	2back	Block1	2back/STIM_018.jpg	99
224.123	0.928	928.5	2back	Block1	2back/STIM_018.jpg	100
228.307	1.306	1305.8	2back	Block1	2back/STIM_018.jpg	100
232.284	1.346	1346.4	2back	Block1	2back/STIM_019.jpg	100
237.172	1.225	1224.7	2back	Block1	2back/STIM_019.jpg	100
241.48	1.38	1379.5	2back	Block1	2back/STIM_019.jpg	99
245.594	1.488	1488.1	2back	Block1	2back/STIM_020.jpg	99
249.882	0.98	979.6	2back	Block1	2back/STIM_020.jpg	100
254.318	1.254	1253.6	2back	Block1	2back/STIM_020.jpg	99
258.571	1.273	1272.9	2back	Block1	2back/STIM_021.jpg	99
262.86	0.764	763.7	2back	Block1	2back/STIM_021.jpg	100
266.228	0.961	961.4	2back	Block1	2back/STIM_021.jpg	100
269.282	1.408	1408.4	2back	Block1	2back/STIM_022.jpg	99
273.911	1.033	1033.2	2back	Block1	2back/STIM_022.jpg	100
278.405	0.654	653.7	2back	Block1	2back/STIM_022.jpg	99
282.876	0.685	684.6	2back	Block1	2back/STIM_023.jpg	99
286.673	1.186	1185.9	2back	Block1	2back/STIM_023.jpg	100
290.554	1.323	1323.3	2back	Block1	2back/STIM_023.jpg	100
294.251	1.284	1283.8	2back	Block1	2back/STIM_024.jpg	100
297.969	0.747	746.8	2back	Block1	2back/STIM_024.jpg	100
300.762	0.703	702.7	2back	Block1	2back/STIM_024.jpg	99
303.721	1.548	1547.7	2back	Block1	2back/STIM_025.jpg	100
308.18	1.428	1428.3	2back	Block1	2back/STIM_025.jpg	100
313.372	0.952	952.5	2back	Block1	2back/STIM_025.jpg	100
317.356	1.415	1415.3	2back	Block1	2back/STIM_026.jpg	100
321.464	0.679	679.3	2back	Block1	2back/STIM_026.jpg	99
325.226	1.081	1081.4	2back	Block1	2back/STIM_026.jpg	100
329.4	1.523	1522.6	2back	Block1	2back/STIM_027.jpg	99
334.544	0.677	676.9	2back	Block1	2back/STIM_027.jpg	100
337.959	1.41	1410.2	2back	Block1	2back/STIM_027.jpg	99
341.705	1.104	1104.0	2back	Block1	2back/STIM_028.jpg	100
345.817	0.991	991.2	2back	Block1	2back/STIM_028.jpg	100
350.174	0.96	960.1	2back	Block1	2back/STIM_028.jpg	100
353.815	0.751	751.4	2back	Block1	2back/STIM_029.jpg	100
356.792	1.008	1008.3	2back	Block1	2back/STIM_029.jpg	100
359.805	1.064	1063.6	2back	Block1	2back/STIM_029.jpg	100
364.722	1.064	1064.4	2back	Block1	2back/STIM_030.jpg	100
368.461	1.349	1349.3	2back	Block1	2back/STIM_030.jpg	99
373.321	1.192	1192.1	2back	Block1	2back/STIM_030.jpg	99
377.625	1.263	1263.3	2back	Block1	2back/STIM_031.jpg	100
381.085	1.468	1468.0	2back	Block1	2back/STIM_031.jpg	100
384.685	1.069	1068.7	2back	Block1	2back/STIM_031.jpg	99
388.76	0.921	921.2	2back	Block1	2back/STIM_032.jpg	100
393.091	0.789	789.2	2back	Block1	2back/STIM_032.jpg	100
397.156	0.629	628.7	2back	Block1	2back/STIM_032.jpg	99
401.366	1.512	1512.1	2back	Block1	2back/STIM_033.jpg	100
405.467	1.099	1099.4	2back	Block1	2back/STIM_033.jpg	99
410.425	1.146	1146.2	2back	Block1	2back/STIM_033.jpg	100
414.143	1.556	1555.8	2back	Block1	2back/STIM_034.jpg	100
417.713	0.912	912.0	2back	Block1	2back/STIM_034.jpg	100
421.6	0.907	906.8	2back	Block1	2back/STIM_034.jpg	100
424.55	0.832	832.5	2back	Block1	2back/STIM_035.jpg	99
427.96	1.351	1350.6	2back	Block1	2back/STIM_035.jpg	99
431.714	1.266	1266.0	2back	Block1	2back/STIM_035.jpg	99
436.252	1.576	1576.5	2back	Block1	2back/STIM_036.jpg	99
440.837	1.256	1256.4	2back	Block1	2back/STIM_036.jpg	99
445.157	0.844	844.4	2back	Block1	2back/STIM_036.jpg	100
449.779	1.083	1083.4	2back	Block1	2back/STIM_037.jpg	100
453.544	1.254	1253.7	2back	Block1	2back/STIM_037.jpg	99
457.812	1.076	1075.6	2back	Block1	2back/STIM_037.jpg	99
461.367	1.011	1011.0	2back	Block1	2back/STIM_038.jpg	99
465.621	0.655	654.6	2back	Block1	2back/STIM_038.jpg	99
470.1	0.739	739.0	2back	Block1	2back/STIM_038.jpg	100
474.413	1.166	1165.6	2back	Block1	2back/STIM_039.jpg	100
478.84	0.869	869.3	2back	Block1	2back/STIM_039.jpg	100
482.012	1.116	1115.7	2back	Block1	2back/STIM_039.jpg	99
486.525	0.899	898.7	0back	Block1	0back/STIM_000.jpg	100
490.148	0.659	659.0	0back	Block1	0back/STIM_000.jpg	99
493.39	0.523	522.6	0back	Block1	0back/STIM_000.jpg	99
497.496	0.714	713.6	0back	Block1	0back/STIM_001.jpg	99
500.294	0.797	796.7	0back	Block1	0back/STIM_001.jpg	99
504.564	0.644	644.5	0back	Block1	0back/STIM_001.jpg	100
507.656	0.572	572.0	0back	Block1	0back/STIM_002.jpg	100
510.466	0.688	688.1	0back	Block1	0back/STIM_002.jpg	99
513.563	0.56	560.3	0back	Block1	0back/STIM_002.jpg	100
516.662	0.519	519.0	0back	Block1	0back/STIM_003.jpg	99
520.226	0.566	566.3	0back	Block1	0back/STIM_003.jpg	100
524.477	0.845	845.3	0back	Block1	0back/STIM_003.jpg	99
528.35	0.555	555.1	0back	Block1	0back/STIM_004.jpg	100
531.057	0.706	706.4	0back	Block1	0back/STIM_004.jpg	99
534.77	0.702	702.5	0back	Block1	0back/STIM_004.jpg	100
538.922	0.586	585.8	0back	Block1	0back/STIM_005.jpg	99
543.341	0.674	673.6	0back	Block1	0back/STIM_005.jpg	99
547.19	0.729	729.1	0back	Block1	0back/STIM_005.jpg	99
551.063	0.766	766.1	0back	Block1	0back/STIM_006.jpg	100
554.021	0.543	542.7	0back	Block1	0back/STIM_006.jpg	100
556.566	0.702	702.0	0back	Block1	0back/STIM_006.jpg	99
559.927	0.478	477.7	0back	Block1	0back/STIM_007.jpg	99
564.256	0.569	568.6	0back	Block1	0back/STIM_007.jpg	100
566.986	0.475	475.2	0back	Block1	0back/STIM_007.jpg	99
571.162	0.788	787.7	0back	Block1	0back/STIM_008.jpg	100
574.446	0.725	725.2	0back	Block1	0back/STIM_008.jpg	99
578.998	0.671	671.1	0back	Block1	0back/STIM_008.jpg	99
583.582	0.549	548.9	0back	Block1	0back/STIM_009.jpg	99
586.432	0.563	563.1	0back	Block1	0back/STIM_009.jpg	99
590.417	0.613	612.6	0back	Block1	0back/STIM_009.jpg	100
594.693	0.734	733.9	0back	Block1	0back/STIM_010.jpg	99
597.825	0.603	602.9	0back	Block1	0back/STIM_010.jpg	99
601.459	0.72	719.6	0back	Block1	0back/STIM_010.jpg	99
605.332	0.821	820.9	0back	Block1	0back/STIM_011.jpg	100
610.117	0.681	681.1	0back	Block1	0back/STIM_011.jpg	100
614.231	0.841	841.3	0back	Block1	0back/STIM_011.jpg	100
618.643	0.759	759.2	0back	Block1	0back/STIM_012.jpg	99
622.154	0.739	738.8	0back	Block1	0back/STIM_012.jpg	99
626.773	0.84	840.5	0back	Block1	0back/STIM_012.jpg	99
629.703	0.69	690.0	0back	Block1	0back/STIM_013.jpg	100
633.261	0.824	823.9	0back	Block1	0back/STIM_013.jpg	100
637.968	0.788	788.2	0back	Block1	0back/STIM_013.jpg	99
642.606	0.533	532.9	0back	Block1	0back/STIM_014.jpg	99
645.141	0.548	548.1	0back	Block1	0back/STIM_014.jpg	100
647.799	0.894	893.7	0back	Block1	0back/STIM_014.jpg	100
651.643	0.599	599.1	0back	Block1	0back/STIM_015.jpg	100
654.372	0.456	455.8	0back	Block1	0back/STIM_015.jpg	100
658.486	0.489	488.6	0back	Block1	0back/STIM_015.jpg	99
661.171	0.59	589.7	0back	Block1	0back/STIM_016.jpg	99
664.367	0.522	521.6	0back	Block1	0back/STIM_016.jpg	100
667.297	0.856	855.8	0back	Block1	0back/STIM_016.jpg	100
671.728	0.513	512.6	0back	Block1	0back/STIM_017.jpg	100
676.115	0.764	764.0	0back	Block1	0back/STIM_017.jpg	99
679.386	0.631	631.0	0back	Block1	0back/STIM_017.jpg	99
683.69	0.594	593.9	0back	Block1	0back/STIM_018.jpg	100
686.729	0.754	753.5	0back	Block1	0back/STIM_018.jpg	99
690.693	0.531	531.2	0back	Block1	0back/STIM_018.jpg	99
693.305	0.479	478.7	0back	Block1	0back/STIM_019.jpg	100
696.855	0.613	613.1	0back	Block1	0back/STIM_019.jpg	99
700.656	0.658	657.5	0back	Block1	0back/STIM_019.jpg	100
704.48	0.797	797.3	2back	Block2	2back/STIM_000.jpg	99
707.439	1.263	1263.3	2back	Block2	2back/STIM_000.jpg	100
712.573	1.134	1133.8	2back	Block2	2back/STIM_000.jpg	100
717.208	1.02	1019.8	2back	Block2	2back/STIM_001.jpg	99
721.696	1.122	1122.2	2back	Block2	2back/STIM_001.jpg	99
725.826	0.822	821.5	2back	Block2	2back/STIM_001.jpg	99
730.245	0.666	666.0	2back	Block2	2back/STIM_002.jpg	99
734.2	0.627	627.1	2back	Block2	2back/STIM_002.jpg	100
737.962	1.162	1161.7	2back	Block2	2back/STIM_002.jpg	100
741.613	0.821	821.2	2back	Block2	2back/STIM_003.jpg	100
744.674	0.981	981.1	2back	Block2	2back/STIM_003.jpg	99
749.4	0.914	914.0	2back	Block2	2back/STIM_003.jpg	99
753.509	1.284	1284.5	2back	Block2	2back/STIM_004.jpg	100
758.633	0.726	726.3	2back	Block2	2back/STIM_004.jpg	99
763.213	0.932	932.2	2back	Block2	2back/STIM_004.jpg	100
767.341	1.031	1030.8	2back	Block2	2back/STIM_005.jpg	99
771.835	0.662	662.5	2back	Block2	2back/STIM_005.jpg	100
774.667	0.596	595.7	2back	Block2	2back/STIM_005.jpg	100
777.899	0.978	977.9	2back	Block2	2back/STIM_006.jpg	99
781.883	0.763	763.3	2back	Block2	2back/STIM_006.jpg	99
785.959	1.06	1059.5	2back	Block2	2back/STIM_006.jpg	99
790.759	0.915	915.4	2back	Block2	2back/STIM_007.jpg	100
794.575	0.712	711.9	2back	Block2	2back/STIM_007.jpg	100
799.165	0.627	626.9	2back	Block2	2back/STIM_007.jpg	100
802.754	0.799	799.0	2back	Block2	2back/STIM_008.jpg	100
807.245	1.024	1023.6	2back	Block2	2back/STIM_008.jpg	100
810.366	0.98	979.9	2back	Block2	2back/STIM_008.jpg	99
814.814	1.22	1219.5	2back	Block2	2back/STIM_009.jpg	100
818.16	0.709	708.8	2back	Block2	2back/STIM_009.jpg	99
821.1	0.752	752.4	2back	Block2	2back/STIM_009.jpg	100
824.638	1.06	1059.7	2back	Block2	2back/STIM_010.jpg	99
827.798	1.042	1042.5	2back	Block2	2back/STIM_010.jpg	99
832.514	0.958	958.5	2back	Block2	2back/STIM_010.jpg	99
836.393	0.848	847.8	2back	Block2	2back/STIM_011.jpg	100
840.384	0.776	776.2	2back	Block2	2back/STIM_011.jpg	100
844.238	0.53	530.2	2back	Block2	2back/STIM_011.jpg	100
847.318	1.084	1084.4	2back	Block2	2back/STIM_012.jpg	99
851.639	1.01	1010.2	2back	Block2	2back/STIM_012.jpg	100
855.974	0.633	632.9	2back	Block2	2back/STIM_012.jpg	100
860.438	0.796	796.1	2back	Block2	2back/STIM_013.jpg	99
864.145	1.17	1170.2	2back	Block2	2back/STIM_013.jpg	100
868.141	0.606	606.1	2back	Block2	2back/STIM_013.jpg	100
871.047	1.256	1256.1	2back	Block2	2back/STIM_014.jpg	100
874.468	0.914	913.9	2back	Block2	2back/STIM_014.jpg	99
877.876	0.727	727.0	2back	Block2	2back/STIM_014.jpg	99
881.599	1.065	1064.8	2back	Block2	2back/STIM_015.jpg	99
885.57	0.724	724.0	2back	Block2	2back/STIM_015.jpg	99
889.243	0.612	611.9	2back	Block2	2back/STIM_015.jpg	100
892.764	0.762	761.8	2back	Block2	2back/STIM_016.jpg	99
896.308	0.742	741.9	2back	Block2	2back/STIM_016.jpg	99
900.631	0.716	716.4	2back	Block2	2back/STIM_016.jpg	99
904.466	0.803	803.2	2back	Block2	2back/STIM_017.jpg	99
907.645	1.262	1262.3	2back	Block2	2back/STIM_017.jpg	100
911.805	0.62	620.5	2back	Block2	2back/STIM_017.jpg	99
915.738	1.04	1040.0	2back	Block2	2back/STIM_018.jpg	99
919.07	1.171	1170.8	2back	Block2	2back/STIM_018.jpg	100
922.427	1.064	1064.4	2back	Block2	2back/STIM_018.jpg	100
926.486	1.046	1046.0	2back	Block2	2back/STIM_019.jpg	99
930.262	1.022	1021.6	2back	Block2	2back/STIM_019.jpg	99
933.799	0.744	743.9	2back	Block2	2back/STIM_019.jpg	100
937.728	0.935	935.0	2back	Block2	2back/STIM_020.jpg	99
941.151	1.243	1243.3	2back	Block2	2back/STIM_020.jpg	100
945.585	1.043	1043.2	2back	Block2	2back/STIM_020.jpg	99
950.291	1.159	1159.4	2back	Block2	2back/STIM_021.jpg	99
954.272	0.621	620.7	2back	Block2	2back/STIM_021.jpg	100
957.147	0.909	908.6	2back	Block2	2back/STIM_021.jpg	99
961.449	0.76	760.3	2back	Block2	2back/STIM_022.jpg	99
965.667	0.915	915.2	2back	Block2	2back/STIM_022.jpg	99
969.871	1.143	1143.1	2back	Block2	2back/STIM_022.jpg	100
973.594	0.74	739.9	2back	Block2	2back/STIM_023.jpg	99
978.14	1.03	1029.5	2back	Block2	2back/STIM_023.jpg	100
981.783	1.016	1015.5	2back	Block2	2back/STIM_023.jpg	99
986.786	1.155	1155.3	2back	Block2	2back/STIM_024.jpg	100
990.322	1.048	1047.9	2back	Block2	2back/STIM_024.jpg	99
994.425	0.88	879.6	2back	Block2	2back/STIM_024.jpg	100
999.024	1.031	1030.7	2back	Block2	2back/STIM_025.jpg	100
1003.969	0.607	607.1	2back	Block2	2back/STIM_025.jpg	99
1007.333	1.096	1096.0	2back	Block2	2back/STIM_025.jpg	99
1011.899	0.588	588.2	2back	Block2	2back/STIM_026.jpg	99
1015.932	1.142	1142.5	2back	Block2	2back/STIM_026.jpg	100
1019.241	0.973	973.3	2back	Block2	2back/STIM_026.jpg	99
1023.3	0.918	917.5	2back	Block2	2back/STIM_027.jpg	100
1028.146	1.006	1006.1	2back	Block2	2back/STIM_027.jpg	99
1032.919	0.734	733.7	2back	Block2	2back/STIM_027.jpg	99
1036.193	0.916	915.7	2back	Block2	2back/STIM_028.jpg	99
1040.744	1.082	1082.4	2back	Block2	2back/STIM_028.jpg	100
1044.405	0.59	590.0	2back	Block2	2back/STIM_028.jpg	100
1048.61	0.586	585.6	2back	Block2	2back/STIM_029.jpg	99
1051.453	0.588	587.7	2back	Block2	2back/STIM_029.jpg	100
1055.089	0.989	988.9	2back	Block2	2back/STIM_029.jpg	100
1058.352	0.643	642.8	2back	Block2	2back/STIM_030.jpg	100
1061.789	1.015	1014.6	2back	Block2	2back/STIM_030.jpg	100
1065.541	0.986	985.9	2back	Block2	2back/STIM_030.jpg	99
1070.334	1.197	1197.1	2back	Block2	2back/STIM_031.jpg	99
1075.382	0.982	981.8	2back	Block2	2back/STIM_031.jpg	99
1078.866	1.156	1155.8	2back	Block2	2back/STIM_031.jpg	100
1082.209	0.966	965.6	2back	Block2	2back/STIM_032.jpg	99
1086.125	1.084	1084.4	2back	Block2	2back/STIM_032.jpg	100
1090.33	1.159	1159.4	2back	Block2	2back/STIM_032.jpg	100
1094.284	1.263	1263.0	2back	Block2	2back/STIM_033.jpg	100
1098.943	0.905	904.9	2back	Block2	2back/STIM_033.jpg	99
1102.826	0.601	600.8	2back	Block2	2back/STIM_033.jpg	99
1105.431	1.049	1048.6	2back	Block2	2back/STIM_034.jpg	99
1109.554	0.813	813.1	2back	Block2	2back/STIM_034.jpg	99
1113.806	0.986	986.0	2back	Block2	2back/STIM_034.jpg	100
1116.871	1.21	1209.5	2back	Block2	2back/STIM_035.jpg	99
1120.534	1.177	1177.0	2back	Block2	2back/STIM_035.jpg	100
1125.598	1.034	1034.2	2back	Block2	2back/STIM_035.jpg	100
1130.044	0.735	735.4	2back	Block2	2back/STIM_036.jpg	99
1133.139	1.139	1138.9	2back	Block2	2back/STIM_036.jpg	100
1136.355	0.556	556.1	2back	Block2	2back/STIM_036.jpg	99
1140.694	0.975	974.9	2back	Block2	2back/STIM_037.jpg	99
1145.013	0.689	688.9	2back	Block2	2back/STIM_037.jpg	99
1149.293	0.823	822.9	2back	Block2	2back/STIM_037.jpg	100
1153.94	0.946	945.8	2back	Block2	2back/STIM_038.jpg	100
1158.405	0.994	993.9	2back	Block2	2back/STIM_038.jpg	100
1162.638	1.12	1119.9	2back	Block2	2back/STIM_038.jpg	100
1167.743	0.596	596.3	2back	Block2	2back/STIM_039.jpg	100
1171.069	0.795	795.0	2back	Block2	2back/STIM_039.jpg	100
1174.452	1.059	1058.6	2back	Block2	2back/STIM_039.jpg	99
1179.22	0.79	789.7	0back	Block2	0back/STIM_000.jpg	100
1182.505	0.743	743.0	0back	Block2	0back/STIM_000.jpg	99
1185.503	0.765	764.7	0back	Block2	0back/STIM_000.jpg	99
1189.884	0.466	465.9	0back	Block2	0back/STIM_001.jpg	99
1193.216	0.581	580.7	0back	Block2	0back/STIM_001.jpg	99
1196.897	0.465	465.1	0back	Block2	0back/STIM_001.jpg	99
1200.595	0.66	660.4	0back	Block2	0back/STIM_002.jpg	100
1205.047	0.514	513.6	0back	Block2	0back/STIM_002.jpg	100
1208.403	0.792	791.8	0back	Block2	0back/STIM_002.jpg	100
1212.988	0.635	634.6	0back	Block2	0back/STIM_003.jpg	100
1215.838	0.749	749.1	0back	Block2	0back/STIM_003.jpg	100
1219.272	0.691	691.0	0back	Block2	0back/STIM_003.jpg	100
1223.769	0.543	542.9	0back	Block2	0back/STIM_004.jpg	100
1227.547	0.576	576.1	0back	Block2	0back/STIM_004.jpg	99
1232.009	0.672	671.8	0back	Block2	0back/STIM_004.jpg	99
1235.6	0.749	749.0	0back	Block2	0back/STIM_005.jpg	99
1239.738	0.737	736.8	0back	Block2	0back/STIM_005.jpg	100
1242.842	0.575	575.3	0back	Block2	0back/STIM_005.jpg	99
1246.719	0.519	519.4	0back	Block2	0back/STIM_006.jpg	99
1250.218	0.7	700.0	0back	Block2	0back/STIM_006.jpg	99
1254.145	0.577	577.2	0back	Block2	0back/STIM_006.jpg	99
1258.158	0.64	640.0	0back	Block2	0back/STIM_007.jpg	99
1261.618	0.797	797.2	0back	Block2	0back/STIM_007.jpg	99
1265.012	0.688	688.1	0back	Block2	0back/STIM_007.jpg	100
1269.394	0.886	885.8	0back	Block2	0back/STIM_008.jpg	99
1272.362	0.691	691.2	0back	Block2	0back/STIM_008.jpg	100
1275.316	0.787	787.0	0back	Block2	0back/STIM_008.jpg	100
1279.933	0.868	867.8	0back	Block2	0back/STIM_009.jpg	99
1283.982	0.7	700.1	0back	Block2	0back/STIM_009.jpg	99
1288.216	0.863	863.1	0back	Block2	0back/STIM_009.jpg	99
1293.031	0.523	522.9	0back	Block2	0back/STIM_010.jpg	99
1296.989	0.706	705.7	0back	Block2	0back/STIM_010.jpg	99
1300.551	0.578	578.4	0back	Block2	0back/STIM_010.jpg	99
1303.498	0.726	726.0	0back	Block2	0back/STIM_011.jpg	99
1306.778	0.644	644.3	0back	Block2	0back/STIM_011.jpg	99
1309.978	0.682	681.9	0back	Block2	0back/STIM_011.jpg	99
1314.226	0.772	771.6	0back	Block2	0back/STIM_012.jpg	99
1318.15	0.61	609.9	0back	Block2	0back/STIM_012.jpg	99
1321.713	0.502	501.7	0back	Block2	0back/STIM_012.jpg	100
1325.268	0.725	724.8	0back	Block2	0back/STIM_013.jpg	99
1329.493	0.629	628.6	0back	Block2	0back/STIM_013.jpg	100
1332.352	0.592	591.8	0back	Block2	0back/STIM_013.jpg	100
1336.642	0.854	853.5	0back	Block2	0back/STIM_014.jpg	99
1339.644	0.884	883.8	0back	Block2	0back/STIM_014.jpg	100
1342.877	0.52	519.8	0back	Block2	0back/STIM_014.jpg	100
1347.269	0.547	546.8	0back	Block2	0back/STIM_015.jpg	99
1350.183	0.588	588.5	0back	Block2	0back/STIM_015.jpg	100
1353.839	0.865	865.3	0back	Block2	0back/STIM_015.jpg	99
1357.475	0.765	764.8	0back	Block2	0back/STIM_016.jpg	100
1361.785	0.474	474.1	0back	Block2	0back/STIM_016.jpg	99
1364.837	0.66	660.5	0back	Block2	0back/STIM_016.jpg	99
1369.265	0.835	835.4	0back	Block2	0back/STIM_017.jpg	99
1372.812	0.594	593.7	0back	Block2	0back/STIM_017.jpg	100
1376.636	0.797	797.1	0back	Block2	0back/STIM_017.jpg	100
1380.064	0.585	585.1	0back	Block2	0back/STIM_018.jpg	99
1383.49	0.842	841.9	0back	Block2	0back/STIM_018.jpg	99
1387.65	0.536	536.2	0back	Block2	0back/STIM_018.jpg	99
1390.488	0.871	871.3	0back	Block2	0back/STIM_019.jpg	99
1394.149	0.516	516.1	0back	Block2	0back/STIM_019.jpg	100
1397.002	0.469	469.0	0back	Block2	0back/STIM_019.jpg	100
1399.752	0.504	503.9	2back	Block3	2back/STIM_000.jpg	100
1403.278	0.756	755.8	2back	Block3	2back/STIM_000.jpg	99
1406.309	0.5	500.3	2back	Block3	2back/STIM_000.jpg	99
1410.766	0.616	616.4	2back	Block3	2back/STIM_001.jpg	100
1413.67	1.081	1080.8	2back	Block3	2back/STIM_001.jpg	100
1418.418	1.059	1058.6	2back	Block3	2back/STIM_001.jpg	99
1423.008	0.973	973.0	2back	Block3	2back/STIM_002.jpg	99
1427.573	0.8	799.8	2back	Block3	2back/STIM_002.jpg	100
1431.76	0.968	967.5	2back	Block3	2back/STIM_002.jpg	100
1434.87	0.489	488.8	2back	Block3	2back/STIM_003.jpg	99
1438.564	0.857	856.6	2back	Block3	2back/STIM_003.jpg	99
1442.322	0.567	567.2	2back	Block3	2back/STIM_003.jpg	99
1446.196	0.98	980.0	2back	Block3	2back/STIM_004.jpg	100
1450.607	0.688	688.1	2back	Block3	2back/STIM_004.jpg	100
1453.883	0.772	772.4	2back	Block3	2back/STIM_004.jpg	99
1458.598	0.487	486.8	2back	Block3	2back/STIM_005.jpg	99
1461.691	0.85	849.9	2back	Block3	2back/STIM_005.jpg	99
1464.771	0.69	689.8	2back	Block3	2back/STIM_005.jpg	99
1467.926	0.675	674.8	2back	Block3	2back/STIM_006.jpg	100
1471.239	0.578	577.7	2back	Block3	2back/STIM_006.jpg	99
1474.857	0.843	842.6	2back	Block3	2back/STIM_006.jpg	99
1479.444	1.078	1077.6	2back	Block3	2back/STIM_007.jpg	100
1483.21	0.861	861.1	2back	Block3	2back/STIM_007.jpg	100
1487.772	0.825	824.7	2back	Block3	2back/STIM_007.jpg	99
1491.966	0.823	823.3	2back	Block3	2back/STIM_008.jpg	100
1495.871	0.583	583.0	2back	Block3	2back/STIM_008.jpg	99
1499.059	0.497	497.2	2back	Block3	2back/STIM_008.jpg	99
1502.827	1.108	1107.6	2back	Block3	2back/STIM_009.jpg	99
1506.424	0.599	599.4	2back	Block3	2back/STIM_009.jpg	99
1510.23	0.927	927.3	2back	Block3	2back/STIM_009.jpg	100
1514.817	1.026	1026.2	2back	Block3	2back/STIM_010.jpg	100
1519.318	0.795	795.3	2back	Block3	2back/STIM_010.jpg	99
1523.959	0.788	788.5	2back	Block3	2back/STIM_010.jpg	99
1527.001	0.917	917.4	2back	Block3	2back/STIM_011.jpg	100
1530.078	0.846	846.0	2back	Block3	2back/STIM_011.jpg	100
1533.967	0.914	914.3	2back	Block3	2back/STIM_011.jpg	99
1537.947	0.774	774.0	2back	Block3	2back/STIM_012.jpg	99
1541.383	0.809	809.2	2back	Block3	2back/STIM_012.jpg	99
1545.691	0.641	641.1	2back	Block3	2back/STIM_012.jpg	100
1548.927	0.637	637.3	2back	Block3	2back/STIM_013.jpg	100
1551.91	0.516	516.3	2back	Block3	2back/STIM_013.jpg	100
1555.713	0.977	976.6	2back	Block3	2back/STIM_013.jpg	99
1559.343	1.034	1034.5	2back	Block3	2back/STIM_014.jpg	99
1562.716	0.88	880.0	2back	Block3	2back/STIM_014.jpg	99
1566.216	0.912	912.3	2back	Block3	2back/STIM_014.jpg	100
1570.236	0.549	549.3	2back	Block3	2back/STIM_015.jpg	100
1574.458	0.695	695.4	2back	Block3	2back/STIM_015.jpg	99
1578.99	1.106	1106.5	2back	Block3	2back/STIM_015.jpg	99
1583.625	0.552	552.2	2back	Block3	2back/STIM_016.jpg	99
1588.089	0.559	558.6	2back	Block3	2back/STIM_016.jpg	100
1591.454	0.89	890.4	2back	Block3	2back/STIM_016.jpg	99
1595.791	1.091	1091.4	2back	Block3	2back/STIM_017.jpg	99
1600.524	0.853	852.9	2back	Block3	2back/STIM_017.jpg	100
1603.97	0.78	780.2	2back	Block3	2back/STIM_017.jpg	100
1608.25	1.108	1107.7	2back	Block3	2back/STIM_018.jpg	99
1611.363	0.804	804.5	2back	Block3	2back/STIM_018.jpg	100
1615.24	1.106	1105.6	2back	Block3	2back/STIM_018.jpg	100
1620.336	1.027	1027.2	2back	Block3	2back/STIM_019.jpg	99
1624.636	0.717	716.8	2back	Block3	2back/STIM_019.jpg	100
1628.286	0.994	993.6	2back	Block3	2back/STIM_019.jpg	99
1632.185	0.627	627.2	2back	Block3	2back/STIM_020.jpg	99
1635.314	0.501	500.9	2back	Block3	2back/STIM_020.jpg	100
1638.859	0.512	512.4	2back	Block3	2back/STIM_020.jpg	100
1642.701	0.48	479.9	2back	Block3	2back/STIM_021.jpg	99
1646.165	0.936	935.8	2back	Block3	2back/STIM_021.jpg	100
1650.822	1.016	1015.9	2back	Block3	2back/STIM_021.jpg	100
1654.789	0.995	994.8	2back	Block3	2back/STIM_022.jpg	99
1659.712	0.73	730.4	2back	Block3	2back/STIM_022.jpg	100
1663.476	0.89	890.0	2back	Block3	2back/STIM_022.jpg	99
1668.28	0.602	602.1	2back	Block3	2back/STIM_023.jpg	99
1671.353	0.588	587.6	2back	Block3	2back/STIM_023.jpg	99
1675.705	0.775	775.4	2back	Block3	2back/STIM_023.jpg	100
1680.19	0.588	588.3	2back	Block3	2back/STIM_024.jpg	99
1683.983	0.59	590.1	2back	Block3	2back/STIM_024.jpg	100
1687.882	1.082	1081.9	2back	Block3	2back/STIM_024.jpg	100
1692.827	0.946	946.0	2back	Block3	2back/STIM_025.jpg	99
1696.408	0.495	495.2	2back	Block3	2back/STIM_025.jpg	100
1700.252	1.069	1068.8	2back	Block3	2back/STIM_025.jpg	100
1703.809	0.702	701.7	2back	Block3	2back/STIM_026.jpg	99
1706.786	0.968	967.9	2back	Block3	2back/STIM_026.jpg	99
1711.599	0.89	889.8	2back	Block3	2back/STIM_026.jpg	100
1716.099	0.588	587.6	2back	Block3	2back/STIM_027.jpg	100
1719.686	0.564	563.6	2back	Block3	2back/STIM_027.jpg	100
1723.997	0.698	697.5	2back	Block3	2back/STIM_027.jpg	99
1727.272	0.896	896.4	2back	Block3	2back/STIM_028.jpg	99
1730.196	0.902	901.6	2back	Block3	2back/STIM_028.jpg	100
1733.61	0.97	970.2	2back	Block3	2back/STIM_028.jpg	99
1736.989	0.481	481.0	2back	Block3	2back/STIM_029.jpg	99
1740.502	0.748	747.9	2back	Block3	2back/STIM_029.jpg	99
1744.462	0.767	767.2	2back	Block3	2back/STIM_029.jpg	100
1747.621	0.491	490.9	2back	Block3	2back/STIM_030.jpg	99
1750.889	0.864	863.7	2back	Block3	2back/STIM_030.jpg	99
1754.337	0.852	852.5	2back	Block3	2back/STIM_030.jpg	100
1757.369	0.89	889.8	2back	Block3	2back/STIM_031.jpg	99
1760.739	0.75	749.7	2back	Block3	2back/STIM_031.jpg	100
1764.001	0.919	919.2	2back	Block3	2back/STIM_031.jpg	100
1768.642	0.66	659.6	2back	Block3	2back/STIM_032.jpg	100
1771.86	0.781	780.6	2back	Block3	2back/STIM_032.jpg	100
1775.732	0.643	643.1	2back	Block3	2back/STIM_032.jpg	99
1779.934	0.569	568.9	2back	Block3	2back/STIM_033.jpg	100
1782.98	0.898	897.7	2back	Block3	2back/STIM_033.jpg	100
1786.144	0.902	902.4	2back	Block3	2back/STIM_033.jpg	100
1789.867	0.533	533.0	2back	Block3	2back/STIM_034.jpg	100
1794.214	0.842	841.8	2back	Block3	2back/STIM_034.jpg	100
1798.405	0.494	493.6	2back	Block3	2back/STIM_034.jpg	99
1801.237	0.54	540.0	2back	Block3	2back/STIM_035.jpg	100
1805.385	0.775	774.6	2back	Block3	2back/STIM_035.jpg	99
1808.568	0.994	993.9	2back	Block3	2back/STIM_035.jpg	100
1811.598	1.004	1004.4	2back	Block3	2back/STIM_036.jpg	99
1815.537	0.84	840.4	2back	Block3	2back/STIM_036.jpg	99
1818.688	1.016	1016.2	2back	Block3	2back/STIM_036.jpg	99
1823.435	1.107	1106.7	2back	Block3	2back/STIM_037.jpg	100
1827.946	0.5	499.7	2back	Block3	2back/STIM_037.jpg	100
1832.201	0.909	909.3	2back	Block3	2back/STIM_037.jpg	100
1835.64	0.636	636.0	2back	Block3	2back/STIM_038.jpg	99
1838.668	0.809	808.9	2back	Block3	2back/STIM_038.jpg	99
1842.198	1.007	1007.2	2back	Block3	2back/STIM_038.jpg	100
1847.132	0.615	615.4	2back	Block3	2back/STIM_039.jpg	99
1851.343	0.86	859.7	2back	Block3	2back/STIM_039.jpg	99
1855.582	0.688	688.2	2back	Block3	2back/STIM_039.jpg	100
1859.862	0.487	486.6	0back	Block3	0back/STIM_000.jpg	99
1862.636	0.793	792.9	0back	Block3	0back/STIM_000.jpg	100
1865.656	0.764	764.4	0back	Block3	0back/STIM_000.jpg	99
1869.807	0.568	568.2	0back	Block3	0back/STIM_001.jpg	100
1873.527	0.782	782.3	0back	Block3	0back/STIM_001.jpg	99
1877.284	0.584	583.5	0back	Block3	0back/STIM_001.jpg	99
1881.855	0.746	746.5	0back	Block3	0back/STIM_002.jpg	100
1886.288	0.903	902.9	0back	Block3	0back/STIM_002.jpg	99
1890.884	0.793	792.6	0back	Block3	0back/STIM_002.jpg	99
1895.428	0.758	757.8	0back	Block3	0back/STIM_003.jpg	99
1900.038	0.804	803.9	0back	Block3	0back/STIM_003.jpg	100
1903.856	0.653	653.3	0back	Block3	0back/STIM_003.jpg	100
1908.21	0.67	669.9	0back	Block3	0back/STIM_004.jpg	100
1911.382	0.883	883.4	0back	Block3	0back/STIM_004.jpg	100
1915.876	0.904	904.3	0back	Block3	0back/STIM_004.jpg	99
1920.532	0.466	466.0	0back	Block3	0back/STIM_005.jpg	100
1924.005	0.788	788.1	0back	Block3	0back/STIM_005.jpg	99
1928.014	0.469	469.0	0back	Block3	0back/STIM_005.jpg	99
1931.602	0.657	656.6	0back	Block3	0back/STIM_006.jpg	100
1935.976	0.549	548.7	0back	Block3	0back/STIM_006.jpg	100
1940.018	0.733	732.6	0back	Block3	0back/STIM_006.jpg	100
1942.967	0.662	661.6	0back	Block3	0back/STIM_007.jpg	99
1946.84	0.506	505.9	0back	Block3	0back/STIM_007.jpg	99
1951.143	0.49	489.8	0back	Block3	0back/STIM_007.jpg	100
1955.618	0.587	586.9	0back	Block3	0back/STIM_008.jpg	100
1958.507	0.501	501.4	0back	Block3	0back/STIM_008.jpg	99
1961.614	0.588	588.5	0back	Block3	0back/STIM_008.jpg	100
1964.205	0.705	705.1	0back	Block3	0back/STIM_009.jpg	99
1968.245	0.813	812.9	0back	Block3	0back/STIM_009.jpg	100
1971.522	0.556	556.4	0back	Block3	0back/STIM_009.jpg	99
1975.194	0.475	474.9	0back	Block3	0back/STIM_010.jpg	99
1978.179	0.739	739.2	0back	Block3	0back/STIM_010.jpg	99
1981.941	0.681	681.0	0back	Block3	0back/STIM_010.jpg	99
1985.977	0.892	892.2	0back	Block3	0back/STIM_011.jpg	100
1989.213	0.64	639.8	0back	Block3	0back/STIM_011.jpg	99
1992.14	0.859	858.8	0back	Block3	0back/STIM_011.jpg	100
1995.674	0.541	540.6	0back	Block3	0back/STIM_012.jpg	99
1998.959	0.9	900.3	0back	Block3	0back/STIM_012.jpg	100
2002.557	0.525	524.6	0back	Block3	0back/STIM_012.jpg	100
2005.957	0.705	704.8	0back	Block3	0back/STIM_013.jpg	100
2009.509	0.509	509.5	0back	Block3	0back/STIM_013.jpg	99
2012.842	0.502	502.5	0back	Block3	0back/STIM_013.jpg	99
2015.894	0.896	896.4	0back	Block3	0back/STIM_014.jpg	99
2020.245	0.674	673.8	0back	Block3	0back/STIM_014.jpg	99
2023.33	0.698	697.8	0back	Block3	0back/STIM_014.jpg	100
2026.344	0.48	479.7	0back	Block3	0back/STIM_015.jpg	99
2029.295	0.868	867.8	0back	Block3	0back/STIM_015.jpg	99
2032.202	0.659	659.1	0back	Block3	0back/STIM_015.jpg	100
2036.447	0.902	901.5	0back	Block3	0back/STIM_016.jpg	99
2040.506	0.454	453.7	0back	Block3	0back/STIM_016.jpg	100
2043.34	0.673	672.7	0back	Block3	0back/STIM_016.jpg	99
2046.842	0.746	745.6	0back	Block3	0back/STIM_017.jpg	100
2051.503	0.666	666.4	0back	Block3	0back/STIM_017.jpg	100
2055.263	0.501	501.1	0back	Block3	0back/STIM_017.jpg	99
2058.703	0.728	728.0	0back	Block3	0back/STIM_018.jpg	100
2062.042	0.902	901.8	0back	Block3	0back/STIM_018.jpg	100
2066.472	0.783	783.3	0back	Block3	0back/STIM_018.jpg	99
2070.113	0.757	757.3	0back	Block3	0back/STIM_019.jpg	99
2073.671	0.606	606.1	0back	Block3	0back/STIM_019.jpg	100
2076.917	0.853	852.6	0back	Block3	0back/STIM_019.jpg	99
2081.07	0.754	754.2	2back	Block4	2back/STIM_000.jpg	100
2084.955	0.664	663.5	2back	Block4	2back/STIM_000.jpg	100
2089.52	0.515	515.3	2back	Block4	2back/STIM_000.jpg	100
2092.839	0.984	984.0	2back	Block4	2back/STIM_001.jpg	100
2096.313	0.764	764.0	2back	Block4	2back/STIM_001.jpg	99
2100.809	0.828	828.4	2back	Block4	2back/STIM_001.jpg	99
2103.741	0.532	531.5	2back	Block4	2back/STIM_002.jpg	100
2106.299	1.011	1011.1	2back	Block4	2back/STIM_002.jpg	100
2110.47	0.879	878.9	2back	Block4	2back/STIM_002.jpg	100
2114.225	1.006	1006.5	2back	Block4	2back/STIM_003.jpg	99
2118.873	0.476	475.6	2back	Block4	2back/STIM_003.jpg	99
2123.25	0.638	637.5	2back	Block4	2back/STIM_003.jpg	99
2127.875	0.676	675.7	2back	Block4	2back/STIM_004.jpg	99
2132.069	0.932	932.1	2back	Block4	2back/STIM_004.jpg	99
2135.72	1.066	1066.5	2back	Block4	2back/STIM_004.jpg	100
2140.161	1.102	1102.3	2back	Block4	2back/STIM_005.jpg	100
2144.847	0.796	795.8	2back	Block4	2back/STIM_005.jpg	99
2148.076	0.962	961.6	2back	Block4	2back/STIM_005.jpg	99
2151.22	0.535	534.7	2back	Block4	2back/STIM_006.jpg	99
2154.463	0.942	942.0	2back	Block4	2back/STIM_006.jpg	100
2158.695	0.695	695.1	2back	Block4	2back/STIM_006.jpg	100
2163.159	0.506	505.7	2back	Block4	2back/STIM_007.jpg	99
2166.161	0.694	694.2	2back	Block4	2back/STIM_007.jpg	99
2170.164	0.821	821.0	2back	Block4	2back/STIM_007.jpg	99
2173.625	0.74	739.6	2back	Block4	2back/STIM_008.jpg	99
2176.718	0.963	963.3	2back	Block4	2back/STIM_008.jpg	100
2179.857	0.765	765.3	2back	Block4	2back/STIM_008.jpg	99
2184.581	0.635	634.9	2back	Block4	2back/STIM_009.jpg	100
2189.067	1.034	1034.0	2back	Block4	2back/STIM_009.jpg	99
2192.645	1.106	1106.3	2back	Block4	2back/STIM_009.jpg	99
2196.062	0.934	933.5	2back	Block4	2back/STIM_010.jpg	99
2199.759	0.759	759.4	2back	Block4	2back/STIM_010.jpg	99
2203.355	0.794	793.8	2back	Block4	2back/STIM_010.jpg	99
2207.766	0.554	554.2	2back	Block4	2back/STIM_011.jpg	99
2211.865	0.595	595.3	2back	Block4	2back/STIM_011.jpg	100
2216.329	0.741	741.0	2back	Block4	2back/STIM_011.jpg	100
2220.432	0.872	871.6	2back	Block4	2back/STIM_012.jpg	100
2224.386	0.634	633.5	2back	Block4	2back/STIM_012.jpg	100
2228.833	0.937	937.0	2back	Block4	2back/STIM_012.jpg	99
2233.061	0.843	842.6	2back	Block4	2back/STIM_013.jpg	100
2236.198	0.788	787.8	2back	Block4	2back/STIM_013.jpg	100
2240.123	0.777	776.9	2back	Block4	2back/STIM_013.jpg	99
2244.876	0.952	951.9	2back	Block4	2back/STIM_014.jpg	99
2248.005	1.003	1002.8	2back	Block4	2back/STIM_014.jpg	99
2251.252	0.739	739.0	2back	Block4	2back/STIM_014.jpg	100
2255.482	0.879	878.7	2back	Block4	2back/STIM_015.jpg	100
2258.589	0.869	869.1	2back	Block4	2back/STIM_015.jpg	99
2263.395	1.047	1046.7	2back	Block4	2back/STIM_015.jpg	99
2266.991	0.524	523.7	2back	Block4	2back/STIM_016.jpg	99
2270.766	1.096	1096.3	2back	Block4	2back/STIM_016.jpg	100
2274.798	1.072	1071.5	2back	Block4	2back/STIM_016.jpg	100
2279.183	1.009	1009.1	2back	Block4	2back/STIM_017.jpg	100
2283.804	0.748	748.0	2back	Block4	2back/STIM_017.jpg	99
2288.013	1.012	1011.6	2back	Block4	2back/STIM_017.jpg	99
2291.53	1.069	1069.0	2back	Block4	2back/STIM_018.jpg	100
2295.004	0.872	872.1	2back	Block4	2back/STIM_018.jpg	99
2298.461	0.791	790.9	2back	Block4	2back/STIM_018.jpg	100
2301.419	0.905	905.0	2back	Block4	2back/STIM_019.jpg	99
2305.566	0.816	816.2	2back	Block4	2back/STIM_019.jpg	99
2310.083	0.537	537.1	2back	Block4	2back/STIM_019.jpg	99
2314.426	0.816	816.0	2back	Block4	2back/STIM_020.jpg	100
2317.345	1.064	1064.4	2back	Block4	2back/STIM_020.jpg	100
2321.339	0.693	693.0	2back	Block4	2back/STIM_020.jpg	99
2326.022	0.612	611.5	2back	Block4	2back/STIM_021.jpg	100
2329.177	0.498	497.5	2back	Block4	2back/STIM_021.jpg	99
2332.341	0.576	576.2	2back	Block4	2back/STIM_021.jpg	100
2335.485	0.702	702.4	2back	Block4	2back/STIM_022.jpg	100
2339.673	0.786	786.3	2back	Block4	2back/STIM_022.jpg	99
2343.963	0.925	924.9	2back	Block4	2back/STIM_022.jpg	99
2348.67	0.505	505.4	2back	Block4	2back/STIM_023.jpg	99
2351.851	0.925	924.6	2back	Block4	2back/STIM_023.jpg	100
2355.258	0.929	928.9	2back	Block4	2back/STIM_023.jpg	99
2358.226	1.005	1004.8	2back	Block4	2back/STIM_024.jpg	100
2362.099	0.854	854.1	2back	Block4	2back/STIM_024.jpg	100
2364.99	0.79	789.5	2back	Block4	2back/STIM_024.jpg	100
2369.257	0.894	893.6	2back	Block4	2back/STIM_025.jpg	99
2372.346	0.719	719.3	2back	Block4	2back/STIM_025.jpg	100
2376.375	0.574	574.3	2back	Block4	2back/STIM_025.jpg	99
2380.819	0.735	735.0	2back	Block4	2back/STIM_026.jpg	99
2385.112	0.634	633.5	2back	Block4	2back/STIM_026.jpg	100
2389.058	0.948	948.3	2back	Block4	2back/STIM_026.jpg	100
2392.018	0.969	969.2	2back	Block4	2back/STIM_027.jpg	100
2396.107	1.109	1109.3	2back	Block4	2back/STIM_027.jpg	99
2400.247	1.018	1018.4	2back	Block4	2back/STIM_027.jpg	99
2403.371	1.002	1001.9	2back	Block4	2back/STIM_028.jpg	99
2407.212	0.497	496.9	2back	Block4	2back/STIM_028.jpg	99
2411.163	0.964	963.5	2back	Block4	2back/STIM_028.jpg	100
2414.43	0.644	644.2	2back	Block4	2back/STIM_029.jpg	99
2419.05	0.889	888.6	2back	Block4	2back/STIM_029.jpg	100
2423.023	0.721	720.9	2back	Block4	2back/STIM_029.jpg	99
2425.778	0.644	643.6	2back	Block4	2back/STIM_030.jpg	99
2428.967	0.6	600.0	2back	Block4	2back/STIM_030.jpg	99
2433.239	0.94	939.8	2back	Block4	2back/STIM_030.jpg	100
2437.798	0.673	673.2	2back	Block4	2back/STIM_031.jpg	100
2441.291	0.716	715.8	2back	Block4	2back/STIM_031.jpg	100
2444.513	1.085	1085.2	2back	Block4	2back/STIM_031.jpg	100
2448.244	0.872	872.1	2back	Block4	2back/STIM_032.jpg	100
2452.593	0.785	784.9	2back	Block4	2back/STIM_032.jpg	99
2455.511	0.534	533.9	2back	Block4	2back/STIM_032.jpg	100
2458.827	0.717	717.0	2back	Block4	2back/STIM_033.jpg	99
2463.256	1.08	1080.3	2back	Block4	2back/STIM_033.jpg	99
2467.124	0.489	489.1	2back	Block4	2back/STIM_033.jpg	99
2470.882	0.751	751.4	2back	Block4	2back/STIM_034.jpg	99
2474.936	0.696	696.0	2back	Block4	2back/STIM_034.jpg	100
2478.045	0.688	688.5	2back	Block4	2back/STIM_034.jpg	99
2481.13	0.576	576.5	2back	Block4	2back/STIM_035.jpg	99
2484.41	0.589	588.9	2back	Block4	2back/STIM_035.jpg	99
2488.665	1.019	1018.6	2back	Block4	2back/STIM_035.jpg	99
2493.576	0.665	664.6	2back	Block4	2back/STIM_036.jpg	100
2496.875	1.108	1108.2	2back	Block4	2back/STIM_036.jpg	99
2501.205	0.609	609.0	2back	Block4	2back/STIM_036.jpg	99
2505.496	1.085	1085.2	2back	Block4	2back/STIM_037.jpg	100
2509.948	0.781	780.8	2back	Block4	2back/STIM_037.jpg	99
2514.144	0.938	938.3	2back	Block4	2back/STIM_037.jpg	100
2517.33	0.97	969.6	2back	Block4	2back/STIM_038.jpg	99
2520.642	0.877	876.6	2back	Block4	2back/STIM_038.jpg	100
2525.345	0.816	816.2	2back	Block4	2back/STIM_038.jpg	99
2528.949	0.48	479.7	2back	Block4	2back/STIM_039.jpg	99
2532.551	0.604	603.7	2back	Block4	2back/STIM_039.jpg	99
2537.087	0.998	998.4	2back	Block4	2back/STIM_039.jpg	100
2540.998	0.774	774.4	0back	Block4	0back/STIM_000.jpg	100
2544.703	0.847	847.3	0back	Block4	0back/STIM_000.jpg	99
2548.34	0.585	584.6	0back	Block4	0back/STIM_000.jpg	100
2551.315	0.778	778.1	0back	Block4	0back/STIM_001.jpg	100
2554.769	0.878	877.8	0back	Block4	0back/STIM_001.jpg	99
2559.407	0.828	828.4	0back	Block4	0back/STIM_001.jpg	99
2562.616	0.492	491.9	0back	Block4	0back/STIM_002.jpg	100
2566.37	0.872	872.2	0back	Block4	0back/STIM_002.jpg	100
2570.473	0.776	775.8	0back	Block4	0back/STIM_002.jpg	100
2573.466	0.663	663.1	0back	Block4	0back/STIM_003.jpg	100
2577.308	0.626	625.8	0back	Block4	0back/STIM_003.jpg	100
2581.217	0.506	506.4	0back	Block4	0back/STIM_003.jpg	100
2585.441	0.774	773.9	0back	Block4	0back/STIM_004.jpg	100
2589.765	0.794	793.5	0back	Block4	0back/STIM_004.jpg	100
2594.004	0.486	485.5	0back	Block4	0back/STIM_004.jpg	100
2597.739	0.823	823.4	0back	Block4	0back/STIM_005.jpg	99
2601.105	0.716	715.6	0back	Block4	0back/STIM_005.jpg	99
2605.549	0.685	685.3	0back	Block4	0back/STIM_005.jpg	100
2608.297	0.669	669.1	0back	Block4	0back/STIM_006.jpg	99
2612.588	0.519	519.0	0back	Block4	0back/STIM_006.jpg	99
2616.259	0.9	899.6	0back	Block4	0back/STIM_006.jpg	100
2619.957	0.467	466.8	0back	Block4	0back/STIM_007.jpg	100
2623.07	0.515	515.4	0back	Block4	0back/STIM_007.jpg	99
2626.901	0.876	875.7	0back	Block4	0back/STIM_007.jpg	100
2629.969	0.459	459.0	0back	Block4	0back/STIM_008.jpg	100
2632.46	0.793	792.9	0back	Block4	0back/STIM_008.jpg	99
2636.705	0.661	660.6	0back	Block4	0back/STIM_008.jpg	99
2640.386	0.856	856.3	0back	Block4	0back/STIM_009.jpg	100
2644.179	0.596	596.4	0back	Block4	0back/STIM_009.jpg	99
2647.61	0.499	499.3	0back	Block4	0back/STIM_009.jpg	100
2652.097	0.538	537.9	0back	Block4	0back/STIM_010.jpg	99
2655.139	0.526	525.9	0back	Block4	0back/STIM_010.jpg	99
2659.573	0.613	612.9	0back	Block4	0back/STIM_010.jpg	100
2662.889	0.643	643.1	0back	Block4	0back/STIM_011.jpg	100
2666.057	0.621	621.4	0back	Block4	0back/STIM_011.jpg	99
2669.844	0.791	790.6	0back	Block4	0back/STIM_011.jpg	100
2673.9	0.71	710.0	0back	Block4	0back/STIM_012.jpg	99
2678.505	0.783	782.8	0back	Block4	0back/STIM_012.jpg	100
2682.702	0.593	593.4	0back	Block4	0back/STIM_012.jpg	99
2685.476	0.712	711.7	0back	Block4	0back/STIM_013.jpg	99
2689.171	0.781	781.3	0back	Block4	0back/STIM_013.jpg	99
2692.638	0.697	697.2	0back	Block4	0back/STIM_013.jpg	99
2695.373	0.516	515.8	0back	Block4	0back/STIM_014.jpg	99
2699.833	0.636	635.8	0back	Block4	0back/STIM_014.jpg	99
2702.752	0.652	651.6	0back	Block4	0back/STIM_014.jpg	99
2705.793	0.459	458.6	0back	Block4	0back/STIM_015.jpg	100
2709.079	0.762	761.8	0back	Block4	0back/STIM_015.jpg	100
2713.559	0.816	815.7	0back	Block4	0back/STIM_015.jpg	100
2717.429	0.865	864.6	0back	Block4	0back/STIM_016.jpg	100
2720.499	0.569	569.4	0back	Block4	0back/STIM_016.jpg	100
2724.636	0.737	737.3	0back	Block4	0back/STIM_016.jpg	100
2728.941	0.853	853.0	0back	Block4	0back/STIM_017.jpg	100
2733.233	0.697	696.9	0back	Block4	0back/STIM_017.jpg	100
2737.885	0.831	831.3	0back	Block4	0back/STIM_017.jpg	100
2741.425	0.855	855.2	0back	Block4	0back/STIM_018.jpg	99
2744.502	0.826	825.7	0back	Block4	0back/STIM_018.jpg	99
2748.527	0.617	616.8	0back	Block4	0back/STIM_018.jpg	100
2752.842	0.592	592.4	0back	Block4	0back/STIM_019.jpg	100
2755.96	0.746	746.0	0back	Block4	0back/STIM_019.jpg	99
2760.417	0.705	705.4	0back	Block4	0back/STIM_019.jpg	99
