onset	duration	accuracy	trial_type	learning_stage	stimulus
0.0	1.471	correct	2back	Block1	2back/STIM_000.jpg
5.348	1.244	correct	2back	Block1	2back/STIM_000.jpg
9.385	0.796	correct	2back	Block1	2back/STIM_000.jpg
13.081	0.856	correct	2back	Block1	2back/STIM_001.jpg
17.87	0.958	correct	2back	Block1	2back/STIM_001.jpg
22.174	1.4	correct	2back	Block1	2back/STIM_001.jpg
26.326	1.479	correct	2back	Block1	2back/STIM_002.jpg
31.143	0.987	incorrect	2back	Block1	2back/STIM_002.jpg
35.454	1.166	correct	2back	Block1	2back/STIM_002.jpg
39.44	1.267	correct	2back	Block1	2back/STIM_003.jpg
43.161	1.311	correct	2back	Block1	2back/STIM_003.jpg
47.483	1.063	correct	2back	Block1	2back/STIM_003.jpg
50.761	0.753	incorrect	2back	Block1	2back/STIM_004.jpg
55.201	0.968	correct	2back	Block1	2back/STIM_004.jpg
59.318	1.347	correct	2back	Block1	2back/STIM_004.jpg
64.091	1.24	correct	2back	Block1	2back/STIM_005.jpg
68.429	0.826	correct	2back	Block1	2back/STIM_005.jpg
72.673	1.215	correct	2back	Block1	2back/STIM_005.jpg
77.885	1.325	correct	2back	Block1	2back/STIM_006.jpg
82.114	0.988	correct	2back	Block1	2back/STIM_006.jpg
85.811	1.379	correct	2back	Block1	2back/STIM_006.jpg
90.06	0.888	incorrect	2back	Block1	2back/STIM_007.jpg
93.478	1.085	correct	2back	Block1	2back/STIM_007.jpg
96.604	1.01	correct	2back	Block1	2back/STIM_007.jpg
100.176	0.72	correct	2back	Block1	2back/STIM_008.jpg
102.928	1.134	correct	2back	Block1	2back/STIM_008.jpg
107.425	0.835	correct	2back	Block1	2back/STIM_008.jpg
110.71	0.83	correct	2back	Block1	2back/STIM_009.jpg
113.543	0.696	correct	2back	Block1	2back/STIM_009.jpg
117.85	0.676	correct	2back	Block1	2back/STIM_009.jpg
121.72	1.086	correct	2back	Block1	2back/STIM_010.jpg
125.182	1.038	correct	2back	Block1	2back/STIM_010.jpg
128.484	1.42	correct	2back	Block1	2back/STIM_010.jpg
133.428	0.779	correct	2back	Block1	2back/STIM_011.jpg
137.07	1.127	incorrect	2back	Block1	2back/STIM_011.jpg
140.54	0.712	correct	2back	Block1	2back/STIM_011.jpg
145.0	1.268	correct	2back	Block1	2back/STIM_012.jpg
149.472	1.12	correct	2back	Block1	2back/STIM_012.jpg
153.712	0.666	correct	2back	Block1	2back/STIM_012.jpg
156.659	1.294	incorrect	2back	Block1	2back/STIM_013.jpg
160.581	0.748	incorrect	2back	Block1	2back/STIM_013.jpg
163.594	0.638	correct	2back	Block1	2back/STIM_013.jpg
168.228	1.561	correct	2back	Block1	2back/STIM_014.jpg
173.655	1.232	correct	2back	Block1	2back/STIM_014.jpg
178.123	1.15	correct	2back	Block1	2back/STIM_014.jpg
181.82	0.801	correct	2back	Block1	2back/STIM_015.jpg
185.838	1.338	correct	2back	Block1	2back/STIM_015.jpg
191.042	0.741	incorrect	2back	Block1	2back/STIM_015.jpg
193.888	1.088	correct	2back	Block1	2back/STIM_016.jpg
198.783	1.49	correct	2back	Block1	2back/STIM_016.jpg
203.887	1.365	correct	2back	Block1	2back/STIM_016.jpg
208.539	1.18	correct	2back	Block1	2back/STIM_017.jpg
212.734	0.756	correct	2back	Block1	2back/STIM_017.jpg
217.014	1.35	correct	2back	Block1	2back/STIM_017.jpg
221.238	0.766	incorrect	2back	Block1	2back/STIM_018.jpg
224.123	0.928	correct	2back	Block1	2back/STIM_018.jpg
228.307	1.306	incorrect	2back	Block1	2back/STIM_018.jpg
232.284	1.346	correct	2back	Block1	2back/STIM_019.jpg
237.172	1.225	correct	2back	Block1	2back/STIM_019.jpg
241.48	1.38	correct	2back	Block1	2back/STIM_019.jpg
245.594	1.488	incorrect	2back	Block1	2back/STIM_020.jpg
249.882	0.98	correct	2back	Block1	2back/STIM_020.jpg
254.318	1.254	incorrect	2back	Block1	2back/STIM_020.jpg
258.571	1.273	correct	2back	Block1	2back/STIM_021.jpg
262.86	0.764	correct	2back	Block1	2back/STIM_021.jpg
266.228	0.961	correct	2back	Block1	2back/STIM_021.jpg
269.282	1.408	correct	2back	Block1	2back/STIM_022.jpg
273.911	1.033	correct	2back	Block1	2back/STIM_022.jpg
278.405	0.654	correct	2back	Block1	2back/STIM_022.jpg
282.876	0.685	correct	2back	Block1	2back/STIM_023.jpg
286.673	1.186	correct	2back	Block1	2back/STIM_023.jpg
290.554	1.323	correct	2back	Block1	2back/STIM_023.jpg
294.251	1.284	correct	2back	Block1	2back/STIM_024.jpg
297.969	0.747	incorrect	2back	Block1	2back/STIM_024.jpg
300.762	0.703	correct	2back	Block1	2back/STIM_024.jpg
303.721	1.548	incorrect	2back	Block1	2back/STIM_025.jpg
308.18	1.428	correct	2back	Block1	2back/STIM_025.jpg
313.372	0.952	correct	2back	Block1	2back/STIM_025.jpg
317.356	1.415	incorrect	2back	Block1	2back/STIM_026.jpg
321.464	0.679	correct	2back	Block1	2back/STIM_026.jpg
325.226	1.081	correct	2back	Block1	2back/STIM_026.jpg
329.4	1.523	correct	2back	Block1	2back/STIM_027.jpg
334.544	0.677	correct	2back	Block1	2back/STIM_027.jpg
337.959	1.41	correct	2back	Block1	2back/STIM_027.jpg
341.705	1.104	incorrect	2back	Block1	2back/STIM_028.jpg
345.817	0.991	correct	2back	Block1	2back/STIM_028.jpg
350.174	0.96	correct	2back	Block1	2back/STIM_028.jpg
353.815	0.751	incorrect	2back	Block1	2back/STIM_029.jpg
356.792	1.008	correct	2back	Block1	2back/STIM_029.jpg
359.805	1.064	correct	2back	Block1	2back/STIM_029.jpg
364.722	1.064	correct	2back	Block1	2back/STIM_030.jpg
368.461	1.349	correct	2back	Block1	2back/STIM_030.jpg
373.321	1.192	correct	2back	Block1	2back/STIM_030.jpg
377.625	1.263	incorrect	2back	Block1	2back/STIM_031.jpg
381.085	1.468	incorrect	2back	Block1	2back/STIM_031.jpg
384.685	1.069	incorrect	2back	Block1	2back/STIM_031.jpg
388.76	0.921	correct	2back	Block1	2back/STIM_032.jpg
393.091	0.789	correct	2back	Block1	2back/STIM_032.jpg
397.156	0.629	correct	2back	Block1	2back/STIM_032.jpg
401.366	1.512	correct	2back	Block1	2back/STIM_033.jpg
405.467	1.099	correct	2back	Block1	2back/STIM_033.jpg
410.425	1.146	correct	2back	Block1	2back/STIM_033.jpg
414.143	1.556	correct	2back	Block1	2back/STIM_034.jpg
417.713	0.912	correct	2back	Block1	2back/STIM_034.jpg
421.6	0.907	correct	2back	Block1	2back/STIM_034.jpg
424.55	0.832	incorrect	2back	Block1	2back/STIM_035.jpg
427.96	1.351	correct	2back	Block1	2back/STIM_035.jpg
431.714	1.266	correct	2back	Block1	2back/STIM_035.jpg
436.252	1.576	correct	2back	Block1	2back/STIM_036.jpg
440.837	1.256	correct	2back	Block1	2back/STIM_036.jpg
445.157	0.844	correct	2back	Block1	2back/STIM_036.jpg
449.779	1.083	correct	2back	Block1	2back/STIM_037.jpg
453.544	1.254	correct	2back	Block1	2back/STIM_037.jpg
457.812	1.076	correct	2back	Block1	2back/STIM_037.jpg
461.367	1.011	correct	2back	Block1	2back/STIM_038.jpg
465.621	0.655	correct	2back	Block1	2back/STIM_038.jpg
470.1	0.739	correct	2back	Block1	2back/STIM_038.jpg
474.413	1.166	correct	2back	Block1	2back/STIM_039.jpg
478.84	0.869	correct	2back	Block1	2back/STIM_039.jpg
482.012	1.116	correct	2back	Block1	2back/STIM_039.jpg
486.525	0.899	correct	0back	Block1	0back/STIM_000.jpg
490.148	0.659	correct	0back	Block1	0back/STIM_000.jpg
493.39	0.523	correct	0back	Block1	0back/STIM_000.jpg
497.496	0.714	correct	0back	Block1	0back/STIM_001.jpg
500.294	0.797	correct	0back	Block1	0back/STIM_001.jpg
504.564	0.644	correct	0back	Block1	0back/STIM_001.jpg
507.656	0.572	correct	0back	Block1	0back/STIM_002.jpg
510.466	0.688	correct	0back	Block1	0back/STIM_002.jpg
513.563	0.56	correct	0back	Block1	0back/STIM_002.jpg
516.662	0.519	incorrect	0back	Block1	0back/STIM_003.jpg
520.226	0.566	correct	0back	Block1	0back/STIM_003.jpg
524.477	0.845	correct	0back	Block1	0back/STIM_003.jpg
528.35	0.555	correct	0back	Block1	0back/STIM_004.jpg
531.057	0.706	correct	0back	Block1	0back/STIM_004.jpg
534.77	0.702	correct	0back	Block1	0back/STIM_004.jpg
538.922	0.586	correct	0back	Block1	0back/STIM_005.jpg
543.341	0.674	correct	0back	Block1	0back/STIM_005.jpg
547.19	0.729	correct	0back	Block1	0back/STIM_005.jpg
551.063	0.766	correct	0back	Block1	0back/STIM_006.jpg
554.021	0.543	correct	0back	Block1	0back/STIM_006.jpg
556.566	0.702	correct	0back	Block1	0back/STIM_006.jpg
559.927	0.478	correct	0back	Block1	0back/STIM_007.jpg
564.256	0.569	correct	0back	Block1	0back/STIM_007.jpg
566.986	0.475	correct	0back	Block1	0back/STIM_007.jpg
571.162	0.788	correct	0back	Block1	0back/STIM_008.jpg
574.446	0.725	correct	0back	Block1	0back/STIM_008.jpg
578.998	0.671	correct	0back	Block1	0back/STIM_008.jpg
583.582	0.549	correct	0back	Block1	0back/STIM_009.jpg
586.432	0.563	correct	0back	Block1	0back/STIM_009.jpg
590.417	0.613	correct	0back	Block1	0back/STIM_009.jpg
594.693	0.734	correct	0back	Block1	0back/STIM_010.jpg
597.825	0.603	correct	0back	Block1	0back/STIM_010.jpg
601.459	0.72	correct	0back	Block1	0back/STIM_010.jpg
605.332	0.821	correct	0back	Block1	0back/STIM_011.jpg
610.117	0.681	correct	0back	Block1	0back/STIM_011.jpg
614.231	0.841	correct	0back	Block1	0back/STIM_011.jpg
618.643	0.759	correct	0back	Block1	0back/STIM_012.jpg
622.154	0.739	correct	0back	Block1	0back/STIM_012.jpg
626.773	0.84	correct	0back	Block1	0back/STIM_012.jpg
629.703	0.69	correct	0back	Block1	0back/STIM_013.jpg
633.261	0.824	correct	0back	Block1	0back/STIM_013.jpg
637.968	0.788	correct	0back	Block1	0back/STIM_013.jpg
642.606	0.533	correct	0back	Block1	0back/STIM_014.jpg
645.141	0.548	correct	0back	Block1	0back/STIM_014.jpg
647.799	0.894	correct	0back	Block1	0back/STIM_014.jpg
651.643	0.599	correct	0back	Block1	0back/STIM_015.jpg
654.372	0.456	correct	0back	Block1	0back/STIM_015.jpg
658.486	0.489	correct	0back	Block1	0back/STIM_015.jpg
661.171	0.59	correct	0back	Block1	0back/STIM_016.jpg
664.367	0.522	correct	0back	Block1	0back/STIM_016.jpg
667.297	0.856	correct	0back	Block1	0back/STIM_016.jpg
671.728	0.513	correct	0back	Block1	0back/STIM_017.jpg
676.115	0.764	correct	0back	Block1	0back/STIM_017.jpg
679.386	0.631	correct	0back	Block1	0back/STIM_017.jpg
683.69	0.594	correct	0back	Block1	0back/STIM_018.jpg
686.729	0.754	correct	0back	Block1	0back/STIM_018.jpg
690.693	0.531	correct	0back	Block1	0back/STIM_018.jpg
693.305	0.479	correct	0back	Block1	0back/STIM_019.jpg
696.855	0.613	correct	0back	Block1	0back/STIM_019.jpg
700.656	0.658	correct	0back	Block1	0back/STIM_019.jpg
704.48	0.797	correct	2back	Block2	2back/STIM_000.jpg
707.439	1.263	correct	2back	Block2	2back/STIM_000.jpg
712.573	1.134	correct	2back	Block2	2back/STIM_000.jpg
717.208	1.02	correct	2back	Block2	2back/STIM_001.jpg
721.696	1.122	correct	2back	Block2	2back/STIM_001.jpg
725.826	0.822	correct	2back	Block2	2back/STIM_001.jpg
730.245	0.666	correct	2back	Block2	2back/STIM_002.jpg
734.2	0.627	incorrect	2back	Block2	2back/STIM_002.jpg
737.962	1.162	correct	2back	Block2	2back/STIM_002.jpg
741.613	0.821	correct	2back	Block2	2back/STIM_003.jpg
744.674	0.981	correct	2back	Block2	2back/STIM_003.jpg
749.4	0.914	correct	2back	Block2	2back/STIM_003.jpg
753.509	1.284	correct	2back	Block2	2back/STIM_004.jpg
758.633	0.726	correct	2back	Block2	2back/STIM_004.jpg
763.213	0.932	incorrect	2back	Block2	2back/STIM_004.jpg
767.341	1.031	correct	2back	Block2	2back/STIM_005.jpg
771.835	0.662	correct	2back	Block2	2back/STIM_005.jpg
774.667	0.596	correct	2back	Block2	2back/STIM_005.jpg
777.899	0.978	correct	2back	Block2	2back/STIM_006.jpg
781.883	0.763	correct	2back	Block2	2back/STIM_006.jpg
785.959	1.06	incorrect	2back	Block2	2back/STIM_006.jpg
790.759	0.915	correct	2back	Block2	2back/STIM_007.jpg
794.575	0.712	correct	2back	Block2	2back/STIM_007.jpg
799.165	0.627	correct	2back	Block2	2back/STIM_007.jpg
802.754	0.799	correct	2back	Block2	2back/STIM_008.jpg
807.245	1.024	correct	2back	Block2	2back/STIM_008.jpg
810.366	0.98	incorrect	2back	Block2	2back/STIM_008.jpg
814.814	1.22	correct	2back	Block2	2back/STIM_009.jpg
818.16	0.709	correct	2back	Block2	2back/STIM_009.jpg
821.1	0.752	correct	2back	Block2	2back/STIM_009.jpg
824.638	1.06	correct	2back	Block2	2back/STIM_010.jpg
827.798	1.042	incorrect	2back	Block2	2back/STIM_010.jpg
832.514	0.958	incorrect	2back	Block2	2back/STIM_010.jpg
836.393	0.848	correct	2back	Block2	2back/STIM_011.jpg
840.384	0.776	correct	2back	Block2	2back/STIM_011.jpg
844.238	0.53	correct	2back	Block2	2back/STIM_011.jpg
847.318	1.084	incorrect	2back	Block2	2back/STIM_012.jpg
851.639	1.01	correct	2back	Block2	2back/STIM_012.jpg
855.974	0.633	correct	2back	Block2	2back/STIM_012.jpg
860.438	0.796	correct	2back	Block2	2back/STIM_013.jpg
864.145	1.17	correct	2back	Block2	2back/STIM_013.jpg
868.141	0.606	incorrect	2back	Block2	2back/STIM_013.jpg
871.047	1.256	correct	2back	Block2	2back/STIM_014.jpg
874.468	0.914	correct	2back	Block2	2back/STIM_014.jpg
877.876	0.727	correct	2back	Block2	2back/STIM_014.jpg
881.599	1.065	correct	2back	Block2	2back/STIM_015.jpg
885.57	0.724	correct	2back	Block2	2back/STIM_015.jpg
889.243	0.612	correct	2back	Block2	2back/STIM_015.jpg
892.764	0.762	correct	2back	Block2	2back/STIM_016.jpg
896.308	0.742	correct	2back	Block2	2back/STIM_016.jpg
900.631	0.716	correct	2back	Block2	2back/STIM_016.jpg
904.466	0.803	correct	2back	Block2	2back/STIM_017.jpg
907.645	1.262	correct	2back	Block2	2back/STIM_017.jpg
911.805	0.62	correct	2back	Block2	2back/STIM_017.jpg
915.738	1.04	correct	2back	Block2	2back/STIM_018.jpg
919.07	1.171	incorrect	2back	Block2	2back/STIM_018.jpg
922.427	1.064	correct	2back	Block2	2back/STIM_018.jpg
926.486	1.046	correct	2back	Block2	2back/STIM_019.jpg
930.262	1.022	correct	2back	Block2	2back/STIM_019.jpg
933.799	0.744	correct	2back	Block2	2back/STIM_019.jpg
937.728	0.935	correct	2back	Block2	2back/STIM_020.jpg
941.151	1.243	correct	2back	Block2	2back/STIM_020.jpg
945.585	1.043	correct	2back	Block2	2back/STIM_020.jpg
950.291	1.159	correct	2back	Block2	2back/STIM_021.jpg
954.272	0.621	correct	2back	Block2	2back/STIM_021.jpg
957.147	0.909	correct	2back	Block2	2back/STIM_021.jpg
961.449	0.76	correct	2back	Block2	2back/STIM_022.jpg
965.667	0.915	correct	2back	Block2	2back/STIM_022.jpg
969.871	1.143	correct	2back	Block2	2back/STIM_022.jpg
973.594	0.74	correct	2back	Block2	2back/STIM_023.jpg
978.14	1.03	incorrect	2back	Block2	2back/STIM_023.jpg
981.783	1.016	correct	2back	Block2	2back/STIM_023.jpg
986.786	1.155	correct	2back	Block2	2back/STIM_024.jpg
990.322	1.048	correct	2back	Block2	2back/STIM_024.jpg
994.425	0.88	correct	2back	Block2	2back/STIM_024.jpg
999.024	1.031	correct	2back	Block2	2back/STIM_025.jpg
1003.969	0.607	correct	2back	Block2	2back/STIM_025.jpg
1007.333	1.096	correct	2back	Block2	2back/STIM_025.jpg
1011.899	0.588	correct	2back	Block2	2back/STIM_026.jpg
1015.932	1.142	correct	2back	Block2	2back/STIM_026.jpg
1019.241	0.973	correct	2back	Block2	2back/STIM_026.jpg
1023.3	0.918	correct	2back	Block2	2back/STIM_027.jpg
1028.146	1.006	correct	2back	Block2	2back/STIM_027.jpg
1032.919	0.734	correct	2back	Block2	2back/STIM_027.jpg
1036.193	0.916	correct	2back	Block2	2back/STIM_028.jpg
1040.744	1.082	correct	2back	Block2	2back/STIM_028.jpg
1044.405	0.59	correct	2back	Block2	2back/STIM_028.jpg
1048.61	0.586	incorrect	2back	Block2	2back/STIM_029.jpg
1051.453	0.588	correct	2back	Block2	2back/STIM_029.jpg
1055.089	0.989	correct	2back	Block2	2back/STIM_029.jpg
1058.352	0.643	correct	2back	Block2	2back/STIM_030.jpg
1061.789	1.015	correct	2back	Block2	2back/STIM_030.jpg
1065.541	0.986	correct	2back	Block2	2back/STIM_030.jpg
1070.334	1.197	correct	2back	Block2	2back/STIM_031.jpg
1075.382	0.982	correct	2back	Block2	2back/STIM_031.jpg
1078.866	1.156	correct	2back	Block2	2back/STIM_031.jpg
1082.209	0.966	correct	2back	Block2	2back/STIM_032.jpg
1086.125	1.084	incorrect	2back	Block2	2back/STIM_032.jpg
1090.33	1.159	correct	2back	Block2	2back/STIM_032.jpg
1094.284	1.263	correct	2back	Block2	2back/STIM_033.jpg
1098.943	0.905	correct	2back	Block2	2back/STIM_033.jpg
1102.826	0.601	correct	2back	Block2	2back/STIM_033.jpg
1105.431	1.049	correct	2back	Block2	2back/STIM_034.jpg
1109.554	0.813	incorrect	2back	Block2	2back/STIM_034.jpg
1113.806	0.986	correct	2back	Block2	2back/STIM_034.jpg
1116.871	1.21	correct	2back	Block2	2back/STIM_035.jpg
1120.534	1.177	correct	2back	Block2	2back/STIM_035.jpg
1125.598	1.034	correct	2back	Block2	2back/STIM_035.jpg
1130.044	0.735	correct	2back	Block2	2back/STIM_036.jpg
1133.139	1.139	correct	2back	Block2	2back/STIM_036.jpg
1136.355	0.556	correct	2back	Block2	2back/STIM_036.jpg
1140.694	0.975	correct	2back	Block2	2back/STIM_037.jpg
1145.013	0.689	correct	2back	Block2	2back/STIM_037.jpg
1149.293	0.823	correct	2back	Block2	2back/STIM_037.jpg
1153.94	0.946	correct	2back	Block2	2back/STIM_038.jpg
1158.405	0.994	correct	2back	Block2	2back/STIM_038.jpg
1162.638	1.12	correct	2back	Block2	2back/STIM_038.jpg
1167.743	0.596	correct	2back	Block2	2back/STIM_039.jpg
1171.069	0.795	correct	2back	Block2	2back/STIM_039.jpg
1174.452	1.059	incorrect	2back	Block2	2back/STIM_039.jpg
1179.22	0.79	correct	0back	Block2	0back/STIM_000.jpg
1182.505	0.743	correct	0back	Block2	0back/STIM_000.jpg
1185.503	0.765	correct	0back	Block2	0back/STIM_000.jpg
1189.884	0.466	correct	0back	Block2	0back/STIM_001.jpg
1193.216	0.581	correct	0back	Block2	0back/STIM_001.jpg
1196.897	0.465	correct	0back	Block2	0back/STIM_001.jpg
1200.595	0.66	correct	0back	Block2	0back/STIM_002.jpg
1205.047	0.514	correct	0back	Block2	0back/STIM_002.jpg
1208.403	0.792	incorrect	0back	Block2	0back/STIM_002.jpg
1212.988	0.635	correct	0back	Block2	0back/STIM_003.jpg
1215.838	0.749	correct	0back	Block2	0back/STIM_003.jpg
1219.272	0.691	correct	0back	Block2	0back/STIM_003.jpg
1223.769	0.543	correct	0back	Block2	0back/STIM_004.jpg
1227.547	0.576	correct	0back	Block2	0back/STIM_004.jpg
1232.009	0.672	correct	0back	Block2	0back/STIM_004.jpg
1235.6	0.749	correct	0back	Block2	0back/STIM_005.jpg
1239.738	0.737	correct	0back	Block2	0back/STIM_005.jpg
1242.842	0.575	correct	0back	Block2	0back/STIM_005.jpg
1246.719	0.519	correct	0back	Block2	0back/STIM_006.jpg
1250.218	0.7	correct	0back	Block2	0back/STIM_006.jpg
1254.145	0.577	correct	0back	Block2	0back/STIM_006.jpg
1258.158	0.64	correct	0back	Block2	0back/STIM_007.jpg
1261.618	0.797	correct	0back	Block2	0back/STIM_007.jpg
1265.012	0.688	correct	0back	Block2	0back/STIM_007.jpg
1269.394	0.886	correct	0back	Block2	0back/STIM_008.jpg
1272.362	0.691	correct	0back	Block2	0back/STIM_008.jpg
1275.316	0.787	correct	0back	Block2	0back/STIM_008.jpg
1279.933	0.868	correct	0back	Block2	0back/STIM_009.jpg
1283.982	0.7	correct	0back	Block2	0back/STIM_009.jpg
1288.216	0.863	correct	0back	Block2	0back/STIM_009.jpg
1293.031	0.523	correct	0back	Block2	0back/STIM_010.jpg
1296.989	0.706	correct	0back	Block2	0back/STIM_010.jpg
1300.551	0.578	correct	0back	Block2	0back/STIM_010.jpg
1303.498	0.726	correct	0back	Block2	0back/STIM_011.jpg
1306.778	0.644	correct	0back	Block2	0back/STIM_011.jpg
1309.978	0.682	correct	0back	Block2	0back/STIM_011.jpg
1314.226	0.772	correct	0back	Block2	0back/STIM_012.jpg
1318.15	0.61	correct	0back	Block2	0back/STIM_012.jpg
1321.713	0.502	correct	0back	Block2	0back/STIM_012.jpg
1325.268	0.725	correct	0back	Block2	0back/STIM_013.jpg
1329.493	0.629	correct	0back	Block2	0back/STIM_013.jpg
1332.352	0.592	correct	0back	Block2	0back/STIM_013.jpg
1336.642	0.854	correct	0back	Block2	0back/STIM_014.jpg
1339.644	0.884	correct	0back	Block2	0back/STIM_014.jpg
1342.877	0.52	correct	0back	Block2	0back/STIM_014.jpg
1347.269	0.547	correct	0back	Block2	0back/STIM_015.jpg
1350.183	0.588	correct	0back	Block2	0back/STIM_015.jpg
1353.839	0.865	correct	0back	Block2	0back/STIM_015.jpg
1357.475	0.765	correct	0back	Block2	0back/STIM_016.jpg
1361.785	0.474	correct	0back	Block2	0back/STIM_016.jpg
1364.837	0.66	correct	0back	Block2	0back/STIM_016.jpg
1369.265	0.835	correct	0back	Block2	0back/STIM_017.jpg
1372.812	0.594	correct	0back	Block2	0back/STIM_017.jpg
1376.636	0.797	correct	0back	Block2	0back/STIM_017.jpg
1380.064	0.585	correct	0back	Block2	0back/STIM_018.jpg
1383.49	0.842	correct	0back	Block2	0back/STIM_018.jpg
1387.65	0.536	correct	0back	Block2	0back/STIM_018.jpg
1390.488	0.871	correct	0back	Block2	0back/STIM_019.jpg
1394.149	0.516	correct	0back	Block2	0back/STIM_019.jpg
1397.002	0.469	correct	0back	Block2	0back/STIM_019.jpg
1399.752	0.504	correct	2back	Block3	2back/STIM_000.jpg
1403.278	0.756	correct	2back	Block3	2back/STIM_000.jpg
1406.309	0.5	correct	2back	Block3	2back/STIM_000.jpg
1410.766	0.616	correct	2back	Block3	2back/STIM_001.jpg
1413.67	1.081	correct	2back	Block3	2back/STIM_001.jpg
1418.418	1.059	correct	2back	Block3	2back/STIM_001.jpg
1423.008	0.973	correct	2back	Block3	2back/STIM_002.jpg
1427.573	0.8	correct	2back	Block3	2back/STIM_002.jpg
1431.76	0.968	correct	2back	Block3	2back/STIM_002.jpg
1434.87	0.489	correct	2back	Block3	2back/STIM_003.jpg
1438.564	0.857	correct	2back	Block3	2back/STIM_003.jpg
1442.322	0.567	correct	2back	Block3	2back/STIM_003.jpg
1446.196	0.98	correct	2back	Block3	2back/STIM_004.jpg
1450.607	0.688	correct	2back	Block3	2back/STIM_004.jpg
1453.883	0.772	correct	2back	Block3	2back/STIM_004.jpg
1458.598	0.487	correct	2back	Block3	2back/STIM_005.jpg
1461.691	0.85	correct	2back	Block3	2back/STIM_005.jpg
1464.771	0.69	correct	2back	Block3	2back/STIM_005.jpg
1467.926	0.675	correct	2back	Block3	2back/STIM_006.jpg
1471.239	0.578	correct	2back	Block3	2back/STIM_006.jpg
1474.857	0.843	correct	2back	Block3	2back/STIM_006.jpg
1479.444	1.078	incorrect	2back	Block3	2back/STIM_007.jpg
1483.21	0.861	correct	2back	Block3	2back/STIM_007.jpg
1487.772	0.825	correct	2back	Block3	2back/STIM_007.jpg
1491.966	0.823	correct	2back	Block3	2back/STIM_008.jpg
1495.871	0.583	correct	2back	Block3	2back/STIM_008.jpg
1499.059	0.497	correct	2back	Block3	2back/STIM_008.jpg
1502.827	1.108	correct	2back	Block3	2back/STIM_009.jpg
1506.424	0.599	correct	2back	Block3	2back/STIM_009.jpg
1510.23	0.927	correct	2back	Block3	2back/STIM_009.jpg
1514.817	1.026	correct	2back	Block3	2back/STIM_010.jpg
1519.318	0.795	correct	2back	Block3	2back/STIM_010.jpg
1523.959	0.788	correct	2back	Block3	2back/STIM_010.jpg
1527.001	0.917	correct	2back	Block3	2back/STIM_011.jpg
1530.078	0.846	correct	2back	Block3	2back/STIM_011.jpg
1533.967	0.914	correct	2back	Block3	2back/STIM_011.jpg
1537.947	0.774	correct	2back	Block3	2back/STIM_012.jpg
1541.383	0.809	correct	2back	Block3	2back/STIM_012.jpg
1545.691	0.641	correct	2back	Block3	2back/STIM_012.jpg
1548.927	0.637	correct	2back	Block3	2back/STIM_013.jpg
1551.91	0.516	incorrect	2back	Block3	2back/STIM_013.jpg
1555.713	0.977	correct	2back	Block3	2back/STIM_013.jpg
1559.343	1.034	correct	2back	Block3	2back/STIM_014.jpg
1562.716	0.88	correct	2back	Block3	2back/STIM_014.jpg
1566.216	0.912	correct	2back	Block3	2back/STIM_014.jpg
1570.236	0.549	correct	2back	Block3	2back/STIM_015.jpg
1574.458	0.695	correct	2back	Block3	2back/STIM_015.jpg
1578.99	1.106	correct	2back	Block3	2back/STIM_015.jpg
1583.625	0.552	correct	2back	Block3	2back/STIM_016.jpg
1588.089	0.559	correct	2back	Block3	2back/STIM_016.jpg
1591.454	0.89	incorrect	2back	Block3	2back/STIM_016.jpg
1595.791	1.091	correct	2back	Block3	2back/STIM_017.jpg
1600.524	0.853	correct	2back	Block3	2back/STIM_017.jpg
1603.97	0.78	correct	2back	Block3	2back/STIM_017.jpg
1608.25	1.108	correct	2back	Block3	2back/STIM_018.jpg
1611.363	0.804	correct	2back	Block3	2back/STIM_018.jpg
1615.24	1.106	correct	2back	Block3	2back/STIM_018.jpg
1620.336	1.027	incorrect	2back	Block3	2back/STIM_019.jpg
1624.636	0.717	correct	2back	Block3	2back/STIM_019.jpg
1628.286	0.994	correct	2back	Block3	2back/STIM_019.jpg
1632.185	0.627	correct	2back	Block3	2back/STIM_020.jpg
1635.314	0.501	correct	2back	Block3	2back/STIM_020.jpg
1638.859	0.512	correct	2back	Block3	2back/STIM_020.jpg
1642.701	0.48	correct	2back	Block3	2back/STIM_021.jpg
1646.165	0.936	correct	2back	Block3	2back/STIM_021.jpg
1650.822	1.016	correct	2back	Block3	2back/STIM_021.jpg
1654.789	0.995	incorrect	2back	Block3	2back/STIM_022.jpg
1659.712	0.73	correct	2back	Block3	2back/STIM_022.jpg
1663.476	0.89	correct	2back	Block3	2back/STIM_022.jpg
1668.28	0.602	correct	2back	Block3	2back/STIM_023.jpg
1671.353	0.588	correct	2back	Block3	2back/STIM_023.jpg
1675.705	0.775	correct	2back	Block3	2back/STIM_023.jpg
1680.19	0.588	incorrect	2back	Block3	2back/STIM_024.jpg
1683.983	0.59	correct	2back	Block3	2back/STIM_024.jpg
1687.882	1.082	correct	2back	Block3	2back/STIM_024.jpg
1692.827	0.946	correct	2back	Block3	2back/STIM_025.jpg
1696.408	0.495	correct	2back	Block3	2back/STIM_025.jpg
1700.252	1.069	correct	2back	Block3	2back/STIM_025.jpg
1703.809	0.702	correct	2back	Block3	2back/STIM_026.jpg
1706.786	0.968	correct	2back	Block3	2back/STIM_026.jpg
1711.599	0.89	correct	2back	Block3	2back/STIM_026.jpg
1716.099	0.588	correct	2back	Block3	2back/STIM_027.jpg
1719.686	0.564	correct	2back	Block3	2back/STIM_027.jpg
1723.997	0.698	correct	2back	Block3	2back/STIM_027.jpg
1727.272	0.896	correct	2back	Block3	2back/STIM_028.jpg
1730.196	0.902	correct	2back	Block3	2back/STIM_028.jpg
1733.61	0.97	correct	2back	Block3	2back/STIM_028.jpg
1736.989	0.481	correct	2back	Block3	2back/STIM_029.jpg
1740.502	0.748	correct	2back	Block3	2back/STIM_029.jpg
1744.462	0.767	correct	2back	Block3	2back/STIM_029.jpg
1747.621	0.491	correct	2back	Block3	2back/STIM_030.jpg
1750.889	0.864	correct	2back	Block3	2back/STIM_030.jpg
1754.337	0.852	correct	2back	Block3	2back/STIM_030.jpg
1757.369	0.89	correct	2back	Block3	2back/STIM_031.jpg
1760.739	0.75	correct	2back	Block3	2back/STIM_031.jpg
1764.001	0.919	correct	2back	Block3	2back/STIM_031.jpg
1768.642	0.66	correct	2back	Block3	2back/STIM_032.jpg
1771.86	0.781	correct	2back	Block3	2back/STIM_032.jpg
1775.732	0.643	correct	2back	Block3	2back/STIM_032.jpg
1779.934	0.569	correct	2back	Block3	2back/STIM_033.jpg
1782.98	0.898	correct	2back	Block3	2back/STIM_033.jpg
1786.144	0.902	correct	2back	Block3	2back/STIM_033.jpg
1789.867	0.533	correct	2back	Block3	2back/STIM_034.jpg
1794.214	0.842	correct	2back	Block3	2back/STIM_034.jpg
1798.405	0.494	correct	2back	Block3	2back/STIM_034.jpg
1801.237	0.54	correct	2back	Block3	2back/STIM_035.jpg
1805.385	0.775	correct	2back	Block3	2back/STIM_035.jpg
1808.568	0.994	correct	2back	Block3	2back/STIM_035.jpg
1811.598	1.004	correct	2back	Block3	2back/STIM_036.jpg
1815.537	0.84	correct	2back	Block3	2back/STIM_036.jpg
1818.688	1.016	correct	2back	Block3	2back/STIM_036.jpg
1823.435	1.107	correct	2back	Block3	2back/STIM_037.jpg
1827.946	0.5	correct	2back	Block3	2back/STIM_037.jpg
1832.201	0.909	correct	2back	Block3	2back/STIM_037.jpg
1835.64	0.636	correct	2back	Block3	2back/STIM_038.jpg
1838.668	0.809	correct	2back	Block3	2back/STIM_038.jpg
1842.198	1.007	correct	2back	Block3	2back/STIM_038.jpg
1847.132	0.615	correct	2back	Block3	2back/STIM_039.jpg
1851.343	0.86	correct	2back	Block3	2back/STIM_039.jpg
1855.582	0.688	correct	2back	Block3	2back/STIM_039.jpg
1859.862	0.487	correct	0back	Block3	0back/STIM_000.jpg
1862.636	0.793	correct	0back	Block3	0back/STIM_000.jpg
1865.656	0.764	correct	0back	Block3	0back/STIM_000.jpg
1869.807	0.568	correct	0back	Block3	0back/STIM_001.jpg
1873.527	0.782	correct	0back	Block3	0back/STIM_001.jpg
1877.284	0.584	correct	0back	Block3	0back/STIM_001.jpg
1881.855	0.746	incorrect	0back	Block3	0back/STIM_002.jpg
1886.288	0.903	correct	0back	Block3	0back/STIM_002.jpg
1890.884	0.793	correct	0back	Block3	0back/STIM_002.jpg
1895.428	0.758	incorrect	0back	Block3	0back/STIM_003.jpg
1900.038	0.804	correct	0back	Block3	0back/STIM_003.jpg
1903.856	0.653	correct	0back	Block3	0back/STIM_003.jpg
1908.21	0.67	correct	0back	Block3	0back/STIM_004.jpg
1911.382	0.883	correct	0back	Block3	0back/STIM_004.jpg
1915.876	0.904	correct	0back	Block3	0back/STIM_004.jpg
1920.532	0.466	correct	0back	Block3	0back/STIM_005.jpg
1924.005	0.788	correct	0back	Block3	0back/STIM_005.jpg
1928.014	0.469	correct	0back	Block3	0back/STIM_005.jpg
1931.602	0.657	correct	0back	Block3	0back/STIM_006.jpg
1935.976	0.549	incorrect	0back	Block3	0back/STIM_006.jpg
1940.018	0.733	correct	0back	Block3	0back/STIM_006.jpg
1942.967	0.662	correct	0back	Block3	0back/STIM_007.jpg
1946.84	0.506	correct	0back	Block3	0back/STIM_007.jpg
1951.143	0.49	correct	0back	Block3	0back/STIM_007.jpg
1955.618	0.587	correct	0back	Block3	0back/STIM_008.jpg
1958.507	0.501	correct	0back	Block3	0back/STIM_008.jpg
1961.614	0.588	incorrect	0back	Block3	0back/STIM_008.jpg
1964.205	0.705	correct	0back	Block3	0back/STIM_009.jpg
1968.245	0.813	correct	0back	Block3	0back/STIM_009.jpg
1971.522	0.556	correct	0back	Block3	0back/STIM_009.jpg
1975.194	0.475	correct	0back	Block3	0back/STIM_010.jpg
1978.179	0.739	correct	0back	Block3	0back/STIM_010.jpg
1981.941	0.681	correct	0back	Block3	0back/STIM_010.jpg
1985.977	0.892	correct	0back	Block3	0back/STIM_011.jpg
1989.213	0.64	correct	0back	Block3	0back/STIM_011.jpg
1992.14	0.859	correct	0back	Block3	0back/STIM_011.jpg
1995.674	0.541	correct	0back	Block3	0back/STIM_012.jpg
1998.959	0.9	correct	0back	Block3	0back/STIM_012.jpg
2002.557	0.525	correct	0back	Block3	0back/STIM_012.jpg
2005.957	0.705	correct	0back	Block3	0back/STIM_013.jpg
2009.509	0.509	correct	0back	Block3	0back/STIM_013.jpg
2012.842	0.502	correct	0back	Block3	0back/STIM_013.jpg
2015.894	0.896	correct	0back	Block3	0back/STIM_014.jpg
2020.245	0.674	correct	0back	Block3	0back/STIM_014.jpg
2023.33	0.698	correct	0back	Block3	0back/STIM_014.jpg
2026.344	0.48	correct	0back	Block3	0back/STIM_015.jpg
2029.295	0.868	incorrect	0back	Block3	0back/STIM_015.jpg
2032.202	0.659	correct	0back	Block3	0back/STIM_015.jpg
2036.447	0.902	correct	0back	Block3	0back/STIM_016.jpg
2040.506	0.454	correct	0back	Block3	0back/STIM_016.jpg
2043.34	0.673	correct	0back	Block3	0back/STIM_016.jpg
2046.842	0.746	correct	0back	Block3	0back/STIM_017.jpg
2051.503	0.666	correct	0back	Block3	0back/STIM_017.jpg
2055.263	0.501	correct	0back	Block3	0back/STIM_017.jpg
2058.703	0.728	correct	0back	Block3	0back/STIM_018.jpg
2062.042	0.902	correct	0back	Block3	0back/STIM_018.jpg
2066.472	0.783	correct	0back	Block3	0back/STIM_018.jpg
2070.113	0.757	correct	0back	Block3	0back/STIM_019.jpg
2073.671	0.606	correct	0back	Block3	0back/STIM_019.jpg
2076.917	0.853	correct	0back	Block3	0back/STIM_019.jpg
2081.07	0.754	correct	2back	Block4	2back/STIM_000.jpg
2084.955	0.664	correct	2back	Block4	2back/STIM_000.jpg
2089.52	0.515	correct	2back	Block4	2back/STIM_000.jpg
2092.839	0.984	correct	2back	Block4	2back/STIM_001.jpg
2096.313	0.764	correct	2back	Block4	2back/STIM_001.jpg
2100.809	0.828	correct	2back	Block4	2back/STIM_001.jpg
2103.741	0.532	correct	2back	Block4	2back/STIM_002.jpg
2106.299	1.011	correct	2back	Block4	2back/STIM_002.jpg
2110.47	0.879	correct	2back	Block4	2back/STIM_002.jpg
2114.225	1.006	correct	2back	Block4	2back/STIM_003.jpg
2118.873	0.476	correct	2back	Block4	2back/STIM_003.jpg
2123.25	0.638	correct	2back	Block4	2back/STIM_003.jpg
2127.875	0.676	correct	2back	Block4	2back/STIM_004.jpg
2132.069	0.932	correct	2back	Block4	2back/STIM_004.jpg
2135.72	1.066	correct	2back	Block4	2back/STIM_004.jpg
2140.161	1.102	correct	2back	Block4	2back/STIM_005.jpg
2144.847	0.796	correct	2back	Block4	2back/STIM_005.jpg
2148.076	0.962	correct	2back	Block4	2back/STIM_005.jpg
2151.22	0.535	correct	2back	Block4	2back/STIM_006.jpg
2154.463	0.942	correct	2back	Block4	2back/STIM_006.jpg
2158.695	0.695	correct	2back	Block4	2back/STIM_006.jpg
2163.159	0.506	correct	2back	Block4	2back/STIM_007.jpg
2166.161	0.694	correct	2back	Block4	2back/STIM_007.jpg
2170.164	0.821	correct	2back	Block4	2back/STIM_007.jpg
2173.625	0.74	correct	2back	Block4	2back/STIM_008.jpg
2176.718	0.963	correct	2back	Block4	2back/STIM_008.jpg
2179.857	0.765	correct	2back	Block4	2back/STIM_008.jpg
2184.581	0.635	correct	2back	Block4	2back/STIM_009.jpg
2189.067	1.034	correct	2back	Block4	2back/STIM_009.jpg
2192.645	1.106	correct	2back	Block4	2back/STIM_009.jpg
2196.062	0.934	correct	2back	Block4	2back/STIM_010.jpg
2199.759	0.759	correct	2back	Block4	2back/STIM_010.jpg
2203.355	0.794	correct	2back	Block4	2back/STIM_010.jpg
2207.766	0.554	correct	2back	Block4	2back/STIM_011.jpg
2211.865	0.595	correct	2back	Block4	2back/STIM_011.jpg
2216.329	0.741	correct	2back	Block4	2back/STIM_011.jpg
2220.432	0.872	correct	2back	Block4	2back/STIM_012.jpg
2224.386	0.634	correct	2back	Block4	2back/STIM_012.jpg
2228.833	0.937	correct	2back	Block4	2back/STIM_012.jpg
2233.061	0.843	correct	2back	Block4	2back/STIM_013.jpg
2236.198	0.788	correct	2back	Block4	2back/STIM_013.jpg
2240.123	0.777	correct	2back	Block4	2back/STIM_013.jpg
2244.876	0.952	incorrect	2back	Block4	2back/STIM_014.jpg
2248.005	1.003	correct	2back	Block4	2back/STIM_014.jpg
2251.252	0.739	correct	2back	Block4	2back/STIM_014.jpg
2255.482	0.879	correct	2back	Block4	2back/STIM_015.jpg
2258.589	0.869	correct	2back	Block4	2back/STIM_015.jpg
2263.395	1.047	correct	2back	Block4	2back/STIM_015.jpg
2266.991	0.524	correct	2back	Block4	2back/STIM_016.jpg
2270.766	1.096	correct	2back	Block4	2back/STIM_016.jpg
2274.798	1.072	correct	2back	Block4	2back/STIM_016.jpg
2279.183	1.009	correct	2back	Block4	2back/STIM_017.jpg
2283.804	0.748	correct	2back	Block4	2back/STIM_017.jpg
2288.013	1.012	correct	2back	Block4	2back/STIM_017.jpg
2291.53	1.069	correct	2back	Block4	2back/STIM_018.jpg
2295.004	0.872	correct	2back	Block4	2back/STIM_018.jpg
2298.461	0.791	correct	2back	Block4	2back/STIM_018.jpg
2301.419	0.905	correct	2back	Block4	2back/STIM_019.jpg
2305.566	0.816	correct	2back	Block4	2back/STIM_019.jpg
2310.083	0.537	correct	2back	Block4	2back/STIM_019.jpg
2314.426	0.816	correct	2back	Block4	2back/STIM_020.jpg
2317.345	1.064	correct	2back	Block4	2back/STIM_020.jpg
2321.339	0.693	correct	2back	Block4	2back/STIM_020.jpg
2326.022	0.612	correct	2back	Block4	2back/STIM_021.jpg
2329.177	0.498	correct	2back	Block4	2back/STIM_021.jpg
2332.341	0.576	correct	2back	Block4	2back/STIM_021.jpg
2335.485	0.702	correct	2back	Block4	2back/STIM_022.jpg
2339.673	0.786	correct	2back	Block4	2back/STIM_022.jpg
2343.963	0.925	correct	2back	Block4	2back/STIM_022.jpg
2348.67	0.505	correct	2back	Block4	2back/STIM_023.jpg
2351.851	0.925	correct	2back	Block4	2back/STIM_023.jpg
2355.258	0.929	correct	2back	Block4	2back/STIM_023.jpg
2358.226	1.005	correct	2back	Block4	2back/STIM_024.jpg
2362.099	0.854	correct	2back	Block4	2back/STIM_024.jpg
2364.99	0.79	correct	2back	Block4	2back/STIM_024.jpg
2369.257	0.894	correct	2back	Block4	2back/STIM_025.jpg
2372.346	0.719	correct	2back	Block4	2back/STIM_025.jpg
2376.375	0.574	correct	2back	Block4	2back/STIM_025.jpg
2380.819	0.735	correct	2back	Block4	2back/STIM_026.jpg
2385.112	0.634	correct	2back	Block4	2back/STIM_026.jpg
2389.058	0.948	correct	2back	Block4	2back/STIM_026.jpg
2392.018	0.969	incorrect	2back	Block4	2back/STIM_027.jpg
2396.107	1.109	correct	2back	Block4	2back/STIM_027.jpg
2400.247	1.018	correct	2back	Block4	2back/STIM_027.jpg
2403.371	1.002	correct	2back	Block4	2back/STIM_028.jpg
2407.212	0.497	correct	2back	Block4	2back/STIM_028.jpg
2411.163	0.964	correct	2back	Block4	2back/STIM_028.jpg
2414.43	0.644	correct	2back	Block4	2back/STIM_029.jpg
2419.05	0.889	correct	2back	Block4	2back/STIM_029.jpg
2423.023	0.721	correct	2back	Block4	2back/STIM_029.jpg
2425.778	0.644	correct	2back	Block4	2back/STIM_030.jpg
2428.967	0.6	correct	2back	Block4	2back/STIM_030.jpg
2433.239	0.94	correct	2back	Block4	2back/STIM_030.jpg
2437.798	0.673	correct	2back	Block4	2back/STIM_031.jpg
2441.291	0.716	correct	2back	Block4	2back/STIM_031.jpg
2444.513	1.085	correct	2back	Block4	2back/STIM_031.jpg
2448.244	0.872	correct	2back	Block4	2back/STIM_032.jpg
2452.593	0.785	correct	2back	Block4	2back/STIM_032.jpg
2455.511	0.534	correct	2back	Block4	2back/STIM_032.jpg
2458.827	0.717	correct	2back	Block4	2back/STIM_033.jpg
2463.256	1.08	correct	2back	Block4	2back/STIM_033.jpg
2467.124	0.489	correct	2back	Block4	2back/STIM_033.jpg
2470.882	0.751	correct	2back	Block4	2back/STIM_034.jpg
2474.936	0.696	correct	2back	Block4	2back/STIM_034.jpg
2478.045	0.688	correct	2back	Block4	2back/STIM_034.jpg
2481.13	0.576	correct	2back	Block4	2back/STIM_035.jpg
2484.41	0.589	incorrect	2back	Block4	2back/STIM_035.jpg
2488.665	1.019	correct	2back	Block4	2back/STIM_035.jpg
2493.576	0.665	correct	2back	Block4	2back/STIM_036.jpg
2496.875	1.108	correct	2back	Block4	2back/STIM_036.jpg
2501.205	0.609	correct	2back	Block4	2back/STIM_036.jpg
2505.496	1.085	correct	2back	Block4	2back/STIM_037.jpg
2509.948	0.781	correct	2back	Block4	2back/STIM_037.jpg
2514.144	0.938	correct	2back	Block4	2back/STIM_037.jpg
2517.33	0.97	correct	2back	Block4	2back/STIM_038.jpg
2520.642	0.877	correct	2back	Block4	2back/STIM_038.jpg
2525.345	0.816	correct	2back	Block4	2back/STIM_038.jpg
2528.949	0.48	correct	2back	Block4	2back/STIM_039.jpg
2532.551	0.604	correct	2back	Block4	2back/STIM_039.jpg
2537.087	0.998	correct	2back	Block4	2back/STIM_039.jpg
2540.998	0.774	correct	0back	Block4	0back/STIM_000.jpg
2544.703	0.847	correct	0back	Block4	0back/STIM_000.jpg
2548.34	0.585	correct	0back	Block4	0back/STIM_000.jpg
2551.315	0.778	correct	0back	Block4	0back/STIM_001.jpg
2554.769	0.878	correct	0back	Block4	0back/STIM_001.jpg
2559.407	0.828	correct	0back	Block4	0back/STIM_001.jpg
2562.616	0.492	correct	0back	Block4	0back/STIM_002.jpg
2566.37	0.872	correct	0back	Block4	0back/STIM_002.jpg
2570.473	0.776	incorrect	0back	Block4	0back/STIM_002.jpg
2573.466	0.663	correct	0back	Block4	0back/STIM_003.jpg
2577.308	0.626	correct	0back	Block4	0back/STIM_003.jpg
2581.217	0.506	correct	0back	Block4	0back/STIM_003.jpg
2585.441	0.774	correct	0back	Block4	0back/STIM_004.jpg
2589.765	0.794	correct	0back	Block4	0back/STIM_004.jpg
2594.004	0.486	correct	0back	Block4	0back/STIM_004.jpg
2597.739	0.823	correct	0back	Block4	0back/STIM_005.jpg
2601.105	0.716	correct	0back	Block4	0back/STIM_005.jpg
2605.549	0.685	correct	0back	Block4	0back/STIM_005.jpg
2608.297	0.669	correct	0back	Block4	0back/STIM_006.jpg
2612.588	0.519	correct	0back	Block4	0back/STIM_006.jpg
2616.259	0.9	correct	0back	Block4	0back/STIM_006.jpg
2619.957	0.467	correct	0back	Block4	0back/STIM_007.jpg
2623.07	0.515	correct	0back	Block4	0back/STIM_007.jpg
2626.901	0.876	correct	0back	Block4	0back/STIM_007.jpg
2629.969	0.459	correct	0back	Block4	0back/STIM_008.jpg
2632.46	0.793	correct	0back	Block4	0back/STIM_008.jpg
2636.705	0.661	correct	0back	Block4	0back/STIM_008.jpg
2640.386	0.856	correct	0back	Block4	0back/STIM_009.jpg
2644.179	0.596	correct	0back	Block4	0back/STIM_009.jpg
2647.61	0.499	correct	0back	Block4	0back/STIM_009.jpg
2652.097	0.538	correct	0back	Block4	0back/STIM_010.jpg
2655.139	0.526	correct	0back	Block4	0back/STIM_010.jpg
2659.573	0.613	correct	0back	Block4	0back/STIM_010.jpg
2662.889	0.643	correct	0back	Block4	0back/STIM_011.jpg
2666.057	0.621	correct	0back	Block4	0back/STIM_011.jpg
2669.844	0.791	correct	0back	Block4	0back/STIM_011.jpg
2673.9	0.71	correct	0back	Block4	0back/STIM_012.jpg
2678.505	0.783	correct	0back	Block4	0back/STIM_012.jpg
2682.702	0.593	correct	0back	Block4	0back/STIM_012.jpg
2685.476	0.712	incorrect	0back	Block4	0back/STIM_013.jpg
2689.171	0.781	correct	0back	Block4	0back/STIM_013.jpg
2692.638	0.697	correct	0back	Block4	0back/STIM_013.jpg
2695.373	0.516	correct	0back	Block4	0back/STIM_014.jpg
2699.833	0.636	correct	0back	Block4	0back/STIM_014.jpg
2702.752	0.652	incorrect	0back	Block4	0back/STIM_014.jpg
2705.793	0.459	correct	0back	Block4	0back/STIM_015.jpg
2709.079	0.762	correct	0back	Block4	0back/STIM_015.jpg
2713.559	0.816	correct	0back	Block4	0back/STIM_015.jpg
2717.429	0.865	incorrect	0back	Block4	0back/STIM_016.jpg
2720.499	0.569	incorrect	0back	Block4	0back/STIM_016.jpg
2724.636	0.737	incorrect	0back	Block4	0back/STIM_016.jpg
2728.941	0.853	correct	0back	Block4	0back/STIM_017.jpg
2733.233	0.697	correct	0back	Block4	0back/STIM_017.jpg
2737.885	0.831	correct	0back	Block4	0back/STIM_017.jpg
2741.425	0.855	correct	0back	Block4	0back/STIM_018.jpg
2744.502	0.826	incorrect	0back	Block4	0back/STIM_018.jpg
2748.527	0.617	correct	0back	Block4	0back/STIM_018.jpg
2752.842	0.592	correct	0back	Block4	0back/STIM_019.jpg
2755.96	0.746	correct	0back	Block4	0back/STIM_019.jpg
2760.417	0.705	correct	0back	Block4	0back/STIM_019.jpg
