onset	duration	accuracy	trial_type	learning_stage	stimulus
0.0	1.174	correct	2back	Block1	2back/STIM_000.jpg
5.022	0.874	correct	2back	Block1	2back/STIM_000.jpg
8.552	0.663	correct	2back	Block1	2back/STIM_000.jpg
12.55	1.287	correct	2back	Block1	2back/STIM_001.jpg
16.703	0.596	correct	2back	Block1	2back/STIM_001.jpg
21.312	0.609	correct	2back	Block1	2back/STIM_001.jpg
24.632	0.694	correct	2back	Block1	2back/STIM_002.jpg
27.818	1.134	incorrect	2back	Block1	2back/STIM_002.jpg
32.531	0.758	correct	2back	Block1	2back/STIM_002.jpg
35.657	1.092	correct	2back	Block1	2back/STIM_003.jpg
39.353	1.153	correct	2back	Block1	2back/STIM_003.jpg
43.694	0.858	correct	2back	Block1	2back/STIM_003.jpg
46.801	0.934	incorrect	2back	Block1	2back/STIM_004.jpg
51.382	1.152	correct	2back	Block1	2back/STIM_004.jpg
56.553	0.741	correct	2back	Block1	2back/STIM_004.jpg
59.878	1.121	correct	2back	Block1	2back/STIM_005.jpg
64.163	0.87	incorrect	2back	Block1	2back/STIM_005.jpg
67.188	0.705	correct	2back	Block1	2back/STIM_005.jpg
71.075	0.858	correct	2back	Block1	2back/STIM_006.jpg
74.577	1.152	correct	2back	Block1	2back/STIM_006.jpg
78.435	0.653	correct	2back	Block1	2back/STIM_006.jpg
82.544	0.633	incorrect	2back	Block1	2back/STIM_007.jpg
86.867	0.812	correct	2back	Block1	2back/STIM_007.jpg
90.808	0.678	correct	2back	Block1	2back/STIM_007.jpg
95.069	1.278	correct	2back	Block1	2back/STIM_008.jpg
98.465	0.864	correct	2back	Block1	2back/STIM_008.jpg
102.774	0.513	correct	2back	Block1	2back/STIM_008.jpg
106.402	0.982	correct	2back	Block1	2back/STIM_009.jpg
110.017	0.591	correct	2back	Block1	2back/STIM_009.jpg
113.288	0.939	correct	2back	Block1	2back/STIM_009.jpg
117.621	0.604	correct	2back	Block1	2back/STIM_010.jpg
121.997	0.553	correct	2back	Block1	2back/STIM_010.jpg
126.143	0.777	correct	2back	Block1	2back/STIM_010.jpg
130.377	0.611	correct	2back	Block1	2back/STIM_011.jpg
135.011	0.952	correct	2back	Block1	2back/STIM_011.jpg
138.437	0.517	correct	2back	Block1	2back/STIM_011.jpg
142.258	0.671	correct	2back	Block1	2back/STIM_012.jpg
145.443	1.065	correct	2back	Block1	2back/STIM_012.jpg
149.285	1.173	correct	2back	Block1	2back/STIM_012.jpg
153.096	0.692	incorrect	2back	Block1	2back/STIM_013.jpg
156.325	0.606	incorrect	2back	Block1	2back/STIM_013.jpg
160.001	0.675	correct	2back	Block1	2back/STIM_013.jpg
162.733	0.661	correct	2back	Block1	2back/STIM_014.jpg
165.995	0.84	correct	2back	Block1	2back/STIM_014.jpg
170.034	0.777	correct	2back	Block1	2back/STIM_014.jpg
173.394	0.671	correct	2back	Block1	2back/STIM_015.jpg
177.228	0.816	correct	2back	Block1	2back/STIM_015.jpg
181.367	1.025	incorrect	2back	Block1	2back/STIM_015.jpg
185.658	0.986	correct	2back	Block1	2back/STIM_016.jpg
190.399	0.995	correct	2back	Block1	2back/STIM_016.jpg
194.282	0.519	correct	2back	Block1	2back/STIM_016.jpg
197.87	0.98	correct	2back	Block1	2back/STIM_017.jpg
202.22	0.696	correct	2back	Block1	2back/STIM_017.jpg
205.857	0.972	correct	2back	Block1	2back/STIM_017.jpg
209.542	0.77	correct	2back	Block1	2back/STIM_018.jpg
212.639	0.622	correct	2back	Block1	2back/STIM_018.jpg
217.256	1.095	incorrect	2back	Block1	2back/STIM_018.jpg
221.103	1.02	correct	2back	Block1	2back/STIM_019.jpg
224.882	1.19	correct	2back	Block1	2back/STIM_019.jpg
228.449	1.147	correct	2back	Block1	2back/STIM_019.jpg
233.124	0.968	incorrect	2back	Block1	2back/STIM_020.jpg
236.828	1.092	correct	2back	Block1	2back/STIM_020.jpg
240.703	1.136	incorrect	2back	Block1	2back/STIM_020.jpg
244.718	0.72	correct	2back	Block1	2back/STIM_021.jpg
248.697	0.779	correct	2back	Block1	2back/STIM_021.jpg
252.582	0.745	correct	2back	Block1	2back/STIM_021.jpg
255.752	1.256	correct	2back	Block1	2back/STIM_022.jpg
260.364	1.076	incorrect	2back	Block1	2back/STIM_022.jpg
265.027	0.963	correct	2back	Block1	2back/STIM_022.jpg
269.173	0.628	correct	2back	Block1	2back/STIM_023.jpg
273.431	1.153	correct	2back	Block1	2back/STIM_023.jpg
276.862	0.968	correct	2back	Block1	2back/STIM_023.jpg
280.625	0.676	correct	2back	Block1	2back/STIM_024.jpg
284.648	0.851	incorrect	2back	Block1	2back/STIM_024.jpg
288.755	0.607	correct	2back	Block1	2back/STIM_024.jpg
292.649	0.714	incorrect	2back	Block1	2back/STIM_025.jpg
296.657	0.573	correct	2back	Block1	2back/STIM_025.jpg
299.433	0.759	correct	2back	Block1	2back/STIM_025.jpg
303.564	0.768	correct	2back	Block1	2back/STIM_026.jpg
307.962	1.097	correct	2back	Block1	2back/STIM_026.jpg
312.137	0.835	correct	2back	Block1	2back/STIM_026.jpg
316.37	0.734	correct	2back	Block1	2back/STIM_027.jpg
319.552	0.809	correct	2back	Block1	2back/STIM_027.jpg
322.481	1.028	correct	2back	Block1	2back/STIM_027.jpg
326.407	1.145	incorrect	2back	Block1	2back/STIM_028.jpg
330.639	0.629	correct	2back	Block1	2back/STIM_028.jpg
334.519	0.617	correct	2back	Block1	2back/STIM_028.jpg
337.372	0.66	correct	2back	Block1	2back/STIM_029.jpg
340.937	1.233	correct	2back	Block1	2back/STIM_029.jpg
345.691	0.876	correct	2back	Block1	2back/STIM_029.jpg
350.189	0.681	correct	2back	Block1	2back/STIM_030.jpg
353.111	1.002	correct	2back	Block1	2back/STIM_030.jpg
357.283	0.874	correct	2back	Block1	2back/STIM_030.jpg
360.298	0.711	correct	2back	Block1	2back/STIM_031.jpg
363.267	0.88	incorrect	2back	Block1	2back/STIM_031.jpg
366.933	0.801	incorrect	2back	Block1	2back/STIM_031.jpg
371.366	0.926	correct	2back	Block1	2back/STIM_032.jpg
375.073	0.787	incorrect	2back	Block1	2back/STIM_032.jpg
377.926	1.116	correct	2back	Block1	2back/STIM_032.jpg
382.414	0.822	correct	2back	Block1	2back/STIM_033.jpg
386.821	0.696	correct	2back	Block1	2back/STIM_033.jpg
391.352	1.064	correct	2back	Block1	2back/STIM_033.jpg
395.472	1.284	correct	2back	Block1	2back/STIM_034.jpg
400.11	0.682	correct	2back	Block1	2back/STIM_034.jpg
404.191	0.855	correct	2back	Block1	2back/STIM_034.jpg
407.865	1.296	correct	2back	Block1	2back/STIM_035.jpg
413.237	0.652	correct	2back	Block1	2back/STIM_035.jpg
416.643	0.587	correct	2back	Block1	2back/STIM_035.jpg
420.046	1.286	correct	2back	Block1	2back/STIM_036.jpg
423.729	0.537	correct	2back	Block1	2back/STIM_036.jpg
427.169	0.537	correct	2back	Block1	2back/STIM_036.jpg
431.512	0.89	correct	2back	Block1	2back/STIM_037.jpg
436.46	1.054	correct	2back	Block1	2back/STIM_037.jpg
439.819	0.904	correct	2back	Block1	2back/STIM_037.jpg
444.538	0.613	correct	2back	Block1	2back/STIM_038.jpg
448.895	1.118	incorrect	2back	Block1	2back/STIM_038.jpg
452.719	0.721	correct	2back	Block1	2back/STIM_038.jpg
456.69	0.58	correct	2back	Block1	2back/STIM_039.jpg
460.919	0.814	correct	2back	Block1	2back/STIM_039.jpg
465.046	0.594	correct	2back	Block1	2back/STIM_039.jpg
469.094	0.397	correct	0back	Block1	0back/STIM_000.jpg
473.169	0.606	correct	0back	Block1	0back/STIM_000.jpg
477.754	0.639	correct	0back	Block1	0back/STIM_000.jpg
480.925	0.635	correct	0back	Block1	0back/STIM_001.jpg
484.832	0.742	correct	0back	Block1	0back/STIM_001.jpg
487.629	0.441	correct	0back	Block1	0back/STIM_001.jpg
490.235	0.441	correct	0back	Block1	0back/STIM_002.jpg
494.054	0.626	correct	0back	Block1	0back/STIM_002.jpg
497.758	0.556	correct	0back	Block1	0back/STIM_002.jpg
502.167	0.616	incorrect	0back	Block1	0back/STIM_003.jpg
506.691	0.446	correct	0back	Block1	0back/STIM_003.jpg
509.741	0.615	correct	0back	Block1	0back/STIM_003.jpg
513.358	0.539	correct	0back	Block1	0back/STIM_004.jpg
516.889	0.623	correct	0back	Block1	0back/STIM_004.jpg
520.979	0.675	incorrect	0back	Block1	0back/STIM_004.jpg
524.347	0.539	correct	0back	Block1	0back/STIM_005.jpg
528.017	0.729	correct	0back	Block1	0back/STIM_005.jpg
532.073	0.692	correct	0back	Block1	0back/STIM_005.jpg
534.856	0.737	correct	0back	Block1	0back/STIM_006.jpg
538.791	0.499	correct	0back	Block1	0back/STIM_006.jpg
542.888	0.551	correct	0back	Block1	0back/STIM_006.jpg
546.608	0.492	correct	0back	Block1	0back/STIM_007.jpg
550.763	0.666	correct	0back	Block1	0back/STIM_007.jpg
553.933	0.666	correct	0back	Block1	0back/STIM_007.jpg
558.563	0.694	correct	0back	Block1	0back/STIM_008.jpg
561.804	0.516	correct	0back	Block1	0back/STIM_008.jpg
564.593	0.418	correct	0back	Block1	0back/STIM_008.jpg
568.226	0.424	correct	0back	Block1	0back/STIM_009.jpg
571.857	0.575	correct	0back	Block1	0back/STIM_009.jpg
575.826	0.49	correct	0back	Block1	0back/STIM_009.jpg
579.563	0.57	correct	0back	Block1	0back/STIM_010.jpg
583.742	0.693	correct	0back	Block1	0back/STIM_010.jpg
586.84	0.567	correct	0back	Block1	0back/STIM_010.jpg
589.573	0.746	correct	0back	Block1	0back/STIM_011.jpg
592.959	0.395	correct	0back	Block1	0back/STIM_011.jpg
596.949	0.594	correct	0back	Block1	0back/STIM_011.jpg
600.146	0.508	correct	0back	Block1	0back/STIM_012.jpg
603.625	0.499	correct	0back	Block1	0back/STIM_012.jpg
607.857	0.382	correct	0back	Block1	0back/STIM_012.jpg
610.652	0.52	correct	0back	Block1	0back/STIM_013.jpg
614.944	0.436	correct	0back	Block1	0back/STIM_013.jpg
619.078	0.45	correct	0back	Block1	0back/STIM_013.jpg
621.932	0.452	correct	0back	Block1	0back/STIM_014.jpg
626.277	0.538	correct	0back	Block1	0back/STIM_014.jpg
629.496	0.471	correct	0back	Block1	0back/STIM_014.jpg
632.188	0.584	correct	0back	Block1	0back/STIM_015.jpg
636.076	0.43	correct	0back	Block1	0back/STIM_015.jpg
638.723	0.584	correct	0back	Block1	0back/STIM_015.jpg
642.679	0.7	correct	0back	Block1	0back/STIM_016.jpg
645.665	0.723	correct	0back	Block1	0back/STIM_016.jpg
649.646	0.669	correct	0back	Block1	0back/STIM_016.jpg
652.865	0.518	correct	0back	Block1	0back/STIM_017.jpg
656.406	0.605	correct	0back	Block1	0back/STIM_017.jpg
660.204	0.63	correct	0back	Block1	0back/STIM_017.jpg
663.457	0.603	correct	0back	Block1	0back/STIM_018.jpg
667.72	0.618	correct	0back	Block1	0back/STIM_018.jpg
672.226	0.452	correct	0back	Block1	0back/STIM_018.jpg
675.579	0.44	correct	0back	Block1	0back/STIM_019.jpg
679.409	0.612	correct	0back	Block1	0back/STIM_019.jpg
683.194	0.682	correct	0back	Block1	0back/STIM_019.jpg
687.151	1.057	correct	2back	Block2	2back/STIM_000.jpg
691.383	0.984	correct	2back	Block2	2back/STIM_000.jpg
695.406	0.634	correct	2back	Block2	2back/STIM_000.jpg
698.991	0.757	correct	2back	Block2	2back/STIM_001.jpg
702.182	0.594	correct	2back	Block2	2back/STIM_001.jpg
706.725	0.954	correct	2back	Block2	2back/STIM_001.jpg
711.26	0.778	correct	2back	Block2	2back/STIM_002.jpg
714.94	0.634	correct	2back	Block2	2back/STIM_002.jpg
718.714	0.86	correct	2back	Block2	2back/STIM_002.jpg
721.708	0.814	correct	2back	Block2	2back/STIM_003.jpg
726.493	0.468	incorrect	2back	Block2	2back/STIM_003.jpg
729.97	0.459	correct	2back	Block2	2back/STIM_003.jpg
734.048	1.043	correct	2back	Block2	2back/STIM_004.jpg
739.105	0.703	correct	2back	Block2	2back/STIM_004.jpg
742.869	0.882	incorrect	2back	Block2	2back/STIM_004.jpg
746.955	0.802	correct	2back	Block2	2back/STIM_005.jpg
751.463	0.692	correct	2back	Block2	2back/STIM_005.jpg
755.943	0.734	correct	2back	Block2	2back/STIM_005.jpg
759.009	0.806	correct	2back	Block2	2back/STIM_006.jpg
761.926	0.859	correct	2back	Block2	2back/STIM_006.jpg
766.563	0.55	incorrect	2back	Block2	2back/STIM_006.jpg
770.777	0.884	correct	2back	Block2	2back/STIM_007.jpg
773.988	0.764	correct	2back	Block2	2back/STIM_007.jpg
778.119	0.471	correct	2back	Block2	2back/STIM_007.jpg
781.75	0.736	correct	2back	Block2	2back/STIM_008.jpg
785.855	0.836	correct	2back	Block2	2back/STIM_008.jpg
790.281	0.791	correct	2back	Block2	2back/STIM_008.jpg
794.759	0.563	correct	2back	Block2	2back/STIM_009.jpg
798.839	0.666	correct	2back	Block2	2back/STIM_009.jpg
803.289	0.947	correct	2back	Block2	2back/STIM_009.jpg
808.111	0.893	correct	2back	Block2	2back/STIM_010.jpg
812.836	0.785	correct	2back	Block2	2back/STIM_010.jpg
816.975	0.848	incorrect	2back	Block2	2back/STIM_010.jpg
821.856	0.948	correct	2back	Block2	2back/STIM_011.jpg
825.015	0.535	correct	2back	Block2	2back/STIM_011.jpg
828.62	0.425	correct	2back	Block2	2back/STIM_011.jpg
832.064	0.948	incorrect	2back	Block2	2back/STIM_012.jpg
836.583	0.738	correct	2back	Block2	2back/STIM_012.jpg
840.732	0.72	correct	2back	Block2	2back/STIM_012.jpg
844.4	0.651	correct	2back	Block2	2back/STIM_013.jpg
848.601	0.949	correct	2back	Block2	2back/STIM_013.jpg
852.877	0.753	incorrect	2back	Block2	2back/STIM_013.jpg
856.174	0.498	correct	2back	Block2	2back/STIM_014.jpg
859.353	0.997	correct	2back	Block2	2back/STIM_014.jpg
862.593	0.766	correct	2back	Block2	2back/STIM_014.jpg
866.829	0.8	correct	2back	Block2	2back/STIM_015.jpg
870.632	0.734	correct	2back	Block2	2back/STIM_015.jpg
874.432	0.956	correct	2back	Block2	2back/STIM_015.jpg
879.058	0.814	correct	2back	Block2	2back/STIM_016.jpg
882.055	0.573	correct	2back	Block2	2back/STIM_016.jpg
885.335	0.748	correct	2back	Block2	2back/STIM_016.jpg
889.114	0.707	correct	2back	Block2	2back/STIM_017.jpg
892.953	0.623	correct	2back	Block2	2back/STIM_017.jpg
896.916	0.858	correct	2back	Block2	2back/STIM_017.jpg
900.408	0.48	correct	2back	Block2	2back/STIM_018.jpg
903.095	1.01	correct	2back	Block2	2back/STIM_018.jpg
907.05	0.599	correct	2back	Block2	2back/STIM_018.jpg
910.665	0.559	correct	2back	Block2	2back/STIM_019.jpg
913.837	0.492	correct	2back	Block2	2back/STIM_019.jpg
917.141	0.589	incorrect	2back	Block2	2back/STIM_019.jpg
921.195	0.918	correct	2back	Block2	2back/STIM_020.jpg
925.614	0.897	correct	2back	Block2	2back/STIM_020.jpg
929.96	0.846	correct	2back	Block2	2back/STIM_020.jpg
934.157	0.958	incorrect	2back	Block2	2back/STIM_021.jpg
938.13	1.04	correct	2back	Block2	2back/STIM_021.jpg
943.052	0.448	correct	2back	Block2	2back/STIM_021.jpg
946.156	0.542	correct	2back	Block2	2back/STIM_022.jpg
949.365	0.715	correct	2back	Block2	2back/STIM_022.jpg
954.091	0.739	correct	2back	Block2	2back/STIM_022.jpg
958.32	0.489	correct	2back	Block2	2back/STIM_023.jpg
962.29	0.9	correct	2back	Block2	2back/STIM_023.jpg
965.75	0.634	correct	2back	Block2	2back/STIM_023.jpg
968.655	0.82	correct	2back	Block2	2back/STIM_024.jpg
972.402	0.828	correct	2back	Block2	2back/STIM_024.jpg
976.465	0.715	correct	2back	Block2	2back/STIM_024.jpg
981.016	0.842	correct	2back	Block2	2back/STIM_025.jpg
984.444	0.607	correct	2back	Block2	2back/STIM_025.jpg
988.574	0.756	correct	2back	Block2	2back/STIM_025.jpg
991.813	0.971	correct	2back	Block2	2back/STIM_026.jpg
996.495	0.536	correct	2back	Block2	2back/STIM_026.jpg
1000.576	0.691	correct	2back	Block2	2back/STIM_026.jpg
1003.76	0.502	correct	2back	Block2	2back/STIM_027.jpg
1007.153	0.882	correct	2back	Block2	2back/STIM_027.jpg
1011.458	0.973	correct	2back	Block2	2back/STIM_027.jpg
1016.04	0.537	correct	2back	Block2	2back/STIM_028.jpg
1020.453	0.609	correct	2back	Block2	2back/STIM_028.jpg
1023.291	0.438	correct	2back	Block2	2back/STIM_028.jpg
1026.51	0.951	correct	2back	Block2	2back/STIM_029.jpg
1031.078	0.826	correct	2back	Block2	2back/STIM_029.jpg
1035.379	0.806	correct	2back	Block2	2back/STIM_029.jpg
1038.349	0.882	correct	2back	Block2	2back/STIM_030.jpg
1042.54	0.804	correct	2back	Block2	2back/STIM_030.jpg
1045.774	0.688	correct	2back	Block2	2back/STIM_030.jpg
1049.465	0.913	correct	2back	Block2	2back/STIM_031.jpg
1054.107	0.606	correct	2back	Block2	2back/STIM_031.jpg
1057.983	0.905	correct	2back	Block2	2back/STIM_031.jpg
1062.437	0.525	correct	2back	Block2	2back/STIM_032.jpg
1066.797	0.548	correct	2back	Block2	2back/STIM_032.jpg
1071.189	0.664	correct	2back	Block2	2back/STIM_032.jpg
1075.887	1.086	correct	2back	Block2	2back/STIM_033.jpg
1079.911	0.46	correct	2back	Block2	2back/STIM_033.jpg
1083.745	0.686	correct	2back	Block2	2back/STIM_033.jpg
1088.025	0.868	correct	2back	Block2	2back/STIM_034.jpg
1091.77	0.919	correct	2back	Block2	2back/STIM_034.jpg
1095.521	0.797	correct	2back	Block2	2back/STIM_034.jpg
1100.12	1.026	correct	2back	Block2	2back/STIM_035.jpg
1103.488	1.034	correct	2back	Block2	2back/STIM_035.jpg
1106.684	0.674	correct	2back	Block2	2back/STIM_035.jpg
1109.94	0.642	correct	2back	Block2	2back/STIM_036.jpg
1114.448	0.61	correct	2back	Block2	2back/STIM_036.jpg
1118.911	0.922	correct	2back	Block2	2back/STIM_036.jpg
1122.403	0.693	correct	2back	Block2	2back/STIM_037.jpg
1125.944	0.494	correct	2back	Block2	2back/STIM_037.jpg
1129.331	0.852	incorrect	2back	Block2	2back/STIM_037.jpg
1133.882	0.849	correct	2back	Block2	2back/STIM_038.jpg
1138.551	1.044	correct	2back	Block2	2back/STIM_038.jpg
1143.411	0.824	correct	2back	Block2	2back/STIM_038.jpg
1147.246	0.488	correct	2back	Block2	2back/STIM_039.jpg
1150.136	0.541	correct	2back	Block2	2back/STIM_039.jpg
1153.496	0.801	correct	2back	Block2	2back/STIM_039.jpg
1157.594	0.642	correct	0back	Block2	0back/STIM_000.jpg
1160.876	0.68	correct	0back	Block2	0back/STIM_000.jpg
1165.299	0.708	correct	0back	Block2	0back/STIM_000.jpg
1169.274	0.43	correct	0back	Block2	0back/STIM_001.jpg
1172.636	0.492	correct	0back	Block2	0back/STIM_001.jpg
1176.633	0.553	correct	0back	Block2	0back/STIM_001.jpg
1180.119	0.718	correct	0back	Block2	0back/STIM_002.jpg
1183.108	0.704	correct	0back	Block2	0back/STIM_002.jpg
1187.107	0.377	incorrect	0back	Block2	0back/STIM_002.jpg
1189.639	0.607	correct	0back	Block2	0back/STIM_003.jpg
1193.914	0.654	correct	0back	Block2	0back/STIM_003.jpg
1197.713	0.619	correct	0back	Block2	0back/STIM_003.jpg
1200.717	0.438	correct	0back	Block2	0back/STIM_004.jpg
1203.195	0.412	correct	0back	Block2	0back/STIM_004.jpg
1207.562	0.562	correct	0back	Block2	0back/STIM_004.jpg
1211.976	0.738	correct	0back	Block2	0back/STIM_005.jpg
1215.696	0.742	correct	0back	Block2	0back/STIM_005.jpg
1219.392	0.462	correct	0back	Block2	0back/STIM_005.jpg
1222.043	0.585	correct	0back	Block2	0back/STIM_006.jpg
1225.175	0.382	correct	0back	Block2	0back/STIM_006.jpg
1228.495	0.524	correct	0back	Block2	0back/STIM_006.jpg
1231.156	0.662	correct	0back	Block2	0back/STIM_007.jpg
1235.1	0.615	correct	0back	Block2	0back/STIM_007.jpg
1239.072	0.434	correct	0back	Block2	0back/STIM_007.jpg
1243.313	0.424	correct	0back	Block2	0back/STIM_008.jpg
1245.772	0.747	correct	0back	Block2	0back/STIM_008.jpg
1250.52	0.547	correct	0back	Block2	0back/STIM_008.jpg
1254.8	0.643	correct	0back	Block2	0back/STIM_009.jpg
1259.431	0.505	correct	0back	Block2	0back/STIM_009.jpg
1262.558	0.612	correct	0back	Block2	0back/STIM_009.jpg
1267.166	0.403	correct	0back	Block2	0back/STIM_010.jpg
1270.121	0.593	correct	0back	Block2	0back/STIM_010.jpg
1273.515	0.561	correct	0back	Block2	0back/STIM_010.jpg
1277.507	0.709	correct	0back	Block2	0back/STIM_011.jpg
1281.27	0.384	correct	0back	Block2	0back/STIM_011.jpg
1284.369	0.584	correct	0back	Block2	0back/STIM_011.jpg
1288.407	0.383	correct	0back	Block2	0back/STIM_012.jpg
1290.91	0.471	correct	0back	Block2	0back/STIM_012.jpg
1294.244	0.584	correct	0back	Block2	0back/STIM_012.jpg
1297.107	0.569	correct	0back	Block2	0back/STIM_013.jpg
1301.543	0.406	correct	0back	Block2	0back/STIM_013.jpg
1305.389	0.442	correct	0back	Block2	0back/STIM_013.jpg
1308.022	0.552	correct	0back	Block2	0back/STIM_014.jpg
1310.682	0.685	correct	0back	Block2	0back/STIM_014.jpg
1314.841	0.432	correct	0back	Block2	0back/STIM_014.jpg
1318.762	0.397	correct	0back	Block2	0back/STIM_015.jpg
1322.787	0.578	correct	0back	Block2	0back/STIM_015.jpg
1327.263	0.644	correct	0back	Block2	0back/STIM_015.jpg
1331.162	0.679	correct	0back	Block2	0back/STIM_016.jpg
1334.084	0.571	correct	0back	Block2	0back/STIM_016.jpg
1338.366	0.703	correct	0back	Block2	0back/STIM_016.jpg
1342.278	0.541	correct	0back	Block2	0back/STIM_017.jpg
1345.581	0.654	correct	0back	Block2	0back/STIM_017.jpg
1348.589	0.534	correct	0back	Block2	0back/STIM_017.jpg
1351.347	0.469	correct	0back	Block2	0back/STIM_018.jpg
1355.46	0.623	correct	0back	Block2	0back/STIM_018.jpg
1359.184	0.514	correct	0back	Block2	0back/STIM_018.jpg
1361.87	0.555	correct	0back	Block2	0back/STIM_019.jpg
1365.267	0.679	correct	0back	Block2	0back/STIM_019.jpg
1368.966	0.576	correct	0back	Block2	0back/STIM_019.jpg
1372.322	0.808	correct	2back	Block3	2back/STIM_000.jpg
1375.906	0.511	correct	2back	Block3	2back/STIM_000.jpg
1378.471	0.725	correct	2back	Block3	2back/STIM_000.jpg
1382.899	0.608	correct	2back	Block3	2back/STIM_001.jpg
1386.707	0.394	correct	2back	Block3	2back/STIM_001.jpg
1390.273	0.884	correct	2back	Block3	2back/STIM_001.jpg
1393.764	0.866	incorrect	2back	Block3	2back/STIM_002.jpg
1397.175	0.666	correct	2back	Block3	2back/STIM_002.jpg
1400.956	0.676	correct	2back	Block3	2back/STIM_002.jpg
1403.986	0.884	correct	2back	Block3	2back/STIM_003.jpg
1408.898	0.855	correct	2back	Block3	2back/STIM_003.jpg
1412.682	0.699	correct	2back	Block3	2back/STIM_003.jpg
1416.015	0.533	correct	2back	Block3	2back/STIM_004.jpg
1420.169	0.673	correct	2back	Block3	2back/STIM_004.jpg
1424.634	0.787	correct	2back	Block3	2back/STIM_004.jpg
1428.68	0.481	correct	2back	Block3	2back/STIM_005.jpg
1433.013	0.542	correct	2back	Block3	2back/STIM_005.jpg
1437.015	0.441	correct	2back	Block3	2back/STIM_005.jpg
1440.884	0.884	correct	2back	Block3	2back/STIM_006.jpg
1445.254	0.758	correct	2back	Block3	2back/STIM_006.jpg
1448.416	0.859	correct	2back	Block3	2back/STIM_006.jpg
1452.099	0.851	incorrect	2back	Block3	2back/STIM_007.jpg
1456.51	0.599	correct	2back	Block3	2back/STIM_007.jpg
1459.988	0.641	correct	2back	Block3	2back/STIM_007.jpg
1464.564	0.626	correct	2back	Block3	2back/STIM_008.jpg
1468.701	0.55	correct	2back	Block3	2back/STIM_008.jpg
1473.227	0.567	correct	2back	Block3	2back/STIM_008.jpg
1475.848	0.568	correct	2back	Block3	2back/STIM_009.jpg
1479.694	0.838	correct	2back	Block3	2back/STIM_009.jpg
1484.193	0.582	correct	2back	Block3	2back/STIM_009.jpg
1487.012	0.649	correct	2back	Block3	2back/STIM_010.jpg
1491.551	0.557	correct	2back	Block3	2back/STIM_010.jpg
1494.29	0.437	correct	2back	Block3	2back/STIM_010.jpg
1498.211	0.856	correct	2back	Block3	2back/STIM_011.jpg
1501.197	0.596	correct	2back	Block3	2back/STIM_011.jpg
1505.442	0.563	correct	2back	Block3	2back/STIM_011.jpg
1509.293	0.678	correct	2back	Block3	2back/STIM_012.jpg
1512.389	0.684	correct	2back	Block3	2back/STIM_012.jpg
1516.895	0.528	correct	2back	Block3	2back/STIM_012.jpg
1519.675	0.594	correct	2back	Block3	2back/STIM_013.jpg
1523.542	0.67	correct	2back	Block3	2back/STIM_013.jpg
1527.833	0.579	correct	2back	Block3	2back/STIM_013.jpg
1532.445	0.83	correct	2back	Block3	2back/STIM_014.jpg
1536.868	0.502	correct	2back	Block3	2back/STIM_014.jpg
1540.461	0.533	correct	2back	Block3	2back/STIM_014.jpg
1544.975	0.794	correct	2back	Block3	2back/STIM_015.jpg
1549.418	0.526	correct	2back	Block3	2back/STIM_015.jpg
1553.4	0.846	correct	2back	Block3	2back/STIM_015.jpg
1557.847	0.758	correct	2back	Block3	2back/STIM_016.jpg
1561.468	0.618	correct	2back	Block3	2back/STIM_016.jpg
1565.212	0.502	incorrect	2back	Block3	2back/STIM_016.jpg
1569.12	0.637	correct	2back	Block3	2back/STIM_017.jpg
1572.313	0.42	correct	2back	Block3	2back/STIM_017.jpg
1575.816	0.871	correct	2back	Block3	2back/STIM_017.jpg
1579.056	0.723	correct	2back	Block3	2back/STIM_018.jpg
1583.303	0.798	correct	2back	Block3	2back/STIM_018.jpg
1586.264	0.903	correct	2back	Block3	2back/STIM_018.jpg
1591.005	0.914	incorrect	2back	Block3	2back/STIM_019.jpg
1595.188	0.788	correct	2back	Block3	2back/STIM_019.jpg
1598.696	0.822	correct	2back	Block3	2back/STIM_019.jpg
1601.65	0.479	correct	2back	Block3	2back/STIM_020.jpg
1605.261	0.764	correct	2back	Block3	2back/STIM_020.jpg
1609.293	0.447	correct	2back	Block3	2back/STIM_020.jpg
1612.17	0.446	correct	2back	Block3	2back/STIM_021.jpg
1615.333	0.684	correct	2back	Block3	2back/STIM_021.jpg
1619.797	0.473	correct	2back	Block3	2back/STIM_021.jpg
1623.881	0.731	correct	2back	Block3	2back/STIM_022.jpg
1627.239	0.742	correct	2back	Block3	2back/STIM_022.jpg
1630.801	0.878	correct	2back	Block3	2back/STIM_022.jpg
1634.321	0.505	correct	2back	Block3	2back/STIM_023.jpg
1638.418	0.865	correct	2back	Block3	2back/STIM_023.jpg
1641.422	0.394	correct	2back	Block3	2back/STIM_023.jpg
1644.338	0.901	correct	2back	Block3	2back/STIM_024.jpg
1649.233	0.615	correct	2back	Block3	2back/STIM_024.jpg
1653.374	0.413	correct	2back	Block3	2back/STIM_024.jpg
1657.136	0.906	correct	2back	Block3	2back/STIM_025.jpg
1660.177	0.536	correct	2back	Block3	2back/STIM_025.jpg
1662.919	0.774	incorrect	2back	Block3	2back/STIM_025.jpg
1666.361	0.465	correct	2back	Block3	2back/STIM_026.jpg
1668.953	0.892	correct	2back	Block3	2back/STIM_026.jpg
1673.67	0.401	correct	2back	Block3	2back/STIM_026.jpg
1677.781	0.487	correct	2back	Block3	2back/STIM_027.jpg
1680.597	0.504	correct	2back	Block3	2back/STIM_027.jpg
1683.226	0.804	correct	2back	Block3	2back/STIM_027.jpg
1687.802	0.736	correct	2back	Block3	2back/STIM_028.jpg
1692.154	0.452	correct	2back	Block3	2back/STIM_028.jpg
1696.375	0.583	correct	2back	Block3	2back/STIM_028.jpg
1700.878	0.622	correct	2back	Block3	2back/STIM_029.jpg
1703.684	0.459	correct	2back	Block3	2back/STIM_029.jpg
1706.927	0.612	correct	2back	Block3	2back/STIM_029.jpg
1711.088	0.821	correct	2back	Block3	2back/STIM_030.jpg
1715.547	0.52	incorrect	2back	Block3	2back/STIM_030.jpg
1718.984	0.815	correct	2back	Block3	2back/STIM_030.jpg
1722.888	0.784	correct	2back	Block3	2back/STIM_031.jpg
1726.354	0.531	correct	2back	Block3	2back/STIM_031.jpg
1730.358	0.682	correct	2back	Block3	2back/STIM_031.jpg
1733.393	0.745	correct	2back	Block3	2back/STIM_032.jpg
1736.716	0.68	correct	2back	Block3	2back/STIM_032.jpg
1739.775	0.843	correct	2back	Block3	2back/STIM_032.jpg
1744.398	0.796	correct	2back	Block3	2back/STIM_033.jpg
1747.747	0.839	correct	2back	Block3	2back/STIM_033.jpg
1752.032	0.528	correct	2back	Block3	2back/STIM_033.jpg
1755.825	0.671	correct	2back	Block3	2back/STIM_034.jpg
1758.944	0.716	correct	2back	Block3	2back/STIM_034.jpg
1762.626	0.74	correct	2back	Block3	2back/STIM_034.jpg
1767.232	0.399	correct	2back	Block3	2back/STIM_035.jpg
1770.657	0.783	correct	2back	Block3	2back/STIM_035.jpg
1773.659	0.898	correct	2back	Block3	2back/STIM_035.jpg
1777.362	0.744	correct	2back	Block3	2back/STIM_036.jpg
1780.699	0.753	correct	2back	Block3	2back/STIM_036.jpg
1784.887	0.848	correct	2back	Block3	2back/STIM_036.jpg
1789.76	0.776	correct	2back	Block3	2back/STIM_037.jpg
1793.918	0.676	correct	2back	Block3	2back/STIM_037.jpg
1797.215	0.875	correct	2back	Block3	2back/STIM_037.jpg
1802.119	0.888	correct	2back	Block3	2back/STIM_038.jpg
1805.412	0.459	correct	2back	Block3	2back/STIM_038.jpg
1808.128	0.457	correct	2back	Block3	2back/STIM_038.jpg
1810.802	0.56	correct	2back	Block3	2back/STIM_039.jpg
1813.637	0.458	correct	2back	Block3	2back/STIM_039.jpg
1816.892	0.679	correct	2back	Block3	2back/STIM_039.jpg
1820.988	0.493	correct	0back	Block3	0back/STIM_000.jpg
1823.819	0.565	correct	0back	Block3	0back/STIM_000.jpg
1827.652	0.479	correct	0back	Block3	0back/STIM_000.jpg
1831.855	0.442	correct	0back	Block3	0back/STIM_001.jpg
1836.005	0.71	correct	0back	Block3	0back/STIM_001.jpg
1839.327	0.721	correct	0back	Block3	0back/STIM_001.jpg
1843.945	0.625	incorrect	0back	Block3	0back/STIM_002.jpg
1848.274	0.645	correct	0back	Block3	0back/STIM_002.jpg
1852.188	0.746	correct	0back	Block3	0back/STIM_002.jpg
1855.224	0.575	correct	0back	Block3	0back/STIM_003.jpg
1858.945	0.636	incorrect	0back	Block3	0back/STIM_003.jpg
1861.885	0.476	correct	0back	Block3	0back/STIM_003.jpg
1866.044	0.677	correct	0back	Block3	0back/STIM_004.jpg
1869.826	0.46	correct	0back	Block3	0back/STIM_004.jpg
1872.721	0.417	correct	0back	Block3	0back/STIM_004.jpg
1877.133	0.725	correct	0back	Block3	0back/STIM_005.jpg
1880.086	0.634	correct	0back	Block3	0back/STIM_005.jpg
1884.319	0.564	correct	0back	Block3	0back/STIM_005.jpg
1887.458	0.633	correct	0back	Block3	0back/STIM_006.jpg
1891.639	0.486	incorrect	0back	Block3	0back/STIM_006.jpg
1895.783	0.408	correct	0back	Block3	0back/STIM_006.jpg
1899.193	0.6	correct	0back	Block3	0back/STIM_007.jpg
1902.048	0.682	correct	0back	Block3	0back/STIM_007.jpg
1905.147	0.653	correct	0back	Block3	0back/STIM_007.jpg
1908.615	0.616	correct	0back	Block3	0back/STIM_008.jpg
1913.218	0.423	correct	0back	Block3	0back/STIM_008.jpg
1917.063	0.636	correct	0back	Block3	0back/STIM_008.jpg
1919.844	0.722	correct	0back	Block3	0back/STIM_009.jpg
1923.401	0.632	correct	0back	Block3	0back/STIM_009.jpg
1927.357	0.584	correct	0back	Block3	0back/STIM_009.jpg
1930.569	0.461	correct	0back	Block3	0back/STIM_010.jpg
1933.542	0.472	correct	0back	Block3	0back/STIM_010.jpg
1937.777	0.419	correct	0back	Block3	0back/STIM_010.jpg
1940.892	0.545	correct	0back	Block3	0back/STIM_011.jpg
1944.549	0.633	correct	0back	Block3	0back/STIM_011.jpg
1948.32	0.531	correct	0back	Block3	0back/STIM_011.jpg
1951.917	0.43	correct	0back	Block3	0back/STIM_012.jpg
1954.854	0.632	correct	0back	Block3	0back/STIM_012.jpg
1958.087	0.678	correct	0back	Block3	0back/STIM_012.jpg
1962.319	0.439	correct	0back	Block3	0back/STIM_013.jpg
1965.022	0.682	correct	0back	Block3	0back/STIM_013.jpg
1968.328	0.501	correct	0back	Block3	0back/STIM_013.jpg
1971.859	0.683	correct	0back	Block3	0back/STIM_014.jpg
1975.531	0.52	correct	0back	Block3	0back/STIM_014.jpg
1979.467	0.401	correct	0back	Block3	0back/STIM_014.jpg
1983.793	0.448	correct	0back	Block3	0back/STIM_015.jpg
1986.312	0.67	incorrect	0back	Block3	0back/STIM_015.jpg
1990.228	0.585	correct	0back	Block3	0back/STIM_015.jpg
1994.099	0.521	correct	0back	Block3	0back/STIM_016.jpg
1997.081	0.535	correct	0back	Block3	0back/STIM_016.jpg
2000.259	0.72	correct	0back	Block3	0back/STIM_016.jpg
2003.629	0.624	correct	0back	Block3	0back/STIM_017.jpg
2006.855	0.392	correct	0back	Block3	0back/STIM_017.jpg
2011.029	0.664	correct	0back	Block3	0back/STIM_017.jpg
2014.565	0.726	correct	0back	Block3	0back/STIM_018.jpg
2018.856	0.468	correct	0back	Block3	0back/STIM_018.jpg
2021.786	0.461	correct	0back	Block3	0back/STIM_018.jpg
2025.522	0.688	correct	0back	Block3	0back/STIM_019.jpg
2029.764	0.558	correct	0back	Block3	0back/STIM_019.jpg
2033.366	0.577	correct	0back	Block3	0back/STIM_019.jpg
2037.501	0.774	correct	2back	Block4	2back/STIM_000.jpg
2041.234	0.721	correct	2back	Block4	2back/STIM_000.jpg
2045.412	0.608	correct	2back	Block4	2back/STIM_000.jpg
2048.892	0.775	correct	2back	Block4	2back/STIM_001.jpg
2053.404	0.402	correct	2back	Block4	2back/STIM_001.jpg
2055.884	0.418	correct	2back	Block4	2back/STIM_001.jpg
2059.857	0.69	correct	2back	Block4	2back/STIM_002.jpg
2063.755	0.672	correct	2back	Block4	2back/STIM_002.jpg
2067.992	0.413	correct	2back	Block4	2back/STIM_002.jpg
2072.22	0.752	correct	2back	Block4	2back/STIM_003.jpg
2075.505	0.826	correct	2back	Block4	2back/STIM_003.jpg
2080.061	0.8	correct	2back	Block4	2back/STIM_003.jpg
2083.066	0.876	correct	2back	Block4	2back/STIM_004.jpg
2086.324	0.89	correct	2back	Block4	2back/STIM_004.jpg
2090.397	0.772	correct	2back	Block4	2back/STIM_004.jpg
2093.326	0.612	correct	2back	Block4	2back/STIM_005.jpg
2097.262	0.877	correct	2back	Block4	2back/STIM_005.jpg
2100.79	0.861	correct	2back	Block4	2back/STIM_005.jpg
2104.966	0.652	correct	2back	Block4	2back/STIM_006.jpg
2109.243	0.706	correct	2back	Block4	2back/STIM_006.jpg
2112.992	0.685	correct	2back	Block4	2back/STIM_006.jpg
2117.719	0.774	correct	2back	Block4	2back/STIM_007.jpg
2122.32	0.537	correct	2back	Block4	2back/STIM_007.jpg
2125.036	0.695	correct	2back	Block4	2back/STIM_007.jpg
2128.032	0.813	correct	2back	Block4	2back/STIM_008.jpg
2132.822	0.586	correct	2back	Block4	2back/STIM_008.jpg
2135.838	0.686	correct	2back	Block4	2back/STIM_008.jpg
2139.143	0.483	correct	2back	Block4	2back/STIM_009.jpg
2143.033	0.874	correct	2back	Block4	2back/STIM_009.jpg
2146.382	0.804	correct	2back	Block4	2back/STIM_009.jpg
2150.102	0.654	correct	2back	Block4	2back/STIM_010.jpg
2153.189	0.41	correct	2back	Block4	2back/STIM_010.jpg
2156.774	0.528	correct	2back	Block4	2back/STIM_010.jpg
2160.866	0.582	correct	2back	Block4	2back/STIM_011.jpg
2165.401	0.783	correct	2back	Block4	2back/STIM_011.jpg
2169.574	0.632	correct	2back	Block4	2back/STIM_011.jpg
2173.481	0.668	correct	2back	Block4	2back/STIM_012.jpg
2177.176	0.849	correct	2back	Block4	2back/STIM_012.jpg
2180.795	0.684	correct	2back	Block4	2back/STIM_012.jpg
2184.613	0.655	correct	2back	Block4	2back/STIM_013.jpg
2189.239	0.567	correct	2back	Block4	2back/STIM_013.jpg
2193.453	0.671	correct	2back	Block4	2back/STIM_013.jpg
2197.914	0.588	incorrect	2back	Block4	2back/STIM_014.jpg
2202.51	0.629	correct	2back	Block4	2back/STIM_014.jpg
2205.942	0.533	correct	2back	Block4	2back/STIM_014.jpg
2208.958	0.416	correct	2back	Block4	2back/STIM_015.jpg
2213.232	0.883	correct	2back	Block4	2back/STIM_015.jpg
2217.816	0.815	correct	2back	Block4	2back/STIM_015.jpg
2221.056	0.497	correct	2back	Block4	2back/STIM_016.jpg
2223.819	0.755	correct	2back	Block4	2back/STIM_016.jpg
2226.773	0.845	correct	2back	Block4	2back/STIM_016.jpg
2231.331	0.63	correct	2back	Block4	2back/STIM_017.jpg
2235.943	0.539	correct	2back	Block4	2back/STIM_017.jpg
2238.678	0.467	correct	2back	Block4	2back/STIM_017.jpg
2241.207	0.548	correct	2back	Block4	2back/STIM_018.jpg
2245.774	0.638	correct	2back	Block4	2back/STIM_018.jpg
2249.024	0.547	correct	2back	Block4	2back/STIM_018.jpg
2252.909	0.408	correct	2back	Block4	2back/STIM_019.jpg
2255.945	0.91	correct	2back	Block4	2back/STIM_019.jpg
2258.939	0.405	correct	2back	Block4	2back/STIM_019.jpg
2263.06	0.824	correct	2back	Block4	2back/STIM_020.jpg
2266.749	0.803	correct	2back	Block4	2back/STIM_020.jpg
2271.428	0.433	correct	2back	Block4	2back/STIM_020.jpg
2274.417	0.575	correct	2back	Block4	2back/STIM_021.jpg
2278.285	0.874	correct	2back	Block4	2back/STIM_021.jpg
2282.001	0.667	correct	2back	Block4	2back/STIM_021.jpg
2285.88	0.414	correct	2back	Block4	2back/STIM_022.jpg
2289.35	0.519	correct	2back	Block4	2back/STIM_022.jpg
2293.685	0.55	correct	2back	Block4	2back/STIM_022.jpg
2296.528	0.812	correct	2back	Block4	2back/STIM_023.jpg
2300.363	0.706	correct	2back	Block4	2back/STIM_023.jpg
2303.752	0.737	correct	2back	Block4	2back/STIM_023.jpg
2307.446	0.553	correct	2back	Block4	2back/STIM_024.jpg
2310.059	0.635	correct	2back	Block4	2back/STIM_024.jpg
2313.216	0.668	correct	2back	Block4	2back/STIM_024.jpg
2317.468	0.627	correct	2back	Block4	2back/STIM_025.jpg
2321.854	0.844	correct	2back	Block4	2back/STIM_025.jpg
2326.153	0.765	correct	2back	Block4	2back/STIM_025.jpg
2329.684	0.538	correct	2back	Block4	2back/STIM_026.jpg
2334.234	0.616	correct	2back	Block4	2back/STIM_026.jpg
2337.106	0.616	correct	2back	Block4	2back/STIM_026.jpg
2341.592	0.754	incorrect	2back	Block4	2back/STIM_027.jpg
2346.354	0.41	correct	2back	Block4	2back/STIM_027.jpg
2349.485	0.59	correct	2back	Block4	2back/STIM_027.jpg
2352.216	0.757	correct	2back	Block4	2back/STIM_028.jpg
2356.33	0.581	correct	2back	Block4	2back/STIM_028.jpg
2360.341	0.503	correct	2back	Block4	2back/STIM_028.jpg
2364.776	0.876	correct	2back	Block4	2back/STIM_029.jpg
2367.936	0.804	correct	2back	Block4	2back/STIM_029.jpg
2371.68	0.415	correct	2back	Block4	2back/STIM_029.jpg
2375.184	0.87	correct	2back	Block4	2back/STIM_030.jpg
2378.612	0.868	correct	2back	Block4	2back/STIM_030.jpg
2383.535	0.521	correct	2back	Block4	2back/STIM_030.jpg
2387.655	0.538	correct	2back	Block4	2back/STIM_031.jpg
2391.777	0.398	correct	2back	Block4	2back/STIM_031.jpg
2395.619	0.407	correct	2back	Block4	2back/STIM_031.jpg
2399.246	0.52	correct	2back	Block4	2back/STIM_032.jpg
2402.532	0.409	correct	2back	Block4	2back/STIM_032.jpg
2406.65	0.425	correct	2back	Block4	2back/STIM_032.jpg
2409.415	0.813	correct	2back	Block4	2back/STIM_033.jpg
2413.73	0.791	correct	2back	Block4	2back/STIM_033.jpg
2418.36	0.84	correct	2back	Block4	2back/STIM_033.jpg
2421.674	0.842	correct	2back	Block4	2back/STIM_034.jpg
2424.892	0.672	correct	2back	Block4	2back/STIM_034.jpg
2428.548	0.405	correct	2back	Block4	2back/STIM_034.jpg
2432.508	0.731	correct	2back	Block4	2back/STIM_035.jpg
2437.256	0.635	incorrect	2back	Block4	2back/STIM_035.jpg
2441.075	0.404	correct	2back	Block4	2back/STIM_035.jpg
2444.265	0.751	correct	2back	Block4	2back/STIM_036.jpg
2447.916	0.745	correct	2back	Block4	2back/STIM_036.jpg
2452.664	0.482	correct	2back	Block4	2back/STIM_036.jpg
2456.854	0.734	correct	2back	Block4	2back/STIM_037.jpg
2460.818	0.892	correct	2back	Block4	2back/STIM_037.jpg
2465.287	0.632	correct	2back	Block4	2back/STIM_037.jpg
2469.467	0.626	correct	2back	Block4	2back/STIM_038.jpg
2473.369	0.594	correct	2back	Block4	2back/STIM_038.jpg
2476.565	0.664	correct	2back	Block4	2back/STIM_038.jpg
2480.113	0.477	correct	2back	Block4	2back/STIM_039.jpg
2483.362	0.618	correct	2back	Block4	2back/STIM_039.jpg
2487.385	0.62	correct	2back	Block4	2back/STIM_039.jpg
2491.548	0.695	correct	0back	Block4	0back/STIM_000.jpg
2494.46	0.569	correct	0back	Block4	0back/STIM_000.jpg
2497.96	0.553	correct	0back	Block4	0back/STIM_000.jpg
2501.919	0.604	correct	0back	Block4	0back/STIM_001.jpg
2505.479	0.726	correct	0back	Block4	0back/STIM_001.jpg
2508.882	0.542	correct	0back	Block4	0back/STIM_001.jpg
2512.279	0.479	correct	0back	Block4	0back/STIM_002.jpg
2516.503	0.522	correct	0back	Block4	0back/STIM_002.jpg
2519.459	0.382	incorrect	0back	Block4	0back/STIM_002.jpg
2522.907	0.376	correct	0back	Block4	0back/STIM_003.jpg
2526.777	0.688	correct	0back	Block4	0back/STIM_003.jpg
2530.799	0.702	correct	0back	Block4	0back/STIM_003.jpg
2535.367	0.684	correct	0back	Block4	0back/STIM_004.jpg
2539.038	0.446	correct	0back	Block4	0back/STIM_004.jpg
2542.592	0.617	correct	0back	Block4	0back/STIM_004.jpg
2545.737	0.738	correct	0back	Block4	0back/STIM_005.jpg
2550.315	0.653	correct	0back	Block4	0back/STIM_005.jpg
2553.925	0.635	correct	0back	Block4	0back/STIM_005.jpg
2557.419	0.741	correct	0back	Block4	0back/STIM_006.jpg
2560.355	0.522	correct	0back	Block4	0back/STIM_006.jpg
2563.326	0.432	correct	0back	Block4	0back/STIM_006.jpg
2566.659	0.46	correct	0back	Block4	0back/STIM_007.jpg
2570.302	0.49	correct	0back	Block4	0back/STIM_007.jpg
2573.986	0.38	correct	0back	Block4	0back/STIM_007.jpg
2578.084	0.639	correct	0back	Block4	0back/STIM_008.jpg
2581.17	0.706	correct	0back	Block4	0back/STIM_008.jpg
2585.644	0.522	correct	0back	Block4	0back/STIM_008.jpg
2589.01	0.544	correct	0back	Block4	0back/STIM_009.jpg
2592.177	0.662	correct	0back	Block4	0back/STIM_009.jpg
2595.121	0.417	correct	0back	Block4	0back/STIM_009.jpg
2598.621	0.691	correct	0back	Block4	0back/STIM_010.jpg
2602.179	0.563	correct	0back	Block4	0back/STIM_010.jpg
2605.671	0.652	correct	0back	Block4	0back/STIM_010.jpg
2608.562	0.734	correct	0back	Block4	0back/STIM_011.jpg
2611.526	0.713	correct	0back	Block4	0back/STIM_011.jpg
2615.137	0.591	correct	0back	Block4	0back/STIM_011.jpg
2618.037	0.45	correct	0back	Block4	0back/STIM_012.jpg
2622.319	0.723	correct	0back	Block4	0back/STIM_012.jpg
2626.366	0.39	correct	0back	Block4	0back/STIM_012.jpg
2629.697	0.563	incorrect	0back	Block4	0back/STIM_013.jpg
2633.018	0.569	correct	0back	Block4	0back/STIM_013.jpg
2636.576	0.588	correct	0back	Block4	0back/STIM_013.jpg
2639.738	0.434	correct	0back	Block4	0back/STIM_014.jpg
2642.431	0.392	correct	0back	Block4	0back/STIM_014.jpg
2646.375	0.606	incorrect	0back	Block4	0back/STIM_014.jpg
2650.286	0.515	correct	0back	Block4	0back/STIM_015.jpg
2654.471	0.539	correct	0back	Block4	0back/STIM_015.jpg
2657.757	0.456	correct	0back	Block4	0back/STIM_015.jpg
2661.413	0.67	correct	0back	Block4	0back/STIM_016.jpg
2665.16	0.566	incorrect	0back	Block4	0back/STIM_016.jpg
2668.318	0.577	incorrect	0back	Block4	0back/STIM_016.jpg
2671.966	0.616	correct	0back	Block4	0back/STIM_017.jpg
2675.734	0.718	correct	0back	Block4	0back/STIM_017.jpg
2680.062	0.374	correct	0back	Block4	0back/STIM_017.jpg
2682.938	0.705	correct	0back	Block4	0back/STIM_018.jpg
2687.063	0.386	incorrect	0back	Block4	0back/STIM_018.jpg
2691.012	0.409	correct	0back	Block4	0back/STIM_018.jpg
2694.093	0.717	correct	0back	Block4	0back/STIM_019.jpg
2697.721	0.434	correct	0back	Block4	0back/STIM_019.jpg
2700.993	0.398	correct	0back	Block4	0back/STIM_019.jpg
