onset	duration	accuracy_binary	trial_type	learning_stage	stimulus	coherence
0.000	8.797	0	learning	LS1	PICTURE_15.jpg	i
8.797	9.821	1	learning	LS1	PICTURE_508.jpg	c
18.618	10.206	1	learning	LS1	PICTURE_95.jpg	c
28.824	8.359	1	learning	LS1	PICTURE_15.jpg	c
37.183	9.710	1	learning	LS1	PICTURE_95.jpg	i
46.893	11.062	1	learning	LS1	PICTURE_480.jpg	c
57.955	8.415	0	learning	LS1	PICTURE_508.jpg	i
66.370	7.527	0	learning	LS1	PICTURE_488.jpg	c
73.897	13.677	1	learning	LS1	PICTURE_480.jpg	i
87.574	13.435	1	learning	LS1	PICTURE_488.jpg	i
101.009	8.977	1	learning	LS2	PICTURE_480.jpg	i
109.986	7.937	1	learning	LS2	PICTURE_15.jpg	i
117.923	9.296	1	learning	LS2	PICTURE_95.jpg	c
127.219	9.367	1	learning	LS2	PICTURE_508.jpg	c
136.586	10.087	1	learning	LS2	PICTURE_488.jpg	i
146.673	8.727	1	learning	LS2	PICTURE_95.jpg	i
155.400	6.720	1	learning	LS2	PICTURE_15.jpg	c
162.120	11.276	1	learning	LS2	PICTURE_480.jpg	c
173.396	8.150	1	learning	LS2	PICTURE_488.jpg	c
181.546	7.729	1	learning	LS2	PICTURE_508.jpg	i
189.275	7.559	1	learning	LS3	PICTURE_480.jpg	c
196.834	6.978	1	learning	LS3	PICTURE_508.jpg	i
203.812	6.883	1	learning	LS3	PICTURE_15.jpg	c
210.695	6.469	1	learning	LS3	PICTURE_488.jpg	c
217.164	7.973	1	learning	LS3	PICTURE_480.jpg	i
225.137	6.766	1	learning	LS3	PICTURE_95.jpg	c
231.903	6.678	1	learning	LS3	PICTURE_15.jpg	i
238.581	7.071	1	learning	LS3	PICTURE_488.jpg	i
245.652	5.704	1	learning	LS3	PICTURE_95.jpg	i
251.356	7.376	1	learning	LS3	PICTURE_508.jpg	c
258.732	7.068	1	learning	LS4	PICTURE_508.jpg	c
265.800	6.508	1	learning	LS4	PICTURE_15.jpg	c
272.308	7.387	1	learning	LS4	PICTURE_480.jpg	c
279.695	8.266	1	learning	LS4	PICTURE_488.jpg	i
287.961	8.186	1	learning	LS4	PICTURE_508.jpg	i
296.147	7.465	1	learning	LS4	PICTURE_480.jpg	i
303.612	7.065	1	learning	LS4	PICTURE_15.jpg	i
310.677	7.784	1	learning	LS4	PICTURE_95.jpg	i
318.461	6.584	1	learning	LS4	PICTURE_488.jpg	c
325.045	6.184	1	learning	LS4	PICTURE_95.jpg	c
331.229	12.476	0	learning	LS1	PICTURE_462.jpg	i
343.705	14.136	0	learning	LS1	PICTURE_400.jpg	i
357.841	15.481	0	learning	LS1	PICTURE_21.jpg	i
373.322	17.146	1	learning	LS1	PICTURE_405.jpg	c
390.468	7.621	1	learning	LS1	PICTURE_21.jpg	c
398.089	8.492	0	learning	LS1	PICTURE_400.jpg	c
406.581	8.725	0	learning	LS1	PICTURE_402.jpg	c
415.306	9.757	1	learning	LS1	PICTURE_405.jpg	i
425.063	13.508	1	learning	LS1	PICTURE_402.jpg	i
438.571	10.221	1	learning	LS1	PICTURE_462.jpg	c
448.792	7.193	1	learning	LS2	PICTURE_462.jpg	c
455.985	6.945	1	learning	LS2	PICTURE_405.jpg	c
462.930	8.143	1	learning	LS2	PICTURE_400.jpg	c
471.073	5.496	0	learning	LS2	PICTURE_402.jpg	i
476.569	8.134	1	learning	LS2	PICTURE_405.jpg	i
484.703	8.053	1	learning	LS2	PICTURE_21.jpg	i
492.756	7.805	1	learning	LS2	PICTURE_400.jpg	i
500.561	7.404	1	learning	LS2	PICTURE_21.jpg	c
507.965	8.123	1	learning	LS2	PICTURE_462.jpg	i
516.088	7.230	1	learning	LS2	PICTURE_402.jpg	c
523.318	8.661	1	learning	LS3	PICTURE_400.jpg	i
531.979	7.282	1	learning	LS3	PICTURE_462.jpg	c
539.261	7.500	1	learning	LS3	PICTURE_405.jpg	i
546.761	7.405	1	learning	LS3	PICTURE_462.jpg	i
554.166	6.832	1	learning	LS3	PICTURE_21.jpg	c
560.998	12.814	1	learning	LS3	PICTURE_402.jpg	i
573.812	8.728	1	learning	LS3	PICTURE_405.jpg	c
582.540	6.882	1	learning	LS3	PICTURE_402.jpg	c
589.422	7.274	1	learning	LS3	PICTURE_21.jpg	i
596.696	7.347	1	learning	LS3	PICTURE_400.jpg	c
604.043	8.159	0	learning	LS4	PICTURE_462.jpg	c
612.202	9.190	1	learning	LS4	PICTURE_400.jpg	c
621.392	7.190	1	learning	LS4	PICTURE_462.jpg	i
628.582	6.949	1	learning	LS4	PICTURE_405.jpg	c
635.531	9.260	1	learning	LS4	PICTURE_400.jpg	i
644.791	n/a	n/a	learning	LS4	PICTURE_402.jpg	c
669.791	8.138	1	learning	LS4	PICTURE_21.jpg	i
677.929	9.337	1	learning	LS4	PICTURE_405.jpg	i
687.266	6.851	1	learning	LS4	PICTURE_21.jpg	c
694.117	7.570	1	learning	LS4	PICTURE_402.jpg	i
701.687	11.313	0	learning	LS1	PICTURE_599.jpg	i
713.000	8.646	1	learning	LS1	PICTURE_741.jpg	c
721.646	11.269	0	learning	LS1	PICTURE_43.jpg	i
732.915	9.735	1	learning	LS1	PICTURE_247.jpg	c
742.650	8.211	0	learning	LS1	PICTURE_610.jpg	i
750.861	13.718	0	learning	LS1	PICTURE_741.jpg	i
764.579	9.311	1	learning	LS1	PICTURE_247.jpg	i
773.890	9.223	1	learning	LS1	PICTURE_610.jpg	c
783.113	9.296	1	learning	LS1	PICTURE_599.jpg	c
792.409	7.609	1	learning	LS1	PICTURE_43.jpg	c
800.018	7.942	1	learning	LS2	PICTURE_610.jpg	i
807.960	6.902	1	learning	LS2	PICTURE_599.jpg	c
814.862	6.654	1	learning	LS2	PICTURE_247.jpg	c
821.516	8.491	1	learning	LS2	PICTURE_741.jpg	i
830.007	7.451	1	learning	LS2	PICTURE_247.jpg	i
837.458	7.690	1	learning	LS2	PICTURE_610.jpg	c
845.148	11.128	1	learning	LS2	PICTURE_599.jpg	i
856.276	8.328	1	learning	LS2	PICTURE_43.jpg	i
864.604	6.969	1	learning	LS2	PICTURE_741.jpg	c
871.573	6.568	1	learning	LS2	PICTURE_43.jpg	c
878.141	7.698	1	learning	LS3	PICTURE_741.jpg	c
885.839	7.437	1	learning	LS3	PICTURE_599.jpg	i
893.276	5.897	1	learning	LS3	PICTURE_247.jpg	c
899.173	7.237	1	learning	LS3	PICTURE_599.jpg	c
906.410	11.455	1	learning	LS3	PICTURE_43.jpg	i
917.865	7.521	1	learning	LS3	PICTURE_610.jpg	i
925.386	7.268	1	learning	LS3	PICTURE_741.jpg	i
932.654	7.493	1	learning	LS3	PICTURE_43.jpg	c
940.147	6.446	1	learning	LS3	PICTURE_247.jpg	i
946.593	6.999	1	learning	LS3	PICTURE_610.jpg	c
953.592	8.610	1	learning	LS4	PICTURE_43.jpg	i
962.202	6.923	1	learning	LS4	PICTURE_247.jpg	i
969.125	6.996	1	learning	LS4	PICTURE_741.jpg	c
976.121	6.908	1	learning	LS4	PICTURE_610.jpg	c
983.029	9.228	1	learning	LS4	PICTURE_247.jpg	c
992.257	8.347	1	learning	LS4	PICTURE_599.jpg	c
1000.604	7.953	1	learning	LS4	PICTURE_741.jpg	i
1008.557	7.705	1	learning	LS4	PICTURE_610.jpg	i
1016.262	6.817	1	learning	LS4	PICTURE_43.jpg	c
1023.079	6.416	1	learning	LS4	PICTURE_599.jpg	i
1029.495	11.602	1	control	LS1	PICTURE_286.jpg	i
1041.097	7.663	1	control	LS1	PICTURE_430.jpg	i
1048.760	8.683	1	control	LS1	PICTURE_292.jpg	i
1057.443	7.469	1	control	LS1	PICTURE_2.jpg	i
1064.912	9.294	1	control	LS1	PICTURE_430.jpg	c
1074.206	5.521	1	control	LS1	PICTURE_2.jpg	c
1079.727	8.953	1	control	LS1	PICTURE_718.jpg	i
1088.680	6.947	1	control	LS1	PICTURE_292.jpg	c
1095.627	7.659	1	control	LS1	PICTURE_286.jpg	c
1103.286	8.050	1	control	LS1	PICTURE_718.jpg	c
1111.336	8.862	1	control	LS2	PICTURE_292.jpg	c
1120.198	7.016	1	control	LS2	PICTURE_286.jpg	c
1127.214	7.408	1	control	LS2	PICTURE_430.jpg	i
1134.622	6.688	1	control	LS2	PICTURE_2.jpg	c
1141.310	6.288	1	control	LS2	PICTURE_718.jpg	c
1147.598	7.320	1	control	LS2	PICTURE_292.jpg	i
1154.918	8.199	1	control	LS2	PICTURE_286.jpg	i
1163.117	7.958	1	control	LS2	PICTURE_430.jpg	c
1171.075	7.877	1	control	LS2	PICTURE_2.jpg	i
1178.952	7.470	1	control	LS2	PICTURE_718.jpg	i
1186.422	8.130	1	control	LS3	PICTURE_134.jpg	c
1194.552	7.222	1	control	LS3	PICTURE_98.jpg	i
1201.774	9.520	1	control	LS3	PICTURE_733.jpg	i
1211.294	7.021	1	control	LS3	PICTURE_731.jpg	c
1218.315	6.921	1	control	LS3	PICTURE_733.jpg	c
1225.236	6.820	1	control	LS3	PICTURE_645.jpg	i
1232.056	6.887	1	control	LS3	PICTURE_98.jpg	c
1238.943	7.113	1	control	LS3	PICTURE_645.jpg	c
1246.056	7.666	1	control	LS3	PICTURE_731.jpg	i
1253.722	9.179	1	control	LS3	PICTURE_134.jpg	i
1262.901	7.912	1	control	LS4	PICTURE_134.jpg	i
1270.813	6.545	1	control	LS4	PICTURE_98.jpg	c
1277.358	6.938	1	control	LS4	PICTURE_731.jpg	c
1284.296	6.532	1	control	LS4	PICTURE_134.jpg	c
1290.828	10.123	1	control	LS4	PICTURE_645.jpg	c
1300.951	7.163	1	control	LS4	PICTURE_731.jpg	i
1308.114	7.883	1	control	LS4	PICTURE_645.jpg	i
1315.997	8.755	1	control	LS4	PICTURE_733.jpg	i
1324.752	7.554	1	control	LS4	PICTURE_98.jpg	i
1332.306	7.473	1	control	LS4	PICTURE_733.jpg	c
1339.779	11.068	1	learning	LS1	PICTURE_53.jpg	c
1350.847	8.242	1	learning	LS1	PICTURE_703.jpg	c
1359.089	9.421	0	learning	LS1	PICTURE_220.jpg	c
1368.510	8.201	1	learning	LS1	PICTURE_216.jpg	c
1376.711	11.785	1	learning	LS1	PICTURE_703.jpg	i
1388.496	10.411	1	learning	LS1	PICTURE_695.jpg	c
1398.907	10.477	0	learning	LS1	PICTURE_220.jpg	i
1409.384	10.231	1	learning	LS1	PICTURE_53.jpg	i
1419.615	8.545	1	learning	LS1	PICTURE_695.jpg	i
1428.160	9.098	0	learning	LS1	PICTURE_216.jpg	i
1437.258	14.549	0	learning	LS2	PICTURE_703.jpg	i
1451.807	7.585	1	learning	LS2	PICTURE_695.jpg	c
1459.392	9.257	1	learning	LS2	PICTURE_53.jpg	i
1468.649	7.092	1	learning	LS2	PICTURE_220.jpg	c
1475.741	8.444	1	learning	LS2	PICTURE_53.jpg	c
1484.185	11.243	0	learning	LS2	PICTURE_216.jpg	i
1495.428	7.645	1	learning	LS2	PICTURE_695.jpg	i
1503.073	7.244	1	learning	LS2	PICTURE_703.jpg	c
1510.317	8.277	1	learning	LS2	PICTURE_216.jpg	c
1518.594	6.916	1	learning	LS2	PICTURE_220.jpg	i
1525.510	9.017	1	learning	LS3	PICTURE_220.jpg	c
1534.527	8.770	1	learning	LS3	PICTURE_53.jpg	i
1543.297	7.229	1	learning	LS3	PICTURE_220.jpg	i
1550.526	8.408	1	learning	LS3	PICTURE_703.jpg	c
1558.934	7.348	1	learning	LS3	PICTURE_695.jpg	c
1566.282	6.767	1	learning	LS3	PICTURE_703.jpg	i
1573.049	7.466	1	learning	LS3	PICTURE_695.jpg	i
1580.515	7.373	1	learning	LS3	PICTURE_216.jpg	i
1587.888	8.558	1	learning	LS3	PICTURE_53.jpg	c
1596.446	7.351	1	learning	LS3	PICTURE_216.jpg	c
1603.797	8.004	1	learning	LS4	PICTURE_53.jpg	i
1611.801	8.077	1	learning	LS4	PICTURE_220.jpg	i
1619.878	7.031	1	learning	LS4	PICTURE_695.jpg	i
1626.909	6.945	1	learning	LS4	PICTURE_216.jpg	i
1633.854	7.019	1	learning	LS4	PICTURE_695.jpg	c
1640.873	7.412	1	learning	LS4	PICTURE_703.jpg	i
1648.285	7.330	1	learning	LS4	PICTURE_220.jpg	c
1655.615	9.010	1	learning	LS4	PICTURE_703.jpg	c
1664.625	7.323	1	learning	LS4	PICTURE_53.jpg	c
1671.948	8.042	1	learning	LS4	PICTURE_216.jpg	c
1679.990	11.324	1	learning	LS1	PICTURE_581.jpg	c
1691.314	7.858	0	learning	LS1	PICTURE_576.jpg	i
1699.172	8.557	1	learning	LS1	PICTURE_605.jpg	c
1707.729	9.416	1	learning	LS1	PICTURE_576.jpg	c
1717.145	8.036	1	learning	LS1	PICTURE_594.jpg	i
1725.181	11.620	1	learning	LS1	PICTURE_605.jpg	i
1736.801	7.527	0	learning	LS1	PICTURE_581.jpg	i
1744.328	10.472	0	learning	LS1	PICTURE_52.jpg	i
1754.800	11.664	1	learning	LS1	PICTURE_594.jpg	c
1766.464	8.219	1	learning	LS1	PICTURE_52.jpg	c
1774.683	10.309	1	learning	LS2	PICTURE_576.jpg	i
1784.992	7.183	1	learning	LS2	PICTURE_581.jpg	c
1792.175	6.457	0	learning	LS2	PICTURE_594.jpg	i
1798.632	6.697	1	learning	LS2	PICTURE_52.jpg	c
1805.329	6.129	1	learning	LS2	PICTURE_594.jpg	c
1811.458	7.329	1	learning	LS2	PICTURE_605.jpg	c
1818.787	8.688	1	learning	LS2	PICTURE_581.jpg	i
1827.475	8.609	1	learning	LS2	PICTURE_576.jpg	c
1836.084	8.529	1	learning	LS2	PICTURE_605.jpg	i
1844.613	7.968	1	learning	LS2	PICTURE_52.jpg	i
1852.581	7.510	1	learning	LS3	PICTURE_581.jpg	c
1860.091	6.790	1	learning	LS3	PICTURE_52.jpg	c
1866.881	7.989	1	learning	LS3	PICTURE_581.jpg	i
1874.870	6.450	1	learning	LS3	PICTURE_576.jpg	c
1881.320	10.027	0	learning	LS3	PICTURE_594.jpg	i
1891.347	8.800	1	learning	LS3	PICTURE_605.jpg	i
1900.147	7.579	1	learning	LS3	PICTURE_576.jpg	i
1907.726	6.839	1	learning	LS3	PICTURE_594.jpg	c
1914.565	6.899	1	learning	LS3	PICTURE_52.jpg	i
1921.464	7.445	1	learning	LS3	PICTURE_605.jpg	c
1928.909	8.571	1	learning	LS4	PICTURE_581.jpg	c
1937.480	7.364	1	learning	LS4	PICTURE_576.jpg	i
1944.844	7.278	1	learning	LS4	PICTURE_581.jpg	i
1952.122	8.790	1	learning	LS4	PICTURE_52.jpg	c
1960.912	7.265	1	learning	LS4	PICTURE_594.jpg	c
1968.177	6.699	1	learning	LS4	PICTURE_605.jpg	c
1974.876	7.411	1	learning	LS4	PICTURE_576.jpg	c
1982.287	7.170	1	learning	LS4	PICTURE_594.jpg	i
1989.457	7.251	1	learning	LS4	PICTURE_605.jpg	i
1996.708	7.804	1	learning	LS4	PICTURE_52.jpg	i
2004.512	8.858	1	control	LS1	PICTURE_498.jpg	c
2013.370	7.658	1	control	LS1	PICTURE_485.jpg	i
2021.028	9.956	1	control	LS1	PICTURE_350.jpg	c
2030.984	8.256	1	control	LS1	PICTURE_485.jpg	c
2039.240	9.274	1	control	LS1	PICTURE_418.jpg	i
2048.514	7.415	1	control	LS1	PICTURE_350.jpg	i
2055.929	8.114	1	control	LS1	PICTURE_549.jpg	c
2064.043	6.740	1	control	LS1	PICTURE_498.jpg	i
2070.783	8.566	1	control	LS1	PICTURE_418.jpg	c
2079.349	8.798	1	control	LS1	PICTURE_549.jpg	i
2088.147	6.732	1	control	LS2	PICTURE_498.jpg	c
2094.879	6.165	1	control	LS2	PICTURE_350.jpg	c
2101.044	7.039	1	control	LS2	PICTURE_418.jpg	i
2108.083	9.031	1	control	LS2	PICTURE_485.jpg	i
2117.114	7.665	1	control	LS2	PICTURE_418.jpg	c
2124.779	6.785	1	control	LS2	PICTURE_485.jpg	c
2131.564	7.823	1	control	LS2	PICTURE_549.jpg	i
2139.387	7.583	1	control	LS2	PICTURE_498.jpg	i
2146.970	7.335	1	control	LS2	PICTURE_549.jpg	c
2154.305	8.214	1	control	LS2	PICTURE_350.jpg	i
2162.519	7.433	1	control	LS3	PICTURE_314.jpg	i
2169.952	7.993	1	control	LS3	PICTURE_388.jpg	i
2177.945	9.833	1	control	LS3	PICTURE_663.jpg	i
2187.778	10.552	1	control	LS3	PICTURE_476.jpg	i
2198.330	7.748	1	control	LS3	PICTURE_552.jpg	i
2206.078	6.847	1	control	LS3	PICTURE_663.jpg	c
2212.925	7.706	1	control	LS3	PICTURE_314.jpg	c
2220.631	7.766	1	control	LS3	PICTURE_476.jpg	c
2228.397	9.104	1	control	LS3	PICTURE_552.jpg	c
2237.501	8.683	1	control	LS3	PICTURE_388.jpg	c
2246.184	9.649	1	control	LS4	PICTURE_388.jpg	i
2255.833	7.476	1	control	LS4	PICTURE_314.jpg	c
2263.309	8.827	1	control	LS4	PICTURE_552.jpg	i
2272.136	7.460	1	control	LS4	PICTURE_476.jpg	c
2279.596	6.734	1	control	LS4	PICTURE_552.jpg	c
2286.330	7.126	1	control	LS4	PICTURE_663.jpg	c
2293.456	7.519	1	control	LS4	PICTURE_388.jpg	c
2300.975	9.678	1	control	LS4	PICTURE_476.jpg	i
2310.653	7.991	1	control	LS4	PICTURE_314.jpg	i
2318.644	7.752	1	control	LS4	PICTURE_663.jpg	i
2326.396	7.933	0	learning	LS1	PICTURE_235.jpg	c
2334.329	10.251	1	learning	LS1	PICTURE_23.jpg	c
2344.580	8.732	1	learning	LS1	PICTURE_297.jpg	c
2353.312	7.685	0	learning	LS1	PICTURE_746.jpg	i
2360.997	11.123	1	learning	LS1	PICTURE_297.jpg	i
2372.120	9.124	1	learning	LS1	PICTURE_720.jpg	c
2381.244	10.004	1	learning	LS1	PICTURE_23.jpg	i
2391.248	9.584	0	learning	LS1	PICTURE_720.jpg	i
2400.832	9.965	1	learning	LS1	PICTURE_746.jpg	c
2410.797	9.067	1	learning	LS1	PICTURE_235.jpg	i
2419.864	8.418	1	learning	LS2	PICTURE_720.jpg	i
2428.282	8.324	1	learning	LS2	PICTURE_23.jpg	i
2436.606	9.990	1	learning	LS2	PICTURE_746.jpg	c
2446.596	9.103	1	learning	LS2	PICTURE_235.jpg	i
2455.699	12.055	1	learning	LS2	PICTURE_720.jpg	c
2467.754	9.728	0	learning	LS2	PICTURE_297.jpg	i
2477.482	7.721	1	learning	LS2	PICTURE_746.jpg	i
2485.203	7.315	1	learning	LS2	PICTURE_235.jpg	c
2492.518	8.188	1	learning	LS2	PICTURE_297.jpg	c
2500.706	8.742	1	learning	LS2	PICTURE_23.jpg	c
2509.448	8.753	1	learning	LS3	PICTURE_720.jpg	i
2518.201	7.073	1	learning	LS3	PICTURE_23.jpg	c
2525.274	7.153	1	learning	LS3	PICTURE_235.jpg	i
2532.427	11.711	1	learning	LS3	PICTURE_720.jpg	c
2544.138	6.992	1	learning	LS3	PICTURE_23.jpg	i
2551.130	7.551	1	learning	LS3	PICTURE_297.jpg	c
2558.681	11.310	1	learning	LS3	PICTURE_235.jpg	c
2569.991	6.745	1	learning	LS3	PICTURE_746.jpg	c
2576.736	7.145	1	learning	LS3	PICTURE_297.jpg	i
2583.881	9.936	1	learning	LS3	PICTURE_746.jpg	i
2593.817	7.529	1	learning	LS4	PICTURE_23.jpg	i
2601.346	7.909	1	learning	LS4	PICTURE_746.jpg	i
2609.255	8.128	1	learning	LS4	PICTURE_235.jpg	i
2617.383	7.554	1	learning	LS4	PICTURE_297.jpg	i
2624.937	7.780	1	learning	LS4	PICTURE_23.jpg	c
2632.717	7.366	1	learning	LS4	PICTURE_720.jpg	c
2640.083	6.960	1	learning	LS4	PICTURE_746.jpg	c
2647.043	7.513	1	learning	LS4	PICTURE_720.jpg	i
2654.556	6.305	1	learning	LS4	PICTURE_235.jpg	c
2660.861	7.338	1	learning	LS4	PICTURE_297.jpg	c
