onset	duration	accuracy_binary	trial_type	learning_stage	stimulus
21.175	0.88	0	learning	LS1	learning/PICTURE_15.jpg
25.774	0.982	1	learning	LS1	learning/PICTURE_508.jpg
30.373	1.021	1	learning	LS1	learning/PICTURE_95.jpg
34.956	0.836	1	learning	LS1	learning/PICTURE_15.jpg
39.539	0.971	1	learning	LS1	learning/PICTURE_95.jpg
44.122	1.106	1	learning	LS1	learning/PICTURE_480.jpg
48.705	0.841	0	learning	LS1	learning/PICTURE_508.jpg
53.287	0.753	0	learning	LS1	learning/PICTURE_488.jpg
57.87	1.368	1	learning	LS1	learning/PICTURE_480.jpg
62.436	1.343	1	learning	LS1	learning/PICTURE_488.jpg
71.518	0.898	1	learning	LS2	learning/PICTURE_480.jpg
76.084	0.794	1	learning	LS2	learning/PICTURE_15.jpg
80.65	0.93	1	learning	LS2	learning/PICTURE_95.jpg
85.233	0.937	1	learning	LS2	learning/PICTURE_508.jpg
89.799	1.009	1	learning	LS2	learning/PICTURE_488.jpg
94.365	0.873	1	learning	LS2	learning/PICTURE_95.jpg
98.948	0.672	1	learning	LS2	learning/PICTURE_15.jpg
103.514	1.128	1	learning	LS2	learning/PICTURE_480.jpg
108.097	0.815	1	learning	LS2	learning/PICTURE_488.jpg
112.713	0.773	1	learning	LS2	learning/PICTURE_508.jpg
121.862	0.756	1	learning	LS3	learning/PICTURE_480.jpg
126.478	0.698	1	learning	LS3	learning/PICTURE_508.jpg
131.077	0.688	1	learning	LS3	learning/PICTURE_15.jpg
135.677	0.647	1	learning	LS3	learning/PICTURE_488.jpg
140.276	0.797	1	learning	LS3	learning/PICTURE_480.jpg
144.859	0.677	1	learning	LS3	learning/PICTURE_95.jpg
149.442	0.668	1	learning	LS3	learning/PICTURE_15.jpg
154.024	0.707	1	learning	LS3	learning/PICTURE_488.jpg
158.607	0.571	1	learning	LS3	learning/PICTURE_95.jpg
163.19	0.738	1	learning	LS3	learning/PICTURE_508.jpg
172.289	0.707	1	learning	LS4	learning/PICTURE_508.jpg
176.855	0.651	1	learning	LS4	learning/PICTURE_15.jpg
181.421	0.739	1	learning	LS4	learning/PICTURE_480.jpg
185.987	0.827	1	learning	LS4	learning/PICTURE_488.jpg
190.553	0.819	1	learning	LS4	learning/PICTURE_508.jpg
195.119	0.747	1	learning	LS4	learning/PICTURE_480.jpg
199.685	0.707	1	learning	LS4	learning/PICTURE_15.jpg
204.251	0.778	1	learning	LS4	learning/PICTURE_95.jpg
208.817	0.658	1	learning	LS4	learning/PICTURE_488.jpg
213.383	0.618	1	learning	LS4	learning/PICTURE_95.jpg
240.63	1.248	0	learning	LS1	learning/PICTURE_462.jpg
245.246	1.414	0	learning	LS1	learning/PICTURE_400.jpg
249.845	1.548	0	learning	LS1	learning/PICTURE_21.jpg
254.445	1.715	1	learning	LS1	learning/PICTURE_405.jpg
259.028	0.762	1	learning	LS1	learning/PICTURE_21.jpg
263.61	0.849	0	learning	LS1	learning/PICTURE_400.jpg
268.193	0.873	0	learning	LS1	learning/PICTURE_402.jpg
272.776	0.976	1	learning	LS1	learning/PICTURE_405.jpg
277.359	1.351	1	learning	LS1	learning/PICTURE_402.jpg
281.941	1.022	1	learning	LS1	learning/PICTURE_462.jpg
291.04	0.719	1	learning	LS2	learning/PICTURE_462.jpg
295.606	0.695	1	learning	LS2	learning/PICTURE_405.jpg
300.172	0.814	1	learning	LS2	learning/PICTURE_400.jpg
304.755	0.55	0	learning	LS2	learning/PICTURE_402.jpg
309.321	0.813	1	learning	LS2	learning/PICTURE_405.jpg
313.887	0.805	1	learning	LS2	learning/PICTURE_21.jpg
318.47	0.78	1	learning	LS2	learning/PICTURE_400.jpg
323.036	0.74	1	learning	LS2	learning/PICTURE_21.jpg
327.602	0.812	1	learning	LS2	learning/PICTURE_462.jpg
332.202	0.723	1	learning	LS2	learning/PICTURE_402.jpg
341.351	0.866	1	learning	LS3	learning/PICTURE_400.jpg
345.967	0.728	1	learning	LS3	learning/PICTURE_462.jpg
350.583	0.75	1	learning	LS3	learning/PICTURE_405.jpg
355.182	0.741	1	learning	LS3	learning/PICTURE_462.jpg
359.781	0.683	1	learning	LS3	learning/PICTURE_21.jpg
364.381	1.281	1	learning	LS3	learning/PICTURE_402.jpg
368.964	0.873	1	learning	LS3	learning/PICTURE_405.jpg
373.546	0.688	1	learning	LS3	learning/PICTURE_402.jpg
378.129	0.728	1	learning	LS3	learning/PICTURE_21.jpg
382.712	0.735	1	learning	LS3	learning/PICTURE_400.jpg
391.811	0.816	0	learning	LS4	learning/PICTURE_462.jpg
396.394	0.919	1	learning	LS4	learning/PICTURE_400.jpg
400.96	0.719	1	learning	LS4	learning/PICTURE_462.jpg
405.526	0.695	1	learning	LS4	learning/PICTURE_405.jpg
410.108	0.926	1	learning	LS4	learning/PICTURE_400.jpg
414.675	n/a	n/a	learning	LS4	learning/PICTURE_402.jpg
419.241	0.814	1	learning	LS4	learning/PICTURE_21.jpg
423.807	0.934	1	learning	LS4	learning/PICTURE_405.jpg
428.389	0.685	1	learning	LS4	learning/PICTURE_21.jpg
432.955	0.757	1	learning	LS4	learning/PICTURE_402.jpg
460.185	1.131	0	learning	LS1	learning/PICTURE_599.jpg
464.818	0.865	1	learning	LS1	learning/PICTURE_741.jpg
469.418	1.127	0	learning	LS1	learning/PICTURE_43.jpg
474.017	0.974	1	learning	LS1	learning/PICTURE_247.jpg
478.6	0.821	0	learning	LS1	learning/PICTURE_610.jpg
483.182	1.372	0	learning	LS1	learning/PICTURE_741.jpg
487.765	0.931	1	learning	LS1	learning/PICTURE_247.jpg
492.348	0.922	1	learning	LS1	learning/PICTURE_610.jpg
496.931	0.929	1	learning	LS1	learning/PICTURE_599.jpg
501.513	0.761	1	learning	LS1	learning/PICTURE_43.jpg
510.612	0.794	1	learning	LS2	learning/PICTURE_610.jpg
515.178	0.69	1	learning	LS2	learning/PICTURE_599.jpg
519.761	0.665	1	learning	LS2	learning/PICTURE_247.jpg
524.327	0.849	1	learning	LS2	learning/PICTURE_741.jpg
528.893	0.745	1	learning	LS2	learning/PICTURE_247.jpg
533.459	0.769	1	learning	LS2	learning/PICTURE_610.jpg
538.025	1.113	1	learning	LS2	learning/PICTURE_599.jpg
542.591	0.833	1	learning	LS2	learning/PICTURE_43.jpg
547.158	0.697	1	learning	LS2	learning/PICTURE_741.jpg
551.724	0.657	1	learning	LS2	learning/PICTURE_43.jpg
560.822	0.77	1	learning	LS3	learning/PICTURE_741.jpg
565.439	0.744	1	learning	LS3	learning/PICTURE_599.jpg
570.055	0.59	1	learning	LS3	learning/PICTURE_247.jpg
574.671	0.724	1	learning	LS3	learning/PICTURE_599.jpg
579.287	1.145	1	learning	LS3	learning/PICTURE_43.jpg
583.886	0.752	1	learning	LS3	learning/PICTURE_610.jpg
588.486	0.727	1	learning	LS3	learning/PICTURE_741.jpg
593.085	0.749	1	learning	LS3	learning/PICTURE_43.jpg
597.668	0.645	1	learning	LS3	learning/PICTURE_247.jpg
602.251	0.7	1	learning	LS3	learning/PICTURE_610.jpg
611.349	0.861	1	learning	LS4	learning/PICTURE_43.jpg
615.932	0.692	1	learning	LS4	learning/PICTURE_247.jpg
620.515	0.7	1	learning	LS4	learning/PICTURE_741.jpg
625.098	0.691	1	learning	LS4	learning/PICTURE_610.jpg
629.664	0.923	1	learning	LS4	learning/PICTURE_247.jpg
634.23	0.835	1	learning	LS4	learning/PICTURE_599.jpg
638.796	0.795	1	learning	LS4	learning/PICTURE_741.jpg
643.362	0.77	1	learning	LS4	learning/PICTURE_610.jpg
647.945	0.682	1	learning	LS4	learning/PICTURE_43.jpg
652.511	0.642	1	learning	LS4	learning/PICTURE_599.jpg
679.724	1.16	1	control	LS1	control/PICTURE_286.jpg
684.34	0.766	1	control	LS1	control/PICTURE_430.jpg
688.956	0.868	1	control	LS1	control/PICTURE_292.jpg
693.556	0.747	1	control	LS1	control/PICTURE_2.jpg
698.155	0.929	1	control	LS1	control/PICTURE_430.jpg
702.754	0.552	1	control	LS1	control/PICTURE_2.jpg
707.337	0.895	1	control	LS1	control/PICTURE_718.jpg
711.92	0.695	1	control	LS1	control/PICTURE_292.jpg
716.503	0.766	1	control	LS1	control/PICTURE_286.jpg
721.085	0.805	1	control	LS1	control/PICTURE_718.jpg
730.184	0.886	1	control	LS2	control/PICTURE_292.jpg
734.767	0.702	1	control	LS2	control/PICTURE_286.jpg
739.35	0.741	1	control	LS2	control/PICTURE_430.jpg
743.916	0.669	1	control	LS2	control/PICTURE_2.jpg
748.482	0.629	1	control	LS2	control/PICTURE_718.jpg
753.065	0.732	1	control	LS2	control/PICTURE_292.jpg
757.631	0.82	1	control	LS2	control/PICTURE_286.jpg
762.197	0.796	1	control	LS2	control/PICTURE_430.jpg
766.763	0.788	1	control	LS2	control/PICTURE_2.jpg
771.346	0.747	1	control	LS2	control/PICTURE_718.jpg
780.428	0.813	1	control	LS3	control/PICTURE_134.jpg
785.061	0.722	1	control	LS3	control/PICTURE_98.jpg
789.677	0.952	1	control	LS3	control/PICTURE_733.jpg
794.293	0.702	1	control	LS3	control/PICTURE_731.jpg
798.909	0.692	1	control	LS3	control/PICTURE_733.jpg
803.525	0.682	1	control	LS3	control/PICTURE_645.jpg
808.124	0.689	1	control	LS3	control/PICTURE_98.jpg
812.724	0.711	1	control	LS3	control/PICTURE_645.jpg
817.307	0.767	1	control	LS3	control/PICTURE_731.jpg
821.889	0.918	1	control	LS3	control/PICTURE_134.jpg
830.988	0.791	1	control	LS4	control/PICTURE_134.jpg
835.571	0.654	1	control	LS4	control/PICTURE_98.jpg
840.154	0.694	1	control	LS4	control/PICTURE_731.jpg
844.736	0.653	1	control	LS4	control/PICTURE_134.jpg
849.319	1.012	1	control	LS4	control/PICTURE_645.jpg
853.885	0.716	1	control	LS4	control/PICTURE_731.jpg
858.451	0.788	1	control	LS4	control/PICTURE_645.jpg
863.034	0.875	1	control	LS4	control/PICTURE_733.jpg
867.6	0.755	1	control	LS4	control/PICTURE_98.jpg
872.166	0.747	1	control	LS4	control/PICTURE_733.jpg
899.363	1.107	1	learning	LS1	learning/PICTURE_53.jpg
903.995	0.824	1	learning	LS1	learning/PICTURE_703.jpg
908.611	0.942	0	learning	LS1	learning/PICTURE_220.jpg
913.228	0.82	1	learning	LS1	learning/PICTURE_216.jpg
917.827	1.179	1	learning	LS1	learning/PICTURE_703.jpg
922.426	1.041	1	learning	LS1	learning/PICTURE_695.jpg
927.026	1.048	0	learning	LS1	learning/PICTURE_220.jpg
931.609	1.023	1	learning	LS1	learning/PICTURE_53.jpg
936.191	0.855	1	learning	LS1	learning/PICTURE_695.jpg
940.774	0.91	0	learning	LS1	learning/PICTURE_216.jpg
949.873	1.455	0	learning	LS2	learning/PICTURE_703.jpg
954.456	0.758	1	learning	LS2	learning/PICTURE_695.jpg
959.038	0.926	1	learning	LS2	learning/PICTURE_53.jpg
963.621	0.709	1	learning	LS2	learning/PICTURE_220.jpg
968.204	0.844	1	learning	LS2	learning/PICTURE_53.jpg
972.77	1.124	0	learning	LS2	learning/PICTURE_216.jpg
977.336	0.764	1	learning	LS2	learning/PICTURE_695.jpg
981.902	0.724	1	learning	LS2	learning/PICTURE_703.jpg
986.485	0.828	1	learning	LS2	learning/PICTURE_216.jpg
991.051	0.692	1	learning	LS2	learning/PICTURE_220.jpg
1000.133	0.902	1	learning	LS3	learning/PICTURE_220.jpg
1004.716	0.877	1	learning	LS3	learning/PICTURE_53.jpg
1009.332	0.723	1	learning	LS3	learning/PICTURE_220.jpg
1013.948	0.841	1	learning	LS3	learning/PICTURE_703.jpg
1018.564	0.735	1	learning	LS3	learning/PICTURE_695.jpg
1023.18	0.677	1	learning	LS3	learning/PICTURE_703.jpg
1027.796	0.747	1	learning	LS3	learning/PICTURE_695.jpg
1032.396	0.737	1	learning	LS3	learning/PICTURE_216.jpg
1036.995	0.856	1	learning	LS3	learning/PICTURE_53.jpg
1041.578	0.735	1	learning	LS3	learning/PICTURE_216.jpg
1050.677	0.8	1	learning	LS4	learning/PICTURE_53.jpg
1055.259	0.808	1	learning	LS4	learning/PICTURE_220.jpg
1059.842	0.703	1	learning	LS4	learning/PICTURE_695.jpg
1064.425	0.695	1	learning	LS4	learning/PICTURE_216.jpg
1069.008	0.702	1	learning	LS4	learning/PICTURE_695.jpg
1073.591	0.741	1	learning	LS4	learning/PICTURE_703.jpg
1078.157	0.733	1	learning	LS4	learning/PICTURE_220.jpg
1082.723	0.901	1	learning	LS4	learning/PICTURE_703.jpg
1087.305	0.732	1	learning	LS4	learning/PICTURE_53.jpg
1091.871	0.804	1	learning	LS4	learning/PICTURE_216.jpg
1119.051	1.132	1	learning	LS1	learning/PICTURE_581.jpg
1123.684	0.786	0	learning	LS1	learning/PICTURE_576.jpg
1128.3	0.856	1	learning	LS1	learning/PICTURE_605.jpg
1132.916	0.942	1	learning	LS1	learning/PICTURE_576.jpg
1137.532	0.804	1	learning	LS1	learning/PICTURE_594.jpg
1142.132	1.162	1	learning	LS1	learning/PICTURE_605.jpg
1146.731	0.753	0	learning	LS1	learning/PICTURE_581.jpg
1151.331	1.047	0	learning	LS1	learning/PICTURE_52.jpg
1155.913	1.166	1	learning	LS1	learning/PICTURE_594.jpg
1160.496	0.822	1	learning	LS1	learning/PICTURE_52.jpg
1169.595	1.031	1	learning	LS2	learning/PICTURE_576.jpg
1174.178	0.718	1	learning	LS2	learning/PICTURE_581.jpg
1178.76	0.646	0	learning	LS2	learning/PICTURE_594.jpg
1183.326	0.67	1	learning	LS2	learning/PICTURE_52.jpg
1187.909	0.613	1	learning	LS2	learning/PICTURE_594.jpg
1192.475	0.733	1	learning	LS2	learning/PICTURE_605.jpg
1197.041	0.869	1	learning	LS2	learning/PICTURE_581.jpg
1201.608	0.861	1	learning	LS2	learning/PICTURE_576.jpg
1206.174	0.853	1	learning	LS2	learning/PICTURE_605.jpg
1210.74	0.797	1	learning	LS2	learning/PICTURE_52.jpg
1219.822	0.751	1	learning	LS3	learning/PICTURE_581.jpg
1224.388	0.679	1	learning	LS3	learning/PICTURE_52.jpg
1228.954	0.799	1	learning	LS3	learning/PICTURE_581.jpg
1233.57	0.645	1	learning	LS3	learning/PICTURE_576.jpg
1238.186	1.003	0	learning	LS3	learning/PICTURE_594.jpg
1242.819	0.88	1	learning	LS3	learning/PICTURE_605.jpg
1247.435	0.758	1	learning	LS3	learning/PICTURE_576.jpg
1252.051	0.684	1	learning	LS3	learning/PICTURE_594.jpg
1256.65	0.69	1	learning	LS3	learning/PICTURE_52.jpg
1261.25	0.745	1	learning	LS3	learning/PICTURE_605.jpg
1270.365	0.857	1	learning	LS4	learning/PICTURE_581.jpg
1274.948	0.737	1	learning	LS4	learning/PICTURE_576.jpg
1279.531	0.728	1	learning	LS4	learning/PICTURE_581.jpg
1284.114	0.879	1	learning	LS4	learning/PICTURE_52.jpg
1288.696	0.727	1	learning	LS4	learning/PICTURE_594.jpg
1293.279	0.67	1	learning	LS4	learning/PICTURE_605.jpg
1297.862	0.741	1	learning	LS4	learning/PICTURE_576.jpg
1302.428	0.717	1	learning	LS4	learning/PICTURE_594.jpg
1306.994	0.725	1	learning	LS4	learning/PICTURE_605.jpg
1311.577	0.78	1	learning	LS4	learning/PICTURE_52.jpg
1338.74	0.886	1	control	LS1	control/PICTURE_498.jpg
1343.306	0.766	1	control	LS1	control/PICTURE_485.jpg
1347.922	0.996	1	control	LS1	control/PICTURE_350.jpg
1352.538	0.826	1	control	LS1	control/PICTURE_485.jpg
1357.154	0.927	1	control	LS1	control/PICTURE_418.jpg
1361.77	0.742	1	control	LS1	control/PICTURE_350.jpg
1366.386	0.811	1	control	LS1	control/PICTURE_549.jpg
1370.986	0.674	1	control	LS1	control/PICTURE_498.jpg
1375.585	0.857	1	control	LS1	control/PICTURE_418.jpg
1380.168	0.88	1	control	LS1	control/PICTURE_549.jpg
1389.267	0.673	1	control	LS2	control/PICTURE_498.jpg
1393.85	0.617	1	control	LS2	control/PICTURE_350.jpg
1398.432	0.704	1	control	LS2	control/PICTURE_418.jpg
1403.015	0.903	1	control	LS2	control/PICTURE_485.jpg
1407.598	0.766	1	control	LS2	control/PICTURE_418.jpg
1412.164	0.678	1	control	LS2	control/PICTURE_485.jpg
1416.73	0.782	1	control	LS2	control/PICTURE_549.jpg
1421.296	0.758	1	control	LS2	control/PICTURE_498.jpg
1425.879	0.734	1	control	LS2	control/PICTURE_549.jpg
1430.445	0.822	1	control	LS2	control/PICTURE_350.jpg
1439.527	0.743	1	control	LS3	control/PICTURE_314.jpg
1444.093	0.799	1	control	LS3	control/PICTURE_388.jpg
1448.659	0.983	1	control	LS3	control/PICTURE_663.jpg
1453.225	1.055	1	control	LS3	control/PICTURE_476.jpg
1457.808	0.775	1	control	LS3	control/PICTURE_552.jpg
1462.424	0.685	1	control	LS3	control/PICTURE_663.jpg
1467.04	0.771	1	control	LS3	control/PICTURE_314.jpg
1471.656	0.776	1	control	LS3	control/PICTURE_476.jpg
1476.272	0.91	1	control	LS3	control/PICTURE_552.jpg
1480.889	0.868	1	control	LS3	control/PICTURE_388.jpg
1490.004	0.965	1	control	LS4	control/PICTURE_388.jpg
1494.603	0.748	1	control	LS4	control/PICTURE_314.jpg
1499.186	0.883	1	control	LS4	control/PICTURE_552.jpg
1503.769	0.746	1	control	LS4	control/PICTURE_476.jpg
1508.352	0.673	1	control	LS4	control/PICTURE_552.jpg
1512.934	0.713	1	control	LS4	control/PICTURE_663.jpg
1517.517	0.752	1	control	LS4	control/PICTURE_388.jpg
1522.083	0.968	1	control	LS4	control/PICTURE_476.jpg
1526.666	0.799	1	control	LS4	control/PICTURE_314.jpg
1531.232	0.775	1	control	LS4	control/PICTURE_663.jpg
1540.314	0.793	0	learning	LS1	learning/PICTURE_235.jpg
1544.88	1.025	1	learning	LS1	learning/PICTURE_23.jpg
1549.446	0.873	1	learning	LS1	learning/PICTURE_297.jpg
1554.029	0.768	0	learning	LS1	learning/PICTURE_746.jpg
1558.595	1.112	1	learning	LS1	learning/PICTURE_297.jpg
1563.161	0.912	1	learning	LS1	learning/PICTURE_720.jpg
1567.727	1.0	1	learning	LS1	learning/PICTURE_23.jpg
1572.343	0.958	0	learning	LS1	learning/PICTURE_720.jpg
1576.96	0.997	1	learning	LS1	learning/PICTURE_746.jpg
1581.575	0.907	1	learning	LS1	learning/PICTURE_235.jpg
1590.725	0.842	1	learning	LS2	learning/PICTURE_720.jpg
1595.324	0.832	1	learning	LS2	learning/PICTURE_23.jpg
1599.923	0.999	1	learning	LS2	learning/PICTURE_746.jpg
1604.506	0.91	1	learning	LS2	learning/PICTURE_235.jpg
1609.089	1.206	1	learning	LS2	learning/PICTURE_720.jpg
1613.672	0.973	0	learning	LS2	learning/PICTURE_297.jpg
1618.254	0.772	1	learning	LS2	learning/PICTURE_746.jpg
1622.837	0.732	1	learning	LS2	learning/PICTURE_235.jpg
1627.42	0.819	1	learning	LS2	learning/PICTURE_297.jpg
1632.003	0.874	1	learning	LS2	learning/PICTURE_23.jpg
1641.101	0.875	1	learning	LS3	learning/PICTURE_720.jpg
1645.668	0.707	1	learning	LS3	learning/PICTURE_23.jpg
1650.234	0.715	1	learning	LS3	learning/PICTURE_235.jpg
1654.8	1.171	1	learning	LS3	learning/PICTURE_720.jpg
1659.366	0.699	1	learning	LS3	learning/PICTURE_23.jpg
1663.932	0.755	1	learning	LS3	learning/PICTURE_297.jpg
1668.498	1.131	1	learning	LS3	learning/PICTURE_235.jpg
1673.081	0.674	1	learning	LS3	learning/PICTURE_746.jpg
1677.647	0.715	1	learning	LS3	learning/PICTURE_297.jpg
1682.229	0.994	1	learning	LS3	learning/PICTURE_746.jpg
1691.378	0.753	1	learning	LS4	learning/PICTURE_23.jpg
1695.994	0.791	1	learning	LS4	learning/PICTURE_746.jpg
1700.611	0.813	1	learning	LS4	learning/PICTURE_235.jpg
1705.21	0.755	1	learning	LS4	learning/PICTURE_297.jpg
1709.809	0.778	1	learning	LS4	learning/PICTURE_23.jpg
1714.409	0.737	1	learning	LS4	learning/PICTURE_720.jpg
1718.992	0.696	1	learning	LS4	learning/PICTURE_746.jpg
1723.574	0.751	1	learning	LS4	learning/PICTURE_720.jpg
1728.157	0.63	1	learning	LS4	learning/PICTURE_235.jpg
1732.74	0.734	1	learning	LS4	learning/PICTURE_297.jpg
