onset	duration	accuracy_binary	trial_type	learning_stage	stimulus
0.0	1.122	1	generate	Run1	generate/STIM_000.jpg
3.138	1.982	1	generate	Run1	generate/STIM_000.jpg
8.925	0.876	0	generate	Run1	generate/STIM_000.jpg
13.456	1.309	1	generate	Run1	generate/STIM_000.jpg
17.415	1.091	0	generate	Run1	generate/STIM_000.jpg
20.633	2.075	0	generate	Run1	generate/STIM_001.jpg
25.469	0.885	1	generate	Run1	generate/STIM_001.jpg
30.15	1.835	1	generate	Run1	generate/STIM_001.jpg
34.416	0.98	1	generate	Run1	generate/STIM_001.jpg
38.503	0.92	0	generate	Run1	generate/STIM_001.jpg
43.368	1.058	1	generate	Run1	generate/STIM_002.jpg
47.976	1.334	0	generate	Run1	generate/STIM_002.jpg
51.376	0.915	1	generate	Run1	generate/STIM_002.jpg
54.42	1.723	1	generate	Run1	generate/STIM_002.jpg
58.147	0.773	1	generate	Run1	generate/STIM_002.jpg
62.317	0.995	1	generate	Run1	generate/STIM_003.jpg
65.853	1.55	1	generate	Run1	generate/STIM_003.jpg
69.841	1.151	1	generate	Run1	generate/STIM_003.jpg
73.753	1.556	0	generate	Run1	generate/STIM_003.jpg
77.489	0.832	0	generate	Run1	generate/STIM_003.jpg
81.964	1.233	1	generate	Run1	generate/STIM_004.jpg
86.496	2.01	0	generate	Run1	generate/STIM_004.jpg
91.175	1.51	1	generate	Run1	generate/STIM_004.jpg
95.442	1.201	0	generate	Run1	generate/STIM_004.jpg
98.914	0.818	0	generate	Run1	generate/STIM_004.jpg
101.89	1.482	1	generate	Run1	generate/STIM_005.jpg
106.538	0.851	1	generate	Run1	generate/STIM_005.jpg
109.608	1.349	1	generate	Run1	generate/STIM_005.jpg
114.852	1.225	1	generate	Run1	generate/STIM_005.jpg
118.205	0.868	1	generate	Run1	generate/STIM_005.jpg
121.18	1.694	0	generate	Run1	generate/STIM_006.jpg
126.038	1.167	1	generate	Run1	generate/STIM_006.jpg
129.302	1.066	0	generate	Run1	generate/STIM_006.jpg
132.396	0.89	1	generate	Run1	generate/STIM_006.jpg
136.901	1.461	1	generate	Run1	generate/STIM_006.jpg
140.716	1.493	1	generate	Run1	generate/STIM_007.jpg
145.692	1.905	1	generate	Run1	generate/STIM_007.jpg
150.455	1.734	0	generate	Run1	generate/STIM_007.jpg
155.426	1.707	1	generate	Run1	generate/STIM_007.jpg
159.771	1.671	0	generate	Run1	generate/STIM_007.jpg
163.923	0.98	1	generate	Run1	generate/STIM_008.jpg
167.307	1.456	0	generate	Run1	generate/STIM_008.jpg
170.905	0.964	0	generate	Run1	generate/STIM_008.jpg
175.546	0.847	1	generate	Run1	generate/STIM_008.jpg
178.47	1.522	1	generate	Run1	generate/STIM_008.jpg
182.36	1.186	1	generate	Run1	generate/STIM_009.jpg
186.573	0.961	1	generate	Run1	generate/STIM_009.jpg
190.528	1.667	1	generate	Run1	generate/STIM_009.jpg
194.642	1.597	1	generate	Run1	generate/STIM_009.jpg
199.622	1.251	1	generate	Run1	generate/STIM_009.jpg
203.837	0.986	0	generate	Run1	generate/STIM_010.jpg
207.757	1.364	1	generate	Run1	generate/STIM_010.jpg
211.948	1.68	1	generate	Run1	generate/STIM_010.jpg
216.97	1.59	0	generate	Run1	generate/STIM_010.jpg
222.512	1.168	0	generate	Run1	generate/STIM_010.jpg
225.75	1.208	0	generate	Run1	generate/STIM_011.jpg
229.569	1.225	1	generate	Run1	generate/STIM_011.jpg
233.95	1.306	1	generate	Run1	generate/STIM_011.jpg
237.525	1.26	0	generate	Run1	generate/STIM_011.jpg
241.579	0.955	0	generate	Run1	generate/STIM_011.jpg
245.971	2.075	1	generate	Run1	generate/STIM_012.jpg
251.358	1.332	1	generate	Run1	generate/STIM_012.jpg
254.82	0.932	0	generate	Run1	generate/STIM_012.jpg
258.085	0.88	1	generate	Run1	generate/STIM_012.jpg
262.044	1.572	1	generate	Run1	generate/STIM_012.jpg
266.564	1.306	0	generate	Run1	generate/STIM_013.jpg
271.211	1.062	1	generate	Run1	generate/STIM_013.jpg
274.591	1.634	1	generate	Run1	generate/STIM_013.jpg
279.275	0.768	1	generate	Run1	generate/STIM_013.jpg
282.834	0.724	1	generate	Run1	generate/STIM_013.jpg
287.171	1.92	1	generate	Run1	generate/STIM_014.jpg
292.525	1.522	1	generate	Run1	generate/STIM_014.jpg
296.585	0.878	0	generate	Run1	generate/STIM_014.jpg
301.332	1.01	1	generate	Run1	generate/STIM_014.jpg
305.298	1.179	1	generate	Run1	generate/STIM_014.jpg
308.893	1.822	0	generate	Run1	generate/STIM_015.jpg
314.454	0.89	1	generate	Run1	generate/STIM_015.jpg
317.844	1.504	1	generate	Run1	generate/STIM_015.jpg
322.822	1.826	1	generate	Run1	generate/STIM_015.jpg
327.479	1.101	1	generate	Run1	generate/STIM_015.jpg
331.163	1.364	1	generate	Run1	generate/STIM_016.jpg
334.794	0.865	0	generate	Run1	generate/STIM_016.jpg
338.092	0.968	1	generate	Run1	generate/STIM_016.jpg
342.849	1.193	1	generate	Run1	generate/STIM_016.jpg
347.298	1.141	1	generate	Run1	generate/STIM_016.jpg
352.294	2.175	1	generate	Run1	generate/STIM_017.jpg
356.71	1.728	0	generate	Run1	generate/STIM_017.jpg
361.623	1.374	0	generate	Run1	generate/STIM_017.jpg
365.305	0.905	1	generate	Run1	generate/STIM_017.jpg
369.736	0.81	0	generate	Run1	generate/STIM_017.jpg
372.804	2.094	0	generate	Run1	generate/STIM_018.jpg
377.704	1.14	1	generate	Run1	generate/STIM_018.jpg
382.597	1.219	1	generate	Run1	generate/STIM_018.jpg
385.998	1.196	1	generate	Run1	generate/STIM_018.jpg
389.936	0.795	1	generate	Run1	generate/STIM_018.jpg
393.267	1.9	0	generate	Run1	generate/STIM_019.jpg
398.548	1.231	0	generate	Run1	generate/STIM_019.jpg
402.783	1.775	0	generate	Run1	generate/STIM_019.jpg
407.734	1.679	0	generate	Run1	generate/STIM_019.jpg
411.596	0.943	1	generate	Run1	generate/STIM_019.jpg
415.196	1.116	1	generate	Run1	generate/STIM_020.jpg
419.548	1.418	0	generate	Run1	generate/STIM_020.jpg
423.95	1.868	1	generate	Run1	generate/STIM_020.jpg
428.681	1.665	0	generate	Run1	generate/STIM_020.jpg
432.739	1.274	1	generate	Run1	generate/STIM_020.jpg
436.997	1.742	1	generate	Run1	generate/STIM_021.jpg
441.868	1.019	1	generate	Run1	generate/STIM_021.jpg
445.766	1.065	1	generate	Run1	generate/STIM_021.jpg
450.591	1.089	1	generate	Run1	generate/STIM_021.jpg
454.463	0.742	1	generate	Run1	generate/STIM_021.jpg
457.588	1.178	1	generate	Run1	generate/STIM_022.jpg
461.92	1.389	1	generate	Run1	generate/STIM_022.jpg
467.057	1.764	1	generate	Run1	generate/STIM_022.jpg
471.788	1.577	1	generate	Run1	generate/STIM_022.jpg
476.08	1.428	1	generate	Run1	generate/STIM_022.jpg
480.028	1.159	1	generate	Run1	generate/STIM_023.jpg
484.059	1.488	0	generate	Run1	generate/STIM_023.jpg
488.351	0.902	1	generate	Run1	generate/STIM_023.jpg
491.827	1.334	0	generate	Run1	generate/STIM_023.jpg
496.289	1.724	1	generate	Run1	generate/STIM_023.jpg
500.904	1.544	0	generate	Run1	generate/STIM_024.jpg
504.941	1.653	0	generate	Run1	generate/STIM_024.jpg
509.417	1.495	1	generate	Run1	generate/STIM_024.jpg
514.466	0.875	1	generate	Run1	generate/STIM_024.jpg
518.732	0.873	1	generate	Run1	generate/STIM_024.jpg
522.952	0.676	1	repeat	Run1	repeat/STIM_000.jpg
526.769	0.439	1	repeat	Run1	repeat/STIM_000.jpg
530.371	0.528	1	repeat	Run1	repeat/STIM_000.jpg
534.223	0.558	1	repeat	Run1	repeat/STIM_000.jpg
538.709	0.579	1	repeat	Run1	repeat/STIM_000.jpg
542.662	0.439	1	repeat	Run1	repeat/STIM_001.jpg
546.595	0.642	0	repeat	Run1	repeat/STIM_001.jpg
549.443	0.376	1	repeat	Run1	repeat/STIM_001.jpg
552.609	0.66	1	repeat	Run1	repeat/STIM_001.jpg
556.808	0.552	1	repeat	Run1	repeat/STIM_001.jpg
559.644	0.595	1	repeat	Run1	repeat/STIM_002.jpg
562.395	0.611	1	repeat	Run1	repeat/STIM_002.jpg
565.073	0.728	1	repeat	Run1	repeat/STIM_002.jpg
568.167	0.627	1	repeat	Run1	repeat/STIM_002.jpg
571.436	0.599	1	repeat	Run1	repeat/STIM_002.jpg
574.695	0.708	1	repeat	Run1	repeat/STIM_003.jpg
578.438	0.451	1	repeat	Run1	repeat/STIM_003.jpg
582.718	0.57	1	repeat	Run1	repeat/STIM_003.jpg
585.999	0.409	1	repeat	Run1	repeat/STIM_003.jpg
590.291	0.613	1	repeat	Run1	repeat/STIM_003.jpg
594.512	0.695	1	repeat	Run1	repeat/STIM_004.jpg
597.821	0.609	1	repeat	Run1	repeat/STIM_004.jpg
601.223	0.442	1	repeat	Run1	repeat/STIM_004.jpg
604.218	0.392	1	repeat	Run1	repeat/STIM_004.jpg
607.669	0.635	1	repeat	Run1	repeat/STIM_004.jpg
611.889	0.732	0	repeat	Run1	repeat/STIM_005.jpg
615.362	0.659	1	repeat	Run1	repeat/STIM_005.jpg
618.627	0.496	1	repeat	Run1	repeat/STIM_005.jpg
621.206	0.682	1	repeat	Run1	repeat/STIM_005.jpg
625.721	0.598	1	repeat	Run1	repeat/STIM_005.jpg
629.636	0.591	1	repeat	Run1	repeat/STIM_006.jpg
632.829	0.37	1	repeat	Run1	repeat/STIM_006.jpg
636.28	0.563	1	repeat	Run1	repeat/STIM_006.jpg
639.995	0.549	0	repeat	Run1	repeat/STIM_006.jpg
644.534	0.45	1	repeat	Run1	repeat/STIM_006.jpg
648.94	0.628	1	repeat	Run1	repeat/STIM_007.jpg
653.526	0.403	1	repeat	Run1	repeat/STIM_007.jpg
656.736	0.53	1	repeat	Run1	repeat/STIM_007.jpg
660.015	0.476	0	repeat	Run1	repeat/STIM_007.jpg
664.289	0.644	1	repeat	Run1	repeat/STIM_007.jpg
666.989	0.548	1	repeat	Run1	repeat/STIM_008.jpg
671.329	0.497	1	repeat	Run1	repeat/STIM_008.jpg
673.916	0.437	1	repeat	Run1	repeat/STIM_008.jpg
676.97	0.559	1	repeat	Run1	repeat/STIM_008.jpg
679.943	0.678	1	repeat	Run1	repeat/STIM_008.jpg
683.469	0.682	1	repeat	Run1	repeat/STIM_009.jpg
686.524	0.386	1	repeat	Run1	repeat/STIM_009.jpg
690.499	0.585	1	repeat	Run1	repeat/STIM_009.jpg
694.826	0.495	1	repeat	Run1	repeat/STIM_009.jpg
698.983	0.662	1	repeat	Run1	repeat/STIM_009.jpg
702.208	0.528	0	repeat	Run1	repeat/STIM_010.jpg
704.918	0.38	1	repeat	Run1	repeat/STIM_010.jpg
708.642	0.444	1	repeat	Run1	repeat/STIM_010.jpg
712.405	0.417	1	repeat	Run1	repeat/STIM_010.jpg
716.004	0.669	1	repeat	Run1	repeat/STIM_010.jpg
720.27	0.591	1	repeat	Run1	repeat/STIM_011.jpg
724.596	0.638	1	repeat	Run1	repeat/STIM_011.jpg
727.765	0.536	0	repeat	Run1	repeat/STIM_011.jpg
731.524	0.378	1	repeat	Run1	repeat/STIM_011.jpg
733.905	0.722	1	repeat	Run1	repeat/STIM_011.jpg
737.68	0.375	1	repeat	Run1	repeat/STIM_012.jpg
741.665	0.441	1	repeat	Run1	repeat/STIM_012.jpg
744.737	0.389	0	repeat	Run1	repeat/STIM_012.jpg
747.296	0.517	1	repeat	Run1	repeat/STIM_012.jpg
749.94	0.645	1	repeat	Run1	repeat/STIM_012.jpg
753.968	0.547	1	repeat	Run1	repeat/STIM_013.jpg
758.262	0.59	1	repeat	Run1	repeat/STIM_013.jpg
762.284	0.437	1	repeat	Run1	repeat/STIM_013.jpg
766.09	0.562	1	repeat	Run1	repeat/STIM_013.jpg
770.004	0.512	1	repeat	Run1	repeat/STIM_013.jpg
773.848	0.614	0	repeat	Run1	repeat/STIM_014.jpg
777.257	0.716	1	repeat	Run1	repeat/STIM_014.jpg
780.43	0.462	1	repeat	Run1	repeat/STIM_014.jpg
783.716	0.633	1	repeat	Run1	repeat/STIM_014.jpg
787.941	0.401	1	repeat	Run1	repeat/STIM_014.jpg
791.533	1.388	1	generate	Run2	generate/STIM_000.jpg
796.826	0.734	1	generate	Run2	generate/STIM_000.jpg
801.402	1.65	1	generate	Run2	generate/STIM_000.jpg
806.894	0.727	1	generate	Run2	generate/STIM_000.jpg
810.044	1.087	0	generate	Run2	generate/STIM_000.jpg
813.934	1.215	1	generate	Run2	generate/STIM_001.jpg
818.15	1.458	0	generate	Run2	generate/STIM_001.jpg
822.241	1.586	1	generate	Run2	generate/STIM_001.jpg
827.42	0.672	1	generate	Run2	generate/STIM_001.jpg
831.946	1.274	1	generate	Run2	generate/STIM_001.jpg
836.727	1.194	1	generate	Run2	generate/STIM_002.jpg
841.451	0.778	1	generate	Run2	generate/STIM_002.jpg
845.014	1.52	1	generate	Run2	generate/STIM_002.jpg
849.471	1.404	1	generate	Run2	generate/STIM_002.jpg
854.768	1.49	1	generate	Run2	generate/STIM_002.jpg
858.893	0.988	1	generate	Run2	generate/STIM_003.jpg
862.59	0.714	0	generate	Run2	generate/STIM_003.jpg
866.292	1.591	1	generate	Run2	generate/STIM_003.jpg
871.162	1.267	1	generate	Run2	generate/STIM_003.jpg
874.457	0.625	1	generate	Run2	generate/STIM_003.jpg
878.333	0.829	1	generate	Run2	generate/STIM_004.jpg
881.953	1.012	1	generate	Run2	generate/STIM_004.jpg
885.043	1.214	1	generate	Run2	generate/STIM_004.jpg
888.776	1.436	1	generate	Run2	generate/STIM_004.jpg
893.35	1.05	1	generate	Run2	generate/STIM_004.jpg
897.568	1.813	0	generate	Run2	generate/STIM_005.jpg
901.699	1.376	0	generate	Run2	generate/STIM_005.jpg
905.742	0.806	0	generate	Run2	generate/STIM_005.jpg
908.984	1.155	1	generate	Run2	generate/STIM_005.jpg
912.353	0.628	0	generate	Run2	generate/STIM_005.jpg
916.969	1.611	0	generate	Run2	generate/STIM_006.jpg
922.481	1.5	1	generate	Run2	generate/STIM_006.jpg
927.138	0.671	1	generate	Run2	generate/STIM_006.jpg
930.347	1.229	0	generate	Run2	generate/STIM_006.jpg
934.209	0.756	1	generate	Run2	generate/STIM_006.jpg
938.594	1.778	1	generate	Run2	generate/STIM_007.jpg
943.962	1.176	1	generate	Run2	generate/STIM_007.jpg
948.319	0.717	1	generate	Run2	generate/STIM_007.jpg
952.044	1.518	0	generate	Run2	generate/STIM_007.jpg
956.704	1.504	0	generate	Run2	generate/STIM_007.jpg
961.532	1.319	1	generate	Run2	generate/STIM_008.jpg
966.137	1.508	0	generate	Run2	generate/STIM_008.jpg
970.41	0.833	1	generate	Run2	generate/STIM_008.jpg
973.952	0.875	0	generate	Run2	generate/STIM_008.jpg
977.319	0.752	1	generate	Run2	generate/STIM_008.jpg
980.951	1.402	0	generate	Run2	generate/STIM_009.jpg
986.099	1.313	0	generate	Run2	generate/STIM_009.jpg
991.401	0.778	1	generate	Run2	generate/STIM_009.jpg
995.593	0.73	1	generate	Run2	generate/STIM_009.jpg
1000.256	1.279	0	generate	Run2	generate/STIM_009.jpg
1003.992	0.88	1	generate	Run2	generate/STIM_010.jpg
1007.917	0.839	1	generate	Run2	generate/STIM_010.jpg
1012.276	0.864	0	generate	Run2	generate/STIM_010.jpg
1016.759	1.205	1	generate	Run2	generate/STIM_010.jpg
1020.386	1.15	1	generate	Run2	generate/STIM_010.jpg
1023.932	0.976	1	generate	Run2	generate/STIM_011.jpg
1028.71	1.758	0	generate	Run2	generate/STIM_011.jpg
1033.787	0.8	1	generate	Run2	generate/STIM_011.jpg
1036.611	0.997	1	generate	Run2	generate/STIM_011.jpg
1039.624	1.03	1	generate	Run2	generate/STIM_011.jpg
1042.665	1.298	1	generate	Run2	generate/STIM_012.jpg
1047.825	1.487	1	generate	Run2	generate/STIM_012.jpg
1052.809	0.902	1	generate	Run2	generate/STIM_012.jpg
1056.594	0.823	1	generate	Run2	generate/STIM_012.jpg
1060.741	0.786	1	generate	Run2	generate/STIM_012.jpg
1064.586	1.495	1	generate	Run2	generate/STIM_013.jpg
1068.709	1.595	1	generate	Run2	generate/STIM_013.jpg
1073.421	1.083	1	generate	Run2	generate/STIM_013.jpg
1078.307	1.065	1	generate	Run2	generate/STIM_013.jpg
1082.681	1.043	1	generate	Run2	generate/STIM_013.jpg
1085.808	1.786	1	generate	Run2	generate/STIM_014.jpg
1091.46	0.772	0	generate	Run2	generate/STIM_014.jpg
1094.351	1.227	1	generate	Run2	generate/STIM_014.jpg
1099.56	1.342	1	generate	Run2	generate/STIM_014.jpg
1103.158	0.97	1	generate	Run2	generate/STIM_014.jpg
1107.587	0.781	1	generate	Run2	generate/STIM_015.jpg
1111.635	1.26	0	generate	Run2	generate/STIM_015.jpg
1115.976	1.334	1	generate	Run2	generate/STIM_015.jpg
1119.936	1.431	1	generate	Run2	generate/STIM_015.jpg
1125.293	1.123	1	generate	Run2	generate/STIM_015.jpg
1129.624	0.978	1	generate	Run2	generate/STIM_016.jpg
1133.458	1.304	1	generate	Run2	generate/STIM_016.jpg
1137.04	0.82	1	generate	Run2	generate/STIM_016.jpg
1140.124	1.14	1	generate	Run2	generate/STIM_016.jpg
1143.947	0.73	1	generate	Run2	generate/STIM_016.jpg
1146.744	1.152	1	generate	Run2	generate/STIM_017.jpg
1150.759	1.592	1	generate	Run2	generate/STIM_017.jpg
1155.197	1.282	1	generate	Run2	generate/STIM_017.jpg
1160.303	1.542	0	generate	Run2	generate/STIM_017.jpg
1164.184	1.23	1	generate	Run2	generate/STIM_017.jpg
1168.694	1.529	1	generate	Run2	generate/STIM_018.jpg
1172.691	1.651	1	generate	Run2	generate/STIM_018.jpg
1177.417	0.908	1	generate	Run2	generate/STIM_018.jpg
1181.406	1.422	1	generate	Run2	generate/STIM_018.jpg
1185.264	1.162	0	generate	Run2	generate/STIM_018.jpg
1189.951	1.017	0	generate	Run2	generate/STIM_019.jpg
1193.324	1.645	1	generate	Run2	generate/STIM_019.jpg
1198.375	0.824	0	generate	Run2	generate/STIM_019.jpg
1201.762	0.942	0	generate	Run2	generate/STIM_019.jpg
1204.837	0.789	0	generate	Run2	generate/STIM_019.jpg
1207.673	1.169	1	generate	Run2	generate/STIM_020.jpg
1211.34	1.101	1	generate	Run2	generate/STIM_020.jpg
1215.174	1.609	1	generate	Run2	generate/STIM_020.jpg
1219.676	1.41	1	generate	Run2	generate/STIM_020.jpg
1223.406	1.464	1	generate	Run2	generate/STIM_020.jpg
1227.908	0.897	1	generate	Run2	generate/STIM_021.jpg
1232.665	0.789	1	generate	Run2	generate/STIM_021.jpg
1236.975	1.384	1	generate	Run2	generate/STIM_021.jpg
1240.424	1.225	0	generate	Run2	generate/STIM_021.jpg
1244.788	1.198	1	generate	Run2	generate/STIM_021.jpg
1248.894	1.125	1	generate	Run2	generate/STIM_022.jpg
1253.711	0.933	1	generate	Run2	generate/STIM_022.jpg
1257.681	0.98	1	generate	Run2	generate/STIM_022.jpg
1261.158	0.851	1	generate	Run2	generate/STIM_022.jpg
1264.204	1.103	0	generate	Run2	generate/STIM_022.jpg
1268.116	1.432	1	generate	Run2	generate/STIM_023.jpg
1272.169	0.862	1	generate	Run2	generate/STIM_023.jpg
1275.073	1.376	0	generate	Run2	generate/STIM_023.jpg
1279.297	0.82	1	generate	Run2	generate/STIM_023.jpg
1282.278	1.471	1	generate	Run2	generate/STIM_023.jpg
1286.17	1.55	1	generate	Run2	generate/STIM_024.jpg
1290.153	1.343	1	generate	Run2	generate/STIM_024.jpg
1294.301	1.334	0	generate	Run2	generate/STIM_024.jpg
1298.09	1.535	1	generate	Run2	generate/STIM_024.jpg
1302.635	0.672	0	generate	Run2	generate/STIM_024.jpg
1306.869	0.538	1	repeat	Run2	repeat/STIM_000.jpg
1311.246	0.667	1	repeat	Run2	repeat/STIM_000.jpg
1315.304	0.623	1	repeat	Run2	repeat/STIM_000.jpg
1318.947	0.533	1	repeat	Run2	repeat/STIM_000.jpg
1323.102	0.581	1	repeat	Run2	repeat/STIM_000.jpg
1327.45	0.658	1	repeat	Run2	repeat/STIM_001.jpg
1331.841	0.563	1	repeat	Run2	repeat/STIM_001.jpg
1336.273	0.659	1	repeat	Run2	repeat/STIM_001.jpg
1340.148	0.714	1	repeat	Run2	repeat/STIM_001.jpg
1343.535	0.73	1	repeat	Run2	repeat/STIM_001.jpg
1346.699	0.396	1	repeat	Run2	repeat/STIM_002.jpg
1350.024	0.614	0	repeat	Run2	repeat/STIM_002.jpg
1354.268	0.563	1	repeat	Run2	repeat/STIM_002.jpg
1357.03	0.721	1	repeat	Run2	repeat/STIM_002.jpg
1361.225	0.645	1	repeat	Run2	repeat/STIM_002.jpg
1364.933	0.524	1	repeat	Run2	repeat/STIM_003.jpg
1368.583	0.611	1	repeat	Run2	repeat/STIM_003.jpg
1371.882	0.515	1	repeat	Run2	repeat/STIM_003.jpg
1374.459	0.627	1	repeat	Run2	repeat/STIM_003.jpg
1378.291	0.455	1	repeat	Run2	repeat/STIM_003.jpg
1380.935	0.707	1	repeat	Run2	repeat/STIM_004.jpg
1385.091	0.559	0	repeat	Run2	repeat/STIM_004.jpg
1388.876	0.431	1	repeat	Run2	repeat/STIM_004.jpg
1392.305	0.39	1	repeat	Run2	repeat/STIM_004.jpg
1396.642	0.647	1	repeat	Run2	repeat/STIM_004.jpg
1400.508	0.451	1	repeat	Run2	repeat/STIM_005.jpg
1404.51	0.731	1	repeat	Run2	repeat/STIM_005.jpg
1408.339	0.683	0	repeat	Run2	repeat/STIM_005.jpg
1411.204	0.398	1	repeat	Run2	repeat/STIM_005.jpg
1415.249	0.421	1	repeat	Run2	repeat/STIM_005.jpg
1419.171	0.583	1	repeat	Run2	repeat/STIM_006.jpg
1422.688	0.657	1	repeat	Run2	repeat/STIM_006.jpg
1425.818	0.616	1	repeat	Run2	repeat/STIM_006.jpg
1430.327	0.62	1	repeat	Run2	repeat/STIM_006.jpg
1433.033	0.531	1	repeat	Run2	repeat/STIM_006.jpg
1437.507	0.69	1	repeat	Run2	repeat/STIM_007.jpg
1442.015	0.657	1	repeat	Run2	repeat/STIM_007.jpg
1446.344	0.43	1	repeat	Run2	repeat/STIM_007.jpg
1448.875	0.385	1	repeat	Run2	repeat/STIM_007.jpg
1452.755	0.5	1	repeat	Run2	repeat/STIM_007.jpg
1455.729	0.536	1	repeat	Run2	repeat/STIM_008.jpg
1459.413	0.671	0	repeat	Run2	repeat/STIM_008.jpg
1463.046	0.693	1	repeat	Run2	repeat/STIM_008.jpg
1467.563	0.691	0	repeat	Run2	repeat/STIM_008.jpg
1470.998	0.669	1	repeat	Run2	repeat/STIM_008.jpg
1474.012	0.374	1	repeat	Run2	repeat/STIM_009.jpg
1478.285	0.45	1	repeat	Run2	repeat/STIM_009.jpg
1481.39	0.531	1	repeat	Run2	repeat/STIM_009.jpg
1484.414	0.499	1	repeat	Run2	repeat/STIM_009.jpg
1488.099	0.641	1	repeat	Run2	repeat/STIM_009.jpg
1492.448	0.415	1	repeat	Run2	repeat/STIM_010.jpg
1496.776	0.432	1	repeat	Run2	repeat/STIM_010.jpg
1500.521	0.641	1	repeat	Run2	repeat/STIM_010.jpg
1503.619	0.518	1	repeat	Run2	repeat/STIM_010.jpg
1506.943	0.583	1	repeat	Run2	repeat/STIM_010.jpg
1511.162	0.703	0	repeat	Run2	repeat/STIM_011.jpg
1515.561	0.477	1	repeat	Run2	repeat/STIM_011.jpg
1519.5	0.73	0	repeat	Run2	repeat/STIM_011.jpg
1522.453	0.43	1	repeat	Run2	repeat/STIM_011.jpg
1526.745	0.49	1	repeat	Run2	repeat/STIM_011.jpg
1529.572	0.415	1	repeat	Run2	repeat/STIM_012.jpg
1532.431	0.724	1	repeat	Run2	repeat/STIM_012.jpg
1536.329	0.634	1	repeat	Run2	repeat/STIM_012.jpg
1540.939	0.412	1	repeat	Run2	repeat/STIM_012.jpg
1544.688	0.571	0	repeat	Run2	repeat/STIM_012.jpg
1549.241	0.669	0	repeat	Run2	repeat/STIM_013.jpg
1551.989	0.646	1	repeat	Run2	repeat/STIM_013.jpg
1555.769	0.488	1	repeat	Run2	repeat/STIM_013.jpg
1558.706	0.617	1	repeat	Run2	repeat/STIM_013.jpg
1561.881	0.702	1	repeat	Run2	repeat/STIM_013.jpg
1565.859	0.491	1	repeat	Run2	repeat/STIM_014.jpg
1568.432	0.463	1	repeat	Run2	repeat/STIM_014.jpg
1571.211	0.434	1	repeat	Run2	repeat/STIM_014.jpg
1575.254	0.443	1	repeat	Run2	repeat/STIM_014.jpg
1577.886	0.558	1	repeat	Run2	repeat/STIM_014.jpg
1580.775	0.869	1	generate	Run3	generate/STIM_000.jpg
1583.712	1.528	1	generate	Run3	generate/STIM_000.jpg
1587.855	0.968	1	generate	Run3	generate/STIM_000.jpg
1590.869	0.685	1	generate	Run3	generate/STIM_000.jpg
1594.04	1.325	1	generate	Run3	generate/STIM_000.jpg
1598.035	1.507	1	generate	Run3	generate/STIM_001.jpg
1603.193	1.383	1	generate	Run3	generate/STIM_001.jpg
1607.64	1.384	0	generate	Run3	generate/STIM_001.jpg
1612.13	1.422	1	generate	Run3	generate/STIM_001.jpg
1615.611	1.456	1	generate	Run3	generate/STIM_001.jpg
1620.215	0.746	1	generate	Run3	generate/STIM_002.jpg
1623.597	0.675	1	generate	Run3	generate/STIM_002.jpg
1626.403	1.085	1	generate	Run3	generate/STIM_002.jpg
1630.922	1.062	1	generate	Run3	generate/STIM_002.jpg
1634.576	0.771	1	generate	Run3	generate/STIM_002.jpg
1638.943	0.994	1	generate	Run3	generate/STIM_003.jpg
1642.648	0.669	1	generate	Run3	generate/STIM_003.jpg
1645.419	0.738	1	generate	Run3	generate/STIM_003.jpg
1648.921	1.376	1	generate	Run3	generate/STIM_003.jpg
1652.799	1.383	1	generate	Run3	generate/STIM_003.jpg
1657.279	0.852	1	generate	Run3	generate/STIM_004.jpg
1661.759	0.813	1	generate	Run3	generate/STIM_004.jpg
1665.963	1.436	1	generate	Run3	generate/STIM_004.jpg
1670.645	0.764	1	generate	Run3	generate/STIM_004.jpg
1675.056	0.906	1	generate	Run3	generate/STIM_004.jpg
1678.38	1.258	1	generate	Run3	generate/STIM_005.jpg
1681.848	1.059	1	generate	Run3	generate/STIM_005.jpg
1686.1	1.308	1	generate	Run3	generate/STIM_005.jpg
1690.693	1.032	1	generate	Run3	generate/STIM_005.jpg
1695.644	0.87	1	generate	Run3	generate/STIM_005.jpg
1700.05	1.082	1	generate	Run3	generate/STIM_006.jpg
1703.313	1.024	1	generate	Run3	generate/STIM_006.jpg
1707.849	0.903	1	generate	Run3	generate/STIM_006.jpg
1711.126	0.739	1	generate	Run3	generate/STIM_006.jpg
1715.208	1.342	0	generate	Run3	generate/STIM_006.jpg
1719.914	1.364	1	generate	Run3	generate/STIM_007.jpg
1724.571	1.309	1	generate	Run3	generate/STIM_007.jpg
1728.249	1.081	1	generate	Run3	generate/STIM_007.jpg
1731.87	1.238	1	generate	Run3	generate/STIM_007.jpg
1737.075	1.273	1	generate	Run3	generate/STIM_007.jpg
1740.8	0.812	1	generate	Run3	generate/STIM_008.jpg
1745.05	0.724	1	generate	Run3	generate/STIM_008.jpg
1748.895	0.827	1	generate	Run3	generate/STIM_008.jpg
1752.778	1.185	1	generate	Run3	generate/STIM_008.jpg
1756.337	1.072	0	generate	Run3	generate/STIM_008.jpg
1759.64	0.943	1	generate	Run3	generate/STIM_009.jpg
1763.488	0.901	1	generate	Run3	generate/STIM_009.jpg
1767.245	1.275	1	generate	Run3	generate/STIM_009.jpg
1770.844	0.885	1	generate	Run3	generate/STIM_009.jpg
1774.454	0.696	1	generate	Run3	generate/STIM_009.jpg
1779.041	1.312	1	generate	Run3	generate/STIM_010.jpg
1783.512	1.375	1	generate	Run3	generate/STIM_010.jpg
1788.043	0.742	1	generate	Run3	generate/STIM_010.jpg
1791.056	1.096	1	generate	Run3	generate/STIM_010.jpg
1795.77	0.971	1	generate	Run3	generate/STIM_010.jpg
1800.192	0.846	1	generate	Run3	generate/STIM_011.jpg
1804.197	0.649	1	generate	Run3	generate/STIM_011.jpg
1808.462	0.806	1	generate	Run3	generate/STIM_011.jpg
1812.816	0.674	1	generate	Run3	generate/STIM_011.jpg
1816.926	1.236	1	generate	Run3	generate/STIM_011.jpg
1821.075	1.334	1	generate	Run3	generate/STIM_012.jpg
1825.505	0.761	1	generate	Run3	generate/STIM_012.jpg
1829.285	0.674	1	generate	Run3	generate/STIM_012.jpg
1832.324	1.415	1	generate	Run3	generate/STIM_012.jpg
1837.325	1.482	1	generate	Run3	generate/STIM_012.jpg
1841.392	1.233	1	generate	Run3	generate/STIM_013.jpg
1846.564	1.322	1	generate	Run3	generate/STIM_013.jpg
1851.646	1.448	1	generate	Run3	generate/STIM_013.jpg
1856.716	1.535	1	generate	Run3	generate/STIM_013.jpg
1861.667	1.251	0	generate	Run3	generate/STIM_013.jpg
1865.691	0.797	1	generate	Run3	generate/STIM_014.jpg
1869.3	0.846	1	generate	Run3	generate/STIM_014.jpg
1872.445	1.07	1	generate	Run3	generate/STIM_014.jpg
1876.306	1.215	1	generate	Run3	generate/STIM_014.jpg
1881.188	1.071	1	generate	Run3	generate/STIM_014.jpg
1886.122	0.722	0	generate	Run3	generate/STIM_015.jpg
1890.468	0.926	1	generate	Run3	generate/STIM_015.jpg
1893.568	1.183	1	generate	Run3	generate/STIM_015.jpg
1896.833	0.791	1	generate	Run3	generate/STIM_015.jpg
1901.553	1.178	1	generate	Run3	generate/STIM_015.jpg
1906.723	0.698	0	generate	Run3	generate/STIM_016.jpg
1910.927	0.824	1	generate	Run3	generate/STIM_016.jpg
1915.053	0.814	1	generate	Run3	generate/STIM_016.jpg
1918.058	1.529	1	generate	Run3	generate/STIM_016.jpg
1923.037	0.878	0	generate	Run3	generate/STIM_016.jpg
1926.824	1.505	1	generate	Run3	generate/STIM_017.jpg
1931.018	1.529	1	generate	Run3	generate/STIM_017.jpg
1935.963	0.765	1	generate	Run3	generate/STIM_017.jpg
1940.159	0.682	1	generate	Run3	generate/STIM_017.jpg
1942.962	0.775	1	generate	Run3	generate/STIM_017.jpg
1947.111	0.883	0	generate	Run3	generate/STIM_018.jpg
1951.843	0.877	1	generate	Run3	generate/STIM_018.jpg
1954.852	1.251	1	generate	Run3	generate/STIM_018.jpg
1959.024	0.764	0	generate	Run3	generate/STIM_018.jpg
1963.68	1.289	1	generate	Run3	generate/STIM_018.jpg
1967.37	1.214	1	generate	Run3	generate/STIM_019.jpg
1972.134	1.108	0	generate	Run3	generate/STIM_019.jpg
1977.101	1.16	0	generate	Run3	generate/STIM_019.jpg
1981.042	0.817	1	generate	Run3	generate/STIM_019.jpg
1985.342	0.9	1	generate	Run3	generate/STIM_019.jpg
1989.743	1.438	1	generate	Run3	generate/STIM_020.jpg
1994.895	1.476	1	generate	Run3	generate/STIM_020.jpg
1998.442	0.885	1	generate	Run3	generate/STIM_020.jpg
2002.165	0.804	1	generate	Run3	generate/STIM_020.jpg
2005.37	0.974	1	generate	Run3	generate/STIM_020.jpg
2008.821	0.98	1	generate	Run3	generate/STIM_021.jpg
2012.33	1.256	1	generate	Run3	generate/STIM_021.jpg
2015.685	1.047	1	generate	Run3	generate/STIM_021.jpg
2020.696	0.778	1	generate	Run3	generate/STIM_021.jpg
2024.934	0.959	1	generate	Run3	generate/STIM_021.jpg
2028.539	0.716	1	generate	Run3	generate/STIM_022.jpg
2032.517	0.724	1	generate	Run3	generate/STIM_022.jpg
2035.498	0.66	1	generate	Run3	generate/STIM_022.jpg
2038.245	1.271	1	generate	Run3	generate/STIM_022.jpg
2041.935	1.288	1	generate	Run3	generate/STIM_022.jpg
2047.0	0.754	0	generate	Run3	generate/STIM_023.jpg
2050.401	0.633	1	generate	Run3	generate/STIM_023.jpg
2053.76	1.132	1	generate	Run3	generate/STIM_023.jpg
2058.041	0.695	1	generate	Run3	generate/STIM_023.jpg
2061.518	0.917	1	generate	Run3	generate/STIM_023.jpg
2065.633	0.96	1	generate	Run3	generate/STIM_024.jpg
2070.068	0.721	1	generate	Run3	generate/STIM_024.jpg
2073.434	1.421	1	generate	Run3	generate/STIM_024.jpg
2078.756	0.879	1	generate	Run3	generate/STIM_024.jpg
2082.181	0.746	1	generate	Run3	generate/STIM_024.jpg
2084.952	0.6	1	repeat	Run3	repeat/STIM_000.jpg
2087.552	0.579	0	repeat	Run3	repeat/STIM_000.jpg
2091.602	0.426	1	repeat	Run3	repeat/STIM_000.jpg
2095.739	0.476	1	repeat	Run3	repeat/STIM_000.jpg
2099.921	0.602	1	repeat	Run3	repeat/STIM_000.jpg
2102.556	0.423	1	repeat	Run3	repeat/STIM_001.jpg
2106.123	0.659	1	repeat	Run3	repeat/STIM_001.jpg
2109.056	0.424	0	repeat	Run3	repeat/STIM_001.jpg
2111.951	0.557	1	repeat	Run3	repeat/STIM_001.jpg
2114.987	0.412	1	repeat	Run3	repeat/STIM_001.jpg
2118.164	0.644	0	repeat	Run3	repeat/STIM_002.jpg
2121.54	0.65	1	repeat	Run3	repeat/STIM_002.jpg
2126.063	0.473	1	repeat	Run3	repeat/STIM_002.jpg
2128.55	0.456	1	repeat	Run3	repeat/STIM_002.jpg
2132.436	0.393	0	repeat	Run3	repeat/STIM_002.jpg
2135.208	0.654	1	repeat	Run3	repeat/STIM_003.jpg
2139.447	0.406	1	repeat	Run3	repeat/STIM_003.jpg
2142.637	0.581	1	repeat	Run3	repeat/STIM_003.jpg
2146.364	0.614	1	repeat	Run3	repeat/STIM_003.jpg
2150.773	0.544	0	repeat	Run3	repeat/STIM_003.jpg
2153.609	0.576	1	repeat	Run3	repeat/STIM_004.jpg
2157.282	0.543	1	repeat	Run3	repeat/STIM_004.jpg
2161.309	0.444	1	repeat	Run3	repeat/STIM_004.jpg
2164.704	0.664	1	repeat	Run3	repeat/STIM_004.jpg
2167.803	0.55	1	repeat	Run3	repeat/STIM_004.jpg
2171.042	0.369	1	repeat	Run3	repeat/STIM_005.jpg
2173.949	0.628	1	repeat	Run3	repeat/STIM_005.jpg
2177.093	0.674	0	repeat	Run3	repeat/STIM_005.jpg
2181.073	0.484	1	repeat	Run3	repeat/STIM_005.jpg
2185.504	0.566	1	repeat	Run3	repeat/STIM_005.jpg
2189.794	0.382	1	repeat	Run3	repeat/STIM_006.jpg
2193.836	0.412	1	repeat	Run3	repeat/STIM_006.jpg
2197.736	0.476	1	repeat	Run3	repeat/STIM_006.jpg
2200.484	0.58	1	repeat	Run3	repeat/STIM_006.jpg
2203.237	0.56	1	repeat	Run3	repeat/STIM_006.jpg
2207.154	0.667	1	repeat	Run3	repeat/STIM_007.jpg
2210.288	0.73	1	repeat	Run3	repeat/STIM_007.jpg
2214.023	0.653	1	repeat	Run3	repeat/STIM_007.jpg
2217.155	0.715	1	repeat	Run3	repeat/STIM_007.jpg
2221.312	0.503	1	repeat	Run3	repeat/STIM_007.jpg
2223.971	0.716	1	repeat	Run3	repeat/STIM_008.jpg
2227.905	0.541	1	repeat	Run3	repeat/STIM_008.jpg
2230.498	0.561	1	repeat	Run3	repeat/STIM_008.jpg
2234.183	0.57	1	repeat	Run3	repeat/STIM_008.jpg
2238.581	0.374	1	repeat	Run3	repeat/STIM_008.jpg
2241.282	0.544	1	repeat	Run3	repeat/STIM_009.jpg
2244.168	0.681	1	repeat	Run3	repeat/STIM_009.jpg
2247.101	0.506	0	repeat	Run3	repeat/STIM_009.jpg
2249.901	0.497	1	repeat	Run3	repeat/STIM_009.jpg
2253.085	0.625	1	repeat	Run3	repeat/STIM_009.jpg
2256.106	0.642	1	repeat	Run3	repeat/STIM_010.jpg
2259.549	0.639	1	repeat	Run3	repeat/STIM_010.jpg
2263.075	0.66	1	repeat	Run3	repeat/STIM_010.jpg
2266.965	0.617	1	repeat	Run3	repeat/STIM_010.jpg
2269.761	0.445	1	repeat	Run3	repeat/STIM_010.jpg
2273.712	0.429	1	repeat	Run3	repeat/STIM_011.jpg
2276.317	0.663	1	repeat	Run3	repeat/STIM_011.jpg
2280.631	0.693	1	repeat	Run3	repeat/STIM_011.jpg
2283.65	0.722	1	repeat	Run3	repeat/STIM_011.jpg
2286.815	0.472	1	repeat	Run3	repeat/STIM_011.jpg
2290.878	0.614	1	repeat	Run3	repeat/STIM_012.jpg
2293.55	0.409	1	repeat	Run3	repeat/STIM_012.jpg
2296.124	0.473	1	repeat	Run3	repeat/STIM_012.jpg
2299.183	0.399	1	repeat	Run3	repeat/STIM_012.jpg
2302.706	0.621	0	repeat	Run3	repeat/STIM_012.jpg
2307.316	0.459	1	repeat	Run3	repeat/STIM_013.jpg
2310.394	0.668	1	repeat	Run3	repeat/STIM_013.jpg
2313.186	0.38	1	repeat	Run3	repeat/STIM_013.jpg
2317.171	0.505	1	repeat	Run3	repeat/STIM_013.jpg
2320.021	0.504	1	repeat	Run3	repeat/STIM_013.jpg
2324.161	0.507	1	repeat	Run3	repeat/STIM_014.jpg
2327.002	0.527	1	repeat	Run3	repeat/STIM_014.jpg
2331.52	0.588	1	repeat	Run3	repeat/STIM_014.jpg
2335.095	0.376	1	repeat	Run3	repeat/STIM_014.jpg
2339.036	0.516	1	repeat	Run3	repeat/STIM_014.jpg
2341.653	1.337	1	generate	Run4	generate/STIM_000.jpg
2346.611	0.698	1	generate	Run4	generate/STIM_000.jpg
2350.609	0.87	1	generate	Run4	generate/STIM_000.jpg
2354.87	1.075	1	generate	Run4	generate/STIM_000.jpg
2358.056	1.468	1	generate	Run4	generate/STIM_000.jpg
2363.405	0.834	1	generate	Run4	generate/STIM_001.jpg
2366.658	1.082	1	generate	Run4	generate/STIM_001.jpg
2371.085	1.07	1	generate	Run4	generate/STIM_001.jpg
2376.114	1.264	1	generate	Run4	generate/STIM_001.jpg
2380.198	0.995	1	generate	Run4	generate/STIM_001.jpg
2383.352	0.918	1	generate	Run4	generate/STIM_002.jpg
2388.168	1.148	1	generate	Run4	generate/STIM_002.jpg
2391.672	1.051	1	generate	Run4	generate/STIM_002.jpg
2395.098	1.443	1	generate	Run4	generate/STIM_002.jpg
2398.881	1.496	1	generate	Run4	generate/STIM_002.jpg
2403.168	1.138	1	generate	Run4	generate/STIM_003.jpg
2407.296	1.066	1	generate	Run4	generate/STIM_003.jpg
2410.59	0.761	1	generate	Run4	generate/STIM_003.jpg
2414.939	0.982	1	generate	Run4	generate/STIM_003.jpg
2419.353	1.297	1	generate	Run4	generate/STIM_003.jpg
2422.708	1.437	0	generate	Run4	generate/STIM_004.jpg
2427.604	0.97	1	generate	Run4	generate/STIM_004.jpg
2431.683	1.497	1	generate	Run4	generate/STIM_004.jpg
2436.954	1.536	1	generate	Run4	generate/STIM_004.jpg
2441.841	1.288	1	generate	Run4	generate/STIM_004.jpg
2445.702	1.348	0	generate	Run4	generate/STIM_005.jpg
2449.061	0.93	1	generate	Run4	generate/STIM_005.jpg
2453.326	1.347	1	generate	Run4	generate/STIM_005.jpg
2457.837	0.623	1	generate	Run4	generate/STIM_005.jpg
2461.138	1.463	1	generate	Run4	generate/STIM_005.jpg
2464.712	0.929	1	generate	Run4	generate/STIM_006.jpg
2468.396	1.339	1	generate	Run4	generate/STIM_006.jpg
2473.689	1.313	0	generate	Run4	generate/STIM_006.jpg
2478.968	0.686	1	generate	Run4	generate/STIM_006.jpg
2481.799	0.721	1	generate	Run4	generate/STIM_006.jpg
2485.981	1.293	1	generate	Run4	generate/STIM_007.jpg
2490.338	0.988	0	generate	Run4	generate/STIM_007.jpg
2493.362	1.211	1	generate	Run4	generate/STIM_007.jpg
2496.604	1.003	1	generate	Run4	generate/STIM_007.jpg
2500.091	0.76	1	generate	Run4	generate/STIM_007.jpg
2504.568	1.062	1	generate	Run4	generate/STIM_008.jpg
2509.31	1.306	1	generate	Run4	generate/STIM_008.jpg
2512.702	1.496	1	generate	Run4	generate/STIM_008.jpg
2518.102	1.427	1	generate	Run4	generate/STIM_008.jpg
2521.797	1.466	1	generate	Run4	generate/STIM_008.jpg
2527.214	0.876	0	generate	Run4	generate/STIM_009.jpg
2531.369	0.908	1	generate	Run4	generate/STIM_009.jpg
2534.282	1.224	1	generate	Run4	generate/STIM_009.jpg
2537.821	1.436	1	generate	Run4	generate/STIM_009.jpg
2542.105	1.483	1	generate	Run4	generate/STIM_009.jpg
2546.194	0.914	1	generate	Run4	generate/STIM_010.jpg
2549.884	0.672	1	generate	Run4	generate/STIM_010.jpg
2553.214	1.427	1	generate	Run4	generate/STIM_010.jpg
2558.334	0.692	1	generate	Run4	generate/STIM_010.jpg
2561.921	1.248	1	generate	Run4	generate/STIM_010.jpg
2566.031	1.403	1	generate	Run4	generate/STIM_011.jpg
2569.575	1.401	1	generate	Run4	generate/STIM_011.jpg
2574.452	0.67	1	generate	Run4	generate/STIM_011.jpg
2577.809	0.707	1	generate	Run4	generate/STIM_011.jpg
2580.912	1.452	1	generate	Run4	generate/STIM_011.jpg
2586.027	0.928	1	generate	Run4	generate/STIM_012.jpg
2589.183	0.942	1	generate	Run4	generate/STIM_012.jpg
2593.371	1.162	1	generate	Run4	generate/STIM_012.jpg
2596.55	1.319	1	generate	Run4	generate/STIM_012.jpg
2601.016	1.199	1	generate	Run4	generate/STIM_012.jpg
2606.185	0.679	1	generate	Run4	generate/STIM_013.jpg
2609.957	1.45	1	generate	Run4	generate/STIM_013.jpg
2615.166	0.849	1	generate	Run4	generate/STIM_013.jpg
2619.936	0.737	1	generate	Run4	generate/STIM_013.jpg
2623.005	1.071	1	generate	Run4	generate/STIM_013.jpg
2627.397	1.189	1	generate	Run4	generate/STIM_014.jpg
2632.542	1.347	1	generate	Run4	generate/STIM_014.jpg
2636.668	1.464	1	generate	Run4	generate/STIM_014.jpg
2641.21	1.283	0	generate	Run4	generate/STIM_014.jpg
2646.066	0.938	1	generate	Run4	generate/STIM_014.jpg
2650.755	0.862	1	generate	Run4	generate/STIM_015.jpg
2655.059	0.718	1	generate	Run4	generate/STIM_015.jpg
2658.842	0.973	1	generate	Run4	generate/STIM_015.jpg
2662.151	1.339	1	generate	Run4	generate/STIM_015.jpg
2666.779	1.071	1	generate	Run4	generate/STIM_015.jpg
2670.623	1.058	1	generate	Run4	generate/STIM_016.jpg
2674.174	1.085	1	generate	Run4	generate/STIM_016.jpg
2677.737	1.257	1	generate	Run4	generate/STIM_016.jpg
2682.503	1.434	1	generate	Run4	generate/STIM_016.jpg
2686.841	1.412	1	generate	Run4	generate/STIM_016.jpg
2691.803	0.918	1	generate	Run4	generate/STIM_017.jpg
2696.648	1.294	1	generate	Run4	generate/STIM_017.jpg
2700.705	1.09	1	generate	Run4	generate/STIM_017.jpg
2704.897	1.309	1	generate	Run4	generate/STIM_017.jpg
2708.895	0.883	1	generate	Run4	generate/STIM_017.jpg
2712.482	1.502	1	generate	Run4	generate/STIM_018.jpg
2717.71	1.274	1	generate	Run4	generate/STIM_018.jpg
2722.731	0.984	1	generate	Run4	generate/STIM_018.jpg
2726.378	1.118	1	generate	Run4	generate/STIM_018.jpg
2730.171	1.161	1	generate	Run4	generate/STIM_018.jpg
2733.466	0.823	1	generate	Run4	generate/STIM_019.jpg
2738.009	1.252	1	generate	Run4	generate/STIM_019.jpg
2741.429	0.677	1	generate	Run4	generate/STIM_019.jpg
2744.314	1.339	1	generate	Run4	generate/STIM_019.jpg
2749.553	0.753	1	generate	Run4	generate/STIM_019.jpg
2753.832	0.777	1	generate	Run4	generate/STIM_020.jpg
2758.382	0.698	1	generate	Run4	generate/STIM_020.jpg
2762.692	1.483	1	generate	Run4	generate/STIM_020.jpg
2766.659	1.073	1	generate	Run4	generate/STIM_020.jpg
2770.923	1.266	1	generate	Run4	generate/STIM_020.jpg
2775.381	0.94	1	generate	Run4	generate/STIM_021.jpg
2778.684	0.738	1	generate	Run4	generate/STIM_021.jpg
2782.074	0.956	1	generate	Run4	generate/STIM_021.jpg
2785.917	1.379	1	generate	Run4	generate/STIM_021.jpg
2789.382	1.138	0	generate	Run4	generate/STIM_021.jpg
2794.151	1.109	1	generate	Run4	generate/STIM_022.jpg
2797.89	0.939	1	generate	Run4	generate/STIM_022.jpg
2801.953	1.501	1	generate	Run4	generate/STIM_022.jpg
2807.168	0.683	1	generate	Run4	generate/STIM_022.jpg
2810.971	1.247	0	generate	Run4	generate/STIM_022.jpg
2814.775	1.444	1	generate	Run4	generate/STIM_023.jpg
2818.802	0.663	1	generate	Run4	generate/STIM_023.jpg
2822.592	0.627	1	generate	Run4	generate/STIM_023.jpg
2825.641	0.714	1	generate	Run4	generate/STIM_023.jpg
2830.217	1.471	0	generate	Run4	generate/STIM_023.jpg
2835.135	1.242	1	generate	Run4	generate/STIM_024.jpg
2838.788	0.646	1	generate	Run4	generate/STIM_024.jpg
2842.758	1.439	1	generate	Run4	generate/STIM_024.jpg
2847.434	1.284	1	generate	Run4	generate/STIM_024.jpg
2852.171	1.349	1	generate	Run4	generate/STIM_024.jpg
2856.627	0.496	1	repeat	Run4	repeat/STIM_000.jpg
2860.523	0.444	1	repeat	Run4	repeat/STIM_000.jpg
2863.923	0.428	1	repeat	Run4	repeat/STIM_000.jpg
2866.973	0.542	1	repeat	Run4	repeat/STIM_000.jpg
2871.221	0.435	1	repeat	Run4	repeat/STIM_000.jpg
2874.384	0.677	1	repeat	Run4	repeat/STIM_001.jpg
2877.991	0.612	0	repeat	Run4	repeat/STIM_001.jpg
2881.505	0.687	0	repeat	Run4	repeat/STIM_001.jpg
2884.457	0.631	1	repeat	Run4	repeat/STIM_001.jpg
2887.259	0.582	1	repeat	Run4	repeat/STIM_001.jpg
2891.259	0.58	1	repeat	Run4	repeat/STIM_002.jpg
2894.29	0.426	1	repeat	Run4	repeat/STIM_002.jpg
2898.4	0.56	1	repeat	Run4	repeat/STIM_002.jpg
2902.43	0.574	1	repeat	Run4	repeat/STIM_002.jpg
2905.339	0.538	1	repeat	Run4	repeat/STIM_002.jpg
2909.483	0.662	1	repeat	Run4	repeat/STIM_003.jpg
2913.921	0.673	1	repeat	Run4	repeat/STIM_003.jpg
2917.636	0.657	0	repeat	Run4	repeat/STIM_003.jpg
2921.516	0.488	1	repeat	Run4	repeat/STIM_003.jpg
2925.833	0.551	0	repeat	Run4	repeat/STIM_003.jpg
2929.516	0.522	1	repeat	Run4	repeat/STIM_004.jpg
2932.599	0.524	0	repeat	Run4	repeat/STIM_004.jpg
2937.02	0.475	1	repeat	Run4	repeat/STIM_004.jpg
2941.275	0.672	1	repeat	Run4	repeat/STIM_004.jpg
2944.77	0.512	1	repeat	Run4	repeat/STIM_004.jpg
2948.232	0.57	0	repeat	Run4	repeat/STIM_005.jpg
2951.016	0.716	1	repeat	Run4	repeat/STIM_005.jpg
2955.526	0.476	1	repeat	Run4	repeat/STIM_005.jpg
2958.365	0.665	1	repeat	Run4	repeat/STIM_005.jpg
2962.273	0.514	1	repeat	Run4	repeat/STIM_005.jpg
2965.255	0.485	1	repeat	Run4	repeat/STIM_006.jpg
2968.26	0.526	1	repeat	Run4	repeat/STIM_006.jpg
2970.837	0.716	1	repeat	Run4	repeat/STIM_006.jpg
2974.089	0.646	1	repeat	Run4	repeat/STIM_006.jpg
2978.331	0.511	1	repeat	Run4	repeat/STIM_006.jpg
2981.383	0.381	1	repeat	Run4	repeat/STIM_007.jpg
2985.564	0.716	1	repeat	Run4	repeat/STIM_007.jpg
2990.107	0.412	1	repeat	Run4	repeat/STIM_007.jpg
2994.102	0.665	1	repeat	Run4	repeat/STIM_007.jpg
2997.338	0.46	1	repeat	Run4	repeat/STIM_007.jpg
3000.616	0.728	1	repeat	Run4	repeat/STIM_008.jpg
3004.394	0.719	1	repeat	Run4	repeat/STIM_008.jpg
3007.205	0.597	1	repeat	Run4	repeat/STIM_008.jpg
3010.374	0.453	0	repeat	Run4	repeat/STIM_008.jpg
3013.913	0.595	1	repeat	Run4	repeat/STIM_008.jpg
3018.069	0.668	1	repeat	Run4	repeat/STIM_009.jpg
3021.114	0.618	1	repeat	Run4	repeat/STIM_009.jpg
3024.062	0.614	1	repeat	Run4	repeat/STIM_009.jpg
3028.221	0.485	1	repeat	Run4	repeat/STIM_009.jpg
3032.424	0.588	1	repeat	Run4	repeat/STIM_009.jpg
3035.019	0.617	1	repeat	Run4	repeat/STIM_010.jpg
3038.039	0.556	0	repeat	Run4	repeat/STIM_010.jpg
3041.764	0.387	1	repeat	Run4	repeat/STIM_010.jpg
3046.078	0.463	1	repeat	Run4	repeat/STIM_010.jpg
3049.899	0.581	0	repeat	Run4	repeat/STIM_010.jpg
3052.729	0.497	1	repeat	Run4	repeat/STIM_011.jpg
3055.45	0.489	1	repeat	Run4	repeat/STIM_011.jpg
3059.014	0.449	0	repeat	Run4	repeat/STIM_011.jpg
3062.207	0.475	1	repeat	Run4	repeat/STIM_011.jpg
3065.842	0.582	1	repeat	Run4	repeat/STIM_011.jpg
3070.242	0.573	1	repeat	Run4	repeat/STIM_012.jpg
3074.492	0.661	1	repeat	Run4	repeat/STIM_012.jpg
3078.251	0.535	1	repeat	Run4	repeat/STIM_012.jpg
3081.957	0.727	1	repeat	Run4	repeat/STIM_012.jpg
3085.772	0.395	1	repeat	Run4	repeat/STIM_012.jpg
3089.113	0.373	1	repeat	Run4	repeat/STIM_013.jpg
3093.325	0.616	1	repeat	Run4	repeat/STIM_013.jpg
3097.544	0.406	1	repeat	Run4	repeat/STIM_013.jpg
3101.541	0.472	1	repeat	Run4	repeat/STIM_013.jpg
3105.517	0.37	1	repeat	Run4	repeat/STIM_013.jpg
3109.213	0.415	1	repeat	Run4	repeat/STIM_014.jpg
3112.336	0.496	1	repeat	Run4	repeat/STIM_014.jpg
3116.014	0.642	1	repeat	Run4	repeat/STIM_014.jpg
3118.797	0.546	1	repeat	Run4	repeat/STIM_014.jpg
3121.627	0.527	1	repeat	Run4	repeat/STIM_014.jpg
