onset	duration	response_time_ms	trial_type	learning_stage	stimulus	response_port
0.0	2.239	2239.1	generate	Run1	generate/STIM_000.jpg	99
5.839	3.112	3112.5	generate	Run1	generate/STIM_000.jpg	99
12.411	1.606	1606.0	generate	Run1	generate/STIM_000.jpg	100
16.425	2.35	2350.5	generate	Run1	generate/STIM_000.jpg	99
20.812	2.299	2298.6	generate	Run1	generate/STIM_000.jpg	99
25.464	2.325	2324.9	generate	Run1	generate/STIM_001.jpg	100
30.734	2.651	2651.0	generate	Run1	generate/STIM_001.jpg	100
35.93	2.743	2742.6	generate	Run1	generate/STIM_001.jpg	100
42.227	1.683	1682.6	generate	Run1	generate/STIM_001.jpg	100
46.808	1.314	1313.7	generate	Run1	generate/STIM_001.jpg	100
50.219	2.244	2243.8	generate	Run1	generate/STIM_002.jpg	100
55.436	2.441	2440.9	generate	Run1	generate/STIM_002.jpg	100
60.806	2.44	2439.8	generate	Run1	generate/STIM_002.jpg	99
65.521	2.92	2920.4	generate	Run1	generate/STIM_002.jpg	100
70.797	1.291	1291.3	generate	Run1	generate/STIM_002.jpg	99
75.877	1.803	1803.2	generate	Run1	generate/STIM_003.jpg	99
79.761	1.997	1996.6	generate	Run1	generate/STIM_003.jpg	99
84.169	2.356	2355.5	generate	Run1	generate/STIM_003.jpg	100
88.436	1.432	1432.1	generate	Run1	generate/STIM_003.jpg	99
92.994	1.256	1255.7	generate	Run1	generate/STIM_003.jpg	99
96.841	1.936	1935.5	generate	Run1	generate/STIM_004.jpg	99
100.774	2.486	2485.7	generate	Run1	generate/STIM_004.jpg	100
106.266	1.605	1605.4	generate	Run1	generate/STIM_004.jpg	99
110.28	2.744	2743.6	generate	Run1	generate/STIM_004.jpg	100
116.434	1.297	1296.8	generate	Run1	generate/STIM_004.jpg	99
121.113	3.286	3285.8	generate	Run1	generate/STIM_005.jpg	100
127.887	1.717	1717.0	generate	Run1	generate/STIM_005.jpg	99
132.793	2.926	2925.7	generate	Run1	generate/STIM_005.jpg	100
137.589	1.348	1348.5	generate	Run1	generate/STIM_005.jpg	99
140.934	1.903	1903.1	generate	Run1	generate/STIM_005.jpg	100
144.826	3.074	3074.2	generate	Run1	generate/STIM_006.jpg	99
150.888	1.835	1835.4	generate	Run1	generate/STIM_006.jpg	100
154.862	2.811	2811.1	generate	Run1	generate/STIM_006.jpg	100
160.213	1.49	1489.9	generate	Run1	generate/STIM_006.jpg	100
164.659	2.457	2457.2	generate	Run1	generate/STIM_006.jpg	99
169.172	1.507	1507.0	generate	Run1	generate/STIM_007.jpg	99
174.169	2.257	2257.0	generate	Run1	generate/STIM_007.jpg	100
180.161	1.569	1568.9	generate	Run1	generate/STIM_007.jpg	100
184.903	2.116	2116.2	generate	Run1	generate/STIM_007.jpg	100
190.698	1.195	1195.3	generate	Run1	generate/STIM_007.jpg	100
194.396	2.603	2603.3	generate	Run1	generate/STIM_008.jpg	100
200.047	3.152	3151.6	generate	Run1	generate/STIM_008.jpg	100
205.354	1.688	1687.9	generate	Run1	generate/STIM_008.jpg	100
210.408	1.936	1935.8	generate	Run1	generate/STIM_008.jpg	100
214.861	2.163	2162.7	generate	Run1	generate/STIM_008.jpg	100
219.016	3.073	3073.2	generate	Run1	generate/STIM_009.jpg	100
224.544	2.635	2635.0	generate	Run1	generate/STIM_009.jpg	99
230.303	2.595	2594.6	generate	Run1	generate/STIM_009.jpg	99
235.999	2.103	2102.9	generate	Run1	generate/STIM_009.jpg	100
241.478	2.031	2031.4	generate	Run1	generate/STIM_009.jpg	99
246.926	1.922	1922.4	generate	Run1	generate/STIM_010.jpg	99
251.707	2.47	2470.5	generate	Run1	generate/STIM_010.jpg	100
256.761	1.657	1657.0	generate	Run1	generate/STIM_010.jpg	99
262.133	1.917	1917.0	generate	Run1	generate/STIM_010.jpg	99
266.583	1.85	1849.6	generate	Run1	generate/STIM_010.jpg	99
270.646	2.461	2460.6	generate	Run1	generate/STIM_011.jpg	99
276.006	1.454	1453.6	generate	Run1	generate/STIM_011.jpg	100
280.776	1.651	1651.2	generate	Run1	generate/STIM_011.jpg	100
285.997	2.918	2917.7	generate	Run1	generate/STIM_011.jpg	99
292.041	1.289	1289.0	generate	Run1	generate/STIM_011.jpg	100
296.252	1.682	1682.2	generate	Run1	generate/STIM_012.jpg	99
300.391	1.81	1810.1	generate	Run1	generate/STIM_012.jpg	99
304.932	2.212	2212.4	generate	Run1	generate/STIM_012.jpg	100
309.396	1.452	1452.4	generate	Run1	generate/STIM_012.jpg	99
314.312	2.084	2083.9	generate	Run1	generate/STIM_012.jpg	99
319.96	2.812	2812.5	generate	Run1	generate/STIM_013.jpg	99
325.392	2.811	2811.1	generate	Run1	generate/STIM_013.jpg	100
330.618	1.741	1740.9	generate	Run1	generate/STIM_013.jpg	100
334.576	1.403	1402.8	generate	Run1	generate/STIM_013.jpg	99
339.737	2.131	2130.9	generate	Run1	generate/STIM_013.jpg	99
344.602	2.814	2813.7	generate	Run1	generate/STIM_014.jpg	100
349.873	1.429	1428.7	generate	Run1	generate/STIM_014.jpg	100
354.218	1.444	1444.2	generate	Run1	generate/STIM_014.jpg	99
359.362	2.073	2072.6	generate	Run1	generate/STIM_014.jpg	99
364.01	2.207	2206.9	generate	Run1	generate/STIM_014.jpg	99
368.278	3.378	3378.0	generate	Run1	generate/STIM_015.jpg	99
373.367	1.556	1555.8	generate	Run1	generate/STIM_015.jpg	100
377.429	2.671	2671.0	generate	Run1	generate/STIM_015.jpg	99
383.673	1.439	1439.2	generate	Run1	generate/STIM_015.jpg	100
386.898	2.314	2313.6	generate	Run1	generate/STIM_015.jpg	99
391.955	2.652	2651.7	generate	Run1	generate/STIM_016.jpg	100
396.504	1.78	1780.4	generate	Run1	generate/STIM_016.jpg	100
401.064	2.006	2006.5	generate	Run1	generate/STIM_016.jpg	99
406.324	2.491	2491.4	generate	Run1	generate/STIM_016.jpg	99
410.868	2.177	2176.7	generate	Run1	generate/STIM_016.jpg	100
415.302	1.424	1423.6	generate	Run1	generate/STIM_017.jpg	100
419.825	2.28	2279.7	generate	Run1	generate/STIM_017.jpg	99
424.504	1.736	1736.1	generate	Run1	generate/STIM_017.jpg	100
428.215	2.118	2118.2	generate	Run1	generate/STIM_017.jpg	100
432.602	2.32	2320.4	generate	Run1	generate/STIM_017.jpg	100
437.513	1.691	1691.4	generate	Run1	generate/STIM_018.jpg	100
441.59	1.951	1950.9	generate	Run1	generate/STIM_018.jpg	99
445.867	2.211	2211.2	generate	Run1	generate/STIM_018.jpg	100
450.137	2.241	2241.2	generate	Run1	generate/STIM_018.jpg	100
454.357	1.893	1892.8	generate	Run1	generate/STIM_018.jpg	99
458.398	1.7	1699.6	generate	Run1	generate/STIM_019.jpg	100
463.218	2.591	2590.6	generate	Run1	generate/STIM_019.jpg	100
468.789	1.353	1352.6	generate	Run1	generate/STIM_019.jpg	99
472.493	1.29	1290.0	generate	Run1	generate/STIM_019.jpg	100
476.45	2.345	2344.8	generate	Run1	generate/STIM_019.jpg	99
481.868	1.525	1525.3	generate	Run1	generate/STIM_020.jpg	100
486.524	1.805	1804.7	generate	Run1	generate/STIM_020.jpg	99
491.679	1.519	1519.2	generate	Run1	generate/STIM_020.jpg	100
496.413	2.437	2437.1	generate	Run1	generate/STIM_020.jpg	100
502.385	1.739	1738.7	generate	Run1	generate/STIM_020.jpg	99
507.556	1.631	1631.1	generate	Run1	generate/STIM_021.jpg	100
511.28	1.346	1345.9	generate	Run1	generate/STIM_021.jpg	100
515.22	2.798	2798.0	generate	Run1	generate/STIM_021.jpg	100
520.025	1.431	1430.6	generate	Run1	generate/STIM_021.jpg	99
523.415	1.897	1897.0	generate	Run1	generate/STIM_021.jpg	100
527.102	1.8	1800.2	generate	Run1	generate/STIM_022.jpg	99
531.782	1.384	1383.5	generate	Run1	generate/STIM_022.jpg	99
536.864	1.26	1260.3	generate	Run1	generate/STIM_022.jpg	100
540.755	1.247	1247.0	generate	Run1	generate/STIM_022.jpg	100
544.203	1.092	1092.3	generate	Run1	generate/STIM_022.jpg	99
548.768	2.77	2770.0	generate	Run1	generate/STIM_023.jpg	100
554.181	2.319	2319.3	generate	Run1	generate/STIM_023.jpg	99
558.395	2.925	2925.2	generate	Run1	generate/STIM_023.jpg	99
563.247	2.258	2258.5	generate	Run1	generate/STIM_023.jpg	99
568.983	1.627	1627.2	generate	Run1	generate/STIM_023.jpg	99
573.488	2.903	2902.9	generate	Run1	generate/STIM_024.jpg	100
578.875	2.344	2344.5	generate	Run1	generate/STIM_024.jpg	100
583.513	2.459	2458.6	generate	Run1	generate/STIM_024.jpg	99
588.914	2.563	2563.3	generate	Run1	generate/STIM_024.jpg	99
594.28	2.541	2541.2	generate	Run1	generate/STIM_024.jpg	100
600.281	0.637	637.2	repeat	Run1	repeat/STIM_000.jpg	99
604.304	0.586	586.1	repeat	Run1	repeat/STIM_000.jpg	100
608.506	0.62	619.6	repeat	Run1	repeat/STIM_000.jpg	99
612.165	0.908	907.7	repeat	Run1	repeat/STIM_000.jpg	100
615.595	1.128	1127.7	repeat	Run1	repeat/STIM_000.jpg	99
619.077	0.686	686.1	repeat	Run1	repeat/STIM_001.jpg	100
623.104	0.655	655.4	repeat	Run1	repeat/STIM_001.jpg	99
627.574	0.913	912.7	repeat	Run1	repeat/STIM_001.jpg	99
630.385	0.996	995.5	repeat	Run1	repeat/STIM_001.jpg	100
634.052	0.904	903.5	repeat	Run1	repeat/STIM_001.jpg	99
638.185	0.713	712.7	repeat	Run1	repeat/STIM_002.jpg	99
641.461	1.06	1060.2	repeat	Run1	repeat/STIM_002.jpg	99
645.574	1.124	1123.5	repeat	Run1	repeat/STIM_002.jpg	100
649.359	0.827	827.4	repeat	Run1	repeat/STIM_002.jpg	100
653.901	1.094	1094.4	repeat	Run1	repeat/STIM_002.jpg	100
656.886	0.713	713.3	repeat	Run1	repeat/STIM_003.jpg	100
659.987	1.014	1013.7	repeat	Run1	repeat/STIM_003.jpg	99
663.542	1.123	1123.4	repeat	Run1	repeat/STIM_003.jpg	99
667.474	0.7	700.1	repeat	Run1	repeat/STIM_003.jpg	99
671.205	1.098	1097.9	repeat	Run1	repeat/STIM_003.jpg	99
675.947	1.103	1103.4	repeat	Run1	repeat/STIM_004.jpg	99
680.06	0.908	907.9	repeat	Run1	repeat/STIM_004.jpg	100
683.943	0.717	716.6	repeat	Run1	repeat/STIM_004.jpg	100
687.078	0.955	955.1	repeat	Run1	repeat/STIM_004.jpg	99
690.181	0.925	925.1	repeat	Run1	repeat/STIM_004.jpg	99
693.735	0.981	981.0	repeat	Run1	repeat/STIM_005.jpg	99
697.281	0.632	632.4	repeat	Run1	repeat/STIM_005.jpg	99
701.727	0.683	682.9	repeat	Run1	repeat/STIM_005.jpg	100
705.419	0.974	974.4	repeat	Run1	repeat/STIM_005.jpg	100
708.559	0.743	743.0	repeat	Run1	repeat/STIM_005.jpg	100
712.518	0.858	857.8	repeat	Run1	repeat/STIM_006.jpg	99
715.777	0.583	583.4	repeat	Run1	repeat/STIM_006.jpg	100
719.677	1.07	1070.3	repeat	Run1	repeat/STIM_006.jpg	99
723.776	0.744	743.9	repeat	Run1	repeat/STIM_006.jpg	99
726.839	0.965	964.6	repeat	Run1	repeat/STIM_006.jpg	99
731.218	0.899	899.3	repeat	Run1	repeat/STIM_007.jpg	100
734.108	1.044	1044.3	repeat	Run1	repeat/STIM_007.jpg	100
737.089	0.814	814.4	repeat	Run1	repeat/STIM_007.jpg	100
740.992	0.852	852.1	repeat	Run1	repeat/STIM_007.jpg	99
744.455	1.059	1058.8	repeat	Run1	repeat/STIM_007.jpg	100
748.614	0.814	814.1	repeat	Run1	repeat/STIM_008.jpg	100
752.687	0.976	976.4	repeat	Run1	repeat/STIM_008.jpg	99
756.362	0.728	728.2	repeat	Run1	repeat/STIM_008.jpg	100
759.261	0.933	933.2	repeat	Run1	repeat/STIM_008.jpg	99
762.37	1.205	1204.8	repeat	Run1	repeat/STIM_008.jpg	100
767.305	1.014	1013.7	repeat	Run1	repeat/STIM_009.jpg	100
771.986	0.799	798.9	repeat	Run1	repeat/STIM_009.jpg	100
776.004	0.643	642.8	repeat	Run1	repeat/STIM_009.jpg	99
779.62	0.91	909.6	repeat	Run1	repeat/STIM_009.jpg	100
783.308	0.992	992.4	repeat	Run1	repeat/STIM_009.jpg	100
787.821	0.922	921.6	repeat	Run1	repeat/STIM_010.jpg	100
791.439	0.984	984.0	repeat	Run1	repeat/STIM_010.jpg	100
795.507	0.577	576.6	repeat	Run1	repeat/STIM_010.jpg	100
798.955	0.811	810.7	repeat	Run1	repeat/STIM_010.jpg	99
803.243	0.878	878.0	repeat	Run1	repeat/STIM_010.jpg	99
807.419	0.588	587.9	repeat	Run1	repeat/STIM_011.jpg	100
810.161	0.778	777.7	repeat	Run1	repeat/STIM_011.jpg	100
814.087	0.77	770.4	repeat	Run1	repeat/STIM_011.jpg	100
817.124	0.916	915.7	repeat	Run1	repeat/STIM_011.jpg	100
820.246	0.966	965.9	repeat	Run1	repeat/STIM_011.jpg	100
823.624	0.611	610.7	repeat	Run1	repeat/STIM_012.jpg	100
827.735	0.71	709.9	repeat	Run1	repeat/STIM_012.jpg	100
831.507	0.865	864.7	repeat	Run1	repeat/STIM_012.jpg	100
834.699	0.724	723.8	repeat	Run1	repeat/STIM_012.jpg	99
837.81	0.745	745.1	repeat	Run1	repeat/STIM_012.jpg	100
842.097	1.06	1060.2	repeat	Run1	repeat/STIM_013.jpg	99
846.261	1.077	1077.3	repeat	Run1	repeat/STIM_013.jpg	100
850.388	0.788	788.3	repeat	Run1	repeat/STIM_013.jpg	99
854.595	0.826	825.7	repeat	Run1	repeat/STIM_013.jpg	100
857.572	0.709	708.6	repeat	Run1	repeat/STIM_013.jpg	100
862.169	1.086	1086.5	repeat	Run1	repeat/STIM_014.jpg	100
867.083	0.702	702.5	repeat	Run1	repeat/STIM_014.jpg	100
871.177	0.866	865.9	repeat	Run1	repeat/STIM_014.jpg	99
874.047	0.882	881.7	repeat	Run1	repeat/STIM_014.jpg	100
877.417	0.561	561.3	repeat	Run1	repeat/STIM_014.jpg	100
880.176	1.506	1505.5	generate	Run2	generate/STIM_000.jpg	99
884.87	1.674	1674.2	generate	Run2	generate/STIM_000.jpg	100
889.808	1.473	1473.0	generate	Run2	generate/STIM_000.jpg	100
894.556	1.035	1034.8	generate	Run2	generate/STIM_000.jpg	99
899.17	1.66	1660.4	generate	Run2	generate/STIM_000.jpg	99
903.413	2.897	2896.7	generate	Run2	generate/STIM_001.jpg	99
909.212	2.608	2607.7	generate	Run2	generate/STIM_001.jpg	100
915.339	2.33	2329.9	generate	Run2	generate/STIM_001.jpg	100
920.725	1.1	1100.4	generate	Run2	generate/STIM_001.jpg	99
924.93	1.519	1519.1	generate	Run2	generate/STIM_001.jpg	99
928.749	2.022	2022.2	generate	Run2	generate/STIM_002.jpg	100
933.683	1.605	1604.7	generate	Run2	generate/STIM_002.jpg	99
937.201	1.6	1600.0	generate	Run2	generate/STIM_002.jpg	100
941.19	2.136	2136.2	generate	Run2	generate/STIM_002.jpg	99
945.74	1.661	1660.6	generate	Run2	generate/STIM_002.jpg	99
950.071	2.413	2413.4	generate	Run2	generate/STIM_003.jpg	100
955.661	1.358	1358.4	generate	Run2	generate/STIM_003.jpg	99
959.105	1.752	1751.9	generate	Run2	generate/STIM_003.jpg	99
962.935	1.954	1953.6	generate	Run2	generate/STIM_003.jpg	100
967.571	1.553	1553.4	generate	Run2	generate/STIM_003.jpg	100
971.3	1.897	1897.4	generate	Run2	generate/STIM_004.jpg	99
976.638	1.214	1213.7	generate	Run2	generate/STIM_004.jpg	100
980.002	1.124	1123.5	generate	Run2	generate/STIM_004.jpg	100
983.11	2.351	2351.4	generate	Run2	generate/STIM_004.jpg	99
988.176	1.191	1191.1	generate	Run2	generate/STIM_004.jpg	100
991.789	2.76	2759.6	generate	Run2	generate/STIM_005.jpg	100
997.564	1.528	1527.6	generate	Run2	generate/STIM_005.jpg	100
1001.022	2.336	2335.7	generate	Run2	generate/STIM_005.jpg	100
1005.167	1.878	1878.1	generate	Run2	generate/STIM_005.jpg	99
1010.416	1.578	1577.7	generate	Run2	generate/STIM_005.jpg	99
1013.876	2.488	2488.3	generate	Run2	generate/STIM_006.jpg	99
1018.231	1.968	1968.1	generate	Run2	generate/STIM_006.jpg	99
1022.413	1.345	1345.4	generate	Run2	generate/STIM_006.jpg	99
1026.015	1.928	1928.3	generate	Run2	generate/STIM_006.jpg	100
1030.682	1.308	1307.7	generate	Run2	generate/STIM_006.jpg	100
1034.614	2.253	2253.1	generate	Run2	generate/STIM_007.jpg	100
1040.291	1.408	1408.0	generate	Run2	generate/STIM_007.jpg	99
1044.983	1.352	1352.3	generate	Run2	generate/STIM_007.jpg	100
1048.961	1.163	1163.3	generate	Run2	generate/STIM_007.jpg	100
1052.12	1.547	1546.7	generate	Run2	generate/STIM_007.jpg	100
1056.532	2.618	2617.8	generate	Run2	generate/STIM_008.jpg	100
1061.118	2.198	2197.9	generate	Run2	generate/STIM_008.jpg	99
1066.615	2.037	2037.0	generate	Run2	generate/STIM_008.jpg	100
1071.917	1.406	1405.6	generate	Run2	generate/STIM_008.jpg	99
1075.836	1.944	1944.5	generate	Run2	generate/STIM_008.jpg	99
1079.651	1.834	1833.9	generate	Run2	generate/STIM_009.jpg	100
1085.031	2.137	2136.8	generate	Run2	generate/STIM_009.jpg	99
1089.491	2.49	2489.7	generate	Run2	generate/STIM_009.jpg	99
1095.664	1.744	1744.5	generate	Run2	generate/STIM_009.jpg	100
1099.31	1.654	1654.1	generate	Run2	generate/STIM_009.jpg	100
1103.847	2.779	2779.1	generate	Run2	generate/STIM_010.jpg	100
1109.471	1.157	1156.8	generate	Run2	generate/STIM_010.jpg	100
1113.633	2.348	2348.0	generate	Run2	generate/STIM_010.jpg	100
1118.513	1.504	1504.3	generate	Run2	generate/STIM_010.jpg	100
1123.211	1.112	1112.3	generate	Run2	generate/STIM_010.jpg	100
1126.698	2.15	2150.4	generate	Run2	generate/STIM_011.jpg	99
1131.178	1.619	1619.0	generate	Run2	generate/STIM_011.jpg	99
1135.797	1.452	1452.3	generate	Run2	generate/STIM_011.jpg	100
1140.177	1.06	1059.5	generate	Run2	generate/STIM_011.jpg	100
1144.972	1.963	1962.6	generate	Run2	generate/STIM_011.jpg	100
1150.316	1.42	1419.9	generate	Run2	generate/STIM_012.jpg	100
1155.432	2.059	2059.0	generate	Run2	generate/STIM_012.jpg	100
1159.873	2.249	2249.2	generate	Run2	generate/STIM_012.jpg	100
1163.986	2.36	2359.9	generate	Run2	generate/STIM_012.jpg	100
1168.21	1.467	1467.1	generate	Run2	generate/STIM_012.jpg	99
1172.751	2.766	2766.2	generate	Run2	generate/STIM_013.jpg	100
1178.823	2.653	2652.9	generate	Run2	generate/STIM_013.jpg	100
1184.746	1.814	1814.3	generate	Run2	generate/STIM_013.jpg	100
1188.845	1.879	1879.4	generate	Run2	generate/STIM_013.jpg	99
1193.519	2.399	2399.2	generate	Run2	generate/STIM_013.jpg	100
1197.882	2.48	2480.3	generate	Run2	generate/STIM_014.jpg	100
1202.704	2.499	2499.3	generate	Run2	generate/STIM_014.jpg	99
1208.782	2.083	2082.9	generate	Run2	generate/STIM_014.jpg	100
1212.904	1.444	1444.3	generate	Run2	generate/STIM_014.jpg	99
1216.809	2.027	2027.3	generate	Run2	generate/STIM_014.jpg	99
1221.251	2.001	2001.2	generate	Run2	generate/STIM_015.jpg	99
1225.729	1.438	1437.9	generate	Run2	generate/STIM_015.jpg	100
1230.345	1.306	1306.2	generate	Run2	generate/STIM_015.jpg	100
1234.905	1.674	1674.5	generate	Run2	generate/STIM_015.jpg	99
1239.386	1.625	1625.0	generate	Run2	generate/STIM_015.jpg	99
1243.72	1.265	1264.7	generate	Run2	generate/STIM_016.jpg	100
1248.05	1.569	1568.8	generate	Run2	generate/STIM_016.jpg	99
1252.418	1.56	1560.1	generate	Run2	generate/STIM_016.jpg	99
1257.288	2.054	2053.9	generate	Run2	generate/STIM_016.jpg	99
1262.658	1.432	1432.0	generate	Run2	generate/STIM_016.jpg	100
1266.943	1.101	1101.1	generate	Run2	generate/STIM_017.jpg	100
1270.947	2.017	2017.4	generate	Run2	generate/STIM_017.jpg	100
1275.679	1.534	1533.6	generate	Run2	generate/STIM_017.jpg	99
1280.828	1.634	1634.1	generate	Run2	generate/STIM_017.jpg	100
1285.127	2.222	2221.8	generate	Run2	generate/STIM_017.jpg	100
1290.504	2.382	2381.6	generate	Run2	generate/STIM_018.jpg	100
1295.558	1.359	1358.9	generate	Run2	generate/STIM_018.jpg	99
1299.414	2.515	2515.0	generate	Run2	generate/STIM_018.jpg	100
1303.678	1.538	1537.8	generate	Run2	generate/STIM_018.jpg	100
1308.021	2.403	2402.7	generate	Run2	generate/STIM_018.jpg	100
1313.555	2.329	2329.1	generate	Run2	generate/STIM_019.jpg	99
1317.799	2.61	2609.5	generate	Run2	generate/STIM_019.jpg	99
1323.564	1.134	1134.5	generate	Run2	generate/STIM_019.jpg	99
1327.452	1.826	1825.8	generate	Run2	generate/STIM_019.jpg	99
1331.375	1.175	1175.0	generate	Run2	generate/STIM_019.jpg	99
1336.195	2.07	2070.4	generate	Run2	generate/STIM_020.jpg	99
1340.952	1.558	1557.6	generate	Run2	generate/STIM_020.jpg	99
1344.823	2.006	2006.3	generate	Run2	generate/STIM_020.jpg	99
1349.107	1.314	1314.5	generate	Run2	generate/STIM_020.jpg	100
1353.113	1.147	1146.9	generate	Run2	generate/STIM_020.jpg	100
1357.633	2.91	2909.5	generate	Run2	generate/STIM_021.jpg	99
1363.15	1.445	1445.3	generate	Run2	generate/STIM_021.jpg	100
1366.687	1.463	1463.4	generate	Run2	generate/STIM_021.jpg	99
1370.39	1.886	1885.7	generate	Run2	generate/STIM_021.jpg	100
1375.705	2.394	2394.2	generate	Run2	generate/STIM_021.jpg	99
1381.11	1.871	1871.3	generate	Run2	generate/STIM_022.jpg	100
1386.388	2.036	2035.6	generate	Run2	generate/STIM_022.jpg	99
1391.063	2.208	2208.4	generate	Run2	generate/STIM_022.jpg	100
1396.243	2.33	2330.0	generate	Run2	generate/STIM_022.jpg	100
1402.095	1.794	1794.2	generate	Run2	generate/STIM_022.jpg	100
1406.202	2.06	2059.5	generate	Run2	generate/STIM_023.jpg	99
1411.863	2.411	2411.3	generate	Run2	generate/STIM_023.jpg	100
1417.279	2.166	2165.8	generate	Run2	generate/STIM_023.jpg	99
1422.199	1.7	1700.4	generate	Run2	generate/STIM_023.jpg	99
1426.272	1.18	1179.5	generate	Run2	generate/STIM_023.jpg	99
1430.93	2.238	2237.5	generate	Run2	generate/STIM_024.jpg	100
1436.424	2.314	2313.5	generate	Run2	generate/STIM_024.jpg	100
1442.163	1.501	1501.0	generate	Run2	generate/STIM_024.jpg	100
1446.172	1.922	1922.3	generate	Run2	generate/STIM_024.jpg	99
1451.784	2.188	2187.9	generate	Run2	generate/STIM_024.jpg	99
1455.836	0.673	673.2	repeat	Run2	repeat/STIM_000.jpg	100
1459.896	0.814	813.6	repeat	Run2	repeat/STIM_000.jpg	100
1464.385	1.034	1034.3	repeat	Run2	repeat/STIM_000.jpg	100
1467.862	0.927	926.7	repeat	Run2	repeat/STIM_000.jpg	99
1470.767	0.569	568.8	repeat	Run2	repeat/STIM_000.jpg	99
1474.471	0.872	871.7	repeat	Run2	repeat/STIM_001.jpg	100
1479.199	0.888	887.6	repeat	Run2	repeat/STIM_001.jpg	100
1482.729	0.933	932.8	repeat	Run2	repeat/STIM_001.jpg	100
1487.115	0.99	990.2	repeat	Run2	repeat/STIM_001.jpg	99
1490.248	0.864	864.4	repeat	Run2	repeat/STIM_001.jpg	100
1494.961	0.617	617.3	repeat	Run2	repeat/STIM_002.jpg	99
1499.385	1.017	1017.3	repeat	Run2	repeat/STIM_002.jpg	99
1502.995	1.067	1066.7	repeat	Run2	repeat/STIM_002.jpg	100
1506.19	0.828	828.3	repeat	Run2	repeat/STIM_002.jpg	99
1510.845	1.018	1017.7	repeat	Run2	repeat/STIM_002.jpg	100
1514.281	0.745	745.3	repeat	Run2	repeat/STIM_003.jpg	100
1517.632	0.538	538.4	repeat	Run2	repeat/STIM_003.jpg	100
1521.693	1.078	1078.0	repeat	Run2	repeat/STIM_003.jpg	100
1525.163	0.619	619.1	repeat	Run2	repeat/STIM_003.jpg	100
1528.573	1.118	1118.0	repeat	Run2	repeat/STIM_003.jpg	100
1533.306	0.922	922.1	repeat	Run2	repeat/STIM_004.jpg	99
1536.581	0.931	931.4	repeat	Run2	repeat/STIM_004.jpg	100
1540.836	1.007	1006.8	repeat	Run2	repeat/STIM_004.jpg	99
1545.07	0.96	960.1	repeat	Run2	repeat/STIM_004.jpg	100
1548.803	0.603	602.7	repeat	Run2	repeat/STIM_004.jpg	100
1552.568	0.728	727.8	repeat	Run2	repeat/STIM_005.jpg	100
1556.921	0.665	665.1	repeat	Run2	repeat/STIM_005.jpg	99
1560.922	1.12	1119.5	repeat	Run2	repeat/STIM_005.jpg	100
1565.296	1.046	1046.1	repeat	Run2	repeat/STIM_005.jpg	100
1569.346	0.863	862.8	repeat	Run2	repeat/STIM_005.jpg	99
1573.184	0.948	948.4	repeat	Run2	repeat/STIM_006.jpg	100
1576.239	1.119	1118.8	repeat	Run2	repeat/STIM_006.jpg	100
1580.907	1.052	1051.9	repeat	Run2	repeat/STIM_006.jpg	100
1584.635	0.673	673.1	repeat	Run2	repeat/STIM_006.jpg	100
1587.617	1.062	1062.0	repeat	Run2	repeat/STIM_006.jpg	100
1591.704	1.041	1041.0	repeat	Run2	repeat/STIM_007.jpg	100
1594.665	0.887	886.9	repeat	Run2	repeat/STIM_007.jpg	100
1598.073	0.87	870.0	repeat	Run2	repeat/STIM_007.jpg	99
1601.99	0.703	702.7	repeat	Run2	repeat/STIM_007.jpg	100
1605.192	1.084	1084.3	repeat	Run2	repeat/STIM_007.jpg	100
1608.212	0.785	784.6	repeat	Run2	repeat/STIM_008.jpg	100
1612.232	0.767	766.9	repeat	Run2	repeat/STIM_008.jpg	100
1615.318	0.923	923.2	repeat	Run2	repeat/STIM_008.jpg	99
1618.903	0.946	945.9	repeat	Run2	repeat/STIM_008.jpg	100
1622.537	1.147	1146.9	repeat	Run2	repeat/STIM_008.jpg	100
1626.668	0.595	595.3	repeat	Run2	repeat/STIM_009.jpg	99
1629.993	0.798	798.5	repeat	Run2	repeat/STIM_009.jpg	99
1633.814	0.649	649.0	repeat	Run2	repeat/STIM_009.jpg	100
1637.379	0.608	607.9	repeat	Run2	repeat/STIM_009.jpg	100
1641.805	0.782	782.0	repeat	Run2	repeat/STIM_009.jpg	100
1645.071	0.858	858.0	repeat	Run2	repeat/STIM_010.jpg	100
1648.185	1.106	1106.0	repeat	Run2	repeat/STIM_010.jpg	100
1653.046	0.746	745.7	repeat	Run2	repeat/STIM_010.jpg	99
1657.19	0.782	782.4	repeat	Run2	repeat/STIM_010.jpg	100
1660.111	1.151	1150.8	repeat	Run2	repeat/STIM_010.jpg	100
1663.829	0.71	710.3	repeat	Run2	repeat/STIM_011.jpg	100
1667.822	0.907	906.7	repeat	Run2	repeat/STIM_011.jpg	100
1670.743	0.874	874.0	repeat	Run2	repeat/STIM_011.jpg	100
1675.463	0.895	895.1	repeat	Run2	repeat/STIM_011.jpg	99
1679.697	1.16	1160.4	repeat	Run2	repeat/STIM_011.jpg	99
1683.689	1.118	1117.7	repeat	Run2	repeat/STIM_012.jpg	99
1687.953	0.988	988.4	repeat	Run2	repeat/STIM_012.jpg	99
1691.395	0.789	788.9	repeat	Run2	repeat/STIM_012.jpg	99
1694.282	0.704	704.5	repeat	Run2	repeat/STIM_012.jpg	100
1697.221	0.898	897.9	repeat	Run2	repeat/STIM_012.jpg	99
1701.402	1.034	1033.9	repeat	Run2	repeat/STIM_013.jpg	99
1705.042	0.641	641.1	repeat	Run2	repeat/STIM_013.jpg	100
1708.872	0.674	673.7	repeat	Run2	repeat/STIM_013.jpg	99
1711.984	0.485	484.7	repeat	Run2	repeat/STIM_013.jpg	100
1716.003	0.981	981.2	repeat	Run2	repeat/STIM_013.jpg	100
1719.361	1.064	1064.2	repeat	Run2	repeat/STIM_014.jpg	100
1723.452	0.636	636.1	repeat	Run2	repeat/STIM_014.jpg	100
1727.772	0.773	772.8	repeat	Run2	repeat/STIM_014.jpg	99
1732.355	0.876	875.6	repeat	Run2	repeat/STIM_014.jpg	99
1735.444	0.551	551.4	repeat	Run2	repeat/STIM_014.jpg	100
1739.322	2.219	2218.8	generate	Run3	generate/STIM_000.jpg	99
1743.656	1.395	1395.1	generate	Run3	generate/STIM_000.jpg	99
1748.665	1.488	1488.0	generate	Run3	generate/STIM_000.jpg	100
1752.399	2.053	2053.1	generate	Run3	generate/STIM_000.jpg	99
1756.5	2.192	2191.7	generate	Run3	generate/STIM_000.jpg	100
1761.092	1.26	1260.2	generate	Run3	generate/STIM_001.jpg	100
1765.793	1.801	1801.1	generate	Run3	generate/STIM_001.jpg	99
1770.202	1.191	1191.3	generate	Run3	generate/STIM_001.jpg	99
1774.629	1.868	1868.0	generate	Run3	generate/STIM_001.jpg	100
1779.072	1.395	1395.2	generate	Run3	generate/STIM_001.jpg	100
1782.743	2.149	2149.4	generate	Run3	generate/STIM_002.jpg	100
1788.354	2.202	2202.5	generate	Run3	generate/STIM_002.jpg	100
1792.461	1.22	1220.5	generate	Run3	generate/STIM_002.jpg	100
1797.522	1.459	1458.7	generate	Run3	generate/STIM_002.jpg	99
1800.863	1.641	1641.0	generate	Run3	generate/STIM_002.jpg	99
1805.66	1.39	1390.1	generate	Run3	generate/STIM_003.jpg	100
1810.34	1.341	1341.2	generate	Run3	generate/STIM_003.jpg	100
1813.855	1.247	1247.0	generate	Run3	generate/STIM_003.jpg	99
1818.105	0.998	997.8	generate	Run3	generate/STIM_003.jpg	99
1821.355	1.665	1664.9	generate	Run3	generate/STIM_003.jpg	99
1826.401	1.123	1122.9	generate	Run3	generate/STIM_004.jpg	100
1831.078	1.847	1847.2	generate	Run3	generate/STIM_004.jpg	99
1835.501	1.031	1030.6	generate	Run3	generate/STIM_004.jpg	100
1839.43	1.118	1117.8	generate	Run3	generate/STIM_004.jpg	99
1842.975	2.223	2222.7	generate	Run3	generate/STIM_004.jpg	99
1848.548	2.041	2040.8	generate	Run3	generate/STIM_005.jpg	99
1852.65	1.435	1434.6	generate	Run3	generate/STIM_005.jpg	100
1856.045	2.008	2007.9	generate	Run3	generate/STIM_005.jpg	99
1861.138	1.449	1449.0	generate	Run3	generate/STIM_005.jpg	99
1865.505	1.333	1332.7	generate	Run3	generate/STIM_005.jpg	100
1868.866	1.425	1425.0	generate	Run3	generate/STIM_006.jpg	99
1872.832	0.954	954.3	generate	Run3	generate/STIM_006.jpg	99
1876.117	2.014	2013.9	generate	Run3	generate/STIM_006.jpg	100
1880.869	2.137	2136.6	generate	Run3	generate/STIM_006.jpg	100
1886.269	1.581	1580.7	generate	Run3	generate/STIM_006.jpg	100
1890.622	1.24	1239.5	generate	Run3	generate/STIM_007.jpg	99
1894.929	2.035	2034.8	generate	Run3	generate/STIM_007.jpg	100
1900.028	1.672	1671.7	generate	Run3	generate/STIM_007.jpg	99
1904.564	1.511	1511.4	generate	Run3	generate/STIM_007.jpg	99
1908.83	2.015	2014.9	generate	Run3	generate/STIM_007.jpg	99
1913.43	1.37	1370.0	generate	Run3	generate/STIM_008.jpg	100
1916.925	1.679	1678.8	generate	Run3	generate/STIM_008.jpg	99
1920.599	1.727	1727.1	generate	Run3	generate/STIM_008.jpg	100
1926.06	0.908	908.5	generate	Run3	generate/STIM_008.jpg	99
1930.296	1.956	1956.2	generate	Run3	generate/STIM_008.jpg	100
1935.047	1.449	1449.1	generate	Run3	generate/STIM_009.jpg	100
1938.769	1.852	1851.9	generate	Run3	generate/STIM_009.jpg	99
1943.56	1.115	1114.8	generate	Run3	generate/STIM_009.jpg	100
1947.36	1.678	1677.7	generate	Run3	generate/STIM_009.jpg	99
1952.737	1.48	1479.9	generate	Run3	generate/STIM_009.jpg	99
1957.282	0.989	989.3	generate	Run3	generate/STIM_010.jpg	100
1960.626	1.602	1602.3	generate	Run3	generate/STIM_010.jpg	99
1965.154	1.311	1310.7	generate	Run3	generate/STIM_010.jpg	99
1968.969	1.652	1652.5	generate	Run3	generate/STIM_010.jpg	100
1974.408	1.539	1538.8	generate	Run3	generate/STIM_010.jpg	99
1977.802	1.881	1881.3	generate	Run3	generate/STIM_011.jpg	100
1982.192	1.37	1369.8	generate	Run3	generate/STIM_011.jpg	100
1986.989	1.66	1660.3	generate	Run3	generate/STIM_011.jpg	100
1991.847	1.619	1619.0	generate	Run3	generate/STIM_011.jpg	99
1995.278	1.119	1118.8	generate	Run3	generate/STIM_011.jpg	100
1998.75	1.149	1149.3	generate	Run3	generate/STIM_012.jpg	99
2001.924	2.316	2315.5	generate	Run3	generate/STIM_012.jpg	100
2006.573	1.778	1778.4	generate	Run3	generate/STIM_012.jpg	99
2010.521	1.807	1806.7	generate	Run3	generate/STIM_012.jpg	100
2014.532	1.588	1588.1	generate	Run3	generate/STIM_012.jpg	100
2017.917	0.879	879.0	generate	Run3	generate/STIM_013.jpg	100
2021.618	2.204	2203.5	generate	Run3	generate/STIM_013.jpg	99
2025.732	2.05	2050.1	generate	Run3	generate/STIM_013.jpg	100
2029.556	1.515	1514.6	generate	Run3	generate/STIM_013.jpg	100
2034.78	2.044	2044.0	generate	Run3	generate/STIM_013.jpg	100
2040.02	2.039	2039.5	generate	Run3	generate/STIM_014.jpg	100
2043.902	1.547	1546.6	generate	Run3	generate/STIM_014.jpg	100
2048.465	1.48	1480.5	generate	Run3	generate/STIM_014.jpg	100
2053.433	1.863	1863.3	generate	Run3	generate/STIM_014.jpg	100
2057.323	1.145	1145.4	generate	Run3	generate/STIM_014.jpg	100
2061.784	1.21	1209.5	generate	Run3	generate/STIM_015.jpg	100
2066.806	1.991	1991.3	generate	Run3	generate/STIM_015.jpg	100
2072.405	2.409	2409.3	generate	Run3	generate/STIM_015.jpg	100
2077.955	2.234	2233.8	generate	Run3	generate/STIM_015.jpg	100
2082.878	1.217	1217.2	generate	Run3	generate/STIM_015.jpg	100
2086.088	1.901	1900.7	generate	Run3	generate/STIM_016.jpg	99
2091.22	1.206	1206.2	generate	Run3	generate/STIM_016.jpg	99
2095.026	1.654	1653.5	generate	Run3	generate/STIM_016.jpg	100
2099.562	1.486	1485.6	generate	Run3	generate/STIM_016.jpg	100
2103.974	1.023	1022.8	generate	Run3	generate/STIM_016.jpg	99
2108.274	1.186	1186.2	generate	Run3	generate/STIM_017.jpg	100
2111.567	1.992	1991.6	generate	Run3	generate/STIM_017.jpg	99
2115.658	2.29	2290.2	generate	Run3	generate/STIM_017.jpg	99
2121.23	1.422	1422.3	generate	Run3	generate/STIM_017.jpg	100
2124.781	1.917	1917.1	generate	Run3	generate/STIM_017.jpg	100
2129.671	2.335	2334.8	generate	Run3	generate/STIM_018.jpg	100
2134.562	1.023	1023.2	generate	Run3	generate/STIM_018.jpg	99
2138.319	2.148	2147.5	generate	Run3	generate/STIM_018.jpg	100
2142.232	2.09	2090.1	generate	Run3	generate/STIM_018.jpg	99
2146.64	1.894	1893.6	generate	Run3	generate/STIM_018.jpg	100
2150.95	1.478	1478.5	generate	Run3	generate/STIM_019.jpg	100
2154.454	1.518	1517.8	generate	Run3	generate/STIM_019.jpg	100
2159.157	1.36	1360.3	generate	Run3	generate/STIM_019.jpg	99
2163.672	2.045	2044.6	generate	Run3	generate/STIM_019.jpg	100
2168.008	1.969	1969.3	generate	Run3	generate/STIM_019.jpg	100
2173.614	1.659	1659.2	generate	Run3	generate/STIM_020.jpg	99
2178.06	1.685	1684.8	generate	Run3	generate/STIM_020.jpg	99
2183.281	2.196	2196.4	generate	Run3	generate/STIM_020.jpg	99
2188.381	1.684	1683.7	generate	Run3	generate/STIM_020.jpg	99
2193.402	2.241	2240.7	generate	Run3	generate/STIM_020.jpg	100
2198.094	1.391	1391.2	generate	Run3	generate/STIM_021.jpg	100
2201.524	1.503	1503.4	generate	Run3	generate/STIM_021.jpg	100
2205.695	2.283	2283.4	generate	Run3	generate/STIM_021.jpg	100
2211.375	2.133	2133.4	generate	Run3	generate/STIM_021.jpg	99
2216.31	1.283	1283.3	generate	Run3	generate/STIM_021.jpg	100
2219.81	1.551	1551.2	generate	Run3	generate/STIM_022.jpg	100
2224.502	1.339	1338.6	generate	Run3	generate/STIM_022.jpg	100
2227.823	2.185	2184.8	generate	Run3	generate/STIM_022.jpg	99
2233.044	1.53	1529.9	generate	Run3	generate/STIM_022.jpg	100
2237.57	2.202	2201.7	generate	Run3	generate/STIM_022.jpg	99
2241.95	2.406	2405.9	generate	Run3	generate/STIM_023.jpg	100
2246.716	1.271	1270.9	generate	Run3	generate/STIM_023.jpg	100
2251.459	1.932	1931.7	generate	Run3	generate/STIM_023.jpg	99
2256.429	2.237	2237.1	generate	Run3	generate/STIM_023.jpg	99
2260.859	0.989	989.4	generate	Run3	generate/STIM_023.jpg	99
2265.406	2.188	2187.5	generate	Run3	generate/STIM_024.jpg	99
2270.835	1.707	1707.2	generate	Run3	generate/STIM_024.jpg	100
2276.198	1.708	1708.0	generate	Run3	generate/STIM_024.jpg	99
2280.55	1.96	1960.4	generate	Run3	generate/STIM_024.jpg	99
2286.268	1.938	1938.4	generate	Run3	generate/STIM_024.jpg	100
2290.497	0.856	856.4	repeat	Run3	repeat/STIM_000.jpg	100
2293.585	0.937	936.8	repeat	Run3	repeat/STIM_000.jpg	99
2296.632	1.027	1027.4	repeat	Run3	repeat/STIM_000.jpg	100
2300.502	0.875	874.8	repeat	Run3	repeat/STIM_000.jpg	100
2304.843	0.895	895.3	repeat	Run3	repeat/STIM_000.jpg	100
2308.079	0.72	720.1	repeat	Run3	repeat/STIM_001.jpg	99
2310.883	0.93	930.3	repeat	Run3	repeat/STIM_001.jpg	100
2314.795	0.925	925.3	repeat	Run3	repeat/STIM_001.jpg	100
2318.437	0.908	907.8	repeat	Run3	repeat/STIM_001.jpg	100
2322.524	1.099	1098.9	repeat	Run3	repeat/STIM_001.jpg	100
2326.572	0.876	876.1	repeat	Run3	repeat/STIM_002.jpg	100
2330.41	0.596	596.1	repeat	Run3	repeat/STIM_002.jpg	100
2334.042	0.998	998.1	repeat	Run3	repeat/STIM_002.jpg	99
2337.593	0.615	615.0	repeat	Run3	repeat/STIM_002.jpg	100
2341.553	0.75	750.2	repeat	Run3	repeat/STIM_002.jpg	100
2345.905	0.845	845.0	repeat	Run3	repeat/STIM_003.jpg	100
2350.611	0.594	594.4	repeat	Run3	repeat/STIM_003.jpg	99
2353.202	0.94	940.4	repeat	Run3	repeat/STIM_003.jpg	100
2357.022	0.763	762.8	repeat	Run3	repeat/STIM_003.jpg	100
2359.92	0.74	740.0	repeat	Run3	repeat/STIM_003.jpg	100
2363.882	0.87	869.6	repeat	Run3	repeat/STIM_004.jpg	99
2366.883	0.796	796.0	repeat	Run3	repeat/STIM_004.jpg	100
2369.656	1.128	1128.4	repeat	Run3	repeat/STIM_004.jpg	99
2373.476	0.892	892.4	repeat	Run3	repeat/STIM_004.jpg	100
2376.521	0.607	607.4	repeat	Run3	repeat/STIM_004.jpg	100
2380.023	0.77	770.1	repeat	Run3	repeat/STIM_005.jpg	100
2384.457	0.935	934.9	repeat	Run3	repeat/STIM_005.jpg	100
2388.145	0.65	650.3	repeat	Run3	repeat/STIM_005.jpg	100
2391.937	0.584	584.4	repeat	Run3	repeat/STIM_005.jpg	99
2394.808	0.71	709.7	repeat	Run3	repeat/STIM_005.jpg	100
2397.544	0.964	963.8	repeat	Run3	repeat/STIM_006.jpg	99
2400.602	0.832	831.5	repeat	Run3	repeat/STIM_006.jpg	100
2404.496	0.767	766.6	repeat	Run3	repeat/STIM_006.jpg	100
2407.457	0.648	648.4	repeat	Run3	repeat/STIM_006.jpg	99
2411.776	0.732	732.2	repeat	Run3	repeat/STIM_006.jpg	100
2415.897	0.636	635.9	repeat	Run3	repeat/STIM_007.jpg	100
2418.641	0.909	908.6	repeat	Run3	repeat/STIM_007.jpg	99
2421.608	0.738	737.5	repeat	Run3	repeat/STIM_007.jpg	100
2424.57	0.97	969.5	repeat	Run3	repeat/STIM_007.jpg	99
2428.375	0.966	966.0	repeat	Run3	repeat/STIM_007.jpg	100
2431.87	0.882	881.5	repeat	Run3	repeat/STIM_008.jpg	100
2435.247	0.968	968.1	repeat	Run3	repeat/STIM_008.jpg	100
2439.268	0.605	604.6	repeat	Run3	repeat/STIM_008.jpg	100
2441.896	1.071	1070.6	repeat	Run3	repeat/STIM_008.jpg	99
2445.527	0.826	825.7	repeat	Run3	repeat/STIM_008.jpg	99
2448.524	0.73	729.7	repeat	Run3	repeat/STIM_009.jpg	100
2451.467	0.763	763.3	repeat	Run3	repeat/STIM_009.jpg	100
2455.371	0.748	747.8	repeat	Run3	repeat/STIM_009.jpg	99
2458.101	0.714	713.9	repeat	Run3	repeat/STIM_009.jpg	100
2461.552	0.842	842.3	repeat	Run3	repeat/STIM_009.jpg	100
2464.28	0.983	982.6	repeat	Run3	repeat/STIM_010.jpg	99
2468.081	1.21	1210.0	repeat	Run3	repeat/STIM_010.jpg	99
2472.706	0.782	781.6	repeat	Run3	repeat/STIM_010.jpg	99
2476.439	0.851	850.7	repeat	Run3	repeat/STIM_010.jpg	100
2479.296	0.681	681.3	repeat	Run3	repeat/STIM_010.jpg	99
2483.78	0.853	853.2	repeat	Run3	repeat/STIM_011.jpg	99
2487.025	1.094	1093.5	repeat	Run3	repeat/STIM_011.jpg	99
2491.768	0.549	549.1	repeat	Run3	repeat/STIM_011.jpg	100
2494.922	1.211	1211.4	repeat	Run3	repeat/STIM_011.jpg	100
2499.06	0.912	911.5	repeat	Run3	repeat/STIM_011.jpg	99
2503.694	0.86	859.5	repeat	Run3	repeat/STIM_012.jpg	100
2506.794	0.722	721.6	repeat	Run3	repeat/STIM_012.jpg	99
2509.959	0.611	610.9	repeat	Run3	repeat/STIM_012.jpg	100
2513.253	0.557	557.0	repeat	Run3	repeat/STIM_012.jpg	99
2516.546	0.719	719.1	repeat	Run3	repeat/STIM_012.jpg	99
2520.631	0.747	746.6	repeat	Run3	repeat/STIM_013.jpg	100
2525.117	0.734	733.7	repeat	Run3	repeat/STIM_013.jpg	100
2529.425	0.763	762.9	repeat	Run3	repeat/STIM_013.jpg	100
2532.597	0.725	725.0	repeat	Run3	repeat/STIM_013.jpg	99
2535.883	0.839	838.6	repeat	Run3	repeat/STIM_013.jpg	100
2540.394	0.615	614.8	repeat	Run3	repeat/STIM_014.jpg	100
2544.115	0.833	833.2	repeat	Run3	repeat/STIM_014.jpg	100
2548.446	0.822	822.4	repeat	Run3	repeat/STIM_014.jpg	99
2551.942	1.083	1083.1	repeat	Run3	repeat/STIM_014.jpg	100
2555.93	0.825	825.1	repeat	Run3	repeat/STIM_014.jpg	100
2559.51	1.62	1619.8	generate	Run4	generate/STIM_000.jpg	100
2564.931	1.1	1100.1	generate	Run4	generate/STIM_000.jpg	100
2568.798	1.576	1575.9	generate	Run4	generate/STIM_000.jpg	100
2572.687	2.181	2181.3	generate	Run4	generate/STIM_000.jpg	99
2577.473	1.416	1416.5	generate	Run4	generate/STIM_000.jpg	99
2580.794	2.24	2240.5	generate	Run4	generate/STIM_001.jpg	99
2585.978	1.427	1427.3	generate	Run4	generate/STIM_001.jpg	99
2589.995	2.238	2238.1	generate	Run4	generate/STIM_001.jpg	100
2594.797	1.846	1845.5	generate	Run4	generate/STIM_001.jpg	99
2599.011	1.328	1328.4	generate	Run4	generate/STIM_001.jpg	100
2602.903	1.998	1997.9	generate	Run4	generate/STIM_002.jpg	100
2608.388	1.393	1393.3	generate	Run4	generate/STIM_002.jpg	100
2612.365	1.001	1000.8	generate	Run4	generate/STIM_002.jpg	100
2615.332	1.784	1784.3	generate	Run4	generate/STIM_002.jpg	100
2619.467	2.072	2072.0	generate	Run4	generate/STIM_002.jpg	99
2624.302	1.96	1960.0	generate	Run4	generate/STIM_003.jpg	99
2629.784	2.03	2030.4	generate	Run4	generate/STIM_003.jpg	100
2634.679	2.05	2050.4	generate	Run4	generate/STIM_003.jpg	99
2639.546	1.397	1397.2	generate	Run4	generate/STIM_003.jpg	100
2643.987	2.004	2003.7	generate	Run4	generate/STIM_003.jpg	100
2648.138	1.202	1201.8	generate	Run4	generate/STIM_004.jpg	100
2652.68	1.721	1720.9	generate	Run4	generate/STIM_004.jpg	100
2657.636	1.202	1202.5	generate	Run4	generate/STIM_004.jpg	99
2661.102	0.98	980.4	generate	Run4	generate/STIM_004.jpg	100
2665.947	1.111	1111.4	generate	Run4	generate/STIM_004.jpg	100
2670.85	1.457	1456.7	generate	Run4	generate/STIM_005.jpg	100
2675.704	1.547	1547.1	generate	Run4	generate/STIM_005.jpg	100
2679.706	1.807	1807.4	generate	Run4	generate/STIM_005.jpg	99
2684.35	1.421	1420.7	generate	Run4	generate/STIM_005.jpg	99
2689.646	2.139	2138.8	generate	Run4	generate/STIM_005.jpg	100
2695.476	2.258	2258.0	generate	Run4	generate/STIM_006.jpg	99
2699.93	1.297	1297.4	generate	Run4	generate/STIM_006.jpg	99
2704.896	1.316	1316.2	generate	Run4	generate/STIM_006.jpg	99
2709.09	1.596	1595.5	generate	Run4	generate/STIM_006.jpg	99
2713.028	1.55	1549.6	generate	Run4	generate/STIM_006.jpg	100
2716.571	1.692	1692.0	generate	Run4	generate/STIM_007.jpg	99
2720.339	1.716	1716.1	generate	Run4	generate/STIM_007.jpg	100
2725.086	1.629	1629.0	generate	Run4	generate/STIM_007.jpg	99
2728.929	2.27	2269.6	generate	Run4	generate/STIM_007.jpg	100
2733.189	2.205	2205.0	generate	Run4	generate/STIM_007.jpg	100
2738.386	1.644	1644.4	generate	Run4	generate/STIM_008.jpg	99
2741.923	0.98	980.3	generate	Run4	generate/STIM_008.jpg	99
2746.398	2.052	2051.6	generate	Run4	generate/STIM_008.jpg	99
2752.143	1.186	1185.8	generate	Run4	generate/STIM_008.jpg	99
2756.653	1.832	1831.9	generate	Run4	generate/STIM_008.jpg	100
2761.565	1.805	1804.7	generate	Run4	generate/STIM_009.jpg	100
2765.303	1.72	1720.2	generate	Run4	generate/STIM_009.jpg	99
2769.432	0.92	920.3	generate	Run4	generate/STIM_009.jpg	99
2773.595	2.027	2027.5	generate	Run4	generate/STIM_009.jpg	99
2777.793	1.685	1685.1	generate	Run4	generate/STIM_009.jpg	99
2781.954	2.29	2289.5	generate	Run4	generate/STIM_010.jpg	100
2787.649	1.203	1203.4	generate	Run4	generate/STIM_010.jpg	99
2791.084	1.147	1146.7	generate	Run4	generate/STIM_010.jpg	99
2795.844	1.849	1849.1	generate	Run4	generate/STIM_010.jpg	100
2800.728	1.723	1723.3	generate	Run4	generate/STIM_010.jpg	100
2806.047	2.118	2118.4	generate	Run4	generate/STIM_011.jpg	100
2810.5	2.266	2266.5	generate	Run4	generate/STIM_011.jpg	100
2815.255	1.62	1620.4	generate	Run4	generate/STIM_011.jpg	100
2820.164	1.763	1763.3	generate	Run4	generate/STIM_011.jpg	99
2825.058	1.975	1975.1	generate	Run4	generate/STIM_011.jpg	100
2828.903	2.214	2213.9	generate	Run4	generate/STIM_012.jpg	99
2832.949	2.317	2317.2	generate	Run4	generate/STIM_012.jpg	99
2837.982	1.723	1722.9	generate	Run4	generate/STIM_012.jpg	100
2841.722	2.316	2315.9	generate	Run4	generate/STIM_012.jpg	99
2847.445	1.764	1764.3	generate	Run4	generate/STIM_012.jpg	99
2852.029	1.904	1904.5	generate	Run4	generate/STIM_013.jpg	99
2856.948	2.216	2215.6	generate	Run4	generate/STIM_013.jpg	99
2862.045	2.315	2315.0	generate	Run4	generate/STIM_013.jpg	100
2866.549	1.601	1601.2	generate	Run4	generate/STIM_013.jpg	99
2871.204	2.292	2292.2	generate	Run4	generate/STIM_013.jpg	100
2875.831	2.151	2150.8	generate	Run4	generate/STIM_014.jpg	99
2881.546	1.362	1361.7	generate	Run4	generate/STIM_014.jpg	100
2885.753	1.481	1481.2	generate	Run4	generate/STIM_014.jpg	99
2890.207	1.904	1903.8	generate	Run4	generate/STIM_014.jpg	100
2895.853	2.263	2262.9	generate	Run4	generate/STIM_014.jpg	100
2900.759	2.166	2165.8	generate	Run4	generate/STIM_015.jpg	99
2905.076	2.135	2135.0	generate	Run4	generate/STIM_015.jpg	100
2910.216	1.762	1762.2	generate	Run4	generate/STIM_015.jpg	100
2915.539	1.268	1267.9	generate	Run4	generate/STIM_015.jpg	100
2919.028	1.398	1397.7	generate	Run4	generate/STIM_015.jpg	99
2924.196	1.789	1788.6	generate	Run4	generate/STIM_016.jpg	100
2929.02	1.965	1964.8	generate	Run4	generate/STIM_016.jpg	99
2932.854	1.902	1901.8	generate	Run4	generate/STIM_016.jpg	99
2937.297	2.313	2312.6	generate	Run4	generate/STIM_016.jpg	99
2942.365	1.24	1240.3	generate	Run4	generate/STIM_016.jpg	99
2945.905	1.597	1597.2	generate	Run4	generate/STIM_017.jpg	99
2949.908	2.078	2077.7	generate	Run4	generate/STIM_017.jpg	100
2955.569	2.101	2101.3	generate	Run4	generate/STIM_017.jpg	100
2960.716	1.398	1397.9	generate	Run4	generate/STIM_017.jpg	100
2964.127	1.899	1898.9	generate	Run4	generate/STIM_017.jpg	100
2969.411	1.106	1106.4	generate	Run4	generate/STIM_018.jpg	99
2973.358	2.009	2009.4	generate	Run4	generate/STIM_018.jpg	100
2977.702	2.357	2356.6	generate	Run4	generate/STIM_018.jpg	99
2982.946	1.062	1061.6	generate	Run4	generate/STIM_018.jpg	100
2987.317	2.075	2074.6	generate	Run4	generate/STIM_018.jpg	99
2992.662	1.033	1032.8	generate	Run4	generate/STIM_019.jpg	100
2996.795	1.648	1647.5	generate	Run4	generate/STIM_019.jpg	99
3001.321	1.166	1166.4	generate	Run4	generate/STIM_019.jpg	99
3004.628	2.111	2111.0	generate	Run4	generate/STIM_019.jpg	100
3008.761	1.816	1815.7	generate	Run4	generate/STIM_019.jpg	99
3014.258	1.921	1920.6	generate	Run4	generate/STIM_020.jpg	100
3019.12	1.692	1692.0	generate	Run4	generate/STIM_020.jpg	100
3023.281	1.226	1226.1	generate	Run4	generate/STIM_020.jpg	100
3026.59	2.34	2340.5	generate	Run4	generate/STIM_020.jpg	100
3031.121	2.44	2440.3	generate	Run4	generate/STIM_020.jpg	100
3036.834	1.833	1832.9	generate	Run4	generate/STIM_021.jpg	100
3041.118	1.876	1875.6	generate	Run4	generate/STIM_021.jpg	99
3045.82	1.846	1845.9	generate	Run4	generate/STIM_021.jpg	99
3050.504	1.14	1140.3	generate	Run4	generate/STIM_021.jpg	100
3054.35	1.87	1869.7	generate	Run4	generate/STIM_021.jpg	99
3058.715	1.551	1550.8	generate	Run4	generate/STIM_022.jpg	100
3063.332	1.906	1905.5	generate	Run4	generate/STIM_022.jpg	99
3068.011	1.444	1444.1	generate	Run4	generate/STIM_022.jpg	99
3071.673	1.889	1889.2	generate	Run4	generate/STIM_022.jpg	99
3076.806	2.309	2308.6	generate	Run4	generate/STIM_022.jpg	100
3081.807	2.31	2310.1	generate	Run4	generate/STIM_023.jpg	100
3087.427	1.846	1845.8	generate	Run4	generate/STIM_023.jpg	99
3092.893	1.201	1201.4	generate	Run4	generate/STIM_023.jpg	100
3096.17	1.94	1939.8	generate	Run4	generate/STIM_023.jpg	100
3101.864	2.126	2126.3	generate	Run4	generate/STIM_023.jpg	99
3105.931	1.75	1749.9	generate	Run4	generate/STIM_024.jpg	100
3111.325	1.182	1182.3	generate	Run4	generate/STIM_024.jpg	99
3115.274	1.713	1713.2	generate	Run4	generate/STIM_024.jpg	100
3119.612	2.328	2328.3	generate	Run4	generate/STIM_024.jpg	100
3124.711	1.28	1280.3	generate	Run4	generate/STIM_024.jpg	99
3128.166	0.821	820.6	repeat	Run4	repeat/STIM_000.jpg	100
3131.868	0.72	720.1	repeat	Run4	repeat/STIM_000.jpg	100
3135.172	0.735	735.1	repeat	Run4	repeat/STIM_000.jpg	99
3139.207	0.82	819.8	repeat	Run4	repeat/STIM_000.jpg	99
3142.418	0.766	765.5	repeat	Run4	repeat/STIM_000.jpg	100
3146.284	1.08	1079.7	repeat	Run4	repeat/STIM_001.jpg	100
3150.001	0.794	793.7	repeat	Run4	repeat/STIM_001.jpg	99
3154.514	0.73	730.3	repeat	Run4	repeat/STIM_001.jpg	99
3158.6	0.949	948.6	repeat	Run4	repeat/STIM_001.jpg	100
3162.706	0.807	807.0	repeat	Run4	repeat/STIM_001.jpg	99
3166.96	0.775	774.6	repeat	Run4	repeat/STIM_002.jpg	99
3171.519	0.921	920.8	repeat	Run4	repeat/STIM_002.jpg	100
3175.85	1.016	1015.6	repeat	Run4	repeat/STIM_002.jpg	99
3179.04	0.698	697.6	repeat	Run4	repeat/STIM_002.jpg	99
3182.113	1.082	1082.3	repeat	Run4	repeat/STIM_002.jpg	100
3185.179	0.685	684.9	repeat	Run4	repeat/STIM_003.jpg	99
3189.096	1.017	1016.6	repeat	Run4	repeat/STIM_003.jpg	100
3192.732	0.604	603.6	repeat	Run4	repeat/STIM_003.jpg	99
3195.634	0.664	663.5	repeat	Run4	repeat/STIM_003.jpg	100
3198.26	1.2	1200.5	repeat	Run4	repeat/STIM_003.jpg	100
3201.474	0.974	973.6	repeat	Run4	repeat/STIM_004.jpg	100
3206.169	0.999	998.9	repeat	Run4	repeat/STIM_004.jpg	100
3210.51	0.871	871.2	repeat	Run4	repeat/STIM_004.jpg	100
3214.083	0.882	882.4	repeat	Run4	repeat/STIM_004.jpg	100
3217.415	0.802	802.4	repeat	Run4	repeat/STIM_004.jpg	100
3220.207	0.969	968.8	repeat	Run4	repeat/STIM_005.jpg	100
3224.217	0.718	718.0	repeat	Run4	repeat/STIM_005.jpg	100
3226.903	0.714	714.0	repeat	Run4	repeat/STIM_005.jpg	100
3230.402	0.583	582.9	repeat	Run4	repeat/STIM_005.jpg	99
3234.686	0.625	625.4	repeat	Run4	repeat/STIM_005.jpg	99
3237.474	1.091	1091.0	repeat	Run4	repeat/STIM_006.jpg	99
3241.706	0.528	528.0	repeat	Run4	repeat/STIM_006.jpg	100
3245.823	0.585	585.1	repeat	Run4	repeat/STIM_006.jpg	100
3248.7	0.982	982.1	repeat	Run4	repeat/STIM_006.jpg	100
3252.677	0.67	669.8	repeat	Run4	repeat/STIM_006.jpg	99
3256.73	1.076	1076.1	repeat	Run4	repeat/STIM_007.jpg	100
3259.767	1.022	1022.0	repeat	Run4	repeat/STIM_007.jpg	99
3264.419	0.589	589.3	repeat	Run4	repeat/STIM_007.jpg	99
3268.862	0.873	873.1	repeat	Run4	repeat/STIM_007.jpg	99
3273.041	1.008	1008.4	repeat	Run4	repeat/STIM_007.jpg	100
3276.615	0.914	914.5	repeat	Run4	repeat/STIM_008.jpg	99
3281.194	0.975	975.2	repeat	Run4	repeat/STIM_008.jpg	99
3284.865	0.925	925.3	repeat	Run4	repeat/STIM_008.jpg	100
3288.024	0.604	603.8	repeat	Run4	repeat/STIM_008.jpg	99
3291.967	0.987	987.4	repeat	Run4	repeat/STIM_008.jpg	99
3296.751	0.704	704.5	repeat	Run4	repeat/STIM_009.jpg	99
3301.153	0.672	672.4	repeat	Run4	repeat/STIM_009.jpg	100
3305.66	0.842	841.5	repeat	Run4	repeat/STIM_009.jpg	99
3308.798	0.906	906.3	repeat	Run4	repeat/STIM_009.jpg	100
3311.617	1.085	1084.6	repeat	Run4	repeat/STIM_009.jpg	99
3314.909	0.983	982.8	repeat	Run4	repeat/STIM_010.jpg	100
3318.494	0.872	871.9	repeat	Run4	repeat/STIM_010.jpg	100
3322.982	0.715	715.3	repeat	Run4	repeat/STIM_010.jpg	99
3326.98	0.629	628.6	repeat	Run4	repeat/STIM_010.jpg	100
3330.674	0.841	841.4	repeat	Run4	repeat/STIM_010.jpg	99
3334.556	1.07	1069.5	repeat	Run4	repeat/STIM_011.jpg	99
3338.742	0.806	805.7	repeat	Run4	repeat/STIM_011.jpg	100
3342.025	1.047	1046.7	repeat	Run4	repeat/STIM_011.jpg	99
3346.31	0.9	899.9	repeat	Run4	repeat/STIM_011.jpg	100
3350.108	0.814	814.5	repeat	Run4	repeat/STIM_011.jpg	100
3353.98	0.676	676.0	repeat	Run4	repeat/STIM_012.jpg	100
3358.428	1.103	1103.3	repeat	Run4	repeat/STIM_012.jpg	100
3363.079	0.658	657.8	repeat	Run4	repeat/STIM_012.jpg	99
3366.549	0.932	931.9	repeat	Run4	repeat/STIM_012.jpg	99
3370.098	0.764	763.8	repeat	Run4	repeat/STIM_012.jpg	99
3373.021	0.891	890.6	repeat	Run4	repeat/STIM_013.jpg	100
3376.988	0.73	730.0	repeat	Run4	repeat/STIM_013.jpg	100
3380.507	0.635	635.2	repeat	Run4	repeat/STIM_013.jpg	100
3384.688	0.641	640.8	repeat	Run4	repeat/STIM_013.jpg	99
3388.551	1.021	1021.4	repeat	Run4	repeat/STIM_013.jpg	99
3393.314	0.7	700.0	repeat	Run4	repeat/STIM_014.jpg	99
3396.254	1.048	1047.8	repeat	Run4	repeat/STIM_014.jpg	99
3400.359	0.945	945.1	repeat	Run4	repeat/STIM_014.jpg	99
3403.535	0.999	998.7	repeat	Run4	repeat/STIM_014.jpg	100
3408.405	1.147	1147.0	repeat	Run4	repeat/STIM_014.jpg	99
