onset	duration	accuracy_binary	trial_type	learning_stage	stimulus
0.0	4.348	0	navigation	Trial1	navigation/STIM_000.jpg
6.671	2.871	1	navigation	Trial1	navigation/STIM_000.jpg
11.889	2.947	1	navigation	Trial1	navigation/STIM_000.jpg
17.924	4.397	1	navigation	Trial1	navigation/STIM_000.jpg
25.078	3.303	1	navigation	Trial1	navigation/STIM_000.jpg
31.365	3.879	1	navigation	Trial1	navigation/STIM_000.jpg
39.062	5.043	1	navigation	Trial1	navigation/STIM_001.jpg
46.417	3.25	0	navigation	Trial1	navigation/STIM_001.jpg
53.507	3.93	1	navigation	Trial1	navigation/STIM_001.jpg
59.852	4.012	0	navigation	Trial1	navigation/STIM_001.jpg
67.531	3.054	0	navigation	Trial1	navigation/STIM_001.jpg
74.028	2.213	1	navigation	Trial1	navigation/STIM_001.jpg
78.385	2.475	1	navigation	Trial1	navigation/STIM_002.jpg
83.853	4.231	1	navigation	Trial1	navigation/STIM_002.jpg
91.192	3.406	0	navigation	Trial1	navigation/STIM_002.jpg
97.678	1.964	0	navigation	Trial1	navigation/STIM_002.jpg
103.393	3.617	0	navigation	Trial1	navigation/STIM_002.jpg
109.822	3.066	0	navigation	Trial1	navigation/STIM_002.jpg
116.346	4.156	0	navigation	Trial1	navigation/STIM_003.jpg
124.078	2.974	1	navigation	Trial1	navigation/STIM_003.jpg
129.236	2.979	1	navigation	Trial1	navigation/STIM_003.jpg
135.669	4.245	1	navigation	Trial1	navigation/STIM_003.jpg
142.184	3.742	0	navigation	Trial1	navigation/STIM_003.jpg
149.705	3.048	0	navigation	Trial1	navigation/STIM_003.jpg
156.511	2.375	0	navigation	Trial1	navigation/STIM_004.jpg
161.706	3.219	1	navigation	Trial1	navigation/STIM_004.jpg
168.558	2.657	1	navigation	Trial1	navigation/STIM_004.jpg
173.323	3.806	0	navigation	Trial1	navigation/STIM_004.jpg
179.352	3.185	0	navigation	Trial1	navigation/STIM_004.jpg
185.747	3.817	0	navigation	Trial1	navigation/STIM_004.jpg
191.601	4.291	0	navigation	Trial1	navigation/STIM_005.jpg
198.612	3.938	1	navigation	Trial1	navigation/STIM_005.jpg
205.441	4.394	0	navigation	Trial1	navigation/STIM_005.jpg
212.838	4.706	1	navigation	Trial1	navigation/STIM_005.jpg
221.473	1.836	1	navigation	Trial1	navigation/STIM_005.jpg
226.628	3.299	1	navigation	Trial1	navigation/STIM_005.jpg
232.315	4.406	1	navigation	Trial1	navigation/STIM_006.jpg
239.323	3.849	1	navigation	Trial1	navigation/STIM_006.jpg
245.597	3.92	0	navigation	Trial1	navigation/STIM_006.jpg
251.72	4.495	1	navigation	Trial1	navigation/STIM_006.jpg
259.408	3.774	1	navigation	Trial1	navigation/STIM_006.jpg
265.425	3.302	1	navigation	Trial1	navigation/STIM_006.jpg
271.577	4.238	1	navigation	Trial1	navigation/STIM_007.jpg
278.272	3.52	1	navigation	Trial1	navigation/STIM_007.jpg
284.264	2.704	0	navigation	Trial1	navigation/STIM_007.jpg
289.528	2.42	0	navigation	Trial1	navigation/STIM_007.jpg
295.526	2.03	1	navigation	Trial1	navigation/STIM_007.jpg
299.829	4.09	1	navigation	Trial1	navigation/STIM_007.jpg
307.286	3.676	1	navigation	Trial1	navigation/STIM_008.jpg
313.84	3.903	1	navigation	Trial1	navigation/STIM_008.jpg
319.756	4.414	1	navigation	Trial1	navigation/STIM_008.jpg
327.187	2.1	1	navigation	Trial1	navigation/STIM_008.jpg
331.669	3.452	1	navigation	Trial1	navigation/STIM_008.jpg
338.522	3.438	1	navigation	Trial1	navigation/STIM_008.jpg
344.326	5.656	0	navigation	Trial1	navigation/STIM_009.jpg
352.425	4.033	1	navigation	Trial1	navigation/STIM_009.jpg
358.706	2.15	1	navigation	Trial1	navigation/STIM_009.jpg
364.383	4.777	0	navigation	Trial1	navigation/STIM_009.jpg
371.376	3.602	0	navigation	Trial1	navigation/STIM_009.jpg
377.966	1.839	0	navigation	Trial1	navigation/STIM_009.jpg
382.562	3.129	0	navigation	Trial1	navigation/STIM_010.jpg
387.929	4.357	1	navigation	Trial1	navigation/STIM_010.jpg
394.824	3.77	1	navigation	Trial1	navigation/STIM_010.jpg
401.019	4.358	1	navigation	Trial1	navigation/STIM_010.jpg
407.892	3.847	0	navigation	Trial1	navigation/STIM_010.jpg
415.284	2.988	1	navigation	Trial1	navigation/STIM_010.jpg
421.928	3.526	1	navigation	Trial1	navigation/STIM_011.jpg
428.091	3.047	1	navigation	Trial1	navigation/STIM_011.jpg
433.78	2.184	1	navigation	Trial1	navigation/STIM_011.jpg
438.276	4.77	1	navigation	Trial1	navigation/STIM_011.jpg
446.304	4.472	1	navigation	Trial1	navigation/STIM_011.jpg
453.832	3.632	1	navigation	Trial1	navigation/STIM_011.jpg
461.15	1.382	1	pointing	Trial1	pointing/STIM_000.jpg
465.782	1.452	1	pointing	Trial1	pointing/STIM_000.jpg
470.041	1.023	1	pointing	Trial1	pointing/STIM_000.jpg
474.863	1.09	0	pointing	Trial1	pointing/STIM_000.jpg
478.628	1.32	1	pointing	Trial1	pointing/STIM_000.jpg
483.89	1.043	1	pointing	Trial1	pointing/STIM_000.jpg
488.741	1.582	1	pointing	Trial1	pointing/STIM_001.jpg
493.82	0.915	1	pointing	Trial1	pointing/STIM_001.jpg
498.073	1.346	0	pointing	Trial1	pointing/STIM_001.jpg
501.947	1.653	0	pointing	Trial1	pointing/STIM_001.jpg
507.288	1.157	1	pointing	Trial1	pointing/STIM_001.jpg
510.981	1.483	0	pointing	Trial1	pointing/STIM_001.jpg
515.296	0.95	0	pointing	Trial1	pointing/STIM_002.jpg
519.727	1.404	1	pointing	Trial1	pointing/STIM_002.jpg
524.416	1.38	1	pointing	Trial1	pointing/STIM_002.jpg
529.13	1.363	1	pointing	Trial1	pointing/STIM_002.jpg
532.745	1.194	1	pointing	Trial1	pointing/STIM_002.jpg
537.112	0.989	1	pointing	Trial1	pointing/STIM_002.jpg
541.952	1.577	1	pointing	Trial1	pointing/STIM_003.jpg
546.604	1.533	0	pointing	Trial1	pointing/STIM_003.jpg
551.458	1.467	1	pointing	Trial1	pointing/STIM_003.jpg
555.507	1.083	1	pointing	Trial1	pointing/STIM_003.jpg
558.965	1.701	1	pointing	Trial1	pointing/STIM_003.jpg
562.789	1.334	1	pointing	Trial1	pointing/STIM_003.jpg
567.168	1.512	1	pointing	Trial1	pointing/STIM_004.jpg
570.966	0.994	1	pointing	Trial1	pointing/STIM_004.jpg
575.654	1.687	1	pointing	Trial1	pointing/STIM_004.jpg
580.817	1.236	1	pointing	Trial1	pointing/STIM_004.jpg
585.301	1.673	0	pointing	Trial1	pointing/STIM_004.jpg
590.26	1.114	1	pointing	Trial1	pointing/STIM_004.jpg
593.398	1.308	1	pointing	Trial1	pointing/STIM_005.jpg
598.37	1.6	1	pointing	Trial1	pointing/STIM_005.jpg
602.774	1.168	1	pointing	Trial1	pointing/STIM_005.jpg
606.218	1.535	1	pointing	Trial1	pointing/STIM_005.jpg
610.1	1.355	1	pointing	Trial1	pointing/STIM_005.jpg
614.431	1.274	1	pointing	Trial1	pointing/STIM_005.jpg
619.334	1.344	0	pointing	Trial1	pointing/STIM_006.jpg
624.501	1.033	1	pointing	Trial1	pointing/STIM_006.jpg
629.402	1.636	0	pointing	Trial1	pointing/STIM_006.jpg
633.257	1.456	1	pointing	Trial1	pointing/STIM_006.jpg
637.524	1.189	1	pointing	Trial1	pointing/STIM_006.jpg
641.369	1.316	1	pointing	Trial1	pointing/STIM_006.jpg
645.83	1.322	1	pointing	Trial1	pointing/STIM_007.jpg
649.407	1.404	1	pointing	Trial1	pointing/STIM_007.jpg
653.456	1.434	1	pointing	Trial1	pointing/STIM_007.jpg
657.467	1.317	1	pointing	Trial1	pointing/STIM_007.jpg
662.356	1.11	1	pointing	Trial1	pointing/STIM_007.jpg
665.651	0.918	0	pointing	Trial1	pointing/STIM_007.jpg
670.49	1.52	1	pointing	Trial1	pointing/STIM_008.jpg
674.164	1.108	1	pointing	Trial1	pointing/STIM_008.jpg
677.353	1.07	1	pointing	Trial1	pointing/STIM_008.jpg
680.648	1.489	1	pointing	Trial1	pointing/STIM_008.jpg
685.662	1.045	0	pointing	Trial1	pointing/STIM_008.jpg
688.916	1.219	1	pointing	Trial1	pointing/STIM_008.jpg
692.539	1.125	1	pointing	Trial1	pointing/STIM_009.jpg
696.001	1.672	1	pointing	Trial1	pointing/STIM_009.jpg
701.63	1.628	0	pointing	Trial1	pointing/STIM_009.jpg
705.769	1.464	1	pointing	Trial1	pointing/STIM_009.jpg
710.851	1.44	1	pointing	Trial1	pointing/STIM_009.jpg
714.434	1.144	1	pointing	Trial1	pointing/STIM_009.jpg
718.42	0.975	0	pointing	Trial1	pointing/STIM_010.jpg
721.91	1.426	0	pointing	Trial1	pointing/STIM_010.jpg
727.328	1.179	1	pointing	Trial1	pointing/STIM_010.jpg
730.671	1.179	1	pointing	Trial1	pointing/STIM_010.jpg
734.246	1.045	0	pointing	Trial1	pointing/STIM_010.jpg
737.859	1.591	0	pointing	Trial1	pointing/STIM_010.jpg
742.169	1.594	1	pointing	Trial1	pointing/STIM_011.jpg
747.183	1.608	1	pointing	Trial1	pointing/STIM_011.jpg
752.109	1.542	1	pointing	Trial1	pointing/STIM_011.jpg
757.544	1.533	1	pointing	Trial1	pointing/STIM_011.jpg
761.714	0.928	1	pointing	Trial1	pointing/STIM_011.jpg
765.728	1.411	1	pointing	Trial1	pointing/STIM_011.jpg
770.622	2.765	0	navigation	Trial2	navigation/STIM_000.jpg
777.018	2.485	1	navigation	Trial2	navigation/STIM_000.jpg
782.421	4.002	1	navigation	Trial2	navigation/STIM_000.jpg
790.281	2.459	1	navigation	Trial2	navigation/STIM_000.jpg
795.873	3.965	1	navigation	Trial2	navigation/STIM_000.jpg
802.343	2.981	1	navigation	Trial2	navigation/STIM_000.jpg
807.739	3.634	1	navigation	Trial2	navigation/STIM_001.jpg
814.397	3.161	1	navigation	Trial2	navigation/STIM_001.jpg
820.249	1.843	0	navigation	Trial2	navigation/STIM_001.jpg
825.958	2.708	1	navigation	Trial2	navigation/STIM_001.jpg
831.915	1.946	1	navigation	Trial2	navigation/STIM_001.jpg
836.302	3.561	0	navigation	Trial2	navigation/STIM_001.jpg
841.913	3.428	1	navigation	Trial2	navigation/STIM_002.jpg
848.878	2.001	1	navigation	Trial2	navigation/STIM_002.jpg
853.537	2.194	1	navigation	Trial2	navigation/STIM_002.jpg
858.698	3.154	0	navigation	Trial2	navigation/STIM_002.jpg
864.486	2.514	1	navigation	Trial2	navigation/STIM_002.jpg
870.059	3.292	1	navigation	Trial2	navigation/STIM_002.jpg
877.015	2.389	0	navigation	Trial2	navigation/STIM_003.jpg
882.386	2.854	0	navigation	Trial2	navigation/STIM_003.jpg
888.037	2.537	1	navigation	Trial2	navigation/STIM_003.jpg
893.915	1.702	1	navigation	Trial2	navigation/STIM_003.jpg
897.673	2.962	1	navigation	Trial2	navigation/STIM_003.jpg
904.299	1.613	0	navigation	Trial2	navigation/STIM_003.jpg
909.175	4.608	0	navigation	Trial2	navigation/STIM_004.jpg
916.787	3.45	0	navigation	Trial2	navigation/STIM_004.jpg
922.372	2.36	1	navigation	Trial2	navigation/STIM_004.jpg
927.764	3.026	0	navigation	Trial2	navigation/STIM_004.jpg
934.161	3.108	1	navigation	Trial2	navigation/STIM_004.jpg
941.165	2.308	1	navigation	Trial2	navigation/STIM_004.jpg
946.448	3.484	0	navigation	Trial2	navigation/STIM_005.jpg
952.067	2.431	1	navigation	Trial2	navigation/STIM_005.jpg
957.817	3.156	1	navigation	Trial2	navigation/STIM_005.jpg
963.873	3.862	1	navigation	Trial2	navigation/STIM_005.jpg
971.508	3.507	1	navigation	Trial2	navigation/STIM_005.jpg
977.161	3.457	1	navigation	Trial2	navigation/STIM_005.jpg
982.926	2.578	0	navigation	Trial2	navigation/STIM_006.jpg
988.531	3.514	1	navigation	Trial2	navigation/STIM_006.jpg
995.994	2.929	0	navigation	Trial2	navigation/STIM_006.jpg
1002.162	3.622	1	navigation	Trial2	navigation/STIM_006.jpg
1007.816	3.66	1	navigation	Trial2	navigation/STIM_006.jpg
1014.38	2.843	1	navigation	Trial2	navigation/STIM_006.jpg
1019.268	2.875	1	navigation	Trial2	navigation/STIM_007.jpg
1024.577	2.175	1	navigation	Trial2	navigation/STIM_007.jpg
1029.321	1.85	1	navigation	Trial2	navigation/STIM_007.jpg
1034.866	3.9	1	navigation	Trial2	navigation/STIM_007.jpg
1041.689	3.067	1	navigation	Trial2	navigation/STIM_007.jpg
1048.151	1.686	1	navigation	Trial2	navigation/STIM_007.jpg
1052.137	4.064	1	navigation	Trial2	navigation/STIM_008.jpg
1059.305	3.627	1	navigation	Trial2	navigation/STIM_008.jpg
1066.722	3.384	1	navigation	Trial2	navigation/STIM_008.jpg
1073.725	2.438	1	navigation	Trial2	navigation/STIM_008.jpg
1079.555	1.878	0	navigation	Trial2	navigation/STIM_008.jpg
1084.591	3.283	0	navigation	Trial2	navigation/STIM_008.jpg
1090.883	4.031	1	navigation	Trial2	navigation/STIM_009.jpg
1098.013	3.122	1	navigation	Trial2	navigation/STIM_009.jpg
1103.387	3.862	1	navigation	Trial2	navigation/STIM_009.jpg
1110.111	1.834	1	navigation	Trial2	navigation/STIM_009.jpg
1115.82	1.666	1	navigation	Trial2	navigation/STIM_009.jpg
1121.144	2.822	1	navigation	Trial2	navigation/STIM_009.jpg
1127.727	3.653	1	navigation	Trial2	navigation/STIM_010.jpg
1135.351	3.055	1	navigation	Trial2	navigation/STIM_010.jpg
1140.9	1.951	0	navigation	Trial2	navigation/STIM_010.jpg
1145.707	2.017	1	navigation	Trial2	navigation/STIM_010.jpg
1151.011	3.33	1	navigation	Trial2	navigation/STIM_010.jpg
1157.661	1.768	1	navigation	Trial2	navigation/STIM_010.jpg
1161.712	3.382	1	navigation	Trial2	navigation/STIM_011.jpg
1167.671	3.93	1	navigation	Trial2	navigation/STIM_011.jpg
1174.447	3.543	1	navigation	Trial2	navigation/STIM_011.jpg
1180.707	1.879	1	navigation	Trial2	navigation/STIM_011.jpg
1185.71	2.998	1	navigation	Trial2	navigation/STIM_011.jpg
1190.889	3.287	1	navigation	Trial2	navigation/STIM_011.jpg
1197.567	1.065	1	pointing	Trial2	pointing/STIM_000.jpg
1201.48	1.118	1	pointing	Trial2	pointing/STIM_000.jpg
1205.942	1.632	1	pointing	Trial2	pointing/STIM_000.jpg
1210.618	0.967	1	pointing	Trial2	pointing/STIM_000.jpg
1213.67	1.188	1	pointing	Trial2	pointing/STIM_000.jpg
1218.301	1.301	1	pointing	Trial2	pointing/STIM_000.jpg
1222.636	1.22	1	pointing	Trial2	pointing/STIM_001.jpg
1226.598	1.383	1	pointing	Trial2	pointing/STIM_001.jpg
1231.612	0.935	0	pointing	Trial2	pointing/STIM_001.jpg
1236.288	1.356	0	pointing	Trial2	pointing/STIM_001.jpg
1241.065	1.274	0	pointing	Trial2	pointing/STIM_001.jpg
1245.64	1.112	0	pointing	Trial2	pointing/STIM_001.jpg
1250.599	1.236	1	pointing	Trial2	pointing/STIM_002.jpg
1254.919	1.297	1	pointing	Trial2	pointing/STIM_002.jpg
1258.501	1.287	0	pointing	Trial2	pointing/STIM_002.jpg
1263.08	1.069	1	pointing	Trial2	pointing/STIM_002.jpg
1266.663	1.524	1	pointing	Trial2	pointing/STIM_002.jpg
1270.486	1.652	1	pointing	Trial2	pointing/STIM_002.jpg
1274.34	1.476	1	pointing	Trial2	pointing/STIM_003.jpg
1278.465	1.35	1	pointing	Trial2	pointing/STIM_003.jpg
1283.093	1.48	1	pointing	Trial2	pointing/STIM_003.jpg
1286.665	1.511	1	pointing	Trial2	pointing/STIM_003.jpg
1291.297	1.696	1	pointing	Trial2	pointing/STIM_003.jpg
1296.741	1.116	1	pointing	Trial2	pointing/STIM_003.jpg
1301.246	1.001	1	pointing	Trial2	pointing/STIM_004.jpg
1304.589	1.293	1	pointing	Trial2	pointing/STIM_004.jpg
1308.373	1.546	1	pointing	Trial2	pointing/STIM_004.jpg
1313.224	1.292	1	pointing	Trial2	pointing/STIM_004.jpg
1318.168	1.149	1	pointing	Trial2	pointing/STIM_004.jpg
1321.865	1.357	0	pointing	Trial2	pointing/STIM_004.jpg
1326.381	1.502	1	pointing	Trial2	pointing/STIM_005.jpg
1330.165	1.625	1	pointing	Trial2	pointing/STIM_005.jpg
1334.333	1.595	0	pointing	Trial2	pointing/STIM_005.jpg
1339.076	1.583	1	pointing	Trial2	pointing/STIM_005.jpg
1344.453	1.556	1	pointing	Trial2	pointing/STIM_005.jpg
1348.261	1.097	1	pointing	Trial2	pointing/STIM_005.jpg
1353.103	1.144	1	pointing	Trial2	pointing/STIM_006.jpg
1358.2	1.374	1	pointing	Trial2	pointing/STIM_006.jpg
1363.076	1.684	1	pointing	Trial2	pointing/STIM_006.jpg
1367.559	1.688	0	pointing	Trial2	pointing/STIM_006.jpg
1371.585	1.449	1	pointing	Trial2	pointing/STIM_006.jpg
1375.573	1.07	1	pointing	Trial2	pointing/STIM_006.jpg
1378.813	1.648	1	pointing	Trial2	pointing/STIM_007.jpg
1382.948	1.519	1	pointing	Trial2	pointing/STIM_007.jpg
1387.742	1.43	1	pointing	Trial2	pointing/STIM_007.jpg
1392.299	1.053	1	pointing	Trial2	pointing/STIM_007.jpg
1396.184	0.947	1	pointing	Trial2	pointing/STIM_007.jpg
1401.117	1.244	1	pointing	Trial2	pointing/STIM_007.jpg
1404.766	1.023	1	pointing	Trial2	pointing/STIM_008.jpg
1409.02	1.476	1	pointing	Trial2	pointing/STIM_008.jpg
1413.259	1.506	1	pointing	Trial2	pointing/STIM_008.jpg
1418.387	1.084	1	pointing	Trial2	pointing/STIM_008.jpg
1422.261	0.968	1	pointing	Trial2	pointing/STIM_008.jpg
1427.125	1.043	0	pointing	Trial2	pointing/STIM_008.jpg
1430.611	1.048	1	pointing	Trial2	pointing/STIM_009.jpg
1435.407	1.472	1	pointing	Trial2	pointing/STIM_009.jpg
1440.87	1.067	1	pointing	Trial2	pointing/STIM_009.jpg
1445.419	1.594	1	pointing	Trial2	pointing/STIM_009.jpg
1450.878	1.217	1	pointing	Trial2	pointing/STIM_009.jpg
1455.137	1.068	1	pointing	Trial2	pointing/STIM_009.jpg
1459.449	1.528	1	pointing	Trial2	pointing/STIM_010.jpg
1464.36	0.992	1	pointing	Trial2	pointing/STIM_010.jpg
1468.882	1.38	0	pointing	Trial2	pointing/STIM_010.jpg
1472.472	1.151	1	pointing	Trial2	pointing/STIM_010.jpg
1476.607	1.178	1	pointing	Trial2	pointing/STIM_010.jpg
1480.98	1.505	1	pointing	Trial2	pointing/STIM_010.jpg
1486.124	1.329	0	pointing	Trial2	pointing/STIM_011.jpg
1491.313	1.642	1	pointing	Trial2	pointing/STIM_011.jpg
1495.242	1.635	0	pointing	Trial2	pointing/STIM_011.jpg
1499.171	1.64	1	pointing	Trial2	pointing/STIM_011.jpg
1503.41	1.034	0	pointing	Trial2	pointing/STIM_011.jpg
1507.693	1.458	0	pointing	Trial2	pointing/STIM_011.jpg
1512.251	3.716	1	navigation	Trial3	navigation/STIM_000.jpg
1519.72	2.182	1	navigation	Trial3	navigation/STIM_000.jpg
1524.889	2.904	0	navigation	Trial3	navigation/STIM_000.jpg
1529.833	3.438	1	navigation	Trial3	navigation/STIM_000.jpg
1537.125	2.515	1	navigation	Trial3	navigation/STIM_000.jpg
1543.206	3.576	1	navigation	Trial3	navigation/STIM_000.jpg
1550.202	2.7	1	navigation	Trial3	navigation/STIM_001.jpg
1555.743	2.085	1	navigation	Trial3	navigation/STIM_001.jpg
1560.673	3.273	1	navigation	Trial3	navigation/STIM_001.jpg
1565.975	1.697	1	navigation	Trial3	navigation/STIM_001.jpg
1571.394	1.829	0	navigation	Trial3	navigation/STIM_001.jpg
1575.381	3.788	1	navigation	Trial3	navigation/STIM_001.jpg
1582.231	3.333	0	navigation	Trial3	navigation/STIM_002.jpg
1588.208	2.531	1	navigation	Trial3	navigation/STIM_002.jpg
1593.18	2.284	1	navigation	Trial3	navigation/STIM_002.jpg
1598.974	1.949	1	navigation	Trial3	navigation/STIM_002.jpg
1604.009	2.269	0	navigation	Trial3	navigation/STIM_002.jpg
1609.607	2.056	1	navigation	Trial3	navigation/STIM_002.jpg
1615.535	3.136	0	navigation	Trial3	navigation/STIM_003.jpg
1622.193	3.639	1	navigation	Trial3	navigation/STIM_003.jpg
1628.968	2.791	1	navigation	Trial3	navigation/STIM_003.jpg
1635.349	3.312	1	navigation	Trial3	navigation/STIM_003.jpg
1640.935	3.529	1	navigation	Trial3	navigation/STIM_003.jpg
1647.494	3.383	1	navigation	Trial3	navigation/STIM_003.jpg
1654.74	3.023	1	navigation	Trial3	navigation/STIM_004.jpg
1661.326	2.685	1	navigation	Trial3	navigation/STIM_004.jpg
1666.175	3.83	1	navigation	Trial3	navigation/STIM_004.jpg
1672.864	2.048	1	navigation	Trial3	navigation/STIM_004.jpg
1678.84	1.948	0	navigation	Trial3	navigation/STIM_004.jpg
1683.003	2.204	1	navigation	Trial3	navigation/STIM_004.jpg
1689.186	2.964	0	navigation	Trial3	navigation/STIM_005.jpg
1694.317	3.646	1	navigation	Trial3	navigation/STIM_005.jpg
1700.047	2.254	1	navigation	Trial3	navigation/STIM_005.jpg
1704.37	2.562	0	navigation	Trial3	navigation/STIM_005.jpg
1710.286	1.932	0	navigation	Trial3	navigation/STIM_005.jpg
1714.881	2.66	1	navigation	Trial3	navigation/STIM_005.jpg
1721.484	2.049	1	navigation	Trial3	navigation/STIM_006.jpg
1726.158	3.79	1	navigation	Trial3	navigation/STIM_006.jpg
1733.664	2.206	1	navigation	Trial3	navigation/STIM_006.jpg
1739.865	2.397	1	navigation	Trial3	navigation/STIM_006.jpg
1745.159	3.857	1	navigation	Trial3	navigation/STIM_006.jpg
1752.136	3.92	0	navigation	Trial3	navigation/STIM_006.jpg
1758.939	3.111	0	navigation	Trial3	navigation/STIM_007.jpg
1765.5	3.742	1	navigation	Trial3	navigation/STIM_007.jpg
1772.409	2.528	1	navigation	Trial3	navigation/STIM_007.jpg
1777.784	1.733	1	navigation	Trial3	navigation/STIM_007.jpg
1781.965	3.012	1	navigation	Trial3	navigation/STIM_007.jpg
1787.523	1.798	1	navigation	Trial3	navigation/STIM_007.jpg
1793.01	2.573	0	navigation	Trial3	navigation/STIM_008.jpg
1798.197	3.084	1	navigation	Trial3	navigation/STIM_008.jpg
1803.875	2.983	0	navigation	Trial3	navigation/STIM_008.jpg
1810.664	2.485	1	navigation	Trial3	navigation/STIM_008.jpg
1816.505	3.542	1	navigation	Trial3	navigation/STIM_008.jpg
1822.89	1.649	1	navigation	Trial3	navigation/STIM_008.jpg
1827.068	3.469	1	navigation	Trial3	navigation/STIM_009.jpg
1832.761	2.312	1	navigation	Trial3	navigation/STIM_009.jpg
1838.469	3.473	1	navigation	Trial3	navigation/STIM_009.jpg
1845.829	2.67	1	navigation	Trial3	navigation/STIM_009.jpg
1851.297	2.798	1	navigation	Trial3	navigation/STIM_009.jpg
1858.051	3.785	1	navigation	Trial3	navigation/STIM_009.jpg
1865.496	3.508	0	navigation	Trial3	navigation/STIM_010.jpg
1871.97	3.357	1	navigation	Trial3	navigation/STIM_010.jpg
1878.45	3.759	1	navigation	Trial3	navigation/STIM_010.jpg
1885.249	3.723	1	navigation	Trial3	navigation/STIM_010.jpg
1892.789	2.672	1	navigation	Trial3	navigation/STIM_010.jpg
1898.292	2.47	1	navigation	Trial3	navigation/STIM_010.jpg
1903.948	3.692	1	navigation	Trial3	navigation/STIM_011.jpg
1911.433	3.512	1	navigation	Trial3	navigation/STIM_011.jpg
1918.331	1.781	1	navigation	Trial3	navigation/STIM_011.jpg
1923.431	3.268	1	navigation	Trial3	navigation/STIM_011.jpg
1930.408	2.429	1	navigation	Trial3	navigation/STIM_011.jpg
1935.236	3.888	1	navigation	Trial3	navigation/STIM_011.jpg
1941.133	0.921	1	pointing	Trial3	pointing/STIM_000.jpg
1944.765	0.942	1	pointing	Trial3	pointing/STIM_000.jpg
1947.729	1.009	0	pointing	Trial3	pointing/STIM_000.jpg
1950.989	1.018	1	pointing	Trial3	pointing/STIM_000.jpg
1955.349	1.65	1	pointing	Trial3	pointing/STIM_000.jpg
1960.066	1.093	1	pointing	Trial3	pointing/STIM_000.jpg
1964.591	1.418	1	pointing	Trial3	pointing/STIM_001.jpg
1969.329	1.184	1	pointing	Trial3	pointing/STIM_001.jpg
1974.016	1.053	1	pointing	Trial3	pointing/STIM_001.jpg
1977.868	1.203	0	pointing	Trial3	pointing/STIM_001.jpg
1982.69	1.569	1	pointing	Trial3	pointing/STIM_001.jpg
1987.433	1.472	1	pointing	Trial3	pointing/STIM_001.jpg
1991.688	1.692	1	pointing	Trial3	pointing/STIM_002.jpg
1995.961	1.599	0	pointing	Trial3	pointing/STIM_002.jpg
2001.051	1.124	0	pointing	Trial3	pointing/STIM_002.jpg
2005.903	1.663	1	pointing	Trial3	pointing/STIM_002.jpg
2011.249	1.261	1	pointing	Trial3	pointing/STIM_002.jpg
2015.175	1.055	1	pointing	Trial3	pointing/STIM_002.jpg
2018.867	1.122	1	pointing	Trial3	pointing/STIM_003.jpg
2022.09	1.113	0	pointing	Trial3	pointing/STIM_003.jpg
2027.178	1.246	1	pointing	Trial3	pointing/STIM_003.jpg
2030.958	1.14	1	pointing	Trial3	pointing/STIM_003.jpg
2034.527	0.933	1	pointing	Trial3	pointing/STIM_003.jpg
2038.722	1.531	0	pointing	Trial3	pointing/STIM_003.jpg
2043.423	1.079	0	pointing	Trial3	pointing/STIM_004.jpg
2046.504	1.279	1	pointing	Trial3	pointing/STIM_004.jpg
2051.33	1.312	1	pointing	Trial3	pointing/STIM_004.jpg
2055.424	1.074	0	pointing	Trial3	pointing/STIM_004.jpg
2059.461	1.008	0	pointing	Trial3	pointing/STIM_004.jpg
2062.663	1.271	1	pointing	Trial3	pointing/STIM_004.jpg
2066.211	1.499	1	pointing	Trial3	pointing/STIM_005.jpg
2070.237	1.204	0	pointing	Trial3	pointing/STIM_005.jpg
2074.609	1.155	1	pointing	Trial3	pointing/STIM_005.jpg
2078.615	1.399	1	pointing	Trial3	pointing/STIM_005.jpg
2082.936	1.576	0	pointing	Trial3	pointing/STIM_005.jpg
2088.153	0.912	1	pointing	Trial3	pointing/STIM_005.jpg
2092.864	1.226	1	pointing	Trial3	pointing/STIM_006.jpg
2096.795	1.381	1	pointing	Trial3	pointing/STIM_006.jpg
2102.047	1.305	1	pointing	Trial3	pointing/STIM_006.jpg
2106.85	1.148	1	pointing	Trial3	pointing/STIM_006.jpg
2111.362	1.151	1	pointing	Trial3	pointing/STIM_006.jpg
2115.825	0.995	1	pointing	Trial3	pointing/STIM_006.jpg
2120.65	1.591	1	pointing	Trial3	pointing/STIM_007.jpg
2124.636	1.349	1	pointing	Trial3	pointing/STIM_007.jpg
2129.171	0.91	1	pointing	Trial3	pointing/STIM_007.jpg
2132.369	0.953	1	pointing	Trial3	pointing/STIM_007.jpg
2135.662	0.924	1	pointing	Trial3	pointing/STIM_007.jpg
2139.255	0.94	1	pointing	Trial3	pointing/STIM_007.jpg
2142.769	1.622	0	pointing	Trial3	pointing/STIM_008.jpg
2147.974	1.305	1	pointing	Trial3	pointing/STIM_008.jpg
2151.555	1.574	1	pointing	Trial3	pointing/STIM_008.jpg
2155.842	0.914	1	pointing	Trial3	pointing/STIM_008.jpg
2158.827	1.08	1	pointing	Trial3	pointing/STIM_008.jpg
2162.446	1.221	1	pointing	Trial3	pointing/STIM_008.jpg
2167.657	1.26	1	pointing	Trial3	pointing/STIM_009.jpg
2172.884	1.565	1	pointing	Trial3	pointing/STIM_009.jpg
2178.137	1.325	1	pointing	Trial3	pointing/STIM_009.jpg
2181.865	1.609	0	pointing	Trial3	pointing/STIM_009.jpg
2186.238	1.617	1	pointing	Trial3	pointing/STIM_009.jpg
2191.736	1.209	1	pointing	Trial3	pointing/STIM_009.jpg
2196.61	1.64	0	pointing	Trial3	pointing/STIM_010.jpg
2202.062	1.482	1	pointing	Trial3	pointing/STIM_010.jpg
2205.829	0.985	0	pointing	Trial3	pointing/STIM_010.jpg
2209.051	1.247	1	pointing	Trial3	pointing/STIM_010.jpg
2213.803	1.601	1	pointing	Trial3	pointing/STIM_010.jpg
2218.081	0.912	1	pointing	Trial3	pointing/STIM_010.jpg
2222.004	1.027	0	pointing	Trial3	pointing/STIM_011.jpg
2225.062	1.103	1	pointing	Trial3	pointing/STIM_011.jpg
2228.741	1.367	1	pointing	Trial3	pointing/STIM_011.jpg
2232.898	1.145	1	pointing	Trial3	pointing/STIM_011.jpg
2237.071	1.332	1	pointing	Trial3	pointing/STIM_011.jpg
2241.253	1.517	0	pointing	Trial3	pointing/STIM_011.jpg
