onset	duration	accuracy	trial_type	learning_stage	stimulus
0.0	3.21	correct	navigation	Trial1	navigation/STIM_000.jpg
5.929	3.449	correct	navigation	Trial1	navigation/STIM_000.jpg
12.31	2.658	incorrect	navigation	Trial1	navigation/STIM_000.jpg
18.756	2.731	incorrect	navigation	Trial1	navigation/STIM_000.jpg
25.22	3.464	incorrect	navigation	Trial1	navigation/STIM_000.jpg
30.883	3.154	correct	navigation	Trial1	navigation/STIM_000.jpg
36.288	4.357	correct	navigation	Trial1	navigation/STIM_001.jpg
44.772	2.929	correct	navigation	Trial1	navigation/STIM_001.jpg
49.901	3.951	incorrect	navigation	Trial1	navigation/STIM_001.jpg
57.157	2.784	correct	navigation	Trial1	navigation/STIM_001.jpg
62.797	3.293	correct	navigation	Trial1	navigation/STIM_001.jpg
68.256	2.641	correct	navigation	Trial1	navigation/STIM_001.jpg
74.442	3.513	correct	navigation	Trial1	navigation/STIM_002.jpg
81.235	4.133	correct	navigation	Trial1	navigation/STIM_002.jpg
88.192	3.402	incorrect	navigation	Trial1	navigation/STIM_002.jpg
94.451	3.216	correct	navigation	Trial1	navigation/STIM_002.jpg
101.332	2.227	correct	navigation	Trial1	navigation/STIM_002.jpg
106.837	2.832	correct	navigation	Trial1	navigation/STIM_002.jpg
113.076	3.56	correct	navigation	Trial1	navigation/STIM_003.jpg
120.034	3.987	incorrect	navigation	Trial1	navigation/STIM_003.jpg
127.711	3.856	incorrect	navigation	Trial1	navigation/STIM_003.jpg
134.885	3.306	correct	navigation	Trial1	navigation/STIM_003.jpg
141.282	2.752	correct	navigation	Trial1	navigation/STIM_003.jpg
146.323	2.174	correct	navigation	Trial1	navigation/STIM_003.jpg
151.418	3.148	incorrect	navigation	Trial1	navigation/STIM_004.jpg
157.247	2.018	incorrect	navigation	Trial1	navigation/STIM_004.jpg
161.664	4.028	incorrect	navigation	Trial1	navigation/STIM_004.jpg
168.111	2.978	correct	navigation	Trial1	navigation/STIM_004.jpg
175.093	3.744	correct	navigation	Trial1	navigation/STIM_004.jpg
182.394	1.633	correct	navigation	Trial1	navigation/STIM_004.jpg
187.02	1.931	correct	navigation	Trial1	navigation/STIM_005.jpg
191.461	2.381	correct	navigation	Trial1	navigation/STIM_005.jpg
197.443	1.759	incorrect	navigation	Trial1	navigation/STIM_005.jpg
202.001	3.492	incorrect	navigation	Trial1	navigation/STIM_005.jpg
208.991	3.014	incorrect	navigation	Trial1	navigation/STIM_005.jpg
214.744	1.561	correct	navigation	Trial1	navigation/STIM_005.jpg
219.882	4.778	correct	navigation	Trial1	navigation/STIM_006.jpg
227.31	2.051	correct	navigation	Trial1	navigation/STIM_006.jpg
232.039	3.487	correct	navigation	Trial1	navigation/STIM_006.jpg
239.471	3.103	incorrect	navigation	Trial1	navigation/STIM_006.jpg
245.513	2.564	correct	navigation	Trial1	navigation/STIM_006.jpg
250.874	2.174	correct	navigation	Trial1	navigation/STIM_006.jpg
256.449	2.06	correct	navigation	Trial1	navigation/STIM_007.jpg
261.962	2.442	correct	navigation	Trial1	navigation/STIM_007.jpg
268.159	2.153	correct	navigation	Trial1	navigation/STIM_007.jpg
272.713	3.546	correct	navigation	Trial1	navigation/STIM_007.jpg
279.944	3.564	correct	navigation	Trial1	navigation/STIM_007.jpg
285.954	3.065	correct	navigation	Trial1	navigation/STIM_007.jpg
292.297	2.788	incorrect	navigation	Trial1	navigation/STIM_008.jpg
298.381	4.02	correct	navigation	Trial1	navigation/STIM_008.jpg
304.743	3.536	correct	navigation	Trial1	navigation/STIM_008.jpg
312.235	2.259	incorrect	navigation	Trial1	navigation/STIM_008.jpg
317.503	2.076	incorrect	navigation	Trial1	navigation/STIM_008.jpg
322.753	3.36	incorrect	navigation	Trial1	navigation/STIM_008.jpg
329.059	3.948	correct	navigation	Trial1	navigation/STIM_009.jpg
336.934	2.958	correct	navigation	Trial1	navigation/STIM_009.jpg
342.283	2.86	correct	navigation	Trial1	navigation/STIM_009.jpg
347.923	2.608	correct	navigation	Trial1	navigation/STIM_009.jpg
352.734	3.129	incorrect	navigation	Trial1	navigation/STIM_009.jpg
358.192	3.021	correct	navigation	Trial1	navigation/STIM_009.jpg
363.394	2.077	correct	navigation	Trial1	navigation/STIM_010.jpg
369.566	4.04	correct	navigation	Trial1	navigation/STIM_010.jpg
376.764	3.914	correct	navigation	Trial1	navigation/STIM_010.jpg
384.372	2.319	incorrect	navigation	Trial1	navigation/STIM_010.jpg
389.31	3.728	correct	navigation	Trial1	navigation/STIM_010.jpg
396.88	2.836	correct	navigation	Trial1	navigation/STIM_010.jpg
402.796	3.837	incorrect	navigation	Trial1	navigation/STIM_011.jpg
408.825	3.79	correct	navigation	Trial1	navigation/STIM_011.jpg
416.152	2.714	correct	navigation	Trial1	navigation/STIM_011.jpg
422.339	2.892	correct	navigation	Trial1	navigation/STIM_011.jpg
428.92	3.749	correct	navigation	Trial1	navigation/STIM_011.jpg
435.131	3.319	incorrect	navigation	Trial1	navigation/STIM_011.jpg
441.099	1.306	correct	pointing	Trial1	pointing/STIM_000.jpg
444.591	1.285	correct	pointing	Trial1	pointing/STIM_000.jpg
448.898	1.044	correct	pointing	Trial1	pointing/STIM_000.jpg
451.896	1.118	correct	pointing	Trial1	pointing/STIM_000.jpg
455.029	1.35	correct	pointing	Trial1	pointing/STIM_000.jpg
459.932	1.501	correct	pointing	Trial1	pointing/STIM_000.jpg
464.49	0.799	incorrect	pointing	Trial1	pointing/STIM_001.jpg
469.032	0.835	correct	pointing	Trial1	pointing/STIM_001.jpg
472.339	1.087	correct	pointing	Trial1	pointing/STIM_001.jpg
476.259	0.78	correct	pointing	Trial1	pointing/STIM_001.jpg
479.791	1.235	correct	pointing	Trial1	pointing/STIM_001.jpg
484.822	1.275	correct	pointing	Trial1	pointing/STIM_001.jpg
488.687	1.44	correct	pointing	Trial1	pointing/STIM_002.jpg
493.018	0.791	correct	pointing	Trial1	pointing/STIM_002.jpg
496.117	1.107	incorrect	pointing	Trial1	pointing/STIM_002.jpg
500.421	1.278	correct	pointing	Trial1	pointing/STIM_002.jpg
504.659	0.843	correct	pointing	Trial1	pointing/STIM_002.jpg
508.09	1.225	correct	pointing	Trial1	pointing/STIM_002.jpg
512.743	1.404	correct	pointing	Trial1	pointing/STIM_003.jpg
517.294	1.27	correct	pointing	Trial1	pointing/STIM_003.jpg
522.445	1.116	correct	pointing	Trial1	pointing/STIM_003.jpg
526.21	0.955	correct	pointing	Trial1	pointing/STIM_003.jpg
530.262	1.014	correct	pointing	Trial1	pointing/STIM_003.jpg
533.908	1.291	incorrect	pointing	Trial1	pointing/STIM_003.jpg
538.488	0.929	correct	pointing	Trial1	pointing/STIM_004.jpg
542.37	1.21	correct	pointing	Trial1	pointing/STIM_004.jpg
546.412	1.263	correct	pointing	Trial1	pointing/STIM_004.jpg
549.67	0.875	correct	pointing	Trial1	pointing/STIM_004.jpg
552.959	1.131	correct	pointing	Trial1	pointing/STIM_004.jpg
557.192	0.942	correct	pointing	Trial1	pointing/STIM_004.jpg
561.114	0.971	correct	pointing	Trial1	pointing/STIM_005.jpg
565.932	0.811	incorrect	pointing	Trial1	pointing/STIM_005.jpg
569.617	0.85	correct	pointing	Trial1	pointing/STIM_005.jpg
573.018	1.079	correct	pointing	Trial1	pointing/STIM_005.jpg
577.078	1.345	correct	pointing	Trial1	pointing/STIM_005.jpg
581.076	1.037	correct	pointing	Trial1	pointing/STIM_005.jpg
585.953	1.221	correct	pointing	Trial1	pointing/STIM_006.jpg
590.11	0.914	correct	pointing	Trial1	pointing/STIM_006.jpg
594.22	1.061	correct	pointing	Trial1	pointing/STIM_006.jpg
599.238	1.124	correct	pointing	Trial1	pointing/STIM_006.jpg
604.168	1.008	correct	pointing	Trial1	pointing/STIM_006.jpg
607.598	1.292	correct	pointing	Trial1	pointing/STIM_006.jpg
612.424	1.123	correct	pointing	Trial1	pointing/STIM_007.jpg
617.255	1.009	correct	pointing	Trial1	pointing/STIM_007.jpg
621.79	0.691	correct	pointing	Trial1	pointing/STIM_007.jpg
624.961	1.473	correct	pointing	Trial1	pointing/STIM_007.jpg
628.99	0.967	correct	pointing	Trial1	pointing/STIM_007.jpg
632.404	1.099	correct	pointing	Trial1	pointing/STIM_007.jpg
636.924	0.926	correct	pointing	Trial1	pointing/STIM_008.jpg
640.428	0.98	correct	pointing	Trial1	pointing/STIM_008.jpg
645.191	1.277	correct	pointing	Trial1	pointing/STIM_008.jpg
648.472	1.213	correct	pointing	Trial1	pointing/STIM_008.jpg
653.693	1.378	correct	pointing	Trial1	pointing/STIM_008.jpg
658.131	1.333	correct	pointing	Trial1	pointing/STIM_008.jpg
662.425	1.334	correct	pointing	Trial1	pointing/STIM_009.jpg
666.558	1.41	incorrect	pointing	Trial1	pointing/STIM_009.jpg
670.507	1.363	correct	pointing	Trial1	pointing/STIM_009.jpg
675.041	1.169	correct	pointing	Trial1	pointing/STIM_009.jpg
679.058	1.223	correct	pointing	Trial1	pointing/STIM_009.jpg
683.867	0.984	correct	pointing	Trial1	pointing/STIM_009.jpg
688.689	0.88	correct	pointing	Trial1	pointing/STIM_010.jpg
691.578	1.32	correct	pointing	Trial1	pointing/STIM_010.jpg
696.564	1.029	correct	pointing	Trial1	pointing/STIM_010.jpg
700.64	1.221	correct	pointing	Trial1	pointing/STIM_010.jpg
703.835	0.972	correct	pointing	Trial1	pointing/STIM_010.jpg
708.223	0.925	correct	pointing	Trial1	pointing/STIM_010.jpg
711.225	0.877	correct	pointing	Trial1	pointing/STIM_011.jpg
715.569	1.287	correct	pointing	Trial1	pointing/STIM_011.jpg
720.186	1.331	correct	pointing	Trial1	pointing/STIM_011.jpg
725.447	0.973	correct	pointing	Trial1	pointing/STIM_011.jpg
728.934	0.932	correct	pointing	Trial1	pointing/STIM_011.jpg
732.693	1.423	correct	pointing	Trial1	pointing/STIM_011.jpg
736.432	1.746	correct	navigation	Trial2	navigation/STIM_000.jpg
742.2	2.455	incorrect	navigation	Trial2	navigation/STIM_000.jpg
747.865	2.248	correct	navigation	Trial2	navigation/STIM_000.jpg
753.632	2.608	incorrect	navigation	Trial2	navigation/STIM_000.jpg
759.303	1.518	incorrect	navigation	Trial2	navigation/STIM_000.jpg
764.587	2.416	correct	navigation	Trial2	navigation/STIM_000.jpg
769.575	1.668	correct	navigation	Trial2	navigation/STIM_001.jpg
774.621	3.877	incorrect	navigation	Trial2	navigation/STIM_001.jpg
781.039	2.474	correct	navigation	Trial2	navigation/STIM_001.jpg
786.556	1.837	correct	navigation	Trial2	navigation/STIM_001.jpg
790.765	2.343	correct	navigation	Trial2	navigation/STIM_001.jpg
796.194	2.63	correct	navigation	Trial2	navigation/STIM_001.jpg
802.219	3.511	correct	navigation	Trial2	navigation/STIM_002.jpg
809.855	3.476	incorrect	navigation	Trial2	navigation/STIM_002.jpg
815.665	2.471	incorrect	navigation	Trial2	navigation/STIM_002.jpg
820.989	1.858	correct	navigation	Trial2	navigation/STIM_002.jpg
825.001	1.453	correct	navigation	Trial2	navigation/STIM_002.jpg
829.83	2.194	incorrect	navigation	Trial2	navigation/STIM_002.jpg
835.919	3.008	correct	navigation	Trial2	navigation/STIM_003.jpg
842.037	2.582	incorrect	navigation	Trial2	navigation/STIM_003.jpg
848.186	1.575	correct	navigation	Trial2	navigation/STIM_003.jpg
852.453	2.171	correct	navigation	Trial2	navigation/STIM_003.jpg
857.377	2.612	correct	navigation	Trial2	navigation/STIM_003.jpg
863.848	3.244	correct	navigation	Trial2	navigation/STIM_003.jpg
870.047	2.608	correct	navigation	Trial2	navigation/STIM_004.jpg
876.518	3.333	correct	navigation	Trial2	navigation/STIM_004.jpg
882.482	1.864	correct	navigation	Trial2	navigation/STIM_004.jpg
887.975	3.341	correct	navigation	Trial2	navigation/STIM_004.jpg
893.633	3.331	correct	navigation	Trial2	navigation/STIM_004.jpg
899.986	1.449	correct	navigation	Trial2	navigation/STIM_004.jpg
905.376	4.118	correct	navigation	Trial2	navigation/STIM_005.jpg
912.154	3.105	correct	navigation	Trial2	navigation/STIM_005.jpg
917.495	2.182	correct	navigation	Trial2	navigation/STIM_005.jpg
921.803	3.206	correct	navigation	Trial2	navigation/STIM_005.jpg
927.587	2.824	correct	navigation	Trial2	navigation/STIM_005.jpg
933.043	2.748	correct	navigation	Trial2	navigation/STIM_005.jpg
939.512	3.494	correct	navigation	Trial2	navigation/STIM_006.jpg
946.159	3.299	incorrect	navigation	Trial2	navigation/STIM_006.jpg
953.315	2.694	correct	navigation	Trial2	navigation/STIM_006.jpg
958.434	2.71	correct	navigation	Trial2	navigation/STIM_006.jpg
964.38	1.728	correct	navigation	Trial2	navigation/STIM_006.jpg
968.702	2.495	incorrect	navigation	Trial2	navigation/STIM_006.jpg
974.773	1.675	correct	navigation	Trial2	navigation/STIM_007.jpg
978.734	3.296	incorrect	navigation	Trial2	navigation/STIM_007.jpg
985.86	1.754	incorrect	navigation	Trial2	navigation/STIM_007.jpg
991.085	3.227	correct	navigation	Trial2	navigation/STIM_007.jpg
997.841	2.334	correct	navigation	Trial2	navigation/STIM_007.jpg
1002.516	2.987	correct	navigation	Trial2	navigation/STIM_007.jpg
1009.134	3.211	correct	navigation	Trial2	navigation/STIM_008.jpg
1014.965	3.56	correct	navigation	Trial2	navigation/STIM_008.jpg
1021.868	1.495	correct	navigation	Trial2	navigation/STIM_008.jpg
1027.053	3.191	correct	navigation	Trial2	navigation/STIM_008.jpg
1034.23	3.012	correct	navigation	Trial2	navigation/STIM_008.jpg
1041.256	2.184	incorrect	navigation	Trial2	navigation/STIM_008.jpg
1047.407	3.13	incorrect	navigation	Trial2	navigation/STIM_009.jpg
1053.022	1.802	correct	navigation	Trial2	navigation/STIM_009.jpg
1057.007	1.972	correct	navigation	Trial2	navigation/STIM_009.jpg
1061.927	2.196	correct	navigation	Trial2	navigation/STIM_009.jpg
1067.25	2.112	correct	navigation	Trial2	navigation/STIM_009.jpg
1072.284	2.226	correct	navigation	Trial2	navigation/STIM_009.jpg
1077.871	3.972	correct	navigation	Trial2	navigation/STIM_010.jpg
1084.815	3.282	correct	navigation	Trial2	navigation/STIM_010.jpg
1091.666	2.893	correct	navigation	Trial2	navigation/STIM_010.jpg
1097.367	2.944	correct	navigation	Trial2	navigation/STIM_010.jpg
1104.29	3.189	correct	navigation	Trial2	navigation/STIM_010.jpg
1110.828	1.537	correct	navigation	Trial2	navigation/STIM_010.jpg
1115.743	2.26	incorrect	navigation	Trial2	navigation/STIM_011.jpg
1121.882	2.634	correct	navigation	Trial2	navigation/STIM_011.jpg
1128.144	3.104	correct	navigation	Trial2	navigation/STIM_011.jpg
1133.651	1.603	correct	navigation	Trial2	navigation/STIM_011.jpg
1138.692	2.41	correct	navigation	Trial2	navigation/STIM_011.jpg
1144.413	2.118	correct	navigation	Trial2	navigation/STIM_011.jpg
1149.362	1.355	correct	pointing	Trial2	pointing/STIM_000.jpg
1153.277	1.265	correct	pointing	Trial2	pointing/STIM_000.jpg
1157.218	1.264	correct	pointing	Trial2	pointing/STIM_000.jpg
1161.557	0.827	correct	pointing	Trial2	pointing/STIM_000.jpg
1165.928	1.274	correct	pointing	Trial2	pointing/STIM_000.jpg
1169.487	1.202	correct	pointing	Trial2	pointing/STIM_000.jpg
1173.733	1.415	correct	pointing	Trial2	pointing/STIM_001.jpg
1177.428	1.397	correct	pointing	Trial2	pointing/STIM_001.jpg
1182.13	0.774	correct	pointing	Trial2	pointing/STIM_001.jpg
1186.813	1.342	correct	pointing	Trial2	pointing/STIM_001.jpg
1190.606	1.106	correct	pointing	Trial2	pointing/STIM_001.jpg
1194.684	1.025	correct	pointing	Trial2	pointing/STIM_001.jpg
1198.072	1.197	correct	pointing	Trial2	pointing/STIM_002.jpg
1201.955	1.434	correct	pointing	Trial2	pointing/STIM_002.jpg
1206.287	0.883	correct	pointing	Trial2	pointing/STIM_002.jpg
1210.878	1.334	correct	pointing	Trial2	pointing/STIM_002.jpg
1214.988	1.257	correct	pointing	Trial2	pointing/STIM_002.jpg
1219.762	0.962	correct	pointing	Trial2	pointing/STIM_002.jpg
1224.517	1.338	correct	pointing	Trial2	pointing/STIM_003.jpg
1228.847	1.377	correct	pointing	Trial2	pointing/STIM_003.jpg
1233.473	0.868	incorrect	pointing	Trial2	pointing/STIM_003.jpg
1237.305	1.337	correct	pointing	Trial2	pointing/STIM_003.jpg
1241.743	0.942	correct	pointing	Trial2	pointing/STIM_003.jpg
1245.163	1.033	correct	pointing	Trial2	pointing/STIM_003.jpg
1248.521	0.783	correct	pointing	Trial2	pointing/STIM_004.jpg
1253.228	1.45	correct	pointing	Trial2	pointing/STIM_004.jpg
1257.333	1.178	correct	pointing	Trial2	pointing/STIM_004.jpg
1262.524	0.778	correct	pointing	Trial2	pointing/STIM_004.jpg
1265.803	0.991	correct	pointing	Trial2	pointing/STIM_004.jpg
1270.381	1.047	correct	pointing	Trial2	pointing/STIM_004.jpg
1275.318	1.118	correct	pointing	Trial2	pointing/STIM_005.jpg
1279.242	0.717	correct	pointing	Trial2	pointing/STIM_005.jpg
1283.156	0.949	incorrect	pointing	Trial2	pointing/STIM_005.jpg
1286.954	1.437	correct	pointing	Trial2	pointing/STIM_005.jpg
1292.151	1.075	correct	pointing	Trial2	pointing/STIM_005.jpg
1295.41	1.017	correct	pointing	Trial2	pointing/STIM_005.jpg
1299.744	1.42	correct	pointing	Trial2	pointing/STIM_006.jpg
1303.22	0.943	correct	pointing	Trial2	pointing/STIM_006.jpg
1306.484	0.903	correct	pointing	Trial2	pointing/STIM_006.jpg
1309.942	0.835	correct	pointing	Trial2	pointing/STIM_006.jpg
1314.608	0.766	correct	pointing	Trial2	pointing/STIM_006.jpg
1318.996	0.941	correct	pointing	Trial2	pointing/STIM_006.jpg
1322.666	1.434	correct	pointing	Trial2	pointing/STIM_007.jpg
1327.492	1.021	correct	pointing	Trial2	pointing/STIM_007.jpg
1332.393	1.405	correct	pointing	Trial2	pointing/STIM_007.jpg
1336.777	0.962	correct	pointing	Trial2	pointing/STIM_007.jpg
1340.757	1.094	correct	pointing	Trial2	pointing/STIM_007.jpg
1345.708	1.257	correct	pointing	Trial2	pointing/STIM_007.jpg
1349.554	1.096	correct	pointing	Trial2	pointing/STIM_008.jpg
1353.99	1.363	correct	pointing	Trial2	pointing/STIM_008.jpg
1358.918	1.21	correct	pointing	Trial2	pointing/STIM_008.jpg
1363.045	0.944	correct	pointing	Trial2	pointing/STIM_008.jpg
1367.124	1.395	correct	pointing	Trial2	pointing/STIM_008.jpg
1370.95	1.206	correct	pointing	Trial2	pointing/STIM_008.jpg
1376.041	1.046	correct	pointing	Trial2	pointing/STIM_009.jpg
1380.544	1.425	correct	pointing	Trial2	pointing/STIM_009.jpg
1385.542	1.408	correct	pointing	Trial2	pointing/STIM_009.jpg
1389.251	0.92	incorrect	pointing	Trial2	pointing/STIM_009.jpg
1393.752	0.85	correct	pointing	Trial2	pointing/STIM_009.jpg
1397.193	1.482	correct	pointing	Trial2	pointing/STIM_009.jpg
1400.668	1.037	correct	pointing	Trial2	pointing/STIM_010.jpg
1404.128	0.998	incorrect	pointing	Trial2	pointing/STIM_010.jpg
1407.826	0.895	correct	pointing	Trial2	pointing/STIM_010.jpg
1411.852	1.004	correct	pointing	Trial2	pointing/STIM_010.jpg
1416.201	1.047	correct	pointing	Trial2	pointing/STIM_010.jpg
1420.407	1.291	correct	pointing	Trial2	pointing/STIM_010.jpg
1424.597	1.384	correct	pointing	Trial2	pointing/STIM_011.jpg
1429.724	0.847	correct	pointing	Trial2	pointing/STIM_011.jpg
1433.047	1.389	correct	pointing	Trial2	pointing/STIM_011.jpg
1437.809	1.232	correct	pointing	Trial2	pointing/STIM_011.jpg
1442.144	0.84	correct	pointing	Trial2	pointing/STIM_011.jpg
1445.425	1.088	correct	pointing	Trial2	pointing/STIM_011.jpg
1450.074	1.754	correct	navigation	Trial3	navigation/STIM_000.jpg
1454.558	2.241	correct	navigation	Trial3	navigation/STIM_000.jpg
1460.228	1.774	correct	navigation	Trial3	navigation/STIM_000.jpg
1464.364	3.057	incorrect	navigation	Trial3	navigation/STIM_000.jpg
1469.84	2.302	correct	navigation	Trial3	navigation/STIM_000.jpg
1475.476	1.482	correct	navigation	Trial3	navigation/STIM_000.jpg
1479.116	2.702	correct	navigation	Trial3	navigation/STIM_001.jpg
1484.326	2.922	correct	navigation	Trial3	navigation/STIM_001.jpg
1491.033	2.783	correct	navigation	Trial3	navigation/STIM_001.jpg
1496.293	1.533	correct	navigation	Trial3	navigation/STIM_001.jpg
1500.619	2.786	correct	navigation	Trial3	navigation/STIM_001.jpg
1506.233	2.887	correct	navigation	Trial3	navigation/STIM_001.jpg
1511.41	2.183	correct	navigation	Trial3	navigation/STIM_002.jpg
1517.309	3.198	correct	navigation	Trial3	navigation/STIM_002.jpg
1523.005	3.161	correct	navigation	Trial3	navigation/STIM_002.jpg
1528.682	3.104	correct	navigation	Trial3	navigation/STIM_002.jpg
1534.763	2.876	correct	navigation	Trial3	navigation/STIM_002.jpg
1541.108	2.004	correct	navigation	Trial3	navigation/STIM_002.jpg
1545.322	3.283	correct	navigation	Trial3	navigation/STIM_003.jpg
1552.381	2.83	correct	navigation	Trial3	navigation/STIM_003.jpg
1558.7	1.482	correct	navigation	Trial3	navigation/STIM_003.jpg
1562.339	1.34	correct	navigation	Trial3	navigation/STIM_003.jpg
1567.026	2.066	correct	navigation	Trial3	navigation/STIM_003.jpg
1572.734	3.115	correct	navigation	Trial3	navigation/STIM_003.jpg
1578.452	2.616	correct	navigation	Trial3	navigation/STIM_004.jpg
1584.566	2.803	correct	navigation	Trial3	navigation/STIM_004.jpg
1590.108	3.284	correct	navigation	Trial3	navigation/STIM_004.jpg
1596.563	2.348	correct	navigation	Trial3	navigation/STIM_004.jpg
1602.475	1.43	correct	navigation	Trial3	navigation/STIM_004.jpg
1607.322	2.214	correct	navigation	Trial3	navigation/STIM_004.jpg
1612.855	1.584	correct	navigation	Trial3	navigation/STIM_005.jpg
1617.346	2.26	correct	navigation	Trial3	navigation/STIM_005.jpg
1621.586	2.811	incorrect	navigation	Trial3	navigation/STIM_005.jpg
1627.848	3.166	correct	navigation	Trial3	navigation/STIM_005.jpg
1634.981	1.532	correct	navigation	Trial3	navigation/STIM_005.jpg
1639.215	2.678	correct	navigation	Trial3	navigation/STIM_005.jpg
1644.15	2.8	correct	navigation	Trial3	navigation/STIM_006.jpg
1650.251	3.162	correct	navigation	Trial3	navigation/STIM_006.jpg
1657.29	1.76	correct	navigation	Trial3	navigation/STIM_006.jpg
1663.029	2.447	correct	navigation	Trial3	navigation/STIM_006.jpg
1667.856	2.106	correct	navigation	Trial3	navigation/STIM_006.jpg
1672.147	2.924	correct	navigation	Trial3	navigation/STIM_006.jpg
1678.146	2.534	incorrect	navigation	Trial3	navigation/STIM_007.jpg
1683.128	1.828	correct	navigation	Trial3	navigation/STIM_007.jpg
1688.871	1.526	correct	navigation	Trial3	navigation/STIM_007.jpg
1693.086	2.503	correct	navigation	Trial3	navigation/STIM_007.jpg
1698.149	2.965	incorrect	navigation	Trial3	navigation/STIM_007.jpg
1703.569	2.417	correct	navigation	Trial3	navigation/STIM_007.jpg
1708.928	2.527	correct	navigation	Trial3	navigation/STIM_008.jpg
1714.669	2.249	correct	navigation	Trial3	navigation/STIM_008.jpg
1719.038	2.319	correct	navigation	Trial3	navigation/STIM_008.jpg
1724.573	2.99	correct	navigation	Trial3	navigation/STIM_008.jpg
1730.001	2.43	correct	navigation	Trial3	navigation/STIM_008.jpg
1734.935	2.658	correct	navigation	Trial3	navigation/STIM_008.jpg
1739.824	1.822	correct	navigation	Trial3	navigation/STIM_009.jpg
1745.232	1.442	correct	navigation	Trial3	navigation/STIM_009.jpg
1749.998	1.624	correct	navigation	Trial3	navigation/STIM_009.jpg
1754.304	3.366	correct	navigation	Trial3	navigation/STIM_009.jpg
1760.52	3.064	correct	navigation	Trial3	navigation/STIM_009.jpg
1765.803	1.597	correct	navigation	Trial3	navigation/STIM_009.jpg
1769.591	2.133	correct	navigation	Trial3	navigation/STIM_010.jpg
1775.637	2.721	correct	navigation	Trial3	navigation/STIM_010.jpg
1780.814	2.811	correct	navigation	Trial3	navigation/STIM_010.jpg
1786.648	1.789	correct	navigation	Trial3	navigation/STIM_010.jpg
1792.349	3.155	incorrect	navigation	Trial3	navigation/STIM_010.jpg
1798.337	1.689	correct	navigation	Trial3	navigation/STIM_010.jpg
1802.026	2.823	incorrect	navigation	Trial3	navigation/STIM_011.jpg
1807.847	2.909	correct	navigation	Trial3	navigation/STIM_011.jpg
1814.046	1.663	correct	navigation	Trial3	navigation/STIM_011.jpg
1818.549	3.236	correct	navigation	Trial3	navigation/STIM_011.jpg
1824.934	2.99	correct	navigation	Trial3	navigation/STIM_011.jpg
1830.656	1.916	correct	navigation	Trial3	navigation/STIM_011.jpg
1835.244	1.117	correct	pointing	Trial3	pointing/STIM_000.jpg
1840.3	1.289	correct	pointing	Trial3	pointing/STIM_000.jpg
1845.178	0.984	correct	pointing	Trial3	pointing/STIM_000.jpg
1849.537	1.245	correct	pointing	Trial3	pointing/STIM_000.jpg
1853.895	1.336	correct	pointing	Trial3	pointing/STIM_000.jpg
1859.139	1.14	correct	pointing	Trial3	pointing/STIM_000.jpg
1863.226	1.4	correct	pointing	Trial3	pointing/STIM_001.jpg
1868.333	1.011	correct	pointing	Trial3	pointing/STIM_001.jpg
1872.047	0.871	correct	pointing	Trial3	pointing/STIM_001.jpg
1875.035	1.374	correct	pointing	Trial3	pointing/STIM_001.jpg
1878.899	1.011	incorrect	pointing	Trial3	pointing/STIM_001.jpg
1883.939	0.956	correct	pointing	Trial3	pointing/STIM_001.jpg
1888.156	1.371	correct	pointing	Trial3	pointing/STIM_002.jpg
1892.312	0.879	correct	pointing	Trial3	pointing/STIM_002.jpg
1895.735	1.094	correct	pointing	Trial3	pointing/STIM_002.jpg
1899.058	0.958	correct	pointing	Trial3	pointing/STIM_002.jpg
1903.44	1.143	correct	pointing	Trial3	pointing/STIM_002.jpg
1907.569	1.082	correct	pointing	Trial3	pointing/STIM_002.jpg
1911.877	1.03	correct	pointing	Trial3	pointing/STIM_003.jpg
1915.311	1.2	correct	pointing	Trial3	pointing/STIM_003.jpg
1919.284	0.93	correct	pointing	Trial3	pointing/STIM_003.jpg
1922.424	1.093	correct	pointing	Trial3	pointing/STIM_003.jpg
1925.894	1.446	correct	pointing	Trial3	pointing/STIM_003.jpg
1930.63	0.836	correct	pointing	Trial3	pointing/STIM_003.jpg
1933.979	0.787	correct	pointing	Trial3	pointing/STIM_004.jpg
1938.325	0.745	incorrect	pointing	Trial3	pointing/STIM_004.jpg
1942.611	0.859	correct	pointing	Trial3	pointing/STIM_004.jpg
1945.521	1.46	correct	pointing	Trial3	pointing/STIM_004.jpg
1949.793	1.499	correct	pointing	Trial3	pointing/STIM_004.jpg
1955.194	1.43	correct	pointing	Trial3	pointing/STIM_004.jpg
1958.879	1.26	correct	pointing	Trial3	pointing/STIM_005.jpg
1962.367	0.922	correct	pointing	Trial3	pointing/STIM_005.jpg
1966.331	1.173	correct	pointing	Trial3	pointing/STIM_005.jpg
1970.515	1.398	correct	pointing	Trial3	pointing/STIM_005.jpg
1975.618	1.057	correct	pointing	Trial3	pointing/STIM_005.jpg
1980.149	1.342	correct	pointing	Trial3	pointing/STIM_005.jpg
1984.066	1.37	correct	pointing	Trial3	pointing/STIM_006.jpg
1988.446	1.327	correct	pointing	Trial3	pointing/STIM_006.jpg
1993.239	0.847	correct	pointing	Trial3	pointing/STIM_006.jpg
1996.699	0.977	correct	pointing	Trial3	pointing/STIM_006.jpg
2001.625	1.288	correct	pointing	Trial3	pointing/STIM_006.jpg
2005.555	1.107	correct	pointing	Trial3	pointing/STIM_006.jpg
2009.456	0.818	correct	pointing	Trial3	pointing/STIM_007.jpg
2013.268	1.011	correct	pointing	Trial3	pointing/STIM_007.jpg
2017.428	0.991	correct	pointing	Trial3	pointing/STIM_007.jpg
2020.825	1.362	correct	pointing	Trial3	pointing/STIM_007.jpg
2025.686	0.846	correct	pointing	Trial3	pointing/STIM_007.jpg
2030.324	1.23	correct	pointing	Trial3	pointing/STIM_007.jpg
2034.301	0.866	correct	pointing	Trial3	pointing/STIM_008.jpg
2037.922	1.258	correct	pointing	Trial3	pointing/STIM_008.jpg
2041.959	1.382	correct	pointing	Trial3	pointing/STIM_008.jpg
2045.858	1.491	correct	pointing	Trial3	pointing/STIM_008.jpg
2049.829	1.117	correct	pointing	Trial3	pointing/STIM_008.jpg
2054.565	0.975	correct	pointing	Trial3	pointing/STIM_008.jpg
2057.954	1.218	correct	pointing	Trial3	pointing/STIM_009.jpg
2061.786	1.204	correct	pointing	Trial3	pointing/STIM_009.jpg
2065.698	1.079	correct	pointing	Trial3	pointing/STIM_009.jpg
2069.262	0.869	correct	pointing	Trial3	pointing/STIM_009.jpg
2073.866	1.381	correct	pointing	Trial3	pointing/STIM_009.jpg
2079.09	0.973	correct	pointing	Trial3	pointing/STIM_009.jpg
2083.218	1.343	correct	pointing	Trial3	pointing/STIM_010.jpg
2086.791	1.257	correct	pointing	Trial3	pointing/STIM_010.jpg
2091.287	1.262	correct	pointing	Trial3	pointing/STIM_010.jpg
2096.487	1.246	correct	pointing	Trial3	pointing/STIM_010.jpg
2100.831	1.333	correct	pointing	Trial3	pointing/STIM_010.jpg
2104.798	1.102	correct	pointing	Trial3	pointing/STIM_010.jpg
2109.171	1.37	correct	pointing	Trial3	pointing/STIM_011.jpg
2114.038	0.783	correct	pointing	Trial3	pointing/STIM_011.jpg
2118.559	1.456	correct	pointing	Trial3	pointing/STIM_011.jpg
2122.223	1.414	correct	pointing	Trial3	pointing/STIM_011.jpg
2126.537	1.021	correct	pointing	Trial3	pointing/STIM_011.jpg
2131.267	0.835	correct	pointing	Trial3	pointing/STIM_011.jpg
