onset	duration	accuracy	trial_type	learning_stage	stimulus
0.0	3.947	correct	navigation	Trial1	navigation/STIM_000.jpg
7.555	2.943	correct	navigation	Trial1	navigation/STIM_000.jpg
13.344	4.558	incorrect	navigation	Trial1	navigation/STIM_000.jpg
21.239	4.384	incorrect	navigation	Trial1	navigation/STIM_000.jpg
27.767	2.466	incorrect	navigation	Trial1	navigation/STIM_000.jpg
33.567	3.49	correct	navigation	Trial1	navigation/STIM_000.jpg
39.707	2.973	correct	navigation	Trial1	navigation/STIM_001.jpg
45.124	4.31	correct	navigation	Trial1	navigation/STIM_001.jpg
53.159	3.094	incorrect	navigation	Trial1	navigation/STIM_001.jpg
59.77	1.899	correct	navigation	Trial1	navigation/STIM_001.jpg
65.2	4.172	correct	navigation	Trial1	navigation/STIM_001.jpg
72.985	3.168	correct	navigation	Trial1	navigation/STIM_001.jpg
78.572	4.109	correct	navigation	Trial1	navigation/STIM_002.jpg
84.918	4.569	correct	navigation	Trial1	navigation/STIM_002.jpg
91.816	4.373	incorrect	navigation	Trial1	navigation/STIM_002.jpg
98.482	1.868	correct	navigation	Trial1	navigation/STIM_002.jpg
102.771	2.673	correct	navigation	Trial1	navigation/STIM_002.jpg
108.705	3.651	correct	navigation	Trial1	navigation/STIM_002.jpg
115.146	4.842	correct	navigation	Trial1	navigation/STIM_003.jpg
122.451	3.817	incorrect	navigation	Trial1	navigation/STIM_003.jpg
128.509	3.661	incorrect	navigation	Trial1	navigation/STIM_003.jpg
134.987	3.658	correct	navigation	Trial1	navigation/STIM_003.jpg
142.072	3.69	correct	navigation	Trial1	navigation/STIM_003.jpg
148.633	1.998	correct	navigation	Trial1	navigation/STIM_003.jpg
153.633	4.489	incorrect	navigation	Trial1	navigation/STIM_004.jpg
161.47	3.685	incorrect	navigation	Trial1	navigation/STIM_004.jpg
168.405	4.66	correct	navigation	Trial1	navigation/STIM_004.jpg
175.104	2.541	correct	navigation	Trial1	navigation/STIM_004.jpg
180.931	3.793	correct	navigation	Trial1	navigation/STIM_004.jpg
187.397	2.226	correct	navigation	Trial1	navigation/STIM_004.jpg
193.348	2.623	incorrect	navigation	Trial1	navigation/STIM_005.jpg
198.956	4.263	correct	navigation	Trial1	navigation/STIM_005.jpg
205.992	2.238	incorrect	navigation	Trial1	navigation/STIM_005.jpg
212.157	2.979	incorrect	navigation	Trial1	navigation/STIM_005.jpg
217.22	2.491	incorrect	navigation	Trial1	navigation/STIM_005.jpg
222.385	3.455	correct	navigation	Trial1	navigation/STIM_005.jpg
228.341	5.088	correct	navigation	Trial1	navigation/STIM_006.jpg
237.423	4.605	correct	navigation	Trial1	navigation/STIM_006.jpg
245.254	3.55	correct	navigation	Trial1	navigation/STIM_006.jpg
252.005	4.393	incorrect	navigation	Trial1	navigation/STIM_006.jpg
260.392	2.469	correct	navigation	Trial1	navigation/STIM_006.jpg
265.802	2.194	correct	navigation	Trial1	navigation/STIM_006.jpg
271.377	2.669	correct	navigation	Trial1	navigation/STIM_007.jpg
276.288	2.858	correct	navigation	Trial1	navigation/STIM_007.jpg
281.253	4.797	correct	navigation	Trial1	navigation/STIM_007.jpg
289.359	2.268	correct	navigation	Trial1	navigation/STIM_007.jpg
294.013	2.7	correct	navigation	Trial1	navigation/STIM_007.jpg
299.781	1.865	correct	navigation	Trial1	navigation/STIM_007.jpg
305.242	3.018	incorrect	navigation	Trial1	navigation/STIM_008.jpg
310.936	4.666	correct	navigation	Trial1	navigation/STIM_008.jpg
319.049	4.687	correct	navigation	Trial1	navigation/STIM_008.jpg
327.015	4.277	incorrect	navigation	Trial1	navigation/STIM_008.jpg
333.414	4.154	incorrect	navigation	Trial1	navigation/STIM_008.jpg
341.074	2.596	incorrect	navigation	Trial1	navigation/STIM_008.jpg
346.067	3.048	correct	navigation	Trial1	navigation/STIM_009.jpg
353.113	3.729	correct	navigation	Trial1	navigation/STIM_009.jpg
359.856	4.229	correct	navigation	Trial1	navigation/STIM_009.jpg
366.162	4.405	correct	navigation	Trial1	navigation/STIM_009.jpg
373.138	3.371	incorrect	navigation	Trial1	navigation/STIM_009.jpg
378.711	3.951	correct	navigation	Trial1	navigation/STIM_009.jpg
384.722	5.092	correct	navigation	Trial1	navigation/STIM_010.jpg
393.073	2.116	correct	navigation	Trial1	navigation/STIM_010.jpg
397.77	3.707	correct	navigation	Trial1	navigation/STIM_010.jpg
404.174	3.453	correct	navigation	Trial1	navigation/STIM_010.jpg
410.359	2.204	correct	navigation	Trial1	navigation/STIM_010.jpg
416.341	3.753	correct	navigation	Trial1	navigation/STIM_010.jpg
424.066	5.284	incorrect	navigation	Trial1	navigation/STIM_011.jpg
432.386	2.462	correct	navigation	Trial1	navigation/STIM_011.jpg
437.359	3.204	correct	navigation	Trial1	navigation/STIM_011.jpg
442.96	4.117	correct	navigation	Trial1	navigation/STIM_011.jpg
450.202	4.03	correct	navigation	Trial1	navigation/STIM_011.jpg
457.09	3.912	incorrect	navigation	Trial1	navigation/STIM_011.jpg
463.469	1.003	correct	pointing	Trial1	pointing/STIM_000.jpg
468.189	1.007	correct	pointing	Trial1	pointing/STIM_000.jpg
471.462	1.015	correct	pointing	Trial1	pointing/STIM_000.jpg
475.84	1.065	correct	pointing	Trial1	pointing/STIM_000.jpg
479.207	1.074	correct	pointing	Trial1	pointing/STIM_000.jpg
483.931	1.434	correct	pointing	Trial1	pointing/STIM_000.jpg
487.494	0.984	incorrect	pointing	Trial1	pointing/STIM_001.jpg
492.107	1.567	correct	pointing	Trial1	pointing/STIM_001.jpg
495.696	0.937	correct	pointing	Trial1	pointing/STIM_001.jpg
500.053	1.074	correct	pointing	Trial1	pointing/STIM_001.jpg
504.964	0.925	correct	pointing	Trial1	pointing/STIM_001.jpg
507.995	1.52	incorrect	pointing	Trial1	pointing/STIM_001.jpg
513.355	1.141	correct	pointing	Trial1	pointing/STIM_002.jpg
517.923	0.977	correct	pointing	Trial1	pointing/STIM_002.jpg
521.477	1.047	incorrect	pointing	Trial1	pointing/STIM_002.jpg
524.842	1.198	correct	pointing	Trial1	pointing/STIM_002.jpg
528.32	1.068	correct	pointing	Trial1	pointing/STIM_002.jpg
531.783	1.599	correct	pointing	Trial1	pointing/STIM_002.jpg
536.674	1.504	correct	pointing	Trial1	pointing/STIM_003.jpg
540.867	1.178	correct	pointing	Trial1	pointing/STIM_003.jpg
545.219	1.217	correct	pointing	Trial1	pointing/STIM_003.jpg
550.26	1.327	correct	pointing	Trial1	pointing/STIM_003.jpg
555.085	0.934	correct	pointing	Trial1	pointing/STIM_003.jpg
559.122	1.003	incorrect	pointing	Trial1	pointing/STIM_003.jpg
563.829	0.941	correct	pointing	Trial1	pointing/STIM_004.jpg
568.747	0.863	correct	pointing	Trial1	pointing/STIM_004.jpg
572.632	1.272	correct	pointing	Trial1	pointing/STIM_004.jpg
576.331	1.123	correct	pointing	Trial1	pointing/STIM_004.jpg
580.502	1.22	correct	pointing	Trial1	pointing/STIM_004.jpg
584.11	1.603	correct	pointing	Trial1	pointing/STIM_004.jpg
588.665	1.488	correct	pointing	Trial1	pointing/STIM_005.jpg
594.03	0.931	correct	pointing	Trial1	pointing/STIM_005.jpg
598.429	1.034	incorrect	pointing	Trial1	pointing/STIM_005.jpg
603.274	1.034	correct	pointing	Trial1	pointing/STIM_005.jpg
607.245	1.177	correct	pointing	Trial1	pointing/STIM_005.jpg
610.784	1.138	correct	pointing	Trial1	pointing/STIM_005.jpg
614.642	1.367	correct	pointing	Trial1	pointing/STIM_006.jpg
619.188	1.286	incorrect	pointing	Trial1	pointing/STIM_006.jpg
623.818	1.375	correct	pointing	Trial1	pointing/STIM_006.jpg
628.505	1.581	correct	pointing	Trial1	pointing/STIM_006.jpg
632.488	1.598	correct	pointing	Trial1	pointing/STIM_006.jpg
637.321	1.369	correct	pointing	Trial1	pointing/STIM_006.jpg
641.154	1.472	correct	pointing	Trial1	pointing/STIM_007.jpg
646.039	1.523	correct	pointing	Trial1	pointing/STIM_007.jpg
650.001	1.317	correct	pointing	Trial1	pointing/STIM_007.jpg
654.911	1.096	correct	pointing	Trial1	pointing/STIM_007.jpg
659.057	1.308	correct	pointing	Trial1	pointing/STIM_007.jpg
662.616	1.459	correct	pointing	Trial1	pointing/STIM_007.jpg
667.138	0.997	correct	pointing	Trial1	pointing/STIM_008.jpg
670.75	0.959	correct	pointing	Trial1	pointing/STIM_008.jpg
674.725	1.211	correct	pointing	Trial1	pointing/STIM_008.jpg
678.684	1.401	correct	pointing	Trial1	pointing/STIM_008.jpg
682.813	1.222	correct	pointing	Trial1	pointing/STIM_008.jpg
687.339	1.139	correct	pointing	Trial1	pointing/STIM_008.jpg
691.37	0.962	correct	pointing	Trial1	pointing/STIM_009.jpg
694.844	1.146	incorrect	pointing	Trial1	pointing/STIM_009.jpg
698.599	1.04	correct	pointing	Trial1	pointing/STIM_009.jpg
702.989	1.383	correct	pointing	Trial1	pointing/STIM_009.jpg
707.685	0.922	correct	pointing	Trial1	pointing/STIM_009.jpg
710.859	0.926	correct	pointing	Trial1	pointing/STIM_009.jpg
715.395	1.354	correct	pointing	Trial1	pointing/STIM_010.jpg
719.619	1.476	correct	pointing	Trial1	pointing/STIM_010.jpg
724.424	1.116	correct	pointing	Trial1	pointing/STIM_010.jpg
728.497	1.552	correct	pointing	Trial1	pointing/STIM_010.jpg
733.984	1.399	correct	pointing	Trial1	pointing/STIM_010.jpg
737.561	1.363	correct	pointing	Trial1	pointing/STIM_010.jpg
741.803	1.093	correct	pointing	Trial1	pointing/STIM_011.jpg
745.093	1.388	correct	pointing	Trial1	pointing/STIM_011.jpg
748.95	1.4	incorrect	pointing	Trial1	pointing/STIM_011.jpg
754.26	1.517	correct	pointing	Trial1	pointing/STIM_011.jpg
757.815	0.952	correct	pointing	Trial1	pointing/STIM_011.jpg
760.967	1.36	correct	pointing	Trial1	pointing/STIM_011.jpg
766.075	4.326	correct	navigation	Trial2	navigation/STIM_000.jpg
773.649	2.188	incorrect	navigation	Trial2	navigation/STIM_000.jpg
779.748	2.773	correct	navigation	Trial2	navigation/STIM_000.jpg
784.821	2.757	incorrect	navigation	Trial2	navigation/STIM_000.jpg
791.559	3.387	incorrect	navigation	Trial2	navigation/STIM_000.jpg
797.004	3.601	correct	navigation	Trial2	navigation/STIM_000.jpg
802.736	2.153	correct	navigation	Trial2	navigation/STIM_001.jpg
806.957	1.946	incorrect	navigation	Trial2	navigation/STIM_001.jpg
812.098	1.643	incorrect	navigation	Trial2	navigation/STIM_001.jpg
817.283	3.739	correct	navigation	Trial2	navigation/STIM_001.jpg
824.277	3.307	correct	navigation	Trial2	navigation/STIM_001.jpg
830.885	3.466	correct	navigation	Trial2	navigation/STIM_001.jpg
837.867	1.966	incorrect	navigation	Trial2	navigation/STIM_002.jpg
843.687	4.17	incorrect	navigation	Trial2	navigation/STIM_002.jpg
850.646	2.178	incorrect	navigation	Trial2	navigation/STIM_002.jpg
855.151	2.587	correct	navigation	Trial2	navigation/STIM_002.jpg
861.334	3.722	correct	navigation	Trial2	navigation/STIM_002.jpg
867.808	3.696	incorrect	navigation	Trial2	navigation/STIM_002.jpg
873.585	1.974	correct	navigation	Trial2	navigation/STIM_003.jpg
878.825	2.388	incorrect	navigation	Trial2	navigation/STIM_003.jpg
884.662	3.126	correct	navigation	Trial2	navigation/STIM_003.jpg
890.494	2.469	correct	navigation	Trial2	navigation/STIM_003.jpg
895.794	3.167	correct	navigation	Trial2	navigation/STIM_003.jpg
901.726	2.475	correct	navigation	Trial2	navigation/STIM_003.jpg
907.26	3.167	correct	navigation	Trial2	navigation/STIM_004.jpg
912.712	3.3	correct	navigation	Trial2	navigation/STIM_004.jpg
918.043	2.143	correct	navigation	Trial2	navigation/STIM_004.jpg
922.651	2.392	correct	navigation	Trial2	navigation/STIM_004.jpg
927.422	3.147	correct	navigation	Trial2	navigation/STIM_004.jpg
933.849	3.696	correct	navigation	Trial2	navigation/STIM_004.jpg
940.096	3.284	correct	navigation	Trial2	navigation/STIM_005.jpg
945.502	4.087	correct	navigation	Trial2	navigation/STIM_005.jpg
952.647	3.34	correct	navigation	Trial2	navigation/STIM_005.jpg
959.735	3.618	correct	navigation	Trial2	navigation/STIM_005.jpg
966.724	3.014	correct	navigation	Trial2	navigation/STIM_005.jpg
972.89	3.054	correct	navigation	Trial2	navigation/STIM_005.jpg
979.356	2.623	correct	navigation	Trial2	navigation/STIM_006.jpg
985.0	2.134	incorrect	navigation	Trial2	navigation/STIM_006.jpg
990.34	2.337	correct	navigation	Trial2	navigation/STIM_006.jpg
996.182	2.5	correct	navigation	Trial2	navigation/STIM_006.jpg
1000.846	2.742	correct	navigation	Trial2	navigation/STIM_006.jpg
1006.24	2.014	incorrect	navigation	Trial2	navigation/STIM_006.jpg
1010.621	2.932	correct	navigation	Trial2	navigation/STIM_007.jpg
1017.395	3.166	incorrect	navigation	Trial2	navigation/STIM_007.jpg
1024.344	2.263	incorrect	navigation	Trial2	navigation/STIM_007.jpg
1028.738	2.653	correct	navigation	Trial2	navigation/STIM_007.jpg
1033.788	3.511	incorrect	navigation	Trial2	navigation/STIM_007.jpg
1040.284	2.316	correct	navigation	Trial2	navigation/STIM_007.jpg
1045.026	2.648	correct	navigation	Trial2	navigation/STIM_008.jpg
1051.248	3.474	correct	navigation	Trial2	navigation/STIM_008.jpg
1057.974	2.581	correct	navigation	Trial2	navigation/STIM_008.jpg
1063.317	2.612	correct	navigation	Trial2	navigation/STIM_008.jpg
1069.059	2.258	correct	navigation	Trial2	navigation/STIM_008.jpg
1073.744	3.098	correct	navigation	Trial2	navigation/STIM_008.jpg
1080.81	3.428	incorrect	navigation	Trial2	navigation/STIM_009.jpg
1087.783	4.189	correct	navigation	Trial2	navigation/STIM_009.jpg
1095.864	2.689	correct	navigation	Trial2	navigation/STIM_009.jpg
1100.585	1.719	correct	navigation	Trial2	navigation/STIM_009.jpg
1106.011	2.394	correct	navigation	Trial2	navigation/STIM_009.jpg
1111.775	2.691	correct	navigation	Trial2	navigation/STIM_009.jpg
1116.606	2.221	correct	navigation	Trial2	navigation/STIM_010.jpg
1121.114	4.086	incorrect	navigation	Trial2	navigation/STIM_010.jpg
1127.401	3.585	correct	navigation	Trial2	navigation/STIM_010.jpg
1134.316	3.48	correct	navigation	Trial2	navigation/STIM_010.jpg
1140.966	2.071	correct	navigation	Trial2	navigation/STIM_010.jpg
1145.253	3.082	correct	navigation	Trial2	navigation/STIM_010.jpg
1151.504	3.327	incorrect	navigation	Trial2	navigation/STIM_011.jpg
1158.728	2.041	correct	navigation	Trial2	navigation/STIM_011.jpg
1163.536	3.845	correct	navigation	Trial2	navigation/STIM_011.jpg
1170.051	2.544	correct	navigation	Trial2	navigation/STIM_011.jpg
1175.128	2.902	correct	navigation	Trial2	navigation/STIM_011.jpg
1181.723	2.265	correct	navigation	Trial2	navigation/STIM_011.jpg
1186.601	0.866	correct	pointing	Trial2	pointing/STIM_000.jpg
1191.09	1.533	correct	pointing	Trial2	pointing/STIM_000.jpg
1196.046	1.289	correct	pointing	Trial2	pointing/STIM_000.jpg
1200.137	1.195	correct	pointing	Trial2	pointing/STIM_000.jpg
1204.12	1.478	correct	pointing	Trial2	pointing/STIM_000.jpg
1208.229	1.366	correct	pointing	Trial2	pointing/STIM_000.jpg
1212.07	1.219	correct	pointing	Trial2	pointing/STIM_001.jpg
1216.715	0.96	incorrect	pointing	Trial2	pointing/STIM_001.jpg
1220.784	1.039	correct	pointing	Trial2	pointing/STIM_001.jpg
1225.508	1.002	correct	pointing	Trial2	pointing/STIM_001.jpg
1228.624	1.137	correct	pointing	Trial2	pointing/STIM_001.jpg
1232.635	1.373	correct	pointing	Trial2	pointing/STIM_001.jpg
1237.674	1.061	correct	pointing	Trial2	pointing/STIM_002.jpg
1241.958	1.251	correct	pointing	Trial2	pointing/STIM_002.jpg
1245.215	0.949	correct	pointing	Trial2	pointing/STIM_002.jpg
1248.701	1.076	correct	pointing	Trial2	pointing/STIM_002.jpg
1251.797	1.499	correct	pointing	Trial2	pointing/STIM_002.jpg
1256.924	1.005	correct	pointing	Trial2	pointing/STIM_002.jpg
1260.129	1.341	correct	pointing	Trial2	pointing/STIM_003.jpg
1264.623	1.031	correct	pointing	Trial2	pointing/STIM_003.jpg
1268.96	1.068	correct	pointing	Trial2	pointing/STIM_003.jpg
1272.75	0.915	correct	pointing	Trial2	pointing/STIM_003.jpg
1276.19	1.446	correct	pointing	Trial2	pointing/STIM_003.jpg
1280.615	1.303	correct	pointing	Trial2	pointing/STIM_003.jpg
1284.07	1.194	correct	pointing	Trial2	pointing/STIM_004.jpg
1288.284	1.32	correct	pointing	Trial2	pointing/STIM_004.jpg
1293.126	1.11	correct	pointing	Trial2	pointing/STIM_004.jpg
1296.953	0.881	correct	pointing	Trial2	pointing/STIM_004.jpg
1301.773	1.351	correct	pointing	Trial2	pointing/STIM_004.jpg
1305.545	0.95	correct	pointing	Trial2	pointing/STIM_004.jpg
1310.299	1.278	correct	pointing	Trial2	pointing/STIM_005.jpg
1313.666	0.92	correct	pointing	Trial2	pointing/STIM_005.jpg
1316.846	1.188	incorrect	pointing	Trial2	pointing/STIM_005.jpg
1321.395	1.134	incorrect	pointing	Trial2	pointing/STIM_005.jpg
1325.376	1.499	correct	pointing	Trial2	pointing/STIM_005.jpg
1329.607	1.207	correct	pointing	Trial2	pointing/STIM_005.jpg
1334.581	1.41	correct	pointing	Trial2	pointing/STIM_006.jpg
1338.021	1.195	correct	pointing	Trial2	pointing/STIM_006.jpg
1341.85	1.181	correct	pointing	Trial2	pointing/STIM_006.jpg
1345.531	1.198	correct	pointing	Trial2	pointing/STIM_006.jpg
1348.793	1.279	correct	pointing	Trial2	pointing/STIM_006.jpg
1353.334	1.172	correct	pointing	Trial2	pointing/STIM_006.jpg
1357.25	1.289	correct	pointing	Trial2	pointing/STIM_007.jpg
1361.241	1.139	correct	pointing	Trial2	pointing/STIM_007.jpg
1365.318	1.319	correct	pointing	Trial2	pointing/STIM_007.jpg
1369.867	1.249	correct	pointing	Trial2	pointing/STIM_007.jpg
1374.924	1.375	correct	pointing	Trial2	pointing/STIM_007.jpg
1378.493	1.108	correct	pointing	Trial2	pointing/STIM_007.jpg
1383.098	1.364	correct	pointing	Trial2	pointing/STIM_008.jpg
1388.022	1.258	correct	pointing	Trial2	pointing/STIM_008.jpg
1392.312	1.453	correct	pointing	Trial2	pointing/STIM_008.jpg
1396.76	0.934	correct	pointing	Trial2	pointing/STIM_008.jpg
1399.804	1.345	correct	pointing	Trial2	pointing/STIM_008.jpg
1403.86	1.576	correct	pointing	Trial2	pointing/STIM_008.jpg
1409.05	1.226	correct	pointing	Trial2	pointing/STIM_009.jpg
1413.62	1.59	correct	pointing	Trial2	pointing/STIM_009.jpg
1418.914	1.581	correct	pointing	Trial2	pointing/STIM_009.jpg
1423.101	0.977	incorrect	pointing	Trial2	pointing/STIM_009.jpg
1426.353	1.541	correct	pointing	Trial2	pointing/STIM_009.jpg
1430.405	1.369	correct	pointing	Trial2	pointing/STIM_009.jpg
1434.581	1.35	correct	pointing	Trial2	pointing/STIM_010.jpg
1438.913	1.379	correct	pointing	Trial2	pointing/STIM_010.jpg
1443.178	1.583	correct	pointing	Trial2	pointing/STIM_010.jpg
1446.983	1.416	incorrect	pointing	Trial2	pointing/STIM_010.jpg
1451.754	1.189	correct	pointing	Trial2	pointing/STIM_010.jpg
1456.937	0.927	correct	pointing	Trial2	pointing/STIM_010.jpg
1460.075	0.925	correct	pointing	Trial2	pointing/STIM_011.jpg
1463.436	0.952	correct	pointing	Trial2	pointing/STIM_011.jpg
1466.757	1.581	incorrect	pointing	Trial2	pointing/STIM_011.jpg
1470.946	1.6	correct	pointing	Trial2	pointing/STIM_011.jpg
1476.046	0.965	correct	pointing	Trial2	pointing/STIM_011.jpg
1480.186	1.568	correct	pointing	Trial2	pointing/STIM_011.jpg
1483.93	2.647	correct	navigation	Trial3	navigation/STIM_000.jpg
1489.799	2.921	correct	navigation	Trial3	navigation/STIM_000.jpg
1496.014	3.144	correct	navigation	Trial3	navigation/STIM_000.jpg
1501.835	1.936	correct	navigation	Trial3	navigation/STIM_000.jpg
1506.969	2.55	correct	navigation	Trial3	navigation/STIM_000.jpg
1511.693	2.458	correct	navigation	Trial3	navigation/STIM_000.jpg
1518.035	3.743	correct	navigation	Trial3	navigation/STIM_001.jpg
1524.846	3.158	correct	navigation	Trial3	navigation/STIM_001.jpg
1531.357	1.789	correct	navigation	Trial3	navigation/STIM_001.jpg
1536.142	2.847	correct	navigation	Trial3	navigation/STIM_001.jpg
1541.675	1.746	correct	navigation	Trial3	navigation/STIM_001.jpg
1545.655	2.568	correct	navigation	Trial3	navigation/STIM_001.jpg
1551.952	3.254	correct	navigation	Trial3	navigation/STIM_002.jpg
1557.903	2.043	correct	navigation	Trial3	navigation/STIM_002.jpg
1562.226	2.128	correct	navigation	Trial3	navigation/STIM_002.jpg
1568.212	2.566	correct	navigation	Trial3	navigation/STIM_002.jpg
1574.69	2.912	correct	navigation	Trial3	navigation/STIM_002.jpg
1580.303	1.816	correct	navigation	Trial3	navigation/STIM_002.jpg
1585.003	3.232	correct	navigation	Trial3	navigation/STIM_003.jpg
1591.382	2.239	correct	navigation	Trial3	navigation/STIM_003.jpg
1597.374	2.872	correct	navigation	Trial3	navigation/STIM_003.jpg
1603.965	3.405	correct	navigation	Trial3	navigation/STIM_003.jpg
1609.416	3.452	correct	navigation	Trial3	navigation/STIM_003.jpg
1616.495	1.574	correct	navigation	Trial3	navigation/STIM_003.jpg
1620.381	1.774	correct	navigation	Trial3	navigation/STIM_004.jpg
1624.763	2.688	correct	navigation	Trial3	navigation/STIM_004.jpg
1629.97	3.227	correct	navigation	Trial3	navigation/STIM_004.jpg
1635.871	1.659	correct	navigation	Trial3	navigation/STIM_004.jpg
1639.988	1.721	correct	navigation	Trial3	navigation/STIM_004.jpg
1644.938	3.73	correct	navigation	Trial3	navigation/STIM_004.jpg
1651.827	3.691	correct	navigation	Trial3	navigation/STIM_005.jpg
1658.259	2.141	correct	navigation	Trial3	navigation/STIM_005.jpg
1662.452	2.444	incorrect	navigation	Trial3	navigation/STIM_005.jpg
1668.338	2.638	incorrect	navigation	Trial3	navigation/STIM_005.jpg
1672.999	3.494	correct	navigation	Trial3	navigation/STIM_005.jpg
1678.804	2.053	correct	navigation	Trial3	navigation/STIM_005.jpg
1682.905	3.068	correct	navigation	Trial3	navigation/STIM_006.jpg
1688.471	1.874	correct	navigation	Trial3	navigation/STIM_006.jpg
1693.644	2.666	correct	navigation	Trial3	navigation/STIM_006.jpg
1699.97	3.206	correct	navigation	Trial3	navigation/STIM_006.jpg
1705.36	2.012	correct	navigation	Trial3	navigation/STIM_006.jpg
1710.375	2.294	correct	navigation	Trial3	navigation/STIM_006.jpg
1715.705	1.618	incorrect	navigation	Trial3	navigation/STIM_007.jpg
1719.365	3.647	correct	navigation	Trial3	navigation/STIM_007.jpg
1726.145	1.953	correct	navigation	Trial3	navigation/STIM_007.jpg
1731.213	2.075	correct	navigation	Trial3	navigation/STIM_007.jpg
1736.135	3.589	correct	navigation	Trial3	navigation/STIM_007.jpg
1743.139	3.667	correct	navigation	Trial3	navigation/STIM_007.jpg
1749.959	3.393	correct	navigation	Trial3	navigation/STIM_008.jpg
1756.972	2.891	correct	navigation	Trial3	navigation/STIM_008.jpg
1763.599	3.476	correct	navigation	Trial3	navigation/STIM_008.jpg
1769.981	2.714	correct	navigation	Trial3	navigation/STIM_008.jpg
1776.438	2.304	correct	navigation	Trial3	navigation/STIM_008.jpg
1781.081	1.679	correct	navigation	Trial3	navigation/STIM_008.jpg
1785.238	2.7	correct	navigation	Trial3	navigation/STIM_009.jpg
1791.798	3.172	correct	navigation	Trial3	navigation/STIM_009.jpg
1797.864	1.637	correct	navigation	Trial3	navigation/STIM_009.jpg
1802.439	3.379	correct	navigation	Trial3	navigation/STIM_009.jpg
1807.997	2.876	correct	navigation	Trial3	navigation/STIM_009.jpg
1814.031	1.542	correct	navigation	Trial3	navigation/STIM_009.jpg
1817.982	3.303	correct	navigation	Trial3	navigation/STIM_010.jpg
1824.068	1.989	correct	navigation	Trial3	navigation/STIM_010.jpg
1828.857	3.126	correct	navigation	Trial3	navigation/STIM_010.jpg
1835.009	2.538	correct	navigation	Trial3	navigation/STIM_010.jpg
1841.214	2.025	incorrect	navigation	Trial3	navigation/STIM_010.jpg
1846.744	2.854	correct	navigation	Trial3	navigation/STIM_010.jpg
1853.327	3.446	incorrect	navigation	Trial3	navigation/STIM_011.jpg
1858.96	3.451	correct	navigation	Trial3	navigation/STIM_011.jpg
1865.453	2.717	correct	navigation	Trial3	navigation/STIM_011.jpg
1871.646	1.62	correct	navigation	Trial3	navigation/STIM_011.jpg
1875.278	2.958	correct	navigation	Trial3	navigation/STIM_011.jpg
1881.376	3.053	correct	navigation	Trial3	navigation/STIM_011.jpg
1887.681	1.191	correct	pointing	Trial3	pointing/STIM_000.jpg
1891.584	1.162	correct	pointing	Trial3	pointing/STIM_000.jpg
1895.449	1.346	correct	pointing	Trial3	pointing/STIM_000.jpg
1899.858	0.889	correct	pointing	Trial3	pointing/STIM_000.jpg
1903.328	0.97	correct	pointing	Trial3	pointing/STIM_000.jpg
1907.091	1.246	correct	pointing	Trial3	pointing/STIM_000.jpg
1911.288	0.931	correct	pointing	Trial3	pointing/STIM_001.jpg
1915.173	1.156	correct	pointing	Trial3	pointing/STIM_001.jpg
1919.359	1.184	correct	pointing	Trial3	pointing/STIM_001.jpg
1922.549	1.461	correct	pointing	Trial3	pointing/STIM_001.jpg
1927.644	1.092	incorrect	pointing	Trial3	pointing/STIM_001.jpg
1931.13	0.967	correct	pointing	Trial3	pointing/STIM_001.jpg
1934.891	1.056	correct	pointing	Trial3	pointing/STIM_002.jpg
1938.487	1.158	correct	pointing	Trial3	pointing/STIM_002.jpg
1942.481	1.273	correct	pointing	Trial3	pointing/STIM_002.jpg
1947.362	1.231	correct	pointing	Trial3	pointing/STIM_002.jpg
1952.246	1.272	correct	pointing	Trial3	pointing/STIM_002.jpg
1956.382	1.521	incorrect	pointing	Trial3	pointing/STIM_002.jpg
1960.317	1.263	correct	pointing	Trial3	pointing/STIM_003.jpg
1964.24	0.962	correct	pointing	Trial3	pointing/STIM_003.jpg
1967.523	1.451	correct	pointing	Trial3	pointing/STIM_003.jpg
1971.386	1.368	correct	pointing	Trial3	pointing/STIM_003.jpg
1975.71	1.272	correct	pointing	Trial3	pointing/STIM_003.jpg
1980.957	0.907	correct	pointing	Trial3	pointing/STIM_003.jpg
1984.618	0.868	correct	pointing	Trial3	pointing/STIM_004.jpg
1987.659	1.402	incorrect	pointing	Trial3	pointing/STIM_004.jpg
1992.481	1.136	correct	pointing	Trial3	pointing/STIM_004.jpg
1996.547	1.482	correct	pointing	Trial3	pointing/STIM_004.jpg
2000.296	1.588	correct	pointing	Trial3	pointing/STIM_004.jpg
2004.494	1.231	correct	pointing	Trial3	pointing/STIM_004.jpg
2009.418	1.178	correct	pointing	Trial3	pointing/STIM_005.jpg
2013.484	1.473	correct	pointing	Trial3	pointing/STIM_005.jpg
2017.555	1.462	correct	pointing	Trial3	pointing/STIM_005.jpg
2022.264	1.044	correct	pointing	Trial3	pointing/STIM_005.jpg
2026.525	1.031	correct	pointing	Trial3	pointing/STIM_005.jpg
2029.913	0.907	correct	pointing	Trial3	pointing/STIM_005.jpg
2034.668	1.085	correct	pointing	Trial3	pointing/STIM_006.jpg
2038.114	1.287	correct	pointing	Trial3	pointing/STIM_006.jpg
2042.845	1.014	correct	pointing	Trial3	pointing/STIM_006.jpg
2047.313	1.333	correct	pointing	Trial3	pointing/STIM_006.jpg
2052.224	1.464	correct	pointing	Trial3	pointing/STIM_006.jpg
2057.607	1.475	correct	pointing	Trial3	pointing/STIM_006.jpg
2062.598	1.174	correct	pointing	Trial3	pointing/STIM_007.jpg
2067.314	1.471	correct	pointing	Trial3	pointing/STIM_007.jpg
2071.548	1.485	correct	pointing	Trial3	pointing/STIM_007.jpg
2075.253	1.117	correct	pointing	Trial3	pointing/STIM_007.jpg
2080.36	1.232	correct	pointing	Trial3	pointing/STIM_007.jpg
2084.044	1.236	correct	pointing	Trial3	pointing/STIM_007.jpg
2088.32	1.209	correct	pointing	Trial3	pointing/STIM_008.jpg
2091.955	1.014	correct	pointing	Trial3	pointing/STIM_008.jpg
2096.554	1.503	correct	pointing	Trial3	pointing/STIM_008.jpg
2100.501	0.969	correct	pointing	Trial3	pointing/STIM_008.jpg
2104.572	1.357	correct	pointing	Trial3	pointing/STIM_008.jpg
2108.372	1.514	correct	pointing	Trial3	pointing/STIM_008.jpg
2113.166	1.489	correct	pointing	Trial3	pointing/STIM_009.jpg
2117.089	1.134	correct	pointing	Trial3	pointing/STIM_009.jpg
2122.013	1.521	correct	pointing	Trial3	pointing/STIM_009.jpg
2126.995	1.23	correct	pointing	Trial3	pointing/STIM_009.jpg
2131.766	1.222	correct	pointing	Trial3	pointing/STIM_009.jpg
2135.059	1.149	correct	pointing	Trial3	pointing/STIM_009.jpg
2138.414	0.866	correct	pointing	Trial3	pointing/STIM_010.jpg
2142.644	1.366	correct	pointing	Trial3	pointing/STIM_010.jpg
2147.94	1.351	correct	pointing	Trial3	pointing/STIM_010.jpg
2151.305	1.568	correct	pointing	Trial3	pointing/STIM_010.jpg
2154.918	1.332	correct	pointing	Trial3	pointing/STIM_010.jpg
2158.406	1.449	correct	pointing	Trial3	pointing/STIM_010.jpg
2162.7	1.284	correct	pointing	Trial3	pointing/STIM_011.jpg
2167.059	0.879	correct	pointing	Trial3	pointing/STIM_011.jpg
2170.695	1.466	correct	pointing	Trial3	pointing/STIM_011.jpg
2174.633	0.908	correct	pointing	Trial3	pointing/STIM_011.jpg
2177.572	1.108	correct	pointing	Trial3	pointing/STIM_011.jpg
2182.038	1.297	correct	pointing	Trial3	pointing/STIM_011.jpg
