onset	duration	accuracy_binary	trial_type	learning_stage	stimulus
0.0	3.304	0	generate	Run1	generate/STIM_000.jpg
6.941	3.173	0	generate	Run1	generate/STIM_000.jpg
13.552	2.692	0	generate	Run1	generate/STIM_000.jpg
19.042	1.318	0	generate	Run1	generate/STIM_000.jpg
22.691	1.819	0	generate	Run1	generate/STIM_000.jpg
26.691	2.516	0	generate	Run1	generate/STIM_001.jpg
32.854	1.676	1	generate	Run1	generate/STIM_001.jpg
37.596	2.317	1	generate	Run1	generate/STIM_001.jpg
43.639	1.284	0	generate	Run1	generate/STIM_001.jpg
47.095	2.451	1	generate	Run1	generate/STIM_001.jpg
52.415	2.528	1	generate	Run1	generate/STIM_002.jpg
58.738	2.499	0	generate	Run1	generate/STIM_002.jpg
65.131	2.707	1	generate	Run1	generate/STIM_002.jpg
70.444	1.202	1	generate	Run1	generate/STIM_002.jpg
74.274	2.719	1	generate	Run1	generate/STIM_002.jpg
80.986	1.501	0	generate	Run1	generate/STIM_003.jpg
85.865	1.758	1	generate	Run1	generate/STIM_003.jpg
91.078	2.456	1	generate	Run1	generate/STIM_003.jpg
96.049	2.387	1	generate	Run1	generate/STIM_003.jpg
102.217	1.681	0	generate	Run1	generate/STIM_003.jpg
107.895	1.628	1	generate	Run1	generate/STIM_004.jpg
111.751	2.314	0	generate	Run1	generate/STIM_004.jpg
116.876	2.947	1	generate	Run1	generate/STIM_004.jpg
122.886	2.178	0	generate	Run1	generate/STIM_004.jpg
129.029	1.211	1	generate	Run1	generate/STIM_004.jpg
132.56	2.89	0	generate	Run1	generate/STIM_005.jpg
138.798	1.42	1	generate	Run1	generate/STIM_005.jpg
142.812	2.034	1	generate	Run1	generate/STIM_005.jpg
148.112	2.822	1	generate	Run1	generate/STIM_005.jpg
153.8	1.279	1	generate	Run1	generate/STIM_005.jpg
158.23	1.821	1	generate	Run1	generate/STIM_006.jpg
163.303	2.503	0	generate	Run1	generate/STIM_006.jpg
169.124	3.04	1	generate	Run1	generate/STIM_006.jpg
175.842	2.893	0	generate	Run1	generate/STIM_006.jpg
181.29	2.32	1	generate	Run1	generate/STIM_006.jpg
186.908	2.099	1	generate	Run1	generate/STIM_007.jpg
192.614	2.132	0	generate	Run1	generate/STIM_007.jpg
197.191	1.367	1	generate	Run1	generate/STIM_007.jpg
202.453	2.045	0	generate	Run1	generate/STIM_007.jpg
208.281	1.503	1	generate	Run1	generate/STIM_007.jpg
212.817	3.383	0	generate	Run1	generate/STIM_008.jpg
218.679	2.931	1	generate	Run1	generate/STIM_008.jpg
224.219	1.929	1	generate	Run1	generate/STIM_008.jpg
228.582	2.46	0	generate	Run1	generate/STIM_008.jpg
234.079	2.354	1	generate	Run1	generate/STIM_008.jpg
238.768	3.122	1	generate	Run1	generate/STIM_009.jpg
245.888	3.234	0	generate	Run1	generate/STIM_009.jpg
251.931	2.848	1	generate	Run1	generate/STIM_009.jpg
258.403	1.85	1	generate	Run1	generate/STIM_009.jpg
262.87	2.552	1	generate	Run1	generate/STIM_009.jpg
269.301	1.907	0	generate	Run1	generate/STIM_010.jpg
274.019	3.123	1	generate	Run1	generate/STIM_010.jpg
279.463	2.978	0	generate	Run1	generate/STIM_010.jpg
285.854	1.23	1	generate	Run1	generate/STIM_010.jpg
290.559	2.084	0	generate	Run1	generate/STIM_010.jpg
295.546	1.598	0	generate	Run1	generate/STIM_011.jpg
301.06	1.464	0	generate	Run1	generate/STIM_011.jpg
305.784	2.188	1	generate	Run1	generate/STIM_011.jpg
310.066	2.675	1	generate	Run1	generate/STIM_011.jpg
316.216	1.568	1	generate	Run1	generate/STIM_011.jpg
320.66	3.381	0	generate	Run1	generate/STIM_012.jpg
327.563	1.875	1	generate	Run1	generate/STIM_012.jpg
332.914	2.75	1	generate	Run1	generate/STIM_012.jpg
337.692	1.359	0	generate	Run1	generate/STIM_012.jpg
341.637	2.254	1	generate	Run1	generate/STIM_012.jpg
346.752	2.042	1	generate	Run1	generate/STIM_013.jpg
352.285	2.984	1	generate	Run1	generate/STIM_013.jpg
359.262	2.535	1	generate	Run1	generate/STIM_013.jpg
364.676	2.309	1	generate	Run1	generate/STIM_013.jpg
370.325	1.42	1	generate	Run1	generate/STIM_013.jpg
374.488	3.237	1	generate	Run1	generate/STIM_014.jpg
380.078	1.439	1	generate	Run1	generate/STIM_014.jpg
384.312	1.727	0	generate	Run1	generate/STIM_014.jpg
389.446	1.543	1	generate	Run1	generate/STIM_014.jpg
394.026	1.308	0	generate	Run1	generate/STIM_014.jpg
398.191	3.394	1	generate	Run1	generate/STIM_015.jpg
403.64	3.237	0	generate	Run1	generate/STIM_015.jpg
409.174	2.813	1	generate	Run1	generate/STIM_015.jpg
415.244	2.87	0	generate	Run1	generate/STIM_015.jpg
420.22	1.744	1	generate	Run1	generate/STIM_015.jpg
425.538	2.715	0	generate	Run1	generate/STIM_016.jpg
430.652	1.779	1	generate	Run1	generate/STIM_016.jpg
436.281	1.924	1	generate	Run1	generate/STIM_016.jpg
441.722	2.743	1	generate	Run1	generate/STIM_016.jpg
446.656	2.188	0	generate	Run1	generate/STIM_016.jpg
451.785	2.136	1	generate	Run1	generate/STIM_017.jpg
456.256	3.248	0	generate	Run1	generate/STIM_017.jpg
463.422	1.884	0	generate	Run1	generate/STIM_017.jpg
469.006	1.251	0	generate	Run1	generate/STIM_017.jpg
473.71	1.537	1	generate	Run1	generate/STIM_017.jpg
478.173	2.788	1	generate	Run1	generate/STIM_018.jpg
483.825	3.15	0	generate	Run1	generate/STIM_018.jpg
489.935	1.634	1	generate	Run1	generate/STIM_018.jpg
494.553	2.589	0	generate	Run1	generate/STIM_018.jpg
499.461	1.734	0	generate	Run1	generate/STIM_018.jpg
503.43	3.08	1	generate	Run1	generate/STIM_019.jpg
508.991	1.954	0	generate	Run1	generate/STIM_019.jpg
514.401	1.68	1	generate	Run1	generate/STIM_019.jpg
518.201	2.814	1	generate	Run1	generate/STIM_019.jpg
524.996	1.344	0	generate	Run1	generate/STIM_019.jpg
529.398	2.258	1	generate	Run1	generate/STIM_020.jpg
534.579	2.517	1	generate	Run1	generate/STIM_020.jpg
540.075	2.862	1	generate	Run1	generate/STIM_020.jpg
545.435	1.436	1	generate	Run1	generate/STIM_020.jpg
548.916	1.327	1	generate	Run1	generate/STIM_020.jpg
553.838	1.415	1	generate	Run1	generate/STIM_021.jpg
558.2	1.921	0	generate	Run1	generate/STIM_021.jpg
562.563	1.459	1	generate	Run1	generate/STIM_021.jpg
566.257	1.779	1	generate	Run1	generate/STIM_021.jpg
571.905	1.265	1	generate	Run1	generate/STIM_021.jpg
576.493	1.945	1	generate	Run1	generate/STIM_022.jpg
581.281	1.818	1	generate	Run1	generate/STIM_022.jpg
585.549	2.523	1	generate	Run1	generate/STIM_022.jpg
591.779	2.447	1	generate	Run1	generate/STIM_022.jpg
596.448	1.413	0	generate	Run1	generate/STIM_022.jpg
600.45	2.548	1	generate	Run1	generate/STIM_023.jpg
605.145	3.262	1	generate	Run1	generate/STIM_023.jpg
610.946	1.949	1	generate	Run1	generate/STIM_023.jpg
616.752	2.152	1	generate	Run1	generate/STIM_023.jpg
622.841	2.369	1	generate	Run1	generate/STIM_023.jpg
627.368	2.599	0	generate	Run1	generate/STIM_024.jpg
632.399	2.428	1	generate	Run1	generate/STIM_024.jpg
638.094	3.069	0	generate	Run1	generate/STIM_024.jpg
643.289	1.352	1	generate	Run1	generate/STIM_024.jpg
647.359	1.923	1	generate	Run1	generate/STIM_024.jpg
652.282	1.109	1	repeat	Run1	repeat/STIM_000.jpg
655.437	0.835	1	repeat	Run1	repeat/STIM_000.jpg
659.667	1.024	1	repeat	Run1	repeat/STIM_000.jpg
662.825	0.78	1	repeat	Run1	repeat/STIM_000.jpg
666.011	0.951	1	repeat	Run1	repeat/STIM_000.jpg
669.522	1.144	0	repeat	Run1	repeat/STIM_001.jpg
673.73	0.636	1	repeat	Run1	repeat/STIM_001.jpg
677.053	1.157	1	repeat	Run1	repeat/STIM_001.jpg
681.976	0.829	1	repeat	Run1	repeat/STIM_001.jpg
686.137	0.779	1	repeat	Run1	repeat/STIM_001.jpg
689.362	0.618	1	repeat	Run1	repeat/STIM_002.jpg
693.739	0.698	1	repeat	Run1	repeat/STIM_002.jpg
697.683	1.086	1	repeat	Run1	repeat/STIM_002.jpg
700.979	1.114	0	repeat	Run1	repeat/STIM_002.jpg
705.243	0.946	1	repeat	Run1	repeat/STIM_002.jpg
709.942	1.116	1	repeat	Run1	repeat/STIM_003.jpg
713.135	0.741	1	repeat	Run1	repeat/STIM_003.jpg
717.14	1.057	1	repeat	Run1	repeat/STIM_003.jpg
722.169	1.12	1	repeat	Run1	repeat/STIM_003.jpg
726.42	0.757	1	repeat	Run1	repeat/STIM_003.jpg
730.693	0.773	1	repeat	Run1	repeat/STIM_004.jpg
733.866	0.918	0	repeat	Run1	repeat/STIM_004.jpg
737.005	1.147	0	repeat	Run1	repeat/STIM_004.jpg
740.215	0.98	1	repeat	Run1	repeat/STIM_004.jpg
744.455	1.102	1	repeat	Run1	repeat/STIM_004.jpg
749.044	0.97	1	repeat	Run1	repeat/STIM_005.jpg
752.603	0.583	1	repeat	Run1	repeat/STIM_005.jpg
755.968	0.665	1	repeat	Run1	repeat/STIM_005.jpg
759.023	0.63	1	repeat	Run1	repeat/STIM_005.jpg
762.595	0.622	0	repeat	Run1	repeat/STIM_005.jpg
767.182	0.887	1	repeat	Run1	repeat/STIM_006.jpg
771.008	0.763	1	repeat	Run1	repeat/STIM_006.jpg
774.732	0.775	1	repeat	Run1	repeat/STIM_006.jpg
778.94	0.77	0	repeat	Run1	repeat/STIM_006.jpg
783.491	0.622	1	repeat	Run1	repeat/STIM_006.jpg
787.683	0.895	1	repeat	Run1	repeat/STIM_007.jpg
791.759	0.959	1	repeat	Run1	repeat/STIM_007.jpg
796.193	0.961	1	repeat	Run1	repeat/STIM_007.jpg
801.005	0.832	1	repeat	Run1	repeat/STIM_007.jpg
803.997	1.149	0	repeat	Run1	repeat/STIM_007.jpg
807.543	0.709	1	repeat	Run1	repeat/STIM_008.jpg
811.353	0.632	1	repeat	Run1	repeat/STIM_008.jpg
815.954	0.688	1	repeat	Run1	repeat/STIM_008.jpg
819.929	0.793	0	repeat	Run1	repeat/STIM_008.jpg
823.716	1.065	1	repeat	Run1	repeat/STIM_008.jpg
827.118	0.584	1	repeat	Run1	repeat/STIM_009.jpg
830.096	1.064	0	repeat	Run1	repeat/STIM_009.jpg
834.934	1.05	0	repeat	Run1	repeat/STIM_009.jpg
839.3	0.633	1	repeat	Run1	repeat/STIM_009.jpg
842.245	0.75	1	repeat	Run1	repeat/STIM_009.jpg
845.19	1.058	1	repeat	Run1	repeat/STIM_010.jpg
849.028	0.915	0	repeat	Run1	repeat/STIM_010.jpg
852.524	0.906	0	repeat	Run1	repeat/STIM_010.jpg
856.886	1.088	1	repeat	Run1	repeat/STIM_010.jpg
860.133	0.823	1	repeat	Run1	repeat/STIM_010.jpg
863.499	0.781	1	repeat	Run1	repeat/STIM_011.jpg
866.794	1.005	1	repeat	Run1	repeat/STIM_011.jpg
871.682	0.671	1	repeat	Run1	repeat/STIM_011.jpg
876.274	0.975	0	repeat	Run1	repeat/STIM_011.jpg
879.261	1.003	1	repeat	Run1	repeat/STIM_011.jpg
883.233	0.949	1	repeat	Run1	repeat/STIM_012.jpg
887.853	0.754	1	repeat	Run1	repeat/STIM_012.jpg
891.443	0.995	1	repeat	Run1	repeat/STIM_012.jpg
896.389	0.591	1	repeat	Run1	repeat/STIM_012.jpg
899.888	0.712	1	repeat	Run1	repeat/STIM_012.jpg
902.688	0.627	1	repeat	Run1	repeat/STIM_013.jpg
905.76	0.898	0	repeat	Run1	repeat/STIM_013.jpg
910.225	1.082	1	repeat	Run1	repeat/STIM_013.jpg
913.535	0.861	1	repeat	Run1	repeat/STIM_013.jpg
916.644	1.088	0	repeat	Run1	repeat/STIM_013.jpg
921.129	0.823	1	repeat	Run1	repeat/STIM_014.jpg
925.94	0.881	1	repeat	Run1	repeat/STIM_014.jpg
930.109	0.905	1	repeat	Run1	repeat/STIM_014.jpg
934.186	0.806	1	repeat	Run1	repeat/STIM_014.jpg
938.224	0.944	1	repeat	Run1	repeat/STIM_014.jpg
941.434	2.781	1	generate	Run2	generate/STIM_000.jpg
946.691	1.832	0	generate	Run2	generate/STIM_000.jpg
952.15	1.865	1	generate	Run2	generate/STIM_000.jpg
957.975	1.017	1	generate	Run2	generate/STIM_000.jpg
962.499	1.67	1	generate	Run2	generate/STIM_000.jpg
967.772	2.502	1	generate	Run2	generate/STIM_001.jpg
973.771	2.211	1	generate	Run2	generate/STIM_001.jpg
979.241	1.13	0	generate	Run2	generate/STIM_001.jpg
984.276	1.739	1	generate	Run2	generate/STIM_001.jpg
989.91	2.408	1	generate	Run2	generate/STIM_001.jpg
996.039	2.663	1	generate	Run2	generate/STIM_002.jpg
1001.673	1.441	0	generate	Run2	generate/STIM_002.jpg
1006.623	2.018	0	generate	Run2	generate/STIM_002.jpg
1011.803	1.71	1	generate	Run2	generate/STIM_002.jpg
1016.825	1.637	0	generate	Run2	generate/STIM_002.jpg
1020.505	1.496	1	generate	Run2	generate/STIM_003.jpg
1024.25	2.162	0	generate	Run2	generate/STIM_003.jpg
1030.249	1.791	1	generate	Run2	generate/STIM_003.jpg
1035.117	1.142	1	generate	Run2	generate/STIM_003.jpg
1038.728	2.212	0	generate	Run2	generate/STIM_003.jpg
1043.56	2.0	0	generate	Run2	generate/STIM_004.jpg
1049.117	2.027	1	generate	Run2	generate/STIM_004.jpg
1053.416	2.356	1	generate	Run2	generate/STIM_004.jpg
1058.327	1.023	0	generate	Run2	generate/STIM_004.jpg
1063.178	1.464	0	generate	Run2	generate/STIM_004.jpg
1068.022	2.704	1	generate	Run2	generate/STIM_005.jpg
1072.888	2.719	1	generate	Run2	generate/STIM_005.jpg
1077.896	1.254	1	generate	Run2	generate/STIM_005.jpg
1083.075	2.205	1	generate	Run2	generate/STIM_005.jpg
1088.01	0.989	0	generate	Run2	generate/STIM_005.jpg
1092.313	1.442	1	generate	Run2	generate/STIM_006.jpg
1097.451	1.577	1	generate	Run2	generate/STIM_006.jpg
1101.676	1.624	1	generate	Run2	generate/STIM_006.jpg
1105.787	1.013	1	generate	Run2	generate/STIM_006.jpg
1109.218	1.929	1	generate	Run2	generate/STIM_006.jpg
1114.013	2.955	0	generate	Run2	generate/STIM_007.jpg
1120.798	1.502	1	generate	Run2	generate/STIM_007.jpg
1124.717	1.429	1	generate	Run2	generate/STIM_007.jpg
1129.212	1.469	0	generate	Run2	generate/STIM_007.jpg
1134.19	1.976	1	generate	Run2	generate/STIM_007.jpg
1138.3	1.781	1	generate	Run2	generate/STIM_008.jpg
1143.368	2.6	1	generate	Run2	generate/STIM_008.jpg
1149.084	2.259	1	generate	Run2	generate/STIM_008.jpg
1153.516	1.517	1	generate	Run2	generate/STIM_008.jpg
1157.202	2.354	1	generate	Run2	generate/STIM_008.jpg
1162.305	2.568	1	generate	Run2	generate/STIM_009.jpg
1167.032	2.567	1	generate	Run2	generate/STIM_009.jpg
1173.546	1.296	1	generate	Run2	generate/STIM_009.jpg
1178.387	1.881	1	generate	Run2	generate/STIM_009.jpg
1182.648	2.178	1	generate	Run2	generate/STIM_009.jpg
1188.343	1.961	1	generate	Run2	generate/STIM_010.jpg
1193.17	1.512	0	generate	Run2	generate/STIM_010.jpg
1198.273	2.004	1	generate	Run2	generate/STIM_010.jpg
1203.055	1.597	1	generate	Run2	generate/STIM_010.jpg
1207.401	1.052	1	generate	Run2	generate/STIM_010.jpg
1211.514	2.597	1	generate	Run2	generate/STIM_011.jpg
1216.846	2.024	1	generate	Run2	generate/STIM_011.jpg
1221.728	1.538	1	generate	Run2	generate/STIM_011.jpg
1225.267	2.267	1	generate	Run2	generate/STIM_011.jpg
1229.853	1.427	1	generate	Run2	generate/STIM_011.jpg
1233.896	2.655	0	generate	Run2	generate/STIM_012.jpg
1239.198	1.479	1	generate	Run2	generate/STIM_012.jpg
1243.473	1.841	0	generate	Run2	generate/STIM_012.jpg
1248.186	1.865	1	generate	Run2	generate/STIM_012.jpg
1252.146	1.593	1	generate	Run2	generate/STIM_012.jpg
1257.366	2.217	1	generate	Run2	generate/STIM_013.jpg
1261.994	1.288	1	generate	Run2	generate/STIM_013.jpg
1265.512	1.585	0	generate	Run2	generate/STIM_013.jpg
1269.19	1.866	0	generate	Run2	generate/STIM_013.jpg
1274.782	1.653	0	generate	Run2	generate/STIM_013.jpg
1279.143	1.206	1	generate	Run2	generate/STIM_014.jpg
1283.826	1.145	1	generate	Run2	generate/STIM_014.jpg
1287.768	1.276	1	generate	Run2	generate/STIM_014.jpg
1291.858	1.578	1	generate	Run2	generate/STIM_014.jpg
1297.379	1.903	1	generate	Run2	generate/STIM_014.jpg
1303.085	1.992	0	generate	Run2	generate/STIM_015.jpg
1307.864	2.271	1	generate	Run2	generate/STIM_015.jpg
1312.812	1.879	1	generate	Run2	generate/STIM_015.jpg
1318.399	1.303	1	generate	Run2	generate/STIM_015.jpg
1323.558	1.701	0	generate	Run2	generate/STIM_015.jpg
1328.089	1.531	0	generate	Run2	generate/STIM_016.jpg
1331.73	1.622	1	generate	Run2	generate/STIM_016.jpg
1336.732	2.519	1	generate	Run2	generate/STIM_016.jpg
1342.108	1.939	0	generate	Run2	generate/STIM_016.jpg
1347.835	1.744	1	generate	Run2	generate/STIM_016.jpg
1352.667	2.819	1	generate	Run2	generate/STIM_017.jpg
1357.569	2.649	1	generate	Run2	generate/STIM_017.jpg
1363.785	1.654	1	generate	Run2	generate/STIM_017.jpg
1368.63	2.009	1	generate	Run2	generate/STIM_017.jpg
1373.059	1.101	1	generate	Run2	generate/STIM_017.jpg
1377.678	2.442	1	generate	Run2	generate/STIM_018.jpg
1383.159	2.638	1	generate	Run2	generate/STIM_018.jpg
1388.674	2.26	0	generate	Run2	generate/STIM_018.jpg
1394.024	1.252	1	generate	Run2	generate/STIM_018.jpg
1397.441	1.159	1	generate	Run2	generate/STIM_018.jpg
1400.858	2.641	0	generate	Run2	generate/STIM_019.jpg
1406.433	1.223	1	generate	Run2	generate/STIM_019.jpg
1410.269	2.507	1	generate	Run2	generate/STIM_019.jpg
1414.938	1.994	1	generate	Run2	generate/STIM_019.jpg
1419.583	1.603	0	generate	Run2	generate/STIM_019.jpg
1424.82	1.896	0	generate	Run2	generate/STIM_020.jpg
1429.823	2.428	0	generate	Run2	generate/STIM_020.jpg
1435.445	1.15	0	generate	Run2	generate/STIM_020.jpg
1440.137	1.492	1	generate	Run2	generate/STIM_020.jpg
1444.113	1.959	1	generate	Run2	generate/STIM_020.jpg
1448.811	1.512	0	generate	Run2	generate/STIM_021.jpg
1453.663	2.345	1	generate	Run2	generate/STIM_021.jpg
1458.068	1.337	1	generate	Run2	generate/STIM_021.jpg
1462.208	1.097	1	generate	Run2	generate/STIM_021.jpg
1467.152	2.071	1	generate	Run2	generate/STIM_021.jpg
1472.579	2.298	1	generate	Run2	generate/STIM_022.jpg
1478.251	1.567	0	generate	Run2	generate/STIM_022.jpg
1483.383	1.38	1	generate	Run2	generate/STIM_022.jpg
1488.146	2.312	1	generate	Run2	generate/STIM_022.jpg
1493.405	2.076	1	generate	Run2	generate/STIM_022.jpg
1498.168	1.915	1	generate	Run2	generate/STIM_023.jpg
1503.081	2.434	1	generate	Run2	generate/STIM_023.jpg
1508.472	2.27	1	generate	Run2	generate/STIM_023.jpg
1513.155	1.191	1	generate	Run2	generate/STIM_023.jpg
1518.008	1.409	1	generate	Run2	generate/STIM_023.jpg
1522.614	2.372	0	generate	Run2	generate/STIM_024.jpg
1528.944	2.552	1	generate	Run2	generate/STIM_024.jpg
1533.784	2.098	0	generate	Run2	generate/STIM_024.jpg
1539.532	1.915	1	generate	Run2	generate/STIM_024.jpg
1543.529	1.351	1	generate	Run2	generate/STIM_024.jpg
1547.875	0.638	0	repeat	Run2	repeat/STIM_000.jpg
1551.212	1.046	0	repeat	Run2	repeat/STIM_000.jpg
1555.127	0.953	1	repeat	Run2	repeat/STIM_000.jpg
1559.153	0.944	1	repeat	Run2	repeat/STIM_000.jpg
1563.615	1.135	0	repeat	Run2	repeat/STIM_000.jpg
1568.19	0.682	1	repeat	Run2	repeat/STIM_001.jpg
1572.52	0.923	1	repeat	Run2	repeat/STIM_001.jpg
1576.511	1.0	1	repeat	Run2	repeat/STIM_001.jpg
1580.331	0.901	1	repeat	Run2	repeat/STIM_001.jpg
1584.651	0.937	1	repeat	Run2	repeat/STIM_001.jpg
1588.017	1.047	1	repeat	Run2	repeat/STIM_002.jpg
1592.785	0.608	1	repeat	Run2	repeat/STIM_002.jpg
1596.099	0.666	1	repeat	Run2	repeat/STIM_002.jpg
1599.826	0.615	0	repeat	Run2	repeat/STIM_002.jpg
1603.791	1.058	0	repeat	Run2	repeat/STIM_002.jpg
1608.777	0.8	1	repeat	Run2	repeat/STIM_003.jpg
1611.699	1.036	1	repeat	Run2	repeat/STIM_003.jpg
1616.223	0.969	0	repeat	Run2	repeat/STIM_003.jpg
1619.981	0.888	1	repeat	Run2	repeat/STIM_003.jpg
1624.706	1.119	1	repeat	Run2	repeat/STIM_003.jpg
1629.507	0.583	1	repeat	Run2	repeat/STIM_004.jpg
1632.236	0.852	1	repeat	Run2	repeat/STIM_004.jpg
1635.575	1.016	1	repeat	Run2	repeat/STIM_004.jpg
1639.578	0.613	1	repeat	Run2	repeat/STIM_004.jpg
1642.55	0.712	1	repeat	Run2	repeat/STIM_004.jpg
1645.265	0.782	0	repeat	Run2	repeat/STIM_005.jpg
1649.482	0.772	1	repeat	Run2	repeat/STIM_005.jpg
1652.547	0.735	1	repeat	Run2	repeat/STIM_005.jpg
1656.384	1.014	1	repeat	Run2	repeat/STIM_005.jpg
1660.277	0.891	1	repeat	Run2	repeat/STIM_005.jpg
1664.65	0.858	1	repeat	Run2	repeat/STIM_006.jpg
1668.178	0.643	0	repeat	Run2	repeat/STIM_006.jpg
1672.426	0.637	1	repeat	Run2	repeat/STIM_006.jpg
1675.212	0.696	1	repeat	Run2	repeat/STIM_006.jpg
1678.171	0.642	1	repeat	Run2	repeat/STIM_006.jpg
1680.986	1.135	1	repeat	Run2	repeat/STIM_007.jpg
1684.403	0.788	0	repeat	Run2	repeat/STIM_007.jpg
1687.41	0.929	0	repeat	Run2	repeat/STIM_007.jpg
1690.945	0.715	1	repeat	Run2	repeat/STIM_007.jpg
1695.151	0.814	1	repeat	Run2	repeat/STIM_007.jpg
1699.037	0.951	0	repeat	Run2	repeat/STIM_008.jpg
1703.243	1.082	1	repeat	Run2	repeat/STIM_008.jpg
1708.229	1.095	1	repeat	Run2	repeat/STIM_008.jpg
1712.343	0.976	1	repeat	Run2	repeat/STIM_008.jpg
1717.105	0.718	1	repeat	Run2	repeat/STIM_008.jpg
1720.504	0.86	0	repeat	Run2	repeat/STIM_009.jpg
1724.614	0.943	1	repeat	Run2	repeat/STIM_009.jpg
1728.526	0.984	1	repeat	Run2	repeat/STIM_009.jpg
1732.556	0.89	0	repeat	Run2	repeat/STIM_009.jpg
1736.028	1.134	1	repeat	Run2	repeat/STIM_009.jpg
1740.927	0.766	1	repeat	Run2	repeat/STIM_010.jpg
1744.641	1.116	1	repeat	Run2	repeat/STIM_010.jpg
1749.278	0.587	1	repeat	Run2	repeat/STIM_010.jpg
1753.805	0.801	1	repeat	Run2	repeat/STIM_010.jpg
1758.53	0.609	1	repeat	Run2	repeat/STIM_010.jpg
1762.064	0.964	1	repeat	Run2	repeat/STIM_011.jpg
1765.99	0.624	1	repeat	Run2	repeat/STIM_011.jpg
1769.783	0.658	1	repeat	Run2	repeat/STIM_011.jpg
1774.172	1.062	1	repeat	Run2	repeat/STIM_011.jpg
1778.101	0.605	1	repeat	Run2	repeat/STIM_011.jpg
1781.234	0.993	0	repeat	Run2	repeat/STIM_012.jpg
1785.036	0.723	1	repeat	Run2	repeat/STIM_012.jpg
1788.944	0.851	1	repeat	Run2	repeat/STIM_012.jpg
1792.399	0.895	0	repeat	Run2	repeat/STIM_012.jpg
1796.377	1.006	1	repeat	Run2	repeat/STIM_012.jpg
1799.691	0.662	1	repeat	Run2	repeat/STIM_013.jpg
1803.133	0.618	0	repeat	Run2	repeat/STIM_013.jpg
1806.749	0.983	1	repeat	Run2	repeat/STIM_013.jpg
1810.197	0.973	1	repeat	Run2	repeat/STIM_013.jpg
1814.281	1.074	1	repeat	Run2	repeat/STIM_013.jpg
1818.604	0.959	1	repeat	Run2	repeat/STIM_014.jpg
1822.504	0.849	1	repeat	Run2	repeat/STIM_014.jpg
1826.018	0.741	0	repeat	Run2	repeat/STIM_014.jpg
1830.614	1.114	1	repeat	Run2	repeat/STIM_014.jpg
1835.203	0.827	1	repeat	Run2	repeat/STIM_014.jpg
1839.791	2.389	0	generate	Run3	generate/STIM_000.jpg
1844.503	1.031	1	generate	Run3	generate/STIM_000.jpg
1847.809	2.12	1	generate	Run3	generate/STIM_000.jpg
1852.89	1.884	0	generate	Run3	generate/STIM_000.jpg
1858.113	1.8	1	generate	Run3	generate/STIM_000.jpg
1863.842	1.266	0	generate	Run3	generate/STIM_001.jpg
1868.279	2.131	1	generate	Run3	generate/STIM_001.jpg
1872.944	2.268	1	generate	Run3	generate/STIM_001.jpg
1878.557	1.732	1	generate	Run3	generate/STIM_001.jpg
1883.374	1.17	1	generate	Run3	generate/STIM_001.jpg
1888.445	1.976	1	generate	Run3	generate/STIM_002.jpg
1893.251	1.733	1	generate	Run3	generate/STIM_002.jpg
1898.195	1.562	1	generate	Run3	generate/STIM_002.jpg
1902.804	2.348	1	generate	Run3	generate/STIM_002.jpg
1908.114	2.178	1	generate	Run3	generate/STIM_002.jpg
1913.355	2.096	1	generate	Run3	generate/STIM_003.jpg
1918.489	1.467	1	generate	Run3	generate/STIM_003.jpg
1922.585	2.065	1	generate	Run3	generate/STIM_003.jpg
1928.012	2.089	1	generate	Run3	generate/STIM_003.jpg
1933.456	1.916	1	generate	Run3	generate/STIM_003.jpg
1938.322	1.314	1	generate	Run3	generate/STIM_004.jpg
1943.229	1.336	0	generate	Run3	generate/STIM_004.jpg
1947.691	1.618	1	generate	Run3	generate/STIM_004.jpg
1952.51	1.01	1	generate	Run3	generate/STIM_004.jpg
1957.123	2.033	1	generate	Run3	generate/STIM_004.jpg
1962.802	1.125	1	generate	Run3	generate/STIM_005.jpg
1967.253	1.142	1	generate	Run3	generate/STIM_005.jpg
1971.894	1.425	1	generate	Run3	generate/STIM_005.jpg
1976.092	2.43	1	generate	Run3	generate/STIM_005.jpg
1981.78	2.301	0	generate	Run3	generate/STIM_005.jpg
1986.854	1.871	0	generate	Run3	generate/STIM_006.jpg
1991.468	1.963	1	generate	Run3	generate/STIM_006.jpg
1996.343	2.345	0	generate	Run3	generate/STIM_006.jpg
2002.224	2.131	1	generate	Run3	generate/STIM_006.jpg
2007.575	2.055	1	generate	Run3	generate/STIM_006.jpg
2012.243	2.014	1	generate	Run3	generate/STIM_007.jpg
2017.058	1.276	0	generate	Run3	generate/STIM_007.jpg
2020.982	1.994	1	generate	Run3	generate/STIM_007.jpg
2025.865	1.421	1	generate	Run3	generate/STIM_007.jpg
2029.856	1.62	0	generate	Run3	generate/STIM_007.jpg
2035.057	1.218	1	generate	Run3	generate/STIM_008.jpg
2038.864	2.226	0	generate	Run3	generate/STIM_008.jpg
2043.66	1.071	1	generate	Run3	generate/STIM_008.jpg
2048.29	1.906	1	generate	Run3	generate/STIM_008.jpg
2053.058	1.609	1	generate	Run3	generate/STIM_008.jpg
2057.255	1.286	1	generate	Run3	generate/STIM_009.jpg
2060.82	1.412	1	generate	Run3	generate/STIM_009.jpg
2064.964	2.374	1	generate	Run3	generate/STIM_009.jpg
2070.377	1.996	1	generate	Run3	generate/STIM_009.jpg
2075.837	2.343	0	generate	Run3	generate/STIM_009.jpg
2080.203	1.672	1	generate	Run3	generate/STIM_010.jpg
2084.741	2.162	1	generate	Run3	generate/STIM_010.jpg
2088.914	1.075	0	generate	Run3	generate/STIM_010.jpg
2093.408	2.412	1	generate	Run3	generate/STIM_010.jpg
2098.923	1.26	1	generate	Run3	generate/STIM_010.jpg
2102.871	2.149	1	generate	Run3	generate/STIM_011.jpg
2108.248	1.583	1	generate	Run3	generate/STIM_011.jpg
2113.616	1.07	1	generate	Run3	generate/STIM_011.jpg
2117.991	1.392	1	generate	Run3	generate/STIM_011.jpg
2123.278	2.237	1	generate	Run3	generate/STIM_011.jpg
2127.566	1.741	1	generate	Run3	generate/STIM_012.jpg
2132.12	2.203	1	generate	Run3	generate/STIM_012.jpg
2137.26	1.633	1	generate	Run3	generate/STIM_012.jpg
2142.256	1.662	1	generate	Run3	generate/STIM_012.jpg
2147.683	1.53	1	generate	Run3	generate/STIM_012.jpg
2152.045	1.79	1	generate	Run3	generate/STIM_013.jpg
2157.121	2.281	1	generate	Run3	generate/STIM_013.jpg
2161.873	1.223	1	generate	Run3	generate/STIM_013.jpg
2166.657	2.031	0	generate	Run3	generate/STIM_013.jpg
2170.908	0.999	1	generate	Run3	generate/STIM_013.jpg
2174.503	1.546	1	generate	Run3	generate/STIM_014.jpg
2179.536	1.827	1	generate	Run3	generate/STIM_014.jpg
2185.017	1.983	1	generate	Run3	generate/STIM_014.jpg
2190.634	1.736	1	generate	Run3	generate/STIM_014.jpg
2195.489	1.095	1	generate	Run3	generate/STIM_014.jpg
2198.737	2.201	1	generate	Run3	generate/STIM_015.jpg
2204.628	1.765	1	generate	Run3	generate/STIM_015.jpg
2209.541	2.202	1	generate	Run3	generate/STIM_015.jpg
2215.193	1.967	1	generate	Run3	generate/STIM_015.jpg
2220.188	1.007	1	generate	Run3	generate/STIM_015.jpg
2224.058	1.082	1	generate	Run3	generate/STIM_016.jpg
2227.523	2.025	1	generate	Run3	generate/STIM_016.jpg
2232.759	2.161	0	generate	Run3	generate/STIM_016.jpg
2238.048	1.288	1	generate	Run3	generate/STIM_016.jpg
2242.83	1.208	1	generate	Run3	generate/STIM_016.jpg
2247.521	1.149	1	generate	Run3	generate/STIM_017.jpg
2250.762	2.343	1	generate	Run3	generate/STIM_017.jpg
2255.32	1.525	0	generate	Run3	generate/STIM_017.jpg
2259.482	1.237	1	generate	Run3	generate/STIM_017.jpg
2263.907	2.372	1	generate	Run3	generate/STIM_017.jpg
2269.638	2.183	1	generate	Run3	generate/STIM_018.jpg
2273.859	2.031	1	generate	Run3	generate/STIM_018.jpg
2277.902	1.855	0	generate	Run3	generate/STIM_018.jpg
2283.461	2.235	1	generate	Run3	generate/STIM_018.jpg
2289.121	1.173	1	generate	Run3	generate/STIM_018.jpg
2293.308	1.558	1	generate	Run3	generate/STIM_019.jpg
2298.157	1.08	1	generate	Run3	generate/STIM_019.jpg
2302.885	1.978	1	generate	Run3	generate/STIM_019.jpg
2308.725	2.299	1	generate	Run3	generate/STIM_019.jpg
2313.671	1.919	1	generate	Run3	generate/STIM_019.jpg
2319.532	2.423	1	generate	Run3	generate/STIM_020.jpg
2324.509	1.978	1	generate	Run3	generate/STIM_020.jpg
2329.1	1.88	1	generate	Run3	generate/STIM_020.jpg
2334.83	2.089	0	generate	Run3	generate/STIM_020.jpg
2340.511	2.124	1	generate	Run3	generate/STIM_020.jpg
2345.82	2.168	1	generate	Run3	generate/STIM_021.jpg
2350.155	1.308	1	generate	Run3	generate/STIM_021.jpg
2354.261	0.984	1	generate	Run3	generate/STIM_021.jpg
2358.993	1.181	1	generate	Run3	generate/STIM_021.jpg
2364.006	1.776	1	generate	Run3	generate/STIM_021.jpg
2368.322	1.166	1	generate	Run3	generate/STIM_022.jpg
2373.062	2.28	1	generate	Run3	generate/STIM_022.jpg
2378.246	1.859	1	generate	Run3	generate/STIM_022.jpg
2384.1	1.548	1	generate	Run3	generate/STIM_022.jpg
2389.602	2.079	1	generate	Run3	generate/STIM_022.jpg
2395.223	2.012	1	generate	Run3	generate/STIM_023.jpg
2400.022	1.568	1	generate	Run3	generate/STIM_023.jpg
2404.424	1.285	1	generate	Run3	generate/STIM_023.jpg
2408.534	1.304	1	generate	Run3	generate/STIM_023.jpg
2412.296	2.426	1	generate	Run3	generate/STIM_023.jpg
2417.462	2.121	0	generate	Run3	generate/STIM_024.jpg
2421.961	1.492	1	generate	Run3	generate/STIM_024.jpg
2426.759	1.676	1	generate	Run3	generate/STIM_024.jpg
2432.05	0.989	1	generate	Run3	generate/STIM_024.jpg
2436.887	2.214	1	generate	Run3	generate/STIM_024.jpg
2442.919	0.682	1	repeat	Run3	repeat/STIM_000.jpg
2446.438	1.097	1	repeat	Run3	repeat/STIM_000.jpg
2450.672	0.762	1	repeat	Run3	repeat/STIM_000.jpg
2454.521	0.586	1	repeat	Run3	repeat/STIM_000.jpg
2457.6	0.797	1	repeat	Run3	repeat/STIM_000.jpg
2461.387	0.805	1	repeat	Run3	repeat/STIM_001.jpg
2465.475	0.736	1	repeat	Run3	repeat/STIM_001.jpg
2469.272	1.095	1	repeat	Run3	repeat/STIM_001.jpg
2473.135	0.617	1	repeat	Run3	repeat/STIM_001.jpg
2476.603	0.836	1	repeat	Run3	repeat/STIM_001.jpg
2479.656	0.961	0	repeat	Run3	repeat/STIM_002.jpg
2483.835	1.063	1	repeat	Run3	repeat/STIM_002.jpg
2487.3	0.987	1	repeat	Run3	repeat/STIM_002.jpg
2491.578	0.797	1	repeat	Run3	repeat/STIM_002.jpg
2496.229	0.92	1	repeat	Run3	repeat/STIM_002.jpg
2500.485	0.899	1	repeat	Run3	repeat/STIM_003.jpg
2504.698	0.708	1	repeat	Run3	repeat/STIM_003.jpg
2508.273	0.923	0	repeat	Run3	repeat/STIM_003.jpg
2512.546	0.758	1	repeat	Run3	repeat/STIM_003.jpg
2515.306	0.695	1	repeat	Run3	repeat/STIM_003.jpg
2518.632	1.032	1	repeat	Run3	repeat/STIM_004.jpg
2522.981	0.786	1	repeat	Run3	repeat/STIM_004.jpg
2527.213	1.102	1	repeat	Run3	repeat/STIM_004.jpg
2532.082	1.145	1	repeat	Run3	repeat/STIM_004.jpg
2535.61	1.01	1	repeat	Run3	repeat/STIM_004.jpg
2539.692	0.982	1	repeat	Run3	repeat/STIM_005.jpg
2544.646	0.713	1	repeat	Run3	repeat/STIM_005.jpg
2547.421	0.891	1	repeat	Run3	repeat/STIM_005.jpg
2552.255	0.724	0	repeat	Run3	repeat/STIM_005.jpg
2555.917	1.122	1	repeat	Run3	repeat/STIM_005.jpg
2559.3	0.945	1	repeat	Run3	repeat/STIM_006.jpg
2564.171	1.002	0	repeat	Run3	repeat/STIM_006.jpg
2567.902	1.104	1	repeat	Run3	repeat/STIM_006.jpg
2572.493	0.897	1	repeat	Run3	repeat/STIM_006.jpg
2576.782	0.703	1	repeat	Run3	repeat/STIM_006.jpg
2579.64	0.722	1	repeat	Run3	repeat/STIM_007.jpg
2582.506	0.913	1	repeat	Run3	repeat/STIM_007.jpg
2585.622	0.604	0	repeat	Run3	repeat/STIM_007.jpg
2588.807	0.638	1	repeat	Run3	repeat/STIM_007.jpg
2591.449	0.701	1	repeat	Run3	repeat/STIM_007.jpg
2594.612	0.78	1	repeat	Run3	repeat/STIM_008.jpg
2597.434	0.599	1	repeat	Run3	repeat/STIM_008.jpg
2601.376	1.113	1	repeat	Run3	repeat/STIM_008.jpg
2604.708	1.108	1	repeat	Run3	repeat/STIM_008.jpg
2608.607	0.599	0	repeat	Run3	repeat/STIM_008.jpg
2611.45	0.77	1	repeat	Run3	repeat/STIM_009.jpg
2615.395	0.831	1	repeat	Run3	repeat/STIM_009.jpg
2618.902	0.825	0	repeat	Run3	repeat/STIM_009.jpg
2622.207	0.95	1	repeat	Run3	repeat/STIM_009.jpg
2626.394	0.589	1	repeat	Run3	repeat/STIM_009.jpg
2630.963	0.799	1	repeat	Run3	repeat/STIM_010.jpg
2634.149	0.939	1	repeat	Run3	repeat/STIM_010.jpg
2637.942	0.755	1	repeat	Run3	repeat/STIM_010.jpg
2641.336	0.581	1	repeat	Run3	repeat/STIM_010.jpg
2645.005	0.841	1	repeat	Run3	repeat/STIM_010.jpg
2648.75	0.87	1	repeat	Run3	repeat/STIM_011.jpg
2652.569	1.126	1	repeat	Run3	repeat/STIM_011.jpg
2656.54	0.984	1	repeat	Run3	repeat/STIM_011.jpg
2660.033	1.141	1	repeat	Run3	repeat/STIM_011.jpg
2665.132	0.601	0	repeat	Run3	repeat/STIM_011.jpg
2669.164	0.746	1	repeat	Run3	repeat/STIM_012.jpg
2673.848	0.718	1	repeat	Run3	repeat/STIM_012.jpg
2678.171	0.706	1	repeat	Run3	repeat/STIM_012.jpg
2680.884	0.872	1	repeat	Run3	repeat/STIM_012.jpg
2685.035	0.995	1	repeat	Run3	repeat/STIM_012.jpg
2689.678	0.892	1	repeat	Run3	repeat/STIM_013.jpg
2693.929	1.096	1	repeat	Run3	repeat/STIM_013.jpg
2698.99	0.877	1	repeat	Run3	repeat/STIM_013.jpg
2702.218	0.831	1	repeat	Run3	repeat/STIM_013.jpg
2705.484	0.759	1	repeat	Run3	repeat/STIM_013.jpg
2709.747	0.762	0	repeat	Run3	repeat/STIM_014.jpg
2713.553	0.714	0	repeat	Run3	repeat/STIM_014.jpg
2717.522	0.859	0	repeat	Run3	repeat/STIM_014.jpg
2720.731	0.785	1	repeat	Run3	repeat/STIM_014.jpg
2724.411	1.062	1	repeat	Run3	repeat/STIM_014.jpg
2728.675	1.738	1	generate	Run4	generate/STIM_000.jpg
2734.259	1.817	0	generate	Run4	generate/STIM_000.jpg
2739.996	2.175	0	generate	Run4	generate/STIM_000.jpg
2744.755	1.211	1	generate	Run4	generate/STIM_000.jpg
2749.163	2.384	1	generate	Run4	generate/STIM_000.jpg
2755.275	1.315	1	generate	Run4	generate/STIM_001.jpg
2759.422	2.14	1	generate	Run4	generate/STIM_001.jpg
2764.709	1.184	1	generate	Run4	generate/STIM_001.jpg
2768.871	1.273	0	generate	Run4	generate/STIM_001.jpg
2772.312	2.398	1	generate	Run4	generate/STIM_001.jpg
2776.837	1.461	0	generate	Run4	generate/STIM_002.jpg
2780.89	1.917	1	generate	Run4	generate/STIM_002.jpg
2784.893	1.118	1	generate	Run4	generate/STIM_002.jpg
2788.724	2.433	1	generate	Run4	generate/STIM_002.jpg
2794.917	1.422	1	generate	Run4	generate/STIM_002.jpg
2799.813	1.964	1	generate	Run4	generate/STIM_003.jpg
2804.13	2.029	1	generate	Run4	generate/STIM_003.jpg
2809.091	1.832	1	generate	Run4	generate/STIM_003.jpg
2814.386	2.193	0	generate	Run4	generate/STIM_003.jpg
2818.601	1.467	1	generate	Run4	generate/STIM_003.jpg
2822.544	2.121	1	generate	Run4	generate/STIM_004.jpg
2827.518	2.099	1	generate	Run4	generate/STIM_004.jpg
2832.309	1.864	1	generate	Run4	generate/STIM_004.jpg
2836.455	1.152	1	generate	Run4	generate/STIM_004.jpg
2840.906	2.062	1	generate	Run4	generate/STIM_004.jpg
2846.034	1.077	1	generate	Run4	generate/STIM_005.jpg
2849.88	1.984	1	generate	Run4	generate/STIM_005.jpg
2855.265	2.411	1	generate	Run4	generate/STIM_005.jpg
2861.309	1.502	1	generate	Run4	generate/STIM_005.jpg
2866.438	1.445	1	generate	Run4	generate/STIM_005.jpg
2871.294	1.495	1	generate	Run4	generate/STIM_006.jpg
2875.533	2.13	1	generate	Run4	generate/STIM_006.jpg
2881.632	1.336	1	generate	Run4	generate/STIM_006.jpg
2886.732	1.746	1	generate	Run4	generate/STIM_006.jpg
2891.847	1.04	1	generate	Run4	generate/STIM_006.jpg
2895.486	1.563	1	generate	Run4	generate/STIM_007.jpg
2899.544	0.984	1	generate	Run4	generate/STIM_007.jpg
2903.694	1.872	1	generate	Run4	generate/STIM_007.jpg
2909.202	1.664	1	generate	Run4	generate/STIM_007.jpg
2914.075	1.835	1	generate	Run4	generate/STIM_007.jpg
2918.797	2.343	1	generate	Run4	generate/STIM_008.jpg
2923.216	1.692	0	generate	Run4	generate/STIM_008.jpg
2927.345	1.579	1	generate	Run4	generate/STIM_008.jpg
2932.922	1.333	1	generate	Run4	generate/STIM_008.jpg
2938.091	2.259	1	generate	Run4	generate/STIM_008.jpg
2943.85	2.26	1	generate	Run4	generate/STIM_009.jpg
2950.078	2.224	0	generate	Run4	generate/STIM_009.jpg
2955.633	1.245	1	generate	Run4	generate/STIM_009.jpg
2959.766	1.075	1	generate	Run4	generate/STIM_009.jpg
2963.255	1.684	1	generate	Run4	generate/STIM_009.jpg
2967.454	1.694	1	generate	Run4	generate/STIM_010.jpg
2971.203	1.642	1	generate	Run4	generate/STIM_010.jpg
2976.348	1.337	1	generate	Run4	generate/STIM_010.jpg
2981.385	2.3	1	generate	Run4	generate/STIM_010.jpg
2985.813	2.038	1	generate	Run4	generate/STIM_010.jpg
2991.562	2.285	0	generate	Run4	generate/STIM_011.jpg
2997.711	1.016	1	generate	Run4	generate/STIM_011.jpg
3002.141	1.09	0	generate	Run4	generate/STIM_011.jpg
3006.942	1.846	1	generate	Run4	generate/STIM_011.jpg
3011.688	1.006	1	generate	Run4	generate/STIM_011.jpg
3014.75	2.234	1	generate	Run4	generate/STIM_012.jpg
3019.049	1.886	1	generate	Run4	generate/STIM_012.jpg
3023.856	1.522	1	generate	Run4	generate/STIM_012.jpg
3028.307	1.493	1	generate	Run4	generate/STIM_012.jpg
3032.874	1.283	1	generate	Run4	generate/STIM_012.jpg
3037.243	1.267	1	generate	Run4	generate/STIM_013.jpg
3041.971	2.392	1	generate	Run4	generate/STIM_013.jpg
3047.202	1.698	1	generate	Run4	generate/STIM_013.jpg
3050.974	1.214	0	generate	Run4	generate/STIM_013.jpg
3054.66	1.419	1	generate	Run4	generate/STIM_013.jpg
3059.721	2.324	1	generate	Run4	generate/STIM_014.jpg
3064.72	1.03	1	generate	Run4	generate/STIM_014.jpg
3069.035	1.298	1	generate	Run4	generate/STIM_014.jpg
3072.992	1.44	1	generate	Run4	generate/STIM_014.jpg
3078.04	1.028	1	generate	Run4	generate/STIM_014.jpg
3081.575	1.984	1	generate	Run4	generate/STIM_015.jpg
3085.7	1.83	1	generate	Run4	generate/STIM_015.jpg
3090.212	1.475	0	generate	Run4	generate/STIM_015.jpg
3094.408	1.775	1	generate	Run4	generate/STIM_015.jpg
3099.463	1.008	1	generate	Run4	generate/STIM_015.jpg
3103.381	0.979	0	generate	Run4	generate/STIM_016.jpg
3107.488	1.3	1	generate	Run4	generate/STIM_016.jpg
3111.257	2.262	0	generate	Run4	generate/STIM_016.jpg
3115.667	2.309	1	generate	Run4	generate/STIM_016.jpg
3121.202	1.604	1	generate	Run4	generate/STIM_016.jpg
3125.958	1.897	1	generate	Run4	generate/STIM_017.jpg
3130.684	1.292	1	generate	Run4	generate/STIM_017.jpg
3135.882	1.865	1	generate	Run4	generate/STIM_017.jpg
3140.538	1.167	1	generate	Run4	generate/STIM_017.jpg
3144.578	1.977	1	generate	Run4	generate/STIM_017.jpg
3149.63	1.742	1	generate	Run4	generate/STIM_018.jpg
3155.254	2.336	0	generate	Run4	generate/STIM_018.jpg
3161.405	1.361	1	generate	Run4	generate/STIM_018.jpg
3165.061	1.324	0	generate	Run4	generate/STIM_018.jpg
3169.138	1.369	1	generate	Run4	generate/STIM_018.jpg
3173.298	1.486	1	generate	Run4	generate/STIM_019.jpg
3177.433	1.602	1	generate	Run4	generate/STIM_019.jpg
3182.808	1.67	1	generate	Run4	generate/STIM_019.jpg
3187.517	2.332	1	generate	Run4	generate/STIM_019.jpg
3193.308	2.023	0	generate	Run4	generate/STIM_019.jpg
3198.346	1.62	0	generate	Run4	generate/STIM_020.jpg
3203.888	1.085	0	generate	Run4	generate/STIM_020.jpg
3207.751	1.573	0	generate	Run4	generate/STIM_020.jpg
3212.571	1.308	1	generate	Run4	generate/STIM_020.jpg
3216.188	2.114	1	generate	Run4	generate/STIM_020.jpg
3222.206	1.982	1	generate	Run4	generate/STIM_021.jpg
3227.717	1.079	1	generate	Run4	generate/STIM_021.jpg
3231.98	1.778	1	generate	Run4	generate/STIM_021.jpg
3235.775	2.028	1	generate	Run4	generate/STIM_021.jpg
3239.848	1.605	1	generate	Run4	generate/STIM_021.jpg
3244.139	1.764	1	generate	Run4	generate/STIM_022.jpg
3249.519	1.442	1	generate	Run4	generate/STIM_022.jpg
3254.147	1.845	0	generate	Run4	generate/STIM_022.jpg
3258.695	2.342	1	generate	Run4	generate/STIM_022.jpg
3264.199	2.104	1	generate	Run4	generate/STIM_022.jpg
3269.327	1.798	0	generate	Run4	generate/STIM_023.jpg
3273.479	1.73	1	generate	Run4	generate/STIM_023.jpg
3277.815	1.265	1	generate	Run4	generate/STIM_023.jpg
3282.408	1.931	1	generate	Run4	generate/STIM_023.jpg
3287.283	1.451	1	generate	Run4	generate/STIM_023.jpg
3291.343	2.335	1	generate	Run4	generate/STIM_024.jpg
3296.46	2.337	1	generate	Run4	generate/STIM_024.jpg
3300.886	1.42	1	generate	Run4	generate/STIM_024.jpg
3306.08	1.191	0	generate	Run4	generate/STIM_024.jpg
3310.822	1.218	1	generate	Run4	generate/STIM_024.jpg
3316.015	1.041	1	repeat	Run4	repeat/STIM_000.jpg
3319.832	1.027	1	repeat	Run4	repeat/STIM_000.jpg
3324.329	0.808	1	repeat	Run4	repeat/STIM_000.jpg
3327.275	0.936	1	repeat	Run4	repeat/STIM_000.jpg
3331.867	0.782	1	repeat	Run4	repeat/STIM_000.jpg
3335.867	1.074	0	repeat	Run4	repeat/STIM_001.jpg
3339.349	0.731	1	repeat	Run4	repeat/STIM_001.jpg
3343.79	0.934	1	repeat	Run4	repeat/STIM_001.jpg
3346.906	0.716	1	repeat	Run4	repeat/STIM_001.jpg
3349.844	0.793	1	repeat	Run4	repeat/STIM_001.jpg
3353.773	0.898	1	repeat	Run4	repeat/STIM_002.jpg
3357.362	0.906	1	repeat	Run4	repeat/STIM_002.jpg
3361.153	1.133	0	repeat	Run4	repeat/STIM_002.jpg
3365.355	0.907	1	repeat	Run4	repeat/STIM_002.jpg
3368.721	1.049	1	repeat	Run4	repeat/STIM_002.jpg
3372.018	0.983	1	repeat	Run4	repeat/STIM_003.jpg
3376.767	0.837	0	repeat	Run4	repeat/STIM_003.jpg
3379.781	0.618	1	repeat	Run4	repeat/STIM_003.jpg
3382.536	0.613	1	repeat	Run4	repeat/STIM_003.jpg
3385.583	0.629	1	repeat	Run4	repeat/STIM_003.jpg
3388.716	0.865	1	repeat	Run4	repeat/STIM_004.jpg
3392.493	0.644	1	repeat	Run4	repeat/STIM_004.jpg
3396.748	1.073	1	repeat	Run4	repeat/STIM_004.jpg
3400.223	0.934	1	repeat	Run4	repeat/STIM_004.jpg
3404.897	1.0	1	repeat	Run4	repeat/STIM_004.jpg
3409.454	0.935	1	repeat	Run4	repeat/STIM_005.jpg
3412.477	0.678	1	repeat	Run4	repeat/STIM_005.jpg
3416.827	0.759	1	repeat	Run4	repeat/STIM_005.jpg
3420.681	0.588	1	repeat	Run4	repeat/STIM_005.jpg
3424.832	0.991	1	repeat	Run4	repeat/STIM_005.jpg
3428.122	0.854	1	repeat	Run4	repeat/STIM_006.jpg
3431.638	0.609	1	repeat	Run4	repeat/STIM_006.jpg
3435.768	0.705	1	repeat	Run4	repeat/STIM_006.jpg
3439.065	1.154	1	repeat	Run4	repeat/STIM_006.jpg
3444.023	1.05	1	repeat	Run4	repeat/STIM_006.jpg
3447.95	0.854	1	repeat	Run4	repeat/STIM_007.jpg
3452.335	1.044	1	repeat	Run4	repeat/STIM_007.jpg
3457.322	1.044	1	repeat	Run4	repeat/STIM_007.jpg
3462.165	1.058	1	repeat	Run4	repeat/STIM_007.jpg
3466.473	0.627	1	repeat	Run4	repeat/STIM_007.jpg
3469.965	0.916	1	repeat	Run4	repeat/STIM_008.jpg
3472.919	1.127	0	repeat	Run4	repeat/STIM_008.jpg
3477.276	0.862	1	repeat	Run4	repeat/STIM_008.jpg
3480.233	0.627	0	repeat	Run4	repeat/STIM_008.jpg
3483.8	0.808	1	repeat	Run4	repeat/STIM_008.jpg
3488.187	0.705	1	repeat	Run4	repeat/STIM_009.jpg
3492.426	0.668	1	repeat	Run4	repeat/STIM_009.jpg
3497.08	0.805	1	repeat	Run4	repeat/STIM_009.jpg
3501.197	0.85	1	repeat	Run4	repeat/STIM_009.jpg
3504.385	0.957	1	repeat	Run4	repeat/STIM_009.jpg
3507.683	1.049	1	repeat	Run4	repeat/STIM_010.jpg
3512.702	1.045	1	repeat	Run4	repeat/STIM_010.jpg
3516.052	0.591	0	repeat	Run4	repeat/STIM_010.jpg
3518.88	1.096	1	repeat	Run4	repeat/STIM_010.jpg
3522.84	0.873	1	repeat	Run4	repeat/STIM_010.jpg
3527.112	0.861	1	repeat	Run4	repeat/STIM_011.jpg
3531.504	1.03	0	repeat	Run4	repeat/STIM_011.jpg
3535.519	0.918	1	repeat	Run4	repeat/STIM_011.jpg
3540.06	0.727	1	repeat	Run4	repeat/STIM_011.jpg
3543.661	1.147	1	repeat	Run4	repeat/STIM_011.jpg
3548.3	0.986	1	repeat	Run4	repeat/STIM_012.jpg
3551.898	0.717	1	repeat	Run4	repeat/STIM_012.jpg
3555.315	0.67	1	repeat	Run4	repeat/STIM_012.jpg
3558.05	1.072	1	repeat	Run4	repeat/STIM_012.jpg
3562.511	1.015	1	repeat	Run4	repeat/STIM_012.jpg
3566.208	0.94	1	repeat	Run4	repeat/STIM_013.jpg
3569.837	0.63	1	repeat	Run4	repeat/STIM_013.jpg
3574.274	1.002	1	repeat	Run4	repeat/STIM_013.jpg
3578.821	0.833	1	repeat	Run4	repeat/STIM_013.jpg
3583.556	0.838	0	repeat	Run4	repeat/STIM_013.jpg
3588.192	0.691	1	repeat	Run4	repeat/STIM_014.jpg
3592.316	0.984	0	repeat	Run4	repeat/STIM_014.jpg
3596.358	0.8	0	repeat	Run4	repeat/STIM_014.jpg
3599.446	0.801	1	repeat	Run4	repeat/STIM_014.jpg
3603.369	0.742	1	repeat	Run4	repeat/STIM_014.jpg
