onset	duration	accuracy_binary	trial_type	learning_stage	stimulus
0.0	2.456	1	generate	Run1	generate/STIM_000.jpg
5.797	2.855	0	generate	Run1	generate/STIM_000.jpg
12.216	1.942	0	generate	Run1	generate/STIM_000.jpg
17.745	1.603	0	generate	Run1	generate/STIM_000.jpg
21.424	2.063	0	generate	Run1	generate/STIM_000.jpg
25.864	2.625	1	generate	Run1	generate/STIM_001.jpg
30.926	2.184	1	generate	Run1	generate/STIM_001.jpg
35.583	2.619	1	generate	Run1	generate/STIM_001.jpg
40.42	2.127	0	generate	Run1	generate/STIM_001.jpg
46.368	2.31	1	generate	Run1	generate/STIM_001.jpg
51.769	2.321	0	generate	Run1	generate/STIM_002.jpg
58.093	2.825	0	generate	Run1	generate/STIM_002.jpg
63.844	1.806	1	generate	Run1	generate/STIM_002.jpg
68.084	1.29	1	generate	Run1	generate/STIM_002.jpg
71.544	1.319	1	generate	Run1	generate/STIM_002.jpg
76.743	2.821	1	generate	Run1	generate/STIM_003.jpg
82.391	2.491	1	generate	Run1	generate/STIM_003.jpg
88.163	1.476	1	generate	Run1	generate/STIM_003.jpg
92.991	1.54	1	generate	Run1	generate/STIM_003.jpg
97.406	1.286	1	generate	Run1	generate/STIM_003.jpg
102.335	2.817	1	generate	Run1	generate/STIM_004.jpg
108.651	2.536	0	generate	Run1	generate/STIM_004.jpg
113.474	1.327	1	generate	Run1	generate/STIM_004.jpg
118.014	2.357	1	generate	Run1	generate/STIM_004.jpg
122.907	1.964	1	generate	Run1	generate/STIM_004.jpg
126.792	1.521	0	generate	Run1	generate/STIM_005.jpg
132.216	2.2	1	generate	Run1	generate/STIM_005.jpg
138.255	2.308	1	generate	Run1	generate/STIM_005.jpg
143.974	2.057	1	generate	Run1	generate/STIM_005.jpg
148.122	1.218	1	generate	Run1	generate/STIM_005.jpg
151.647	1.939	1	generate	Run1	generate/STIM_006.jpg
156.198	1.73	1	generate	Run1	generate/STIM_006.jpg
161.623	2.219	1	generate	Run1	generate/STIM_006.jpg
166.034	2.098	0	generate	Run1	generate/STIM_006.jpg
171.568	2.194	1	generate	Run1	generate/STIM_006.jpg
177.623	1.61	1	generate	Run1	generate/STIM_007.jpg
182.614	2.672	0	generate	Run1	generate/STIM_007.jpg
187.912	2.434	1	generate	Run1	generate/STIM_007.jpg
194.234	2.408	0	generate	Run1	generate/STIM_007.jpg
199.477	2.419	1	generate	Run1	generate/STIM_007.jpg
204.099	2.219	1	generate	Run1	generate/STIM_008.jpg
209.546	1.774	1	generate	Run1	generate/STIM_008.jpg
213.481	2.015	1	generate	Run1	generate/STIM_008.jpg
219.186	2.392	1	generate	Run1	generate/STIM_008.jpg
224.005	2.153	1	generate	Run1	generate/STIM_008.jpg
229.733	1.995	1	generate	Run1	generate/STIM_009.jpg
234.166	1.587	0	generate	Run1	generate/STIM_009.jpg
237.774	2.179	1	generate	Run1	generate/STIM_009.jpg
242.816	2.407	1	generate	Run1	generate/STIM_009.jpg
248.358	1.008	1	generate	Run1	generate/STIM_009.jpg
252.854	2.32	1	generate	Run1	generate/STIM_010.jpg
258.111	1.556	1	generate	Run1	generate/STIM_010.jpg
261.791	1.934	0	generate	Run1	generate/STIM_010.jpg
267.023	2.331	1	generate	Run1	generate/STIM_010.jpg
273.034	1.858	1	generate	Run1	generate/STIM_010.jpg
277.666	2.635	1	generate	Run1	generate/STIM_011.jpg
282.725	1.347	0	generate	Run1	generate/STIM_011.jpg
287.959	1.4	1	generate	Run1	generate/STIM_011.jpg
293.333	1.516	1	generate	Run1	generate/STIM_011.jpg
298.541	2.4	1	generate	Run1	generate/STIM_011.jpg
303.024	1.885	0	generate	Run1	generate/STIM_012.jpg
308.607	2.028	1	generate	Run1	generate/STIM_012.jpg
314.243	1.37	1	generate	Run1	generate/STIM_012.jpg
317.684	2.103	0	generate	Run1	generate/STIM_012.jpg
322.208	1.701	1	generate	Run1	generate/STIM_012.jpg
327.494	1.596	1	generate	Run1	generate/STIM_013.jpg
332.646	1.762	1	generate	Run1	generate/STIM_013.jpg
336.463	1.535	1	generate	Run1	generate/STIM_013.jpg
340.776	1.255	1	generate	Run1	generate/STIM_013.jpg
345.672	1.113	1	generate	Run1	generate/STIM_013.jpg
350.15	1.314	1	generate	Run1	generate/STIM_014.jpg
354.949	2.476	1	generate	Run1	generate/STIM_014.jpg
361.178	1.311	0	generate	Run1	generate/STIM_014.jpg
365.489	1.602	1	generate	Run1	generate/STIM_014.jpg
369.546	1.833	0	generate	Run1	generate/STIM_014.jpg
373.727	1.481	1	generate	Run1	generate/STIM_015.jpg
378.716	2.658	1	generate	Run1	generate/STIM_015.jpg
384.899	2.088	1	generate	Run1	generate/STIM_015.jpg
390.59	2.243	1	generate	Run1	generate/STIM_015.jpg
396.706	2.329	1	generate	Run1	generate/STIM_015.jpg
401.103	1.482	0	generate	Run1	generate/STIM_016.jpg
404.896	2.805	1	generate	Run1	generate/STIM_016.jpg
410.036	2.313	1	generate	Run1	generate/STIM_016.jpg
416.018	1.397	1	generate	Run1	generate/STIM_016.jpg
420.552	1.137	0	generate	Run1	generate/STIM_016.jpg
424.668	1.963	1	generate	Run1	generate/STIM_017.jpg
428.977	1.548	0	generate	Run1	generate/STIM_017.jpg
433.769	1.87	0	generate	Run1	generate/STIM_017.jpg
438.718	2.595	0	generate	Run1	generate/STIM_017.jpg
443.48	1.092	1	generate	Run1	generate/STIM_017.jpg
447.853	2.42	1	generate	Run1	generate/STIM_018.jpg
452.879	1.748	0	generate	Run1	generate/STIM_018.jpg
458.321	2.78	1	generate	Run1	generate/STIM_018.jpg
463.847	1.616	0	generate	Run1	generate/STIM_018.jpg
467.977	1.552	0	generate	Run1	generate/STIM_018.jpg
472.634	1.346	1	generate	Run1	generate/STIM_019.jpg
476.097	1.881	0	generate	Run1	generate/STIM_019.jpg
481.426	2.379	1	generate	Run1	generate/STIM_019.jpg
486.411	1.514	1	generate	Run1	generate/STIM_019.jpg
490.936	2.402	1	generate	Run1	generate/STIM_019.jpg
496.999	2.84	1	generate	Run1	generate/STIM_020.jpg
503.445	1.814	1	generate	Run1	generate/STIM_020.jpg
508.145	1.507	1	generate	Run1	generate/STIM_020.jpg
513.592	2.249	1	generate	Run1	generate/STIM_020.jpg
519.548	1.385	1	generate	Run1	generate/STIM_020.jpg
524.646	2.096	1	generate	Run1	generate/STIM_021.jpg
530.425	2.319	1	generate	Run1	generate/STIM_021.jpg
536.055	2.02	1	generate	Run1	generate/STIM_021.jpg
541.971	2.021	1	generate	Run1	generate/STIM_021.jpg
547.837	1.9	1	generate	Run1	generate/STIM_021.jpg
552.213	1.457	1	generate	Run1	generate/STIM_022.jpg
556.684	2.624	1	generate	Run1	generate/STIM_022.jpg
562.618	1.532	1	generate	Run1	generate/STIM_022.jpg
567.076	1.142	1	generate	Run1	generate/STIM_022.jpg
571.553	1.782	1	generate	Run1	generate/STIM_022.jpg
576.024	2.989	1	generate	Run1	generate/STIM_023.jpg
582.241	1.479	1	generate	Run1	generate/STIM_023.jpg
586.694	1.985	1	generate	Run1	generate/STIM_023.jpg
591.537	1.923	1	generate	Run1	generate/STIM_023.jpg
595.862	2.347	1	generate	Run1	generate/STIM_023.jpg
601.047	2.496	0	generate	Run1	generate/STIM_024.jpg
606.325	1.763	1	generate	Run1	generate/STIM_024.jpg
611.887	2.497	1	generate	Run1	generate/STIM_024.jpg
617.987	2.208	1	generate	Run1	generate/STIM_024.jpg
622.933	1.723	1	generate	Run1	generate/STIM_024.jpg
627.669	0.593	1	repeat	Run1	repeat/STIM_000.jpg
631.163	0.682	1	repeat	Run1	repeat/STIM_000.jpg
634.401	0.968	1	repeat	Run1	repeat/STIM_000.jpg
637.269	0.913	1	repeat	Run1	repeat/STIM_000.jpg
641.613	1.014	1	repeat	Run1	repeat/STIM_000.jpg
645.624	0.993	1	repeat	Run1	repeat/STIM_001.jpg
649.945	0.882	1	repeat	Run1	repeat/STIM_001.jpg
654.081	0.642	1	repeat	Run1	repeat/STIM_001.jpg
657.269	0.806	1	repeat	Run1	repeat/STIM_001.jpg
661.195	0.677	1	repeat	Run1	repeat/STIM_001.jpg
664.792	0.902	1	repeat	Run1	repeat/STIM_002.jpg
667.935	0.916	1	repeat	Run1	repeat/STIM_002.jpg
671.415	0.959	1	repeat	Run1	repeat/STIM_002.jpg
674.878	0.747	1	repeat	Run1	repeat/STIM_002.jpg
678.351	0.847	1	repeat	Run1	repeat/STIM_002.jpg
681.281	0.708	1	repeat	Run1	repeat/STIM_003.jpg
684.051	0.787	1	repeat	Run1	repeat/STIM_003.jpg
688.175	0.895	1	repeat	Run1	repeat/STIM_003.jpg
691.085	0.556	1	repeat	Run1	repeat/STIM_003.jpg
694.819	0.667	1	repeat	Run1	repeat/STIM_003.jpg
699.381	0.981	1	repeat	Run1	repeat/STIM_004.jpg
702.47	0.606	1	repeat	Run1	repeat/STIM_004.jpg
705.932	0.782	0	repeat	Run1	repeat/STIM_004.jpg
709.665	0.576	1	repeat	Run1	repeat/STIM_004.jpg
713.782	0.696	1	repeat	Run1	repeat/STIM_004.jpg
717.028	0.848	1	repeat	Run1	repeat/STIM_005.jpg
719.836	0.716	1	repeat	Run1	repeat/STIM_005.jpg
723.284	0.53	1	repeat	Run1	repeat/STIM_005.jpg
726.229	0.919	1	repeat	Run1	repeat/STIM_005.jpg
729.889	1.044	0	repeat	Run1	repeat/STIM_005.jpg
734.769	0.737	1	repeat	Run1	repeat/STIM_006.jpg
737.649	0.728	1	repeat	Run1	repeat/STIM_006.jpg
740.637	0.941	1	repeat	Run1	repeat/STIM_006.jpg
744.942	0.658	1	repeat	Run1	repeat/STIM_006.jpg
747.813	0.766	1	repeat	Run1	repeat/STIM_006.jpg
751.37	0.581	1	repeat	Run1	repeat/STIM_007.jpg
754.37	1.0	1	repeat	Run1	repeat/STIM_007.jpg
757.785	0.978	1	repeat	Run1	repeat/STIM_007.jpg
761.364	0.791	1	repeat	Run1	repeat/STIM_007.jpg
765.987	0.623	1	repeat	Run1	repeat/STIM_007.jpg
769.615	0.81	1	repeat	Run1	repeat/STIM_008.jpg
772.985	0.75	1	repeat	Run1	repeat/STIM_008.jpg
776.272	0.965	1	repeat	Run1	repeat/STIM_008.jpg
780.517	0.536	1	repeat	Run1	repeat/STIM_008.jpg
784.546	0.818	1	repeat	Run1	repeat/STIM_008.jpg
788.84	0.929	1	repeat	Run1	repeat/STIM_009.jpg
792.233	0.802	1	repeat	Run1	repeat/STIM_009.jpg
795.668	0.751	1	repeat	Run1	repeat/STIM_009.jpg
799.075	0.828	1	repeat	Run1	repeat/STIM_009.jpg
803.502	0.749	1	repeat	Run1	repeat/STIM_009.jpg
807.99	0.89	1	repeat	Run1	repeat/STIM_010.jpg
812.248	0.654	1	repeat	Run1	repeat/STIM_010.jpg
815.871	0.702	0	repeat	Run1	repeat/STIM_010.jpg
819.347	0.637	1	repeat	Run1	repeat/STIM_010.jpg
822.938	0.676	1	repeat	Run1	repeat/STIM_010.jpg
827.456	0.735	1	repeat	Run1	repeat/STIM_011.jpg
831.707	0.707	1	repeat	Run1	repeat/STIM_011.jpg
836.272	0.763	1	repeat	Run1	repeat/STIM_011.jpg
840.042	0.94	1	repeat	Run1	repeat/STIM_011.jpg
843.28	0.9	1	repeat	Run1	repeat/STIM_011.jpg
847.146	0.698	1	repeat	Run1	repeat/STIM_012.jpg
850.566	0.596	1	repeat	Run1	repeat/STIM_012.jpg
853.436	0.912	1	repeat	Run1	repeat/STIM_012.jpg
857.021	0.612	1	repeat	Run1	repeat/STIM_012.jpg
860.192	0.479	1	repeat	Run1	repeat/STIM_012.jpg
864.386	0.811	1	repeat	Run1	repeat/STIM_013.jpg
867.555	0.821	1	repeat	Run1	repeat/STIM_013.jpg
870.863	0.811	1	repeat	Run1	repeat/STIM_013.jpg
875.152	1.05	1	repeat	Run1	repeat/STIM_013.jpg
879.833	0.474	1	repeat	Run1	repeat/STIM_013.jpg
883.797	0.559	1	repeat	Run1	repeat/STIM_014.jpg
886.825	0.638	1	repeat	Run1	repeat/STIM_014.jpg
889.675	0.668	1	repeat	Run1	repeat/STIM_014.jpg
892.444	0.494	1	repeat	Run1	repeat/STIM_014.jpg
895.744	0.745	1	repeat	Run1	repeat/STIM_014.jpg
900.342	1.498	1	generate	Run2	generate/STIM_000.jpg
905.457	2.182	1	generate	Run2	generate/STIM_000.jpg
910.165	1.997	1	generate	Run2	generate/STIM_000.jpg
914.752	1.037	1	generate	Run2	generate/STIM_000.jpg
918.862	1.476	1	generate	Run2	generate/STIM_000.jpg
922.432	1.715	1	generate	Run2	generate/STIM_001.jpg
927.097	1.048	1	generate	Run2	generate/STIM_001.jpg
930.308	1.428	1	generate	Run2	generate/STIM_001.jpg
934.422	2.09	1	generate	Run2	generate/STIM_001.jpg
939.561	1.966	1	generate	Run2	generate/STIM_001.jpg
944.311	2.363	1	generate	Run2	generate/STIM_002.jpg
949.178	2.305	0	generate	Run2	generate/STIM_002.jpg
955.088	1.023	1	generate	Run2	generate/STIM_002.jpg
958.343	1.555	1	generate	Run2	generate/STIM_002.jpg
962.894	1.044	1	generate	Run2	generate/STIM_002.jpg
967.403	2.229	1	generate	Run2	generate/STIM_003.jpg
972.072	2.396	1	generate	Run2	generate/STIM_003.jpg
977.944	1.902	1	generate	Run2	generate/STIM_003.jpg
983.458	2.049	1	generate	Run2	generate/STIM_003.jpg
988.057	1.74	1	generate	Run2	generate/STIM_003.jpg
992.107	1.857	0	generate	Run2	generate/STIM_004.jpg
997.873	1.462	1	generate	Run2	generate/STIM_004.jpg
1002.814	1.896	1	generate	Run2	generate/STIM_004.jpg
1007.427	1.112	0	generate	Run2	generate/STIM_004.jpg
1010.556	2.129	0	generate	Run2	generate/STIM_004.jpg
1015.629	1.514	1	generate	Run2	generate/STIM_005.jpg
1020.069	2.113	1	generate	Run2	generate/STIM_005.jpg
1024.567	1.262	1	generate	Run2	generate/STIM_005.jpg
1028.46	1.108	1	generate	Run2	generate/STIM_005.jpg
1031.913	0.902	1	generate	Run2	generate/STIM_005.jpg
1035.305	2.029	1	generate	Run2	generate/STIM_006.jpg
1039.973	1.92	0	generate	Run2	generate/STIM_006.jpg
1045.521	1.043	1	generate	Run2	generate/STIM_006.jpg
1049.943	1.531	1	generate	Run2	generate/STIM_006.jpg
1053.733	2.073	1	generate	Run2	generate/STIM_006.jpg
1058.015	1.781	0	generate	Run2	generate/STIM_007.jpg
1062.396	2.366	1	generate	Run2	generate/STIM_007.jpg
1068.468	2.161	1	generate	Run2	generate/STIM_007.jpg
1073.853	1.432	0	generate	Run2	generate/STIM_007.jpg
1078.687	1.198	1	generate	Run2	generate/STIM_007.jpg
1083.657	1.885	1	generate	Run2	generate/STIM_008.jpg
1088.077	1.054	1	generate	Run2	generate/STIM_008.jpg
1091.985	0.954	1	generate	Run2	generate/STIM_008.jpg
1096.607	1.569	1	generate	Run2	generate/STIM_008.jpg
1102.152	1.283	1	generate	Run2	generate/STIM_008.jpg
1107.369	1.326	1	generate	Run2	generate/STIM_009.jpg
1110.998	1.847	1	generate	Run2	generate/STIM_009.jpg
1115.424	1.193	1	generate	Run2	generate/STIM_009.jpg
1119.695	1.344	1	generate	Run2	generate/STIM_009.jpg
1124.399	1.789	1	generate	Run2	generate/STIM_009.jpg
1128.362	2.6	1	generate	Run2	generate/STIM_010.jpg
1132.855	2.354	1	generate	Run2	generate/STIM_010.jpg
1139.053	1.495	1	generate	Run2	generate/STIM_010.jpg
1144.117	1.836	1	generate	Run2	generate/STIM_010.jpg
1149.191	1.63	1	generate	Run2	generate/STIM_010.jpg
1154.188	1.885	1	generate	Run2	generate/STIM_011.jpg
1158.822	2.128	1	generate	Run2	generate/STIM_011.jpg
1164.774	1.55	1	generate	Run2	generate/STIM_011.jpg
1169.977	1.816	1	generate	Run2	generate/STIM_011.jpg
1173.859	1.795	1	generate	Run2	generate/STIM_011.jpg
1178.48	1.158	0	generate	Run2	generate/STIM_012.jpg
1182.204	1.152	1	generate	Run2	generate/STIM_012.jpg
1185.824	1.3	1	generate	Run2	generate/STIM_012.jpg
1190.425	1.802	1	generate	Run2	generate/STIM_012.jpg
1195.559	2.131	1	generate	Run2	generate/STIM_012.jpg
1200.768	1.724	1	generate	Run2	generate/STIM_013.jpg
1205.104	1.799	1	generate	Run2	generate/STIM_013.jpg
1209.85	2.19	1	generate	Run2	generate/STIM_013.jpg
1214.224	1.634	1	generate	Run2	generate/STIM_013.jpg
1218.506	1.372	1	generate	Run2	generate/STIM_013.jpg
1223.356	2.322	1	generate	Run2	generate/STIM_014.jpg
1228.861	1.564	1	generate	Run2	generate/STIM_014.jpg
1232.771	2.25	1	generate	Run2	generate/STIM_014.jpg
1237.11	1.91	1	generate	Run2	generate/STIM_014.jpg
1242.308	1.252	1	generate	Run2	generate/STIM_014.jpg
1245.562	2.625	1	generate	Run2	generate/STIM_015.jpg
1251.145	1.105	1	generate	Run2	generate/STIM_015.jpg
1255.655	2.001	1	generate	Run2	generate/STIM_015.jpg
1259.686	1.897	1	generate	Run2	generate/STIM_015.jpg
1265.125	1.288	1	generate	Run2	generate/STIM_015.jpg
1269.62	2.468	0	generate	Run2	generate/STIM_016.jpg
1274.064	1.009	1	generate	Run2	generate/STIM_016.jpg
1277.673	0.948	1	generate	Run2	generate/STIM_016.jpg
1281.013	0.996	0	generate	Run2	generate/STIM_016.jpg
1284.991	0.941	1	generate	Run2	generate/STIM_016.jpg
1288.67	2.527	1	generate	Run2	generate/STIM_017.jpg
1293.211	1.431	1	generate	Run2	generate/STIM_017.jpg
1298.149	2.187	1	generate	Run2	generate/STIM_017.jpg
1303.667	1.622	1	generate	Run2	generate/STIM_017.jpg
1307.528	1.385	1	generate	Run2	generate/STIM_017.jpg
1311.768	1.267	1	generate	Run2	generate/STIM_018.jpg
1316.132	1.687	1	generate	Run2	generate/STIM_018.jpg
1321.202	1.832	1	generate	Run2	generate/STIM_018.jpg
1325.344	2.024	1	generate	Run2	generate/STIM_018.jpg
1330.404	0.987	1	generate	Run2	generate/STIM_018.jpg
1334.459	2.205	0	generate	Run2	generate/STIM_019.jpg
1339.443	1.258	1	generate	Run2	generate/STIM_019.jpg
1344.485	1.883	1	generate	Run2	generate/STIM_019.jpg
1349.957	0.857	1	generate	Run2	generate/STIM_019.jpg
1354.484	1.961	1	generate	Run2	generate/STIM_019.jpg
1359.506	1.232	0	generate	Run2	generate/STIM_020.jpg
1363.629	1.772	1	generate	Run2	generate/STIM_020.jpg
1368.221	2.252	1	generate	Run2	generate/STIM_020.jpg
1372.934	1.06	1	generate	Run2	generate/STIM_020.jpg
1376.207	1.212	1	generate	Run2	generate/STIM_020.jpg
1381.379	2.256	0	generate	Run2	generate/STIM_021.jpg
1386.969	2.073	1	generate	Run2	generate/STIM_021.jpg
1392.563	1.684	1	generate	Run2	generate/STIM_021.jpg
1396.485	1.036	1	generate	Run2	generate/STIM_021.jpg
1400.646	1.901	1	generate	Run2	generate/STIM_021.jpg
1405.656	1.773	1	generate	Run2	generate/STIM_022.jpg
1410.447	1.554	1	generate	Run2	generate/STIM_022.jpg
1414.129	1.879	1	generate	Run2	generate/STIM_022.jpg
1418.055	1.99	1	generate	Run2	generate/STIM_022.jpg
1422.907	0.868	1	generate	Run2	generate/STIM_022.jpg
1427.706	2.149	1	generate	Run2	generate/STIM_023.jpg
1433.256	1.599	1	generate	Run2	generate/STIM_023.jpg
1437.123	2.133	1	generate	Run2	generate/STIM_023.jpg
1441.419	1.465	1	generate	Run2	generate/STIM_023.jpg
1446.563	1.155	1	generate	Run2	generate/STIM_023.jpg
1451.692	1.26	0	generate	Run2	generate/STIM_024.jpg
1455.508	1.776	1	generate	Run2	generate/STIM_024.jpg
1460.244	1.353	1	generate	Run2	generate/STIM_024.jpg
1463.893	1.301	1	generate	Run2	generate/STIM_024.jpg
1468.675	0.906	1	generate	Run2	generate/STIM_024.jpg
1473.04	0.714	1	repeat	Run2	repeat/STIM_000.jpg
1476.0	1.07	1	repeat	Run2	repeat/STIM_000.jpg
1480.631	0.761	1	repeat	Run2	repeat/STIM_000.jpg
1483.885	0.794	1	repeat	Run2	repeat/STIM_000.jpg
1488.071	0.532	1	repeat	Run2	repeat/STIM_000.jpg
1492.558	0.806	1	repeat	Run2	repeat/STIM_001.jpg
1496.951	0.926	1	repeat	Run2	repeat/STIM_001.jpg
1499.927	0.925	1	repeat	Run2	repeat/STIM_001.jpg
1504.368	0.76	1	repeat	Run2	repeat/STIM_001.jpg
1507.877	1.011	1	repeat	Run2	repeat/STIM_001.jpg
1511.341	0.555	1	repeat	Run2	repeat/STIM_002.jpg
1514.746	0.551	1	repeat	Run2	repeat/STIM_002.jpg
1517.443	0.706	1	repeat	Run2	repeat/STIM_002.jpg
1521.4	0.903	1	repeat	Run2	repeat/STIM_002.jpg
1525.939	0.724	1	repeat	Run2	repeat/STIM_002.jpg
1529.567	0.581	1	repeat	Run2	repeat/STIM_003.jpg
1533.72	0.505	1	repeat	Run2	repeat/STIM_003.jpg
1538.071	0.681	1	repeat	Run2	repeat/STIM_003.jpg
1540.877	0.835	1	repeat	Run2	repeat/STIM_003.jpg
1544.705	0.684	1	repeat	Run2	repeat/STIM_003.jpg
1548.985	0.559	1	repeat	Run2	repeat/STIM_004.jpg
1552.377	0.931	1	repeat	Run2	repeat/STIM_004.jpg
1556.391	0.613	1	repeat	Run2	repeat/STIM_004.jpg
1559.389	0.508	1	repeat	Run2	repeat/STIM_004.jpg
1563.859	0.822	1	repeat	Run2	repeat/STIM_004.jpg
1568.538	0.629	1	repeat	Run2	repeat/STIM_005.jpg
1572.16	0.739	1	repeat	Run2	repeat/STIM_005.jpg
1575.946	0.585	1	repeat	Run2	repeat/STIM_005.jpg
1579.873	0.648	1	repeat	Run2	repeat/STIM_005.jpg
1584.403	0.528	1	repeat	Run2	repeat/STIM_005.jpg
1587.502	0.654	1	repeat	Run2	repeat/STIM_006.jpg
1590.872	0.989	0	repeat	Run2	repeat/STIM_006.jpg
1595.546	1.009	1	repeat	Run2	repeat/STIM_006.jpg
1599.907	0.755	1	repeat	Run2	repeat/STIM_006.jpg
1603.286	0.86	1	repeat	Run2	repeat/STIM_006.jpg
1606.454	0.826	1	repeat	Run2	repeat/STIM_007.jpg
1610.995	0.524	1	repeat	Run2	repeat/STIM_007.jpg
1614.179	0.693	0	repeat	Run2	repeat/STIM_007.jpg
1617.355	0.908	1	repeat	Run2	repeat/STIM_007.jpg
1622.066	0.635	1	repeat	Run2	repeat/STIM_007.jpg
1625.128	1.023	1	repeat	Run2	repeat/STIM_008.jpg
1628.236	0.688	1	repeat	Run2	repeat/STIM_008.jpg
1632.779	0.866	1	repeat	Run2	repeat/STIM_008.jpg
1636.886	0.573	1	repeat	Run2	repeat/STIM_008.jpg
1640.467	0.592	1	repeat	Run2	repeat/STIM_008.jpg
1644.629	0.842	0	repeat	Run2	repeat/STIM_009.jpg
1648.817	0.641	1	repeat	Run2	repeat/STIM_009.jpg
1652.814	0.74	1	repeat	Run2	repeat/STIM_009.jpg
1656.371	0.977	1	repeat	Run2	repeat/STIM_009.jpg
1661.069	0.983	1	repeat	Run2	repeat/STIM_009.jpg
1665.79	0.889	1	repeat	Run2	repeat/STIM_010.jpg
1669.68	0.876	1	repeat	Run2	repeat/STIM_010.jpg
1674.485	0.751	1	repeat	Run2	repeat/STIM_010.jpg
1678.815	0.623	1	repeat	Run2	repeat/STIM_010.jpg
1682.154	0.682	1	repeat	Run2	repeat/STIM_010.jpg
1686.466	1.131	1	repeat	Run2	repeat/STIM_011.jpg
1691.143	0.88	1	repeat	Run2	repeat/STIM_011.jpg
1695.83	0.698	1	repeat	Run2	repeat/STIM_011.jpg
1699.237	0.675	1	repeat	Run2	repeat/STIM_011.jpg
1701.926	0.946	1	repeat	Run2	repeat/STIM_011.jpg
1705.29	0.737	1	repeat	Run2	repeat/STIM_012.jpg
1709.88	0.791	1	repeat	Run2	repeat/STIM_012.jpg
1714.173	0.848	1	repeat	Run2	repeat/STIM_012.jpg
1717.723	0.688	0	repeat	Run2	repeat/STIM_012.jpg
1720.517	0.883	1	repeat	Run2	repeat/STIM_012.jpg
1723.989	0.496	1	repeat	Run2	repeat/STIM_013.jpg
1728.16	0.728	0	repeat	Run2	repeat/STIM_013.jpg
1731.766	0.519	1	repeat	Run2	repeat/STIM_013.jpg
1734.776	0.686	1	repeat	Run2	repeat/STIM_013.jpg
1739.013	0.703	1	repeat	Run2	repeat/STIM_013.jpg
1742.083	0.763	1	repeat	Run2	repeat/STIM_014.jpg
1746.446	0.634	1	repeat	Run2	repeat/STIM_014.jpg
1750.992	0.688	1	repeat	Run2	repeat/STIM_014.jpg
1754.783	0.949	1	repeat	Run2	repeat/STIM_014.jpg
1757.769	0.553	1	repeat	Run2	repeat/STIM_014.jpg
1760.797	1.441	0	generate	Run3	generate/STIM_000.jpg
1764.422	1.045	1	generate	Run3	generate/STIM_000.jpg
1769.386	1.458	1	generate	Run3	generate/STIM_000.jpg
1774.435	1.568	1	generate	Run3	generate/STIM_000.jpg
1779.761	1.816	1	generate	Run3	generate/STIM_000.jpg
1784.869	1.962	1	generate	Run3	generate/STIM_001.jpg
1788.984	1.219	1	generate	Run3	generate/STIM_001.jpg
1793.756	1.978	1	generate	Run3	generate/STIM_001.jpg
1798.691	1.967	1	generate	Run3	generate/STIM_001.jpg
1804.075	0.941	1	generate	Run3	generate/STIM_001.jpg
1808.494	1.313	1	generate	Run3	generate/STIM_002.jpg
1812.009	2.029	1	generate	Run3	generate/STIM_002.jpg
1817.895	2.168	1	generate	Run3	generate/STIM_002.jpg
1822.944	1.207	1	generate	Run3	generate/STIM_002.jpg
1827.997	1.266	1	generate	Run3	generate/STIM_002.jpg
1831.523	1.897	1	generate	Run3	generate/STIM_003.jpg
1836.111	1.07	1	generate	Run3	generate/STIM_003.jpg
1839.514	1.922	1	generate	Run3	generate/STIM_003.jpg
1844.273	1.943	1	generate	Run3	generate/STIM_003.jpg
1850.136	1.629	1	generate	Run3	generate/STIM_003.jpg
1854.346	1.125	1	generate	Run3	generate/STIM_004.jpg
1858.724	1.47	0	generate	Run3	generate/STIM_004.jpg
1863.052	2.195	1	generate	Run3	generate/STIM_004.jpg
1868.901	2.037	1	generate	Run3	generate/STIM_004.jpg
1874.928	1.601	1	generate	Run3	generate/STIM_004.jpg
1880.33	0.889	1	generate	Run3	generate/STIM_005.jpg
1883.694	1.673	1	generate	Run3	generate/STIM_005.jpg
1887.486	1.703	1	generate	Run3	generate/STIM_005.jpg
1891.181	1.909	1	generate	Run3	generate/STIM_005.jpg
1895.153	1.276	1	generate	Run3	generate/STIM_005.jpg
1898.58	1.508	0	generate	Run3	generate/STIM_006.jpg
1903.95	1.856	1	generate	Run3	generate/STIM_006.jpg
1909.341	1.096	0	generate	Run3	generate/STIM_006.jpg
1913.115	2.097	1	generate	Run3	generate/STIM_006.jpg
1917.413	1.916	1	generate	Run3	generate/STIM_006.jpg
1921.497	2.05	1	generate	Run3	generate/STIM_007.jpg
1926.445	2.19	1	generate	Run3	generate/STIM_007.jpg
1931.676	0.959	1	generate	Run3	generate/STIM_007.jpg
1935.357	0.89	1	generate	Run3	generate/STIM_007.jpg
1939.713	1.381	0	generate	Run3	generate/STIM_007.jpg
1943.176	1.95	1	generate	Run3	generate/STIM_008.jpg
1948.779	1.11	1	generate	Run3	generate/STIM_008.jpg
1953.825	1.011	1	generate	Run3	generate/STIM_008.jpg
1958.529	1.557	1	generate	Run3	generate/STIM_008.jpg
1963.207	1.004	1	generate	Run3	generate/STIM_008.jpg
1967.417	2.037	1	generate	Run3	generate/STIM_009.jpg
1972.589	1.026	1	generate	Run3	generate/STIM_009.jpg
1976.903	1.567	1	generate	Run3	generate/STIM_009.jpg
1981.009	1.191	1	generate	Run3	generate/STIM_009.jpg
1984.815	0.934	0	generate	Run3	generate/STIM_009.jpg
1989.083	1.464	1	generate	Run3	generate/STIM_010.jpg
1993.991	1.143	1	generate	Run3	generate/STIM_010.jpg
1998.534	1.743	1	generate	Run3	generate/STIM_010.jpg
2003.394	1.442	1	generate	Run3	generate/STIM_010.jpg
2008.221	1.813	1	generate	Run3	generate/STIM_010.jpg
2012.503	2.118	1	generate	Run3	generate/STIM_011.jpg
2017.642	1.007	1	generate	Run3	generate/STIM_011.jpg
2022.315	0.962	1	generate	Run3	generate/STIM_011.jpg
2026.144	1.92	1	generate	Run3	generate/STIM_011.jpg
2031.102	2.057	1	generate	Run3	generate/STIM_011.jpg
2037.053	1.501	1	generate	Run3	generate/STIM_012.jpg
2041.095	1.208	1	generate	Run3	generate/STIM_012.jpg
2045.157	1.496	1	generate	Run3	generate/STIM_012.jpg
2050.388	1.928	1	generate	Run3	generate/STIM_012.jpg
2055.601	1.537	1	generate	Run3	generate/STIM_012.jpg
2060.266	1.429	1	generate	Run3	generate/STIM_013.jpg
2064.522	2.168	1	generate	Run3	generate/STIM_013.jpg
2069.598	1.844	1	generate	Run3	generate/STIM_013.jpg
2073.529	1.565	1	generate	Run3	generate/STIM_013.jpg
2077.987	1.398	1	generate	Run3	generate/STIM_013.jpg
2083.009	1.02	1	generate	Run3	generate/STIM_014.jpg
2086.079	1.095	1	generate	Run3	generate/STIM_014.jpg
2090.696	0.908	1	generate	Run3	generate/STIM_014.jpg
2095.602	1.356	1	generate	Run3	generate/STIM_014.jpg
2099.627	1.196	1	generate	Run3	generate/STIM_014.jpg
2104.116	1.342	1	generate	Run3	generate/STIM_015.jpg
2107.515	1.915	1	generate	Run3	generate/STIM_015.jpg
2112.893	1.024	1	generate	Run3	generate/STIM_015.jpg
2116.714	1.756	1	generate	Run3	generate/STIM_015.jpg
2122.058	1.672	1	generate	Run3	generate/STIM_015.jpg
2127.109	2.059	1	generate	Run3	generate/STIM_016.jpg
2132.832	1.939	1	generate	Run3	generate/STIM_016.jpg
2137.079	1.933	1	generate	Run3	generate/STIM_016.jpg
2141.547	1.551	1	generate	Run3	generate/STIM_016.jpg
2145.652	1.025	1	generate	Run3	generate/STIM_016.jpg
2149.776	1.476	1	generate	Run3	generate/STIM_017.jpg
2154.553	1.572	1	generate	Run3	generate/STIM_017.jpg
2158.434	0.911	1	generate	Run3	generate/STIM_017.jpg
2162.212	1.939	1	generate	Run3	generate/STIM_017.jpg
2166.52	1.979	1	generate	Run3	generate/STIM_017.jpg
2172.207	1.05	1	generate	Run3	generate/STIM_018.jpg
2176.202	2.17	1	generate	Run3	generate/STIM_018.jpg
2180.452	1.761	1	generate	Run3	generate/STIM_018.jpg
2185.313	1.674	1	generate	Run3	generate/STIM_018.jpg
2189.325	1.376	1	generate	Run3	generate/STIM_018.jpg
2193.753	1.383	1	generate	Run3	generate/STIM_019.jpg
2199.055	1.169	1	generate	Run3	generate/STIM_019.jpg
2203.865	1.0	1	generate	Run3	generate/STIM_019.jpg
2207.649	1.018	1	generate	Run3	generate/STIM_019.jpg
2211.451	1.139	1	generate	Run3	generate/STIM_019.jpg
2214.633	1.227	1	generate	Run3	generate/STIM_020.jpg
2218.684	1.135	1	generate	Run3	generate/STIM_020.jpg
2222.216	1.728	1	generate	Run3	generate/STIM_020.jpg
2226.883	1.013	1	generate	Run3	generate/STIM_020.jpg
2231.73	1.901	1	generate	Run3	generate/STIM_020.jpg
2237.538	1.769	1	generate	Run3	generate/STIM_021.jpg
2241.813	0.98	1	generate	Run3	generate/STIM_021.jpg
2246.141	1.485	1	generate	Run3	generate/STIM_021.jpg
2249.7	1.836	1	generate	Run3	generate/STIM_021.jpg
2254.944	1.858	1	generate	Run3	generate/STIM_021.jpg
2259.511	1.266	1	generate	Run3	generate/STIM_022.jpg
2262.943	1.81	1	generate	Run3	generate/STIM_022.jpg
2267.501	1.748	1	generate	Run3	generate/STIM_022.jpg
2273.254	2.114	1	generate	Run3	generate/STIM_022.jpg
2278.294	0.911	1	generate	Run3	generate/STIM_022.jpg
2281.384	1.116	1	generate	Run3	generate/STIM_023.jpg
2285.82	1.603	1	generate	Run3	generate/STIM_023.jpg
2289.845	1.547	1	generate	Run3	generate/STIM_023.jpg
2293.708	0.926	1	generate	Run3	generate/STIM_023.jpg
2296.679	1.983	1	generate	Run3	generate/STIM_023.jpg
2301.878	1.598	1	generate	Run3	generate/STIM_024.jpg
2306.588	1.766	1	generate	Run3	generate/STIM_024.jpg
2311.642	1.092	1	generate	Run3	generate/STIM_024.jpg
2316.385	1.21	1	generate	Run3	generate/STIM_024.jpg
2320.149	1.074	1	generate	Run3	generate/STIM_024.jpg
2324.072	0.83	1	repeat	Run3	repeat/STIM_000.jpg
2327.044	0.778	1	repeat	Run3	repeat/STIM_000.jpg
2329.835	0.781	1	repeat	Run3	repeat/STIM_000.jpg
2334.41	0.887	1	repeat	Run3	repeat/STIM_000.jpg
2338.131	0.907	1	repeat	Run3	repeat/STIM_000.jpg
2341.167	0.624	1	repeat	Run3	repeat/STIM_001.jpg
2345.419	0.586	1	repeat	Run3	repeat/STIM_001.jpg
2349.081	0.598	1	repeat	Run3	repeat/STIM_001.jpg
2353.3	0.928	1	repeat	Run3	repeat/STIM_001.jpg
2357.832	0.654	1	repeat	Run3	repeat/STIM_001.jpg
2361.049	0.755	1	repeat	Run3	repeat/STIM_002.jpg
2365.541	0.625	1	repeat	Run3	repeat/STIM_002.jpg
2368.159	0.718	1	repeat	Run3	repeat/STIM_002.jpg
2372.546	0.543	1	repeat	Run3	repeat/STIM_002.jpg
2375.54	1.019	1	repeat	Run3	repeat/STIM_002.jpg
2379.998	0.75	1	repeat	Run3	repeat/STIM_003.jpg
2384.271	0.652	1	repeat	Run3	repeat/STIM_003.jpg
2388.543	0.704	1	repeat	Run3	repeat/STIM_003.jpg
2391.636	0.861	1	repeat	Run3	repeat/STIM_003.jpg
2396.131	0.688	1	repeat	Run3	repeat/STIM_003.jpg
2399.605	0.95	1	repeat	Run3	repeat/STIM_004.jpg
2402.881	0.55	1	repeat	Run3	repeat/STIM_004.jpg
2406.709	0.838	1	repeat	Run3	repeat/STIM_004.jpg
2409.555	0.822	1	repeat	Run3	repeat/STIM_004.jpg
2412.936	0.918	1	repeat	Run3	repeat/STIM_004.jpg
2417.274	0.934	1	repeat	Run3	repeat/STIM_005.jpg
2421.829	0.756	1	repeat	Run3	repeat/STIM_005.jpg
2425.14	0.853	1	repeat	Run3	repeat/STIM_005.jpg
2429.786	0.854	1	repeat	Run3	repeat/STIM_005.jpg
2434.447	0.72	1	repeat	Run3	repeat/STIM_005.jpg
2438.144	0.888	1	repeat	Run3	repeat/STIM_006.jpg
2441.238	1.015	1	repeat	Run3	repeat/STIM_006.jpg
2444.722	0.652	1	repeat	Run3	repeat/STIM_006.jpg
2449.225	0.831	1	repeat	Run3	repeat/STIM_006.jpg
2452.05	0.566	1	repeat	Run3	repeat/STIM_006.jpg
2455.425	0.734	1	repeat	Run3	repeat/STIM_007.jpg
2458.444	0.87	1	repeat	Run3	repeat/STIM_007.jpg
2462.528	0.482	1	repeat	Run3	repeat/STIM_007.jpg
2465.297	1.082	1	repeat	Run3	repeat/STIM_007.jpg
2469.865	0.95	1	repeat	Run3	repeat/STIM_007.jpg
2473.494	0.598	1	repeat	Run3	repeat/STIM_008.jpg
2477.035	0.551	1	repeat	Run3	repeat/STIM_008.jpg
2480.518	0.672	1	repeat	Run3	repeat/STIM_008.jpg
2483.842	0.544	1	repeat	Run3	repeat/STIM_008.jpg
2487.164	0.904	1	repeat	Run3	repeat/STIM_008.jpg
2491.305	0.926	1	repeat	Run3	repeat/STIM_009.jpg
2494.719	0.968	1	repeat	Run3	repeat/STIM_009.jpg
2499.287	0.545	1	repeat	Run3	repeat/STIM_009.jpg
2502.635	0.799	1	repeat	Run3	repeat/STIM_009.jpg
2507.037	1.067	1	repeat	Run3	repeat/STIM_009.jpg
2510.116	0.683	1	repeat	Run3	repeat/STIM_010.jpg
2514.723	0.779	1	repeat	Run3	repeat/STIM_010.jpg
2518.07	0.69	1	repeat	Run3	repeat/STIM_010.jpg
2521.261	0.928	1	repeat	Run3	repeat/STIM_010.jpg
2525.936	0.896	1	repeat	Run3	repeat/STIM_010.jpg
2529.345	0.596	1	repeat	Run3	repeat/STIM_011.jpg
2533.484	0.978	1	repeat	Run3	repeat/STIM_011.jpg
2536.636	0.678	1	repeat	Run3	repeat/STIM_011.jpg
2539.873	0.872	1	repeat	Run3	repeat/STIM_011.jpg
2543.095	0.915	1	repeat	Run3	repeat/STIM_011.jpg
2546.721	0.977	1	repeat	Run3	repeat/STIM_012.jpg
2549.708	0.625	1	repeat	Run3	repeat/STIM_012.jpg
2554.044	0.904	1	repeat	Run3	repeat/STIM_012.jpg
2556.904	0.721	1	repeat	Run3	repeat/STIM_012.jpg
2560.115	0.578	1	repeat	Run3	repeat/STIM_012.jpg
2563.711	0.575	1	repeat	Run3	repeat/STIM_013.jpg
2566.273	0.848	1	repeat	Run3	repeat/STIM_013.jpg
2570.926	0.594	1	repeat	Run3	repeat/STIM_013.jpg
2575.313	0.769	1	repeat	Run3	repeat/STIM_013.jpg
2578.802	0.568	1	repeat	Run3	repeat/STIM_013.jpg
2581.593	0.826	0	repeat	Run3	repeat/STIM_014.jpg
2585.154	0.606	0	repeat	Run3	repeat/STIM_014.jpg
2588.938	0.539	0	repeat	Run3	repeat/STIM_014.jpg
2592.742	0.929	1	repeat	Run3	repeat/STIM_014.jpg
2596.488	1.048	1	repeat	Run3	repeat/STIM_014.jpg
2600.841	1.699	1	generate	Run4	generate/STIM_000.jpg
2604.94	1.146	1	generate	Run4	generate/STIM_000.jpg
2609.116	1.389	1	generate	Run4	generate/STIM_000.jpg
2612.852	1.343	1	generate	Run4	generate/STIM_000.jpg
2618.182	1.89	1	generate	Run4	generate/STIM_000.jpg
2623.681	1.588	1	generate	Run4	generate/STIM_001.jpg
2629.049	1.817	1	generate	Run4	generate/STIM_001.jpg
2632.83	2.145	1	generate	Run4	generate/STIM_001.jpg
2638.02	2.156	1	generate	Run4	generate/STIM_001.jpg
2642.486	1.486	1	generate	Run4	generate/STIM_001.jpg
2646.344	2.02	1	generate	Run4	generate/STIM_002.jpg
2651.345	0.983	1	generate	Run4	generate/STIM_002.jpg
2656.184	1.374	1	generate	Run4	generate/STIM_002.jpg
2660.032	1.177	1	generate	Run4	generate/STIM_002.jpg
2663.846	1.336	1	generate	Run4	generate/STIM_002.jpg
2668.05	1.632	1	generate	Run4	generate/STIM_003.jpg
2671.773	1.854	1	generate	Run4	generate/STIM_003.jpg
2676.627	0.964	1	generate	Run4	generate/STIM_003.jpg
2680.822	1.466	0	generate	Run4	generate/STIM_003.jpg
2684.782	1.047	1	generate	Run4	generate/STIM_003.jpg
2687.805	2.12	1	generate	Run4	generate/STIM_004.jpg
2693.662	1.385	1	generate	Run4	generate/STIM_004.jpg
2697.666	1.001	1	generate	Run4	generate/STIM_004.jpg
2701.092	1.896	1	generate	Run4	generate/STIM_004.jpg
2705.762	0.958	1	generate	Run4	generate/STIM_004.jpg
2710.2	1.2	1	generate	Run4	generate/STIM_005.jpg
2713.652	1.856	1	generate	Run4	generate/STIM_005.jpg
2719.308	1.585	1	generate	Run4	generate/STIM_005.jpg
2723.974	0.932	1	generate	Run4	generate/STIM_005.jpg
2728.738	1.879	1	generate	Run4	generate/STIM_005.jpg
2733.678	2.105	1	generate	Run4	generate/STIM_006.jpg
2739.135	1.942	1	generate	Run4	generate/STIM_006.jpg
2743.193	1.686	1	generate	Run4	generate/STIM_006.jpg
2747.516	1.982	1	generate	Run4	generate/STIM_006.jpg
2752.113	2.039	1	generate	Run4	generate/STIM_006.jpg
2757.936	1.657	1	generate	Run4	generate/STIM_007.jpg
2762.198	2.093	1	generate	Run4	generate/STIM_007.jpg
2767.355	2.192	1	generate	Run4	generate/STIM_007.jpg
2772.938	1.458	1	generate	Run4	generate/STIM_007.jpg
2776.808	1.981	1	generate	Run4	generate/STIM_007.jpg
2781.936	1.084	1	generate	Run4	generate/STIM_008.jpg
2785.463	1.128	1	generate	Run4	generate/STIM_008.jpg
2789.654	1.441	1	generate	Run4	generate/STIM_008.jpg
2793.459	1.427	1	generate	Run4	generate/STIM_008.jpg
2798.253	1.195	1	generate	Run4	generate/STIM_008.jpg
2803.353	1.449	1	generate	Run4	generate/STIM_009.jpg
2807.417	1.3	1	generate	Run4	generate/STIM_009.jpg
2812.129	0.997	1	generate	Run4	generate/STIM_009.jpg
2816.404	1.35	1	generate	Run4	generate/STIM_009.jpg
2820.56	0.797	1	generate	Run4	generate/STIM_009.jpg
2824.868	0.801	1	generate	Run4	generate/STIM_010.jpg
2829.202	0.867	1	generate	Run4	generate/STIM_010.jpg
2833.188	1.73	1	generate	Run4	generate/STIM_010.jpg
2837.4	1.508	1	generate	Run4	generate/STIM_010.jpg
2842.653	1.312	1	generate	Run4	generate/STIM_010.jpg
2846.628	1.874	1	generate	Run4	generate/STIM_011.jpg
2851.051	1.821	1	generate	Run4	generate/STIM_011.jpg
2856.634	1.005	0	generate	Run4	generate/STIM_011.jpg
2860.937	0.966	1	generate	Run4	generate/STIM_011.jpg
2865.68	1.206	1	generate	Run4	generate/STIM_011.jpg
2869.324	1.748	1	generate	Run4	generate/STIM_012.jpg
2873.447	2.148	1	generate	Run4	generate/STIM_012.jpg
2878.229	1.081	1	generate	Run4	generate/STIM_012.jpg
2882.12	1.733	1	generate	Run4	generate/STIM_012.jpg
2886.168	1.256	1	generate	Run4	generate/STIM_012.jpg
2891.335	1.03	1	generate	Run4	generate/STIM_013.jpg
2894.926	1.463	1	generate	Run4	generate/STIM_013.jpg
2900.262	1.242	1	generate	Run4	generate/STIM_013.jpg
2904.036	0.932	1	generate	Run4	generate/STIM_013.jpg
2908.771	0.898	1	generate	Run4	generate/STIM_013.jpg
2913.648	2.05	1	generate	Run4	generate/STIM_014.jpg
2917.756	0.867	1	generate	Run4	generate/STIM_014.jpg
2921.545	1.5	1	generate	Run4	generate/STIM_014.jpg
2925.079	1.714	1	generate	Run4	generate/STIM_014.jpg
2930.502	1.612	1	generate	Run4	generate/STIM_014.jpg
2934.611	2.16	1	generate	Run4	generate/STIM_015.jpg
2939.319	2.174	1	generate	Run4	generate/STIM_015.jpg
2945.182	1.725	1	generate	Run4	generate/STIM_015.jpg
2949.632	1.853	1	generate	Run4	generate/STIM_015.jpg
2955.036	0.852	1	generate	Run4	generate/STIM_015.jpg
2959.876	2.011	1	generate	Run4	generate/STIM_016.jpg
2964.823	0.938	1	generate	Run4	generate/STIM_016.jpg
2967.897	1.16	1	generate	Run4	generate/STIM_016.jpg
2971.25	2.135	1	generate	Run4	generate/STIM_016.jpg
2977.14	1.223	1	generate	Run4	generate/STIM_016.jpg
2981.124	0.879	1	generate	Run4	generate/STIM_017.jpg
2985.725	1.523	1	generate	Run4	generate/STIM_017.jpg
2990.787	1.351	1	generate	Run4	generate/STIM_017.jpg
2995.212	1.656	1	generate	Run4	generate/STIM_017.jpg
2999.783	1.841	1	generate	Run4	generate/STIM_017.jpg
3005.204	0.963	1	generate	Run4	generate/STIM_018.jpg
3008.954	0.945	1	generate	Run4	generate/STIM_018.jpg
3013.03	1.181	1	generate	Run4	generate/STIM_018.jpg
3016.413	1.305	1	generate	Run4	generate/STIM_018.jpg
3020.773	1.433	1	generate	Run4	generate/STIM_018.jpg
3025.871	1.352	1	generate	Run4	generate/STIM_019.jpg
3030.479	1.666	1	generate	Run4	generate/STIM_019.jpg
3035.403	1.941	1	generate	Run4	generate/STIM_019.jpg
3040.105	2.088	1	generate	Run4	generate/STIM_019.jpg
3045.851	1.542	1	generate	Run4	generate/STIM_019.jpg
3050.712	0.942	1	generate	Run4	generate/STIM_020.jpg
3055.573	0.936	1	generate	Run4	generate/STIM_020.jpg
3059.901	1.269	1	generate	Run4	generate/STIM_020.jpg
3063.169	1.177	1	generate	Run4	generate/STIM_020.jpg
3068.059	1.51	1	generate	Run4	generate/STIM_020.jpg
3073.197	1.107	1	generate	Run4	generate/STIM_021.jpg
3076.982	1.937	1	generate	Run4	generate/STIM_021.jpg
3082.22	1.71	1	generate	Run4	generate/STIM_021.jpg
3087.472	1.917	1	generate	Run4	generate/STIM_021.jpg
3093.089	1.054	1	generate	Run4	generate/STIM_021.jpg
3098.062	1.875	1	generate	Run4	generate/STIM_022.jpg
3101.926	2.093	1	generate	Run4	generate/STIM_022.jpg
3107.884	1.456	0	generate	Run4	generate/STIM_022.jpg
3112.344	1.154	1	generate	Run4	generate/STIM_022.jpg
3117.075	1.304	1	generate	Run4	generate/STIM_022.jpg
3122.331	0.973	1	generate	Run4	generate/STIM_023.jpg
3125.904	1.665	1	generate	Run4	generate/STIM_023.jpg
3129.498	0.925	1	generate	Run4	generate/STIM_023.jpg
3134.135	2.077	1	generate	Run4	generate/STIM_023.jpg
3139.402	0.932	1	generate	Run4	generate/STIM_023.jpg
3143.184	1.599	1	generate	Run4	generate/STIM_024.jpg
3148.642	1.857	1	generate	Run4	generate/STIM_024.jpg
3153.061	1.745	1	generate	Run4	generate/STIM_024.jpg
3157.204	1.802	1	generate	Run4	generate/STIM_024.jpg
3162.113	2.036	1	generate	Run4	generate/STIM_024.jpg
3167.618	0.826	1	repeat	Run4	repeat/STIM_000.jpg
3172.332	0.881	1	repeat	Run4	repeat/STIM_000.jpg
3176.665	0.846	1	repeat	Run4	repeat/STIM_000.jpg
3179.827	0.774	1	repeat	Run4	repeat/STIM_000.jpg
3183.216	0.706	1	repeat	Run4	repeat/STIM_000.jpg
3187.136	0.466	0	repeat	Run4	repeat/STIM_001.jpg
3191.612	0.819	1	repeat	Run4	repeat/STIM_001.jpg
3194.662	0.868	1	repeat	Run4	repeat/STIM_001.jpg
3199.089	0.951	1	repeat	Run4	repeat/STIM_001.jpg
3203.506	0.789	1	repeat	Run4	repeat/STIM_001.jpg
3207.539	0.578	1	repeat	Run4	repeat/STIM_002.jpg
3210.727	0.923	1	repeat	Run4	repeat/STIM_002.jpg
3213.55	0.808	1	repeat	Run4	repeat/STIM_002.jpg
3217.564	0.869	1	repeat	Run4	repeat/STIM_002.jpg
3221.979	0.429	1	repeat	Run4	repeat/STIM_002.jpg
3225.82	0.875	1	repeat	Run4	repeat/STIM_003.jpg
3229.641	0.892	0	repeat	Run4	repeat/STIM_003.jpg
3232.922	0.576	1	repeat	Run4	repeat/STIM_003.jpg
3237.445	0.509	1	repeat	Run4	repeat/STIM_003.jpg
3240.095	0.91	1	repeat	Run4	repeat/STIM_003.jpg
3244.819	0.808	1	repeat	Run4	repeat/STIM_004.jpg
3248.67	0.5	1	repeat	Run4	repeat/STIM_004.jpg
3251.346	1.065	1	repeat	Run4	repeat/STIM_004.jpg
3254.358	0.82	1	repeat	Run4	repeat/STIM_004.jpg
3258.807	0.65	1	repeat	Run4	repeat/STIM_004.jpg
3262.216	0.907	1	repeat	Run4	repeat/STIM_005.jpg
3267.016	1.056	1	repeat	Run4	repeat/STIM_005.jpg
3271.093	0.731	1	repeat	Run4	repeat/STIM_005.jpg
3273.889	0.969	1	repeat	Run4	repeat/STIM_005.jpg
3278.057	0.915	1	repeat	Run4	repeat/STIM_005.jpg
3282.821	0.616	1	repeat	Run4	repeat/STIM_006.jpg
3287.049	0.642	1	repeat	Run4	repeat/STIM_006.jpg
3290.627	0.563	1	repeat	Run4	repeat/STIM_006.jpg
3293.268	0.59	1	repeat	Run4	repeat/STIM_006.jpg
3296.781	0.948	1	repeat	Run4	repeat/STIM_006.jpg
3301.318	0.988	1	repeat	Run4	repeat/STIM_007.jpg
3304.273	0.753	1	repeat	Run4	repeat/STIM_007.jpg
3307.764	0.627	1	repeat	Run4	repeat/STIM_007.jpg
3311.042	0.919	1	repeat	Run4	repeat/STIM_007.jpg
3314.783	0.977	1	repeat	Run4	repeat/STIM_007.jpg
3318.917	0.605	1	repeat	Run4	repeat/STIM_008.jpg
3322.666	0.665	0	repeat	Run4	repeat/STIM_008.jpg
3325.328	0.925	1	repeat	Run4	repeat/STIM_008.jpg
3328.976	0.476	1	repeat	Run4	repeat/STIM_008.jpg
3333.309	0.632	1	repeat	Run4	repeat/STIM_008.jpg
3337.046	0.947	1	repeat	Run4	repeat/STIM_009.jpg
3340.272	0.556	1	repeat	Run4	repeat/STIM_009.jpg
3343.112	0.767	1	repeat	Run4	repeat/STIM_009.jpg
3346.979	0.883	1	repeat	Run4	repeat/STIM_009.jpg
3350.215	0.947	1	repeat	Run4	repeat/STIM_009.jpg
3353.466	0.713	1	repeat	Run4	repeat/STIM_010.jpg
3356.483	0.75	1	repeat	Run4	repeat/STIM_010.jpg
3360.838	0.649	0	repeat	Run4	repeat/STIM_010.jpg
3363.63	0.471	1	repeat	Run4	repeat/STIM_010.jpg
3367.111	0.649	1	repeat	Run4	repeat/STIM_010.jpg
3370.192	0.519	1	repeat	Run4	repeat/STIM_011.jpg
3373.233	0.964	1	repeat	Run4	repeat/STIM_011.jpg
3378.134	0.994	1	repeat	Run4	repeat/STIM_011.jpg
3381.59	0.696	1	repeat	Run4	repeat/STIM_011.jpg
3385.986	0.505	1	repeat	Run4	repeat/STIM_011.jpg
3389.951	0.623	1	repeat	Run4	repeat/STIM_012.jpg
3394.007	0.711	1	repeat	Run4	repeat/STIM_012.jpg
3398.543	0.788	1	repeat	Run4	repeat/STIM_012.jpg
3401.383	0.776	1	repeat	Run4	repeat/STIM_012.jpg
3404.529	0.619	1	repeat	Run4	repeat/STIM_012.jpg
3407.822	0.944	1	repeat	Run4	repeat/STIM_013.jpg
3412.117	0.944	1	repeat	Run4	repeat/STIM_013.jpg
3416.493	0.538	1	repeat	Run4	repeat/STIM_013.jpg
3420.989	0.979	1	repeat	Run4	repeat/STIM_013.jpg
3424.686	0.714	0	repeat	Run4	repeat/STIM_013.jpg
3429.088	0.621	1	repeat	Run4	repeat/STIM_014.jpg
3433.447	0.792	0	repeat	Run4	repeat/STIM_014.jpg
3437.127	0.854	1	repeat	Run4	repeat/STIM_014.jpg
3441.764	0.536	1	repeat	Run4	repeat/STIM_014.jpg
3446.123	0.677	1	repeat	Run4	repeat/STIM_014.jpg
