onset	duration	response_time_ms	trial_type	learning_stage	stimulus	response_port
0.0	2.456	2455.8	generate	Run1	generate/STIM_000.jpg	99
5.797	2.855	2855.1	generate	Run1	generate/STIM_000.jpg	99
12.216	1.942	1941.8	generate	Run1	generate/STIM_000.jpg	99
17.745	1.603	1603.0	generate	Run1	generate/STIM_000.jpg	99
21.424	2.063	2062.6	generate	Run1	generate/STIM_000.jpg	100
25.864	2.625	2625.0	generate	Run1	generate/STIM_001.jpg	100
30.926	2.184	2184.2	generate	Run1	generate/STIM_001.jpg	99
35.583	2.619	2618.9	generate	Run1	generate/STIM_001.jpg	99
40.42	2.127	2127.3	generate	Run1	generate/STIM_001.jpg	100
46.368	2.31	2310.0	generate	Run1	generate/STIM_001.jpg	100
51.769	2.321	2321.3	generate	Run1	generate/STIM_002.jpg	100
58.093	2.825	2824.8	generate	Run1	generate/STIM_002.jpg	100
63.844	1.806	1805.7	generate	Run1	generate/STIM_002.jpg	100
68.084	1.29	1290.3	generate	Run1	generate/STIM_002.jpg	100
71.544	1.319	1318.9	generate	Run1	generate/STIM_002.jpg	100
76.743	2.821	2821.2	generate	Run1	generate/STIM_003.jpg	99
82.391	2.491	2491.3	generate	Run1	generate/STIM_003.jpg	100
88.163	1.476	1475.5	generate	Run1	generate/STIM_003.jpg	100
92.991	1.54	1539.5	generate	Run1	generate/STIM_003.jpg	99
97.406	1.286	1286.3	generate	Run1	generate/STIM_003.jpg	100
102.335	2.817	2817.1	generate	Run1	generate/STIM_004.jpg	100
108.651	2.536	2536.4	generate	Run1	generate/STIM_004.jpg	99
113.474	1.327	1327.0	generate	Run1	generate/STIM_004.jpg	99
118.014	2.357	2356.9	generate	Run1	generate/STIM_004.jpg	100
122.907	1.964	1963.5	generate	Run1	generate/STIM_004.jpg	100
126.792	1.521	1521.3	generate	Run1	generate/STIM_005.jpg	99
132.216	2.2	2200.3	generate	Run1	generate/STIM_005.jpg	100
138.255	2.308	2308.2	generate	Run1	generate/STIM_005.jpg	100
143.974	2.057	2057.3	generate	Run1	generate/STIM_005.jpg	99
148.122	1.218	1217.6	generate	Run1	generate/STIM_005.jpg	100
151.647	1.939	1938.8	generate	Run1	generate/STIM_006.jpg	99
156.198	1.73	1730.2	generate	Run1	generate/STIM_006.jpg	100
161.623	2.219	2218.6	generate	Run1	generate/STIM_006.jpg	99
166.034	2.098	2098.0	generate	Run1	generate/STIM_006.jpg	100
171.568	2.194	2193.9	generate	Run1	generate/STIM_006.jpg	99
177.623	1.61	1609.8	generate	Run1	generate/STIM_007.jpg	100
182.614	2.672	2672.1	generate	Run1	generate/STIM_007.jpg	99
187.912	2.434	2434.4	generate	Run1	generate/STIM_007.jpg	99
194.234	2.408	2407.5	generate	Run1	generate/STIM_007.jpg	100
199.477	2.419	2418.8	generate	Run1	generate/STIM_007.jpg	99
204.099	2.219	2218.8	generate	Run1	generate/STIM_008.jpg	100
209.546	1.774	1773.5	generate	Run1	generate/STIM_008.jpg	99
213.481	2.015	2015.1	generate	Run1	generate/STIM_008.jpg	100
219.186	2.392	2392.0	generate	Run1	generate/STIM_008.jpg	100
224.005	2.153	2153.2	generate	Run1	generate/STIM_008.jpg	100
229.733	1.995	1995.1	generate	Run1	generate/STIM_009.jpg	100
234.166	1.587	1586.8	generate	Run1	generate/STIM_009.jpg	99
237.774	2.179	2178.6	generate	Run1	generate/STIM_009.jpg	100
242.816	2.407	2407.0	generate	Run1	generate/STIM_009.jpg	100
248.358	1.008	1008.0	generate	Run1	generate/STIM_009.jpg	100
252.854	2.32	2320.2	generate	Run1	generate/STIM_010.jpg	99
258.111	1.556	1555.6	generate	Run1	generate/STIM_010.jpg	99
261.791	1.934	1934.2	generate	Run1	generate/STIM_010.jpg	100
267.023	2.331	2331.3	generate	Run1	generate/STIM_010.jpg	100
273.034	1.858	1857.6	generate	Run1	generate/STIM_010.jpg	99
277.666	2.635	2635.3	generate	Run1	generate/STIM_011.jpg	99
282.725	1.347	1347.4	generate	Run1	generate/STIM_011.jpg	99
287.959	1.4	1399.9	generate	Run1	generate/STIM_011.jpg	100
293.333	1.516	1515.9	generate	Run1	generate/STIM_011.jpg	99
298.541	2.4	2400.3	generate	Run1	generate/STIM_011.jpg	100
303.024	1.885	1885.1	generate	Run1	generate/STIM_012.jpg	100
308.607	2.028	2027.9	generate	Run1	generate/STIM_012.jpg	100
314.243	1.37	1369.5	generate	Run1	generate/STIM_012.jpg	99
317.684	2.103	2103.4	generate	Run1	generate/STIM_012.jpg	99
322.208	1.701	1700.6	generate	Run1	generate/STIM_012.jpg	99
327.494	1.596	1595.8	generate	Run1	generate/STIM_013.jpg	99
332.646	1.762	1762.3	generate	Run1	generate/STIM_013.jpg	99
336.463	1.535	1535.1	generate	Run1	generate/STIM_013.jpg	99
340.776	1.255	1255.1	generate	Run1	generate/STIM_013.jpg	99
345.672	1.113	1113.2	generate	Run1	generate/STIM_013.jpg	100
350.15	1.314	1313.8	generate	Run1	generate/STIM_014.jpg	99
354.949	2.476	2475.6	generate	Run1	generate/STIM_014.jpg	100
361.178	1.311	1310.7	generate	Run1	generate/STIM_014.jpg	99
365.489	1.602	1602.1	generate	Run1	generate/STIM_014.jpg	100
369.546	1.833	1833.3	generate	Run1	generate/STIM_014.jpg	99
373.727	1.481	1480.6	generate	Run1	generate/STIM_015.jpg	99
378.716	2.658	2658.2	generate	Run1	generate/STIM_015.jpg	100
384.899	2.088	2088.4	generate	Run1	generate/STIM_015.jpg	100
390.59	2.243	2243.4	generate	Run1	generate/STIM_015.jpg	99
396.706	2.329	2328.8	generate	Run1	generate/STIM_015.jpg	100
401.103	1.482	1482.0	generate	Run1	generate/STIM_016.jpg	100
404.896	2.805	2805.1	generate	Run1	generate/STIM_016.jpg	99
410.036	2.313	2313.3	generate	Run1	generate/STIM_016.jpg	99
416.018	1.397	1396.6	generate	Run1	generate/STIM_016.jpg	99
420.552	1.137	1137.0	generate	Run1	generate/STIM_016.jpg	99
424.668	1.963	1963.2	generate	Run1	generate/STIM_017.jpg	99
428.977	1.548	1547.6	generate	Run1	generate/STIM_017.jpg	100
433.769	1.87	1869.8	generate	Run1	generate/STIM_017.jpg	99
438.718	2.595	2595.3	generate	Run1	generate/STIM_017.jpg	99
443.48	1.092	1092.2	generate	Run1	generate/STIM_017.jpg	100
447.853	2.42	2420.3	generate	Run1	generate/STIM_018.jpg	100
452.879	1.748	1748.1	generate	Run1	generate/STIM_018.jpg	100
458.321	2.78	2779.9	generate	Run1	generate/STIM_018.jpg	100
463.847	1.616	1616.3	generate	Run1	generate/STIM_018.jpg	99
467.977	1.552	1552.5	generate	Run1	generate/STIM_018.jpg	100
472.634	1.346	1346.1	generate	Run1	generate/STIM_019.jpg	100
476.097	1.881	1881.4	generate	Run1	generate/STIM_019.jpg	99
481.426	2.379	2378.8	generate	Run1	generate/STIM_019.jpg	99
486.411	1.514	1513.8	generate	Run1	generate/STIM_019.jpg	99
490.936	2.402	2402.4	generate	Run1	generate/STIM_019.jpg	99
496.999	2.84	2839.9	generate	Run1	generate/STIM_020.jpg	100
503.445	1.814	1813.8	generate	Run1	generate/STIM_020.jpg	99
508.145	1.507	1507.1	generate	Run1	generate/STIM_020.jpg	100
513.592	2.249	2248.7	generate	Run1	generate/STIM_020.jpg	100
519.548	1.385	1385.3	generate	Run1	generate/STIM_020.jpg	99
524.646	2.096	2095.9	generate	Run1	generate/STIM_021.jpg	100
530.425	2.319	2318.9	generate	Run1	generate/STIM_021.jpg	99
536.055	2.02	2020.1	generate	Run1	generate/STIM_021.jpg	100
541.971	2.021	2021.4	generate	Run1	generate/STIM_021.jpg	99
547.837	1.9	1900.0	generate	Run1	generate/STIM_021.jpg	99
552.213	1.457	1457.0	generate	Run1	generate/STIM_022.jpg	100
556.684	2.624	2624.3	generate	Run1	generate/STIM_022.jpg	99
562.618	1.532	1532.0	generate	Run1	generate/STIM_022.jpg	100
567.076	1.142	1141.9	generate	Run1	generate/STIM_022.jpg	99
571.553	1.782	1781.7	generate	Run1	generate/STIM_022.jpg	99
576.024	2.989	2989.4	generate	Run1	generate/STIM_023.jpg	99
582.241	1.479	1479.2	generate	Run1	generate/STIM_023.jpg	100
586.694	1.985	1985.4	generate	Run1	generate/STIM_023.jpg	99
591.537	1.923	1922.9	generate	Run1	generate/STIM_023.jpg	100
595.862	2.347	2346.9	generate	Run1	generate/STIM_023.jpg	100
601.047	2.496	2495.8	generate	Run1	generate/STIM_024.jpg	99
606.325	1.763	1763.3	generate	Run1	generate/STIM_024.jpg	99
611.887	2.497	2497.4	generate	Run1	generate/STIM_024.jpg	99
617.987	2.208	2208.2	generate	Run1	generate/STIM_024.jpg	99
622.933	1.723	1723.3	generate	Run1	generate/STIM_024.jpg	100
627.669	0.593	593.3	repeat	Run1	repeat/STIM_000.jpg	100
631.163	0.682	681.5	repeat	Run1	repeat/STIM_000.jpg	99
634.401	0.968	968.3	repeat	Run1	repeat/STIM_000.jpg	99
637.269	0.913	912.8	repeat	Run1	repeat/STIM_000.jpg	99
641.613	1.014	1013.8	repeat	Run1	repeat/STIM_000.jpg	100
645.624	0.993	993.1	repeat	Run1	repeat/STIM_001.jpg	99
649.945	0.882	881.9	repeat	Run1	repeat/STIM_001.jpg	100
654.081	0.642	642.4	repeat	Run1	repeat/STIM_001.jpg	99
657.269	0.806	805.7	repeat	Run1	repeat/STIM_001.jpg	99
661.195	0.677	677.2	repeat	Run1	repeat/STIM_001.jpg	100
664.792	0.902	902.1	repeat	Run1	repeat/STIM_002.jpg	99
667.935	0.916	915.9	repeat	Run1	repeat/STIM_002.jpg	100
671.415	0.959	959.4	repeat	Run1	repeat/STIM_002.jpg	99
674.878	0.747	746.9	repeat	Run1	repeat/STIM_002.jpg	100
678.351	0.847	847.0	repeat	Run1	repeat/STIM_002.jpg	100
681.281	0.708	708.0	repeat	Run1	repeat/STIM_003.jpg	99
684.051	0.787	786.7	repeat	Run1	repeat/STIM_003.jpg	99
688.175	0.895	895.1	repeat	Run1	repeat/STIM_003.jpg	100
691.085	0.556	556.3	repeat	Run1	repeat/STIM_003.jpg	99
694.819	0.667	667.0	repeat	Run1	repeat/STIM_003.jpg	100
699.381	0.981	981.0	repeat	Run1	repeat/STIM_004.jpg	100
702.47	0.606	606.2	repeat	Run1	repeat/STIM_004.jpg	100
705.932	0.782	782.1	repeat	Run1	repeat/STIM_004.jpg	100
709.665	0.576	575.5	repeat	Run1	repeat/STIM_004.jpg	99
713.782	0.696	696.0	repeat	Run1	repeat/STIM_004.jpg	100
717.028	0.848	848.1	repeat	Run1	repeat/STIM_005.jpg	100
719.836	0.716	716.3	repeat	Run1	repeat/STIM_005.jpg	99
723.284	0.53	530.2	repeat	Run1	repeat/STIM_005.jpg	100
726.229	0.919	918.7	repeat	Run1	repeat/STIM_005.jpg	100
729.889	1.044	1043.6	repeat	Run1	repeat/STIM_005.jpg	100
734.769	0.737	736.9	repeat	Run1	repeat/STIM_006.jpg	99
737.649	0.728	728.1	repeat	Run1	repeat/STIM_006.jpg	100
740.637	0.941	941.3	repeat	Run1	repeat/STIM_006.jpg	100
744.942	0.658	658.1	repeat	Run1	repeat/STIM_006.jpg	99
747.813	0.766	766.1	repeat	Run1	repeat/STIM_006.jpg	99
751.37	0.581	580.9	repeat	Run1	repeat/STIM_007.jpg	100
754.37	1.0	1000.1	repeat	Run1	repeat/STIM_007.jpg	99
757.785	0.978	977.9	repeat	Run1	repeat/STIM_007.jpg	100
761.364	0.791	791.2	repeat	Run1	repeat/STIM_007.jpg	99
765.987	0.623	622.8	repeat	Run1	repeat/STIM_007.jpg	100
769.615	0.81	810.5	repeat	Run1	repeat/STIM_008.jpg	100
772.985	0.75	750.0	repeat	Run1	repeat/STIM_008.jpg	99
776.272	0.965	964.7	repeat	Run1	repeat/STIM_008.jpg	100
780.517	0.536	536.2	repeat	Run1	repeat/STIM_008.jpg	100
784.546	0.818	818.5	repeat	Run1	repeat/STIM_008.jpg	100
788.84	0.929	929.0	repeat	Run1	repeat/STIM_009.jpg	100
792.233	0.802	802.3	repeat	Run1	repeat/STIM_009.jpg	99
795.668	0.751	751.4	repeat	Run1	repeat/STIM_009.jpg	100
799.075	0.828	827.7	repeat	Run1	repeat/STIM_009.jpg	100
803.502	0.749	749.0	repeat	Run1	repeat/STIM_009.jpg	99
807.99	0.89	890.0	repeat	Run1	repeat/STIM_010.jpg	100
812.248	0.654	654.5	repeat	Run1	repeat/STIM_010.jpg	100
815.871	0.702	701.6	repeat	Run1	repeat/STIM_010.jpg	100
819.347	0.637	636.9	repeat	Run1	repeat/STIM_010.jpg	100
822.938	0.676	675.5	repeat	Run1	repeat/STIM_010.jpg	99
827.456	0.735	734.7	repeat	Run1	repeat/STIM_011.jpg	99
831.707	0.707	706.6	repeat	Run1	repeat/STIM_011.jpg	99
836.272	0.763	763.0	repeat	Run1	repeat/STIM_011.jpg	99
840.042	0.94	939.8	repeat	Run1	repeat/STIM_011.jpg	99
843.28	0.9	900.4	repeat	Run1	repeat/STIM_011.jpg	100
847.146	0.698	698.5	repeat	Run1	repeat/STIM_012.jpg	99
850.566	0.596	595.8	repeat	Run1	repeat/STIM_012.jpg	99
853.436	0.912	912.5	repeat	Run1	repeat/STIM_012.jpg	100
857.021	0.612	612.0	repeat	Run1	repeat/STIM_012.jpg	100
860.192	0.479	479.2	repeat	Run1	repeat/STIM_012.jpg	100
864.386	0.811	810.9	repeat	Run1	repeat/STIM_013.jpg	99
867.555	0.821	821.1	repeat	Run1	repeat/STIM_013.jpg	100
870.863	0.811	810.6	repeat	Run1	repeat/STIM_013.jpg	99
875.152	1.05	1049.8	repeat	Run1	repeat/STIM_013.jpg	100
879.833	0.474	474.0	repeat	Run1	repeat/STIM_013.jpg	100
883.797	0.559	558.6	repeat	Run1	repeat/STIM_014.jpg	99
886.825	0.638	637.8	repeat	Run1	repeat/STIM_014.jpg	99
889.675	0.668	668.5	repeat	Run1	repeat/STIM_014.jpg	100
892.444	0.494	493.5	repeat	Run1	repeat/STIM_014.jpg	99
895.744	0.745	744.9	repeat	Run1	repeat/STIM_014.jpg	99
900.342	1.498	1498.5	generate	Run2	generate/STIM_000.jpg	99
905.457	2.182	2181.8	generate	Run2	generate/STIM_000.jpg	100
910.165	1.997	1996.8	generate	Run2	generate/STIM_000.jpg	99
914.752	1.037	1037.3	generate	Run2	generate/STIM_000.jpg	100
918.862	1.476	1475.8	generate	Run2	generate/STIM_000.jpg	100
922.432	1.715	1714.6	generate	Run2	generate/STIM_001.jpg	99
927.097	1.048	1047.7	generate	Run2	generate/STIM_001.jpg	99
930.308	1.428	1428.5	generate	Run2	generate/STIM_001.jpg	100
934.422	2.09	2090.3	generate	Run2	generate/STIM_001.jpg	99
939.561	1.966	1966.3	generate	Run2	generate/STIM_001.jpg	99
944.311	2.363	2363.0	generate	Run2	generate/STIM_002.jpg	100
949.178	2.305	2305.1	generate	Run2	generate/STIM_002.jpg	99
955.088	1.023	1022.6	generate	Run2	generate/STIM_002.jpg	99
958.343	1.555	1555.3	generate	Run2	generate/STIM_002.jpg	99
962.894	1.044	1044.5	generate	Run2	generate/STIM_002.jpg	100
967.403	2.229	2228.6	generate	Run2	generate/STIM_003.jpg	99
972.072	2.396	2396.2	generate	Run2	generate/STIM_003.jpg	100
977.944	1.902	1901.9	generate	Run2	generate/STIM_003.jpg	99
983.458	2.049	2049.0	generate	Run2	generate/STIM_003.jpg	99
988.057	1.74	1740.3	generate	Run2	generate/STIM_003.jpg	99
992.107	1.857	1856.7	generate	Run2	generate/STIM_004.jpg	100
997.873	1.462	1461.9	generate	Run2	generate/STIM_004.jpg	99
1002.814	1.896	1895.9	generate	Run2	generate/STIM_004.jpg	99
1007.427	1.112	1111.9	generate	Run2	generate/STIM_004.jpg	100
1010.556	2.129	2129.4	generate	Run2	generate/STIM_004.jpg	99
1015.629	1.514	1514.4	generate	Run2	generate/STIM_005.jpg	99
1020.069	2.113	2113.2	generate	Run2	generate/STIM_005.jpg	100
1024.567	1.262	1262.2	generate	Run2	generate/STIM_005.jpg	100
1028.46	1.108	1108.0	generate	Run2	generate/STIM_005.jpg	100
1031.913	0.902	902.2	generate	Run2	generate/STIM_005.jpg	100
1035.305	2.029	2029.0	generate	Run2	generate/STIM_006.jpg	100
1039.973	1.92	1920.3	generate	Run2	generate/STIM_006.jpg	99
1045.521	1.043	1043.1	generate	Run2	generate/STIM_006.jpg	100
1049.943	1.531	1530.8	generate	Run2	generate/STIM_006.jpg	100
1053.733	2.073	2072.9	generate	Run2	generate/STIM_006.jpg	100
1058.015	1.781	1781.0	generate	Run2	generate/STIM_007.jpg	100
1062.396	2.366	2365.7	generate	Run2	generate/STIM_007.jpg	100
1068.468	2.161	2161.2	generate	Run2	generate/STIM_007.jpg	99
1073.853	1.432	1432.5	generate	Run2	generate/STIM_007.jpg	100
1078.687	1.198	1198.4	generate	Run2	generate/STIM_007.jpg	99
1083.657	1.885	1884.7	generate	Run2	generate/STIM_008.jpg	100
1088.077	1.054	1054.2	generate	Run2	generate/STIM_008.jpg	99
1091.985	0.954	953.6	generate	Run2	generate/STIM_008.jpg	99
1096.607	1.569	1568.8	generate	Run2	generate/STIM_008.jpg	99
1102.152	1.283	1283.3	generate	Run2	generate/STIM_008.jpg	99
1107.369	1.326	1325.9	generate	Run2	generate/STIM_009.jpg	99
1110.998	1.847	1847.1	generate	Run2	generate/STIM_009.jpg	100
1115.424	1.193	1193.1	generate	Run2	generate/STIM_009.jpg	99
1119.695	1.344	1343.5	generate	Run2	generate/STIM_009.jpg	99
1124.399	1.789	1788.8	generate	Run2	generate/STIM_009.jpg	100
1128.362	2.6	2600.1	generate	Run2	generate/STIM_010.jpg	99
1132.855	2.354	2353.7	generate	Run2	generate/STIM_010.jpg	99
1139.053	1.495	1495.3	generate	Run2	generate/STIM_010.jpg	100
1144.117	1.836	1835.7	generate	Run2	generate/STIM_010.jpg	100
1149.191	1.63	1629.5	generate	Run2	generate/STIM_010.jpg	100
1154.188	1.885	1885.1	generate	Run2	generate/STIM_011.jpg	99
1158.822	2.128	2128.4	generate	Run2	generate/STIM_011.jpg	99
1164.774	1.55	1550.4	generate	Run2	generate/STIM_011.jpg	99
1169.977	1.816	1815.8	generate	Run2	generate/STIM_011.jpg	99
1173.859	1.795	1794.8	generate	Run2	generate/STIM_011.jpg	99
1178.48	1.158	1157.7	generate	Run2	generate/STIM_012.jpg	99
1182.204	1.152	1152.1	generate	Run2	generate/STIM_012.jpg	99
1185.824	1.3	1299.6	generate	Run2	generate/STIM_012.jpg	99
1190.425	1.802	1802.4	generate	Run2	generate/STIM_012.jpg	99
1195.559	2.131	2130.9	generate	Run2	generate/STIM_012.jpg	100
1200.768	1.724	1724.4	generate	Run2	generate/STIM_013.jpg	99
1205.104	1.799	1799.2	generate	Run2	generate/STIM_013.jpg	99
1209.85	2.19	2189.9	generate	Run2	generate/STIM_013.jpg	100
1214.224	1.634	1634.0	generate	Run2	generate/STIM_013.jpg	100
1218.506	1.372	1371.5	generate	Run2	generate/STIM_013.jpg	99
1223.356	2.322	2321.5	generate	Run2	generate/STIM_014.jpg	99
1228.861	1.564	1564.0	generate	Run2	generate/STIM_014.jpg	100
1232.771	2.25	2250.3	generate	Run2	generate/STIM_014.jpg	100
1237.11	1.91	1910.2	generate	Run2	generate/STIM_014.jpg	99
1242.308	1.252	1252.0	generate	Run2	generate/STIM_014.jpg	100
1245.562	2.625	2624.6	generate	Run2	generate/STIM_015.jpg	100
1251.145	1.105	1105.1	generate	Run2	generate/STIM_015.jpg	100
1255.655	2.001	2001.2	generate	Run2	generate/STIM_015.jpg	99
1259.686	1.897	1897.1	generate	Run2	generate/STIM_015.jpg	99
1265.125	1.288	1287.5	generate	Run2	generate/STIM_015.jpg	99
1269.62	2.468	2468.0	generate	Run2	generate/STIM_016.jpg	99
1274.064	1.009	1008.9	generate	Run2	generate/STIM_016.jpg	99
1277.673	0.948	947.8	generate	Run2	generate/STIM_016.jpg	100
1281.013	0.996	996.1	generate	Run2	generate/STIM_016.jpg	100
1284.991	0.941	940.7	generate	Run2	generate/STIM_016.jpg	100
1288.67	2.527	2527.1	generate	Run2	generate/STIM_017.jpg	99
1293.211	1.431	1430.7	generate	Run2	generate/STIM_017.jpg	100
1298.149	2.187	2187.1	generate	Run2	generate/STIM_017.jpg	99
1303.667	1.622	1621.6	generate	Run2	generate/STIM_017.jpg	100
1307.528	1.385	1385.0	generate	Run2	generate/STIM_017.jpg	100
1311.768	1.267	1267.3	generate	Run2	generate/STIM_018.jpg	100
1316.132	1.687	1686.7	generate	Run2	generate/STIM_018.jpg	99
1321.202	1.832	1832.3	generate	Run2	generate/STIM_018.jpg	100
1325.344	2.024	2024.3	generate	Run2	generate/STIM_018.jpg	100
1330.404	0.987	987.3	generate	Run2	generate/STIM_018.jpg	99
1334.459	2.205	2205.1	generate	Run2	generate/STIM_019.jpg	99
1339.443	1.258	1258.2	generate	Run2	generate/STIM_019.jpg	99
1344.485	1.883	1883.0	generate	Run2	generate/STIM_019.jpg	100
1349.957	0.857	856.7	generate	Run2	generate/STIM_019.jpg	99
1354.484	1.961	1961.4	generate	Run2	generate/STIM_019.jpg	100
1359.506	1.232	1231.6	generate	Run2	generate/STIM_020.jpg	100
1363.629	1.772	1772.4	generate	Run2	generate/STIM_020.jpg	99
1368.221	2.252	2251.9	generate	Run2	generate/STIM_020.jpg	100
1372.934	1.06	1059.6	generate	Run2	generate/STIM_020.jpg	99
1376.207	1.212	1211.8	generate	Run2	generate/STIM_020.jpg	100
1381.379	2.256	2256.3	generate	Run2	generate/STIM_021.jpg	100
1386.969	2.073	2072.7	generate	Run2	generate/STIM_021.jpg	99
1392.563	1.684	1683.9	generate	Run2	generate/STIM_021.jpg	100
1396.485	1.036	1035.5	generate	Run2	generate/STIM_021.jpg	99
1400.646	1.901	1900.8	generate	Run2	generate/STIM_021.jpg	100
1405.656	1.773	1773.0	generate	Run2	generate/STIM_022.jpg	100
1410.447	1.554	1554.2	generate	Run2	generate/STIM_022.jpg	99
1414.129	1.879	1879.1	generate	Run2	generate/STIM_022.jpg	100
1418.055	1.99	1990.4	generate	Run2	generate/STIM_022.jpg	99
1422.907	0.868	868.0	generate	Run2	generate/STIM_022.jpg	100
1427.706	2.149	2148.9	generate	Run2	generate/STIM_023.jpg	99
1433.256	1.599	1599.3	generate	Run2	generate/STIM_023.jpg	100
1437.123	2.133	2132.9	generate	Run2	generate/STIM_023.jpg	99
1441.419	1.465	1464.8	generate	Run2	generate/STIM_023.jpg	99
1446.563	1.155	1154.7	generate	Run2	generate/STIM_023.jpg	99
1451.692	1.26	1260.3	generate	Run2	generate/STIM_024.jpg	100
1455.508	1.776	1775.8	generate	Run2	generate/STIM_024.jpg	100
1460.244	1.353	1353.2	generate	Run2	generate/STIM_024.jpg	99
1463.893	1.301	1301.3	generate	Run2	generate/STIM_024.jpg	100
1468.675	0.906	906.0	generate	Run2	generate/STIM_024.jpg	100
1473.04	0.714	713.6	repeat	Run2	repeat/STIM_000.jpg	99
1476.0	1.07	1069.7	repeat	Run2	repeat/STIM_000.jpg	99
1480.631	0.761	761.1	repeat	Run2	repeat/STIM_000.jpg	100
1483.885	0.794	793.9	repeat	Run2	repeat/STIM_000.jpg	99
1488.071	0.532	532.4	repeat	Run2	repeat/STIM_000.jpg	99
1492.558	0.806	805.8	repeat	Run2	repeat/STIM_001.jpg	99
1496.951	0.926	925.9	repeat	Run2	repeat/STIM_001.jpg	99
1499.927	0.925	924.9	repeat	Run2	repeat/STIM_001.jpg	100
1504.368	0.76	760.4	repeat	Run2	repeat/STIM_001.jpg	100
1507.877	1.011	1010.8	repeat	Run2	repeat/STIM_001.jpg	100
1511.341	0.555	554.7	repeat	Run2	repeat/STIM_002.jpg	100
1514.746	0.551	550.6	repeat	Run2	repeat/STIM_002.jpg	99
1517.443	0.706	705.9	repeat	Run2	repeat/STIM_002.jpg	99
1521.4	0.903	903.3	repeat	Run2	repeat/STIM_002.jpg	100
1525.939	0.724	724.3	repeat	Run2	repeat/STIM_002.jpg	99
1529.567	0.581	580.8	repeat	Run2	repeat/STIM_003.jpg	99
1533.72	0.505	504.7	repeat	Run2	repeat/STIM_003.jpg	99
1538.071	0.681	680.9	repeat	Run2	repeat/STIM_003.jpg	99
1540.877	0.835	834.6	repeat	Run2	repeat/STIM_003.jpg	100
1544.705	0.684	684.0	repeat	Run2	repeat/STIM_003.jpg	99
1548.985	0.559	559.0	repeat	Run2	repeat/STIM_004.jpg	99
1552.377	0.931	930.9	repeat	Run2	repeat/STIM_004.jpg	99
1556.391	0.613	613.4	repeat	Run2	repeat/STIM_004.jpg	99
1559.389	0.508	508.3	repeat	Run2	repeat/STIM_004.jpg	99
1563.859	0.822	822.2	repeat	Run2	repeat/STIM_004.jpg	100
1568.538	0.629	628.6	repeat	Run2	repeat/STIM_005.jpg	100
1572.16	0.739	738.7	repeat	Run2	repeat/STIM_005.jpg	99
1575.946	0.585	585.0	repeat	Run2	repeat/STIM_005.jpg	99
1579.873	0.648	648.2	repeat	Run2	repeat/STIM_005.jpg	100
1584.403	0.528	527.9	repeat	Run2	repeat/STIM_005.jpg	100
1587.502	0.654	654.2	repeat	Run2	repeat/STIM_006.jpg	100
1590.872	0.989	988.9	repeat	Run2	repeat/STIM_006.jpg	100
1595.546	1.009	1009.2	repeat	Run2	repeat/STIM_006.jpg	100
1599.907	0.755	754.9	repeat	Run2	repeat/STIM_006.jpg	99
1603.286	0.86	860.2	repeat	Run2	repeat/STIM_006.jpg	99
1606.454	0.826	825.7	repeat	Run2	repeat/STIM_007.jpg	99
1610.995	0.524	523.8	repeat	Run2	repeat/STIM_007.jpg	100
1614.179	0.693	693.2	repeat	Run2	repeat/STIM_007.jpg	100
1617.355	0.908	908.5	repeat	Run2	repeat/STIM_007.jpg	100
1622.066	0.635	635.3	repeat	Run2	repeat/STIM_007.jpg	100
1625.128	1.023	1023.0	repeat	Run2	repeat/STIM_008.jpg	100
1628.236	0.688	688.0	repeat	Run2	repeat/STIM_008.jpg	100
1632.779	0.866	866.3	repeat	Run2	repeat/STIM_008.jpg	100
1636.886	0.573	573.4	repeat	Run2	repeat/STIM_008.jpg	99
1640.467	0.592	592.1	repeat	Run2	repeat/STIM_008.jpg	100
1644.629	0.842	842.1	repeat	Run2	repeat/STIM_009.jpg	100
1648.817	0.641	641.0	repeat	Run2	repeat/STIM_009.jpg	100
1652.814	0.74	740.3	repeat	Run2	repeat/STIM_009.jpg	100
1656.371	0.977	976.8	repeat	Run2	repeat/STIM_009.jpg	99
1661.069	0.983	983.2	repeat	Run2	repeat/STIM_009.jpg	100
1665.79	0.889	888.6	repeat	Run2	repeat/STIM_010.jpg	99
1669.68	0.876	875.7	repeat	Run2	repeat/STIM_010.jpg	99
1674.485	0.751	751.4	repeat	Run2	repeat/STIM_010.jpg	99
1678.815	0.623	622.6	repeat	Run2	repeat/STIM_010.jpg	99
1682.154	0.682	681.8	repeat	Run2	repeat/STIM_010.jpg	99
1686.466	1.131	1130.9	repeat	Run2	repeat/STIM_011.jpg	100
1691.143	0.88	879.6	repeat	Run2	repeat/STIM_011.jpg	100
1695.83	0.698	698.3	repeat	Run2	repeat/STIM_011.jpg	100
1699.237	0.675	675.2	repeat	Run2	repeat/STIM_011.jpg	100
1701.926	0.946	946.5	repeat	Run2	repeat/STIM_011.jpg	99
1705.29	0.737	736.8	repeat	Run2	repeat/STIM_012.jpg	100
1709.88	0.791	790.6	repeat	Run2	repeat/STIM_012.jpg	100
1714.173	0.848	848.1	repeat	Run2	repeat/STIM_012.jpg	99
1717.723	0.688	687.7	repeat	Run2	repeat/STIM_012.jpg	99
1720.517	0.883	882.8	repeat	Run2	repeat/STIM_012.jpg	99
1723.989	0.496	496.5	repeat	Run2	repeat/STIM_013.jpg	100
1728.16	0.728	728.0	repeat	Run2	repeat/STIM_013.jpg	99
1731.766	0.519	519.0	repeat	Run2	repeat/STIM_013.jpg	99
1734.776	0.686	686.0	repeat	Run2	repeat/STIM_013.jpg	100
1739.013	0.703	702.9	repeat	Run2	repeat/STIM_013.jpg	99
1742.083	0.763	762.7	repeat	Run2	repeat/STIM_014.jpg	99
1746.446	0.634	634.5	repeat	Run2	repeat/STIM_014.jpg	99
1750.992	0.688	688.3	repeat	Run2	repeat/STIM_014.jpg	100
1754.783	0.949	949.2	repeat	Run2	repeat/STIM_014.jpg	99
1757.769	0.553	552.9	repeat	Run2	repeat/STIM_014.jpg	99
1760.797	1.441	1441.1	generate	Run3	generate/STIM_000.jpg	99
1764.422	1.045	1045.2	generate	Run3	generate/STIM_000.jpg	100
1769.386	1.458	1458.4	generate	Run3	generate/STIM_000.jpg	99
1774.435	1.568	1568.3	generate	Run3	generate/STIM_000.jpg	99
1779.761	1.816	1816.1	generate	Run3	generate/STIM_000.jpg	100
1784.869	1.962	1962.1	generate	Run3	generate/STIM_001.jpg	100
1788.984	1.219	1219.2	generate	Run3	generate/STIM_001.jpg	100
1793.756	1.978	1977.9	generate	Run3	generate/STIM_001.jpg	100
1798.691	1.967	1966.7	generate	Run3	generate/STIM_001.jpg	99
1804.075	0.941	941.1	generate	Run3	generate/STIM_001.jpg	100
1808.494	1.313	1313.0	generate	Run3	generate/STIM_002.jpg	99
1812.009	2.029	2028.5	generate	Run3	generate/STIM_002.jpg	100
1817.895	2.168	2167.6	generate	Run3	generate/STIM_002.jpg	100
1822.944	1.207	1207.2	generate	Run3	generate/STIM_002.jpg	99
1827.997	1.266	1266.5	generate	Run3	generate/STIM_002.jpg	100
1831.523	1.897	1897.4	generate	Run3	generate/STIM_003.jpg	100
1836.111	1.07	1070.1	generate	Run3	generate/STIM_003.jpg	100
1839.514	1.922	1921.6	generate	Run3	generate/STIM_003.jpg	99
1844.273	1.943	1943.4	generate	Run3	generate/STIM_003.jpg	99
1850.136	1.629	1629.2	generate	Run3	generate/STIM_003.jpg	100
1854.346	1.125	1124.7	generate	Run3	generate/STIM_004.jpg	99
1858.724	1.47	1469.8	generate	Run3	generate/STIM_004.jpg	100
1863.052	2.195	2195.4	generate	Run3	generate/STIM_004.jpg	100
1868.901	2.037	2037.2	generate	Run3	generate/STIM_004.jpg	99
1874.928	1.601	1600.8	generate	Run3	generate/STIM_004.jpg	100
1880.33	0.889	889.0	generate	Run3	generate/STIM_005.jpg	100
1883.694	1.673	1672.6	generate	Run3	generate/STIM_005.jpg	99
1887.486	1.703	1703.0	generate	Run3	generate/STIM_005.jpg	99
1891.181	1.909	1909.1	generate	Run3	generate/STIM_005.jpg	100
1895.153	1.276	1276.5	generate	Run3	generate/STIM_005.jpg	100
1898.58	1.508	1508.0	generate	Run3	generate/STIM_006.jpg	99
1903.95	1.856	1856.1	generate	Run3	generate/STIM_006.jpg	99
1909.341	1.096	1095.5	generate	Run3	generate/STIM_006.jpg	100
1913.115	2.097	2097.1	generate	Run3	generate/STIM_006.jpg	99
1917.413	1.916	1915.6	generate	Run3	generate/STIM_006.jpg	100
1921.497	2.05	2049.5	generate	Run3	generate/STIM_007.jpg	99
1926.445	2.19	2189.9	generate	Run3	generate/STIM_007.jpg	99
1931.676	0.959	958.9	generate	Run3	generate/STIM_007.jpg	100
1935.357	0.89	889.6	generate	Run3	generate/STIM_007.jpg	99
1939.713	1.381	1380.8	generate	Run3	generate/STIM_007.jpg	99
1943.176	1.95	1949.7	generate	Run3	generate/STIM_008.jpg	100
1948.779	1.11	1110.0	generate	Run3	generate/STIM_008.jpg	99
1953.825	1.011	1010.8	generate	Run3	generate/STIM_008.jpg	100
1958.529	1.557	1556.6	generate	Run3	generate/STIM_008.jpg	99
1963.207	1.004	1004.5	generate	Run3	generate/STIM_008.jpg	99
1967.417	2.037	2036.8	generate	Run3	generate/STIM_009.jpg	99
1972.589	1.026	1026.4	generate	Run3	generate/STIM_009.jpg	100
1976.903	1.567	1566.9	generate	Run3	generate/STIM_009.jpg	99
1981.009	1.191	1190.8	generate	Run3	generate/STIM_009.jpg	99
1984.815	0.934	934.2	generate	Run3	generate/STIM_009.jpg	100
1989.083	1.464	1463.9	generate	Run3	generate/STIM_010.jpg	100
1993.991	1.143	1142.9	generate	Run3	generate/STIM_010.jpg	100
1998.534	1.743	1742.6	generate	Run3	generate/STIM_010.jpg	100
2003.394	1.442	1442.2	generate	Run3	generate/STIM_010.jpg	99
2008.221	1.813	1812.7	generate	Run3	generate/STIM_010.jpg	100
2012.503	2.118	2117.5	generate	Run3	generate/STIM_011.jpg	100
2017.642	1.007	1007.1	generate	Run3	generate/STIM_011.jpg	100
2022.315	0.962	962.0	generate	Run3	generate/STIM_011.jpg	99
2026.144	1.92	1919.8	generate	Run3	generate/STIM_011.jpg	100
2031.102	2.057	2057.4	generate	Run3	generate/STIM_011.jpg	100
2037.053	1.501	1500.9	generate	Run3	generate/STIM_012.jpg	99
2041.095	1.208	1207.7	generate	Run3	generate/STIM_012.jpg	99
2045.157	1.496	1495.5	generate	Run3	generate/STIM_012.jpg	100
2050.388	1.928	1927.5	generate	Run3	generate/STIM_012.jpg	99
2055.601	1.537	1537.0	generate	Run3	generate/STIM_012.jpg	100
2060.266	1.429	1429.3	generate	Run3	generate/STIM_013.jpg	99
2064.522	2.168	2168.2	generate	Run3	generate/STIM_013.jpg	100
2069.598	1.844	1844.4	generate	Run3	generate/STIM_013.jpg	100
2073.529	1.565	1564.9	generate	Run3	generate/STIM_013.jpg	99
2077.987	1.398	1398.3	generate	Run3	generate/STIM_013.jpg	100
2083.009	1.02	1020.2	generate	Run3	generate/STIM_014.jpg	100
2086.079	1.095	1094.6	generate	Run3	generate/STIM_014.jpg	100
2090.696	0.908	908.2	generate	Run3	generate/STIM_014.jpg	99
2095.602	1.356	1356.1	generate	Run3	generate/STIM_014.jpg	99
2099.627	1.196	1195.9	generate	Run3	generate/STIM_014.jpg	99
2104.116	1.342	1342.1	generate	Run3	generate/STIM_015.jpg	100
2107.515	1.915	1914.7	generate	Run3	generate/STIM_015.jpg	99
2112.893	1.024	1024.0	generate	Run3	generate/STIM_015.jpg	100
2116.714	1.756	1756.5	generate	Run3	generate/STIM_015.jpg	100
2122.058	1.672	1672.0	generate	Run3	generate/STIM_015.jpg	100
2127.109	2.059	2058.6	generate	Run3	generate/STIM_016.jpg	99
2132.832	1.939	1939.4	generate	Run3	generate/STIM_016.jpg	100
2137.079	1.933	1933.2	generate	Run3	generate/STIM_016.jpg	100
2141.547	1.551	1551.4	generate	Run3	generate/STIM_016.jpg	100
2145.652	1.025	1024.7	generate	Run3	generate/STIM_016.jpg	100
2149.776	1.476	1475.5	generate	Run3	generate/STIM_017.jpg	100
2154.553	1.572	1572.3	generate	Run3	generate/STIM_017.jpg	99
2158.434	0.911	911.2	generate	Run3	generate/STIM_017.jpg	99
2162.212	1.939	1938.7	generate	Run3	generate/STIM_017.jpg	100
2166.52	1.979	1979.3	generate	Run3	generate/STIM_017.jpg	99
2172.207	1.05	1049.7	generate	Run3	generate/STIM_018.jpg	100
2176.202	2.17	2170.0	generate	Run3	generate/STIM_018.jpg	100
2180.452	1.761	1760.8	generate	Run3	generate/STIM_018.jpg	100
2185.313	1.674	1674.5	generate	Run3	generate/STIM_018.jpg	99
2189.325	1.376	1376.2	generate	Run3	generate/STIM_018.jpg	99
2193.753	1.383	1382.9	generate	Run3	generate/STIM_019.jpg	100
2199.055	1.169	1169.2	generate	Run3	generate/STIM_019.jpg	100
2203.865	1.0	1000.2	generate	Run3	generate/STIM_019.jpg	99
2207.649	1.018	1017.6	generate	Run3	generate/STIM_019.jpg	100
2211.451	1.139	1139.4	generate	Run3	generate/STIM_019.jpg	99
2214.633	1.227	1227.0	generate	Run3	generate/STIM_020.jpg	100
2218.684	1.135	1135.2	generate	Run3	generate/STIM_020.jpg	99
2222.216	1.728	1727.9	generate	Run3	generate/STIM_020.jpg	100
2226.883	1.013	1012.6	generate	Run3	generate/STIM_020.jpg	99
2231.73	1.901	1900.8	generate	Run3	generate/STIM_020.jpg	99
2237.538	1.769	1768.8	generate	Run3	generate/STIM_021.jpg	100
2241.813	0.98	980.2	generate	Run3	generate/STIM_021.jpg	100
2246.141	1.485	1484.7	generate	Run3	generate/STIM_021.jpg	99
2249.7	1.836	1835.5	generate	Run3	generate/STIM_021.jpg	100
2254.944	1.858	1857.7	generate	Run3	generate/STIM_021.jpg	100
2259.511	1.266	1265.7	generate	Run3	generate/STIM_022.jpg	100
2262.943	1.81	1809.7	generate	Run3	generate/STIM_022.jpg	100
2267.501	1.748	1748.5	generate	Run3	generate/STIM_022.jpg	99
2273.254	2.114	2114.3	generate	Run3	generate/STIM_022.jpg	100
2278.294	0.911	911.0	generate	Run3	generate/STIM_022.jpg	100
2281.384	1.116	1115.5	generate	Run3	generate/STIM_023.jpg	99
2285.82	1.603	1602.9	generate	Run3	generate/STIM_023.jpg	99
2289.845	1.547	1547.1	generate	Run3	generate/STIM_023.jpg	100
2293.708	0.926	925.6	generate	Run3	generate/STIM_023.jpg	100
2296.679	1.983	1982.7	generate	Run3	generate/STIM_023.jpg	100
2301.878	1.598	1597.7	generate	Run3	generate/STIM_024.jpg	99
2306.588	1.766	1765.7	generate	Run3	generate/STIM_024.jpg	100
2311.642	1.092	1091.9	generate	Run3	generate/STIM_024.jpg	99
2316.385	1.21	1210.4	generate	Run3	generate/STIM_024.jpg	100
2320.149	1.074	1073.5	generate	Run3	generate/STIM_024.jpg	99
2324.072	0.83	830.2	repeat	Run3	repeat/STIM_000.jpg	100
2327.044	0.778	777.7	repeat	Run3	repeat/STIM_000.jpg	99
2329.835	0.781	780.8	repeat	Run3	repeat/STIM_000.jpg	100
2334.41	0.887	887.4	repeat	Run3	repeat/STIM_000.jpg	99
2338.131	0.907	907.4	repeat	Run3	repeat/STIM_000.jpg	100
2341.167	0.624	623.7	repeat	Run3	repeat/STIM_001.jpg	99
2345.419	0.586	586.3	repeat	Run3	repeat/STIM_001.jpg	99
2349.081	0.598	597.6	repeat	Run3	repeat/STIM_001.jpg	100
2353.3	0.928	928.0	repeat	Run3	repeat/STIM_001.jpg	99
2357.832	0.654	653.6	repeat	Run3	repeat/STIM_001.jpg	100
2361.049	0.755	754.8	repeat	Run3	repeat/STIM_002.jpg	100
2365.541	0.625	625.2	repeat	Run3	repeat/STIM_002.jpg	99
2368.159	0.718	718.5	repeat	Run3	repeat/STIM_002.jpg	100
2372.546	0.543	543.3	repeat	Run3	repeat/STIM_002.jpg	99
2375.54	1.019	1018.6	repeat	Run3	repeat/STIM_002.jpg	100
2379.998	0.75	749.8	repeat	Run3	repeat/STIM_003.jpg	100
2384.271	0.652	652.5	repeat	Run3	repeat/STIM_003.jpg	99
2388.543	0.704	704.2	repeat	Run3	repeat/STIM_003.jpg	99
2391.636	0.861	860.6	repeat	Run3	repeat/STIM_003.jpg	100
2396.131	0.688	688.3	repeat	Run3	repeat/STIM_003.jpg	99
2399.605	0.95	949.7	repeat	Run3	repeat/STIM_004.jpg	99
2402.881	0.55	550.3	repeat	Run3	repeat/STIM_004.jpg	100
2406.709	0.838	838.1	repeat	Run3	repeat/STIM_004.jpg	99
2409.555	0.822	821.7	repeat	Run3	repeat/STIM_004.jpg	100
2412.936	0.918	918.2	repeat	Run3	repeat/STIM_004.jpg	100
2417.274	0.934	934.1	repeat	Run3	repeat/STIM_005.jpg	100
2421.829	0.756	755.6	repeat	Run3	repeat/STIM_005.jpg	99
2425.14	0.853	853.4	repeat	Run3	repeat/STIM_005.jpg	99
2429.786	0.854	853.8	repeat	Run3	repeat/STIM_005.jpg	99
2434.447	0.72	720.1	repeat	Run3	repeat/STIM_005.jpg	99
2438.144	0.888	888.4	repeat	Run3	repeat/STIM_006.jpg	100
2441.238	1.015	1015.1	repeat	Run3	repeat/STIM_006.jpg	100
2444.722	0.652	651.8	repeat	Run3	repeat/STIM_006.jpg	99
2449.225	0.831	831.2	repeat	Run3	repeat/STIM_006.jpg	99
2452.05	0.566	566.5	repeat	Run3	repeat/STIM_006.jpg	100
2455.425	0.734	733.9	repeat	Run3	repeat/STIM_007.jpg	100
2458.444	0.87	870.3	repeat	Run3	repeat/STIM_007.jpg	100
2462.528	0.482	481.8	repeat	Run3	repeat/STIM_007.jpg	99
2465.297	1.082	1082.1	repeat	Run3	repeat/STIM_007.jpg	100
2469.865	0.95	950.5	repeat	Run3	repeat/STIM_007.jpg	99
2473.494	0.598	597.7	repeat	Run3	repeat/STIM_008.jpg	99
2477.035	0.551	551.0	repeat	Run3	repeat/STIM_008.jpg	100
2480.518	0.672	671.6	repeat	Run3	repeat/STIM_008.jpg	100
2483.842	0.544	543.6	repeat	Run3	repeat/STIM_008.jpg	99
2487.164	0.904	903.7	repeat	Run3	repeat/STIM_008.jpg	100
2491.305	0.926	926.4	repeat	Run3	repeat/STIM_009.jpg	99
2494.719	0.968	968.5	repeat	Run3	repeat/STIM_009.jpg	99
2499.287	0.545	544.8	repeat	Run3	repeat/STIM_009.jpg	100
2502.635	0.799	798.6	repeat	Run3	repeat/STIM_009.jpg	99
2507.037	1.067	1066.7	repeat	Run3	repeat/STIM_009.jpg	100
2510.116	0.683	683.3	repeat	Run3	repeat/STIM_010.jpg	99
2514.723	0.779	779.4	repeat	Run3	repeat/STIM_010.jpg	100
2518.07	0.69	690.2	repeat	Run3	repeat/STIM_010.jpg	99
2521.261	0.928	927.6	repeat	Run3	repeat/STIM_010.jpg	100
2525.936	0.896	895.6	repeat	Run3	repeat/STIM_010.jpg	100
2529.345	0.596	596.4	repeat	Run3	repeat/STIM_011.jpg	100
2533.484	0.978	978.5	repeat	Run3	repeat/STIM_011.jpg	100
2536.636	0.678	677.9	repeat	Run3	repeat/STIM_011.jpg	99
2539.873	0.872	871.7	repeat	Run3	repeat/STIM_011.jpg	100
2543.095	0.915	915.1	repeat	Run3	repeat/STIM_011.jpg	99
2546.721	0.977	977.4	repeat	Run3	repeat/STIM_012.jpg	99
2549.708	0.625	625.0	repeat	Run3	repeat/STIM_012.jpg	100
2554.044	0.904	904.3	repeat	Run3	repeat/STIM_012.jpg	99
2556.904	0.721	721.0	repeat	Run3	repeat/STIM_012.jpg	100
2560.115	0.578	578.0	repeat	Run3	repeat/STIM_012.jpg	100
2563.711	0.575	575.0	repeat	Run3	repeat/STIM_013.jpg	100
2566.273	0.848	847.9	repeat	Run3	repeat/STIM_013.jpg	100
2570.926	0.594	593.5	repeat	Run3	repeat/STIM_013.jpg	99
2575.313	0.769	769.3	repeat	Run3	repeat/STIM_013.jpg	99
2578.802	0.568	567.9	repeat	Run3	repeat/STIM_013.jpg	100
2581.593	0.826	825.5	repeat	Run3	repeat/STIM_014.jpg	100
2585.154	0.606	606.1	repeat	Run3	repeat/STIM_014.jpg	100
2588.938	0.539	538.7	repeat	Run3	repeat/STIM_014.jpg	99
2592.742	0.929	929.2	repeat	Run3	repeat/STIM_014.jpg	99
2596.488	1.048	1047.7	repeat	Run3	repeat/STIM_014.jpg	100
2600.841	1.699	1698.7	generate	Run4	generate/STIM_000.jpg	100
2604.94	1.146	1145.7	generate	Run4	generate/STIM_000.jpg	99
2609.116	1.389	1389.4	generate	Run4	generate/STIM_000.jpg	99
2612.852	1.343	1343.0	generate	Run4	generate/STIM_000.jpg	100
2618.182	1.89	1889.7	generate	Run4	generate/STIM_000.jpg	99
2623.681	1.588	1587.9	generate	Run4	generate/STIM_001.jpg	100
2629.049	1.817	1817.1	generate	Run4	generate/STIM_001.jpg	99
2632.83	2.145	2144.7	generate	Run4	generate/STIM_001.jpg	99
2638.02	2.156	2156.2	generate	Run4	generate/STIM_001.jpg	100
2642.486	1.486	1485.7	generate	Run4	generate/STIM_001.jpg	99
2646.344	2.02	2020.2	generate	Run4	generate/STIM_002.jpg	100
2651.345	0.983	982.9	generate	Run4	generate/STIM_002.jpg	100
2656.184	1.374	1374.4	generate	Run4	generate/STIM_002.jpg	100
2660.032	1.177	1177.4	generate	Run4	generate/STIM_002.jpg	99
2663.846	1.336	1335.7	generate	Run4	generate/STIM_002.jpg	100
2668.05	1.632	1632.0	generate	Run4	generate/STIM_003.jpg	100
2671.773	1.854	1853.8	generate	Run4	generate/STIM_003.jpg	100
2676.627	0.964	963.9	generate	Run4	generate/STIM_003.jpg	99
2680.822	1.466	1465.8	generate	Run4	generate/STIM_003.jpg	100
2684.782	1.047	1046.6	generate	Run4	generate/STIM_003.jpg	99
2687.805	2.12	2119.8	generate	Run4	generate/STIM_004.jpg	99
2693.662	1.385	1384.8	generate	Run4	generate/STIM_004.jpg	99
2697.666	1.001	1000.6	generate	Run4	generate/STIM_004.jpg	100
2701.092	1.896	1895.8	generate	Run4	generate/STIM_004.jpg	100
2705.762	0.958	958.1	generate	Run4	generate/STIM_004.jpg	99
2710.2	1.2	1199.7	generate	Run4	generate/STIM_005.jpg	100
2713.652	1.856	1855.9	generate	Run4	generate/STIM_005.jpg	100
2719.308	1.585	1584.8	generate	Run4	generate/STIM_005.jpg	100
2723.974	0.932	931.8	generate	Run4	generate/STIM_005.jpg	99
2728.738	1.879	1878.9	generate	Run4	generate/STIM_005.jpg	100
2733.678	2.105	2104.7	generate	Run4	generate/STIM_006.jpg	99
2739.135	1.942	1942.2	generate	Run4	generate/STIM_006.jpg	99
2743.193	1.686	1686.0	generate	Run4	generate/STIM_006.jpg	99
2747.516	1.982	1982.5	generate	Run4	generate/STIM_006.jpg	100
2752.113	2.039	2039.0	generate	Run4	generate/STIM_006.jpg	99
2757.936	1.657	1657.3	generate	Run4	generate/STIM_007.jpg	100
2762.198	2.093	2093.0	generate	Run4	generate/STIM_007.jpg	100
2767.355	2.192	2192.5	generate	Run4	generate/STIM_007.jpg	99
2772.938	1.458	1457.9	generate	Run4	generate/STIM_007.jpg	99
2776.808	1.981	1980.8	generate	Run4	generate/STIM_007.jpg	100
2781.936	1.084	1083.6	generate	Run4	generate/STIM_008.jpg	100
2785.463	1.128	1127.6	generate	Run4	generate/STIM_008.jpg	99
2789.654	1.441	1440.6	generate	Run4	generate/STIM_008.jpg	99
2793.459	1.427	1427.2	generate	Run4	generate/STIM_008.jpg	100
2798.253	1.195	1195.2	generate	Run4	generate/STIM_008.jpg	100
2803.353	1.449	1449.3	generate	Run4	generate/STIM_009.jpg	100
2807.417	1.3	1299.6	generate	Run4	generate/STIM_009.jpg	99
2812.129	0.997	996.7	generate	Run4	generate/STIM_009.jpg	99
2816.404	1.35	1349.7	generate	Run4	generate/STIM_009.jpg	100
2820.56	0.797	796.8	generate	Run4	generate/STIM_009.jpg	100
2824.868	0.801	800.8	generate	Run4	generate/STIM_010.jpg	100
2829.202	0.867	867.1	generate	Run4	generate/STIM_010.jpg	99
2833.188	1.73	1729.7	generate	Run4	generate/STIM_010.jpg	100
2837.4	1.508	1507.6	generate	Run4	generate/STIM_010.jpg	100
2842.653	1.312	1312.0	generate	Run4	generate/STIM_010.jpg	99
2846.628	1.874	1874.1	generate	Run4	generate/STIM_011.jpg	99
2851.051	1.821	1821.2	generate	Run4	generate/STIM_011.jpg	99
2856.634	1.005	1005.0	generate	Run4	generate/STIM_011.jpg	99
2860.937	0.966	966.3	generate	Run4	generate/STIM_011.jpg	100
2865.68	1.206	1205.7	generate	Run4	generate/STIM_011.jpg	100
2869.324	1.748	1747.7	generate	Run4	generate/STIM_012.jpg	100
2873.447	2.148	2147.6	generate	Run4	generate/STIM_012.jpg	99
2878.229	1.081	1081.1	generate	Run4	generate/STIM_012.jpg	99
2882.12	1.733	1732.9	generate	Run4	generate/STIM_012.jpg	100
2886.168	1.256	1256.2	generate	Run4	generate/STIM_012.jpg	99
2891.335	1.03	1030.1	generate	Run4	generate/STIM_013.jpg	100
2894.926	1.463	1462.9	generate	Run4	generate/STIM_013.jpg	100
2900.262	1.242	1242.4	generate	Run4	generate/STIM_013.jpg	100
2904.036	0.932	932.2	generate	Run4	generate/STIM_013.jpg	99
2908.771	0.898	898.1	generate	Run4	generate/STIM_013.jpg	99
2913.648	2.05	2049.7	generate	Run4	generate/STIM_014.jpg	100
2917.756	0.867	866.6	generate	Run4	generate/STIM_014.jpg	100
2921.545	1.5	1500.2	generate	Run4	generate/STIM_014.jpg	100
2925.079	1.714	1714.0	generate	Run4	generate/STIM_014.jpg	100
2930.502	1.612	1612.1	generate	Run4	generate/STIM_014.jpg	100
2934.611	2.16	2160.5	generate	Run4	generate/STIM_015.jpg	99
2939.319	2.174	2173.5	generate	Run4	generate/STIM_015.jpg	99
2945.182	1.725	1724.7	generate	Run4	generate/STIM_015.jpg	100
2949.632	1.853	1852.9	generate	Run4	generate/STIM_015.jpg	100
2955.036	0.852	851.6	generate	Run4	generate/STIM_015.jpg	100
2959.876	2.011	2011.4	generate	Run4	generate/STIM_016.jpg	99
2964.823	0.938	938.4	generate	Run4	generate/STIM_016.jpg	100
2967.897	1.16	1160.3	generate	Run4	generate/STIM_016.jpg	99
2971.25	2.135	2135.1	generate	Run4	generate/STIM_016.jpg	99
2977.14	1.223	1222.9	generate	Run4	generate/STIM_016.jpg	99
2981.124	0.879	878.9	generate	Run4	generate/STIM_017.jpg	100
2985.725	1.523	1523.2	generate	Run4	generate/STIM_017.jpg	99
2990.787	1.351	1350.8	generate	Run4	generate/STIM_017.jpg	100
2995.212	1.656	1656.0	generate	Run4	generate/STIM_017.jpg	100
2999.783	1.841	1841.1	generate	Run4	generate/STIM_017.jpg	100
3005.204	0.963	963.2	generate	Run4	generate/STIM_018.jpg	100
3008.954	0.945	944.8	generate	Run4	generate/STIM_018.jpg	100
3013.03	1.181	1181.4	generate	Run4	generate/STIM_018.jpg	100
3016.413	1.305	1304.8	generate	Run4	generate/STIM_018.jpg	100
3020.773	1.433	1433.3	generate	Run4	generate/STIM_018.jpg	100
3025.871	1.352	1352.4	generate	Run4	generate/STIM_019.jpg	100
3030.479	1.666	1666.1	generate	Run4	generate/STIM_019.jpg	100
3035.403	1.941	1941.1	generate	Run4	generate/STIM_019.jpg	100
3040.105	2.088	2087.5	generate	Run4	generate/STIM_019.jpg	99
3045.851	1.542	1542.5	generate	Run4	generate/STIM_019.jpg	99
3050.712	0.942	941.6	generate	Run4	generate/STIM_020.jpg	99
3055.573	0.936	935.5	generate	Run4	generate/STIM_020.jpg	100
3059.901	1.269	1269.2	generate	Run4	generate/STIM_020.jpg	100
3063.169	1.177	1176.8	generate	Run4	generate/STIM_020.jpg	99
3068.059	1.51	1510.3	generate	Run4	generate/STIM_020.jpg	100
3073.197	1.107	1106.7	generate	Run4	generate/STIM_021.jpg	99
3076.982	1.937	1937.2	generate	Run4	generate/STIM_021.jpg	100
3082.22	1.71	1709.9	generate	Run4	generate/STIM_021.jpg	100
3087.472	1.917	1917.1	generate	Run4	generate/STIM_021.jpg	100
3093.089	1.054	1054.5	generate	Run4	generate/STIM_021.jpg	99
3098.062	1.875	1875.0	generate	Run4	generate/STIM_022.jpg	99
3101.926	2.093	2093.1	generate	Run4	generate/STIM_022.jpg	99
3107.884	1.456	1455.7	generate	Run4	generate/STIM_022.jpg	99
3112.344	1.154	1153.8	generate	Run4	generate/STIM_022.jpg	100
3117.075	1.304	1304.2	generate	Run4	generate/STIM_022.jpg	100
3122.331	0.973	972.9	generate	Run4	generate/STIM_023.jpg	100
3125.904	1.665	1664.6	generate	Run4	generate/STIM_023.jpg	99
3129.498	0.925	924.8	generate	Run4	generate/STIM_023.jpg	100
3134.135	2.077	2077.3	generate	Run4	generate/STIM_023.jpg	99
3139.402	0.932	931.6	generate	Run4	generate/STIM_023.jpg	99
3143.184	1.599	1599.0	generate	Run4	generate/STIM_024.jpg	99
3148.642	1.857	1856.7	generate	Run4	generate/STIM_024.jpg	100
3153.061	1.745	1745.3	generate	Run4	generate/STIM_024.jpg	99
3157.204	1.802	1802.2	generate	Run4	generate/STIM_024.jpg	100
3162.113	2.036	2035.7	generate	Run4	generate/STIM_024.jpg	99
3167.618	0.826	825.6	repeat	Run4	repeat/STIM_000.jpg	99
3172.332	0.881	881.3	repeat	Run4	repeat/STIM_000.jpg	99
3176.665	0.846	845.6	repeat	Run4	repeat/STIM_000.jpg	99
3179.827	0.774	774.4	repeat	Run4	repeat/STIM_000.jpg	99
3183.216	0.706	706.3	repeat	Run4	repeat/STIM_000.jpg	99
3187.136	0.466	465.7	repeat	Run4	repeat/STIM_001.jpg	99
3191.612	0.819	819.2	repeat	Run4	repeat/STIM_001.jpg	99
3194.662	0.868	868.3	repeat	Run4	repeat/STIM_001.jpg	99
3199.089	0.951	950.9	repeat	Run4	repeat/STIM_001.jpg	100
3203.506	0.789	788.6	repeat	Run4	repeat/STIM_001.jpg	99
3207.539	0.578	578.0	repeat	Run4	repeat/STIM_002.jpg	100
3210.727	0.923	922.8	repeat	Run4	repeat/STIM_002.jpg	99
3213.55	0.808	808.2	repeat	Run4	repeat/STIM_002.jpg	100
3217.564	0.869	868.9	repeat	Run4	repeat/STIM_002.jpg	100
3221.979	0.429	429.0	repeat	Run4	repeat/STIM_002.jpg	99
3225.82	0.875	875.1	repeat	Run4	repeat/STIM_003.jpg	100
3229.641	0.892	891.7	repeat	Run4	repeat/STIM_003.jpg	99
3232.922	0.576	576.2	repeat	Run4	repeat/STIM_003.jpg	100
3237.445	0.509	509.4	repeat	Run4	repeat/STIM_003.jpg	99
3240.095	0.91	909.5	repeat	Run4	repeat/STIM_003.jpg	99
3244.819	0.808	807.7	repeat	Run4	repeat/STIM_004.jpg	99
3248.67	0.5	499.6	repeat	Run4	repeat/STIM_004.jpg	100
3251.346	1.065	1064.7	repeat	Run4	repeat/STIM_004.jpg	100
3254.358	0.82	819.9	repeat	Run4	repeat/STIM_004.jpg	99
3258.807	0.65	650.1	repeat	Run4	repeat/STIM_004.jpg	100
3262.216	0.907	906.9	repeat	Run4	repeat/STIM_005.jpg	100
3267.016	1.056	1056.0	repeat	Run4	repeat/STIM_005.jpg	99
3271.093	0.731	731.0	repeat	Run4	repeat/STIM_005.jpg	100
3273.889	0.969	968.8	repeat	Run4	repeat/STIM_005.jpg	99
3278.057	0.915	914.7	repeat	Run4	repeat/STIM_005.jpg	99
3282.821	0.616	616.0	repeat	Run4	repeat/STIM_006.jpg	99
3287.049	0.642	642.4	repeat	Run4	repeat/STIM_006.jpg	99
3290.627	0.563	563.0	repeat	Run4	repeat/STIM_006.jpg	100
3293.268	0.59	590.3	repeat	Run4	repeat/STIM_006.jpg	100
3296.781	0.948	948.3	repeat	Run4	repeat/STIM_006.jpg	99
3301.318	0.988	988.0	repeat	Run4	repeat/STIM_007.jpg	100
3304.273	0.753	753.0	repeat	Run4	repeat/STIM_007.jpg	100
3307.764	0.627	627.3	repeat	Run4	repeat/STIM_007.jpg	99
3311.042	0.919	919.1	repeat	Run4	repeat/STIM_007.jpg	100
3314.783	0.977	977.4	repeat	Run4	repeat/STIM_007.jpg	100
3318.917	0.605	605.2	repeat	Run4	repeat/STIM_008.jpg	100
3322.666	0.665	665.0	repeat	Run4	repeat/STIM_008.jpg	99
3325.328	0.925	925.4	repeat	Run4	repeat/STIM_008.jpg	99
3328.976	0.476	475.7	repeat	Run4	repeat/STIM_008.jpg	99
3333.309	0.632	632.2	repeat	Run4	repeat/STIM_008.jpg	100
3337.046	0.947	947.4	repeat	Run4	repeat/STIM_009.jpg	99
3340.272	0.556	555.9	repeat	Run4	repeat/STIM_009.jpg	99
3343.112	0.767	766.7	repeat	Run4	repeat/STIM_009.jpg	99
3346.979	0.883	883.1	repeat	Run4	repeat/STIM_009.jpg	100
3350.215	0.947	946.7	repeat	Run4	repeat/STIM_009.jpg	100
3353.466	0.713	713.2	repeat	Run4	repeat/STIM_010.jpg	100
3356.483	0.75	750.4	repeat	Run4	repeat/STIM_010.jpg	100
3360.838	0.649	648.8	repeat	Run4	repeat/STIM_010.jpg	100
3363.63	0.471	471.2	repeat	Run4	repeat/STIM_010.jpg	99
3367.111	0.649	649.1	repeat	Run4	repeat/STIM_010.jpg	100
3370.192	0.519	519.0	repeat	Run4	repeat/STIM_011.jpg	100
3373.233	0.964	964.5	repeat	Run4	repeat/STIM_011.jpg	100
3378.134	0.994	993.7	repeat	Run4	repeat/STIM_011.jpg	99
3381.59	0.696	696.1	repeat	Run4	repeat/STIM_011.jpg	100
3385.986	0.505	504.7	repeat	Run4	repeat/STIM_011.jpg	100
3389.951	0.623	623.4	repeat	Run4	repeat/STIM_012.jpg	100
3394.007	0.711	711.2	repeat	Run4	repeat/STIM_012.jpg	99
3398.543	0.788	787.6	repeat	Run4	repeat/STIM_012.jpg	99
3401.383	0.776	776.5	repeat	Run4	repeat/STIM_012.jpg	99
3404.529	0.619	618.7	repeat	Run4	repeat/STIM_012.jpg	100
3407.822	0.944	943.5	repeat	Run4	repeat/STIM_013.jpg	100
3412.117	0.944	944.5	repeat	Run4	repeat/STIM_013.jpg	100
3416.493	0.538	537.8	repeat	Run4	repeat/STIM_013.jpg	100
3420.989	0.979	979.2	repeat	Run4	repeat/STIM_013.jpg	99
3424.686	0.714	714.1	repeat	Run4	repeat/STIM_013.jpg	100
3429.088	0.621	621.4	repeat	Run4	repeat/STIM_014.jpg	99
3433.447	0.792	791.5	repeat	Run4	repeat/STIM_014.jpg	100
3437.127	0.854	854.4	repeat	Run4	repeat/STIM_014.jpg	100
3441.764	0.536	535.6	repeat	Run4	repeat/STIM_014.jpg	99
3446.123	0.677	677.3	repeat	Run4	repeat/STIM_014.jpg	99
