onset	duration	accuracy_binary	trial_type	learning_stage	stimulus
0.0	1.286	1	incongruent	Block1	incongruent/STIM_000.jpg
4.641	1.265	0	incongruent	Block1	incongruent/STIM_000.jpg
9.113	1.007	1	incongruent	Block1	incongruent/STIM_000.jpg
13.982	1.132	0	incongruent	Block1	incongruent/STIM_000.jpg
18.684	0.933	1	incongruent	Block1	incongruent/STIM_000.jpg
22.165	0.742	1	incongruent	Block1	incongruent/STIM_001.jpg
25.155	1.103	1	incongruent	Block1	incongruent/STIM_001.jpg
30.123	1.141	1	incongruent	Block1	incongruent/STIM_001.jpg
33.861	0.995	1	incongruent	Block1	incongruent/STIM_001.jpg
37.118	0.636	1	incongruent	Block1	incongruent/STIM_001.jpg
40.556	1.249	1	incongruent	Block1	incongruent/STIM_002.jpg
43.976	0.809	1	incongruent	Block1	incongruent/STIM_002.jpg
48.743	0.784	1	incongruent	Block1	incongruent/STIM_002.jpg
52.093	1.003	1	incongruent	Block1	incongruent/STIM_002.jpg
55.492	0.956	1	incongruent	Block1	incongruent/STIM_002.jpg
59.203	1.205	1	incongruent	Block1	incongruent/STIM_003.jpg
63.049	0.882	1	incongruent	Block1	incongruent/STIM_003.jpg
67.373	0.714	1	incongruent	Block1	incongruent/STIM_003.jpg
71.718	1.123	1	incongruent	Block1	incongruent/STIM_003.jpg
76.656	1.043	1	incongruent	Block1	incongruent/STIM_003.jpg
79.834	1.364	1	incongruent	Block1	incongruent/STIM_004.jpg
83.731	0.678	1	incongruent	Block1	incongruent/STIM_004.jpg
88.372	1.232	1	incongruent	Block1	incongruent/STIM_004.jpg
92.572	0.793	1	incongruent	Block1	incongruent/STIM_004.jpg
96.962	0.752	1	incongruent	Block1	incongruent/STIM_004.jpg
99.933	0.721	1	incongruent	Block1	incongruent/STIM_005.jpg
104.389	0.71	1	incongruent	Block1	incongruent/STIM_005.jpg
108.96	1.225	1	incongruent	Block1	incongruent/STIM_005.jpg
112.363	1.041	1	incongruent	Block1	incongruent/STIM_005.jpg
116.887	0.568	0	incongruent	Block1	incongruent/STIM_005.jpg
120.019	1.281	1	incongruent	Block1	incongruent/STIM_006.jpg
124.321	1.273	1	incongruent	Block1	incongruent/STIM_006.jpg
128.028	0.6	1	incongruent	Block1	incongruent/STIM_006.jpg
131.692	0.843	1	incongruent	Block1	incongruent/STIM_006.jpg
135.931	0.783	1	incongruent	Block1	incongruent/STIM_006.jpg
140.464	1.194	1	incongruent	Block1	incongruent/STIM_007.jpg
144.215	0.703	1	incongruent	Block1	incongruent/STIM_007.jpg
148.077	1.21	0	incongruent	Block1	incongruent/STIM_007.jpg
153.196	1.015	1	incongruent	Block1	incongruent/STIM_007.jpg
156.695	1.037	1	incongruent	Block1	incongruent/STIM_007.jpg
159.914	0.756	0	incongruent	Block1	incongruent/STIM_008.jpg
162.889	0.891	1	incongruent	Block1	incongruent/STIM_008.jpg
167.435	1.145	1	incongruent	Block1	incongruent/STIM_008.jpg
171.435	0.948	1	incongruent	Block1	incongruent/STIM_008.jpg
175.595	0.886	1	incongruent	Block1	incongruent/STIM_008.jpg
180.427	1.035	1	incongruent	Block1	incongruent/STIM_009.jpg
184.82	0.684	1	incongruent	Block1	incongruent/STIM_009.jpg
189.363	0.743	1	incongruent	Block1	incongruent/STIM_009.jpg
192.312	1.028	1	incongruent	Block1	incongruent/STIM_009.jpg
195.786	0.861	1	incongruent	Block1	incongruent/STIM_009.jpg
200.017	1.278	1	incongruent	Block1	incongruent/STIM_010.jpg
203.824	0.877	1	incongruent	Block1	incongruent/STIM_010.jpg
207.984	1.102	1	incongruent	Block1	incongruent/STIM_010.jpg
211.61	0.607	1	incongruent	Block1	incongruent/STIM_010.jpg
215.841	0.642	1	incongruent	Block1	incongruent/STIM_010.jpg
219.994	1.255	1	incongruent	Block1	incongruent/STIM_011.jpg
224.579	1.24	1	incongruent	Block1	incongruent/STIM_011.jpg
227.993	1.014	1	incongruent	Block1	incongruent/STIM_011.jpg
232.65	0.849	1	incongruent	Block1	incongruent/STIM_011.jpg
236.075	0.958	1	incongruent	Block1	incongruent/STIM_011.jpg
239.286	1.324	1	incongruent	Block1	incongruent/STIM_012.jpg
244.121	0.813	1	incongruent	Block1	incongruent/STIM_012.jpg
247.742	0.731	1	incongruent	Block1	incongruent/STIM_012.jpg
251.255	0.566	1	incongruent	Block1	incongruent/STIM_012.jpg
254.358	1.086	0	incongruent	Block1	incongruent/STIM_012.jpg
257.629	1.339	1	incongruent	Block1	incongruent/STIM_013.jpg
262.994	0.904	1	incongruent	Block1	incongruent/STIM_013.jpg
267.13	1.206	1	incongruent	Block1	incongruent/STIM_013.jpg
271.904	1.026	1	incongruent	Block1	incongruent/STIM_013.jpg
275.532	0.845	1	incongruent	Block1	incongruent/STIM_013.jpg
279.457	0.694	1	incongruent	Block1	incongruent/STIM_014.jpg
283.928	1.172	1	incongruent	Block1	incongruent/STIM_014.jpg
288.788	0.606	1	incongruent	Block1	incongruent/STIM_014.jpg
293.052	0.74	1	incongruent	Block1	incongruent/STIM_014.jpg
296.93	0.716	1	incongruent	Block1	incongruent/STIM_014.jpg
301.498	1.25	1	incongruent	Block1	incongruent/STIM_015.jpg
305.988	0.815	1	incongruent	Block1	incongruent/STIM_015.jpg
310.51	1.082	1	incongruent	Block1	incongruent/STIM_015.jpg
314.797	0.98	1	incongruent	Block1	incongruent/STIM_015.jpg
318.777	0.982	1	incongruent	Block1	incongruent/STIM_015.jpg
322.896	0.676	1	incongruent	Block1	incongruent/STIM_016.jpg
327.452	1.236	1	incongruent	Block1	incongruent/STIM_016.jpg
331.756	0.606	1	incongruent	Block1	incongruent/STIM_016.jpg
335.896	1.031	1	incongruent	Block1	incongruent/STIM_016.jpg
340.527	0.992	1	incongruent	Block1	incongruent/STIM_016.jpg
344.066	1.213	1	incongruent	Block1	incongruent/STIM_017.jpg
347.496	0.772	0	incongruent	Block1	incongruent/STIM_017.jpg
351.886	1.046	1	incongruent	Block1	incongruent/STIM_017.jpg
357.025	0.787	1	incongruent	Block1	incongruent/STIM_017.jpg
361.791	0.815	0	incongruent	Block1	incongruent/STIM_017.jpg
365.267	0.692	1	incongruent	Block1	incongruent/STIM_018.jpg
368.466	1.172	1	incongruent	Block1	incongruent/STIM_018.jpg
372.504	0.912	0	incongruent	Block1	incongruent/STIM_018.jpg
376.504	0.544	0	incongruent	Block1	incongruent/STIM_018.jpg
379.75	0.81	1	incongruent	Block1	incongruent/STIM_018.jpg
384.502	0.776	0	incongruent	Block1	incongruent/STIM_019.jpg
387.974	0.856	1	incongruent	Block1	incongruent/STIM_019.jpg
391.878	0.776	1	incongruent	Block1	incongruent/STIM_019.jpg
395.687	1.1	1	incongruent	Block1	incongruent/STIM_019.jpg
399.712	0.982	0	incongruent	Block1	incongruent/STIM_019.jpg
403.359	1.255	1	incongruent	Block1	incongruent/STIM_020.jpg
408.237	0.716	1	incongruent	Block1	incongruent/STIM_020.jpg
412.906	0.693	1	incongruent	Block1	incongruent/STIM_020.jpg
416.871	0.708	0	incongruent	Block1	incongruent/STIM_020.jpg
420.266	0.549	1	incongruent	Block1	incongruent/STIM_020.jpg
423.188	0.75	0	incongruent	Block1	incongruent/STIM_021.jpg
426.935	0.688	1	incongruent	Block1	incongruent/STIM_021.jpg
431.581	0.625	0	incongruent	Block1	incongruent/STIM_021.jpg
435.63	0.856	1	incongruent	Block1	incongruent/STIM_021.jpg
438.698	0.834	1	incongruent	Block1	incongruent/STIM_021.jpg
442.625	0.702	1	incongruent	Block1	incongruent/STIM_022.jpg
445.566	0.638	1	incongruent	Block1	incongruent/STIM_022.jpg
449.701	1.078	1	incongruent	Block1	incongruent/STIM_022.jpg
452.914	1.131	1	incongruent	Block1	incongruent/STIM_022.jpg
457.592	0.824	1	incongruent	Block1	incongruent/STIM_022.jpg
461.054	0.705	1	incongruent	Block1	incongruent/STIM_023.jpg
465.016	0.967	0	incongruent	Block1	incongruent/STIM_023.jpg
469.004	1.089	1	incongruent	Block1	incongruent/STIM_023.jpg
473.305	1.149	1	incongruent	Block1	incongruent/STIM_023.jpg
476.948	0.581	1	incongruent	Block1	incongruent/STIM_023.jpg
481.442	0.951	1	incongruent	Block1	incongruent/STIM_024.jpg
486.169	0.909	1	incongruent	Block1	incongruent/STIM_024.jpg
489.266	0.958	1	incongruent	Block1	incongruent/STIM_024.jpg
494.056	0.569	1	incongruent	Block1	incongruent/STIM_024.jpg
498.398	0.695	1	incongruent	Block1	incongruent/STIM_024.jpg
503.004	0.744	1	incongruent	Block1	incongruent/STIM_025.jpg
506.27	1.139	1	incongruent	Block1	incongruent/STIM_025.jpg
510.846	1.114	1	incongruent	Block1	incongruent/STIM_025.jpg
515.351	1.162	1	incongruent	Block1	incongruent/STIM_025.jpg
518.687	0.773	0	incongruent	Block1	incongruent/STIM_025.jpg
523.472	0.939	1	incongruent	Block1	incongruent/STIM_026.jpg
528.084	0.926	1	incongruent	Block1	incongruent/STIM_026.jpg
531.583	0.577	1	incongruent	Block1	incongruent/STIM_026.jpg
534.894	0.832	1	incongruent	Block1	incongruent/STIM_026.jpg
538.925	0.575	1	incongruent	Block1	incongruent/STIM_026.jpg
542.337	0.997	1	incongruent	Block1	incongruent/STIM_027.jpg
546.391	0.762	1	incongruent	Block1	incongruent/STIM_027.jpg
551.026	1.189	1	incongruent	Block1	incongruent/STIM_027.jpg
555.499	0.869	1	incongruent	Block1	incongruent/STIM_027.jpg
559.708	0.968	1	incongruent	Block1	incongruent/STIM_027.jpg
562.942	0.703	1	incongruent	Block1	incongruent/STIM_028.jpg
567.04	1.052	1	incongruent	Block1	incongruent/STIM_028.jpg
571.741	0.852	1	incongruent	Block1	incongruent/STIM_028.jpg
575.008	0.784	1	incongruent	Block1	incongruent/STIM_028.jpg
577.99	0.89	1	incongruent	Block1	incongruent/STIM_028.jpg
581.354	1.261	1	incongruent	Block1	incongruent/STIM_029.jpg
585.67	0.702	0	incongruent	Block1	incongruent/STIM_029.jpg
589.561	0.603	1	incongruent	Block1	incongruent/STIM_029.jpg
592.501	1.13	1	incongruent	Block1	incongruent/STIM_029.jpg
596.047	0.709	1	incongruent	Block1	incongruent/STIM_029.jpg
598.868	0.664	1	congruent	Block1	congruent/STIM_000.jpg
603.204	0.547	1	congruent	Block1	congruent/STIM_000.jpg
607.491	0.573	1	congruent	Block1	congruent/STIM_000.jpg
610.322	0.791	1	congruent	Block1	congruent/STIM_000.jpg
613.295	0.722	1	congruent	Block1	congruent/STIM_000.jpg
617.646	0.571	1	congruent	Block1	congruent/STIM_001.jpg
621.753	0.566	1	congruent	Block1	congruent/STIM_001.jpg
626.231	0.738	1	congruent	Block1	congruent/STIM_001.jpg
630.725	0.74	1	congruent	Block1	congruent/STIM_001.jpg
634.51	0.717	1	congruent	Block1	congruent/STIM_001.jpg
637.748	0.688	1	congruent	Block1	congruent/STIM_002.jpg
641.124	0.587	1	congruent	Block1	congruent/STIM_002.jpg
645.574	0.53	1	congruent	Block1	congruent/STIM_002.jpg
650.107	0.573	1	congruent	Block1	congruent/STIM_002.jpg
653.413	0.643	1	congruent	Block1	congruent/STIM_002.jpg
656.606	0.534	1	congruent	Block1	congruent/STIM_003.jpg
660.071	0.788	1	congruent	Block1	congruent/STIM_003.jpg
663.691	0.818	1	congruent	Block1	congruent/STIM_003.jpg
666.603	0.77	1	congruent	Block1	congruent/STIM_003.jpg
671.035	0.706	1	congruent	Block1	congruent/STIM_003.jpg
674.324	0.668	1	congruent	Block1	congruent/STIM_004.jpg
677.348	0.473	1	congruent	Block1	congruent/STIM_004.jpg
681.614	0.556	1	congruent	Block1	congruent/STIM_004.jpg
684.686	0.587	1	congruent	Block1	congruent/STIM_004.jpg
688.201	0.691	1	congruent	Block1	congruent/STIM_004.jpg
691.838	0.814	1	congruent	Block1	congruent/STIM_005.jpg
696.38	0.586	1	congruent	Block1	congruent/STIM_005.jpg
700.762	0.472	1	congruent	Block1	congruent/STIM_005.jpg
703.505	0.739	1	congruent	Block1	congruent/STIM_005.jpg
707.757	0.67	1	congruent	Block1	congruent/STIM_005.jpg
711.04	0.584	1	congruent	Block1	congruent/STIM_006.jpg
715.283	0.604	1	congruent	Block1	congruent/STIM_006.jpg
718.073	0.498	1	congruent	Block1	congruent/STIM_006.jpg
721.423	0.662	1	congruent	Block1	congruent/STIM_006.jpg
725.2	0.507	1	congruent	Block1	congruent/STIM_006.jpg
728.313	0.509	1	congruent	Block1	congruent/STIM_007.jpg
731.144	0.62	1	congruent	Block1	congruent/STIM_007.jpg
735.042	0.459	1	congruent	Block1	congruent/STIM_007.jpg
738.583	0.77	1	congruent	Block1	congruent/STIM_007.jpg
742.03	0.724	1	congruent	Block1	congruent/STIM_007.jpg
745.248	0.573	1	congruent	Block1	congruent/STIM_008.jpg
749.833	0.517	1	congruent	Block1	congruent/STIM_008.jpg
754.247	0.718	1	congruent	Block1	congruent/STIM_008.jpg
758.428	0.525	1	congruent	Block1	congruent/STIM_008.jpg
762.679	0.48	1	congruent	Block1	congruent/STIM_008.jpg
766.702	0.549	1	congruent	Block1	congruent/STIM_009.jpg
770.085	0.636	0	congruent	Block1	congruent/STIM_009.jpg
772.915	0.563	1	congruent	Block1	congruent/STIM_009.jpg
775.661	0.823	1	congruent	Block1	congruent/STIM_009.jpg
780.305	0.711	1	congruent	Block1	congruent/STIM_009.jpg
783.905	0.528	1	congruent	Block1	congruent/STIM_010.jpg
786.771	0.508	1	congruent	Block1	congruent/STIM_010.jpg
789.724	0.551	1	congruent	Block1	congruent/STIM_010.jpg
793.376	0.587	1	congruent	Block1	congruent/STIM_010.jpg
797.886	0.821	1	congruent	Block1	congruent/STIM_010.jpg
801.447	0.587	1	congruent	Block1	congruent/STIM_011.jpg
804.301	0.54	1	congruent	Block1	congruent/STIM_011.jpg
808.247	0.674	1	congruent	Block1	congruent/STIM_011.jpg
811.063	0.626	1	congruent	Block1	congruent/STIM_011.jpg
814.562	0.792	1	congruent	Block1	congruent/STIM_011.jpg
817.463	0.652	1	congruent	Block1	congruent/STIM_012.jpg
820.783	0.592	1	congruent	Block1	congruent/STIM_012.jpg
824.843	0.822	1	congruent	Block1	congruent/STIM_012.jpg
829.734	0.672	1	congruent	Block1	congruent/STIM_012.jpg
833.183	0.504	1	congruent	Block1	congruent/STIM_012.jpg
837.336	0.684	0	congruent	Block1	congruent/STIM_013.jpg
841.108	0.629	1	congruent	Block1	congruent/STIM_013.jpg
844.572	0.636	1	congruent	Block1	congruent/STIM_013.jpg
849.006	0.469	1	congruent	Block1	congruent/STIM_013.jpg
852.87	0.581	1	congruent	Block1	congruent/STIM_013.jpg
855.588	0.739	1	congruent	Block1	congruent/STIM_014.jpg
860.093	0.671	1	congruent	Block1	congruent/STIM_014.jpg
862.954	0.661	0	congruent	Block1	congruent/STIM_014.jpg
867.603	0.468	1	congruent	Block1	congruent/STIM_014.jpg
871.894	0.757	1	congruent	Block1	congruent/STIM_014.jpg
874.753	0.56	1	congruent	Block1	congruent/STIM_015.jpg
877.918	0.666	1	congruent	Block1	congruent/STIM_015.jpg
880.977	0.812	1	congruent	Block1	congruent/STIM_015.jpg
884.383	0.812	1	congruent	Block1	congruent/STIM_015.jpg
888.146	0.615	1	congruent	Block1	congruent/STIM_015.jpg
891.777	0.495	1	congruent	Block1	congruent/STIM_016.jpg
896.27	0.629	1	congruent	Block1	congruent/STIM_016.jpg
900.694	0.515	1	congruent	Block1	congruent/STIM_016.jpg
904.098	0.765	1	congruent	Block1	congruent/STIM_016.jpg
907.114	0.709	1	congruent	Block1	congruent/STIM_016.jpg
910.485	0.702	1	congruent	Block1	congruent/STIM_017.jpg
913.425	0.506	1	congruent	Block1	congruent/STIM_017.jpg
917.877	0.495	1	congruent	Block1	congruent/STIM_017.jpg
920.523	0.687	1	congruent	Block1	congruent/STIM_017.jpg
924.022	0.794	1	congruent	Block1	congruent/STIM_017.jpg
928.077	0.655	1	congruent	Block1	congruent/STIM_018.jpg
932.742	0.625	1	congruent	Block1	congruent/STIM_018.jpg
935.771	0.739	1	congruent	Block1	congruent/STIM_018.jpg
939.004	0.658	1	congruent	Block1	congruent/STIM_018.jpg
942.825	0.466	1	congruent	Block1	congruent/STIM_018.jpg
946.784	0.569	1	congruent	Block1	congruent/STIM_019.jpg
950.094	0.819	1	congruent	Block1	congruent/STIM_019.jpg
953.501	0.67	1	congruent	Block1	congruent/STIM_019.jpg
956.241	0.628	1	congruent	Block1	congruent/STIM_019.jpg
960.799	0.636	1	congruent	Block1	congruent/STIM_019.jpg
963.917	0.475	1	congruent	Block1	congruent/STIM_020.jpg
967.526	0.763	1	congruent	Block1	congruent/STIM_020.jpg
970.95	0.782	1	congruent	Block1	congruent/STIM_020.jpg
975.266	0.703	0	congruent	Block1	congruent/STIM_020.jpg
978.302	0.691	1	congruent	Block1	congruent/STIM_020.jpg
982.418	0.691	1	congruent	Block1	congruent/STIM_021.jpg
986.323	0.474	1	congruent	Block1	congruent/STIM_021.jpg
990.726	0.599	1	congruent	Block1	congruent/STIM_021.jpg
993.991	0.71	1	congruent	Block1	congruent/STIM_021.jpg
998.635	0.799	1	congruent	Block1	congruent/STIM_021.jpg
1001.791	0.532	1	congruent	Block1	congruent/STIM_022.jpg
1006.143	0.57	1	congruent	Block1	congruent/STIM_022.jpg
1008.847	0.524	1	congruent	Block1	congruent/STIM_022.jpg
1011.959	0.616	1	congruent	Block1	congruent/STIM_022.jpg
1016.453	0.664	1	congruent	Block1	congruent/STIM_022.jpg
1021.033	0.718	1	congruent	Block1	congruent/STIM_023.jpg
1025.287	0.742	1	congruent	Block1	congruent/STIM_023.jpg
1028.11	0.741	1	congruent	Block1	congruent/STIM_023.jpg
1031.411	0.734	1	congruent	Block1	congruent/STIM_023.jpg
1035.983	0.552	1	congruent	Block1	congruent/STIM_023.jpg
1039.668	0.609	1	congruent	Block1	congruent/STIM_024.jpg
1043.933	0.744	1	congruent	Block1	congruent/STIM_024.jpg
1047.26	0.55	1	congruent	Block1	congruent/STIM_024.jpg
1051.361	0.758	1	congruent	Block1	congruent/STIM_024.jpg
1055.445	0.689	1	congruent	Block1	congruent/STIM_024.jpg
1059.54	0.621	1	congruent	Block1	congruent/STIM_025.jpg
1063.537	0.715	1	congruent	Block1	congruent/STIM_025.jpg
1067.939	0.586	1	congruent	Block1	congruent/STIM_025.jpg
1071.538	0.596	1	congruent	Block1	congruent/STIM_025.jpg
1075.872	0.785	0	congruent	Block1	congruent/STIM_025.jpg
1079.501	0.581	1	congruent	Block1	congruent/STIM_026.jpg
1083.339	0.69	1	congruent	Block1	congruent/STIM_026.jpg
1088.09	0.694	1	congruent	Block1	congruent/STIM_026.jpg
1091.348	0.677	1	congruent	Block1	congruent/STIM_026.jpg
1095.8	0.759	0	congruent	Block1	congruent/STIM_026.jpg
1100.236	0.667	1	congruent	Block1	congruent/STIM_027.jpg
1104.841	0.754	1	congruent	Block1	congruent/STIM_027.jpg
1109.204	0.553	1	congruent	Block1	congruent/STIM_027.jpg
1112.512	0.67	1	congruent	Block1	congruent/STIM_027.jpg
1116.625	0.458	1	congruent	Block1	congruent/STIM_027.jpg
1119.483	0.496	1	congruent	Block1	congruent/STIM_028.jpg
1122.908	0.696	1	congruent	Block1	congruent/STIM_028.jpg
1127.637	0.808	1	congruent	Block1	congruent/STIM_028.jpg
1131.903	0.818	1	congruent	Block1	congruent/STIM_028.jpg
1135.649	0.481	1	congruent	Block1	congruent/STIM_028.jpg
1138.961	0.529	1	congruent	Block1	congruent/STIM_029.jpg
1143.036	0.588	1	congruent	Block1	congruent/STIM_029.jpg
1146.701	0.563	1	congruent	Block1	congruent/STIM_029.jpg
1149.879	0.723	1	congruent	Block1	congruent/STIM_029.jpg
1154.645	0.46	1	congruent	Block1	congruent/STIM_029.jpg
1157.643	1.003	1	incongruent	Block2	incongruent/STIM_000.jpg
1160.928	0.98	1	incongruent	Block2	incongruent/STIM_000.jpg
1165.808	0.79	1	incongruent	Block2	incongruent/STIM_000.jpg
1169.238	0.748	1	incongruent	Block2	incongruent/STIM_000.jpg
1172.508	0.804	1	incongruent	Block2	incongruent/STIM_000.jpg
1175.705	0.685	1	incongruent	Block2	incongruent/STIM_001.jpg
1179.247	0.892	1	incongruent	Block2	incongruent/STIM_001.jpg
1183.788	0.84	1	incongruent	Block2	incongruent/STIM_001.jpg
1187.615	0.546	1	incongruent	Block2	incongruent/STIM_001.jpg
1191.11	0.948	1	incongruent	Block2	incongruent/STIM_001.jpg
1195.627	1.108	1	incongruent	Block2	incongruent/STIM_002.jpg
1199.353	0.768	1	incongruent	Block2	incongruent/STIM_002.jpg
1202.438	0.718	1	incongruent	Block2	incongruent/STIM_002.jpg
1206.05	0.481	1	incongruent	Block2	incongruent/STIM_002.jpg
1208.985	0.945	1	incongruent	Block2	incongruent/STIM_002.jpg
1213.13	1.058	1	incongruent	Block2	incongruent/STIM_003.jpg
1218.056	0.847	1	incongruent	Block2	incongruent/STIM_003.jpg
1221.756	0.618	1	incongruent	Block2	incongruent/STIM_003.jpg
1224.667	0.791	1	incongruent	Block2	incongruent/STIM_003.jpg
1229.198	0.598	1	incongruent	Block2	incongruent/STIM_003.jpg
1232.26	1.065	1	incongruent	Block2	incongruent/STIM_004.jpg
1237.153	0.787	1	incongruent	Block2	incongruent/STIM_004.jpg
1240.979	0.96	1	incongruent	Block2	incongruent/STIM_004.jpg
1244.072	0.801	1	incongruent	Block2	incongruent/STIM_004.jpg
1248.835	0.557	0	incongruent	Block2	incongruent/STIM_004.jpg
1252.545	0.928	1	incongruent	Block2	incongruent/STIM_005.jpg
1255.884	0.787	1	incongruent	Block2	incongruent/STIM_005.jpg
1259.499	0.513	1	incongruent	Block2	incongruent/STIM_005.jpg
1262.827	0.784	1	incongruent	Block2	incongruent/STIM_005.jpg
1266.932	0.577	1	incongruent	Block2	incongruent/STIM_005.jpg
1269.867	0.778	1	incongruent	Block2	incongruent/STIM_006.jpg
1273.875	1.01	1	incongruent	Block2	incongruent/STIM_006.jpg
1277.664	0.836	1	incongruent	Block2	incongruent/STIM_006.jpg
1281.511	0.927	1	incongruent	Block2	incongruent/STIM_006.jpg
1285.698	0.761	1	incongruent	Block2	incongruent/STIM_006.jpg
1288.688	0.869	1	incongruent	Block2	incongruent/STIM_007.jpg
1292.488	0.525	1	incongruent	Block2	incongruent/STIM_007.jpg
1295.08	0.739	1	incongruent	Block2	incongruent/STIM_007.jpg
1299.076	0.756	1	incongruent	Block2	incongruent/STIM_007.jpg
1302.341	0.581	1	incongruent	Block2	incongruent/STIM_007.jpg
1305.775	0.564	1	incongruent	Block2	incongruent/STIM_008.jpg
1308.587	1.063	1	incongruent	Block2	incongruent/STIM_008.jpg
1312.841	0.608	1	incongruent	Block2	incongruent/STIM_008.jpg
1315.513	0.491	1	incongruent	Block2	incongruent/STIM_008.jpg
1318.591	0.459	1	incongruent	Block2	incongruent/STIM_008.jpg
1321.096	0.838	1	incongruent	Block2	incongruent/STIM_009.jpg
1324.578	0.875	1	incongruent	Block2	incongruent/STIM_009.jpg
1329.019	0.502	1	incongruent	Block2	incongruent/STIM_009.jpg
1332.042	0.663	1	incongruent	Block2	incongruent/STIM_009.jpg
1335.484	0.579	1	incongruent	Block2	incongruent/STIM_009.jpg
1339.743	1.012	1	incongruent	Block2	incongruent/STIM_010.jpg
1343.309	0.936	1	incongruent	Block2	incongruent/STIM_010.jpg
1347.606	0.692	1	incongruent	Block2	incongruent/STIM_010.jpg
1351.613	0.537	1	incongruent	Block2	incongruent/STIM_010.jpg
1355.273	0.815	1	incongruent	Block2	incongruent/STIM_010.jpg
1359.127	0.575	1	incongruent	Block2	incongruent/STIM_011.jpg
1363.612	0.891	1	incongruent	Block2	incongruent/STIM_011.jpg
1367.078	0.517	1	incongruent	Block2	incongruent/STIM_011.jpg
1371.228	0.808	1	incongruent	Block2	incongruent/STIM_011.jpg
1374.466	0.69	1	incongruent	Block2	incongruent/STIM_011.jpg
1377.313	0.871	1	incongruent	Block2	incongruent/STIM_012.jpg
1380.274	0.971	1	incongruent	Block2	incongruent/STIM_012.jpg
1383.886	0.84	0	incongruent	Block2	incongruent/STIM_012.jpg
1387.869	0.59	1	incongruent	Block2	incongruent/STIM_012.jpg
1391.629	0.769	1	incongruent	Block2	incongruent/STIM_012.jpg
1396.194	0.892	0	incongruent	Block2	incongruent/STIM_013.jpg
1399.78	0.607	1	incongruent	Block2	incongruent/STIM_013.jpg
1403.083	0.682	1	incongruent	Block2	incongruent/STIM_013.jpg
1407.062	0.468	1	incongruent	Block2	incongruent/STIM_013.jpg
1411.496	0.939	1	incongruent	Block2	incongruent/STIM_013.jpg
1415.426	0.956	1	incongruent	Block2	incongruent/STIM_014.jpg
1418.551	0.883	1	incongruent	Block2	incongruent/STIM_014.jpg
1422.069	0.634	1	incongruent	Block2	incongruent/STIM_014.jpg
1425.02	0.485	1	incongruent	Block2	incongruent/STIM_014.jpg
1429.422	0.639	1	incongruent	Block2	incongruent/STIM_014.jpg
1433.51	0.865	1	incongruent	Block2	incongruent/STIM_015.jpg
1438.363	0.825	1	incongruent	Block2	incongruent/STIM_015.jpg
1442.635	0.546	1	incongruent	Block2	incongruent/STIM_015.jpg
1446.114	0.517	1	incongruent	Block2	incongruent/STIM_015.jpg
1448.908	0.949	1	incongruent	Block2	incongruent/STIM_015.jpg
1453.584	1.114	0	incongruent	Block2	incongruent/STIM_016.jpg
1456.903	0.733	1	incongruent	Block2	incongruent/STIM_016.jpg
1460.546	0.543	1	incongruent	Block2	incongruent/STIM_016.jpg
1464.306	0.851	1	incongruent	Block2	incongruent/STIM_016.jpg
1468.602	0.719	1	incongruent	Block2	incongruent/STIM_016.jpg
1472.919	0.764	1	incongruent	Block2	incongruent/STIM_017.jpg
1477.601	1.092	1	incongruent	Block2	incongruent/STIM_017.jpg
1482.199	0.99	1	incongruent	Block2	incongruent/STIM_017.jpg
1486.882	0.9	1	incongruent	Block2	incongruent/STIM_017.jpg
1489.914	0.735	1	incongruent	Block2	incongruent/STIM_017.jpg
1493.47	0.564	1	incongruent	Block2	incongruent/STIM_018.jpg
1496.759	0.535	1	incongruent	Block2	incongruent/STIM_018.jpg
1500.349	0.994	1	incongruent	Block2	incongruent/STIM_018.jpg
1504.783	0.556	1	incongruent	Block2	incongruent/STIM_018.jpg
1509.132	0.933	1	incongruent	Block2	incongruent/STIM_018.jpg
1513.453	0.795	1	incongruent	Block2	incongruent/STIM_019.jpg
1516.789	0.636	1	incongruent	Block2	incongruent/STIM_019.jpg
1520.489	0.676	1	incongruent	Block2	incongruent/STIM_019.jpg
1523.792	0.52	1	incongruent	Block2	incongruent/STIM_019.jpg
1527.016	0.876	1	incongruent	Block2	incongruent/STIM_019.jpg
1530.931	0.997	1	incongruent	Block2	incongruent/STIM_020.jpg
1534.975	0.981	1	incongruent	Block2	incongruent/STIM_020.jpg
1539.737	0.589	1	incongruent	Block2	incongruent/STIM_020.jpg
1543.533	0.52	1	incongruent	Block2	incongruent/STIM_020.jpg
1546.559	0.613	1	incongruent	Block2	incongruent/STIM_020.jpg
1549.611	1.154	1	incongruent	Block2	incongruent/STIM_021.jpg
1553.536	0.833	1	incongruent	Block2	incongruent/STIM_021.jpg
1558.188	0.919	1	incongruent	Block2	incongruent/STIM_021.jpg
1562.465	0.697	1	incongruent	Block2	incongruent/STIM_021.jpg
1566.719	0.605	1	incongruent	Block2	incongruent/STIM_021.jpg
1570.853	1.029	1	incongruent	Block2	incongruent/STIM_022.jpg
1575.242	0.925	1	incongruent	Block2	incongruent/STIM_022.jpg
1579.441	0.617	1	incongruent	Block2	incongruent/STIM_022.jpg
1583.073	0.568	1	incongruent	Block2	incongruent/STIM_022.jpg
1586.791	0.759	1	incongruent	Block2	incongruent/STIM_022.jpg
1590.305	0.59	1	incongruent	Block2	incongruent/STIM_023.jpg
1593.931	0.559	1	incongruent	Block2	incongruent/STIM_023.jpg
1598.281	0.793	1	incongruent	Block2	incongruent/STIM_023.jpg
1602.235	0.502	1	incongruent	Block2	incongruent/STIM_023.jpg
1605.148	0.782	1	incongruent	Block2	incongruent/STIM_023.jpg
1608.111	0.861	1	incongruent	Block2	incongruent/STIM_024.jpg
1611.538	0.882	1	incongruent	Block2	incongruent/STIM_024.jpg
1614.758	0.885	1	incongruent	Block2	incongruent/STIM_024.jpg
1617.811	0.947	1	incongruent	Block2	incongruent/STIM_024.jpg
1622.626	0.776	1	incongruent	Block2	incongruent/STIM_024.jpg
1627.133	0.643	1	incongruent	Block2	incongruent/STIM_025.jpg
1630.402	0.897	1	incongruent	Block2	incongruent/STIM_025.jpg
1634.538	0.482	1	incongruent	Block2	incongruent/STIM_025.jpg
1637.118	0.637	1	incongruent	Block2	incongruent/STIM_025.jpg
1641.335	0.765	1	incongruent	Block2	incongruent/STIM_025.jpg
1646.154	0.904	1	incongruent	Block2	incongruent/STIM_026.jpg
1650.607	0.816	1	incongruent	Block2	incongruent/STIM_026.jpg
1654.76	1.023	1	incongruent	Block2	incongruent/STIM_026.jpg
1658.736	0.584	1	incongruent	Block2	incongruent/STIM_026.jpg
1661.549	0.459	1	incongruent	Block2	incongruent/STIM_026.jpg
1665.793	0.881	1	incongruent	Block2	incongruent/STIM_027.jpg
1669.212	0.886	1	incongruent	Block2	incongruent/STIM_027.jpg
1673.549	0.898	1	incongruent	Block2	incongruent/STIM_027.jpg
1678.3	0.571	1	incongruent	Block2	incongruent/STIM_027.jpg
1681.59	0.629	1	incongruent	Block2	incongruent/STIM_027.jpg
1684.547	1.031	1	incongruent	Block2	incongruent/STIM_028.jpg
1688.691	0.748	1	incongruent	Block2	incongruent/STIM_028.jpg
1693.257	0.531	1	incongruent	Block2	incongruent/STIM_028.jpg
1696.574	0.543	1	incongruent	Block2	incongruent/STIM_028.jpg
1700.912	0.952	1	incongruent	Block2	incongruent/STIM_028.jpg
1705.827	1.005	1	incongruent	Block2	incongruent/STIM_029.jpg
1710.599	1.002	0	incongruent	Block2	incongruent/STIM_029.jpg
1714.517	0.8	1	incongruent	Block2	incongruent/STIM_029.jpg
1718.227	0.789	1	incongruent	Block2	incongruent/STIM_029.jpg
1721.928	0.452	1	incongruent	Block2	incongruent/STIM_029.jpg
1726.119	0.696	1	congruent	Block2	congruent/STIM_000.jpg
1729.468	0.714	1	congruent	Block2	congruent/STIM_000.jpg
1733.922	0.563	1	congruent	Block2	congruent/STIM_000.jpg
1737.184	0.704	1	congruent	Block2	congruent/STIM_000.jpg
1740.81	0.619	1	congruent	Block2	congruent/STIM_000.jpg
1744.987	0.607	1	congruent	Block2	congruent/STIM_001.jpg
1748.199	0.807	1	congruent	Block2	congruent/STIM_001.jpg
1752.925	0.466	1	congruent	Block2	congruent/STIM_001.jpg
1756.51	0.62	1	congruent	Block2	congruent/STIM_001.jpg
1759.972	0.808	1	congruent	Block2	congruent/STIM_001.jpg
1763.492	0.512	1	congruent	Block2	congruent/STIM_002.jpg
1767.449	0.604	1	congruent	Block2	congruent/STIM_002.jpg
1771.501	0.612	1	congruent	Block2	congruent/STIM_002.jpg
1776.015	0.523	1	congruent	Block2	congruent/STIM_002.jpg
1779.031	0.615	1	congruent	Block2	congruent/STIM_002.jpg
1782.444	0.737	1	congruent	Block2	congruent/STIM_003.jpg
1786.922	0.7	1	congruent	Block2	congruent/STIM_003.jpg
1790.697	0.66	1	congruent	Block2	congruent/STIM_003.jpg
1795.072	0.54	1	congruent	Block2	congruent/STIM_003.jpg
1799.308	0.699	1	congruent	Block2	congruent/STIM_003.jpg
1802.944	0.612	1	congruent	Block2	congruent/STIM_004.jpg
1806.934	0.474	1	congruent	Block2	congruent/STIM_004.jpg
1810.107	0.75	1	congruent	Block2	congruent/STIM_004.jpg
1813.631	0.493	1	congruent	Block2	congruent/STIM_004.jpg
1816.985	0.752	1	congruent	Block2	congruent/STIM_004.jpg
1820.081	0.609	0	congruent	Block2	congruent/STIM_005.jpg
1824.648	0.628	1	congruent	Block2	congruent/STIM_005.jpg
1828.193	0.804	1	congruent	Block2	congruent/STIM_005.jpg
1832.456	0.604	1	congruent	Block2	congruent/STIM_005.jpg
1836.31	0.545	1	congruent	Block2	congruent/STIM_005.jpg
1839.803	0.574	1	congruent	Block2	congruent/STIM_006.jpg
1842.567	0.659	1	congruent	Block2	congruent/STIM_006.jpg
1846.714	0.774	0	congruent	Block2	congruent/STIM_006.jpg
1851.32	0.613	1	congruent	Block2	congruent/STIM_006.jpg
1854.438	0.808	1	congruent	Block2	congruent/STIM_006.jpg
1858.554	0.805	1	congruent	Block2	congruent/STIM_007.jpg
1862.955	0.811	1	congruent	Block2	congruent/STIM_007.jpg
1866.914	0.751	1	congruent	Block2	congruent/STIM_007.jpg
1871.678	0.71	1	congruent	Block2	congruent/STIM_007.jpg
1874.822	0.582	1	congruent	Block2	congruent/STIM_007.jpg
1877.966	0.799	1	congruent	Block2	congruent/STIM_008.jpg
1882.749	0.776	1	congruent	Block2	congruent/STIM_008.jpg
1885.969	0.741	1	congruent	Block2	congruent/STIM_008.jpg
1889.679	0.566	1	congruent	Block2	congruent/STIM_008.jpg
1893.958	0.739	1	congruent	Block2	congruent/STIM_008.jpg
1898.278	0.468	1	congruent	Block2	congruent/STIM_009.jpg
1901.384	0.573	1	congruent	Block2	congruent/STIM_009.jpg
1905.619	0.688	1	congruent	Block2	congruent/STIM_009.jpg
1908.924	0.696	1	congruent	Block2	congruent/STIM_009.jpg
1912.802	0.486	0	congruent	Block2	congruent/STIM_009.jpg
1916.044	0.708	1	congruent	Block2	congruent/STIM_010.jpg
1919.106	0.48	1	congruent	Block2	congruent/STIM_010.jpg
1922.533	0.773	1	congruent	Block2	congruent/STIM_010.jpg
1926.666	0.625	1	congruent	Block2	congruent/STIM_010.jpg
1930.323	0.763	1	congruent	Block2	congruent/STIM_010.jpg
1934.096	0.483	1	congruent	Block2	congruent/STIM_011.jpg
1937.266	0.742	1	congruent	Block2	congruent/STIM_011.jpg
1941.2	0.713	1	congruent	Block2	congruent/STIM_011.jpg
1945.714	0.782	1	congruent	Block2	congruent/STIM_011.jpg
1949.591	0.647	1	congruent	Block2	congruent/STIM_011.jpg
1952.526	0.524	1	congruent	Block2	congruent/STIM_012.jpg
1955.533	0.528	1	congruent	Block2	congruent/STIM_012.jpg
1959.577	0.721	1	congruent	Block2	congruent/STIM_012.jpg
1962.863	0.478	1	congruent	Block2	congruent/STIM_012.jpg
1966.509	0.464	1	congruent	Block2	congruent/STIM_012.jpg
1969.956	0.754	1	congruent	Block2	congruent/STIM_013.jpg
1974.503	0.459	1	congruent	Block2	congruent/STIM_013.jpg
1977.625	0.632	1	congruent	Block2	congruent/STIM_013.jpg
1982.015	0.672	0	congruent	Block2	congruent/STIM_013.jpg
1984.816	0.484	1	congruent	Block2	congruent/STIM_013.jpg
1988.282	0.477	1	congruent	Block2	congruent/STIM_014.jpg
1991.963	0.572	1	congruent	Block2	congruent/STIM_014.jpg
1995.96	0.707	1	congruent	Block2	congruent/STIM_014.jpg
2000.294	0.695	1	congruent	Block2	congruent/STIM_014.jpg
2004.647	0.63	1	congruent	Block2	congruent/STIM_014.jpg
2009.079	0.599	1	congruent	Block2	congruent/STIM_015.jpg
2012.446	0.696	1	congruent	Block2	congruent/STIM_015.jpg
2016.136	0.486	1	congruent	Block2	congruent/STIM_015.jpg
2019.612	0.593	1	congruent	Block2	congruent/STIM_015.jpg
2022.947	0.749	1	congruent	Block2	congruent/STIM_015.jpg
2027.755	0.63	1	congruent	Block2	congruent/STIM_016.jpg
2031.571	0.617	1	congruent	Block2	congruent/STIM_016.jpg
2034.823	0.528	1	congruent	Block2	congruent/STIM_016.jpg
2039.244	0.649	1	congruent	Block2	congruent/STIM_016.jpg
2043.102	0.769	1	congruent	Block2	congruent/STIM_016.jpg
2046.265	0.476	1	congruent	Block2	congruent/STIM_017.jpg
2050.308	0.468	1	congruent	Block2	congruent/STIM_017.jpg
2053.766	0.481	1	congruent	Block2	congruent/STIM_017.jpg
2056.654	0.6	1	congruent	Block2	congruent/STIM_017.jpg
2060.308	0.692	1	congruent	Block2	congruent/STIM_017.jpg
2064.207	0.547	1	congruent	Block2	congruent/STIM_018.jpg
2068.286	0.464	1	congruent	Block2	congruent/STIM_018.jpg
2071.905	0.724	1	congruent	Block2	congruent/STIM_018.jpg
2076.427	0.603	1	congruent	Block2	congruent/STIM_018.jpg
2080.645	0.47	0	congruent	Block2	congruent/STIM_018.jpg
2083.698	0.482	1	congruent	Block2	congruent/STIM_019.jpg
2086.669	0.574	1	congruent	Block2	congruent/STIM_019.jpg
2090.465	0.512	1	congruent	Block2	congruent/STIM_019.jpg
2094.937	0.641	1	congruent	Block2	congruent/STIM_019.jpg
2099.239	0.67	1	congruent	Block2	congruent/STIM_019.jpg
2103.743	0.545	1	congruent	Block2	congruent/STIM_020.jpg
2107.473	0.669	1	congruent	Block2	congruent/STIM_020.jpg
2111.639	0.529	1	congruent	Block2	congruent/STIM_020.jpg
2115.76	0.719	1	congruent	Block2	congruent/STIM_020.jpg
2119.345	0.529	1	congruent	Block2	congruent/STIM_020.jpg
2122.06	0.6	1	congruent	Block2	congruent/STIM_021.jpg
2126.528	0.677	1	congruent	Block2	congruent/STIM_021.jpg
2130.466	0.75	1	congruent	Block2	congruent/STIM_021.jpg
2134.352	0.552	1	congruent	Block2	congruent/STIM_021.jpg
2138.753	0.619	1	congruent	Block2	congruent/STIM_021.jpg
2141.553	0.598	1	congruent	Block2	congruent/STIM_022.jpg
2144.73	0.68	1	congruent	Block2	congruent/STIM_022.jpg
2149.428	0.565	1	congruent	Block2	congruent/STIM_022.jpg
2153.392	0.616	0	congruent	Block2	congruent/STIM_022.jpg
2156.353	0.733	1	congruent	Block2	congruent/STIM_022.jpg
2160.362	0.615	1	congruent	Block2	congruent/STIM_023.jpg
2163.501	0.598	1	congruent	Block2	congruent/STIM_023.jpg
2167.489	0.489	1	congruent	Block2	congruent/STIM_023.jpg
2171.399	0.477	1	congruent	Block2	congruent/STIM_023.jpg
2174.38	0.605	1	congruent	Block2	congruent/STIM_023.jpg
2177.335	0.615	1	congruent	Block2	congruent/STIM_024.jpg
2181.51	0.632	1	congruent	Block2	congruent/STIM_024.jpg
2185.306	0.611	1	congruent	Block2	congruent/STIM_024.jpg
2188.782	0.466	1	congruent	Block2	congruent/STIM_024.jpg
2191.449	0.81	1	congruent	Block2	congruent/STIM_024.jpg
2195.008	0.744	1	congruent	Block2	congruent/STIM_025.jpg
2199.175	0.518	1	congruent	Block2	congruent/STIM_025.jpg
2203.346	0.592	1	congruent	Block2	congruent/STIM_025.jpg
2207.319	0.731	1	congruent	Block2	congruent/STIM_025.jpg
2211.877	0.48	1	congruent	Block2	congruent/STIM_025.jpg
2214.503	0.636	1	congruent	Block2	congruent/STIM_026.jpg
2218.413	0.559	1	congruent	Block2	congruent/STIM_026.jpg
2222.033	0.707	1	congruent	Block2	congruent/STIM_026.jpg
2225.049	0.698	1	congruent	Block2	congruent/STIM_026.jpg
2227.839	0.746	1	congruent	Block2	congruent/STIM_026.jpg
2231.067	0.588	0	congruent	Block2	congruent/STIM_027.jpg
2234.495	0.818	1	congruent	Block2	congruent/STIM_027.jpg
2237.917	0.722	1	congruent	Block2	congruent/STIM_027.jpg
2241.265	0.808	1	congruent	Block2	congruent/STIM_027.jpg
2244.492	0.796	0	congruent	Block2	congruent/STIM_027.jpg
2249.057	0.712	1	congruent	Block2	congruent/STIM_028.jpg
2252.906	0.639	1	congruent	Block2	congruent/STIM_028.jpg
2256.397	0.765	1	congruent	Block2	congruent/STIM_028.jpg
2260.128	0.61	0	congruent	Block2	congruent/STIM_028.jpg
2263.946	0.715	1	congruent	Block2	congruent/STIM_028.jpg
2266.845	0.765	1	congruent	Block2	congruent/STIM_029.jpg
2270.238	0.516	1	congruent	Block2	congruent/STIM_029.jpg
2273.998	0.801	1	congruent	Block2	congruent/STIM_029.jpg
2277.114	0.597	1	congruent	Block2	congruent/STIM_029.jpg
2281.051	0.818	0	congruent	Block2	congruent/STIM_029.jpg
2284.545	0.648	1	incongruent	Block3	incongruent/STIM_000.jpg
2288.524	0.526	1	incongruent	Block3	incongruent/STIM_000.jpg
2291.442	0.575	1	incongruent	Block3	incongruent/STIM_000.jpg
2294.873	0.624	1	incongruent	Block3	incongruent/STIM_000.jpg
2299.389	0.824	1	incongruent	Block3	incongruent/STIM_000.jpg
2303.413	0.573	1	incongruent	Block3	incongruent/STIM_001.jpg
2307.579	0.543	1	incongruent	Block3	incongruent/STIM_001.jpg
2310.835	0.829	1	incongruent	Block3	incongruent/STIM_001.jpg
2315.177	0.58	0	incongruent	Block3	incongruent/STIM_001.jpg
2318.776	0.874	1	incongruent	Block3	incongruent/STIM_001.jpg
2321.993	0.829	1	incongruent	Block3	incongruent/STIM_002.jpg
2325.639	0.55	1	incongruent	Block3	incongruent/STIM_002.jpg
2330.007	0.666	1	incongruent	Block3	incongruent/STIM_002.jpg
2333.546	0.866	1	incongruent	Block3	incongruent/STIM_002.jpg
2338.158	0.495	1	incongruent	Block3	incongruent/STIM_002.jpg
2341.278	0.707	1	incongruent	Block3	incongruent/STIM_003.jpg
2345.316	0.881	1	incongruent	Block3	incongruent/STIM_003.jpg
2349.979	0.779	1	incongruent	Block3	incongruent/STIM_003.jpg
2353.639	0.51	1	incongruent	Block3	incongruent/STIM_003.jpg
2357.343	0.501	1	incongruent	Block3	incongruent/STIM_003.jpg
2361.731	0.63	1	incongruent	Block3	incongruent/STIM_004.jpg
2366.35	0.84	1	incongruent	Block3	incongruent/STIM_004.jpg
2370.511	0.742	1	incongruent	Block3	incongruent/STIM_004.jpg
2374.772	0.835	1	incongruent	Block3	incongruent/STIM_004.jpg
2378.339	0.683	1	incongruent	Block3	incongruent/STIM_004.jpg
2382.946	0.8	1	incongruent	Block3	incongruent/STIM_005.jpg
2387.036	0.949	0	incongruent	Block3	incongruent/STIM_005.jpg
2391.896	0.623	1	incongruent	Block3	incongruent/STIM_005.jpg
2395.687	0.802	1	incongruent	Block3	incongruent/STIM_005.jpg
2399.114	0.658	1	incongruent	Block3	incongruent/STIM_005.jpg
2402.748	0.772	1	incongruent	Block3	incongruent/STIM_006.jpg
2406.742	0.629	1	incongruent	Block3	incongruent/STIM_006.jpg
2411.407	0.873	1	incongruent	Block3	incongruent/STIM_006.jpg
2415.986	0.841	1	incongruent	Block3	incongruent/STIM_006.jpg
2419.615	0.682	1	incongruent	Block3	incongruent/STIM_006.jpg
2422.74	0.636	1	incongruent	Block3	incongruent/STIM_007.jpg
2427.183	0.509	1	incongruent	Block3	incongruent/STIM_007.jpg
2431.292	0.799	1	incongruent	Block3	incongruent/STIM_007.jpg
2434.316	0.502	1	incongruent	Block3	incongruent/STIM_007.jpg
2438.212	0.8	1	incongruent	Block3	incongruent/STIM_007.jpg
2442.93	0.483	1	incongruent	Block3	incongruent/STIM_008.jpg
2445.507	0.868	1	incongruent	Block3	incongruent/STIM_008.jpg
2449.038	0.652	1	incongruent	Block3	incongruent/STIM_008.jpg
2453.187	0.851	1	incongruent	Block3	incongruent/STIM_008.jpg
2456.47	0.588	1	incongruent	Block3	incongruent/STIM_008.jpg
2460.653	0.905	1	incongruent	Block3	incongruent/STIM_009.jpg
2465.638	0.587	1	incongruent	Block3	incongruent/STIM_009.jpg
2468.423	0.666	1	incongruent	Block3	incongruent/STIM_009.jpg
2471.502	0.672	1	incongruent	Block3	incongruent/STIM_009.jpg
2476.073	0.58	1	incongruent	Block3	incongruent/STIM_009.jpg
2478.76	0.868	1	incongruent	Block3	incongruent/STIM_010.jpg
2481.934	0.758	1	incongruent	Block3	incongruent/STIM_010.jpg
2485.212	0.731	1	incongruent	Block3	incongruent/STIM_010.jpg
2489.286	0.77	1	incongruent	Block3	incongruent/STIM_010.jpg
2493.948	0.676	1	incongruent	Block3	incongruent/STIM_010.jpg
2498.624	0.92	1	incongruent	Block3	incongruent/STIM_011.jpg
2502.279	0.724	1	incongruent	Block3	incongruent/STIM_011.jpg
2506.531	0.719	1	incongruent	Block3	incongruent/STIM_011.jpg
2509.88	0.736	1	incongruent	Block3	incongruent/STIM_011.jpg
2514.053	0.857	0	incongruent	Block3	incongruent/STIM_011.jpg
2517.135	0.724	1	incongruent	Block3	incongruent/STIM_012.jpg
2520.403	0.454	1	incongruent	Block3	incongruent/STIM_012.jpg
2524.881	0.672	1	incongruent	Block3	incongruent/STIM_012.jpg
2528.376	0.484	1	incongruent	Block3	incongruent/STIM_012.jpg
2530.944	0.715	1	incongruent	Block3	incongruent/STIM_012.jpg
2534.721	0.714	1	incongruent	Block3	incongruent/STIM_013.jpg
2537.713	0.771	1	incongruent	Block3	incongruent/STIM_013.jpg
2540.881	0.917	1	incongruent	Block3	incongruent/STIM_013.jpg
2543.962	0.746	1	incongruent	Block3	incongruent/STIM_013.jpg
2547.868	0.916	1	incongruent	Block3	incongruent/STIM_013.jpg
2551.614	0.835	1	incongruent	Block3	incongruent/STIM_014.jpg
2555.371	0.673	1	incongruent	Block3	incongruent/STIM_014.jpg
2558.265	0.903	1	incongruent	Block3	incongruent/STIM_014.jpg
2561.782	0.594	1	incongruent	Block3	incongruent/STIM_014.jpg
2565.535	0.755	1	incongruent	Block3	incongruent/STIM_014.jpg
2568.516	0.782	1	incongruent	Block3	incongruent/STIM_015.jpg
2572.8	0.838	1	incongruent	Block3	incongruent/STIM_015.jpg
2576.16	0.513	1	incongruent	Block3	incongruent/STIM_015.jpg
2580.412	0.676	1	incongruent	Block3	incongruent/STIM_015.jpg
2583.659	0.525	1	incongruent	Block3	incongruent/STIM_015.jpg
2587.653	0.596	1	incongruent	Block3	incongruent/STIM_016.jpg
2591.832	0.708	1	incongruent	Block3	incongruent/STIM_016.jpg
2596.175	0.537	1	incongruent	Block3	incongruent/STIM_016.jpg
2600.005	0.563	1	incongruent	Block3	incongruent/STIM_016.jpg
2604.493	0.515	1	incongruent	Block3	incongruent/STIM_016.jpg
2608.253	0.631	1	incongruent	Block3	incongruent/STIM_017.jpg
2612.132	0.798	1	incongruent	Block3	incongruent/STIM_017.jpg
2616.604	0.613	1	incongruent	Block3	incongruent/STIM_017.jpg
2621.056	0.887	1	incongruent	Block3	incongruent/STIM_017.jpg
2625.319	0.93	1	incongruent	Block3	incongruent/STIM_017.jpg
2630.065	0.895	1	incongruent	Block3	incongruent/STIM_018.jpg
2634.8	0.453	1	incongruent	Block3	incongruent/STIM_018.jpg
2638.917	0.478	1	incongruent	Block3	incongruent/STIM_018.jpg
2641.447	0.533	1	incongruent	Block3	incongruent/STIM_018.jpg
2645.141	0.527	1	incongruent	Block3	incongruent/STIM_018.jpg
2648.452	0.791	1	incongruent	Block3	incongruent/STIM_019.jpg
2653.132	0.732	1	incongruent	Block3	incongruent/STIM_019.jpg
2657.016	0.48	1	incongruent	Block3	incongruent/STIM_019.jpg
2660.003	0.59	1	incongruent	Block3	incongruent/STIM_019.jpg
2662.895	0.861	1	incongruent	Block3	incongruent/STIM_019.jpg
2667.63	0.707	0	incongruent	Block3	incongruent/STIM_020.jpg
2670.532	0.956	1	incongruent	Block3	incongruent/STIM_020.jpg
2673.676	0.744	1	incongruent	Block3	incongruent/STIM_020.jpg
2676.987	0.78	1	incongruent	Block3	incongruent/STIM_020.jpg
2679.992	0.934	1	incongruent	Block3	incongruent/STIM_020.jpg
2684.407	0.78	1	incongruent	Block3	incongruent/STIM_021.jpg
2687.93	0.811	1	incongruent	Block3	incongruent/STIM_021.jpg
2690.874	0.561	1	incongruent	Block3	incongruent/STIM_021.jpg
2693.833	0.894	1	incongruent	Block3	incongruent/STIM_021.jpg
2696.963	0.655	1	incongruent	Block3	incongruent/STIM_021.jpg
2699.724	0.664	1	incongruent	Block3	incongruent/STIM_022.jpg
2703.542	0.561	1	incongruent	Block3	incongruent/STIM_022.jpg
2706.728	0.931	1	incongruent	Block3	incongruent/STIM_022.jpg
2711.095	0.521	1	incongruent	Block3	incongruent/STIM_022.jpg
2713.838	0.516	1	incongruent	Block3	incongruent/STIM_022.jpg
2717.901	0.682	1	incongruent	Block3	incongruent/STIM_023.jpg
2721.645	0.933	1	incongruent	Block3	incongruent/STIM_023.jpg
2725.228	0.918	1	incongruent	Block3	incongruent/STIM_023.jpg
2729.435	0.457	1	incongruent	Block3	incongruent/STIM_023.jpg
2733.583	0.521	1	incongruent	Block3	incongruent/STIM_023.jpg
2736.198	0.693	1	incongruent	Block3	incongruent/STIM_024.jpg
2740.535	0.853	1	incongruent	Block3	incongruent/STIM_024.jpg
2744.994	0.758	1	incongruent	Block3	incongruent/STIM_024.jpg
2748.478	0.547	1	incongruent	Block3	incongruent/STIM_024.jpg
2751.887	0.679	1	incongruent	Block3	incongruent/STIM_024.jpg
2755.154	0.826	1	incongruent	Block3	incongruent/STIM_025.jpg
2759.319	0.496	1	incongruent	Block3	incongruent/STIM_025.jpg
2762.646	0.953	1	incongruent	Block3	incongruent/STIM_025.jpg
2766.486	0.852	1	incongruent	Block3	incongruent/STIM_025.jpg
2770.763	0.544	1	incongruent	Block3	incongruent/STIM_025.jpg
2774.772	0.862	1	incongruent	Block3	incongruent/STIM_026.jpg
2778.715	0.631	1	incongruent	Block3	incongruent/STIM_026.jpg
2782.693	0.789	1	incongruent	Block3	incongruent/STIM_026.jpg
2786.638	0.872	1	incongruent	Block3	incongruent/STIM_026.jpg
2790.965	0.484	1	incongruent	Block3	incongruent/STIM_026.jpg
2794.31	0.81	1	incongruent	Block3	incongruent/STIM_027.jpg
2798.157	0.739	1	incongruent	Block3	incongruent/STIM_027.jpg
2801.593	0.505	1	incongruent	Block3	incongruent/STIM_027.jpg
2805.971	0.739	1	incongruent	Block3	incongruent/STIM_027.jpg
2810.437	0.569	1	incongruent	Block3	incongruent/STIM_027.jpg
2813.425	0.61	1	incongruent	Block3	incongruent/STIM_028.jpg
2817.208	0.933	1	incongruent	Block3	incongruent/STIM_028.jpg
2822.159	0.534	1	incongruent	Block3	incongruent/STIM_028.jpg
2826.563	0.741	1	incongruent	Block3	incongruent/STIM_028.jpg
2830.689	0.632	1	incongruent	Block3	incongruent/STIM_028.jpg
2834.204	0.774	1	incongruent	Block3	incongruent/STIM_029.jpg
2837.811	0.823	1	incongruent	Block3	incongruent/STIM_029.jpg
2840.756	0.666	1	incongruent	Block3	incongruent/STIM_029.jpg
2843.879	0.86	1	incongruent	Block3	incongruent/STIM_029.jpg
2847.149	0.615	1	incongruent	Block3	incongruent/STIM_029.jpg
2851.66	0.634	1	congruent	Block3	congruent/STIM_000.jpg
2854.708	0.778	1	congruent	Block3	congruent/STIM_000.jpg
2859.22	0.648	1	congruent	Block3	congruent/STIM_000.jpg
2861.992	0.529	1	congruent	Block3	congruent/STIM_000.jpg
2865.968	0.724	1	congruent	Block3	congruent/STIM_000.jpg
2869.932	0.696	1	congruent	Block3	congruent/STIM_001.jpg
2874.43	0.677	1	congruent	Block3	congruent/STIM_001.jpg
2878.147	0.682	1	congruent	Block3	congruent/STIM_001.jpg
2881.791	0.701	1	congruent	Block3	congruent/STIM_001.jpg
2886.484	0.704	1	congruent	Block3	congruent/STIM_001.jpg
2890.512	0.478	1	congruent	Block3	congruent/STIM_002.jpg
2893.071	0.473	1	congruent	Block3	congruent/STIM_002.jpg
2896.413	0.726	0	congruent	Block3	congruent/STIM_002.jpg
2899.847	0.642	1	congruent	Block3	congruent/STIM_002.jpg
2903.904	0.576	1	congruent	Block3	congruent/STIM_002.jpg
2906.948	0.533	1	congruent	Block3	congruent/STIM_003.jpg
2910.554	0.587	1	congruent	Block3	congruent/STIM_003.jpg
2914.103	0.727	1	congruent	Block3	congruent/STIM_003.jpg
2916.936	0.532	1	congruent	Block3	congruent/STIM_003.jpg
2919.984	0.773	1	congruent	Block3	congruent/STIM_003.jpg
2923.712	0.799	0	congruent	Block3	congruent/STIM_004.jpg
2928.317	0.674	1	congruent	Block3	congruent/STIM_004.jpg
2932.285	0.819	1	congruent	Block3	congruent/STIM_004.jpg
2936.144	0.469	1	congruent	Block3	congruent/STIM_004.jpg
2940.102	0.752	1	congruent	Block3	congruent/STIM_004.jpg
2943.195	0.684	1	congruent	Block3	congruent/STIM_005.jpg
2946.281	0.668	1	congruent	Block3	congruent/STIM_005.jpg
2949.731	0.693	1	congruent	Block3	congruent/STIM_005.jpg
2952.837	0.613	1	congruent	Block3	congruent/STIM_005.jpg
2956.612	0.508	1	congruent	Block3	congruent/STIM_005.jpg
2960.902	0.788	1	congruent	Block3	congruent/STIM_006.jpg
2965.603	0.803	1	congruent	Block3	congruent/STIM_006.jpg
2969.845	0.468	1	congruent	Block3	congruent/STIM_006.jpg
2972.591	0.756	1	congruent	Block3	congruent/STIM_006.jpg
2977.234	0.795	1	congruent	Block3	congruent/STIM_006.jpg
2981.835	0.508	1	congruent	Block3	congruent/STIM_007.jpg
2984.729	0.629	1	congruent	Block3	congruent/STIM_007.jpg
2989.394	0.771	1	congruent	Block3	congruent/STIM_007.jpg
2993.622	0.77	1	congruent	Block3	congruent/STIM_007.jpg
2997.507	0.608	1	congruent	Block3	congruent/STIM_007.jpg
3001.688	0.592	1	congruent	Block3	congruent/STIM_008.jpg
3005.398	0.759	1	congruent	Block3	congruent/STIM_008.jpg
3009.266	0.632	1	congruent	Block3	congruent/STIM_008.jpg
3012.818	0.541	1	congruent	Block3	congruent/STIM_008.jpg
3016.723	0.763	1	congruent	Block3	congruent/STIM_008.jpg
3020.954	0.667	1	congruent	Block3	congruent/STIM_009.jpg
3024.627	0.616	1	congruent	Block3	congruent/STIM_009.jpg
3028.313	0.524	1	congruent	Block3	congruent/STIM_009.jpg
3031.496	0.787	1	congruent	Block3	congruent/STIM_009.jpg
3034.551	0.586	1	congruent	Block3	congruent/STIM_009.jpg
3038.926	0.499	0	congruent	Block3	congruent/STIM_010.jpg
3042.688	0.735	0	congruent	Block3	congruent/STIM_010.jpg
3045.835	0.547	1	congruent	Block3	congruent/STIM_010.jpg
3049.359	0.582	1	congruent	Block3	congruent/STIM_010.jpg
3053.756	0.734	1	congruent	Block3	congruent/STIM_010.jpg
3056.79	0.525	1	congruent	Block3	congruent/STIM_011.jpg
3061.228	0.506	1	congruent	Block3	congruent/STIM_011.jpg
3064.8	0.551	1	congruent	Block3	congruent/STIM_011.jpg
3068.57	0.788	1	congruent	Block3	congruent/STIM_011.jpg
3073.203	0.788	1	congruent	Block3	congruent/STIM_011.jpg
3077.87	0.814	1	congruent	Block3	congruent/STIM_012.jpg
3082.036	0.782	1	congruent	Block3	congruent/STIM_012.jpg
3086.08	0.503	1	congruent	Block3	congruent/STIM_012.jpg
3088.674	0.674	1	congruent	Block3	congruent/STIM_012.jpg
3093.369	0.794	1	congruent	Block3	congruent/STIM_012.jpg
3096.934	0.779	1	congruent	Block3	congruent/STIM_013.jpg
3100.649	0.579	1	congruent	Block3	congruent/STIM_013.jpg
3104.079	0.536	1	congruent	Block3	congruent/STIM_013.jpg
3107.79	0.574	1	congruent	Block3	congruent/STIM_013.jpg
3111.671	0.54	1	congruent	Block3	congruent/STIM_013.jpg
3114.67	0.813	1	congruent	Block3	congruent/STIM_014.jpg
3119.115	0.602	1	congruent	Block3	congruent/STIM_014.jpg
3122.794	0.649	1	congruent	Block3	congruent/STIM_014.jpg
3126.623	0.82	1	congruent	Block3	congruent/STIM_014.jpg
3129.743	0.592	1	congruent	Block3	congruent/STIM_014.jpg
3132.962	0.808	1	congruent	Block3	congruent/STIM_015.jpg
3135.885	0.781	1	congruent	Block3	congruent/STIM_015.jpg
3139.249	0.659	1	congruent	Block3	congruent/STIM_015.jpg
3142.98	0.705	1	congruent	Block3	congruent/STIM_015.jpg
3147.626	0.79	1	congruent	Block3	congruent/STIM_015.jpg
3151.424	0.624	1	congruent	Block3	congruent/STIM_016.jpg
3156.104	0.66	1	congruent	Block3	congruent/STIM_016.jpg
3160.648	0.588	1	congruent	Block3	congruent/STIM_016.jpg
3164.322	0.652	0	congruent	Block3	congruent/STIM_016.jpg
3168.253	0.457	1	congruent	Block3	congruent/STIM_016.jpg
3171.387	0.753	1	congruent	Block3	congruent/STIM_017.jpg
3174.518	0.656	1	congruent	Block3	congruent/STIM_017.jpg
3178.022	0.591	1	congruent	Block3	congruent/STIM_017.jpg
3182.551	0.744	1	congruent	Block3	congruent/STIM_017.jpg
3187.214	0.713	1	congruent	Block3	congruent/STIM_017.jpg
3190.783	0.482	1	congruent	Block3	congruent/STIM_018.jpg
3194.078	0.756	1	congruent	Block3	congruent/STIM_018.jpg
3197.874	0.768	1	congruent	Block3	congruent/STIM_018.jpg
3201.488	0.693	1	congruent	Block3	congruent/STIM_018.jpg
3205.119	0.595	1	congruent	Block3	congruent/STIM_018.jpg
3208.053	0.788	1	congruent	Block3	congruent/STIM_019.jpg
3212.379	0.693	1	congruent	Block3	congruent/STIM_019.jpg
3216.447	0.515	1	congruent	Block3	congruent/STIM_019.jpg
3220.175	0.73	1	congruent	Block3	congruent/STIM_019.jpg
3224.498	0.788	1	congruent	Block3	congruent/STIM_019.jpg
3228.824	0.528	1	congruent	Block3	congruent/STIM_020.jpg
3232.292	0.463	1	congruent	Block3	congruent/STIM_020.jpg
3236.151	0.755	1	congruent	Block3	congruent/STIM_020.jpg
3240.569	0.561	1	congruent	Block3	congruent/STIM_020.jpg
3244.266	0.46	1	congruent	Block3	congruent/STIM_020.jpg
3246.826	0.5	1	congruent	Block3	congruent/STIM_021.jpg
3249.555	0.662	1	congruent	Block3	congruent/STIM_021.jpg
3254.055	0.552	1	congruent	Block3	congruent/STIM_021.jpg
3258.617	0.717	1	congruent	Block3	congruent/STIM_021.jpg
3262.416	0.589	1	congruent	Block3	congruent/STIM_021.jpg
3266.454	0.505	1	congruent	Block3	congruent/STIM_022.jpg
3270.247	0.674	1	congruent	Block3	congruent/STIM_022.jpg
3274.148	0.629	1	congruent	Block3	congruent/STIM_022.jpg
3277.486	0.758	1	congruent	Block3	congruent/STIM_022.jpg
3280.593	0.778	1	congruent	Block3	congruent/STIM_022.jpg
3284.124	0.726	1	congruent	Block3	congruent/STIM_023.jpg
3288.916	0.745	1	congruent	Block3	congruent/STIM_023.jpg
3292.097	0.493	1	congruent	Block3	congruent/STIM_023.jpg
3296.385	0.487	1	congruent	Block3	congruent/STIM_023.jpg
3300.399	0.696	1	congruent	Block3	congruent/STIM_023.jpg
3304.243	0.655	1	congruent	Block3	congruent/STIM_024.jpg
3306.962	0.492	1	congruent	Block3	congruent/STIM_024.jpg
3309.741	0.527	1	congruent	Block3	congruent/STIM_024.jpg
3314.092	0.474	1	congruent	Block3	congruent/STIM_024.jpg
3317.823	0.82	1	congruent	Block3	congruent/STIM_024.jpg
3320.735	0.689	1	congruent	Block3	congruent/STIM_025.jpg
3325.344	0.47	1	congruent	Block3	congruent/STIM_025.jpg
3327.919	0.682	1	congruent	Block3	congruent/STIM_025.jpg
3330.695	0.761	1	congruent	Block3	congruent/STIM_025.jpg
3334.753	0.787	1	congruent	Block3	congruent/STIM_025.jpg
3338.279	0.706	1	congruent	Block3	congruent/STIM_026.jpg
3341.938	0.816	1	congruent	Block3	congruent/STIM_026.jpg
3345.603	0.661	1	congruent	Block3	congruent/STIM_026.jpg
3349.07	0.505	1	congruent	Block3	congruent/STIM_026.jpg
3352.958	0.698	1	congruent	Block3	congruent/STIM_026.jpg
3357.338	0.732	1	congruent	Block3	congruent/STIM_027.jpg
3360.723	0.48	1	congruent	Block3	congruent/STIM_027.jpg
3363.787	0.655	1	congruent	Block3	congruent/STIM_027.jpg
3367.43	0.534	1	congruent	Block3	congruent/STIM_027.jpg
3370.04	0.655	1	congruent	Block3	congruent/STIM_027.jpg
3372.924	0.71	1	congruent	Block3	congruent/STIM_028.jpg
3376.364	0.683	1	congruent	Block3	congruent/STIM_028.jpg
3380.136	0.7	1	congruent	Block3	congruent/STIM_028.jpg
3383.769	0.487	1	congruent	Block3	congruent/STIM_028.jpg
3387.876	0.613	1	congruent	Block3	congruent/STIM_028.jpg
3390.998	0.571	1	congruent	Block3	congruent/STIM_029.jpg
3395.491	0.653	1	congruent	Block3	congruent/STIM_029.jpg
3399.505	0.554	1	congruent	Block3	congruent/STIM_029.jpg
3403.163	0.65	1	congruent	Block3	congruent/STIM_029.jpg
3406.878	0.555	1	congruent	Block3	congruent/STIM_029.jpg
