onset	duration	accuracy	trial_type	learning_stage	stimulus
0.0	1.072	correct	incongruent	Block1	incongruent/STIM_000.jpg
3.155	1.106	correct	incongruent	Block1	incongruent/STIM_000.jpg
7.065	0.822	correct	incongruent	Block1	incongruent/STIM_000.jpg
11.699	0.815	correct	incongruent	Block1	incongruent/STIM_000.jpg
14.601	0.852	correct	incongruent	Block1	incongruent/STIM_000.jpg
17.941	0.766	correct	incongruent	Block1	incongruent/STIM_001.jpg
21.572	0.55	correct	incongruent	Block1	incongruent/STIM_001.jpg
25.483	1.016	correct	incongruent	Block1	incongruent/STIM_001.jpg
29.789	0.531	correct	incongruent	Block1	incongruent/STIM_001.jpg
32.607	0.956	correct	incongruent	Block1	incongruent/STIM_001.jpg
35.931	1.178	correct	incongruent	Block1	incongruent/STIM_002.jpg
39.143	1.024	correct	incongruent	Block1	incongruent/STIM_002.jpg
43.73	0.573	correct	incongruent	Block1	incongruent/STIM_002.jpg
47.208	0.742	correct	incongruent	Block1	incongruent/STIM_002.jpg
51.032	0.865	correct	incongruent	Block1	incongruent/STIM_002.jpg
55.863	1.036	correct	incongruent	Block1	incongruent/STIM_003.jpg
59.268	1.047	correct	incongruent	Block1	incongruent/STIM_003.jpg
62.923	0.984	correct	incongruent	Block1	incongruent/STIM_003.jpg
66.757	0.87	correct	incongruent	Block1	incongruent/STIM_003.jpg
69.863	0.936	correct	incongruent	Block1	incongruent/STIM_003.jpg
73.72	0.943	correct	incongruent	Block1	incongruent/STIM_004.jpg
77.729	1.098	correct	incongruent	Block1	incongruent/STIM_004.jpg
80.968	0.824	correct	incongruent	Block1	incongruent/STIM_004.jpg
84.152	0.611	correct	incongruent	Block1	incongruent/STIM_004.jpg
88.611	0.868	correct	incongruent	Block1	incongruent/STIM_004.jpg
91.694	0.911	correct	incongruent	Block1	incongruent/STIM_005.jpg
96.322	0.896	correct	incongruent	Block1	incongruent/STIM_005.jpg
99.365	1.041	correct	incongruent	Block1	incongruent/STIM_005.jpg
102.776	0.872	correct	incongruent	Block1	incongruent/STIM_005.jpg
106.771	0.92	incorrect	incongruent	Block1	incongruent/STIM_005.jpg
109.979	0.832	correct	incongruent	Block1	incongruent/STIM_006.jpg
114.128	1.015	correct	incongruent	Block1	incongruent/STIM_006.jpg
117.833	0.725	correct	incongruent	Block1	incongruent/STIM_006.jpg
120.799	1.0	correct	incongruent	Block1	incongruent/STIM_006.jpg
123.811	0.772	correct	incongruent	Block1	incongruent/STIM_006.jpg
126.76	0.66	correct	incongruent	Block1	incongruent/STIM_007.jpg
130.961	0.884	correct	incongruent	Block1	incongruent/STIM_007.jpg
134.212	0.849	correct	incongruent	Block1	incongruent/STIM_007.jpg
138.936	1.036	correct	incongruent	Block1	incongruent/STIM_007.jpg
142.43	0.813	correct	incongruent	Block1	incongruent/STIM_007.jpg
146.614	1.009	correct	incongruent	Block1	incongruent/STIM_008.jpg
151.059	0.948	correct	incongruent	Block1	incongruent/STIM_008.jpg
155.841	0.786	correct	incongruent	Block1	incongruent/STIM_008.jpg
159.106	0.651	correct	incongruent	Block1	incongruent/STIM_008.jpg
162.777	0.94	correct	incongruent	Block1	incongruent/STIM_008.jpg
166.357	1.07	correct	incongruent	Block1	incongruent/STIM_009.jpg
170.81	1.123	correct	incongruent	Block1	incongruent/STIM_009.jpg
174.894	0.88	correct	incongruent	Block1	incongruent/STIM_009.jpg
178.129	0.594	correct	incongruent	Block1	incongruent/STIM_009.jpg
182.657	0.973	correct	incongruent	Block1	incongruent/STIM_009.jpg
186.327	0.653	correct	incongruent	Block1	incongruent/STIM_010.jpg
189.861	0.958	correct	incongruent	Block1	incongruent/STIM_010.jpg
193.211	0.962	correct	incongruent	Block1	incongruent/STIM_010.jpg
196.57	0.832	correct	incongruent	Block1	incongruent/STIM_010.jpg
201.24	0.819	correct	incongruent	Block1	incongruent/STIM_010.jpg
205.18	0.706	correct	incongruent	Block1	incongruent/STIM_011.jpg
209.585	0.972	correct	incongruent	Block1	incongruent/STIM_011.jpg
214.117	1.07	correct	incongruent	Block1	incongruent/STIM_011.jpg
218.599	0.492	correct	incongruent	Block1	incongruent/STIM_011.jpg
221.688	0.86	correct	incongruent	Block1	incongruent/STIM_011.jpg
225.772	0.62	correct	incongruent	Block1	incongruent/STIM_012.jpg
229.328	0.651	correct	incongruent	Block1	incongruent/STIM_012.jpg
233.282	0.571	correct	incongruent	Block1	incongruent/STIM_012.jpg
236.379	0.942	correct	incongruent	Block1	incongruent/STIM_012.jpg
240.09	0.643	correct	incongruent	Block1	incongruent/STIM_012.jpg
243.022	1.177	correct	incongruent	Block1	incongruent/STIM_013.jpg
247.297	1.065	correct	incongruent	Block1	incongruent/STIM_013.jpg
251.783	0.679	correct	incongruent	Block1	incongruent/STIM_013.jpg
254.834	0.787	correct	incongruent	Block1	incongruent/STIM_013.jpg
257.899	0.855	correct	incongruent	Block1	incongruent/STIM_013.jpg
262.29	1.166	correct	incongruent	Block1	incongruent/STIM_014.jpg
265.908	0.897	correct	incongruent	Block1	incongruent/STIM_014.jpg
269.498	0.74	correct	incongruent	Block1	incongruent/STIM_014.jpg
272.306	0.654	correct	incongruent	Block1	incongruent/STIM_014.jpg
276.436	0.606	correct	incongruent	Block1	incongruent/STIM_014.jpg
280.289	0.993	correct	incongruent	Block1	incongruent/STIM_015.jpg
284.927	1.01	correct	incongruent	Block1	incongruent/STIM_015.jpg
288.462	0.824	correct	incongruent	Block1	incongruent/STIM_015.jpg
291.307	0.9	correct	incongruent	Block1	incongruent/STIM_015.jpg
294.984	0.659	correct	incongruent	Block1	incongruent/STIM_015.jpg
298.411	0.853	correct	incongruent	Block1	incongruent/STIM_016.jpg
301.75	0.681	correct	incongruent	Block1	incongruent/STIM_016.jpg
304.798	0.762	correct	incongruent	Block1	incongruent/STIM_016.jpg
308.543	0.612	correct	incongruent	Block1	incongruent/STIM_016.jpg
312.66	0.697	correct	incongruent	Block1	incongruent/STIM_016.jpg
315.585	1.042	correct	incongruent	Block1	incongruent/STIM_017.jpg
319.304	0.834	correct	incongruent	Block1	incongruent/STIM_017.jpg
322.269	0.774	correct	incongruent	Block1	incongruent/STIM_017.jpg
325.319	0.578	correct	incongruent	Block1	incongruent/STIM_017.jpg
328.322	0.746	incorrect	incongruent	Block1	incongruent/STIM_017.jpg
332.042	0.876	correct	incongruent	Block1	incongruent/STIM_018.jpg
335.848	1.075	correct	incongruent	Block1	incongruent/STIM_018.jpg
339.186	0.918	correct	incongruent	Block1	incongruent/STIM_018.jpg
342.112	0.896	correct	incongruent	Block1	incongruent/STIM_018.jpg
346.417	0.84	correct	incongruent	Block1	incongruent/STIM_018.jpg
350.073	0.868	correct	incongruent	Block1	incongruent/STIM_019.jpg
354.813	1.018	correct	incongruent	Block1	incongruent/STIM_019.jpg
359.106	0.81	correct	incongruent	Block1	incongruent/STIM_019.jpg
362.277	0.985	correct	incongruent	Block1	incongruent/STIM_019.jpg
367.052	0.904	correct	incongruent	Block1	incongruent/STIM_019.jpg
371.403	0.734	correct	incongruent	Block1	incongruent/STIM_020.jpg
375.7	1.116	correct	incongruent	Block1	incongruent/STIM_020.jpg
379.704	1.046	correct	incongruent	Block1	incongruent/STIM_020.jpg
384.028	1.001	correct	incongruent	Block1	incongruent/STIM_020.jpg
388.723	0.911	correct	incongruent	Block1	incongruent/STIM_020.jpg
392.914	0.969	incorrect	incongruent	Block1	incongruent/STIM_021.jpg
395.943	0.682	correct	incongruent	Block1	incongruent/STIM_021.jpg
399.858	0.984	correct	incongruent	Block1	incongruent/STIM_021.jpg
403.874	0.822	correct	incongruent	Block1	incongruent/STIM_021.jpg
408.509	0.907	correct	incongruent	Block1	incongruent/STIM_021.jpg
411.49	1.135	correct	incongruent	Block1	incongruent/STIM_022.jpg
416.232	1.148	correct	incongruent	Block1	incongruent/STIM_022.jpg
419.45	0.953	correct	incongruent	Block1	incongruent/STIM_022.jpg
422.781	0.856	correct	incongruent	Block1	incongruent/STIM_022.jpg
426.576	0.661	correct	incongruent	Block1	incongruent/STIM_022.jpg
430.911	0.61	correct	incongruent	Block1	incongruent/STIM_023.jpg
433.657	0.689	correct	incongruent	Block1	incongruent/STIM_023.jpg
437.303	0.722	correct	incongruent	Block1	incongruent/STIM_023.jpg
440.324	0.52	correct	incongruent	Block1	incongruent/STIM_023.jpg
443.947	0.783	correct	incongruent	Block1	incongruent/STIM_023.jpg
448.521	1.01	correct	incongruent	Block1	incongruent/STIM_024.jpg
452.733	1.051	correct	incongruent	Block1	incongruent/STIM_024.jpg
456.609	0.723	correct	incongruent	Block1	incongruent/STIM_024.jpg
459.864	0.528	correct	incongruent	Block1	incongruent/STIM_024.jpg
462.879	0.822	correct	incongruent	Block1	incongruent/STIM_024.jpg
467.649	0.665	correct	incongruent	Block1	incongruent/STIM_025.jpg
472.031	0.828	correct	incongruent	Block1	incongruent/STIM_025.jpg
475.726	1.027	correct	incongruent	Block1	incongruent/STIM_025.jpg
480.697	0.646	correct	incongruent	Block1	incongruent/STIM_025.jpg
483.621	0.575	incorrect	incongruent	Block1	incongruent/STIM_025.jpg
487.092	0.767	correct	incongruent	Block1	incongruent/STIM_026.jpg
489.998	0.971	correct	incongruent	Block1	incongruent/STIM_026.jpg
493.282	0.952	correct	incongruent	Block1	incongruent/STIM_026.jpg
497.371	0.953	correct	incongruent	Block1	incongruent/STIM_026.jpg
501.738	0.463	correct	incongruent	Block1	incongruent/STIM_026.jpg
504.369	1.097	correct	incongruent	Block1	incongruent/STIM_027.jpg
507.843	0.711	correct	incongruent	Block1	incongruent/STIM_027.jpg
511.453	1.099	correct	incongruent	Block1	incongruent/STIM_027.jpg
515.101	0.565	correct	incongruent	Block1	incongruent/STIM_027.jpg
518.413	0.599	correct	incongruent	Block1	incongruent/STIM_027.jpg
521.96	0.765	correct	incongruent	Block1	incongruent/STIM_028.jpg
524.845	0.566	correct	incongruent	Block1	incongruent/STIM_028.jpg
527.601	0.755	correct	incongruent	Block1	incongruent/STIM_028.jpg
531.177	0.974	correct	incongruent	Block1	incongruent/STIM_028.jpg
534.904	0.708	correct	incongruent	Block1	incongruent/STIM_028.jpg
537.855	1.02	correct	incongruent	Block1	incongruent/STIM_029.jpg
542.809	0.697	correct	incongruent	Block1	incongruent/STIM_029.jpg
546.612	0.943	correct	incongruent	Block1	incongruent/STIM_029.jpg
550.513	1.017	correct	incongruent	Block1	incongruent/STIM_029.jpg
554.302	0.488	correct	incongruent	Block1	incongruent/STIM_029.jpg
558.418	0.552	correct	congruent	Block1	congruent/STIM_000.jpg
562.926	0.624	correct	congruent	Block1	congruent/STIM_000.jpg
566.726	0.411	correct	congruent	Block1	congruent/STIM_000.jpg
570.154	0.667	correct	congruent	Block1	congruent/STIM_000.jpg
573.569	0.64	correct	congruent	Block1	congruent/STIM_000.jpg
577.6	0.632	correct	congruent	Block1	congruent/STIM_001.jpg
581.329	0.653	correct	congruent	Block1	congruent/STIM_001.jpg
584.229	0.682	correct	congruent	Block1	congruent/STIM_001.jpg
588.099	0.56	correct	congruent	Block1	congruent/STIM_001.jpg
591.556	0.603	correct	congruent	Block1	congruent/STIM_001.jpg
595.112	0.475	correct	congruent	Block1	congruent/STIM_002.jpg
598.293	0.552	correct	congruent	Block1	congruent/STIM_002.jpg
600.966	0.464	correct	congruent	Block1	congruent/STIM_002.jpg
604.549	0.445	correct	congruent	Block1	congruent/STIM_002.jpg
607.753	0.693	correct	congruent	Block1	congruent/STIM_002.jpg
611.315	0.476	correct	congruent	Block1	congruent/STIM_003.jpg
614.536	0.569	correct	congruent	Block1	congruent/STIM_003.jpg
618.243	0.724	correct	congruent	Block1	congruent/STIM_003.jpg
622.851	0.735	correct	congruent	Block1	congruent/STIM_003.jpg
626.222	0.725	correct	congruent	Block1	congruent/STIM_003.jpg
630.735	0.43	correct	congruent	Block1	congruent/STIM_004.jpg
634.457	0.606	correct	congruent	Block1	congruent/STIM_004.jpg
638.729	0.436	correct	congruent	Block1	congruent/STIM_004.jpg
642.156	0.63	correct	congruent	Block1	congruent/STIM_004.jpg
645.002	0.706	correct	congruent	Block1	congruent/STIM_004.jpg
648.529	0.59	correct	congruent	Block1	congruent/STIM_005.jpg
652.944	0.566	correct	congruent	Block1	congruent/STIM_005.jpg
657.407	0.562	correct	congruent	Block1	congruent/STIM_005.jpg
660.73	0.545	correct	congruent	Block1	congruent/STIM_005.jpg
663.473	0.412	correct	congruent	Block1	congruent/STIM_005.jpg
667.541	0.699	correct	congruent	Block1	congruent/STIM_006.jpg
670.955	0.415	correct	congruent	Block1	congruent/STIM_006.jpg
673.565	0.476	correct	congruent	Block1	congruent/STIM_006.jpg
677.854	0.428	correct	congruent	Block1	congruent/STIM_006.jpg
681.449	0.529	correct	congruent	Block1	congruent/STIM_006.jpg
685.159	0.632	correct	congruent	Block1	congruent/STIM_007.jpg
689.256	0.452	correct	congruent	Block1	congruent/STIM_007.jpg
692.987	0.662	correct	congruent	Block1	congruent/STIM_007.jpg
696.239	0.468	correct	congruent	Block1	congruent/STIM_007.jpg
699.402	0.582	correct	congruent	Block1	congruent/STIM_007.jpg
702.986	0.606	correct	congruent	Block1	congruent/STIM_008.jpg
705.954	0.684	correct	congruent	Block1	congruent/STIM_008.jpg
709.237	0.579	correct	congruent	Block1	congruent/STIM_008.jpg
713.03	0.613	correct	congruent	Block1	congruent/STIM_008.jpg
716.335	0.592	correct	congruent	Block1	congruent/STIM_008.jpg
720.578	0.544	correct	congruent	Block1	congruent/STIM_009.jpg
725.029	0.682	correct	congruent	Block1	congruent/STIM_009.jpg
728.197	0.688	correct	congruent	Block1	congruent/STIM_009.jpg
732.006	0.566	correct	congruent	Block1	congruent/STIM_009.jpg
736.406	0.574	correct	congruent	Block1	congruent/STIM_009.jpg
739.85	0.535	correct	congruent	Block1	congruent/STIM_010.jpg
743.696	0.652	correct	congruent	Block1	congruent/STIM_010.jpg
747.201	0.678	correct	congruent	Block1	congruent/STIM_010.jpg
750.873	0.684	correct	congruent	Block1	congruent/STIM_010.jpg
754.383	0.42	correct	congruent	Block1	congruent/STIM_010.jpg
758.083	0.705	correct	congruent	Block1	congruent/STIM_011.jpg
761.08	0.673	correct	congruent	Block1	congruent/STIM_011.jpg
764.133	0.459	correct	congruent	Block1	congruent/STIM_011.jpg
768.539	0.421	correct	congruent	Block1	congruent/STIM_011.jpg
771.117	0.652	correct	congruent	Block1	congruent/STIM_011.jpg
775.735	0.672	correct	congruent	Block1	congruent/STIM_012.jpg
779.856	0.704	correct	congruent	Block1	congruent/STIM_012.jpg
783.756	0.724	correct	congruent	Block1	congruent/STIM_012.jpg
788.403	0.653	correct	congruent	Block1	congruent/STIM_012.jpg
791.411	0.43	correct	congruent	Block1	congruent/STIM_012.jpg
794.944	0.506	correct	congruent	Block1	congruent/STIM_013.jpg
798.815	0.546	correct	congruent	Block1	congruent/STIM_013.jpg
801.82	0.583	correct	congruent	Block1	congruent/STIM_013.jpg
804.526	0.691	correct	congruent	Block1	congruent/STIM_013.jpg
808.247	0.708	correct	congruent	Block1	congruent/STIM_013.jpg
811.067	0.632	correct	congruent	Block1	congruent/STIM_014.jpg
814.732	0.559	correct	congruent	Block1	congruent/STIM_014.jpg
817.455	0.617	incorrect	congruent	Block1	congruent/STIM_014.jpg
821.091	0.453	correct	congruent	Block1	congruent/STIM_014.jpg
824.929	0.586	correct	congruent	Block1	congruent/STIM_014.jpg
827.995	0.505	correct	congruent	Block1	congruent/STIM_015.jpg
831.118	0.416	correct	congruent	Block1	congruent/STIM_015.jpg
834.898	0.423	correct	congruent	Block1	congruent/STIM_015.jpg
838.485	0.524	correct	congruent	Block1	congruent/STIM_015.jpg
842.944	0.555	correct	congruent	Block1	congruent/STIM_015.jpg
847.43	0.72	correct	congruent	Block1	congruent/STIM_016.jpg
850.489	0.582	correct	congruent	Block1	congruent/STIM_016.jpg
854.725	0.604	correct	congruent	Block1	congruent/STIM_016.jpg
858.337	0.596	correct	congruent	Block1	congruent/STIM_016.jpg
861.619	0.588	correct	congruent	Block1	congruent/STIM_016.jpg
864.955	0.443	correct	congruent	Block1	congruent/STIM_017.jpg
868.45	0.651	correct	congruent	Block1	congruent/STIM_017.jpg
871.278	0.509	correct	congruent	Block1	congruent/STIM_017.jpg
875.361	0.555	correct	congruent	Block1	congruent/STIM_017.jpg
879.293	0.605	correct	congruent	Block1	congruent/STIM_017.jpg
882.046	0.668	correct	congruent	Block1	congruent/STIM_018.jpg
885.727	0.522	correct	congruent	Block1	congruent/STIM_018.jpg
888.392	0.452	correct	congruent	Block1	congruent/STIM_018.jpg
891.062	0.663	correct	congruent	Block1	congruent/STIM_018.jpg
893.816	0.478	correct	congruent	Block1	congruent/STIM_018.jpg
897.865	0.516	correct	congruent	Block1	congruent/STIM_019.jpg
900.739	0.429	correct	congruent	Block1	congruent/STIM_019.jpg
903.401	0.532	correct	congruent	Block1	congruent/STIM_019.jpg
906.3	0.729	correct	congruent	Block1	congruent/STIM_019.jpg
910.865	0.662	correct	congruent	Block1	congruent/STIM_019.jpg
915.038	0.649	correct	congruent	Block1	congruent/STIM_020.jpg
919.078	0.51	correct	congruent	Block1	congruent/STIM_020.jpg
922.946	0.674	correct	congruent	Block1	congruent/STIM_020.jpg
926.674	0.707	incorrect	congruent	Block1	congruent/STIM_020.jpg
930.427	0.675	correct	congruent	Block1	congruent/STIM_020.jpg
935.042	0.726	correct	congruent	Block1	congruent/STIM_021.jpg
937.857	0.691	correct	congruent	Block1	congruent/STIM_021.jpg
942.24	0.523	correct	congruent	Block1	congruent/STIM_021.jpg
945.089	0.502	correct	congruent	Block1	congruent/STIM_021.jpg
948.296	0.475	correct	congruent	Block1	congruent/STIM_021.jpg
951.719	0.511	correct	congruent	Block1	congruent/STIM_022.jpg
955.245	0.577	correct	congruent	Block1	congruent/STIM_022.jpg
958.905	0.716	correct	congruent	Block1	congruent/STIM_022.jpg
963.167	0.589	correct	congruent	Block1	congruent/STIM_022.jpg
965.99	0.716	correct	congruent	Block1	congruent/STIM_022.jpg
969.43	0.503	correct	congruent	Block1	congruent/STIM_023.jpg
972.978	0.487	correct	congruent	Block1	congruent/STIM_023.jpg
975.932	0.641	correct	congruent	Block1	congruent/STIM_023.jpg
979.095	0.452	correct	congruent	Block1	congruent/STIM_023.jpg
981.627	0.652	correct	congruent	Block1	congruent/STIM_023.jpg
986.03	0.556	correct	congruent	Block1	congruent/STIM_024.jpg
989.401	0.431	correct	congruent	Block1	congruent/STIM_024.jpg
993.711	0.574	correct	congruent	Block1	congruent/STIM_024.jpg
997.215	0.569	correct	congruent	Block1	congruent/STIM_024.jpg
1001.564	0.515	correct	congruent	Block1	congruent/STIM_024.jpg
1005.635	0.663	correct	congruent	Block1	congruent/STIM_025.jpg
1009.894	0.424	correct	congruent	Block1	congruent/STIM_025.jpg
1012.485	0.587	correct	congruent	Block1	congruent/STIM_025.jpg
1015.598	0.442	correct	congruent	Block1	congruent/STIM_025.jpg
1019.959	0.434	correct	congruent	Block1	congruent/STIM_025.jpg
1023.321	0.543	correct	congruent	Block1	congruent/STIM_026.jpg
1026.797	0.553	correct	congruent	Block1	congruent/STIM_026.jpg
1031.3	0.418	correct	congruent	Block1	congruent/STIM_026.jpg
1034.234	0.429	correct	congruent	Block1	congruent/STIM_026.jpg
1037.033	0.579	correct	congruent	Block1	congruent/STIM_026.jpg
1041.542	0.437	correct	congruent	Block1	congruent/STIM_027.jpg
1045.341	0.565	correct	congruent	Block1	congruent/STIM_027.jpg
1048.503	0.453	correct	congruent	Block1	congruent/STIM_027.jpg
1051.401	0.73	correct	congruent	Block1	congruent/STIM_027.jpg
1055.528	0.528	correct	congruent	Block1	congruent/STIM_027.jpg
1058.523	0.666	correct	congruent	Block1	congruent/STIM_028.jpg
1061.305	0.718	correct	congruent	Block1	congruent/STIM_028.jpg
1065.064	0.712	correct	congruent	Block1	congruent/STIM_028.jpg
1069.475	0.467	correct	congruent	Block1	congruent/STIM_028.jpg
1073.914	0.717	correct	congruent	Block1	congruent/STIM_028.jpg
1078.1	0.719	correct	congruent	Block1	congruent/STIM_029.jpg
1080.93	0.655	correct	congruent	Block1	congruent/STIM_029.jpg
1084.068	0.518	correct	congruent	Block1	congruent/STIM_029.jpg
1086.958	0.616	correct	congruent	Block1	congruent/STIM_029.jpg
1090.916	0.724	correct	congruent	Block1	congruent/STIM_029.jpg
1094.055	0.859	correct	incongruent	Block2	incongruent/STIM_000.jpg
1098.696	0.818	correct	incongruent	Block2	incongruent/STIM_000.jpg
1103.188	0.803	correct	incongruent	Block2	incongruent/STIM_000.jpg
1107.667	0.806	correct	incongruent	Block2	incongruent/STIM_000.jpg
1110.918	0.476	correct	incongruent	Block2	incongruent/STIM_000.jpg
1113.729	0.487	correct	incongruent	Block2	incongruent/STIM_001.jpg
1117.672	0.649	correct	incongruent	Block2	incongruent/STIM_001.jpg
1122.251	0.596	correct	incongruent	Block2	incongruent/STIM_001.jpg
1125.411	0.601	correct	incongruent	Block2	incongruent/STIM_001.jpg
1129.975	0.599	correct	incongruent	Block2	incongruent/STIM_001.jpg
1133.716	0.833	correct	incongruent	Block2	incongruent/STIM_002.jpg
1137.349	0.818	correct	incongruent	Block2	incongruent/STIM_002.jpg
1140.307	0.768	correct	incongruent	Block2	incongruent/STIM_002.jpg
1145.03	0.769	correct	incongruent	Block2	incongruent/STIM_002.jpg
1147.858	0.797	correct	incongruent	Block2	incongruent/STIM_002.jpg
1151.592	0.646	correct	incongruent	Block2	incongruent/STIM_003.jpg
1156.233	0.671	correct	incongruent	Block2	incongruent/STIM_003.jpg
1159.774	0.796	correct	incongruent	Block2	incongruent/STIM_003.jpg
1164.453	0.828	correct	incongruent	Block2	incongruent/STIM_003.jpg
1167.339	0.611	correct	incongruent	Block2	incongruent/STIM_003.jpg
1171.676	0.632	correct	incongruent	Block2	incongruent/STIM_004.jpg
1175.511	0.47	correct	incongruent	Block2	incongruent/STIM_004.jpg
1179.157	0.576	correct	incongruent	Block2	incongruent/STIM_004.jpg
1183.441	0.72	correct	incongruent	Block2	incongruent/STIM_004.jpg
1186.537	0.596	incorrect	incongruent	Block2	incongruent/STIM_004.jpg
1189.553	0.851	correct	incongruent	Block2	incongruent/STIM_005.jpg
1193.492	0.895	correct	incongruent	Block2	incongruent/STIM_005.jpg
1196.904	0.786	correct	incongruent	Block2	incongruent/STIM_005.jpg
1199.749	0.807	correct	incongruent	Block2	incongruent/STIM_005.jpg
1203.425	0.525	correct	incongruent	Block2	incongruent/STIM_005.jpg
1207.121	0.809	correct	incongruent	Block2	incongruent/STIM_006.jpg
1211.025	0.975	correct	incongruent	Block2	incongruent/STIM_006.jpg
1214.184	0.799	correct	incongruent	Block2	incongruent/STIM_006.jpg
1218.161	0.446	correct	incongruent	Block2	incongruent/STIM_006.jpg
1221.317	0.464	correct	incongruent	Block2	incongruent/STIM_006.jpg
1225.278	0.921	correct	incongruent	Block2	incongruent/STIM_007.jpg
1229.248	0.644	correct	incongruent	Block2	incongruent/STIM_007.jpg
1231.914	0.74	correct	incongruent	Block2	incongruent/STIM_007.jpg
1236.335	0.767	correct	incongruent	Block2	incongruent/STIM_007.jpg
1239.234	0.42	correct	incongruent	Block2	incongruent/STIM_007.jpg
1242.504	0.742	correct	incongruent	Block2	incongruent/STIM_008.jpg
1246.026	0.632	correct	incongruent	Block2	incongruent/STIM_008.jpg
1249.737	0.904	correct	incongruent	Block2	incongruent/STIM_008.jpg
1254.55	0.788	correct	incongruent	Block2	incongruent/STIM_008.jpg
1258.329	0.521	correct	incongruent	Block2	incongruent/STIM_008.jpg
1262.237	0.949	correct	incongruent	Block2	incongruent/STIM_009.jpg
1265.77	0.935	correct	incongruent	Block2	incongruent/STIM_009.jpg
1269.857	0.723	correct	incongruent	Block2	incongruent/STIM_009.jpg
1273.969	0.743	correct	incongruent	Block2	incongruent/STIM_009.jpg
1277.452	0.444	correct	incongruent	Block2	incongruent/STIM_009.jpg
1281.402	0.615	correct	incongruent	Block2	incongruent/STIM_010.jpg
1284.395	0.974	correct	incongruent	Block2	incongruent/STIM_010.jpg
1287.473	0.607	correct	incongruent	Block2	incongruent/STIM_010.jpg
1291.7	0.404	correct	incongruent	Block2	incongruent/STIM_010.jpg
1294.422	0.646	correct	incongruent	Block2	incongruent/STIM_010.jpg
1298.987	0.932	correct	incongruent	Block2	incongruent/STIM_011.jpg
1303.754	0.938	correct	incongruent	Block2	incongruent/STIM_011.jpg
1307.887	0.749	correct	incongruent	Block2	incongruent/STIM_011.jpg
1312.245	0.602	correct	incongruent	Block2	incongruent/STIM_011.jpg
1316.673	0.444	correct	incongruent	Block2	incongruent/STIM_011.jpg
1319.568	0.491	correct	incongruent	Block2	incongruent/STIM_012.jpg
1324.037	0.608	correct	incongruent	Block2	incongruent/STIM_012.jpg
1327.059	0.86	correct	incongruent	Block2	incongruent/STIM_012.jpg
1329.932	0.493	correct	incongruent	Block2	incongruent/STIM_012.jpg
1333.207	0.638	correct	incongruent	Block2	incongruent/STIM_012.jpg
1336.303	0.891	correct	incongruent	Block2	incongruent/STIM_013.jpg
1340.811	0.838	correct	incongruent	Block2	incongruent/STIM_013.jpg
1344.325	0.674	correct	incongruent	Block2	incongruent/STIM_013.jpg
1347.606	0.634	correct	incongruent	Block2	incongruent/STIM_013.jpg
1352.237	0.471	correct	incongruent	Block2	incongruent/STIM_013.jpg
1356.684	0.511	correct	incongruent	Block2	incongruent/STIM_014.jpg
1360.513	0.715	correct	incongruent	Block2	incongruent/STIM_014.jpg
1363.984	0.505	correct	incongruent	Block2	incongruent/STIM_014.jpg
1367.317	0.826	correct	incongruent	Block2	incongruent/STIM_014.jpg
1371.576	0.508	correct	incongruent	Block2	incongruent/STIM_014.jpg
1375.088	0.503	correct	incongruent	Block2	incongruent/STIM_015.jpg
1379.373	0.727	correct	incongruent	Block2	incongruent/STIM_015.jpg
1382.14	0.442	correct	incongruent	Block2	incongruent/STIM_015.jpg
1385.584	0.857	correct	incongruent	Block2	incongruent/STIM_015.jpg
1389.055	0.657	correct	incongruent	Block2	incongruent/STIM_015.jpg
1391.818	0.635	correct	incongruent	Block2	incongruent/STIM_016.jpg
1396.088	0.81	correct	incongruent	Block2	incongruent/STIM_016.jpg
1400.126	0.478	correct	incongruent	Block2	incongruent/STIM_016.jpg
1404.341	0.784	correct	incongruent	Block2	incongruent/STIM_016.jpg
1407.317	0.584	correct	incongruent	Block2	incongruent/STIM_016.jpg
1410.179	0.622	correct	incongruent	Block2	incongruent/STIM_017.jpg
1412.842	0.715	correct	incongruent	Block2	incongruent/STIM_017.jpg
1415.607	0.798	correct	incongruent	Block2	incongruent/STIM_017.jpg
1418.826	0.494	correct	incongruent	Block2	incongruent/STIM_017.jpg
1423.3	0.579	correct	incongruent	Block2	incongruent/STIM_017.jpg
1427.614	0.977	correct	incongruent	Block2	incongruent/STIM_018.jpg
1431.73	0.745	correct	incongruent	Block2	incongruent/STIM_018.jpg
1435.265	0.508	correct	incongruent	Block2	incongruent/STIM_018.jpg
1437.825	0.816	correct	incongruent	Block2	incongruent/STIM_018.jpg
1441.676	0.513	correct	incongruent	Block2	incongruent/STIM_018.jpg
1445.996	0.726	correct	incongruent	Block2	incongruent/STIM_019.jpg
1448.755	0.488	correct	incongruent	Block2	incongruent/STIM_019.jpg
1452.666	0.686	correct	incongruent	Block2	incongruent/STIM_019.jpg
1455.874	0.835	correct	incongruent	Block2	incongruent/STIM_019.jpg
1459.854	0.621	correct	incongruent	Block2	incongruent/STIM_019.jpg
1464.167	0.613	correct	incongruent	Block2	incongruent/STIM_020.jpg
1467.781	0.645	correct	incongruent	Block2	incongruent/STIM_020.jpg
1471.391	0.814	correct	incongruent	Block2	incongruent/STIM_020.jpg
1474.461	0.533	correct	incongruent	Block2	incongruent/STIM_020.jpg
1477.884	0.456	correct	incongruent	Block2	incongruent/STIM_020.jpg
1482.077	0.501	correct	incongruent	Block2	incongruent/STIM_021.jpg
1485.648	0.686	correct	incongruent	Block2	incongruent/STIM_021.jpg
1490.142	0.612	correct	incongruent	Block2	incongruent/STIM_021.jpg
1493.972	0.763	correct	incongruent	Block2	incongruent/STIM_021.jpg
1496.913	0.811	correct	incongruent	Block2	incongruent/STIM_021.jpg
1501.539	0.509	correct	incongruent	Block2	incongruent/STIM_022.jpg
1505.857	0.667	correct	incongruent	Block2	incongruent/STIM_022.jpg
1509.18	0.821	correct	incongruent	Block2	incongruent/STIM_022.jpg
1513.951	0.809	correct	incongruent	Block2	incongruent/STIM_022.jpg
1517.816	0.593	correct	incongruent	Block2	incongruent/STIM_022.jpg
1520.51	0.554	correct	incongruent	Block2	incongruent/STIM_023.jpg
1523.179	0.532	correct	incongruent	Block2	incongruent/STIM_023.jpg
1526.9	0.566	correct	incongruent	Block2	incongruent/STIM_023.jpg
1531.167	0.55	correct	incongruent	Block2	incongruent/STIM_023.jpg
1534.757	0.56	correct	incongruent	Block2	incongruent/STIM_023.jpg
1538.691	0.614	correct	incongruent	Block2	incongruent/STIM_024.jpg
1542.058	0.951	correct	incongruent	Block2	incongruent/STIM_024.jpg
1546.123	0.628	correct	incongruent	Block2	incongruent/STIM_024.jpg
1550.508	0.769	correct	incongruent	Block2	incongruent/STIM_024.jpg
1555.234	0.558	correct	incongruent	Block2	incongruent/STIM_024.jpg
1558.951	0.655	correct	incongruent	Block2	incongruent/STIM_025.jpg
1562.45	0.664	correct	incongruent	Block2	incongruent/STIM_025.jpg
1566.695	0.81	correct	incongruent	Block2	incongruent/STIM_025.jpg
1570.703	0.835	correct	incongruent	Block2	incongruent/STIM_025.jpg
1574.669	0.759	correct	incongruent	Block2	incongruent/STIM_025.jpg
1577.899	0.581	correct	incongruent	Block2	incongruent/STIM_026.jpg
1581.64	0.753	correct	incongruent	Block2	incongruent/STIM_026.jpg
1585.214	0.738	correct	incongruent	Block2	incongruent/STIM_026.jpg
1589.729	0.49	correct	incongruent	Block2	incongruent/STIM_026.jpg
1593.449	0.476	correct	incongruent	Block2	incongruent/STIM_026.jpg
1596.786	0.564	correct	incongruent	Block2	incongruent/STIM_027.jpg
1600.878	0.844	correct	incongruent	Block2	incongruent/STIM_027.jpg
1603.925	0.51	correct	incongruent	Block2	incongruent/STIM_027.jpg
1607.884	0.687	correct	incongruent	Block2	incongruent/STIM_027.jpg
1610.828	0.688	correct	incongruent	Block2	incongruent/STIM_027.jpg
1614.124	0.612	correct	incongruent	Block2	incongruent/STIM_028.jpg
1618.533	0.633	correct	incongruent	Block2	incongruent/STIM_028.jpg
1622.18	0.469	correct	incongruent	Block2	incongruent/STIM_028.jpg
1626.345	0.741	correct	incongruent	Block2	incongruent/STIM_028.jpg
1630.087	0.775	correct	incongruent	Block2	incongruent/STIM_028.jpg
1632.917	0.9	correct	incongruent	Block2	incongruent/STIM_029.jpg
1637.026	0.638	incorrect	incongruent	Block2	incongruent/STIM_029.jpg
1639.952	0.837	correct	incongruent	Block2	incongruent/STIM_029.jpg
1642.895	0.612	correct	incongruent	Block2	incongruent/STIM_029.jpg
1646.504	0.695	correct	incongruent	Block2	incongruent/STIM_029.jpg
1650.106	0.53	correct	congruent	Block2	congruent/STIM_000.jpg
1654.016	0.645	correct	congruent	Block2	congruent/STIM_000.jpg
1656.914	0.583	correct	congruent	Block2	congruent/STIM_000.jpg
1660.26	0.53	correct	congruent	Block2	congruent/STIM_000.jpg
1663.462	0.415	correct	congruent	Block2	congruent/STIM_000.jpg
1666.411	0.692	correct	congruent	Block2	congruent/STIM_001.jpg
1670.814	0.694	correct	congruent	Block2	congruent/STIM_001.jpg
1675.028	0.518	correct	congruent	Block2	congruent/STIM_001.jpg
1677.783	0.701	correct	congruent	Block2	congruent/STIM_001.jpg
1682.036	0.47	correct	congruent	Block2	congruent/STIM_001.jpg
1686.084	0.462	correct	congruent	Block2	congruent/STIM_002.jpg
1689.196	0.596	correct	congruent	Block2	congruent/STIM_002.jpg
1692.865	0.637	correct	congruent	Block2	congruent/STIM_002.jpg
1696.813	0.461	correct	congruent	Block2	congruent/STIM_002.jpg
1700.181	0.691	correct	congruent	Block2	congruent/STIM_002.jpg
1704.354	0.724	correct	congruent	Block2	congruent/STIM_003.jpg
1707.297	0.437	correct	congruent	Block2	congruent/STIM_003.jpg
1711.372	0.484	correct	congruent	Block2	congruent/STIM_003.jpg
1715.476	0.704	correct	congruent	Block2	congruent/STIM_003.jpg
1718.312	0.606	correct	congruent	Block2	congruent/STIM_003.jpg
1721.434	0.454	correct	congruent	Block2	congruent/STIM_004.jpg
1724.422	0.458	correct	congruent	Block2	congruent/STIM_004.jpg
1727.948	0.449	correct	congruent	Block2	congruent/STIM_004.jpg
1731.182	0.435	correct	congruent	Block2	congruent/STIM_004.jpg
1734.175	0.686	correct	congruent	Block2	congruent/STIM_004.jpg
1738.275	0.675	correct	congruent	Block2	congruent/STIM_005.jpg
1741.56	0.638	correct	congruent	Block2	congruent/STIM_005.jpg
1745.895	0.651	correct	congruent	Block2	congruent/STIM_005.jpg
1750.025	0.66	correct	congruent	Block2	congruent/STIM_005.jpg
1754.24	0.447	correct	congruent	Block2	congruent/STIM_005.jpg
1757.866	0.526	correct	congruent	Block2	congruent/STIM_006.jpg
1760.867	0.613	correct	congruent	Block2	congruent/STIM_006.jpg
1764.628	0.466	incorrect	congruent	Block2	congruent/STIM_006.jpg
1767.185	0.718	correct	congruent	Block2	congruent/STIM_006.jpg
1769.998	0.549	correct	congruent	Block2	congruent/STIM_006.jpg
1773.811	0.554	correct	congruent	Block2	congruent/STIM_007.jpg
1777.104	0.461	correct	congruent	Block2	congruent/STIM_007.jpg
1781.014	0.716	correct	congruent	Block2	congruent/STIM_007.jpg
1785.561	0.501	correct	congruent	Block2	congruent/STIM_007.jpg
1788.16	0.452	correct	congruent	Block2	congruent/STIM_007.jpg
1790.75	0.466	correct	congruent	Block2	congruent/STIM_008.jpg
1794.242	0.521	correct	congruent	Block2	congruent/STIM_008.jpg
1796.892	0.644	correct	congruent	Block2	congruent/STIM_008.jpg
1800.686	0.448	correct	congruent	Block2	congruent/STIM_008.jpg
1803.881	0.645	correct	congruent	Block2	congruent/STIM_008.jpg
1808.006	0.594	correct	congruent	Block2	congruent/STIM_009.jpg
1811.342	0.711	correct	congruent	Block2	congruent/STIM_009.jpg
1815.723	0.711	correct	congruent	Block2	congruent/STIM_009.jpg
1819.49	0.648	correct	congruent	Block2	congruent/STIM_009.jpg
1823.979	0.504	correct	congruent	Block2	congruent/STIM_009.jpg
1827.413	0.467	correct	congruent	Block2	congruent/STIM_010.jpg
1830.626	0.488	correct	congruent	Block2	congruent/STIM_010.jpg
1833.957	0.596	correct	congruent	Block2	congruent/STIM_010.jpg
1837.294	0.642	correct	congruent	Block2	congruent/STIM_010.jpg
1840.842	0.477	correct	congruent	Block2	congruent/STIM_010.jpg
1843.537	0.433	correct	congruent	Block2	congruent/STIM_011.jpg
1846.354	0.724	correct	congruent	Block2	congruent/STIM_011.jpg
1849.761	0.49	correct	congruent	Block2	congruent/STIM_011.jpg
1853.632	0.536	correct	congruent	Block2	congruent/STIM_011.jpg
1856.221	0.669	correct	congruent	Block2	congruent/STIM_011.jpg
1860.326	0.548	correct	congruent	Block2	congruent/STIM_012.jpg
1862.878	0.633	correct	congruent	Block2	congruent/STIM_012.jpg
1867.322	0.701	correct	congruent	Block2	congruent/STIM_012.jpg
1871.827	0.628	correct	congruent	Block2	congruent/STIM_012.jpg
1875.433	0.521	correct	congruent	Block2	congruent/STIM_012.jpg
1878.847	0.436	correct	congruent	Block2	congruent/STIM_013.jpg
1882.219	0.491	correct	congruent	Block2	congruent/STIM_013.jpg
1886.045	0.698	correct	congruent	Block2	congruent/STIM_013.jpg
1890.1	0.67	correct	congruent	Block2	congruent/STIM_013.jpg
1894.518	0.675	correct	congruent	Block2	congruent/STIM_013.jpg
1897.542	0.496	incorrect	congruent	Block2	congruent/STIM_014.jpg
1900.667	0.522	correct	congruent	Block2	congruent/STIM_014.jpg
1903.845	0.669	correct	congruent	Block2	congruent/STIM_014.jpg
1907.172	0.594	correct	congruent	Block2	congruent/STIM_014.jpg
1910.536	0.638	correct	congruent	Block2	congruent/STIM_014.jpg
1913.529	0.458	correct	congruent	Block2	congruent/STIM_015.jpg
1916.877	0.734	correct	congruent	Block2	congruent/STIM_015.jpg
1921.59	0.421	correct	congruent	Block2	congruent/STIM_015.jpg
1924.719	0.594	correct	congruent	Block2	congruent/STIM_015.jpg
1929.2	0.552	correct	congruent	Block2	congruent/STIM_015.jpg
1931.883	0.602	correct	congruent	Block2	congruent/STIM_016.jpg
1936.38	0.537	correct	congruent	Block2	congruent/STIM_016.jpg
1939.213	0.519	correct	congruent	Block2	congruent/STIM_016.jpg
1943.225	0.552	correct	congruent	Block2	congruent/STIM_016.jpg
1947.492	0.474	correct	congruent	Block2	congruent/STIM_016.jpg
1951.122	0.412	correct	congruent	Block2	congruent/STIM_017.jpg
1954.001	0.525	correct	congruent	Block2	congruent/STIM_017.jpg
1956.7	0.436	correct	congruent	Block2	congruent/STIM_017.jpg
1960.412	0.566	correct	congruent	Block2	congruent/STIM_017.jpg
1964.727	0.559	correct	congruent	Block2	congruent/STIM_017.jpg
1968.748	0.458	correct	congruent	Block2	congruent/STIM_018.jpg
1971.943	0.482	correct	congruent	Block2	congruent/STIM_018.jpg
1975.842	0.538	correct	congruent	Block2	congruent/STIM_018.jpg
1980.298	0.521	correct	congruent	Block2	congruent/STIM_018.jpg
1982.937	0.628	correct	congruent	Block2	congruent/STIM_018.jpg
1987.501	0.73	correct	congruent	Block2	congruent/STIM_019.jpg
1991.255	0.676	correct	congruent	Block2	congruent/STIM_019.jpg
1995.868	0.52	correct	congruent	Block2	congruent/STIM_019.jpg
2000.057	0.573	correct	congruent	Block2	congruent/STIM_019.jpg
2003.522	0.672	correct	congruent	Block2	congruent/STIM_019.jpg
2008.031	0.686	correct	congruent	Block2	congruent/STIM_020.jpg
2011.05	0.445	correct	congruent	Block2	congruent/STIM_020.jpg
2014.999	0.629	correct	congruent	Block2	congruent/STIM_020.jpg
2018.428	0.454	correct	congruent	Block2	congruent/STIM_020.jpg
2022.519	0.428	correct	congruent	Block2	congruent/STIM_020.jpg
2026.4	0.597	correct	congruent	Block2	congruent/STIM_021.jpg
2029.337	0.572	correct	congruent	Block2	congruent/STIM_021.jpg
2033.722	0.476	correct	congruent	Block2	congruent/STIM_021.jpg
2036.862	0.712	correct	congruent	Block2	congruent/STIM_021.jpg
2040.62	0.562	correct	congruent	Block2	congruent/STIM_021.jpg
2043.722	0.683	correct	congruent	Block2	congruent/STIM_022.jpg
2048.196	0.718	correct	congruent	Block2	congruent/STIM_022.jpg
2052.379	0.455	correct	congruent	Block2	congruent/STIM_022.jpg
2056.38	0.711	correct	congruent	Block2	congruent/STIM_022.jpg
2059.695	0.614	correct	congruent	Block2	congruent/STIM_022.jpg
2063.513	0.716	correct	congruent	Block2	congruent/STIM_023.jpg
2066.531	0.508	correct	congruent	Block2	congruent/STIM_023.jpg
2070.902	0.686	correct	congruent	Block2	congruent/STIM_023.jpg
2074.308	0.582	correct	congruent	Block2	congruent/STIM_023.jpg
2077.067	0.491	correct	congruent	Block2	congruent/STIM_023.jpg
2080.06	0.485	correct	congruent	Block2	congruent/STIM_024.jpg
2082.956	0.42	correct	congruent	Block2	congruent/STIM_024.jpg
2087.075	0.498	correct	congruent	Block2	congruent/STIM_024.jpg
2089.62	0.676	correct	congruent	Block2	congruent/STIM_024.jpg
2093.644	0.598	correct	congruent	Block2	congruent/STIM_024.jpg
2097.553	0.656	correct	congruent	Block2	congruent/STIM_025.jpg
2101.56	0.424	correct	congruent	Block2	congruent/STIM_025.jpg
2105.809	0.605	correct	congruent	Block2	congruent/STIM_025.jpg
2109.019	0.46	correct	congruent	Block2	congruent/STIM_025.jpg
2112.723	0.489	correct	congruent	Block2	congruent/STIM_025.jpg
2116.634	0.476	correct	congruent	Block2	congruent/STIM_026.jpg
2119.674	0.726	correct	congruent	Block2	congruent/STIM_026.jpg
2124.324	0.448	correct	congruent	Block2	congruent/STIM_026.jpg
2127.87	0.648	correct	congruent	Block2	congruent/STIM_026.jpg
2131.117	0.696	correct	congruent	Block2	congruent/STIM_026.jpg
2135.014	0.519	correct	congruent	Block2	congruent/STIM_027.jpg
2139.061	0.719	correct	congruent	Block2	congruent/STIM_027.jpg
2143.172	0.511	correct	congruent	Block2	congruent/STIM_027.jpg
2146.157	0.413	correct	congruent	Block2	congruent/STIM_027.jpg
2149.844	0.574	incorrect	congruent	Block2	congruent/STIM_027.jpg
2154.18	0.584	correct	congruent	Block2	congruent/STIM_028.jpg
2156.912	0.703	correct	congruent	Block2	congruent/STIM_028.jpg
2161.525	0.653	correct	congruent	Block2	congruent/STIM_028.jpg
2164.881	0.55	correct	congruent	Block2	congruent/STIM_028.jpg
2167.899	0.724	correct	congruent	Block2	congruent/STIM_028.jpg
2172.009	0.549	correct	congruent	Block2	congruent/STIM_029.jpg
2174.801	0.415	correct	congruent	Block2	congruent/STIM_029.jpg
2179.113	0.52	correct	congruent	Block2	congruent/STIM_029.jpg
2183.414	0.698	correct	congruent	Block2	congruent/STIM_029.jpg
2186.157	0.595	correct	congruent	Block2	congruent/STIM_029.jpg
2189.577	0.471	correct	incongruent	Block3	incongruent/STIM_000.jpg
2193.537	0.624	correct	incongruent	Block3	incongruent/STIM_000.jpg
2197.876	0.492	correct	incongruent	Block3	incongruent/STIM_000.jpg
2201.319	0.574	correct	incongruent	Block3	incongruent/STIM_000.jpg
2205.222	0.716	correct	incongruent	Block3	incongruent/STIM_000.jpg
2209.936	0.801	correct	incongruent	Block3	incongruent/STIM_001.jpg
2213.903	0.714	correct	incongruent	Block3	incongruent/STIM_001.jpg
2217.176	0.454	correct	incongruent	Block3	incongruent/STIM_001.jpg
2219.992	0.546	incorrect	incongruent	Block3	incongruent/STIM_001.jpg
2224.166	0.435	correct	incongruent	Block3	incongruent/STIM_001.jpg
2227.757	0.605	correct	incongruent	Block3	incongruent/STIM_002.jpg
2231.457	0.778	correct	incongruent	Block3	incongruent/STIM_002.jpg
2234.279	0.574	correct	incongruent	Block3	incongruent/STIM_002.jpg
2238.443	0.61	correct	incongruent	Block3	incongruent/STIM_002.jpg
2242.933	0.597	correct	incongruent	Block3	incongruent/STIM_002.jpg
2247.17	0.439	correct	incongruent	Block3	incongruent/STIM_003.jpg
2251.27	0.747	correct	incongruent	Block3	incongruent/STIM_003.jpg
2254.926	0.761	correct	incongruent	Block3	incongruent/STIM_003.jpg
2258.87	0.836	correct	incongruent	Block3	incongruent/STIM_003.jpg
2263.148	0.661	correct	incongruent	Block3	incongruent/STIM_003.jpg
2266.209	0.695	correct	incongruent	Block3	incongruent/STIM_004.jpg
2269.891	0.41	correct	incongruent	Block3	incongruent/STIM_004.jpg
2272.615	0.543	correct	incongruent	Block3	incongruent/STIM_004.jpg
2276.813	0.684	correct	incongruent	Block3	incongruent/STIM_004.jpg
2281.423	0.476	correct	incongruent	Block3	incongruent/STIM_004.jpg
2285.55	0.794	correct	incongruent	Block3	incongruent/STIM_005.jpg
2289.945	0.822	incorrect	incongruent	Block3	incongruent/STIM_005.jpg
2293.167	0.403	correct	incongruent	Block3	incongruent/STIM_005.jpg
2297.356	0.598	correct	incongruent	Block3	incongruent/STIM_005.jpg
2300.967	0.665	correct	incongruent	Block3	incongruent/STIM_005.jpg
2304.414	0.691	correct	incongruent	Block3	incongruent/STIM_006.jpg
2308.444	0.46	correct	incongruent	Block3	incongruent/STIM_006.jpg
2311.08	0.69	correct	incongruent	Block3	incongruent/STIM_006.jpg
2314.889	0.634	correct	incongruent	Block3	incongruent/STIM_006.jpg
2319.03	0.683	correct	incongruent	Block3	incongruent/STIM_006.jpg
2323.273	0.788	correct	incongruent	Block3	incongruent/STIM_007.jpg
2326.281	0.71	correct	incongruent	Block3	incongruent/STIM_007.jpg
2329.264	0.74	correct	incongruent	Block3	incongruent/STIM_007.jpg
2333.75	0.807	correct	incongruent	Block3	incongruent/STIM_007.jpg
2337.655	0.828	correct	incongruent	Block3	incongruent/STIM_007.jpg
2341.417	0.631	correct	incongruent	Block3	incongruent/STIM_008.jpg
2345.372	0.788	correct	incongruent	Block3	incongruent/STIM_008.jpg
2348.386	0.657	correct	incongruent	Block3	incongruent/STIM_008.jpg
2352.616	0.682	correct	incongruent	Block3	incongruent/STIM_008.jpg
2356.204	0.648	correct	incongruent	Block3	incongruent/STIM_008.jpg
2360.211	0.73	correct	incongruent	Block3	incongruent/STIM_009.jpg
2364.776	0.772	correct	incongruent	Block3	incongruent/STIM_009.jpg
2367.898	0.452	correct	incongruent	Block3	incongruent/STIM_009.jpg
2371.468	0.758	correct	incongruent	Block3	incongruent/STIM_009.jpg
2374.424	0.633	correct	incongruent	Block3	incongruent/STIM_009.jpg
2377.181	0.423	correct	incongruent	Block3	incongruent/STIM_010.jpg
2381.334	0.441	correct	incongruent	Block3	incongruent/STIM_010.jpg
2384.503	0.72	correct	incongruent	Block3	incongruent/STIM_010.jpg
2388.875	0.756	correct	incongruent	Block3	incongruent/STIM_010.jpg
2392.973	0.499	correct	incongruent	Block3	incongruent/STIM_010.jpg
2397.465	0.53	correct	incongruent	Block3	incongruent/STIM_011.jpg
2401.046	0.561	correct	incongruent	Block3	incongruent/STIM_011.jpg
2404.561	0.586	correct	incongruent	Block3	incongruent/STIM_011.jpg
2408.163	0.761	correct	incongruent	Block3	incongruent/STIM_011.jpg
2412.231	0.405	incorrect	incongruent	Block3	incongruent/STIM_011.jpg
2415.913	0.67	correct	incongruent	Block3	incongruent/STIM_012.jpg
2419.004	0.772	correct	incongruent	Block3	incongruent/STIM_012.jpg
2421.92	0.598	correct	incongruent	Block3	incongruent/STIM_012.jpg
2425.518	0.449	correct	incongruent	Block3	incongruent/STIM_012.jpg
2428.786	0.613	correct	incongruent	Block3	incongruent/STIM_012.jpg
2433.336	0.46	correct	incongruent	Block3	incongruent/STIM_013.jpg
2436.288	0.474	correct	incongruent	Block3	incongruent/STIM_013.jpg
2439.217	0.83	correct	incongruent	Block3	incongruent/STIM_013.jpg
2443.747	0.412	correct	incongruent	Block3	incongruent/STIM_013.jpg
2447.977	0.659	correct	incongruent	Block3	incongruent/STIM_013.jpg
2451.146	0.822	correct	incongruent	Block3	incongruent/STIM_014.jpg
2454.09	0.824	correct	incongruent	Block3	incongruent/STIM_014.jpg
2458.3	0.72	correct	incongruent	Block3	incongruent/STIM_014.jpg
2462.695	0.489	correct	incongruent	Block3	incongruent/STIM_014.jpg
2465.469	0.553	correct	incongruent	Block3	incongruent/STIM_014.jpg
2468.993	0.566	correct	incongruent	Block3	incongruent/STIM_015.jpg
2473.31	0.807	correct	incongruent	Block3	incongruent/STIM_015.jpg
2476.822	0.545	correct	incongruent	Block3	incongruent/STIM_015.jpg
2480.28	0.67	correct	incongruent	Block3	incongruent/STIM_015.jpg
2483.544	0.566	correct	incongruent	Block3	incongruent/STIM_015.jpg
2486.882	0.708	correct	incongruent	Block3	incongruent/STIM_016.jpg
2491.072	0.827	correct	incongruent	Block3	incongruent/STIM_016.jpg
2494.657	0.531	correct	incongruent	Block3	incongruent/STIM_016.jpg
2497.277	0.463	correct	incongruent	Block3	incongruent/STIM_016.jpg
2500.485	0.832	correct	incongruent	Block3	incongruent/STIM_016.jpg
2503.802	0.419	correct	incongruent	Block3	incongruent/STIM_017.jpg
2506.799	0.759	correct	incongruent	Block3	incongruent/STIM_017.jpg
2510.123	0.568	correct	incongruent	Block3	incongruent/STIM_017.jpg
2513.588	0.605	correct	incongruent	Block3	incongruent/STIM_017.jpg
2517.414	0.44	correct	incongruent	Block3	incongruent/STIM_017.jpg
2520.139	0.472	correct	incongruent	Block3	incongruent/STIM_018.jpg
2523.903	0.709	correct	incongruent	Block3	incongruent/STIM_018.jpg
2527.352	0.682	correct	incongruent	Block3	incongruent/STIM_018.jpg
2530.169	0.818	correct	incongruent	Block3	incongruent/STIM_018.jpg
2534.984	0.571	correct	incongruent	Block3	incongruent/STIM_018.jpg
2537.884	0.546	correct	incongruent	Block3	incongruent/STIM_019.jpg
2541.912	0.438	correct	incongruent	Block3	incongruent/STIM_019.jpg
2546.094	0.489	correct	incongruent	Block3	incongruent/STIM_019.jpg
2550.401	0.673	correct	incongruent	Block3	incongruent/STIM_019.jpg
2553.928	0.459	correct	incongruent	Block3	incongruent/STIM_019.jpg
2558.101	0.692	incorrect	incongruent	Block3	incongruent/STIM_020.jpg
2561.696	0.518	correct	incongruent	Block3	incongruent/STIM_020.jpg
2564.216	0.654	correct	incongruent	Block3	incongruent/STIM_020.jpg
2568.027	0.55	correct	incongruent	Block3	incongruent/STIM_020.jpg
2572.394	0.532	correct	incongruent	Block3	incongruent/STIM_020.jpg
2576.164	0.614	correct	incongruent	Block3	incongruent/STIM_021.jpg
2579.391	0.756	correct	incongruent	Block3	incongruent/STIM_021.jpg
2583.357	0.785	correct	incongruent	Block3	incongruent/STIM_021.jpg
2587.29	0.654	correct	incongruent	Block3	incongruent/STIM_021.jpg
2590.525	0.456	correct	incongruent	Block3	incongruent/STIM_021.jpg
2593.616	0.5	correct	incongruent	Block3	incongruent/STIM_022.jpg
2596.786	0.517	correct	incongruent	Block3	incongruent/STIM_022.jpg
2599.978	0.533	correct	incongruent	Block3	incongruent/STIM_022.jpg
2603.406	0.688	correct	incongruent	Block3	incongruent/STIM_022.jpg
2607.683	0.715	correct	incongruent	Block3	incongruent/STIM_022.jpg
2610.532	0.617	correct	incongruent	Block3	incongruent/STIM_023.jpg
2613.731	0.813	correct	incongruent	Block3	incongruent/STIM_023.jpg
2617.201	0.834	correct	incongruent	Block3	incongruent/STIM_023.jpg
2621.152	0.629	correct	incongruent	Block3	incongruent/STIM_023.jpg
2625.554	0.824	correct	incongruent	Block3	incongruent/STIM_023.jpg
2628.63	0.48	correct	incongruent	Block3	incongruent/STIM_024.jpg
2631.441	0.822	correct	incongruent	Block3	incongruent/STIM_024.jpg
2636.069	0.688	correct	incongruent	Block3	incongruent/STIM_024.jpg
2640.711	0.509	correct	incongruent	Block3	incongruent/STIM_024.jpg
2643.572	0.677	correct	incongruent	Block3	incongruent/STIM_024.jpg
2646.961	0.592	correct	incongruent	Block3	incongruent/STIM_025.jpg
2650.213	0.583	correct	incongruent	Block3	incongruent/STIM_025.jpg
2653.497	0.443	correct	incongruent	Block3	incongruent/STIM_025.jpg
2656.284	0.822	correct	incongruent	Block3	incongruent/STIM_025.jpg
2659.8	0.73	correct	incongruent	Block3	incongruent/STIM_025.jpg
2663.705	0.677	correct	incongruent	Block3	incongruent/STIM_026.jpg
2667.06	0.783	correct	incongruent	Block3	incongruent/STIM_026.jpg
2670.355	0.568	correct	incongruent	Block3	incongruent/STIM_026.jpg
2673.165	0.483	correct	incongruent	Block3	incongruent/STIM_026.jpg
2676.328	0.71	correct	incongruent	Block3	incongruent/STIM_026.jpg
2679.535	0.715	correct	incongruent	Block3	incongruent/STIM_027.jpg
2682.784	0.838	correct	incongruent	Block3	incongruent/STIM_027.jpg
2687.478	0.518	correct	incongruent	Block3	incongruent/STIM_027.jpg
2690.211	0.664	correct	incongruent	Block3	incongruent/STIM_027.jpg
2694.572	0.785	correct	incongruent	Block3	incongruent/STIM_027.jpg
2698.914	0.509	correct	incongruent	Block3	incongruent/STIM_028.jpg
2702.935	0.614	correct	incongruent	Block3	incongruent/STIM_028.jpg
2706.398	0.696	correct	incongruent	Block3	incongruent/STIM_028.jpg
2709.575	0.808	correct	incongruent	Block3	incongruent/STIM_028.jpg
2712.728	0.824	correct	incongruent	Block3	incongruent/STIM_028.jpg
2716.867	0.424	correct	incongruent	Block3	incongruent/STIM_029.jpg
2720.863	0.732	correct	incongruent	Block3	incongruent/STIM_029.jpg
2724.368	0.623	correct	incongruent	Block3	incongruent/STIM_029.jpg
2727.355	0.779	correct	incongruent	Block3	incongruent/STIM_029.jpg
2730.624	0.453	correct	incongruent	Block3	incongruent/STIM_029.jpg
2733.454	0.608	correct	congruent	Block3	congruent/STIM_000.jpg
2737.118	0.54	correct	congruent	Block3	congruent/STIM_000.jpg
2739.717	0.645	correct	congruent	Block3	congruent/STIM_000.jpg
2743.783	0.532	correct	congruent	Block3	congruent/STIM_000.jpg
2748.299	0.499	correct	congruent	Block3	congruent/STIM_000.jpg
2751.345	0.624	correct	congruent	Block3	congruent/STIM_001.jpg
2755.672	0.479	correct	congruent	Block3	congruent/STIM_001.jpg
2759.243	0.698	correct	congruent	Block3	congruent/STIM_001.jpg
2762.783	0.549	correct	congruent	Block3	congruent/STIM_001.jpg
2765.509	0.472	correct	congruent	Block3	congruent/STIM_001.jpg
2769.744	0.494	correct	congruent	Block3	congruent/STIM_002.jpg
2774.145	0.735	correct	congruent	Block3	congruent/STIM_002.jpg
2778.78	0.526	correct	congruent	Block3	congruent/STIM_002.jpg
2782.282	0.551	correct	congruent	Block3	congruent/STIM_002.jpg
2785.453	0.679	correct	congruent	Block3	congruent/STIM_002.jpg
2789.674	0.698	correct	congruent	Block3	congruent/STIM_003.jpg
2794.05	0.54	correct	congruent	Block3	congruent/STIM_003.jpg
2798.152	0.465	correct	congruent	Block3	congruent/STIM_003.jpg
2801.451	0.729	correct	congruent	Block3	congruent/STIM_003.jpg
2804.817	0.62	correct	congruent	Block3	congruent/STIM_003.jpg
2808.854	0.44	correct	congruent	Block3	congruent/STIM_004.jpg
2812.186	0.67	correct	congruent	Block3	congruent/STIM_004.jpg
2815.991	0.59	correct	congruent	Block3	congruent/STIM_004.jpg
2818.84	0.479	correct	congruent	Block3	congruent/STIM_004.jpg
2821.898	0.57	correct	congruent	Block3	congruent/STIM_004.jpg
2824.84	0.687	correct	congruent	Block3	congruent/STIM_005.jpg
2828.587	0.446	correct	congruent	Block3	congruent/STIM_005.jpg
2832.113	0.731	correct	congruent	Block3	congruent/STIM_005.jpg
2834.934	0.439	correct	congruent	Block3	congruent/STIM_005.jpg
2838.371	0.706	correct	congruent	Block3	congruent/STIM_005.jpg
2842.098	0.489	correct	congruent	Block3	congruent/STIM_006.jpg
2845.103	0.631	correct	congruent	Block3	congruent/STIM_006.jpg
2848.478	0.709	correct	congruent	Block3	congruent/STIM_006.jpg
2852.109	0.441	correct	congruent	Block3	congruent/STIM_006.jpg
2856.483	0.729	correct	congruent	Block3	congruent/STIM_006.jpg
2860.472	0.643	correct	congruent	Block3	congruent/STIM_007.jpg
2863.764	0.519	correct	congruent	Block3	congruent/STIM_007.jpg
2866.919	0.57	correct	congruent	Block3	congruent/STIM_007.jpg
2870.881	0.613	correct	congruent	Block3	congruent/STIM_007.jpg
2874.748	0.487	correct	congruent	Block3	congruent/STIM_007.jpg
2877.594	0.476	correct	congruent	Block3	congruent/STIM_008.jpg
2880.641	0.617	correct	congruent	Block3	congruent/STIM_008.jpg
2884.994	0.569	correct	congruent	Block3	congruent/STIM_008.jpg
2887.924	0.624	correct	congruent	Block3	congruent/STIM_008.jpg
2891.856	0.669	correct	congruent	Block3	congruent/STIM_008.jpg
2895.537	0.698	correct	congruent	Block3	congruent/STIM_009.jpg
2899.766	0.599	correct	congruent	Block3	congruent/STIM_009.jpg
2902.469	0.56	correct	congruent	Block3	congruent/STIM_009.jpg
2906.869	0.462	correct	congruent	Block3	congruent/STIM_009.jpg
2909.84	0.701	correct	congruent	Block3	congruent/STIM_009.jpg
2914.521	0.471	incorrect	congruent	Block3	congruent/STIM_010.jpg
2917.277	0.608	correct	congruent	Block3	congruent/STIM_010.jpg
2920.879	0.591	correct	congruent	Block3	congruent/STIM_010.jpg
2924.066	0.452	correct	congruent	Block3	congruent/STIM_010.jpg
2927.808	0.597	correct	congruent	Block3	congruent/STIM_010.jpg
2931.278	0.547	correct	congruent	Block3	congruent/STIM_011.jpg
2934.943	0.553	correct	congruent	Block3	congruent/STIM_011.jpg
2938.642	0.617	correct	congruent	Block3	congruent/STIM_011.jpg
2941.966	0.69	correct	congruent	Block3	congruent/STIM_011.jpg
2946.096	0.542	correct	congruent	Block3	congruent/STIM_011.jpg
2948.936	0.69	correct	congruent	Block3	congruent/STIM_012.jpg
2952.157	0.515	correct	congruent	Block3	congruent/STIM_012.jpg
2955.302	0.517	correct	congruent	Block3	congruent/STIM_012.jpg
2958.214	0.441	correct	congruent	Block3	congruent/STIM_012.jpg
2960.776	0.675	correct	congruent	Block3	congruent/STIM_012.jpg
2965.321	0.695	correct	congruent	Block3	congruent/STIM_013.jpg
2968.715	0.585	correct	congruent	Block3	congruent/STIM_013.jpg
2971.393	0.662	correct	congruent	Block3	congruent/STIM_013.jpg
2975.069	0.451	correct	congruent	Block3	congruent/STIM_013.jpg
2979.503	0.459	correct	congruent	Block3	congruent/STIM_013.jpg
2982.702	0.695	correct	congruent	Block3	congruent/STIM_014.jpg
2986.784	0.44	correct	congruent	Block3	congruent/STIM_014.jpg
2989.833	0.588	correct	congruent	Block3	congruent/STIM_014.jpg
2994.254	0.499	correct	congruent	Block3	congruent/STIM_014.jpg
2997.087	0.416	correct	congruent	Block3	congruent/STIM_014.jpg
3000.646	0.58	correct	congruent	Block3	congruent/STIM_015.jpg
3003.978	0.7	correct	congruent	Block3	congruent/STIM_015.jpg
3008.187	0.414	correct	congruent	Block3	congruent/STIM_015.jpg
3010.988	0.544	correct	congruent	Block3	congruent/STIM_015.jpg
3014.861	0.633	correct	congruent	Block3	congruent/STIM_015.jpg
3017.933	0.607	correct	congruent	Block3	congruent/STIM_016.jpg
3022.367	0.589	correct	congruent	Block3	congruent/STIM_016.jpg
3025.637	0.734	correct	congruent	Block3	congruent/STIM_016.jpg
3028.991	0.546	incorrect	congruent	Block3	congruent/STIM_016.jpg
3032.637	0.495	correct	congruent	Block3	congruent/STIM_016.jpg
3036.062	0.441	correct	congruent	Block3	congruent/STIM_017.jpg
3040.051	0.666	correct	congruent	Block3	congruent/STIM_017.jpg
3042.766	0.558	correct	congruent	Block3	congruent/STIM_017.jpg
3046.325	0.543	correct	congruent	Block3	congruent/STIM_017.jpg
3050.529	0.536	correct	congruent	Block3	congruent/STIM_017.jpg
3053.987	0.578	correct	congruent	Block3	congruent/STIM_018.jpg
3057.292	0.518	correct	congruent	Block3	congruent/STIM_018.jpg
3061.281	0.717	correct	congruent	Block3	congruent/STIM_018.jpg
3065.824	0.548	correct	congruent	Block3	congruent/STIM_018.jpg
3068.601	0.614	correct	congruent	Block3	congruent/STIM_018.jpg
3072.452	0.414	correct	congruent	Block3	congruent/STIM_019.jpg
3075.264	0.561	correct	congruent	Block3	congruent/STIM_019.jpg
3078.271	0.55	correct	congruent	Block3	congruent/STIM_019.jpg
3081.132	0.518	correct	congruent	Block3	congruent/STIM_019.jpg
3084.156	0.568	correct	congruent	Block3	congruent/STIM_019.jpg
3086.87	0.585	correct	congruent	Block3	congruent/STIM_020.jpg
3089.746	0.55	correct	congruent	Block3	congruent/STIM_020.jpg
3092.935	0.514	correct	congruent	Block3	congruent/STIM_020.jpg
3097.071	0.511	correct	congruent	Block3	congruent/STIM_020.jpg
3100.777	0.582	correct	congruent	Block3	congruent/STIM_020.jpg
3105.235	0.711	correct	congruent	Block3	congruent/STIM_021.jpg
3108.465	0.605	correct	congruent	Block3	congruent/STIM_021.jpg
3111.426	0.678	correct	congruent	Block3	congruent/STIM_021.jpg
3115.727	0.6	correct	congruent	Block3	congruent/STIM_021.jpg
3118.475	0.617	correct	congruent	Block3	congruent/STIM_021.jpg
3121.721	0.637	correct	congruent	Block3	congruent/STIM_022.jpg
3124.49	0.635	correct	congruent	Block3	congruent/STIM_022.jpg
3128.873	0.576	correct	congruent	Block3	congruent/STIM_022.jpg
3132.515	0.468	correct	congruent	Block3	congruent/STIM_022.jpg
3135.249	0.511	correct	congruent	Block3	congruent/STIM_022.jpg
3139.329	0.634	correct	congruent	Block3	congruent/STIM_023.jpg
3143.364	0.471	correct	congruent	Block3	congruent/STIM_023.jpg
3147.398	0.621	correct	congruent	Block3	congruent/STIM_023.jpg
3150.477	0.539	correct	congruent	Block3	congruent/STIM_023.jpg
3153.18	0.507	correct	congruent	Block3	congruent/STIM_023.jpg
3156.993	0.715	correct	congruent	Block3	congruent/STIM_024.jpg
3159.719	0.429	correct	congruent	Block3	congruent/STIM_024.jpg
3163.252	0.632	correct	congruent	Block3	congruent/STIM_024.jpg
3166.855	0.445	correct	congruent	Block3	congruent/STIM_024.jpg
3170.015	0.608	correct	congruent	Block3	congruent/STIM_024.jpg
3173.383	0.596	correct	congruent	Block3	congruent/STIM_025.jpg
3176.865	0.463	correct	congruent	Block3	congruent/STIM_025.jpg
3179.629	0.725	correct	congruent	Block3	congruent/STIM_025.jpg
3183.479	0.678	correct	congruent	Block3	congruent/STIM_025.jpg
3187.148	0.587	correct	congruent	Block3	congruent/STIM_025.jpg
3191.677	0.612	correct	congruent	Block3	congruent/STIM_026.jpg
3195.637	0.414	correct	congruent	Block3	congruent/STIM_026.jpg
3199.361	0.486	correct	congruent	Block3	congruent/STIM_026.jpg
3203.247	0.557	correct	congruent	Block3	congruent/STIM_026.jpg
3205.805	0.557	correct	congruent	Block3	congruent/STIM_026.jpg
3209.013	0.542	correct	congruent	Block3	congruent/STIM_027.jpg
3212.936	0.666	correct	congruent	Block3	congruent/STIM_027.jpg
3216.555	0.522	correct	congruent	Block3	congruent/STIM_027.jpg
3220.442	0.675	correct	congruent	Block3	congruent/STIM_027.jpg
3223.803	0.455	correct	congruent	Block3	congruent/STIM_027.jpg
3227.821	0.725	correct	congruent	Block3	congruent/STIM_028.jpg
3231.408	0.49	correct	congruent	Block3	congruent/STIM_028.jpg
3234.567	0.642	correct	congruent	Block3	congruent/STIM_028.jpg
3237.419	0.502	correct	congruent	Block3	congruent/STIM_028.jpg
3240.428	0.449	correct	congruent	Block3	congruent/STIM_028.jpg
3243.553	0.46	correct	congruent	Block3	congruent/STIM_029.jpg
3247.693	0.505	correct	congruent	Block3	congruent/STIM_029.jpg
3251.482	0.507	correct	congruent	Block3	congruent/STIM_029.jpg
3254.888	0.518	correct	congruent	Block3	congruent/STIM_029.jpg
3259.4	0.614	correct	congruent	Block3	congruent/STIM_029.jpg
