onset	duration	response_time_ms	trial_type	learning_stage	stimulus	response_port
0.0	1.286	1285.8	incongruent	Block1	incongruent/STIM_000.jpg	99
4.641	1.265	1265.0	incongruent	Block1	incongruent/STIM_000.jpg	99
9.113	1.007	1006.7	incongruent	Block1	incongruent/STIM_000.jpg	100
13.982	1.132	1131.7	incongruent	Block1	incongruent/STIM_000.jpg	100
18.684	0.933	932.6	incongruent	Block1	incongruent/STIM_000.jpg	100
22.165	0.742	742.2	incongruent	Block1	incongruent/STIM_001.jpg	99
25.155	1.103	1103.0	incongruent	Block1	incongruent/STIM_001.jpg	99
30.123	1.141	1140.8	incongruent	Block1	incongruent/STIM_001.jpg	100
33.861	0.995	994.6	incongruent	Block1	incongruent/STIM_001.jpg	99
37.118	0.636	635.7	incongruent	Block1	incongruent/STIM_001.jpg	99
40.556	1.249	1248.7	incongruent	Block1	incongruent/STIM_002.jpg	100
43.976	0.809	809.2	incongruent	Block1	incongruent/STIM_002.jpg	99
48.743	0.784	783.7	incongruent	Block1	incongruent/STIM_002.jpg	100
52.093	1.003	1002.8	incongruent	Block1	incongruent/STIM_002.jpg	100
55.492	0.956	956.3	incongruent	Block1	incongruent/STIM_002.jpg	99
59.203	1.205	1204.9	incongruent	Block1	incongruent/STIM_003.jpg	100
63.049	0.882	882.2	incongruent	Block1	incongruent/STIM_003.jpg	100
67.373	0.714	714.1	incongruent	Block1	incongruent/STIM_003.jpg	99
71.718	1.123	1123.4	incongruent	Block1	incongruent/STIM_003.jpg	99
76.656	1.043	1042.6	incongruent	Block1	incongruent/STIM_003.jpg	99
79.834	1.364	1363.8	incongruent	Block1	incongruent/STIM_004.jpg	99
83.731	0.678	677.9	incongruent	Block1	incongruent/STIM_004.jpg	100
88.372	1.232	1232.5	incongruent	Block1	incongruent/STIM_004.jpg	100
92.572	0.793	793.0	incongruent	Block1	incongruent/STIM_004.jpg	99
96.962	0.752	752.1	incongruent	Block1	incongruent/STIM_004.jpg	100
99.933	0.721	721.0	incongruent	Block1	incongruent/STIM_005.jpg	100
104.389	0.71	710.5	incongruent	Block1	incongruent/STIM_005.jpg	100
108.96	1.225	1224.7	incongruent	Block1	incongruent/STIM_005.jpg	99
112.363	1.041	1040.6	incongruent	Block1	incongruent/STIM_005.jpg	100
116.887	0.568	567.8	incongruent	Block1	incongruent/STIM_005.jpg	100
120.019	1.281	1281.3	incongruent	Block1	incongruent/STIM_006.jpg	100
124.321	1.273	1273.4	incongruent	Block1	incongruent/STIM_006.jpg	99
128.028	0.6	600.3	incongruent	Block1	incongruent/STIM_006.jpg	100
131.692	0.843	843.4	incongruent	Block1	incongruent/STIM_006.jpg	99
135.931	0.783	782.7	incongruent	Block1	incongruent/STIM_006.jpg	99
140.464	1.194	1194.5	incongruent	Block1	incongruent/STIM_007.jpg	100
144.215	0.703	703.0	incongruent	Block1	incongruent/STIM_007.jpg	99
148.077	1.21	1209.5	incongruent	Block1	incongruent/STIM_007.jpg	99
153.196	1.015	1014.9	incongruent	Block1	incongruent/STIM_007.jpg	99
156.695	1.037	1037.2	incongruent	Block1	incongruent/STIM_007.jpg	100
159.914	0.756	756.4	incongruent	Block1	incongruent/STIM_008.jpg	99
162.889	0.891	891.0	incongruent	Block1	incongruent/STIM_008.jpg	100
167.435	1.145	1144.7	incongruent	Block1	incongruent/STIM_008.jpg	99
171.435	0.948	947.7	incongruent	Block1	incongruent/STIM_008.jpg	100
175.595	0.886	885.8	incongruent	Block1	incongruent/STIM_008.jpg	100
180.427	1.035	1035.3	incongruent	Block1	incongruent/STIM_009.jpg	99
184.82	0.684	683.7	incongruent	Block1	incongruent/STIM_009.jpg	100
189.363	0.743	742.7	incongruent	Block1	incongruent/STIM_009.jpg	99
192.312	1.028	1027.5	incongruent	Block1	incongruent/STIM_009.jpg	99
195.786	0.861	860.8	incongruent	Block1	incongruent/STIM_009.jpg	100
200.017	1.278	1278.3	incongruent	Block1	incongruent/STIM_010.jpg	99
203.824	0.877	877.1	incongruent	Block1	incongruent/STIM_010.jpg	100
207.984	1.102	1101.5	incongruent	Block1	incongruent/STIM_010.jpg	100
211.61	0.607	607.0	incongruent	Block1	incongruent/STIM_010.jpg	99
215.841	0.642	642.2	incongruent	Block1	incongruent/STIM_010.jpg	99
219.994	1.255	1255.4	incongruent	Block1	incongruent/STIM_011.jpg	99
224.579	1.24	1239.6	incongruent	Block1	incongruent/STIM_011.jpg	99
227.993	1.014	1013.8	incongruent	Block1	incongruent/STIM_011.jpg	99
232.65	0.849	848.7	incongruent	Block1	incongruent/STIM_011.jpg	100
236.075	0.958	958.5	incongruent	Block1	incongruent/STIM_011.jpg	99
239.286	1.324	1323.9	incongruent	Block1	incongruent/STIM_012.jpg	99
244.121	0.813	813.2	incongruent	Block1	incongruent/STIM_012.jpg	99
247.742	0.731	731.3	incongruent	Block1	incongruent/STIM_012.jpg	99
251.255	0.566	566.0	incongruent	Block1	incongruent/STIM_012.jpg	99
254.358	1.086	1086.3	incongruent	Block1	incongruent/STIM_012.jpg	99
257.629	1.339	1338.7	incongruent	Block1	incongruent/STIM_013.jpg	100
262.994	0.904	903.9	incongruent	Block1	incongruent/STIM_013.jpg	99
267.13	1.206	1206.0	incongruent	Block1	incongruent/STIM_013.jpg	99
271.904	1.026	1025.5	incongruent	Block1	incongruent/STIM_013.jpg	99
275.532	0.845	845.4	incongruent	Block1	incongruent/STIM_013.jpg	100
279.457	0.694	694.1	incongruent	Block1	incongruent/STIM_014.jpg	99
283.928	1.172	1172.2	incongruent	Block1	incongruent/STIM_014.jpg	99
288.788	0.606	605.6	incongruent	Block1	incongruent/STIM_014.jpg	99
293.052	0.74	739.6	incongruent	Block1	incongruent/STIM_014.jpg	100
296.93	0.716	715.5	incongruent	Block1	incongruent/STIM_014.jpg	99
301.498	1.25	1249.7	incongruent	Block1	incongruent/STIM_015.jpg	99
305.988	0.815	814.7	incongruent	Block1	incongruent/STIM_015.jpg	99
310.51	1.082	1082.5	incongruent	Block1	incongruent/STIM_015.jpg	100
314.797	0.98	979.7	incongruent	Block1	incongruent/STIM_015.jpg	99
318.777	0.982	981.6	incongruent	Block1	incongruent/STIM_015.jpg	100
322.896	0.676	676.1	incongruent	Block1	incongruent/STIM_016.jpg	99
327.452	1.236	1236.3	incongruent	Block1	incongruent/STIM_016.jpg	99
331.756	0.606	606.5	incongruent	Block1	incongruent/STIM_016.jpg	99
335.896	1.031	1031.3	incongruent	Block1	incongruent/STIM_016.jpg	99
340.527	0.992	992.5	incongruent	Block1	incongruent/STIM_016.jpg	99
344.066	1.213	1212.9	incongruent	Block1	incongruent/STIM_017.jpg	100
347.496	0.772	772.2	incongruent	Block1	incongruent/STIM_017.jpg	99
351.886	1.046	1046.0	incongruent	Block1	incongruent/STIM_017.jpg	100
357.025	0.787	787.1	incongruent	Block1	incongruent/STIM_017.jpg	100
361.791	0.815	815.1	incongruent	Block1	incongruent/STIM_017.jpg	99
365.267	0.692	691.6	incongruent	Block1	incongruent/STIM_018.jpg	99
368.466	1.172	1172.1	incongruent	Block1	incongruent/STIM_018.jpg	100
372.504	0.912	911.7	incongruent	Block1	incongruent/STIM_018.jpg	99
376.504	0.544	544.1	incongruent	Block1	incongruent/STIM_018.jpg	100
379.75	0.81	809.9	incongruent	Block1	incongruent/STIM_018.jpg	99
384.502	0.776	776.4	incongruent	Block1	incongruent/STIM_019.jpg	99
387.974	0.856	856.5	incongruent	Block1	incongruent/STIM_019.jpg	99
391.878	0.776	775.9	incongruent	Block1	incongruent/STIM_019.jpg	99
395.687	1.1	1100.0	incongruent	Block1	incongruent/STIM_019.jpg	100
399.712	0.982	981.9	incongruent	Block1	incongruent/STIM_019.jpg	99
403.359	1.255	1254.8	incongruent	Block1	incongruent/STIM_020.jpg	99
408.237	0.716	716.0	incongruent	Block1	incongruent/STIM_020.jpg	99
412.906	0.693	693.4	incongruent	Block1	incongruent/STIM_020.jpg	99
416.871	0.708	708.4	incongruent	Block1	incongruent/STIM_020.jpg	100
420.266	0.549	549.1	incongruent	Block1	incongruent/STIM_020.jpg	100
423.188	0.75	750.5	incongruent	Block1	incongruent/STIM_021.jpg	99
426.935	0.688	688.1	incongruent	Block1	incongruent/STIM_021.jpg	100
431.581	0.625	624.7	incongruent	Block1	incongruent/STIM_021.jpg	100
435.63	0.856	856.3	incongruent	Block1	incongruent/STIM_021.jpg	99
438.698	0.834	833.9	incongruent	Block1	incongruent/STIM_021.jpg	99
442.625	0.702	702.1	incongruent	Block1	incongruent/STIM_022.jpg	100
445.566	0.638	638.0	incongruent	Block1	incongruent/STIM_022.jpg	100
449.701	1.078	1077.6	incongruent	Block1	incongruent/STIM_022.jpg	99
452.914	1.131	1130.9	incongruent	Block1	incongruent/STIM_022.jpg	99
457.592	0.824	823.7	incongruent	Block1	incongruent/STIM_022.jpg	99
461.054	0.705	705.4	incongruent	Block1	incongruent/STIM_023.jpg	100
465.016	0.967	967.0	incongruent	Block1	incongruent/STIM_023.jpg	100
469.004	1.089	1088.9	incongruent	Block1	incongruent/STIM_023.jpg	99
473.305	1.149	1149.1	incongruent	Block1	incongruent/STIM_023.jpg	100
476.948	0.581	581.1	incongruent	Block1	incongruent/STIM_023.jpg	99
481.442	0.951	951.2	incongruent	Block1	incongruent/STIM_024.jpg	100
486.169	0.909	909.2	incongruent	Block1	incongruent/STIM_024.jpg	99
489.266	0.958	958.4	incongruent	Block1	incongruent/STIM_024.jpg	99
494.056	0.569	569.2	incongruent	Block1	incongruent/STIM_024.jpg	100
498.398	0.695	695.3	incongruent	Block1	incongruent/STIM_024.jpg	100
503.004	0.744	744.3	incongruent	Block1	incongruent/STIM_025.jpg	99
506.27	1.139	1139.4	incongruent	Block1	incongruent/STIM_025.jpg	100
510.846	1.114	1113.6	incongruent	Block1	incongruent/STIM_025.jpg	99
515.351	1.162	1161.7	incongruent	Block1	incongruent/STIM_025.jpg	99
518.687	0.773	772.7	incongruent	Block1	incongruent/STIM_025.jpg	100
523.472	0.939	939.3	incongruent	Block1	incongruent/STIM_026.jpg	100
528.084	0.926	925.5	incongruent	Block1	incongruent/STIM_026.jpg	100
531.583	0.577	576.7	incongruent	Block1	incongruent/STIM_026.jpg	99
534.894	0.832	831.8	incongruent	Block1	incongruent/STIM_026.jpg	100
538.925	0.575	574.8	incongruent	Block1	incongruent/STIM_026.jpg	100
542.337	0.997	997.0	incongruent	Block1	incongruent/STIM_027.jpg	100
546.391	0.762	761.7	incongruent	Block1	incongruent/STIM_027.jpg	99
551.026	1.189	1188.8	incongruent	Block1	incongruent/STIM_027.jpg	100
555.499	0.869	869.1	incongruent	Block1	incongruent/STIM_027.jpg	100
559.708	0.968	967.7	incongruent	Block1	incongruent/STIM_027.jpg	99
562.942	0.703	703.2	incongruent	Block1	incongruent/STIM_028.jpg	99
567.04	1.052	1052.2	incongruent	Block1	incongruent/STIM_028.jpg	99
571.741	0.852	851.5	incongruent	Block1	incongruent/STIM_028.jpg	100
575.008	0.784	784.2	incongruent	Block1	incongruent/STIM_028.jpg	99
577.99	0.89	890.3	incongruent	Block1	incongruent/STIM_028.jpg	100
581.354	1.261	1260.8	incongruent	Block1	incongruent/STIM_029.jpg	100
585.67	0.702	701.8	incongruent	Block1	incongruent/STIM_029.jpg	99
589.561	0.603	602.7	incongruent	Block1	incongruent/STIM_029.jpg	99
592.501	1.13	1130.3	incongruent	Block1	incongruent/STIM_029.jpg	100
596.047	0.709	709.3	incongruent	Block1	incongruent/STIM_029.jpg	99
598.868	0.664	663.6	congruent	Block1	congruent/STIM_000.jpg	100
603.204	0.547	546.9	congruent	Block1	congruent/STIM_000.jpg	100
607.491	0.573	573.0	congruent	Block1	congruent/STIM_000.jpg	100
610.322	0.791	790.8	congruent	Block1	congruent/STIM_000.jpg	99
613.295	0.722	722.4	congruent	Block1	congruent/STIM_000.jpg	99
617.646	0.571	571.4	congruent	Block1	congruent/STIM_001.jpg	99
621.753	0.566	565.9	congruent	Block1	congruent/STIM_001.jpg	100
626.231	0.738	738.3	congruent	Block1	congruent/STIM_001.jpg	99
630.725	0.74	739.7	congruent	Block1	congruent/STIM_001.jpg	99
634.51	0.717	716.6	congruent	Block1	congruent/STIM_001.jpg	100
637.748	0.688	687.7	congruent	Block1	congruent/STIM_002.jpg	100
641.124	0.587	587.0	congruent	Block1	congruent/STIM_002.jpg	100
645.574	0.53	529.5	congruent	Block1	congruent/STIM_002.jpg	100
650.107	0.573	572.6	congruent	Block1	congruent/STIM_002.jpg	100
653.413	0.643	643.1	congruent	Block1	congruent/STIM_002.jpg	100
656.606	0.534	533.7	congruent	Block1	congruent/STIM_003.jpg	99
660.071	0.788	787.6	congruent	Block1	congruent/STIM_003.jpg	100
663.691	0.818	817.8	congruent	Block1	congruent/STIM_003.jpg	100
666.603	0.77	770.2	congruent	Block1	congruent/STIM_003.jpg	100
671.035	0.706	706.5	congruent	Block1	congruent/STIM_003.jpg	100
674.324	0.668	667.9	congruent	Block1	congruent/STIM_004.jpg	99
677.348	0.473	473.4	congruent	Block1	congruent/STIM_004.jpg	99
681.614	0.556	555.5	congruent	Block1	congruent/STIM_004.jpg	100
684.686	0.587	586.9	congruent	Block1	congruent/STIM_004.jpg	100
688.201	0.691	690.9	congruent	Block1	congruent/STIM_004.jpg	99
691.838	0.814	814.4	congruent	Block1	congruent/STIM_005.jpg	100
696.38	0.586	585.5	congruent	Block1	congruent/STIM_005.jpg	100
700.762	0.472	471.9	congruent	Block1	congruent/STIM_005.jpg	100
703.505	0.739	739.1	congruent	Block1	congruent/STIM_005.jpg	99
707.757	0.67	670.1	congruent	Block1	congruent/STIM_005.jpg	99
711.04	0.584	584.4	congruent	Block1	congruent/STIM_006.jpg	100
715.283	0.604	604.5	congruent	Block1	congruent/STIM_006.jpg	100
718.073	0.498	497.7	congruent	Block1	congruent/STIM_006.jpg	100
721.423	0.662	661.7	congruent	Block1	congruent/STIM_006.jpg	99
725.2	0.507	506.8	congruent	Block1	congruent/STIM_006.jpg	99
728.313	0.509	509.5	congruent	Block1	congruent/STIM_007.jpg	99
731.144	0.62	620.2	congruent	Block1	congruent/STIM_007.jpg	100
735.042	0.459	459.1	congruent	Block1	congruent/STIM_007.jpg	99
738.583	0.77	770.4	congruent	Block1	congruent/STIM_007.jpg	99
742.03	0.724	724.2	congruent	Block1	congruent/STIM_007.jpg	100
745.248	0.573	573.3	congruent	Block1	congruent/STIM_008.jpg	100
749.833	0.517	517.3	congruent	Block1	congruent/STIM_008.jpg	99
754.247	0.718	718.4	congruent	Block1	congruent/STIM_008.jpg	99
758.428	0.525	524.6	congruent	Block1	congruent/STIM_008.jpg	99
762.679	0.48	479.9	congruent	Block1	congruent/STIM_008.jpg	99
766.702	0.549	548.8	congruent	Block1	congruent/STIM_009.jpg	100
770.085	0.636	636.0	congruent	Block1	congruent/STIM_009.jpg	99
772.915	0.563	563.2	congruent	Block1	congruent/STIM_009.jpg	99
775.661	0.823	822.6	congruent	Block1	congruent/STIM_009.jpg	99
780.305	0.711	711.1	congruent	Block1	congruent/STIM_009.jpg	99
783.905	0.528	527.7	congruent	Block1	congruent/STIM_010.jpg	100
786.771	0.508	507.8	congruent	Block1	congruent/STIM_010.jpg	100
789.724	0.551	551.3	congruent	Block1	congruent/STIM_010.jpg	99
793.376	0.587	587.1	congruent	Block1	congruent/STIM_010.jpg	99
797.886	0.821	821.1	congruent	Block1	congruent/STIM_010.jpg	99
801.447	0.587	586.8	congruent	Block1	congruent/STIM_011.jpg	100
804.301	0.54	540.2	congruent	Block1	congruent/STIM_011.jpg	100
808.247	0.674	673.6	congruent	Block1	congruent/STIM_011.jpg	100
811.063	0.626	625.6	congruent	Block1	congruent/STIM_011.jpg	100
814.562	0.792	791.5	congruent	Block1	congruent/STIM_011.jpg	100
817.463	0.652	652.3	congruent	Block1	congruent/STIM_012.jpg	99
820.783	0.592	592.3	congruent	Block1	congruent/STIM_012.jpg	99
824.843	0.822	822.2	congruent	Block1	congruent/STIM_012.jpg	99
829.734	0.672	672.0	congruent	Block1	congruent/STIM_012.jpg	100
833.183	0.504	504.5	congruent	Block1	congruent/STIM_012.jpg	100
837.336	0.684	683.8	congruent	Block1	congruent/STIM_013.jpg	99
841.108	0.629	629.2	congruent	Block1	congruent/STIM_013.jpg	99
844.572	0.636	635.5	congruent	Block1	congruent/STIM_013.jpg	99
849.006	0.469	469.0	congruent	Block1	congruent/STIM_013.jpg	100
852.87	0.581	580.6	congruent	Block1	congruent/STIM_013.jpg	100
855.588	0.739	739.2	congruent	Block1	congruent/STIM_014.jpg	99
860.093	0.671	670.7	congruent	Block1	congruent/STIM_014.jpg	99
862.954	0.661	661.4	congruent	Block1	congruent/STIM_014.jpg	99
867.603	0.468	468.0	congruent	Block1	congruent/STIM_014.jpg	99
871.894	0.757	756.8	congruent	Block1	congruent/STIM_014.jpg	99
874.753	0.56	560.0	congruent	Block1	congruent/STIM_015.jpg	100
877.918	0.666	665.9	congruent	Block1	congruent/STIM_015.jpg	100
880.977	0.812	811.6	congruent	Block1	congruent/STIM_015.jpg	100
884.383	0.812	811.6	congruent	Block1	congruent/STIM_015.jpg	99
888.146	0.615	615.2	congruent	Block1	congruent/STIM_015.jpg	100
891.777	0.495	494.9	congruent	Block1	congruent/STIM_016.jpg	100
896.27	0.629	628.6	congruent	Block1	congruent/STIM_016.jpg	99
900.694	0.515	514.8	congruent	Block1	congruent/STIM_016.jpg	100
904.098	0.765	764.7	congruent	Block1	congruent/STIM_016.jpg	100
907.114	0.709	709.4	congruent	Block1	congruent/STIM_016.jpg	100
910.485	0.702	702.1	congruent	Block1	congruent/STIM_017.jpg	100
913.425	0.506	505.6	congruent	Block1	congruent/STIM_017.jpg	99
917.877	0.495	494.7	congruent	Block1	congruent/STIM_017.jpg	100
920.523	0.687	686.6	congruent	Block1	congruent/STIM_017.jpg	99
924.022	0.794	793.5	congruent	Block1	congruent/STIM_017.jpg	99
928.077	0.655	655.1	congruent	Block1	congruent/STIM_018.jpg	100
932.742	0.625	625.3	congruent	Block1	congruent/STIM_018.jpg	99
935.771	0.739	738.6	congruent	Block1	congruent/STIM_018.jpg	99
939.004	0.658	658.0	congruent	Block1	congruent/STIM_018.jpg	100
942.825	0.466	466.4	congruent	Block1	congruent/STIM_018.jpg	100
946.784	0.569	568.9	congruent	Block1	congruent/STIM_019.jpg	99
950.094	0.819	818.7	congruent	Block1	congruent/STIM_019.jpg	100
953.501	0.67	670.0	congruent	Block1	congruent/STIM_019.jpg	100
956.241	0.628	627.6	congruent	Block1	congruent/STIM_019.jpg	100
960.799	0.636	636.5	congruent	Block1	congruent/STIM_019.jpg	100
963.917	0.475	475.1	congruent	Block1	congruent/STIM_020.jpg	100
967.526	0.763	762.9	congruent	Block1	congruent/STIM_020.jpg	99
970.95	0.782	782.5	congruent	Block1	congruent/STIM_020.jpg	100
975.266	0.703	703.2	congruent	Block1	congruent/STIM_020.jpg	100
978.302	0.691	690.7	congruent	Block1	congruent/STIM_020.jpg	99
982.418	0.691	690.8	congruent	Block1	congruent/STIM_021.jpg	99
986.323	0.474	473.5	congruent	Block1	congruent/STIM_021.jpg	100
990.726	0.599	599.3	congruent	Block1	congruent/STIM_021.jpg	99
993.991	0.71	710.4	congruent	Block1	congruent/STIM_021.jpg	99
998.635	0.799	799.0	congruent	Block1	congruent/STIM_021.jpg	100
1001.791	0.532	531.6	congruent	Block1	congruent/STIM_022.jpg	99
1006.143	0.57	570.3	congruent	Block1	congruent/STIM_022.jpg	100
1008.847	0.524	524.0	congruent	Block1	congruent/STIM_022.jpg	100
1011.959	0.616	615.9	congruent	Block1	congruent/STIM_022.jpg	100
1016.453	0.664	663.5	congruent	Block1	congruent/STIM_022.jpg	100
1021.033	0.718	718.3	congruent	Block1	congruent/STIM_023.jpg	99
1025.287	0.742	742.5	congruent	Block1	congruent/STIM_023.jpg	100
1028.11	0.741	740.7	congruent	Block1	congruent/STIM_023.jpg	99
1031.411	0.734	733.7	congruent	Block1	congruent/STIM_023.jpg	99
1035.983	0.552	552.5	congruent	Block1	congruent/STIM_023.jpg	100
1039.668	0.609	609.0	congruent	Block1	congruent/STIM_024.jpg	100
1043.933	0.744	744.5	congruent	Block1	congruent/STIM_024.jpg	99
1047.26	0.55	549.6	congruent	Block1	congruent/STIM_024.jpg	99
1051.361	0.758	757.8	congruent	Block1	congruent/STIM_024.jpg	99
1055.445	0.689	689.1	congruent	Block1	congruent/STIM_024.jpg	99
1059.54	0.621	621.2	congruent	Block1	congruent/STIM_025.jpg	99
1063.537	0.715	714.8	congruent	Block1	congruent/STIM_025.jpg	99
1067.939	0.586	586.5	congruent	Block1	congruent/STIM_025.jpg	99
1071.538	0.596	596.0	congruent	Block1	congruent/STIM_025.jpg	99
1075.872	0.785	784.9	congruent	Block1	congruent/STIM_025.jpg	100
1079.501	0.581	581.4	congruent	Block1	congruent/STIM_026.jpg	99
1083.339	0.69	690.4	congruent	Block1	congruent/STIM_026.jpg	99
1088.09	0.694	694.4	congruent	Block1	congruent/STIM_026.jpg	99
1091.348	0.677	676.9	congruent	Block1	congruent/STIM_026.jpg	99
1095.8	0.759	759.1	congruent	Block1	congruent/STIM_026.jpg	99
1100.236	0.667	666.6	congruent	Block1	congruent/STIM_027.jpg	99
1104.841	0.754	753.8	congruent	Block1	congruent/STIM_027.jpg	99
1109.204	0.553	553.0	congruent	Block1	congruent/STIM_027.jpg	100
1112.512	0.67	669.8	congruent	Block1	congruent/STIM_027.jpg	100
1116.625	0.458	457.6	congruent	Block1	congruent/STIM_027.jpg	99
1119.483	0.496	495.7	congruent	Block1	congruent/STIM_028.jpg	99
1122.908	0.696	695.7	congruent	Block1	congruent/STIM_028.jpg	99
1127.637	0.808	807.9	congruent	Block1	congruent/STIM_028.jpg	99
1131.903	0.818	818.3	congruent	Block1	congruent/STIM_028.jpg	100
1135.649	0.481	480.8	congruent	Block1	congruent/STIM_028.jpg	99
1138.961	0.529	528.6	congruent	Block1	congruent/STIM_029.jpg	100
1143.036	0.588	587.6	congruent	Block1	congruent/STIM_029.jpg	99
1146.701	0.563	562.6	congruent	Block1	congruent/STIM_029.jpg	100
1149.879	0.723	723.2	congruent	Block1	congruent/STIM_029.jpg	100
1154.645	0.46	460.4	congruent	Block1	congruent/STIM_029.jpg	99
1157.643	1.003	1002.7	incongruent	Block2	incongruent/STIM_000.jpg	100
1160.928	0.98	980.5	incongruent	Block2	incongruent/STIM_000.jpg	99
1165.808	0.79	789.7	incongruent	Block2	incongruent/STIM_000.jpg	99
1169.238	0.748	747.5	incongruent	Block2	incongruent/STIM_000.jpg	100
1172.508	0.804	804.5	incongruent	Block2	incongruent/STIM_000.jpg	99
1175.705	0.685	685.2	incongruent	Block2	incongruent/STIM_001.jpg	100
1179.247	0.892	891.8	incongruent	Block2	incongruent/STIM_001.jpg	100
1183.788	0.84	840.3	incongruent	Block2	incongruent/STIM_001.jpg	100
1187.615	0.546	545.6	incongruent	Block2	incongruent/STIM_001.jpg	99
1191.11	0.948	948.2	incongruent	Block2	incongruent/STIM_001.jpg	100
1195.627	1.108	1108.0	incongruent	Block2	incongruent/STIM_002.jpg	99
1199.353	0.768	768.5	incongruent	Block2	incongruent/STIM_002.jpg	100
1202.438	0.718	718.1	incongruent	Block2	incongruent/STIM_002.jpg	99
1206.05	0.481	480.9	incongruent	Block2	incongruent/STIM_002.jpg	99
1208.985	0.945	945.0	incongruent	Block2	incongruent/STIM_002.jpg	99
1213.13	1.058	1057.7	incongruent	Block2	incongruent/STIM_003.jpg	99
1218.056	0.847	846.9	incongruent	Block2	incongruent/STIM_003.jpg	99
1221.756	0.618	617.7	incongruent	Block2	incongruent/STIM_003.jpg	99
1224.667	0.791	790.8	incongruent	Block2	incongruent/STIM_003.jpg	99
1229.198	0.598	597.8	incongruent	Block2	incongruent/STIM_003.jpg	100
1232.26	1.065	1064.9	incongruent	Block2	incongruent/STIM_004.jpg	100
1237.153	0.787	786.9	incongruent	Block2	incongruent/STIM_004.jpg	100
1240.979	0.96	960.3	incongruent	Block2	incongruent/STIM_004.jpg	100
1244.072	0.801	801.1	incongruent	Block2	incongruent/STIM_004.jpg	99
1248.835	0.557	557.3	incongruent	Block2	incongruent/STIM_004.jpg	100
1252.545	0.928	928.4	incongruent	Block2	incongruent/STIM_005.jpg	99
1255.884	0.787	786.6	incongruent	Block2	incongruent/STIM_005.jpg	99
1259.499	0.513	512.9	incongruent	Block2	incongruent/STIM_005.jpg	100
1262.827	0.784	783.9	incongruent	Block2	incongruent/STIM_005.jpg	100
1266.932	0.577	577.1	incongruent	Block2	incongruent/STIM_005.jpg	100
1269.867	0.778	778.4	incongruent	Block2	incongruent/STIM_006.jpg	100
1273.875	1.01	1010.2	incongruent	Block2	incongruent/STIM_006.jpg	99
1277.664	0.836	836.4	incongruent	Block2	incongruent/STIM_006.jpg	100
1281.511	0.927	927.0	incongruent	Block2	incongruent/STIM_006.jpg	100
1285.698	0.761	760.9	incongruent	Block2	incongruent/STIM_006.jpg	99
1288.688	0.869	868.6	incongruent	Block2	incongruent/STIM_007.jpg	99
1292.488	0.525	525.4	incongruent	Block2	incongruent/STIM_007.jpg	100
1295.08	0.739	739.3	incongruent	Block2	incongruent/STIM_007.jpg	99
1299.076	0.756	755.9	incongruent	Block2	incongruent/STIM_007.jpg	100
1302.341	0.581	580.8	incongruent	Block2	incongruent/STIM_007.jpg	99
1305.775	0.564	564.0	incongruent	Block2	incongruent/STIM_008.jpg	100
1308.587	1.063	1063.1	incongruent	Block2	incongruent/STIM_008.jpg	100
1312.841	0.608	608.0	incongruent	Block2	incongruent/STIM_008.jpg	99
1315.513	0.491	491.0	incongruent	Block2	incongruent/STIM_008.jpg	99
1318.591	0.459	459.2	incongruent	Block2	incongruent/STIM_008.jpg	99
1321.096	0.838	838.1	incongruent	Block2	incongruent/STIM_009.jpg	100
1324.578	0.875	874.9	incongruent	Block2	incongruent/STIM_009.jpg	99
1329.019	0.502	502.4	incongruent	Block2	incongruent/STIM_009.jpg	100
1332.042	0.663	663.3	incongruent	Block2	incongruent/STIM_009.jpg	100
1335.484	0.579	579.2	incongruent	Block2	incongruent/STIM_009.jpg	100
1339.743	1.012	1012.4	incongruent	Block2	incongruent/STIM_010.jpg	100
1343.309	0.936	935.8	incongruent	Block2	incongruent/STIM_010.jpg	100
1347.606	0.692	691.9	incongruent	Block2	incongruent/STIM_010.jpg	99
1351.613	0.537	536.9	incongruent	Block2	incongruent/STIM_010.jpg	99
1355.273	0.815	814.8	incongruent	Block2	incongruent/STIM_010.jpg	99
1359.127	0.575	574.9	incongruent	Block2	incongruent/STIM_011.jpg	99
1363.612	0.891	891.3	incongruent	Block2	incongruent/STIM_011.jpg	100
1367.078	0.517	517.0	incongruent	Block2	incongruent/STIM_011.jpg	99
1371.228	0.808	807.6	incongruent	Block2	incongruent/STIM_011.jpg	99
1374.466	0.69	689.9	incongruent	Block2	incongruent/STIM_011.jpg	100
1377.313	0.871	870.7	incongruent	Block2	incongruent/STIM_012.jpg	99
1380.274	0.971	970.8	incongruent	Block2	incongruent/STIM_012.jpg	99
1383.886	0.84	839.8	incongruent	Block2	incongruent/STIM_012.jpg	100
1387.869	0.59	590.2	incongruent	Block2	incongruent/STIM_012.jpg	100
1391.629	0.769	769.0	incongruent	Block2	incongruent/STIM_012.jpg	99
1396.194	0.892	892.2	incongruent	Block2	incongruent/STIM_013.jpg	100
1399.78	0.607	607.0	incongruent	Block2	incongruent/STIM_013.jpg	99
1403.083	0.682	682.0	incongruent	Block2	incongruent/STIM_013.jpg	100
1407.062	0.468	468.4	incongruent	Block2	incongruent/STIM_013.jpg	99
1411.496	0.939	938.7	incongruent	Block2	incongruent/STIM_013.jpg	100
1415.426	0.956	955.7	incongruent	Block2	incongruent/STIM_014.jpg	99
1418.551	0.883	883.0	incongruent	Block2	incongruent/STIM_014.jpg	99
1422.069	0.634	634.2	incongruent	Block2	incongruent/STIM_014.jpg	99
1425.02	0.485	485.0	incongruent	Block2	incongruent/STIM_014.jpg	99
1429.422	0.639	639.0	incongruent	Block2	incongruent/STIM_014.jpg	99
1433.51	0.865	865.1	incongruent	Block2	incongruent/STIM_015.jpg	100
1438.363	0.825	825.1	incongruent	Block2	incongruent/STIM_015.jpg	100
1442.635	0.546	545.9	incongruent	Block2	incongruent/STIM_015.jpg	99
1446.114	0.517	516.8	incongruent	Block2	incongruent/STIM_015.jpg	100
1448.908	0.949	949.2	incongruent	Block2	incongruent/STIM_015.jpg	99
1453.584	1.114	1113.9	incongruent	Block2	incongruent/STIM_016.jpg	100
1456.903	0.733	733.2	incongruent	Block2	incongruent/STIM_016.jpg	100
1460.546	0.543	543.4	incongruent	Block2	incongruent/STIM_016.jpg	100
1464.306	0.851	851.2	incongruent	Block2	incongruent/STIM_016.jpg	99
1468.602	0.719	719.2	incongruent	Block2	incongruent/STIM_016.jpg	99
1472.919	0.764	764.0	incongruent	Block2	incongruent/STIM_017.jpg	100
1477.601	1.092	1091.5	incongruent	Block2	incongruent/STIM_017.jpg	100
1482.199	0.99	990.5	incongruent	Block2	incongruent/STIM_017.jpg	99
1486.882	0.9	899.7	incongruent	Block2	incongruent/STIM_017.jpg	99
1489.914	0.735	735.0	incongruent	Block2	incongruent/STIM_017.jpg	99
1493.47	0.564	564.0	incongruent	Block2	incongruent/STIM_018.jpg	99
1496.759	0.535	535.1	incongruent	Block2	incongruent/STIM_018.jpg	100
1500.349	0.994	994.1	incongruent	Block2	incongruent/STIM_018.jpg	100
1504.783	0.556	556.5	incongruent	Block2	incongruent/STIM_018.jpg	99
1509.132	0.933	933.2	incongruent	Block2	incongruent/STIM_018.jpg	100
1513.453	0.795	794.6	incongruent	Block2	incongruent/STIM_019.jpg	99
1516.789	0.636	636.0	incongruent	Block2	incongruent/STIM_019.jpg	100
1520.489	0.676	676.2	incongruent	Block2	incongruent/STIM_019.jpg	99
1523.792	0.52	519.8	incongruent	Block2	incongruent/STIM_019.jpg	100
1527.016	0.876	876.0	incongruent	Block2	incongruent/STIM_019.jpg	99
1530.931	0.997	997.2	incongruent	Block2	incongruent/STIM_020.jpg	100
1534.975	0.981	980.9	incongruent	Block2	incongruent/STIM_020.jpg	99
1539.737	0.589	589.1	incongruent	Block2	incongruent/STIM_020.jpg	100
1543.533	0.52	520.3	incongruent	Block2	incongruent/STIM_020.jpg	100
1546.559	0.613	613.2	incongruent	Block2	incongruent/STIM_020.jpg	100
1549.611	1.154	1154.3	incongruent	Block2	incongruent/STIM_021.jpg	99
1553.536	0.833	833.3	incongruent	Block2	incongruent/STIM_021.jpg	99
1558.188	0.919	918.9	incongruent	Block2	incongruent/STIM_021.jpg	100
1562.465	0.697	697.1	incongruent	Block2	incongruent/STIM_021.jpg	100
1566.719	0.605	604.7	incongruent	Block2	incongruent/STIM_021.jpg	100
1570.853	1.029	1029.2	incongruent	Block2	incongruent/STIM_022.jpg	100
1575.242	0.925	924.7	incongruent	Block2	incongruent/STIM_022.jpg	99
1579.441	0.617	617.2	incongruent	Block2	incongruent/STIM_022.jpg	100
1583.073	0.568	568.1	incongruent	Block2	incongruent/STIM_022.jpg	99
1586.791	0.759	759.1	incongruent	Block2	incongruent/STIM_022.jpg	99
1590.305	0.59	590.1	incongruent	Block2	incongruent/STIM_023.jpg	99
1593.931	0.559	558.8	incongruent	Block2	incongruent/STIM_023.jpg	100
1598.281	0.793	793.3	incongruent	Block2	incongruent/STIM_023.jpg	100
1602.235	0.502	502.0	incongruent	Block2	incongruent/STIM_023.jpg	99
1605.148	0.782	782.5	incongruent	Block2	incongruent/STIM_023.jpg	100
1608.111	0.861	860.7	incongruent	Block2	incongruent/STIM_024.jpg	99
1611.538	0.882	881.8	incongruent	Block2	incongruent/STIM_024.jpg	100
1614.758	0.885	885.4	incongruent	Block2	incongruent/STIM_024.jpg	100
1617.811	0.947	946.9	incongruent	Block2	incongruent/STIM_024.jpg	100
1622.626	0.776	776.5	incongruent	Block2	incongruent/STIM_024.jpg	100
1627.133	0.643	643.1	incongruent	Block2	incongruent/STIM_025.jpg	100
1630.402	0.897	897.3	incongruent	Block2	incongruent/STIM_025.jpg	99
1634.538	0.482	482.4	incongruent	Block2	incongruent/STIM_025.jpg	99
1637.118	0.637	636.8	incongruent	Block2	incongruent/STIM_025.jpg	100
1641.335	0.765	765.4	incongruent	Block2	incongruent/STIM_025.jpg	100
1646.154	0.904	903.8	incongruent	Block2	incongruent/STIM_026.jpg	100
1650.607	0.816	816.5	incongruent	Block2	incongruent/STIM_026.jpg	100
1654.76	1.023	1022.6	incongruent	Block2	incongruent/STIM_026.jpg	99
1658.736	0.584	583.6	incongruent	Block2	incongruent/STIM_026.jpg	100
1661.549	0.459	458.8	incongruent	Block2	incongruent/STIM_026.jpg	99
1665.793	0.881	880.6	incongruent	Block2	incongruent/STIM_027.jpg	100
1669.212	0.886	885.5	incongruent	Block2	incongruent/STIM_027.jpg	99
1673.549	0.898	897.6	incongruent	Block2	incongruent/STIM_027.jpg	100
1678.3	0.571	570.8	incongruent	Block2	incongruent/STIM_027.jpg	99
1681.59	0.629	629.2	incongruent	Block2	incongruent/STIM_027.jpg	100
1684.547	1.031	1030.9	incongruent	Block2	incongruent/STIM_028.jpg	99
1688.691	0.748	748.0	incongruent	Block2	incongruent/STIM_028.jpg	100
1693.257	0.531	531.2	incongruent	Block2	incongruent/STIM_028.jpg	99
1696.574	0.543	542.6	incongruent	Block2	incongruent/STIM_028.jpg	99
1700.912	0.952	951.5	incongruent	Block2	incongruent/STIM_028.jpg	99
1705.827	1.005	1005.1	incongruent	Block2	incongruent/STIM_029.jpg	100
1710.599	1.002	1002.4	incongruent	Block2	incongruent/STIM_029.jpg	99
1714.517	0.8	800.2	incongruent	Block2	incongruent/STIM_029.jpg	99
1718.227	0.789	788.7	incongruent	Block2	incongruent/STIM_029.jpg	100
1721.928	0.452	452.1	incongruent	Block2	incongruent/STIM_029.jpg	99
1726.119	0.696	696.2	congruent	Block2	congruent/STIM_000.jpg	99
1729.468	0.714	714.0	congruent	Block2	congruent/STIM_000.jpg	99
1733.922	0.563	563.0	congruent	Block2	congruent/STIM_000.jpg	99
1737.184	0.704	704.4	congruent	Block2	congruent/STIM_000.jpg	100
1740.81	0.619	619.1	congruent	Block2	congruent/STIM_000.jpg	99
1744.987	0.607	607.2	congruent	Block2	congruent/STIM_001.jpg	100
1748.199	0.807	807.0	congruent	Block2	congruent/STIM_001.jpg	100
1752.925	0.466	465.9	congruent	Block2	congruent/STIM_001.jpg	100
1756.51	0.62	620.1	congruent	Block2	congruent/STIM_001.jpg	99
1759.972	0.808	808.1	congruent	Block2	congruent/STIM_001.jpg	100
1763.492	0.512	511.6	congruent	Block2	congruent/STIM_002.jpg	100
1767.449	0.604	604.2	congruent	Block2	congruent/STIM_002.jpg	100
1771.501	0.612	612.3	congruent	Block2	congruent/STIM_002.jpg	99
1776.015	0.523	523.3	congruent	Block2	congruent/STIM_002.jpg	99
1779.031	0.615	615.4	congruent	Block2	congruent/STIM_002.jpg	100
1782.444	0.737	736.6	congruent	Block2	congruent/STIM_003.jpg	100
1786.922	0.7	699.9	congruent	Block2	congruent/STIM_003.jpg	99
1790.697	0.66	660.3	congruent	Block2	congruent/STIM_003.jpg	100
1795.072	0.54	540.2	congruent	Block2	congruent/STIM_003.jpg	99
1799.308	0.699	699.3	congruent	Block2	congruent/STIM_003.jpg	99
1802.944	0.612	612.4	congruent	Block2	congruent/STIM_004.jpg	100
1806.934	0.474	473.8	congruent	Block2	congruent/STIM_004.jpg	99
1810.107	0.75	749.5	congruent	Block2	congruent/STIM_004.jpg	100
1813.631	0.493	492.7	congruent	Block2	congruent/STIM_004.jpg	99
1816.985	0.752	752.0	congruent	Block2	congruent/STIM_004.jpg	99
1820.081	0.609	609.4	congruent	Block2	congruent/STIM_005.jpg	100
1824.648	0.628	627.9	congruent	Block2	congruent/STIM_005.jpg	100
1828.193	0.804	803.5	congruent	Block2	congruent/STIM_005.jpg	99
1832.456	0.604	603.9	congruent	Block2	congruent/STIM_005.jpg	99
1836.31	0.545	545.3	congruent	Block2	congruent/STIM_005.jpg	99
1839.803	0.574	574.3	congruent	Block2	congruent/STIM_006.jpg	99
1842.567	0.659	659.4	congruent	Block2	congruent/STIM_006.jpg	99
1846.714	0.774	774.0	congruent	Block2	congruent/STIM_006.jpg	100
1851.32	0.613	613.2	congruent	Block2	congruent/STIM_006.jpg	100
1854.438	0.808	807.8	congruent	Block2	congruent/STIM_006.jpg	99
1858.554	0.805	804.9	congruent	Block2	congruent/STIM_007.jpg	99
1862.955	0.811	810.8	congruent	Block2	congruent/STIM_007.jpg	99
1866.914	0.751	750.8	congruent	Block2	congruent/STIM_007.jpg	99
1871.678	0.71	710.5	congruent	Block2	congruent/STIM_007.jpg	99
1874.822	0.582	582.1	congruent	Block2	congruent/STIM_007.jpg	100
1877.966	0.799	799.4	congruent	Block2	congruent/STIM_008.jpg	99
1882.749	0.776	776.5	congruent	Block2	congruent/STIM_008.jpg	100
1885.969	0.741	741.2	congruent	Block2	congruent/STIM_008.jpg	99
1889.679	0.566	565.6	congruent	Block2	congruent/STIM_008.jpg	99
1893.958	0.739	739.1	congruent	Block2	congruent/STIM_008.jpg	99
1898.278	0.468	468.4	congruent	Block2	congruent/STIM_009.jpg	99
1901.384	0.573	573.0	congruent	Block2	congruent/STIM_009.jpg	100
1905.619	0.688	687.8	congruent	Block2	congruent/STIM_009.jpg	99
1908.924	0.696	696.3	congruent	Block2	congruent/STIM_009.jpg	99
1912.802	0.486	486.0	congruent	Block2	congruent/STIM_009.jpg	99
1916.044	0.708	708.2	congruent	Block2	congruent/STIM_010.jpg	99
1919.106	0.48	479.9	congruent	Block2	congruent/STIM_010.jpg	100
1922.533	0.773	772.9	congruent	Block2	congruent/STIM_010.jpg	100
1926.666	0.625	625.0	congruent	Block2	congruent/STIM_010.jpg	100
1930.323	0.763	762.8	congruent	Block2	congruent/STIM_010.jpg	100
1934.096	0.483	483.0	congruent	Block2	congruent/STIM_011.jpg	99
1937.266	0.742	742.0	congruent	Block2	congruent/STIM_011.jpg	100
1941.2	0.713	712.7	congruent	Block2	congruent/STIM_011.jpg	100
1945.714	0.782	782.3	congruent	Block2	congruent/STIM_011.jpg	99
1949.591	0.647	646.8	congruent	Block2	congruent/STIM_011.jpg	100
1952.526	0.524	524.4	congruent	Block2	congruent/STIM_012.jpg	100
1955.533	0.528	528.0	congruent	Block2	congruent/STIM_012.jpg	99
1959.577	0.721	721.1	congruent	Block2	congruent/STIM_012.jpg	99
1962.863	0.478	477.9	congruent	Block2	congruent/STIM_012.jpg	100
1966.509	0.464	463.9	congruent	Block2	congruent/STIM_012.jpg	100
1969.956	0.754	754.1	congruent	Block2	congruent/STIM_013.jpg	100
1974.503	0.459	459.3	congruent	Block2	congruent/STIM_013.jpg	99
1977.625	0.632	631.7	congruent	Block2	congruent/STIM_013.jpg	99
1982.015	0.672	671.6	congruent	Block2	congruent/STIM_013.jpg	99
1984.816	0.484	483.5	congruent	Block2	congruent/STIM_013.jpg	99
1988.282	0.477	477.4	congruent	Block2	congruent/STIM_014.jpg	100
1991.963	0.572	572.0	congruent	Block2	congruent/STIM_014.jpg	99
1995.96	0.707	707.3	congruent	Block2	congruent/STIM_014.jpg	100
2000.294	0.695	694.6	congruent	Block2	congruent/STIM_014.jpg	99
2004.647	0.63	630.5	congruent	Block2	congruent/STIM_014.jpg	99
2009.079	0.599	599.4	congruent	Block2	congruent/STIM_015.jpg	100
2012.446	0.696	695.5	congruent	Block2	congruent/STIM_015.jpg	100
2016.136	0.486	486.2	congruent	Block2	congruent/STIM_015.jpg	99
2019.612	0.593	593.4	congruent	Block2	congruent/STIM_015.jpg	100
2022.947	0.749	748.7	congruent	Block2	congruent/STIM_015.jpg	99
2027.755	0.63	629.6	congruent	Block2	congruent/STIM_016.jpg	100
2031.571	0.617	617.4	congruent	Block2	congruent/STIM_016.jpg	99
2034.823	0.528	527.6	congruent	Block2	congruent/STIM_016.jpg	99
2039.244	0.649	648.7	congruent	Block2	congruent/STIM_016.jpg	100
2043.102	0.769	768.8	congruent	Block2	congruent/STIM_016.jpg	99
2046.265	0.476	476.3	congruent	Block2	congruent/STIM_017.jpg	99
2050.308	0.468	467.9	congruent	Block2	congruent/STIM_017.jpg	100
2053.766	0.481	481.4	congruent	Block2	congruent/STIM_017.jpg	99
2056.654	0.6	599.9	congruent	Block2	congruent/STIM_017.jpg	99
2060.308	0.692	691.8	congruent	Block2	congruent/STIM_017.jpg	100
2064.207	0.547	547.4	congruent	Block2	congruent/STIM_018.jpg	100
2068.286	0.464	463.9	congruent	Block2	congruent/STIM_018.jpg	100
2071.905	0.724	723.8	congruent	Block2	congruent/STIM_018.jpg	100
2076.427	0.603	603.3	congruent	Block2	congruent/STIM_018.jpg	100
2080.645	0.47	469.5	congruent	Block2	congruent/STIM_018.jpg	100
2083.698	0.482	482.3	congruent	Block2	congruent/STIM_019.jpg	99
2086.669	0.574	574.0	congruent	Block2	congruent/STIM_019.jpg	99
2090.465	0.512	512.4	congruent	Block2	congruent/STIM_019.jpg	100
2094.937	0.641	640.8	congruent	Block2	congruent/STIM_019.jpg	99
2099.239	0.67	670.5	congruent	Block2	congruent/STIM_019.jpg	100
2103.743	0.545	545.3	congruent	Block2	congruent/STIM_020.jpg	100
2107.473	0.669	668.8	congruent	Block2	congruent/STIM_020.jpg	99
2111.639	0.529	528.6	congruent	Block2	congruent/STIM_020.jpg	100
2115.76	0.719	719.0	congruent	Block2	congruent/STIM_020.jpg	100
2119.345	0.529	529.2	congruent	Block2	congruent/STIM_020.jpg	100
2122.06	0.6	599.7	congruent	Block2	congruent/STIM_021.jpg	99
2126.528	0.677	676.8	congruent	Block2	congruent/STIM_021.jpg	99
2130.466	0.75	749.9	congruent	Block2	congruent/STIM_021.jpg	99
2134.352	0.552	552.2	congruent	Block2	congruent/STIM_021.jpg	99
2138.753	0.619	619.0	congruent	Block2	congruent/STIM_021.jpg	100
2141.553	0.598	597.7	congruent	Block2	congruent/STIM_022.jpg	99
2144.73	0.68	679.9	congruent	Block2	congruent/STIM_022.jpg	99
2149.428	0.565	564.7	congruent	Block2	congruent/STIM_022.jpg	99
2153.392	0.616	616.0	congruent	Block2	congruent/STIM_022.jpg	100
2156.353	0.733	733.4	congruent	Block2	congruent/STIM_022.jpg	100
2160.362	0.615	615.2	congruent	Block2	congruent/STIM_023.jpg	100
2163.501	0.598	598.4	congruent	Block2	congruent/STIM_023.jpg	100
2167.489	0.489	488.8	congruent	Block2	congruent/STIM_023.jpg	100
2171.399	0.477	476.9	congruent	Block2	congruent/STIM_023.jpg	99
2174.38	0.605	604.9	congruent	Block2	congruent/STIM_023.jpg	100
2177.335	0.615	614.8	congruent	Block2	congruent/STIM_024.jpg	100
2181.51	0.632	631.5	congruent	Block2	congruent/STIM_024.jpg	100
2185.306	0.611	610.8	congruent	Block2	congruent/STIM_024.jpg	100
2188.782	0.466	465.6	congruent	Block2	congruent/STIM_024.jpg	100
2191.449	0.81	810.3	congruent	Block2	congruent/STIM_024.jpg	100
2195.008	0.744	743.8	congruent	Block2	congruent/STIM_025.jpg	100
2199.175	0.518	517.7	congruent	Block2	congruent/STIM_025.jpg	99
2203.346	0.592	591.5	congruent	Block2	congruent/STIM_025.jpg	100
2207.319	0.731	731.4	congruent	Block2	congruent/STIM_025.jpg	99
2211.877	0.48	480.5	congruent	Block2	congruent/STIM_025.jpg	100
2214.503	0.636	635.6	congruent	Block2	congruent/STIM_026.jpg	99
2218.413	0.559	559.1	congruent	Block2	congruent/STIM_026.jpg	99
2222.033	0.707	707.3	congruent	Block2	congruent/STIM_026.jpg	99
2225.049	0.698	697.8	congruent	Block2	congruent/STIM_026.jpg	100
2227.839	0.746	746.3	congruent	Block2	congruent/STIM_026.jpg	99
2231.067	0.588	588.1	congruent	Block2	congruent/STIM_027.jpg	100
2234.495	0.818	818.1	congruent	Block2	congruent/STIM_027.jpg	99
2237.917	0.722	722.3	congruent	Block2	congruent/STIM_027.jpg	99
2241.265	0.808	808.4	congruent	Block2	congruent/STIM_027.jpg	100
2244.492	0.796	796.4	congruent	Block2	congruent/STIM_027.jpg	99
2249.057	0.712	711.8	congruent	Block2	congruent/STIM_028.jpg	100
2252.906	0.639	638.8	congruent	Block2	congruent/STIM_028.jpg	100
2256.397	0.765	765.1	congruent	Block2	congruent/STIM_028.jpg	99
2260.128	0.61	610.1	congruent	Block2	congruent/STIM_028.jpg	100
2263.946	0.715	714.7	congruent	Block2	congruent/STIM_028.jpg	99
2266.845	0.765	765.1	congruent	Block2	congruent/STIM_029.jpg	99
2270.238	0.516	515.9	congruent	Block2	congruent/STIM_029.jpg	100
2273.998	0.801	801.2	congruent	Block2	congruent/STIM_029.jpg	100
2277.114	0.597	597.1	congruent	Block2	congruent/STIM_029.jpg	99
2281.051	0.818	817.5	congruent	Block2	congruent/STIM_029.jpg	99
2284.545	0.648	648.5	incongruent	Block3	incongruent/STIM_000.jpg	100
2288.524	0.526	525.7	incongruent	Block3	incongruent/STIM_000.jpg	100
2291.442	0.575	574.7	incongruent	Block3	incongruent/STIM_000.jpg	100
2294.873	0.624	623.6	incongruent	Block3	incongruent/STIM_000.jpg	99
2299.389	0.824	824.0	incongruent	Block3	incongruent/STIM_000.jpg	100
2303.413	0.573	573.4	incongruent	Block3	incongruent/STIM_001.jpg	99
2307.579	0.543	542.7	incongruent	Block3	incongruent/STIM_001.jpg	99
2310.835	0.829	829.2	incongruent	Block3	incongruent/STIM_001.jpg	99
2315.177	0.58	579.6	incongruent	Block3	incongruent/STIM_001.jpg	99
2318.776	0.874	874.2	incongruent	Block3	incongruent/STIM_001.jpg	100
2321.993	0.829	828.9	incongruent	Block3	incongruent/STIM_002.jpg	99
2325.639	0.55	550.5	incongruent	Block3	incongruent/STIM_002.jpg	100
2330.007	0.666	665.6	incongruent	Block3	incongruent/STIM_002.jpg	100
2333.546	0.866	865.9	incongruent	Block3	incongruent/STIM_002.jpg	100
2338.158	0.495	494.7	incongruent	Block3	incongruent/STIM_002.jpg	100
2341.278	0.707	706.9	incongruent	Block3	incongruent/STIM_003.jpg	100
2345.316	0.881	880.7	incongruent	Block3	incongruent/STIM_003.jpg	100
2349.979	0.779	778.9	incongruent	Block3	incongruent/STIM_003.jpg	100
2353.639	0.51	509.6	incongruent	Block3	incongruent/STIM_003.jpg	100
2357.343	0.501	500.8	incongruent	Block3	incongruent/STIM_003.jpg	100
2361.731	0.63	629.7	incongruent	Block3	incongruent/STIM_004.jpg	100
2366.35	0.84	839.7	incongruent	Block3	incongruent/STIM_004.jpg	99
2370.511	0.742	742.2	incongruent	Block3	incongruent/STIM_004.jpg	99
2374.772	0.835	834.7	incongruent	Block3	incongruent/STIM_004.jpg	100
2378.339	0.683	682.6	incongruent	Block3	incongruent/STIM_004.jpg	99
2382.946	0.8	800.0	incongruent	Block3	incongruent/STIM_005.jpg	99
2387.036	0.949	949.1	incongruent	Block3	incongruent/STIM_005.jpg	100
2391.896	0.623	622.7	incongruent	Block3	incongruent/STIM_005.jpg	99
2395.687	0.802	801.5	incongruent	Block3	incongruent/STIM_005.jpg	99
2399.114	0.658	658.0	incongruent	Block3	incongruent/STIM_005.jpg	100
2402.748	0.772	772.2	incongruent	Block3	incongruent/STIM_006.jpg	99
2406.742	0.629	629.0	incongruent	Block3	incongruent/STIM_006.jpg	99
2411.407	0.873	873.1	incongruent	Block3	incongruent/STIM_006.jpg	99
2415.986	0.841	840.8	incongruent	Block3	incongruent/STIM_006.jpg	99
2419.615	0.682	681.9	incongruent	Block3	incongruent/STIM_006.jpg	99
2422.74	0.636	635.7	incongruent	Block3	incongruent/STIM_007.jpg	99
2427.183	0.509	508.6	incongruent	Block3	incongruent/STIM_007.jpg	99
2431.292	0.799	798.8	incongruent	Block3	incongruent/STIM_007.jpg	99
2434.316	0.502	502.1	incongruent	Block3	incongruent/STIM_007.jpg	100
2438.212	0.8	800.2	incongruent	Block3	incongruent/STIM_007.jpg	100
2442.93	0.483	483.2	incongruent	Block3	incongruent/STIM_008.jpg	99
2445.507	0.868	868.2	incongruent	Block3	incongruent/STIM_008.jpg	99
2449.038	0.652	651.9	incongruent	Block3	incongruent/STIM_008.jpg	100
2453.187	0.851	850.8	incongruent	Block3	incongruent/STIM_008.jpg	99
2456.47	0.588	588.5	incongruent	Block3	incongruent/STIM_008.jpg	99
2460.653	0.905	904.8	incongruent	Block3	incongruent/STIM_009.jpg	99
2465.638	0.587	587.1	incongruent	Block3	incongruent/STIM_009.jpg	99
2468.423	0.666	665.8	incongruent	Block3	incongruent/STIM_009.jpg	99
2471.502	0.672	672.0	incongruent	Block3	incongruent/STIM_009.jpg	99
2476.073	0.58	580.2	incongruent	Block3	incongruent/STIM_009.jpg	99
2478.76	0.868	867.9	incongruent	Block3	incongruent/STIM_010.jpg	100
2481.934	0.758	757.8	incongruent	Block3	incongruent/STIM_010.jpg	100
2485.212	0.731	731.0	incongruent	Block3	incongruent/STIM_010.jpg	99
2489.286	0.77	769.7	incongruent	Block3	incongruent/STIM_010.jpg	100
2493.948	0.676	676.4	incongruent	Block3	incongruent/STIM_010.jpg	99
2498.624	0.92	920.4	incongruent	Block3	incongruent/STIM_011.jpg	100
2502.279	0.724	724.2	incongruent	Block3	incongruent/STIM_011.jpg	99
2506.531	0.719	718.9	incongruent	Block3	incongruent/STIM_011.jpg	99
2509.88	0.736	736.3	incongruent	Block3	incongruent/STIM_011.jpg	99
2514.053	0.857	857.1	incongruent	Block3	incongruent/STIM_011.jpg	100
2517.135	0.724	724.3	incongruent	Block3	incongruent/STIM_012.jpg	100
2520.403	0.454	453.7	incongruent	Block3	incongruent/STIM_012.jpg	100
2524.881	0.672	671.7	incongruent	Block3	incongruent/STIM_012.jpg	100
2528.376	0.484	483.5	incongruent	Block3	incongruent/STIM_012.jpg	100
2530.944	0.715	715.2	incongruent	Block3	incongruent/STIM_012.jpg	100
2534.721	0.714	713.5	incongruent	Block3	incongruent/STIM_013.jpg	99
2537.713	0.771	770.9	incongruent	Block3	incongruent/STIM_013.jpg	99
2540.881	0.917	917.0	incongruent	Block3	incongruent/STIM_013.jpg	99
2543.962	0.746	746.2	incongruent	Block3	incongruent/STIM_013.jpg	99
2547.868	0.916	915.6	incongruent	Block3	incongruent/STIM_013.jpg	99
2551.614	0.835	835.0	incongruent	Block3	incongruent/STIM_014.jpg	99
2555.371	0.673	673.3	incongruent	Block3	incongruent/STIM_014.jpg	100
2558.265	0.903	903.1	incongruent	Block3	incongruent/STIM_014.jpg	100
2561.782	0.594	593.5	incongruent	Block3	incongruent/STIM_014.jpg	100
2565.535	0.755	755.1	incongruent	Block3	incongruent/STIM_014.jpg	99
2568.516	0.782	781.8	incongruent	Block3	incongruent/STIM_015.jpg	99
2572.8	0.838	838.1	incongruent	Block3	incongruent/STIM_015.jpg	99
2576.16	0.513	512.8	incongruent	Block3	incongruent/STIM_015.jpg	100
2580.412	0.676	676.4	incongruent	Block3	incongruent/STIM_015.jpg	100
2583.659	0.525	524.6	incongruent	Block3	incongruent/STIM_015.jpg	99
2587.653	0.596	595.5	incongruent	Block3	incongruent/STIM_016.jpg	99
2591.832	0.708	708.5	incongruent	Block3	incongruent/STIM_016.jpg	100
2596.175	0.537	536.9	incongruent	Block3	incongruent/STIM_016.jpg	99
2600.005	0.563	563.2	incongruent	Block3	incongruent/STIM_016.jpg	100
2604.493	0.515	515.3	incongruent	Block3	incongruent/STIM_016.jpg	100
2608.253	0.631	631.4	incongruent	Block3	incongruent/STIM_017.jpg	99
2612.132	0.798	797.9	incongruent	Block3	incongruent/STIM_017.jpg	99
2616.604	0.613	612.6	incongruent	Block3	incongruent/STIM_017.jpg	99
2621.056	0.887	886.6	incongruent	Block3	incongruent/STIM_017.jpg	99
2625.319	0.93	930.3	incongruent	Block3	incongruent/STIM_017.jpg	100
2630.065	0.895	894.8	incongruent	Block3	incongruent/STIM_018.jpg	99
2634.8	0.453	452.9	incongruent	Block3	incongruent/STIM_018.jpg	100
2638.917	0.478	478.0	incongruent	Block3	incongruent/STIM_018.jpg	100
2641.447	0.533	532.9	incongruent	Block3	incongruent/STIM_018.jpg	100
2645.141	0.527	527.4	incongruent	Block3	incongruent/STIM_018.jpg	100
2648.452	0.791	791.4	incongruent	Block3	incongruent/STIM_019.jpg	100
2653.132	0.732	731.7	incongruent	Block3	incongruent/STIM_019.jpg	99
2657.016	0.48	480.3	incongruent	Block3	incongruent/STIM_019.jpg	99
2660.003	0.59	590.2	incongruent	Block3	incongruent/STIM_019.jpg	100
2662.895	0.861	860.6	incongruent	Block3	incongruent/STIM_019.jpg	100
2667.63	0.707	707.3	incongruent	Block3	incongruent/STIM_020.jpg	99
2670.532	0.956	955.7	incongruent	Block3	incongruent/STIM_020.jpg	99
2673.676	0.744	743.5	incongruent	Block3	incongruent/STIM_020.jpg	100
2676.987	0.78	780.0	incongruent	Block3	incongruent/STIM_020.jpg	100
2679.992	0.934	934.2	incongruent	Block3	incongruent/STIM_020.jpg	100
2684.407	0.78	779.7	incongruent	Block3	incongruent/STIM_021.jpg	100
2687.93	0.811	811.4	incongruent	Block3	incongruent/STIM_021.jpg	99
2690.874	0.561	561.1	incongruent	Block3	incongruent/STIM_021.jpg	99
2693.833	0.894	893.7	incongruent	Block3	incongruent/STIM_021.jpg	100
2696.963	0.655	655.1	incongruent	Block3	incongruent/STIM_021.jpg	100
2699.724	0.664	663.9	incongruent	Block3	incongruent/STIM_022.jpg	99
2703.542	0.561	561.4	incongruent	Block3	incongruent/STIM_022.jpg	99
2706.728	0.931	930.8	incongruent	Block3	incongruent/STIM_022.jpg	100
2711.095	0.521	521.0	incongruent	Block3	incongruent/STIM_022.jpg	100
2713.838	0.516	515.9	incongruent	Block3	incongruent/STIM_022.jpg	100
2717.901	0.682	682.5	incongruent	Block3	incongruent/STIM_023.jpg	99
2721.645	0.933	932.9	incongruent	Block3	incongruent/STIM_023.jpg	99
2725.228	0.918	917.7	incongruent	Block3	incongruent/STIM_023.jpg	100
2729.435	0.457	456.7	incongruent	Block3	incongruent/STIM_023.jpg	99
2733.583	0.521	521.3	incongruent	Block3	incongruent/STIM_023.jpg	100
2736.198	0.693	693.1	incongruent	Block3	incongruent/STIM_024.jpg	99
2740.535	0.853	853.4	incongruent	Block3	incongruent/STIM_024.jpg	99
2744.994	0.758	757.9	incongruent	Block3	incongruent/STIM_024.jpg	100
2748.478	0.547	546.6	incongruent	Block3	incongruent/STIM_024.jpg	100
2751.887	0.679	679.4	incongruent	Block3	incongruent/STIM_024.jpg	100
2755.154	0.826	825.8	incongruent	Block3	incongruent/STIM_025.jpg	100
2759.319	0.496	496.5	incongruent	Block3	incongruent/STIM_025.jpg	99
2762.646	0.953	952.9	incongruent	Block3	incongruent/STIM_025.jpg	100
2766.486	0.852	852.1	incongruent	Block3	incongruent/STIM_025.jpg	99
2770.763	0.544	544.4	incongruent	Block3	incongruent/STIM_025.jpg	100
2774.772	0.862	861.8	incongruent	Block3	incongruent/STIM_026.jpg	99
2778.715	0.631	630.8	incongruent	Block3	incongruent/STIM_026.jpg	100
2782.693	0.789	789.2	incongruent	Block3	incongruent/STIM_026.jpg	99
2786.638	0.872	871.8	incongruent	Block3	incongruent/STIM_026.jpg	99
2790.965	0.484	483.5	incongruent	Block3	incongruent/STIM_026.jpg	100
2794.31	0.81	810.1	incongruent	Block3	incongruent/STIM_027.jpg	100
2798.157	0.739	739.4	incongruent	Block3	incongruent/STIM_027.jpg	99
2801.593	0.505	504.8	incongruent	Block3	incongruent/STIM_027.jpg	100
2805.971	0.739	739.2	incongruent	Block3	incongruent/STIM_027.jpg	100
2810.437	0.569	568.9	incongruent	Block3	incongruent/STIM_027.jpg	100
2813.425	0.61	610.5	incongruent	Block3	incongruent/STIM_028.jpg	100
2817.208	0.933	932.9	incongruent	Block3	incongruent/STIM_028.jpg	100
2822.159	0.534	533.9	incongruent	Block3	incongruent/STIM_028.jpg	100
2826.563	0.741	741.0	incongruent	Block3	incongruent/STIM_028.jpg	99
2830.689	0.632	632.0	incongruent	Block3	incongruent/STIM_028.jpg	100
2834.204	0.774	774.3	incongruent	Block3	incongruent/STIM_029.jpg	100
2837.811	0.823	823.2	incongruent	Block3	incongruent/STIM_029.jpg	100
2840.756	0.666	665.5	incongruent	Block3	incongruent/STIM_029.jpg	100
2843.879	0.86	859.5	incongruent	Block3	incongruent/STIM_029.jpg	99
2847.149	0.615	615.2	incongruent	Block3	incongruent/STIM_029.jpg	100
2851.66	0.634	634.3	congruent	Block3	congruent/STIM_000.jpg	99
2854.708	0.778	777.8	congruent	Block3	congruent/STIM_000.jpg	100
2859.22	0.648	647.9	congruent	Block3	congruent/STIM_000.jpg	99
2861.992	0.529	529.4	congruent	Block3	congruent/STIM_000.jpg	99
2865.968	0.724	723.7	congruent	Block3	congruent/STIM_000.jpg	99
2869.932	0.696	695.8	congruent	Block3	congruent/STIM_001.jpg	100
2874.43	0.677	676.9	congruent	Block3	congruent/STIM_001.jpg	100
2878.147	0.682	682.3	congruent	Block3	congruent/STIM_001.jpg	100
2881.791	0.701	700.9	congruent	Block3	congruent/STIM_001.jpg	100
2886.484	0.704	704.1	congruent	Block3	congruent/STIM_001.jpg	99
2890.512	0.478	478.4	congruent	Block3	congruent/STIM_002.jpg	100
2893.071	0.473	472.9	congruent	Block3	congruent/STIM_002.jpg	100
2896.413	0.726	726.3	congruent	Block3	congruent/STIM_002.jpg	100
2899.847	0.642	642.5	congruent	Block3	congruent/STIM_002.jpg	99
2903.904	0.576	576.2	congruent	Block3	congruent/STIM_002.jpg	100
2906.948	0.533	532.7	congruent	Block3	congruent/STIM_003.jpg	100
2910.554	0.587	586.7	congruent	Block3	congruent/STIM_003.jpg	99
2914.103	0.727	727.4	congruent	Block3	congruent/STIM_003.jpg	99
2916.936	0.532	531.7	congruent	Block3	congruent/STIM_003.jpg	100
2919.984	0.773	773.0	congruent	Block3	congruent/STIM_003.jpg	99
2923.712	0.799	798.9	congruent	Block3	congruent/STIM_004.jpg	99
2928.317	0.674	674.3	congruent	Block3	congruent/STIM_004.jpg	99
2932.285	0.819	818.7	congruent	Block3	congruent/STIM_004.jpg	100
2936.144	0.469	468.9	congruent	Block3	congruent/STIM_004.jpg	100
2940.102	0.752	751.8	congruent	Block3	congruent/STIM_004.jpg	99
2943.195	0.684	684.1	congruent	Block3	congruent/STIM_005.jpg	99
2946.281	0.668	668.0	congruent	Block3	congruent/STIM_005.jpg	100
2949.731	0.693	693.2	congruent	Block3	congruent/STIM_005.jpg	99
2952.837	0.613	612.7	congruent	Block3	congruent/STIM_005.jpg	100
2956.612	0.508	508.0	congruent	Block3	congruent/STIM_005.jpg	100
2960.902	0.788	788.5	congruent	Block3	congruent/STIM_006.jpg	99
2965.603	0.803	803.2	congruent	Block3	congruent/STIM_006.jpg	99
2969.845	0.468	467.7	congruent	Block3	congruent/STIM_006.jpg	100
2972.591	0.756	756.2	congruent	Block3	congruent/STIM_006.jpg	99
2977.234	0.795	794.6	congruent	Block3	congruent/STIM_006.jpg	99
2981.835	0.508	508.2	congruent	Block3	congruent/STIM_007.jpg	99
2984.729	0.629	628.6	congruent	Block3	congruent/STIM_007.jpg	99
2989.394	0.771	771.1	congruent	Block3	congruent/STIM_007.jpg	100
2993.622	0.77	770.4	congruent	Block3	congruent/STIM_007.jpg	100
2997.507	0.608	607.5	congruent	Block3	congruent/STIM_007.jpg	100
3001.688	0.592	592.3	congruent	Block3	congruent/STIM_008.jpg	100
3005.398	0.759	759.0	congruent	Block3	congruent/STIM_008.jpg	99
3009.266	0.632	631.9	congruent	Block3	congruent/STIM_008.jpg	100
3012.818	0.541	541.2	congruent	Block3	congruent/STIM_008.jpg	99
3016.723	0.763	763.1	congruent	Block3	congruent/STIM_008.jpg	99
3020.954	0.667	666.6	congruent	Block3	congruent/STIM_009.jpg	99
3024.627	0.616	616.3	congruent	Block3	congruent/STIM_009.jpg	100
3028.313	0.524	524.2	congruent	Block3	congruent/STIM_009.jpg	99
3031.496	0.787	787.1	congruent	Block3	congruent/STIM_009.jpg	99
3034.551	0.586	585.7	congruent	Block3	congruent/STIM_009.jpg	100
3038.926	0.499	499.3	congruent	Block3	congruent/STIM_010.jpg	99
3042.688	0.735	734.8	congruent	Block3	congruent/STIM_010.jpg	100
3045.835	0.547	547.4	congruent	Block3	congruent/STIM_010.jpg	100
3049.359	0.582	581.6	congruent	Block3	congruent/STIM_010.jpg	100
3053.756	0.734	734.2	congruent	Block3	congruent/STIM_010.jpg	99
3056.79	0.525	525.0	congruent	Block3	congruent/STIM_011.jpg	100
3061.228	0.506	505.9	congruent	Block3	congruent/STIM_011.jpg	100
3064.8	0.551	551.1	congruent	Block3	congruent/STIM_011.jpg	100
3068.57	0.788	788.3	congruent	Block3	congruent/STIM_011.jpg	100
3073.203	0.788	788.4	congruent	Block3	congruent/STIM_011.jpg	99
3077.87	0.814	814.3	congruent	Block3	congruent/STIM_012.jpg	99
3082.036	0.782	782.4	congruent	Block3	congruent/STIM_012.jpg	99
3086.08	0.503	503.5	congruent	Block3	congruent/STIM_012.jpg	100
3088.674	0.674	674.5	congruent	Block3	congruent/STIM_012.jpg	99
3093.369	0.794	794.3	congruent	Block3	congruent/STIM_012.jpg	100
3096.934	0.779	778.7	congruent	Block3	congruent/STIM_013.jpg	100
3100.649	0.579	578.9	congruent	Block3	congruent/STIM_013.jpg	100
3104.079	0.536	536.0	congruent	Block3	congruent/STIM_013.jpg	99
3107.79	0.574	573.7	congruent	Block3	congruent/STIM_013.jpg	99
3111.671	0.54	539.9	congruent	Block3	congruent/STIM_013.jpg	100
3114.67	0.813	813.1	congruent	Block3	congruent/STIM_014.jpg	99
3119.115	0.602	602.3	congruent	Block3	congruent/STIM_014.jpg	99
3122.794	0.649	648.8	congruent	Block3	congruent/STIM_014.jpg	100
3126.623	0.82	819.9	congruent	Block3	congruent/STIM_014.jpg	100
3129.743	0.592	591.8	congruent	Block3	congruent/STIM_014.jpg	99
3132.962	0.808	808.2	congruent	Block3	congruent/STIM_015.jpg	99
3135.885	0.781	781.0	congruent	Block3	congruent/STIM_015.jpg	99
3139.249	0.659	659.4	congruent	Block3	congruent/STIM_015.jpg	100
3142.98	0.705	705.2	congruent	Block3	congruent/STIM_015.jpg	100
3147.626	0.79	790.3	congruent	Block3	congruent/STIM_015.jpg	100
3151.424	0.624	624.5	congruent	Block3	congruent/STIM_016.jpg	100
3156.104	0.66	660.4	congruent	Block3	congruent/STIM_016.jpg	100
3160.648	0.588	588.4	congruent	Block3	congruent/STIM_016.jpg	100
3164.322	0.652	651.5	congruent	Block3	congruent/STIM_016.jpg	99
3168.253	0.457	457.1	congruent	Block3	congruent/STIM_016.jpg	99
3171.387	0.753	753.1	congruent	Block3	congruent/STIM_017.jpg	100
3174.518	0.656	656.3	congruent	Block3	congruent/STIM_017.jpg	100
3178.022	0.591	590.7	congruent	Block3	congruent/STIM_017.jpg	100
3182.551	0.744	743.7	congruent	Block3	congruent/STIM_017.jpg	100
3187.214	0.713	712.6	congruent	Block3	congruent/STIM_017.jpg	100
3190.783	0.482	482.0	congruent	Block3	congruent/STIM_018.jpg	100
3194.078	0.756	755.6	congruent	Block3	congruent/STIM_018.jpg	99
3197.874	0.768	767.6	congruent	Block3	congruent/STIM_018.jpg	99
3201.488	0.693	692.7	congruent	Block3	congruent/STIM_018.jpg	99
3205.119	0.595	594.8	congruent	Block3	congruent/STIM_018.jpg	100
3208.053	0.788	787.6	congruent	Block3	congruent/STIM_019.jpg	100
3212.379	0.693	693.2	congruent	Block3	congruent/STIM_019.jpg	99
3216.447	0.515	515.4	congruent	Block3	congruent/STIM_019.jpg	99
3220.175	0.73	729.5	congruent	Block3	congruent/STIM_019.jpg	99
3224.498	0.788	788.3	congruent	Block3	congruent/STIM_019.jpg	99
3228.824	0.528	528.3	congruent	Block3	congruent/STIM_020.jpg	100
3232.292	0.463	463.4	congruent	Block3	congruent/STIM_020.jpg	100
3236.151	0.755	755.0	congruent	Block3	congruent/STIM_020.jpg	99
3240.569	0.561	561.3	congruent	Block3	congruent/STIM_020.jpg	99
3244.266	0.46	460.2	congruent	Block3	congruent/STIM_020.jpg	99
3246.826	0.5	499.6	congruent	Block3	congruent/STIM_021.jpg	100
3249.555	0.662	662.3	congruent	Block3	congruent/STIM_021.jpg	100
3254.055	0.552	551.7	congruent	Block3	congruent/STIM_021.jpg	100
3258.617	0.717	717.0	congruent	Block3	congruent/STIM_021.jpg	100
3262.416	0.589	588.8	congruent	Block3	congruent/STIM_021.jpg	100
3266.454	0.505	505.1	congruent	Block3	congruent/STIM_022.jpg	99
3270.247	0.674	674.3	congruent	Block3	congruent/STIM_022.jpg	99
3274.148	0.629	629.3	congruent	Block3	congruent/STIM_022.jpg	99
3277.486	0.758	758.5	congruent	Block3	congruent/STIM_022.jpg	100
3280.593	0.778	777.5	congruent	Block3	congruent/STIM_022.jpg	100
3284.124	0.726	726.0	congruent	Block3	congruent/STIM_023.jpg	99
3288.916	0.745	745.2	congruent	Block3	congruent/STIM_023.jpg	100
3292.097	0.493	492.8	congruent	Block3	congruent/STIM_023.jpg	100
3296.385	0.487	486.9	congruent	Block3	congruent/STIM_023.jpg	99
3300.399	0.696	695.9	congruent	Block3	congruent/STIM_023.jpg	100
3304.243	0.655	655.4	congruent	Block3	congruent/STIM_024.jpg	100
3306.962	0.492	492.3	congruent	Block3	congruent/STIM_024.jpg	100
3309.741	0.527	527.3	congruent	Block3	congruent/STIM_024.jpg	100
3314.092	0.474	473.5	congruent	Block3	congruent/STIM_024.jpg	100
3317.823	0.82	819.6	congruent	Block3	congruent/STIM_024.jpg	100
3320.735	0.689	689.3	congruent	Block3	congruent/STIM_025.jpg	100
3325.344	0.47	470.2	congruent	Block3	congruent/STIM_025.jpg	99
3327.919	0.682	682.1	congruent	Block3	congruent/STIM_025.jpg	100
3330.695	0.761	760.8	congruent	Block3	congruent/STIM_025.jpg	99
3334.753	0.787	787.4	congruent	Block3	congruent/STIM_025.jpg	100
3338.279	0.706	706.5	congruent	Block3	congruent/STIM_026.jpg	100
3341.938	0.816	816.0	congruent	Block3	congruent/STIM_026.jpg	100
3345.603	0.661	660.8	congruent	Block3	congruent/STIM_026.jpg	100
3349.07	0.505	505.5	congruent	Block3	congruent/STIM_026.jpg	100
3352.958	0.698	697.7	congruent	Block3	congruent/STIM_026.jpg	100
3357.338	0.732	731.6	congruent	Block3	congruent/STIM_027.jpg	100
3360.723	0.48	479.6	congruent	Block3	congruent/STIM_027.jpg	100
3363.787	0.655	654.6	congruent	Block3	congruent/STIM_027.jpg	100
3367.43	0.534	533.7	congruent	Block3	congruent/STIM_027.jpg	99
3370.04	0.655	655.3	congruent	Block3	congruent/STIM_027.jpg	99
3372.924	0.71	710.5	congruent	Block3	congruent/STIM_028.jpg	99
3376.364	0.683	683.4	congruent	Block3	congruent/STIM_028.jpg	100
3380.136	0.7	700.2	congruent	Block3	congruent/STIM_028.jpg	100
3383.769	0.487	486.8	congruent	Block3	congruent/STIM_028.jpg	99
3387.876	0.613	613.1	congruent	Block3	congruent/STIM_028.jpg	99
3390.998	0.571	571.1	congruent	Block3	congruent/STIM_029.jpg	99
3395.491	0.653	652.6	congruent	Block3	congruent/STIM_029.jpg	99
3399.505	0.554	553.5	congruent	Block3	congruent/STIM_029.jpg	100
3403.163	0.65	650.0	congruent	Block3	congruent/STIM_029.jpg	99
3406.878	0.555	555.3	congruent	Block3	congruent/STIM_029.jpg	100
