onset	duration	accuracy_binary	trial_type	learning_stage	stimulus	coherence
0.000	7.223	1	learning	LS1	PICTURE_610.jpg	i
7.223	5.859	1	learning	LS1	PICTURE_741.jpg	c
13.082	11.694	1	learning	LS1	PICTURE_247.jpg	c
24.776	6.173	1	learning	LS1	PICTURE_599.jpg	i
30.949	8.336	1	learning	LS1	PICTURE_741.jpg	i
39.285	9.378	1	learning	LS1	PICTURE_599.jpg	c
48.663	11.374	0	learning	LS1	PICTURE_43.jpg	c
60.037	7.459	1	learning	LS1	PICTURE_247.jpg	i
67.496	8.161	1	learning	LS1	PICTURE_610.jpg	c
75.657	11.104	1	learning	LS1	PICTURE_43.jpg	i
86.761	8.385	1	learning	LS2	PICTURE_741.jpg	i
95.146	7.809	1	learning	LS2	PICTURE_599.jpg	i
102.955	8.359	1	learning	LS2	PICTURE_43.jpg	i
111.314	6.510	1	learning	LS2	PICTURE_610.jpg	c
117.824	7.060	1	learning	LS2	PICTURE_43.jpg	c
124.884	6.496	1	learning	LS2	PICTURE_610.jpg	i
131.380	8.012	1	learning	LS2	PICTURE_741.jpg	c
139.392	8.088	1	learning	LS2	PICTURE_247.jpg	c
147.480	7.844	1	learning	LS2	PICTURE_599.jpg	c
155.324	6.960	1	learning	LS2	PICTURE_247.jpg	i
162.284	7.620	1	learning	LS3	PICTURE_247.jpg	i
169.904	8.177	1	learning	LS3	PICTURE_599.jpg	i
178.081	9.860	1	learning	LS3	PICTURE_610.jpg	c
187.941	8.184	1	learning	LS3	PICTURE_43.jpg	c
196.125	7.948	1	learning	LS3	PICTURE_610.jpg	i
204.073	6.270	1	learning	LS3	PICTURE_599.jpg	c
210.343	6.514	1	learning	LS3	PICTURE_741.jpg	c
216.857	6.276	1	learning	LS3	PICTURE_43.jpg	i
223.133	7.159	1	learning	LS3	PICTURE_741.jpg	i
230.292	7.402	1	learning	LS3	PICTURE_247.jpg	c
237.694	6.615	1	learning	LS4	PICTURE_247.jpg	c
244.309	6.678	1	learning	LS4	PICTURE_741.jpg	c
250.987	8.181	1	learning	LS4	PICTURE_610.jpg	c
259.168	8.084	1	learning	LS4	PICTURE_599.jpg	i
267.252	8.308	1	learning	LS4	PICTURE_610.jpg	i
275.560	6.458	1	learning	LS4	PICTURE_741.jpg	i
282.018	7.808	1	learning	LS4	PICTURE_43.jpg	i
289.826	6.125	1	learning	LS4	PICTURE_247.jpg	i
295.951	7.481	1	learning	LS4	PICTURE_43.jpg	c
303.432	8.679	1	learning	LS4	PICTURE_599.jpg	c
312.111	8.307	1	learning	LS1	PICTURE_400.jpg	i
320.418	6.144	0	learning	LS1	PICTURE_462.jpg	i
326.562	7.022	1	learning	LS1	PICTURE_402.jpg	c
333.584	8.058	0	learning	LS1	PICTURE_405.jpg	i
341.642	6.855	0	learning	LS1	PICTURE_21.jpg	i
348.497	9.817	1	learning	LS1	PICTURE_462.jpg	c
358.314	12.299	0	learning	LS1	PICTURE_405.jpg	c
370.613	10.303	1	learning	LS1	PICTURE_400.jpg	c
380.916	8.948	1	learning	LS1	PICTURE_21.jpg	c
389.864	8.531	1	learning	LS1	PICTURE_402.jpg	i
398.395	11.244	0	learning	LS2	PICTURE_462.jpg	i
409.639	7.148	1	learning	LS2	PICTURE_400.jpg	c
416.787	7.052	1	learning	LS2	PICTURE_402.jpg	i
423.839	9.361	0	learning	LS2	PICTURE_405.jpg	i
433.200	8.791	0	learning	LS2	PICTURE_21.jpg	i
441.991	12.540	1	learning	LS2	PICTURE_405.jpg	c
454.531	8.459	1	learning	LS2	PICTURE_462.jpg	c
462.990	7.256	1	learning	LS2	PICTURE_402.jpg	c
470.246	7.973	1	learning	LS2	PICTURE_400.jpg	i
478.219	9.169	1	learning	LS2	PICTURE_21.jpg	c
487.388	7.590	1	learning	LS3	PICTURE_462.jpg	c
494.978	7.187	1	learning	LS3	PICTURE_402.jpg	c
502.165	6.784	1	learning	LS3	PICTURE_21.jpg	i
508.949	7.187	1	learning	LS3	PICTURE_462.jpg	i
516.136	7.590	1	learning	LS3	PICTURE_400.jpg	i
523.726	7.514	1	learning	LS3	PICTURE_405.jpg	i
531.240	7.118	1	learning	LS3	PICTURE_21.jpg	c
538.358	6.722	1	learning	LS3	PICTURE_402.jpg	i
545.080	9.046	1	learning	LS3	PICTURE_405.jpg	c
554.126	8.009	1	learning	LS3	PICTURE_400.jpg	c
562.135	7.711	1	learning	LS4	PICTURE_405.jpg	c
569.846	6.813	1	learning	LS4	PICTURE_21.jpg	i
576.659	8.316	1	learning	LS4	PICTURE_462.jpg	i
584.975	7.100	1	learning	LS4	PICTURE_400.jpg	c
592.075	7.163	1	learning	LS4	PICTURE_21.jpg	c
599.238	7.386	1	learning	LS4	PICTURE_400.jpg	i
606.624	6.976	1	learning	LS4	PICTURE_405.jpg	i
613.600	7.206	1	learning	LS4	PICTURE_402.jpg	i
620.806	9.355	1	learning	LS4	PICTURE_462.jpg	c
630.161	7.191	1	learning	LS4	PICTURE_402.jpg	c
637.352	14.170	1	control	LS1	PICTURE_718.jpg	i
651.522	8.010	1	control	LS1	PICTURE_292.jpg	c
659.532	6.807	1	control	LS1	PICTURE_2.jpg	c
666.339	6.724	1	control	LS1	PICTURE_430.jpg	c
673.063	7.287	1	control	LS1	PICTURE_292.jpg	i
680.350	8.164	1	control	LS1	PICTURE_286.jpg	i
688.514	6.968	1	control	LS1	PICTURE_2.jpg	i
695.482	7.051	1	control	LS1	PICTURE_718.jpg	c
702.533	7.122	1	control	LS1	PICTURE_430.jpg	i
709.655	7.365	1	control	LS1	PICTURE_286.jpg	c
717.020	7.219	1	control	LS2	PICTURE_718.jpg	c
724.239	7.602	1	control	LS2	PICTURE_292.jpg	i
731.841	8.144	1	control	LS2	PICTURE_286.jpg	i
739.985	9.646	1	control	LS2	PICTURE_430.jpg	i
749.631	6.998	1	control	LS2	PICTURE_2.jpg	i
756.629	6.748	1	control	LS2	PICTURE_286.jpg	c
763.377	21.213	1	control	LS2	PICTURE_292.jpg	c
784.590	6.735	1	control	LS2	PICTURE_718.jpg	i
791.325	5.853	1	control	LS2	PICTURE_2.jpg	c
797.178	6.409	1	control	LS2	PICTURE_430.jpg	c
803.587	8.350	1	control	LS3	PICTURE_731.jpg	c
811.937	6.827	1	control	LS3	PICTURE_733.jpg	i
818.764	7.543	1	control	LS3	PICTURE_645.jpg	i
826.307	7.141	1	control	LS3	PICTURE_731.jpg	i
833.448	12.175	1	control	LS3	PICTURE_98.jpg	c
845.623	7.140	1	control	LS3	PICTURE_645.jpg	c
852.763	6.743	1	control	LS3	PICTURE_98.jpg	i
859.506	7.300	1	control	LS3	PICTURE_134.jpg	i
866.806	6.583	1	control	LS3	PICTURE_733.jpg	c
873.389	n/a	n/a	control	LS3	PICTURE_134.jpg	c
898.389	6.847	1	control	LS4	PICTURE_134.jpg	c
905.236	6.291	1	control	LS4	PICTURE_645.jpg	c
911.527	6.994	1	control	LS4	PICTURE_134.jpg	i
918.521	6.737	1	control	LS4	PICTURE_98.jpg	i
925.258	5.681	1	control	LS4	PICTURE_733.jpg	c
930.939	8.143	1	control	LS4	PICTURE_731.jpg	i
939.082	7.246	1	control	LS4	PICTURE_733.jpg	i
946.328	8.756	1	control	LS4	PICTURE_731.jpg	c
955.084	5.787	1	control	LS4	PICTURE_98.jpg	c
960.871	6.656	1	control	LS4	PICTURE_645.jpg	i
967.527	8.836	1	learning	LS1	PICTURE_488.jpg	c
976.363	6.193	0	learning	LS1	PICTURE_480.jpg	c
982.556	6.110	0	learning	LS1	PICTURE_508.jpg	c
988.666	10.825	1	learning	LS1	PICTURE_15.jpg	i
999.491	12.347	0	learning	LS1	PICTURE_480.jpg	i
1011.838	7.306	1	learning	LS1	PICTURE_95.jpg	c
1019.144	7.869	1	learning	LS1	PICTURE_488.jpg	i
1027.013	10.832	1	learning	LS1	PICTURE_15.jpg	c
1037.845	8.676	0	learning	LS1	PICTURE_508.jpg	i
1046.521	9.879	0	learning	LS1	PICTURE_95.jpg	i
1056.400	7.813	1	learning	LS2	PICTURE_480.jpg	i
1064.213	8.036	1	learning	LS2	PICTURE_488.jpg	i
1072.249	8.099	1	learning	LS2	PICTURE_508.jpg	i
1080.348	11.522	1	learning	LS2	PICTURE_15.jpg	i
1091.870	10.145	1	learning	LS2	PICTURE_95.jpg	c
1102.015	7.490	1	learning	LS2	PICTURE_508.jpg	c
1109.505	10.119	1	learning	LS2	PICTURE_15.jpg	c
1119.624	6.510	1	learning	LS2	PICTURE_488.jpg	c
1126.134	13.944	0	learning	LS2	PICTURE_95.jpg	i
1140.078	8.103	1	learning	LS2	PICTURE_480.jpg	c
1148.181	11.482	1	learning	LS3	PICTURE_95.jpg	c
1159.663	6.600	1	learning	LS3	PICTURE_480.jpg	i
1166.263	9.077	1	learning	LS3	PICTURE_508.jpg	c
1175.340	7.074	1	learning	LS3	PICTURE_488.jpg	c
1182.414	7.149	1	learning	LS3	PICTURE_95.jpg	i
1189.563	7.393	1	learning	LS3	PICTURE_480.jpg	c
1196.956	7.317	1	learning	LS3	PICTURE_15.jpg	i
1204.273	6.920	1	learning	LS3	PICTURE_508.jpg	i
1211.193	6.843	1	learning	LS3	PICTURE_488.jpg	i
1218.036	7.247	1	learning	LS3	PICTURE_15.jpg	c
1225.283	7.267	1	learning	LS4	PICTURE_508.jpg	c
1232.550	6.231	1	learning	LS4	PICTURE_480.jpg	i
1238.781	8.554	1	learning	LS4	PICTURE_15.jpg	i
1247.335	6.698	1	learning	LS4	PICTURE_480.jpg	c
1254.033	7.241	1	learning	LS4	PICTURE_95.jpg	i
1261.274	6.824	1	learning	LS4	PICTURE_508.jpg	i
1268.098	7.687	1	learning	LS4	PICTURE_15.jpg	c
1275.785	6.631	1	learning	LS4	PICTURE_488.jpg	i
1282.416	7.501	1	learning	LS4	PICTURE_95.jpg	c
1289.917	6.132	1	learning	LS4	PICTURE_488.jpg	c
1296.049	11.505	1	control	LS1	PICTURE_485.jpg	i
1307.554	7.743	1	control	LS1	PICTURE_549.jpg	c
1315.297	6.700	1	control	LS1	PICTURE_418.jpg	c
1321.997	7.896	1	control	LS1	PICTURE_350.jpg	c
1329.893	6.374	1	control	LS1	PICTURE_498.jpg	c
1336.267	6.617	1	control	LS1	PICTURE_350.jpg	i
1342.884	6.540	1	control	LS1	PICTURE_485.jpg	c
1349.424	6.944	1	control	LS1	PICTURE_418.jpg	i
1356.368	7.827	1	control	LS1	PICTURE_498.jpg	i
1364.195	7.430	1	control	LS1	PICTURE_549.jpg	i
1371.625	6.972	1	control	LS2	PICTURE_350.jpg	c
1378.597	5.929	1	control	LS2	PICTURE_418.jpg	c
1384.526	6.632	1	control	LS2	PICTURE_549.jpg	c
1391.158	6.376	1	control	LS2	PICTURE_498.jpg	i
1397.534	6.439	1	control	LS2	PICTURE_485.jpg	c
1403.973	7.142	1	control	LS2	PICTURE_498.jpg	c
1411.115	6.245	1	control	LS2	PICTURE_350.jpg	i
1417.360	6.316	1	control	LS2	PICTURE_485.jpg	i
1423.676	7.026	1	control	LS2	PICTURE_549.jpg	i
1430.702	6.463	1	control	LS2	PICTURE_418.jpg	i
1437.165	6.483	1	control	LS3	PICTURE_314.jpg	i
1443.648	6.719	1	control	LS3	PICTURE_476.jpg	i
1450.367	7.116	1	control	LS3	PICTURE_388.jpg	i
1457.483	6.712	1	control	LS3	PICTURE_663.jpg	i
1464.195	6.469	1	control	LS3	PICTURE_552.jpg	i
1470.664	8.146	1	control	LS3	PICTURE_663.jpg	c
1478.810	7.423	1	control	LS3	PICTURE_314.jpg	c
1486.233	6.234	1	control	LS3	PICTURE_476.jpg	c
1492.467	6.951	1	control	LS3	PICTURE_552.jpg	c
1499.418	5.594	1	control	LS3	PICTURE_388.jpg	c
1505.012	6.255	1	control	LS4	PICTURE_663.jpg	c
1511.267	6.979	1	control	LS4	PICTURE_388.jpg	i
1518.246	7.542	1	control	LS4	PICTURE_476.jpg	c
1525.788	7.786	1	control	LS4	PICTURE_552.jpg	c
1533.574	5.771	1	control	LS4	PICTURE_314.jpg	c
1539.345	8.713	1	control	LS4	PICTURE_663.jpg	i
1548.058	6.698	1	control	LS4	PICTURE_388.jpg	c
1554.756	7.401	1	control	LS4	PICTURE_476.jpg	i
1562.157	6.984	1	control	LS4	PICTURE_552.jpg	i
1569.141	6.254	1	control	LS4	PICTURE_314.jpg	i
1575.395	3.949	1	learning	LS1	PICTURE_23.jpg	c
1579.344	6.106	1	learning	LS1	PICTURE_720.jpg	c
1585.450	7.621	1	learning	LS1	PICTURE_23.jpg	i
1593.071	8.497	0	learning	LS1	PICTURE_297.jpg	i
1601.568	6.814	0	learning	LS1	PICTURE_235.jpg	i
1608.382	6.731	1	learning	LS1	PICTURE_720.jpg	i
1615.113	8.254	0	learning	LS1	PICTURE_746.jpg	i
1623.367	8.658	1	learning	LS1	PICTURE_297.jpg	c
1632.025	9.701	1	learning	LS1	PICTURE_235.jpg	c
1641.726	11.544	1	learning	LS1	PICTURE_746.jpg	c
1653.270	7.726	1	learning	LS2	PICTURE_746.jpg	c
1660.996	6.849	1	learning	LS2	PICTURE_297.jpg	c
1667.845	7.093	1	learning	LS2	PICTURE_235.jpg	i
1674.938	8.596	1	learning	LS2	PICTURE_23.jpg	i
1683.534	7.700	1	learning	LS2	PICTURE_720.jpg	i
1691.234	6.804	1	learning	LS2	PICTURE_23.jpg	c
1698.038	11.825	0	learning	LS2	PICTURE_297.jpg	i
1709.863	6.770	1	learning	LS2	PICTURE_235.jpg	c
1716.633	11.799	1	learning	LS2	PICTURE_746.jpg	i
1728.432	6.751	1	learning	LS2	PICTURE_720.jpg	c
1735.183	7.234	1	learning	LS3	PICTURE_235.jpg	i
1742.417	7.150	1	learning	LS3	PICTURE_746.jpg	c
1749.567	6.748	1	learning	LS3	PICTURE_297.jpg	i
1756.315	6.345	1	learning	LS3	PICTURE_720.jpg	i
1762.660	7.541	1	learning	LS3	PICTURE_297.jpg	c
1770.201	8.578	1	learning	LS3	PICTURE_23.jpg	c
1778.779	8.013	1	learning	LS3	PICTURE_720.jpg	c
1786.792	6.810	1	learning	LS3	PICTURE_235.jpg	c
1793.602	6.254	1	learning	LS3	PICTURE_746.jpg	i
1799.856	7.777	1	learning	LS3	PICTURE_23.jpg	i
1807.633	7.319	1	learning	LS4	PICTURE_23.jpg	i
1814.952	6.123	1	learning	LS4	PICTURE_720.jpg	i
1821.075	6.847	1	learning	LS4	PICTURE_297.jpg	c
1827.922	8.690	1	learning	LS4	PICTURE_235.jpg	i
1836.612	6.854	1	learning	LS4	PICTURE_720.jpg	c
1843.466	9.164	0	learning	LS4	PICTURE_746.jpg	i
1852.630	6.349	1	learning	LS4	PICTURE_235.jpg	c
1858.979	8.012	1	learning	LS4	PICTURE_746.jpg	c
1866.991	7.916	1	learning	LS4	PICTURE_23.jpg	c
1874.907	7.019	1	learning	LS4	PICTURE_297.jpg	i
1881.926	5.355	0	learning	LS1	PICTURE_52.jpg	i
1887.281	7.351	0	learning	LS1	PICTURE_594.jpg	i
1894.632	8.227	1	learning	LS1	PICTURE_52.jpg	c
1902.859	8.943	1	learning	LS1	PICTURE_605.jpg	c
1911.802	8.381	1	learning	LS1	PICTURE_581.jpg	c
1920.183	7.338	1	learning	LS1	PICTURE_605.jpg	i
1927.521	7.735	1	learning	LS1	PICTURE_576.jpg	c
1935.256	9.411	1	learning	LS1	PICTURE_581.jpg	i
1944.667	10.294	1	learning	LS1	PICTURE_594.jpg	c
1954.961	15.176	0	learning	LS1	PICTURE_576.jpg	i
1970.137	12.158	1	learning	LS2	PICTURE_52.jpg	i
1982.295	7.443	1	learning	LS2	PICTURE_576.jpg	i
1989.738	7.207	1	learning	LS2	PICTURE_52.jpg	c
1996.945	11.929	0	learning	LS2	PICTURE_581.jpg	i
2008.874	7.194	1	learning	LS2	PICTURE_594.jpg	i
2016.068	7.258	1	learning	LS2	PICTURE_605.jpg	c
2023.326	7.001	1	learning	LS2	PICTURE_576.jpg	c
2030.327	n/a	n/a	learning	LS2	PICTURE_594.jpg	c
2055.327	7.128	1	learning	LS2	PICTURE_605.jpg	i
2062.455	9.278	1	learning	LS2	PICTURE_581.jpg	c
2071.733	7.213	1	learning	LS3	PICTURE_594.jpg	c
2078.946	7.450	1	learning	LS3	PICTURE_576.jpg	i
2086.396	6.727	1	learning	LS3	PICTURE_605.jpg	c
2093.123	6.639	1	learning	LS3	PICTURE_594.jpg	i
2099.762	6.871	1	learning	LS3	PICTURE_52.jpg	c
2106.633	6.788	1	learning	LS3	PICTURE_581.jpg	c
2113.421	6.705	1	learning	LS3	PICTURE_605.jpg	i
2120.126	8.062	1	learning	LS3	PICTURE_576.jpg	c
2128.188	7.019	1	learning	LS3	PICTURE_52.jpg	i
2135.207	8.375	1	learning	LS3	PICTURE_581.jpg	i
2143.582	7.116	1	learning	LS4	PICTURE_581.jpg	c
2150.698	6.719	1	learning	LS4	PICTURE_594.jpg	i
2157.417	7.123	1	learning	LS4	PICTURE_52.jpg	i
2164.540	7.686	1	learning	LS4	PICTURE_594.jpg	c
2172.226	6.330	1	learning	LS4	PICTURE_605.jpg	i
2178.556	6.733	1	learning	LS4	PICTURE_576.jpg	i
2185.289	6.970	1	learning	LS4	PICTURE_605.jpg	c
2192.259	7.833	1	learning	LS4	PICTURE_581.jpg	i
2200.092	7.417	1	learning	LS4	PICTURE_52.jpg	c
2207.509	7.000	1	learning	LS4	PICTURE_576.jpg	c
2214.509	8.913	1	learning	LS1	PICTURE_695.jpg	i
2223.422	6.744	1	learning	LS1	PICTURE_220.jpg	c
2230.166	7.774	0	learning	LS1	PICTURE_216.jpg	i
2237.940	15.521	1	learning	LS1	PICTURE_695.jpg	c
2253.461	7.600	1	learning	LS1	PICTURE_216.jpg	c
2261.061	7.038	1	learning	LS1	PICTURE_220.jpg	i
2268.099	8.394	0	learning	LS1	PICTURE_703.jpg	i
2276.493	7.031	0	learning	LS1	PICTURE_53.jpg	i
2283.524	8.227	1	learning	LS1	PICTURE_703.jpg	c
2291.751	5.586	1	learning	LS1	PICTURE_53.jpg	c
2297.337	7.685	1	learning	LS2	PICTURE_703.jpg	c
2305.022	5.361	1	learning	LS2	PICTURE_53.jpg	c
2310.383	7.524	1	learning	LS2	PICTURE_220.jpg	i
2317.907	8.248	1	learning	LS2	PICTURE_703.jpg	i
2326.155	7.372	1	learning	LS2	PICTURE_216.jpg	i
2333.527	6.816	1	learning	LS2	PICTURE_695.jpg	c
2340.343	6.740	1	learning	LS2	PICTURE_216.jpg	c
2347.083	6.984	1	learning	LS2	PICTURE_220.jpg	c
2354.067	7.228	1	learning	LS2	PICTURE_53.jpg	i
2361.295	7.291	1	learning	LS2	PICTURE_695.jpg	i
2368.586	6.484	1	learning	LS3	PICTURE_53.jpg	c
2375.070	6.707	1	learning	LS3	PICTURE_216.jpg	c
2381.777	7.890	1	learning	LS3	PICTURE_695.jpg	c
2389.667	7.319	1	learning	LS3	PICTURE_220.jpg	c
2396.986	6.269	1	learning	LS3	PICTURE_53.jpg	i
2403.255	6.180	1	learning	LS3	PICTURE_216.jpg	i
2409.435	7.377	1	learning	LS3	PICTURE_703.jpg	c
2416.812	6.174	1	learning	LS3	PICTURE_695.jpg	i
2422.986	7.050	1	learning	LS3	PICTURE_703.jpg	i
2430.036	6.807	1	learning	LS3	PICTURE_220.jpg	i
2436.843	7.308	1	learning	LS4	PICTURE_216.jpg	i
2444.151	6.425	1	learning	LS4	PICTURE_220.jpg	i
2450.576	6.342	1	learning	LS4	PICTURE_53.jpg	c
2456.918	6.098	1	learning	LS4	PICTURE_695.jpg	i
2463.016	7.295	1	learning	LS4	PICTURE_53.jpg	i
2470.311	7.372	1	learning	LS4	PICTURE_220.jpg	c
2477.683	7.936	1	learning	LS4	PICTURE_703.jpg	c
2485.619	6.580	1	learning	LS4	PICTURE_695.jpg	c
2492.199	6.664	1	learning	LS4	PICTURE_216.jpg	c
2498.863	6.107	1	learning	LS4	PICTURE_703.jpg	i
