onset	duration	accuracy	trial_type	learning_stage	stimulus
0.0	3.201	incorrect	generate	Run1	generate/STIM_000.jpg
6.509	3.109	incorrect	generate	Run1	generate/STIM_000.jpg
12.241	2.926	correct	generate	Run1	generate/STIM_000.jpg
17.506	2.193	correct	generate	Run1	generate/STIM_000.jpg
22.124	1.328	correct	generate	Run1	generate/STIM_000.jpg
26.372	1.908	incorrect	generate	Run1	generate/STIM_001.jpg
30.261	2.602	correct	generate	Run1	generate/STIM_001.jpg
36.612	2.394	correct	generate	Run1	generate/STIM_001.jpg
42.057	2.116	correct	generate	Run1	generate/STIM_001.jpg
46.791	2.076	correct	generate	Run1	generate/STIM_001.jpg
52.51	2.388	correct	generate	Run1	generate/STIM_002.jpg
58.154	1.296	incorrect	generate	Run1	generate/STIM_002.jpg
62.626	2.661	correct	generate	Run1	generate/STIM_002.jpg
67.894	2.456	incorrect	generate	Run1	generate/STIM_002.jpg
72.269	2.262	correct	generate	Run1	generate/STIM_002.jpg
77.285	2.07	correct	generate	Run1	generate/STIM_003.jpg
82.128	2.719	correct	generate	Run1	generate/STIM_003.jpg
88.366	2.015	correct	generate	Run1	generate/STIM_003.jpg
93.264	2.259	correct	generate	Run1	generate/STIM_003.jpg
98.087	1.532	correct	generate	Run1	generate/STIM_003.jpg
103.315	1.947	correct	generate	Run1	generate/STIM_004.jpg
108.069	2.428	incorrect	generate	Run1	generate/STIM_004.jpg
113.101	2.686	incorrect	generate	Run1	generate/STIM_004.jpg
119.01	1.209	incorrect	generate	Run1	generate/STIM_004.jpg
122.297	2.515	incorrect	generate	Run1	generate/STIM_004.jpg
128.346	2.287	correct	generate	Run1	generate/STIM_005.jpg
134.152	1.267	correct	generate	Run1	generate/STIM_005.jpg
138.284	2.926	correct	generate	Run1	generate/STIM_005.jpg
143.771	1.786	correct	generate	Run1	generate/STIM_005.jpg
148.966	1.941	correct	generate	Run1	generate/STIM_005.jpg
154.035	1.808	correct	generate	Run1	generate/STIM_006.jpg
158.892	1.327	correct	generate	Run1	generate/STIM_006.jpg
164.016	1.767	correct	generate	Run1	generate/STIM_006.jpg
167.633	2.759	correct	generate	Run1	generate/STIM_006.jpg
172.469	1.192	correct	generate	Run1	generate/STIM_006.jpg
176.785	2.232	correct	generate	Run1	generate/STIM_007.jpg
180.893	1.882	correct	generate	Run1	generate/STIM_007.jpg
185.049	2.293	correct	generate	Run1	generate/STIM_007.jpg
190.683	1.471	incorrect	generate	Run1	generate/STIM_007.jpg
194.249	2.469	correct	generate	Run1	generate/STIM_007.jpg
199.549	1.526	correct	generate	Run1	generate/STIM_008.jpg
204.548	1.346	incorrect	generate	Run1	generate/STIM_008.jpg
208.131	1.237	correct	generate	Run1	generate/STIM_008.jpg
211.402	2.132	correct	generate	Run1	generate/STIM_008.jpg
216.997	2.314	incorrect	generate	Run1	generate/STIM_008.jpg
221.198	2.923	correct	generate	Run1	generate/STIM_009.jpg
226.708	2.74	incorrect	generate	Run1	generate/STIM_009.jpg
232.261	1.322	correct	generate	Run1	generate/STIM_009.jpg
237.399	1.53	correct	generate	Run1	generate/STIM_009.jpg
242.71	1.956	incorrect	generate	Run1	generate/STIM_009.jpg
246.763	2.293	correct	generate	Run1	generate/STIM_010.jpg
252.287	1.444	correct	generate	Run1	generate/STIM_010.jpg
256.334	2.637	incorrect	generate	Run1	generate/STIM_010.jpg
261.724	1.341	correct	generate	Run1	generate/STIM_010.jpg
266.669	2.488	correct	generate	Run1	generate/STIM_010.jpg
272.737	2.195	correct	generate	Run1	generate/STIM_011.jpg
277.624	2.36	correct	generate	Run1	generate/STIM_011.jpg
282.756	1.506	incorrect	generate	Run1	generate/STIM_011.jpg
286.187	1.886	correct	generate	Run1	generate/STIM_011.jpg
290.325	1.523	correct	generate	Run1	generate/STIM_011.jpg
295.508	3.117	incorrect	generate	Run1	generate/STIM_012.jpg
300.666	3.04	correct	generate	Run1	generate/STIM_012.jpg
305.768	2.712	incorrect	generate	Run1	generate/STIM_012.jpg
312.219	1.902	correct	generate	Run1	generate/STIM_012.jpg
316.375	1.683	correct	generate	Run1	generate/STIM_012.jpg
321.809	2.411	correct	generate	Run1	generate/STIM_013.jpg
327.926	2.186	correct	generate	Run1	generate/STIM_013.jpg
333.253	2.929	correct	generate	Run1	generate/STIM_013.jpg
338.855	2.009	incorrect	generate	Run1	generate/STIM_013.jpg
344.163	1.102	correct	generate	Run1	generate/STIM_013.jpg
347.199	2.584	incorrect	generate	Run1	generate/STIM_014.jpg
353.012	2.792	correct	generate	Run1	generate/STIM_014.jpg
359.397	2.645	correct	generate	Run1	generate/STIM_014.jpg
363.819	1.419	correct	generate	Run1	generate/STIM_014.jpg
369.058	1.398	correct	generate	Run1	generate/STIM_014.jpg
372.572	1.452	correct	generate	Run1	generate/STIM_015.jpg
376.897	1.822	correct	generate	Run1	generate/STIM_015.jpg
382.509	1.278	correct	generate	Run1	generate/STIM_015.jpg
386.796	1.843	correct	generate	Run1	generate/STIM_015.jpg
391.401	2.505	correct	generate	Run1	generate/STIM_015.jpg
396.924	1.435	correct	generate	Run1	generate/STIM_016.jpg
400.27	1.281	correct	generate	Run1	generate/STIM_016.jpg
405.137	1.744	correct	generate	Run1	generate/STIM_016.jpg
409.632	2.193	incorrect	generate	Run1	generate/STIM_016.jpg
414.733	1.428	correct	generate	Run1	generate/STIM_016.jpg
418.371	2.557	correct	generate	Run1	generate/STIM_017.jpg
423.612	2.019	incorrect	generate	Run1	generate/STIM_017.jpg
427.593	2.488	correct	generate	Run1	generate/STIM_017.jpg
431.868	1.33	correct	generate	Run1	generate/STIM_017.jpg
435.496	1.097	correct	generate	Run1	generate/STIM_017.jpg
438.676	2.087	correct	generate	Run1	generate/STIM_018.jpg
443.278	2.704	correct	generate	Run1	generate/STIM_018.jpg
448.705	1.927	correct	generate	Run1	generate/STIM_018.jpg
452.993	1.189	correct	generate	Run1	generate/STIM_018.jpg
456.131	1.949	incorrect	generate	Run1	generate/STIM_018.jpg
461.557	1.377	correct	generate	Run1	generate/STIM_019.jpg
466.703	1.462	incorrect	generate	Run1	generate/STIM_019.jpg
471.326	1.59	incorrect	generate	Run1	generate/STIM_019.jpg
476.195	1.673	incorrect	generate	Run1	generate/STIM_019.jpg
481.686	2.649	correct	generate	Run1	generate/STIM_019.jpg
487.787	2.74	incorrect	generate	Run1	generate/STIM_020.jpg
492.853	2.465	correct	generate	Run1	generate/STIM_020.jpg
497.585	2.344	correct	generate	Run1	generate/STIM_020.jpg
503.132	1.184	incorrect	generate	Run1	generate/STIM_020.jpg
506.477	1.657	correct	generate	Run1	generate/STIM_020.jpg
511.427	1.463	correct	generate	Run1	generate/STIM_021.jpg
515.347	1.849	incorrect	generate	Run1	generate/STIM_021.jpg
519.092	1.694	correct	generate	Run1	generate/STIM_021.jpg
524.149	1.648	incorrect	generate	Run1	generate/STIM_021.jpg
529.496	2.01	incorrect	generate	Run1	generate/STIM_021.jpg
533.722	2.443	correct	generate	Run1	generate/STIM_022.jpg
539.731	2.442	incorrect	generate	Run1	generate/STIM_022.jpg
544.762	1.226	incorrect	generate	Run1	generate/STIM_022.jpg
548.729	2.522	incorrect	generate	Run1	generate/STIM_022.jpg
553.92	2.382	correct	generate	Run1	generate/STIM_022.jpg
559.646	2.465	correct	generate	Run1	generate/STIM_023.jpg
563.9	2.346	correct	generate	Run1	generate/STIM_023.jpg
568.474	1.487	correct	generate	Run1	generate/STIM_023.jpg
572.357	1.727	correct	generate	Run1	generate/STIM_023.jpg
577.404	1.679	correct	generate	Run1	generate/STIM_023.jpg
581.931	2.815	correct	generate	Run1	generate/STIM_024.jpg
587.208	1.588	correct	generate	Run1	generate/STIM_024.jpg
591.908	1.373	correct	generate	Run1	generate/STIM_024.jpg
596.428	2.141	correct	generate	Run1	generate/STIM_024.jpg
600.743	1.131	correct	generate	Run1	generate/STIM_024.jpg
604.481	1.027	correct	repeat	Run1	repeat/STIM_000.jpg
608.342	0.608	correct	repeat	Run1	repeat/STIM_000.jpg
611.751	0.922	correct	repeat	Run1	repeat/STIM_000.jpg
615.966	0.556	correct	repeat	Run1	repeat/STIM_000.jpg
619.09	0.961	correct	repeat	Run1	repeat/STIM_000.jpg
622.375	0.784	correct	repeat	Run1	repeat/STIM_001.jpg
626.996	0.99	correct	repeat	Run1	repeat/STIM_001.jpg
631.03	0.837	correct	repeat	Run1	repeat/STIM_001.jpg
635.485	1.099	correct	repeat	Run1	repeat/STIM_001.jpg
638.673	0.775	correct	repeat	Run1	repeat/STIM_001.jpg
643.065	1.05	correct	repeat	Run1	repeat/STIM_002.jpg
646.846	0.94	correct	repeat	Run1	repeat/STIM_002.jpg
650.49	0.646	correct	repeat	Run1	repeat/STIM_002.jpg
654.807	0.969	correct	repeat	Run1	repeat/STIM_002.jpg
657.721	0.854	correct	repeat	Run1	repeat/STIM_002.jpg
660.751	0.759	correct	repeat	Run1	repeat/STIM_003.jpg
663.629	0.866	correct	repeat	Run1	repeat/STIM_003.jpg
667.297	0.974	correct	repeat	Run1	repeat/STIM_003.jpg
670.285	0.855	correct	repeat	Run1	repeat/STIM_003.jpg
674.29	0.984	correct	repeat	Run1	repeat/STIM_003.jpg
678.83	0.668	correct	repeat	Run1	repeat/STIM_004.jpg
683.372	1.015	correct	repeat	Run1	repeat/STIM_004.jpg
687.63	0.776	correct	repeat	Run1	repeat/STIM_004.jpg
692.258	0.86	correct	repeat	Run1	repeat/STIM_004.jpg
695.715	0.908	correct	repeat	Run1	repeat/STIM_004.jpg
698.551	0.723	correct	repeat	Run1	repeat/STIM_005.jpg
701.836	0.962	correct	repeat	Run1	repeat/STIM_005.jpg
706.083	1.036	correct	repeat	Run1	repeat/STIM_005.jpg
710.111	1.084	correct	repeat	Run1	repeat/STIM_005.jpg
713.597	0.769	correct	repeat	Run1	repeat/STIM_005.jpg
717.252	1.083	correct	repeat	Run1	repeat/STIM_006.jpg
720.76	1.02	correct	repeat	Run1	repeat/STIM_006.jpg
724.482	0.946	correct	repeat	Run1	repeat/STIM_006.jpg
729.185	0.753	correct	repeat	Run1	repeat/STIM_006.jpg
733.651	0.974	correct	repeat	Run1	repeat/STIM_006.jpg
737.802	0.749	incorrect	repeat	Run1	repeat/STIM_007.jpg
741.527	0.637	correct	repeat	Run1	repeat/STIM_007.jpg
744.602	0.999	correct	repeat	Run1	repeat/STIM_007.jpg
748.575	1.084	correct	repeat	Run1	repeat/STIM_007.jpg
752.304	0.677	correct	repeat	Run1	repeat/STIM_007.jpg
754.957	0.904	correct	repeat	Run1	repeat/STIM_008.jpg
758.947	0.677	correct	repeat	Run1	repeat/STIM_008.jpg
762.429	1.037	correct	repeat	Run1	repeat/STIM_008.jpg
766.034	0.658	correct	repeat	Run1	repeat/STIM_008.jpg
770.581	0.767	correct	repeat	Run1	repeat/STIM_008.jpg
773.817	0.606	correct	repeat	Run1	repeat/STIM_009.jpg
777.35	0.888	correct	repeat	Run1	repeat/STIM_009.jpg
781.751	0.989	correct	repeat	Run1	repeat/STIM_009.jpg
785.49	0.996	correct	repeat	Run1	repeat/STIM_009.jpg
788.858	0.689	correct	repeat	Run1	repeat/STIM_009.jpg
793.317	0.973	correct	repeat	Run1	repeat/STIM_010.jpg
796.46	0.834	correct	repeat	Run1	repeat/STIM_010.jpg
799.749	0.669	correct	repeat	Run1	repeat/STIM_010.jpg
803.843	0.856	correct	repeat	Run1	repeat/STIM_010.jpg
808.047	0.923	correct	repeat	Run1	repeat/STIM_010.jpg
811.395	0.954	correct	repeat	Run1	repeat/STIM_011.jpg
816.093	0.599	correct	repeat	Run1	repeat/STIM_011.jpg
818.961	0.927	correct	repeat	Run1	repeat/STIM_011.jpg
823.042	0.648	correct	repeat	Run1	repeat/STIM_011.jpg
826.298	0.751	correct	repeat	Run1	repeat/STIM_011.jpg
829.245	0.914	correct	repeat	Run1	repeat/STIM_012.jpg
833.816	0.886	correct	repeat	Run1	repeat/STIM_012.jpg
837.097	1.017	correct	repeat	Run1	repeat/STIM_012.jpg
841.747	1.011	correct	repeat	Run1	repeat/STIM_012.jpg
845.091	0.961	correct	repeat	Run1	repeat/STIM_012.jpg
848.135	0.867	correct	repeat	Run1	repeat/STIM_013.jpg
852.161	0.58	correct	repeat	Run1	repeat/STIM_013.jpg
855.991	1.06	correct	repeat	Run1	repeat/STIM_013.jpg
860.095	0.636	correct	repeat	Run1	repeat/STIM_013.jpg
863.719	0.608	incorrect	repeat	Run1	repeat/STIM_013.jpg
866.405	0.722	correct	repeat	Run1	repeat/STIM_014.jpg
869.647	1.038	correct	repeat	Run1	repeat/STIM_014.jpg
873.302	0.773	correct	repeat	Run1	repeat/STIM_014.jpg
877.695	1.013	correct	repeat	Run1	repeat/STIM_014.jpg
881.09	1.034	correct	repeat	Run1	repeat/STIM_014.jpg
884.244	1.56	incorrect	generate	Run2	generate/STIM_000.jpg
889.602	1.066	correct	generate	Run2	generate/STIM_000.jpg
894.213	1.145	correct	generate	Run2	generate/STIM_000.jpg
897.346	1.342	correct	generate	Run2	generate/STIM_000.jpg
901.351	1.524	correct	generate	Run2	generate/STIM_000.jpg
905.411	1.656	correct	generate	Run2	generate/STIM_001.jpg
909.327	1.252	correct	generate	Run2	generate/STIM_001.jpg
912.875	2.035	correct	generate	Run2	generate/STIM_001.jpg
918.705	1.411	correct	generate	Run2	generate/STIM_001.jpg
923.384	2.231	incorrect	generate	Run2	generate/STIM_001.jpg
927.64	2.443	incorrect	generate	Run2	generate/STIM_002.jpg
932.569	2.095	correct	generate	Run2	generate/STIM_002.jpg
938.323	2.016	correct	generate	Run2	generate/STIM_002.jpg
943.036	1.555	correct	generate	Run2	generate/STIM_002.jpg
947.789	1.522	incorrect	generate	Run2	generate/STIM_002.jpg
951.571	2.458	correct	generate	Run2	generate/STIM_003.jpg
957.647	1.143	correct	generate	Run2	generate/STIM_003.jpg
962.466	2.034	correct	generate	Run2	generate/STIM_003.jpg
967.372	1.388	correct	generate	Run2	generate/STIM_003.jpg
971.413	2.107	correct	generate	Run2	generate/STIM_003.jpg
976.502	1.933	correct	generate	Run2	generate/STIM_004.jpg
981.166	2.342	incorrect	generate	Run2	generate/STIM_004.jpg
986.482	1.496	correct	generate	Run2	generate/STIM_004.jpg
991.127	0.956	correct	generate	Run2	generate/STIM_004.jpg
994.138	1.824	correct	generate	Run2	generate/STIM_004.jpg
998.482	1.334	correct	generate	Run2	generate/STIM_005.jpg
1002.552	2.184	correct	generate	Run2	generate/STIM_005.jpg
1006.975	1.172	incorrect	generate	Run2	generate/STIM_005.jpg
1010.399	0.965	correct	generate	Run2	generate/STIM_005.jpg
1013.624	1.593	correct	generate	Run2	generate/STIM_005.jpg
1018.7	1.791	correct	generate	Run2	generate/STIM_006.jpg
1023.113	1.993	correct	generate	Run2	generate/STIM_006.jpg
1027.798	1.71	correct	generate	Run2	generate/STIM_006.jpg
1032.256	1.365	correct	generate	Run2	generate/STIM_006.jpg
1035.663	1.538	incorrect	generate	Run2	generate/STIM_006.jpg
1039.998	1.474	correct	generate	Run2	generate/STIM_007.jpg
1043.592	1.953	incorrect	generate	Run2	generate/STIM_007.jpg
1049.211	1.882	correct	generate	Run2	generate/STIM_007.jpg
1053.846	1.299	correct	generate	Run2	generate/STIM_007.jpg
1058.277	2.166	correct	generate	Run2	generate/STIM_007.jpg
1062.325	2.075	correct	generate	Run2	generate/STIM_008.jpg
1066.513	2.223	correct	generate	Run2	generate/STIM_008.jpg
1070.903	2.363	correct	generate	Run2	generate/STIM_008.jpg
1076.022	2.14	correct	generate	Run2	generate/STIM_008.jpg
1081.145	2.093	incorrect	generate	Run2	generate/STIM_008.jpg
1086.869	1.318	correct	generate	Run2	generate/STIM_009.jpg
1091.745	2.124	correct	generate	Run2	generate/STIM_009.jpg
1097.195	2.424	correct	generate	Run2	generate/STIM_009.jpg
1102.128	0.996	correct	generate	Run2	generate/STIM_009.jpg
1105.634	1.136	correct	generate	Run2	generate/STIM_009.jpg
1109.637	2.807	correct	generate	Run2	generate/STIM_010.jpg
1116.095	2.21	incorrect	generate	Run2	generate/STIM_010.jpg
1120.891	2.218	correct	generate	Run2	generate/STIM_010.jpg
1125.129	1.961	incorrect	generate	Run2	generate/STIM_010.jpg
1130.607	1.558	correct	generate	Run2	generate/STIM_010.jpg
1135.575	2.704	correct	generate	Run2	generate/STIM_011.jpg
1140.516	1.926	correct	generate	Run2	generate/STIM_011.jpg
1144.72	2.001	correct	generate	Run2	generate/STIM_011.jpg
1150.211	1.549	correct	generate	Run2	generate/STIM_011.jpg
1154.525	1.236	incorrect	generate	Run2	generate/STIM_011.jpg
1157.68	1.672	correct	generate	Run2	generate/STIM_012.jpg
1162.715	1.986	correct	generate	Run2	generate/STIM_012.jpg
1166.792	1.284	correct	generate	Run2	generate/STIM_012.jpg
1171.152	1.613	correct	generate	Run2	generate/STIM_012.jpg
1175.995	2.224	correct	generate	Run2	generate/STIM_012.jpg
1181.452	1.51	correct	generate	Run2	generate/STIM_013.jpg
1186.601	2.556	incorrect	generate	Run2	generate/STIM_013.jpg
1191.171	2.275	correct	generate	Run2	generate/STIM_013.jpg
1195.916	2.193	correct	generate	Run2	generate/STIM_013.jpg
1200.793	1.68	correct	generate	Run2	generate/STIM_013.jpg
1206.087	1.865	correct	generate	Run2	generate/STIM_014.jpg
1210.495	1.429	incorrect	generate	Run2	generate/STIM_014.jpg
1214.618	1.247	correct	generate	Run2	generate/STIM_014.jpg
1218.301	2.193	correct	generate	Run2	generate/STIM_014.jpg
1223.825	1.072	correct	generate	Run2	generate/STIM_014.jpg
1227.938	1.383	correct	generate	Run2	generate/STIM_015.jpg
1232.451	1.576	correct	generate	Run2	generate/STIM_015.jpg
1237.314	2.278	correct	generate	Run2	generate/STIM_015.jpg
1241.89	1.061	correct	generate	Run2	generate/STIM_015.jpg
1246.305	1.331	incorrect	generate	Run2	generate/STIM_015.jpg
1249.757	1.337	correct	generate	Run2	generate/STIM_016.jpg
1254.625	1.07	correct	generate	Run2	generate/STIM_016.jpg
1258.362	1.465	correct	generate	Run2	generate/STIM_016.jpg
1262.613	2.183	correct	generate	Run2	generate/STIM_016.jpg
1267.987	1.082	correct	generate	Run2	generate/STIM_016.jpg
1271.975	1.856	correct	generate	Run2	generate/STIM_017.jpg
1276.732	1.791	correct	generate	Run2	generate/STIM_017.jpg
1281.002	1.058	correct	generate	Run2	generate/STIM_017.jpg
1284.513	1.181	correct	generate	Run2	generate/STIM_017.jpg
1288.476	1.755	incorrect	generate	Run2	generate/STIM_017.jpg
1293.809	2.12	incorrect	generate	Run2	generate/STIM_018.jpg
1299.62	1.91	correct	generate	Run2	generate/STIM_018.jpg
1305.225	1.834	correct	generate	Run2	generate/STIM_018.jpg
1309.811	1.508	correct	generate	Run2	generate/STIM_018.jpg
1313.965	1.616	correct	generate	Run2	generate/STIM_018.jpg
1318.702	1.492	correct	generate	Run2	generate/STIM_019.jpg
1322.373	1.125	correct	generate	Run2	generate/STIM_019.jpg
1325.677	1.38	correct	generate	Run2	generate/STIM_019.jpg
1330.302	1.514	correct	generate	Run2	generate/STIM_019.jpg
1335.173	1.042	correct	generate	Run2	generate/STIM_019.jpg
1339.042	2.44	correct	generate	Run2	generate/STIM_020.jpg
1343.572	1.16	correct	generate	Run2	generate/STIM_020.jpg
1348.452	1.694	correct	generate	Run2	generate/STIM_020.jpg
1352.187	1.401	correct	generate	Run2	generate/STIM_020.jpg
1356.915	1.13	correct	generate	Run2	generate/STIM_020.jpg
1360.614	1.96	incorrect	generate	Run2	generate/STIM_021.jpg
1364.877	1.528	correct	generate	Run2	generate/STIM_021.jpg
1369.599	1.892	incorrect	generate	Run2	generate/STIM_021.jpg
1373.974	2.017	correct	generate	Run2	generate/STIM_021.jpg
1378.67	1.6	correct	generate	Run2	generate/STIM_021.jpg
1382.715	2.48	correct	generate	Run2	generate/STIM_022.jpg
1388.502	1.408	correct	generate	Run2	generate/STIM_022.jpg
1393.016	1.325	incorrect	generate	Run2	generate/STIM_022.jpg
1396.336	2.193	correct	generate	Run2	generate/STIM_022.jpg
1401.145	1.063	correct	generate	Run2	generate/STIM_022.jpg
1404.496	1.192	correct	generate	Run2	generate/STIM_023.jpg
1407.754	1.652	incorrect	generate	Run2	generate/STIM_023.jpg
1411.59	1.976	correct	generate	Run2	generate/STIM_023.jpg
1416.839	1.825	correct	generate	Run2	generate/STIM_023.jpg
1422.096	1.141	correct	generate	Run2	generate/STIM_023.jpg
1426.413	1.294	incorrect	generate	Run2	generate/STIM_024.jpg
1430.065	1.76	correct	generate	Run2	generate/STIM_024.jpg
1435.317	1.828	correct	generate	Run2	generate/STIM_024.jpg
1440.264	1.905	correct	generate	Run2	generate/STIM_024.jpg
1444.952	1.096	correct	generate	Run2	generate/STIM_024.jpg
1448.635	0.605	correct	repeat	Run2	repeat/STIM_000.jpg
1451.799	1.07	correct	repeat	Run2	repeat/STIM_000.jpg
1455.922	0.603	correct	repeat	Run2	repeat/STIM_000.jpg
1460.402	0.894	correct	repeat	Run2	repeat/STIM_000.jpg
1464.433	0.904	correct	repeat	Run2	repeat/STIM_000.jpg
1468.836	0.644	correct	repeat	Run2	repeat/STIM_001.jpg
1471.621	1.071	correct	repeat	Run2	repeat/STIM_001.jpg
1475.36	0.905	correct	repeat	Run2	repeat/STIM_001.jpg
1478.197	0.673	correct	repeat	Run2	repeat/STIM_001.jpg
1481.261	0.899	correct	repeat	Run2	repeat/STIM_001.jpg
1484.435	0.991	correct	repeat	Run2	repeat/STIM_002.jpg
1488.743	0.782	correct	repeat	Run2	repeat/STIM_002.jpg
1492.019	1.074	correct	repeat	Run2	repeat/STIM_002.jpg
1496.294	0.91	correct	repeat	Run2	repeat/STIM_002.jpg
1499.782	1.03	correct	repeat	Run2	repeat/STIM_002.jpg
1503.735	0.722	correct	repeat	Run2	repeat/STIM_003.jpg
1507.215	0.746	correct	repeat	Run2	repeat/STIM_003.jpg
1511.087	1.003	incorrect	repeat	Run2	repeat/STIM_003.jpg
1515.273	0.727	correct	repeat	Run2	repeat/STIM_003.jpg
1519.496	0.884	correct	repeat	Run2	repeat/STIM_003.jpg
1522.396	0.829	correct	repeat	Run2	repeat/STIM_004.jpg
1526.598	0.768	correct	repeat	Run2	repeat/STIM_004.jpg
1529.802	1.07	incorrect	repeat	Run2	repeat/STIM_004.jpg
1532.936	0.883	correct	repeat	Run2	repeat/STIM_004.jpg
1536.998	1.081	correct	repeat	Run2	repeat/STIM_004.jpg
1541.068	0.62	correct	repeat	Run2	repeat/STIM_005.jpg
1544.35	0.76	correct	repeat	Run2	repeat/STIM_005.jpg
1547.746	1.038	correct	repeat	Run2	repeat/STIM_005.jpg
1551.528	0.828	correct	repeat	Run2	repeat/STIM_005.jpg
1556.037	0.673	correct	repeat	Run2	repeat/STIM_005.jpg
1559.261	0.852	correct	repeat	Run2	repeat/STIM_006.jpg
1562.474	0.556	correct	repeat	Run2	repeat/STIM_006.jpg
1565.131	0.858	correct	repeat	Run2	repeat/STIM_006.jpg
1568.112	0.763	correct	repeat	Run2	repeat/STIM_006.jpg
1572.375	0.91	correct	repeat	Run2	repeat/STIM_006.jpg
1576.782	0.707	correct	repeat	Run2	repeat/STIM_007.jpg
1579.904	0.704	incorrect	repeat	Run2	repeat/STIM_007.jpg
1583.009	1.074	correct	repeat	Run2	repeat/STIM_007.jpg
1586.551	0.65	correct	repeat	Run2	repeat/STIM_007.jpg
1590.033	0.958	correct	repeat	Run2	repeat/STIM_007.jpg
1593.426	0.697	correct	repeat	Run2	repeat/STIM_008.jpg
1596.533	0.868	correct	repeat	Run2	repeat/STIM_008.jpg
1601.264	0.665	correct	repeat	Run2	repeat/STIM_008.jpg
1604.269	0.639	correct	repeat	Run2	repeat/STIM_008.jpg
1608.492	0.729	correct	repeat	Run2	repeat/STIM_008.jpg
1613.121	0.775	correct	repeat	Run2	repeat/STIM_009.jpg
1617.125	1.102	incorrect	repeat	Run2	repeat/STIM_009.jpg
1621.994	1.084	correct	repeat	Run2	repeat/STIM_009.jpg
1625.676	0.757	correct	repeat	Run2	repeat/STIM_009.jpg
1630.249	1.085	incorrect	repeat	Run2	repeat/STIM_009.jpg
1634.855	0.568	correct	repeat	Run2	repeat/STIM_010.jpg
1637.651	0.976	correct	repeat	Run2	repeat/STIM_010.jpg
1641.847	0.558	correct	repeat	Run2	repeat/STIM_010.jpg
1645.519	0.742	correct	repeat	Run2	repeat/STIM_010.jpg
1648.551	1.065	correct	repeat	Run2	repeat/STIM_010.jpg
1653.281	0.723	correct	repeat	Run2	repeat/STIM_011.jpg
1657.547	0.914	correct	repeat	Run2	repeat/STIM_011.jpg
1661.902	0.924	correct	repeat	Run2	repeat/STIM_011.jpg
1665.032	0.889	correct	repeat	Run2	repeat/STIM_011.jpg
1668.604	0.97	correct	repeat	Run2	repeat/STIM_011.jpg
1673.35	0.906	correct	repeat	Run2	repeat/STIM_012.jpg
1677.049	0.683	correct	repeat	Run2	repeat/STIM_012.jpg
1681.109	0.876	correct	repeat	Run2	repeat/STIM_012.jpg
1684.499	0.613	correct	repeat	Run2	repeat/STIM_012.jpg
1687.512	0.56	correct	repeat	Run2	repeat/STIM_012.jpg
1690.769	0.995	correct	repeat	Run2	repeat/STIM_013.jpg
1694.486	1.036	correct	repeat	Run2	repeat/STIM_013.jpg
1697.632	0.613	correct	repeat	Run2	repeat/STIM_013.jpg
1700.535	0.914	correct	repeat	Run2	repeat/STIM_013.jpg
1704.874	0.846	correct	repeat	Run2	repeat/STIM_013.jpg
1708.618	0.719	correct	repeat	Run2	repeat/STIM_014.jpg
1712.383	1.05	correct	repeat	Run2	repeat/STIM_014.jpg
1716.188	1.076	correct	repeat	Run2	repeat/STIM_014.jpg
1720.003	0.636	correct	repeat	Run2	repeat/STIM_014.jpg
1723.973	1.02	correct	repeat	Run2	repeat/STIM_014.jpg
1726.923	1.964	correct	generate	Run3	generate/STIM_000.jpg
1731.803	1.31	correct	generate	Run3	generate/STIM_000.jpg
1735.785	1.374	correct	generate	Run3	generate/STIM_000.jpg
1740.762	1.112	correct	generate	Run3	generate/STIM_000.jpg
1745.292	1.726	correct	generate	Run3	generate/STIM_000.jpg
1749.687	1.208	correct	generate	Run3	generate/STIM_001.jpg
1754.271	1.088	correct	generate	Run3	generate/STIM_001.jpg
1758.51	1.84	correct	generate	Run3	generate/STIM_001.jpg
1763.558	1.529	correct	generate	Run3	generate/STIM_001.jpg
1767.872	1.94	incorrect	generate	Run3	generate/STIM_001.jpg
1772.896	2.085	correct	generate	Run3	generate/STIM_002.jpg
1777.597	1.638	correct	generate	Run3	generate/STIM_002.jpg
1781.829	1.765	incorrect	generate	Run3	generate/STIM_002.jpg
1787.006	2.255	correct	generate	Run3	generate/STIM_002.jpg
1791.705	1.514	correct	generate	Run3	generate/STIM_002.jpg
1795.287	1.795	correct	generate	Run3	generate/STIM_003.jpg
1800.606	1.363	correct	generate	Run3	generate/STIM_003.jpg
1804.612	1.896	correct	generate	Run3	generate/STIM_003.jpg
1810.262	1.162	correct	generate	Run3	generate/STIM_003.jpg
1813.415	1.729	correct	generate	Run3	generate/STIM_003.jpg
1818.49	2.234	correct	generate	Run3	generate/STIM_004.jpg
1824.108	1.273	correct	generate	Run3	generate/STIM_004.jpg
1828.836	1.284	correct	generate	Run3	generate/STIM_004.jpg
1832.957	1.505	incorrect	generate	Run3	generate/STIM_004.jpg
1836.74	1.848	correct	generate	Run3	generate/STIM_004.jpg
1841.052	1.183	correct	generate	Run3	generate/STIM_005.jpg
1844.991	1.5	correct	generate	Run3	generate/STIM_005.jpg
1849.808	1.012	correct	generate	Run3	generate/STIM_005.jpg
1854.468	1.512	correct	generate	Run3	generate/STIM_005.jpg
1859.056	1.304	correct	generate	Run3	generate/STIM_005.jpg
1862.783	1.685	correct	generate	Run3	generate/STIM_006.jpg
1866.985	2.223	correct	generate	Run3	generate/STIM_006.jpg
1871.79	2.228	correct	generate	Run3	generate/STIM_006.jpg
1877.713	1.476	correct	generate	Run3	generate/STIM_006.jpg
1883.012	1.994	correct	generate	Run3	generate/STIM_006.jpg
1887.16	1.627	incorrect	generate	Run3	generate/STIM_007.jpg
1890.761	0.953	correct	generate	Run3	generate/STIM_007.jpg
1895.011	0.995	correct	generate	Run3	generate/STIM_007.jpg
1899.113	2.108	correct	generate	Run3	generate/STIM_007.jpg
1903.132	1.778	correct	generate	Run3	generate/STIM_007.jpg
1908.357	1.899	incorrect	generate	Run3	generate/STIM_008.jpg
1913.174	1.722	correct	generate	Run3	generate/STIM_008.jpg
1918.346	1.414	incorrect	generate	Run3	generate/STIM_008.jpg
1923.243	1.262	correct	generate	Run3	generate/STIM_008.jpg
1926.491	2.155	correct	generate	Run3	generate/STIM_008.jpg
1931.781	1.34	correct	generate	Run3	generate/STIM_009.jpg
1936.679	1.577	correct	generate	Run3	generate/STIM_009.jpg
1942.05	1.936	correct	generate	Run3	generate/STIM_009.jpg
1947.397	1.718	correct	generate	Run3	generate/STIM_009.jpg
1951.817	1.222	correct	generate	Run3	generate/STIM_009.jpg
1956.414	1.066	correct	generate	Run3	generate/STIM_010.jpg
1960.992	1.338	correct	generate	Run3	generate/STIM_010.jpg
1964.95	1.206	correct	generate	Run3	generate/STIM_010.jpg
1969.572	1.484	correct	generate	Run3	generate/STIM_010.jpg
1973.117	1.445	correct	generate	Run3	generate/STIM_010.jpg
1977.398	2.083	correct	generate	Run3	generate/STIM_011.jpg
1981.656	1.734	correct	generate	Run3	generate/STIM_011.jpg
1986.54	1.487	correct	generate	Run3	generate/STIM_011.jpg
1991.128	1.449	correct	generate	Run3	generate/STIM_011.jpg
1995.022	1.466	correct	generate	Run3	generate/STIM_011.jpg
1999.457	2.282	correct	generate	Run3	generate/STIM_012.jpg
2005.429	0.986	correct	generate	Run3	generate/STIM_012.jpg
2008.787	1.408	incorrect	generate	Run3	generate/STIM_012.jpg
2012.483	1.911	correct	generate	Run3	generate/STIM_012.jpg
2016.992	1.158	correct	generate	Run3	generate/STIM_012.jpg
2020.361	1.326	correct	generate	Run3	generate/STIM_013.jpg
2023.799	1.902	correct	generate	Run3	generate/STIM_013.jpg
2029.278	1.608	correct	generate	Run3	generate/STIM_013.jpg
2034.324	1.64	correct	generate	Run3	generate/STIM_013.jpg
2039.316	1.587	correct	generate	Run3	generate/STIM_013.jpg
2044.12	2.197	correct	generate	Run3	generate/STIM_014.jpg
2048.504	2.318	correct	generate	Run3	generate/STIM_014.jpg
2053.142	2.245	correct	generate	Run3	generate/STIM_014.jpg
2058.715	2.238	correct	generate	Run3	generate/STIM_014.jpg
2064.208	1.167	correct	generate	Run3	generate/STIM_014.jpg
2067.634	1.201	correct	generate	Run3	generate/STIM_015.jpg
2071.572	2.033	correct	generate	Run3	generate/STIM_015.jpg
2075.649	0.947	correct	generate	Run3	generate/STIM_015.jpg
2078.683	1.66	correct	generate	Run3	generate/STIM_015.jpg
2082.572	1.942	correct	generate	Run3	generate/STIM_015.jpg
2086.43	1.433	correct	generate	Run3	generate/STIM_016.jpg
2091.492	2.002	correct	generate	Run3	generate/STIM_016.jpg
2097.177	2.177	correct	generate	Run3	generate/STIM_016.jpg
2102.731	1.997	correct	generate	Run3	generate/STIM_016.jpg
2107.505	1.812	correct	generate	Run3	generate/STIM_016.jpg
2111.196	2.014	correct	generate	Run3	generate/STIM_017.jpg
2115.271	1.718	correct	generate	Run3	generate/STIM_017.jpg
2119.282	1.451	incorrect	generate	Run3	generate/STIM_017.jpg
2123.736	1.218	correct	generate	Run3	generate/STIM_017.jpg
2127.291	1.439	correct	generate	Run3	generate/STIM_017.jpg
2132.436	2.213	correct	generate	Run3	generate/STIM_018.jpg
2137.231	1.564	correct	generate	Run3	generate/STIM_018.jpg
2142.222	1.85	correct	generate	Run3	generate/STIM_018.jpg
2145.983	1.116	correct	generate	Run3	generate/STIM_018.jpg
2149.281	2.265	incorrect	generate	Run3	generate/STIM_018.jpg
2153.591	0.958	correct	generate	Run3	generate/STIM_019.jpg
2157.197	2.068	correct	generate	Run3	generate/STIM_019.jpg
2162.28	1.834	incorrect	generate	Run3	generate/STIM_019.jpg
2167.763	1.73	correct	generate	Run3	generate/STIM_019.jpg
2171.941	1.602	correct	generate	Run3	generate/STIM_019.jpg
2177.32	2.071	correct	generate	Run3	generate/STIM_020.jpg
2183.096	1.869	correct	generate	Run3	generate/STIM_020.jpg
2188.538	1.502	correct	generate	Run3	generate/STIM_020.jpg
2193.775	1.213	correct	generate	Run3	generate/STIM_020.jpg
2197.287	1.754	correct	generate	Run3	generate/STIM_020.jpg
2201.368	2.282	correct	generate	Run3	generate/STIM_021.jpg
2205.683	1.082	correct	generate	Run3	generate/STIM_021.jpg
2208.944	1.747	correct	generate	Run3	generate/STIM_021.jpg
2212.879	2.299	correct	generate	Run3	generate/STIM_021.jpg
2218.55	1.486	correct	generate	Run3	generate/STIM_021.jpg
2222.663	2.197	incorrect	generate	Run3	generate/STIM_022.jpg
2226.922	1.481	correct	generate	Run3	generate/STIM_022.jpg
2231.528	2.126	correct	generate	Run3	generate/STIM_022.jpg
2236.987	1.872	correct	generate	Run3	generate/STIM_022.jpg
2242.281	0.941	correct	generate	Run3	generate/STIM_022.jpg
2246.937	1.766	correct	generate	Run3	generate/STIM_023.jpg
2252.352	1.319	incorrect	generate	Run3	generate/STIM_023.jpg
2256.901	2.217	correct	generate	Run3	generate/STIM_023.jpg
2261.068	1.322	correct	generate	Run3	generate/STIM_023.jpg
2264.899	1.47	correct	generate	Run3	generate/STIM_023.jpg
2269.871	0.956	correct	generate	Run3	generate/STIM_024.jpg
2273.663	2.04	correct	generate	Run3	generate/STIM_024.jpg
2278.907	1.571	correct	generate	Run3	generate/STIM_024.jpg
2282.338	1.706	correct	generate	Run3	generate/STIM_024.jpg
2286.5	1.657	correct	generate	Run3	generate/STIM_024.jpg
2290.411	0.95	correct	repeat	Run3	repeat/STIM_000.jpg
2294.229	1.097	correct	repeat	Run3	repeat/STIM_000.jpg
2297.701	1.102	correct	repeat	Run3	repeat/STIM_000.jpg
2301.363	0.65	correct	repeat	Run3	repeat/STIM_000.jpg
2304.909	0.778	correct	repeat	Run3	repeat/STIM_000.jpg
2308.802	0.71	correct	repeat	Run3	repeat/STIM_001.jpg
2311.532	0.616	correct	repeat	Run3	repeat/STIM_001.jpg
2315.91	0.634	correct	repeat	Run3	repeat/STIM_001.jpg
2319.59	0.742	correct	repeat	Run3	repeat/STIM_001.jpg
2322.49	0.876	correct	repeat	Run3	repeat/STIM_001.jpg
2326.969	0.969	correct	repeat	Run3	repeat/STIM_002.jpg
2329.854	0.86	correct	repeat	Run3	repeat/STIM_002.jpg
2334.077	0.892	correct	repeat	Run3	repeat/STIM_002.jpg
2338.814	0.718	incorrect	repeat	Run3	repeat/STIM_002.jpg
2342.067	0.746	correct	repeat	Run3	repeat/STIM_002.jpg
2345.228	0.959	incorrect	repeat	Run3	repeat/STIM_003.jpg
2349.147	0.699	correct	repeat	Run3	repeat/STIM_003.jpg
2351.929	0.728	correct	repeat	Run3	repeat/STIM_003.jpg
2356.237	0.601	correct	repeat	Run3	repeat/STIM_003.jpg
2360.354	0.73	correct	repeat	Run3	repeat/STIM_003.jpg
2363.603	1.056	correct	repeat	Run3	repeat/STIM_004.jpg
2366.758	0.97	correct	repeat	Run3	repeat/STIM_004.jpg
2369.687	0.694	correct	repeat	Run3	repeat/STIM_004.jpg
2374.235	0.769	correct	repeat	Run3	repeat/STIM_004.jpg
2377.482	0.665	correct	repeat	Run3	repeat/STIM_004.jpg
2381.764	0.657	correct	repeat	Run3	repeat/STIM_005.jpg
2384.526	0.987	correct	repeat	Run3	repeat/STIM_005.jpg
2389.026	0.858	correct	repeat	Run3	repeat/STIM_005.jpg
2393.283	1.025	incorrect	repeat	Run3	repeat/STIM_005.jpg
2397.033	0.842	correct	repeat	Run3	repeat/STIM_005.jpg
2401.292	0.778	correct	repeat	Run3	repeat/STIM_006.jpg
2405.796	0.91	correct	repeat	Run3	repeat/STIM_006.jpg
2409.127	0.694	correct	repeat	Run3	repeat/STIM_006.jpg
2413.328	0.744	correct	repeat	Run3	repeat/STIM_006.jpg
2416.18	0.656	correct	repeat	Run3	repeat/STIM_006.jpg
2419.609	0.996	correct	repeat	Run3	repeat/STIM_007.jpg
2423.065	0.887	correct	repeat	Run3	repeat/STIM_007.jpg
2426.01	0.636	correct	repeat	Run3	repeat/STIM_007.jpg
2430.156	0.746	correct	repeat	Run3	repeat/STIM_007.jpg
2434.305	0.718	correct	repeat	Run3	repeat/STIM_007.jpg
2437.598	0.61	correct	repeat	Run3	repeat/STIM_008.jpg
2441.153	0.806	correct	repeat	Run3	repeat/STIM_008.jpg
2444.105	0.952	correct	repeat	Run3	repeat/STIM_008.jpg
2448.672	0.96	correct	repeat	Run3	repeat/STIM_008.jpg
2452.994	0.646	correct	repeat	Run3	repeat/STIM_008.jpg
2457.46	0.828	correct	repeat	Run3	repeat/STIM_009.jpg
2460.715	1.001	correct	repeat	Run3	repeat/STIM_009.jpg
2463.817	0.871	correct	repeat	Run3	repeat/STIM_009.jpg
2467.679	0.892	correct	repeat	Run3	repeat/STIM_009.jpg
2471.695	0.996	correct	repeat	Run3	repeat/STIM_009.jpg
2475.898	1.01	correct	repeat	Run3	repeat/STIM_010.jpg
2480.69	0.937	incorrect	repeat	Run3	repeat/STIM_010.jpg
2485.317	0.746	correct	repeat	Run3	repeat/STIM_010.jpg
2488.357	0.93	correct	repeat	Run3	repeat/STIM_010.jpg
2491.645	0.731	incorrect	repeat	Run3	repeat/STIM_010.jpg
2494.927	1.039	correct	repeat	Run3	repeat/STIM_011.jpg
2499.712	0.763	incorrect	repeat	Run3	repeat/STIM_011.jpg
2503.134	0.936	correct	repeat	Run3	repeat/STIM_011.jpg
2506.588	0.878	correct	repeat	Run3	repeat/STIM_011.jpg
2511.356	1.03	incorrect	repeat	Run3	repeat/STIM_011.jpg
2515.772	0.755	correct	repeat	Run3	repeat/STIM_012.jpg
2519.147	0.695	correct	repeat	Run3	repeat/STIM_012.jpg
2523.383	0.741	correct	repeat	Run3	repeat/STIM_012.jpg
2526.303	1.083	correct	repeat	Run3	repeat/STIM_012.jpg
2529.806	0.934	correct	repeat	Run3	repeat/STIM_012.jpg
2533.368	0.75	correct	repeat	Run3	repeat/STIM_013.jpg
2537.692	0.687	correct	repeat	Run3	repeat/STIM_013.jpg
2542.312	0.992	correct	repeat	Run3	repeat/STIM_013.jpg
2546.574	0.643	correct	repeat	Run3	repeat/STIM_013.jpg
2549.897	0.936	correct	repeat	Run3	repeat/STIM_013.jpg
2554.069	0.801	correct	repeat	Run3	repeat/STIM_014.jpg
2557.239	0.714	incorrect	repeat	Run3	repeat/STIM_014.jpg
2560.074	0.68	correct	repeat	Run3	repeat/STIM_014.jpg
2563.287	1.012	correct	repeat	Run3	repeat/STIM_014.jpg
2566.236	0.79	correct	repeat	Run3	repeat/STIM_014.jpg
2569.208	1.763	correct	generate	Run4	generate/STIM_000.jpg
2573.73	1.504	correct	generate	Run4	generate/STIM_000.jpg
2577.262	1.944	correct	generate	Run4	generate/STIM_000.jpg
2581.025	1.295	correct	generate	Run4	generate/STIM_000.jpg
2584.804	1.124	correct	generate	Run4	generate/STIM_000.jpg
2589.505	1.938	correct	generate	Run4	generate/STIM_001.jpg
2593.668	1.152	correct	generate	Run4	generate/STIM_001.jpg
2597.283	1.447	correct	generate	Run4	generate/STIM_001.jpg
2601.173	1.52	correct	generate	Run4	generate/STIM_001.jpg
2604.668	1.974	correct	generate	Run4	generate/STIM_001.jpg
2609.214	2.209	correct	generate	Run4	generate/STIM_002.jpg
2614.144	1.555	correct	generate	Run4	generate/STIM_002.jpg
2618.457	1.363	correct	generate	Run4	generate/STIM_002.jpg
2622.955	1.445	correct	generate	Run4	generate/STIM_002.jpg
2627.336	2.229	correct	generate	Run4	generate/STIM_002.jpg
2633.233	1.949	correct	generate	Run4	generate/STIM_003.jpg
2638.445	2.19	correct	generate	Run4	generate/STIM_003.jpg
2644.109	1.48	correct	generate	Run4	generate/STIM_003.jpg
2649.245	1.169	correct	generate	Run4	generate/STIM_003.jpg
2654.0	1.911	correct	generate	Run4	generate/STIM_003.jpg
2659.333	1.466	correct	generate	Run4	generate/STIM_004.jpg
2663.184	1.77	correct	generate	Run4	generate/STIM_004.jpg
2667.678	1.972	correct	generate	Run4	generate/STIM_004.jpg
2673.348	1.278	correct	generate	Run4	generate/STIM_004.jpg
2676.559	1.137	correct	generate	Run4	generate/STIM_004.jpg
2681.473	1.356	correct	generate	Run4	generate/STIM_005.jpg
2685.754	2.146	correct	generate	Run4	generate/STIM_005.jpg
2690.98	1.693	correct	generate	Run4	generate/STIM_005.jpg
2696.242	2.122	correct	generate	Run4	generate/STIM_005.jpg
2700.263	1.724	correct	generate	Run4	generate/STIM_005.jpg
2705.31	1.816	correct	generate	Run4	generate/STIM_006.jpg
2710.802	1.029	incorrect	generate	Run4	generate/STIM_006.jpg
2714.416	1.174	correct	generate	Run4	generate/STIM_006.jpg
2718.334	2.09	correct	generate	Run4	generate/STIM_006.jpg
2723.253	1.282	correct	generate	Run4	generate/STIM_006.jpg
2727.518	0.933	correct	generate	Run4	generate/STIM_007.jpg
2730.387	2.199	correct	generate	Run4	generate/STIM_007.jpg
2734.821	2.273	correct	generate	Run4	generate/STIM_007.jpg
2739.267	1.401	correct	generate	Run4	generate/STIM_007.jpg
2744.466	1.504	correct	generate	Run4	generate/STIM_007.jpg
2748.876	1.814	correct	generate	Run4	generate/STIM_008.jpg
2753.215	1.645	correct	generate	Run4	generate/STIM_008.jpg
2758.43	1.838	correct	generate	Run4	generate/STIM_008.jpg
2762.793	1.941	correct	generate	Run4	generate/STIM_008.jpg
2767.768	1.533	correct	generate	Run4	generate/STIM_008.jpg
2771.494	0.995	correct	generate	Run4	generate/STIM_009.jpg
2774.903	1.145	correct	generate	Run4	generate/STIM_009.jpg
2779.595	1.883	correct	generate	Run4	generate/STIM_009.jpg
2783.323	1.615	correct	generate	Run4	generate/STIM_009.jpg
2788.443	1.004	correct	generate	Run4	generate/STIM_009.jpg
2792.96	2.141	correct	generate	Run4	generate/STIM_010.jpg
2797.827	1.659	correct	generate	Run4	generate/STIM_010.jpg
2802.242	1.946	correct	generate	Run4	generate/STIM_010.jpg
2807.854	1.879	correct	generate	Run4	generate/STIM_010.jpg
2811.748	1.05	correct	generate	Run4	generate/STIM_010.jpg
2814.99	1.696	correct	generate	Run4	generate/STIM_011.jpg
2820.131	1.716	correct	generate	Run4	generate/STIM_011.jpg
2825.318	1.149	correct	generate	Run4	generate/STIM_011.jpg
2829.515	1.269	correct	generate	Run4	generate/STIM_011.jpg
2833.936	1.59	correct	generate	Run4	generate/STIM_011.jpg
2837.508	0.985	correct	generate	Run4	generate/STIM_012.jpg
2840.706	2.023	correct	generate	Run4	generate/STIM_012.jpg
2845.861	1.155	correct	generate	Run4	generate/STIM_012.jpg
2849.086	1.003	correct	generate	Run4	generate/STIM_012.jpg
2852.525	2.095	incorrect	generate	Run4	generate/STIM_012.jpg
2856.647	1.34	correct	generate	Run4	generate/STIM_013.jpg
2860.641	1.368	correct	generate	Run4	generate/STIM_013.jpg
2865.854	1.416	correct	generate	Run4	generate/STIM_013.jpg
2869.866	1.972	correct	generate	Run4	generate/STIM_013.jpg
2875.484	1.964	correct	generate	Run4	generate/STIM_013.jpg
2879.717	1.901	correct	generate	Run4	generate/STIM_014.jpg
2883.48	1.354	correct	generate	Run4	generate/STIM_014.jpg
2887.891	1.402	correct	generate	Run4	generate/STIM_014.jpg
2892.173	0.98	correct	generate	Run4	generate/STIM_014.jpg
2895.88	2.228	correct	generate	Run4	generate/STIM_014.jpg
2901.705	2.075	correct	generate	Run4	generate/STIM_015.jpg
2906.85	1.874	correct	generate	Run4	generate/STIM_015.jpg
2912.109	1.054	correct	generate	Run4	generate/STIM_015.jpg
2917.056	2.308	correct	generate	Run4	generate/STIM_015.jpg
2921.15	1.552	correct	generate	Run4	generate/STIM_015.jpg
2925.519	1.111	correct	generate	Run4	generate/STIM_016.jpg
2929.075	1.844	correct	generate	Run4	generate/STIM_016.jpg
2933.382	2.213	correct	generate	Run4	generate/STIM_016.jpg
2938.606	2.198	correct	generate	Run4	generate/STIM_016.jpg
2943.407	1.835	correct	generate	Run4	generate/STIM_016.jpg
2947.76	1.384	correct	generate	Run4	generate/STIM_017.jpg
2951.256	1.563	correct	generate	Run4	generate/STIM_017.jpg
2956.45	2.133	correct	generate	Run4	generate/STIM_017.jpg
2961.483	1.213	correct	generate	Run4	generate/STIM_017.jpg
2966.43	2.075	correct	generate	Run4	generate/STIM_017.jpg
2971.866	1.274	correct	generate	Run4	generate/STIM_018.jpg
2976.92	1.349	correct	generate	Run4	generate/STIM_018.jpg
2980.653	1.92	correct	generate	Run4	generate/STIM_018.jpg
2985.109	2.046	correct	generate	Run4	generate/STIM_018.jpg
2989.167	1.112	correct	generate	Run4	generate/STIM_018.jpg
2994.074	1.36	correct	generate	Run4	generate/STIM_019.jpg
2997.447	1.066	correct	generate	Run4	generate/STIM_019.jpg
3001.334	1.008	correct	generate	Run4	generate/STIM_019.jpg
3004.563	1.964	correct	generate	Run4	generate/STIM_019.jpg
3009.888	2.143	correct	generate	Run4	generate/STIM_019.jpg
3013.89	1.456	correct	generate	Run4	generate/STIM_020.jpg
3018.97	1.264	correct	generate	Run4	generate/STIM_020.jpg
3022.558	1.86	correct	generate	Run4	generate/STIM_020.jpg
3028.017	1.292	correct	generate	Run4	generate/STIM_020.jpg
3031.299	1.288	correct	generate	Run4	generate/STIM_020.jpg
3034.949	1.246	correct	generate	Run4	generate/STIM_021.jpg
3039.889	2.299	correct	generate	Run4	generate/STIM_021.jpg
3045.49	1.038	correct	generate	Run4	generate/STIM_021.jpg
3049.927	1.181	correct	generate	Run4	generate/STIM_021.jpg
3053.771	1.929	correct	generate	Run4	generate/STIM_021.jpg
3058.835	1.904	correct	generate	Run4	generate/STIM_022.jpg
3064.312	1.825	correct	generate	Run4	generate/STIM_022.jpg
3068.27	1.454	correct	generate	Run4	generate/STIM_022.jpg
3072.241	2.288	correct	generate	Run4	generate/STIM_022.jpg
3078.228	2.005	correct	generate	Run4	generate/STIM_022.jpg
3083.902	1.031	correct	generate	Run4	generate/STIM_023.jpg
3086.913	1.221	correct	generate	Run4	generate/STIM_023.jpg
3091.633	1.92	incorrect	generate	Run4	generate/STIM_023.jpg
3096.8	1.032	correct	generate	Run4	generate/STIM_023.jpg
3100.81	1.574	correct	generate	Run4	generate/STIM_023.jpg
3104.751	2.2	correct	generate	Run4	generate/STIM_024.jpg
3109.094	1.386	correct	generate	Run4	generate/STIM_024.jpg
3114.184	1.446	correct	generate	Run4	generate/STIM_024.jpg
3118.155	1.139	correct	generate	Run4	generate/STIM_024.jpg
3121.97	1.467	correct	generate	Run4	generate/STIM_024.jpg
3125.392	0.969	correct	repeat	Run4	repeat/STIM_000.jpg
3130.053	1.051	correct	repeat	Run4	repeat/STIM_000.jpg
3133.835	0.873	correct	repeat	Run4	repeat/STIM_000.jpg
3136.907	1.103	correct	repeat	Run4	repeat/STIM_000.jpg
3140.351	0.586	correct	repeat	Run4	repeat/STIM_000.jpg
3144.632	1.081	correct	repeat	Run4	repeat/STIM_001.jpg
3148.321	0.563	incorrect	repeat	Run4	repeat/STIM_001.jpg
3151.593	1.076	incorrect	repeat	Run4	repeat/STIM_001.jpg
3154.957	0.654	correct	repeat	Run4	repeat/STIM_001.jpg
3157.687	1.09	correct	repeat	Run4	repeat/STIM_001.jpg
3161.588	0.62	correct	repeat	Run4	repeat/STIM_002.jpg
3165.476	0.581	correct	repeat	Run4	repeat/STIM_002.jpg
3169.136	0.629	correct	repeat	Run4	repeat/STIM_002.jpg
3171.76	0.934	correct	repeat	Run4	repeat/STIM_002.jpg
3176.374	0.921	correct	repeat	Run4	repeat/STIM_002.jpg
3179.807	0.578	correct	repeat	Run4	repeat/STIM_003.jpg
3183.295	1.036	correct	repeat	Run4	repeat/STIM_003.jpg
3186.826	0.947	correct	repeat	Run4	repeat/STIM_003.jpg
3190.305	1.028	correct	repeat	Run4	repeat/STIM_003.jpg
3195.029	0.805	incorrect	repeat	Run4	repeat/STIM_003.jpg
3198.992	1.047	correct	repeat	Run4	repeat/STIM_004.jpg
3202.653	0.689	incorrect	repeat	Run4	repeat/STIM_004.jpg
3205.461	0.808	correct	repeat	Run4	repeat/STIM_004.jpg
3209.445	0.656	correct	repeat	Run4	repeat/STIM_004.jpg
3212.556	0.567	correct	repeat	Run4	repeat/STIM_004.jpg
3215.862	0.62	correct	repeat	Run4	repeat/STIM_005.jpg
3220.379	0.817	correct	repeat	Run4	repeat/STIM_005.jpg
3224.081	0.715	correct	repeat	Run4	repeat/STIM_005.jpg
3227.319	0.925	correct	repeat	Run4	repeat/STIM_005.jpg
3230.647	0.987	correct	repeat	Run4	repeat/STIM_005.jpg
3233.567	0.812	correct	repeat	Run4	repeat/STIM_006.jpg
3237.327	0.695	incorrect	repeat	Run4	repeat/STIM_006.jpg
3240.072	1.044	correct	repeat	Run4	repeat/STIM_006.jpg
3243.737	0.565	correct	repeat	Run4	repeat/STIM_006.jpg
3247.599	0.724	correct	repeat	Run4	repeat/STIM_006.jpg
3251.779	0.673	correct	repeat	Run4	repeat/STIM_007.jpg
3255.43	1.056	correct	repeat	Run4	repeat/STIM_007.jpg
3259.653	1.104	correct	repeat	Run4	repeat/STIM_007.jpg
3263.48	0.902	correct	repeat	Run4	repeat/STIM_007.jpg
3266.577	0.937	correct	repeat	Run4	repeat/STIM_007.jpg
3270.657	0.73	correct	repeat	Run4	repeat/STIM_008.jpg
3274.606	0.822	correct	repeat	Run4	repeat/STIM_008.jpg
3277.856	0.678	correct	repeat	Run4	repeat/STIM_008.jpg
3281.99	0.616	correct	repeat	Run4	repeat/STIM_008.jpg
3285.823	1.063	correct	repeat	Run4	repeat/STIM_008.jpg
3289.641	0.75	correct	repeat	Run4	repeat/STIM_009.jpg
3293.152	0.635	correct	repeat	Run4	repeat/STIM_009.jpg
3297.722	0.704	correct	repeat	Run4	repeat/STIM_009.jpg
3300.674	0.866	correct	repeat	Run4	repeat/STIM_009.jpg
3304.256	0.829	correct	repeat	Run4	repeat/STIM_009.jpg
3308.662	0.975	correct	repeat	Run4	repeat/STIM_010.jpg
3313.445	1.071	correct	repeat	Run4	repeat/STIM_010.jpg
3318.024	0.889	correct	repeat	Run4	repeat/STIM_010.jpg
3321.241	1.102	correct	repeat	Run4	repeat/STIM_010.jpg
3325.906	0.906	correct	repeat	Run4	repeat/STIM_010.jpg
3329.751	0.633	correct	repeat	Run4	repeat/STIM_011.jpg
3333.212	0.738	correct	repeat	Run4	repeat/STIM_011.jpg
3336.304	0.779	correct	repeat	Run4	repeat/STIM_011.jpg
3340.469	0.662	incorrect	repeat	Run4	repeat/STIM_011.jpg
3344.947	1.006	correct	repeat	Run4	repeat/STIM_011.jpg
3349.331	0.805	correct	repeat	Run4	repeat/STIM_012.jpg
3353.493	0.845	correct	repeat	Run4	repeat/STIM_012.jpg
3357.161	0.775	correct	repeat	Run4	repeat/STIM_012.jpg
3360.62	0.66	correct	repeat	Run4	repeat/STIM_012.jpg
3363.658	0.998	correct	repeat	Run4	repeat/STIM_012.jpg
3366.765	0.927	correct	repeat	Run4	repeat/STIM_013.jpg
3369.887	0.638	correct	repeat	Run4	repeat/STIM_013.jpg
3374.011	0.826	correct	repeat	Run4	repeat/STIM_013.jpg
3378.617	0.918	correct	repeat	Run4	repeat/STIM_013.jpg
3382.066	0.774	correct	repeat	Run4	repeat/STIM_013.jpg
3386.62	1.048	correct	repeat	Run4	repeat/STIM_014.jpg
3391.502	0.681	correct	repeat	Run4	repeat/STIM_014.jpg
3394.124	0.942	correct	repeat	Run4	repeat/STIM_014.jpg
3397.415	0.713	correct	repeat	Run4	repeat/STIM_014.jpg
3402.003	1.004	correct	repeat	Run4	repeat/STIM_014.jpg
