onset	duration	response_time_ms	trial_type	learning_stage	stimulus	response_port
0.0	3.201	3200.7	generate	Run1	generate/STIM_000.jpg	100
6.509	3.109	3109.2	generate	Run1	generate/STIM_000.jpg	100
12.241	2.926	2926.1	generate	Run1	generate/STIM_000.jpg	99
17.506	2.193	2192.8	generate	Run1	generate/STIM_000.jpg	100
22.124	1.328	1327.9	generate	Run1	generate/STIM_000.jpg	100
26.372	1.908	1908.2	generate	Run1	generate/STIM_001.jpg	100
30.261	2.602	2601.6	generate	Run1	generate/STIM_001.jpg	99
36.612	2.394	2394.0	generate	Run1	generate/STIM_001.jpg	100
42.057	2.116	2116.0	generate	Run1	generate/STIM_001.jpg	100
46.791	2.076	2076.2	generate	Run1	generate/STIM_001.jpg	99
52.51	2.388	2388.2	generate	Run1	generate/STIM_002.jpg	99
58.154	1.296	1295.5	generate	Run1	generate/STIM_002.jpg	100
62.626	2.661	2660.8	generate	Run1	generate/STIM_002.jpg	100
67.894	2.456	2455.8	generate	Run1	generate/STIM_002.jpg	100
72.269	2.262	2262.4	generate	Run1	generate/STIM_002.jpg	99
77.285	2.07	2070.0	generate	Run1	generate/STIM_003.jpg	100
82.128	2.719	2718.6	generate	Run1	generate/STIM_003.jpg	100
88.366	2.015	2015.5	generate	Run1	generate/STIM_003.jpg	100
93.264	2.259	2258.6	generate	Run1	generate/STIM_003.jpg	99
98.087	1.532	1532.1	generate	Run1	generate/STIM_003.jpg	99
103.315	1.947	1947.2	generate	Run1	generate/STIM_004.jpg	99
108.069	2.428	2428.0	generate	Run1	generate/STIM_004.jpg	100
113.101	2.686	2686.2	generate	Run1	generate/STIM_004.jpg	100
119.01	1.209	1208.8	generate	Run1	generate/STIM_004.jpg	100
122.297	2.515	2515.3	generate	Run1	generate/STIM_004.jpg	100
128.346	2.287	2286.8	generate	Run1	generate/STIM_005.jpg	99
134.152	1.267	1266.7	generate	Run1	generate/STIM_005.jpg	99
138.284	2.926	2925.9	generate	Run1	generate/STIM_005.jpg	99
143.771	1.786	1786.0	generate	Run1	generate/STIM_005.jpg	99
148.966	1.941	1940.8	generate	Run1	generate/STIM_005.jpg	99
154.035	1.808	1808.1	generate	Run1	generate/STIM_006.jpg	99
158.892	1.327	1327.4	generate	Run1	generate/STIM_006.jpg	100
164.016	1.767	1767.0	generate	Run1	generate/STIM_006.jpg	100
167.633	2.759	2759.3	generate	Run1	generate/STIM_006.jpg	99
172.469	1.192	1191.6	generate	Run1	generate/STIM_006.jpg	100
176.785	2.232	2232.2	generate	Run1	generate/STIM_007.jpg	99
180.893	1.882	1882.5	generate	Run1	generate/STIM_007.jpg	100
185.049	2.293	2292.8	generate	Run1	generate/STIM_007.jpg	100
190.683	1.471	1470.9	generate	Run1	generate/STIM_007.jpg	100
194.249	2.469	2469.1	generate	Run1	generate/STIM_007.jpg	100
199.549	1.526	1525.6	generate	Run1	generate/STIM_008.jpg	100
204.548	1.346	1345.7	generate	Run1	generate/STIM_008.jpg	100
208.131	1.237	1237.1	generate	Run1	generate/STIM_008.jpg	100
211.402	2.132	2131.9	generate	Run1	generate/STIM_008.jpg	99
216.997	2.314	2313.5	generate	Run1	generate/STIM_008.jpg	100
221.198	2.923	2922.9	generate	Run1	generate/STIM_009.jpg	100
226.708	2.74	2740.0	generate	Run1	generate/STIM_009.jpg	99
232.261	1.322	1321.9	generate	Run1	generate/STIM_009.jpg	99
237.399	1.53	1530.2	generate	Run1	generate/STIM_009.jpg	99
242.71	1.956	1956.0	generate	Run1	generate/STIM_009.jpg	100
246.763	2.293	2292.7	generate	Run1	generate/STIM_010.jpg	99
252.287	1.444	1443.8	generate	Run1	generate/STIM_010.jpg	100
256.334	2.637	2637.4	generate	Run1	generate/STIM_010.jpg	99
261.724	1.341	1341.3	generate	Run1	generate/STIM_010.jpg	99
266.669	2.488	2488.0	generate	Run1	generate/STIM_010.jpg	99
272.737	2.195	2194.8	generate	Run1	generate/STIM_011.jpg	99
277.624	2.36	2359.7	generate	Run1	generate/STIM_011.jpg	99
282.756	1.506	1506.2	generate	Run1	generate/STIM_011.jpg	100
286.187	1.886	1885.9	generate	Run1	generate/STIM_011.jpg	99
290.325	1.523	1522.6	generate	Run1	generate/STIM_011.jpg	99
295.508	3.117	3116.8	generate	Run1	generate/STIM_012.jpg	100
300.666	3.04	3039.9	generate	Run1	generate/STIM_012.jpg	99
305.768	2.712	2712.4	generate	Run1	generate/STIM_012.jpg	99
312.219	1.902	1901.5	generate	Run1	generate/STIM_012.jpg	99
316.375	1.683	1682.9	generate	Run1	generate/STIM_012.jpg	99
321.809	2.411	2411.3	generate	Run1	generate/STIM_013.jpg	100
327.926	2.186	2186.3	generate	Run1	generate/STIM_013.jpg	100
333.253	2.929	2929.0	generate	Run1	generate/STIM_013.jpg	100
338.855	2.009	2009.4	generate	Run1	generate/STIM_013.jpg	99
344.163	1.102	1101.9	generate	Run1	generate/STIM_013.jpg	99
347.199	2.584	2583.9	generate	Run1	generate/STIM_014.jpg	99
353.012	2.792	2791.9	generate	Run1	generate/STIM_014.jpg	100
359.397	2.645	2644.6	generate	Run1	generate/STIM_014.jpg	100
363.819	1.419	1419.4	generate	Run1	generate/STIM_014.jpg	99
369.058	1.398	1397.6	generate	Run1	generate/STIM_014.jpg	99
372.572	1.452	1452.0	generate	Run1	generate/STIM_015.jpg	100
376.897	1.822	1822.2	generate	Run1	generate/STIM_015.jpg	99
382.509	1.278	1277.9	generate	Run1	generate/STIM_015.jpg	99
386.796	1.843	1842.7	generate	Run1	generate/STIM_015.jpg	100
391.401	2.505	2504.7	generate	Run1	generate/STIM_015.jpg	100
396.924	1.435	1434.8	generate	Run1	generate/STIM_016.jpg	99
400.27	1.281	1281.1	generate	Run1	generate/STIM_016.jpg	99
405.137	1.744	1743.6	generate	Run1	generate/STIM_016.jpg	100
409.632	2.193	2192.7	generate	Run1	generate/STIM_016.jpg	99
414.733	1.428	1427.7	generate	Run1	generate/STIM_016.jpg	99
418.371	2.557	2557.2	generate	Run1	generate/STIM_017.jpg	99
423.612	2.019	2019.1	generate	Run1	generate/STIM_017.jpg	100
427.593	2.488	2488.5	generate	Run1	generate/STIM_017.jpg	100
431.868	1.33	1329.7	generate	Run1	generate/STIM_017.jpg	100
435.496	1.097	1097.2	generate	Run1	generate/STIM_017.jpg	100
438.676	2.087	2086.9	generate	Run1	generate/STIM_018.jpg	100
443.278	2.704	2704.4	generate	Run1	generate/STIM_018.jpg	99
448.705	1.927	1926.7	generate	Run1	generate/STIM_018.jpg	99
452.993	1.189	1188.6	generate	Run1	generate/STIM_018.jpg	100
456.131	1.949	1948.7	generate	Run1	generate/STIM_018.jpg	99
461.557	1.377	1377.3	generate	Run1	generate/STIM_019.jpg	100
466.703	1.462	1462.0	generate	Run1	generate/STIM_019.jpg	99
471.326	1.59	1590.3	generate	Run1	generate/STIM_019.jpg	100
476.195	1.673	1673.2	generate	Run1	generate/STIM_019.jpg	100
481.686	2.649	2649.3	generate	Run1	generate/STIM_019.jpg	99
487.787	2.74	2740.0	generate	Run1	generate/STIM_020.jpg	100
492.853	2.465	2464.8	generate	Run1	generate/STIM_020.jpg	99
497.585	2.344	2344.0	generate	Run1	generate/STIM_020.jpg	100
503.132	1.184	1183.5	generate	Run1	generate/STIM_020.jpg	100
506.477	1.657	1657.0	generate	Run1	generate/STIM_020.jpg	99
511.427	1.463	1463.1	generate	Run1	generate/STIM_021.jpg	99
515.347	1.849	1848.9	generate	Run1	generate/STIM_021.jpg	99
519.092	1.694	1693.5	generate	Run1	generate/STIM_021.jpg	99
524.149	1.648	1647.6	generate	Run1	generate/STIM_021.jpg	100
529.496	2.01	2010.0	generate	Run1	generate/STIM_021.jpg	99
533.722	2.443	2443.3	generate	Run1	generate/STIM_022.jpg	99
539.731	2.442	2441.9	generate	Run1	generate/STIM_022.jpg	99
544.762	1.226	1226.2	generate	Run1	generate/STIM_022.jpg	99
548.729	2.522	2522.5	generate	Run1	generate/STIM_022.jpg	100
553.92	2.382	2382.0	generate	Run1	generate/STIM_022.jpg	99
559.646	2.465	2464.8	generate	Run1	generate/STIM_023.jpg	100
563.9	2.346	2346.1	generate	Run1	generate/STIM_023.jpg	100
568.474	1.487	1487.4	generate	Run1	generate/STIM_023.jpg	99
572.357	1.727	1726.8	generate	Run1	generate/STIM_023.jpg	99
577.404	1.679	1679.0	generate	Run1	generate/STIM_023.jpg	100
581.931	2.815	2814.7	generate	Run1	generate/STIM_024.jpg	99
587.208	1.588	1588.5	generate	Run1	generate/STIM_024.jpg	100
591.908	1.373	1372.8	generate	Run1	generate/STIM_024.jpg	100
596.428	2.141	2141.4	generate	Run1	generate/STIM_024.jpg	99
600.743	1.131	1130.8	generate	Run1	generate/STIM_024.jpg	99
604.481	1.027	1027.4	repeat	Run1	repeat/STIM_000.jpg	100
608.342	0.608	608.5	repeat	Run1	repeat/STIM_000.jpg	100
611.751	0.922	922.4	repeat	Run1	repeat/STIM_000.jpg	100
615.966	0.556	555.6	repeat	Run1	repeat/STIM_000.jpg	99
619.09	0.961	960.9	repeat	Run1	repeat/STIM_000.jpg	100
622.375	0.784	784.0	repeat	Run1	repeat/STIM_001.jpg	100
626.996	0.99	989.5	repeat	Run1	repeat/STIM_001.jpg	99
631.03	0.837	837.4	repeat	Run1	repeat/STIM_001.jpg	99
635.485	1.099	1098.7	repeat	Run1	repeat/STIM_001.jpg	100
638.673	0.775	775.2	repeat	Run1	repeat/STIM_001.jpg	100
643.065	1.05	1050.0	repeat	Run1	repeat/STIM_002.jpg	100
646.846	0.94	940.3	repeat	Run1	repeat/STIM_002.jpg	100
650.49	0.646	646.1	repeat	Run1	repeat/STIM_002.jpg	99
654.807	0.969	969.0	repeat	Run1	repeat/STIM_002.jpg	99
657.721	0.854	854.5	repeat	Run1	repeat/STIM_002.jpg	100
660.751	0.759	759.3	repeat	Run1	repeat/STIM_003.jpg	100
663.629	0.866	865.9	repeat	Run1	repeat/STIM_003.jpg	99
667.297	0.974	973.5	repeat	Run1	repeat/STIM_003.jpg	100
670.285	0.855	854.7	repeat	Run1	repeat/STIM_003.jpg	99
674.29	0.984	984.1	repeat	Run1	repeat/STIM_003.jpg	100
678.83	0.668	668.3	repeat	Run1	repeat/STIM_004.jpg	99
683.372	1.015	1015.2	repeat	Run1	repeat/STIM_004.jpg	99
687.63	0.776	776.5	repeat	Run1	repeat/STIM_004.jpg	100
692.258	0.86	860.5	repeat	Run1	repeat/STIM_004.jpg	100
695.715	0.908	908.2	repeat	Run1	repeat/STIM_004.jpg	99
698.551	0.723	723.2	repeat	Run1	repeat/STIM_005.jpg	99
701.836	0.962	962.3	repeat	Run1	repeat/STIM_005.jpg	99
706.083	1.036	1035.9	repeat	Run1	repeat/STIM_005.jpg	100
710.111	1.084	1084.4	repeat	Run1	repeat/STIM_005.jpg	100
713.597	0.769	769.3	repeat	Run1	repeat/STIM_005.jpg	99
717.252	1.083	1083.3	repeat	Run1	repeat/STIM_006.jpg	99
720.76	1.02	1019.7	repeat	Run1	repeat/STIM_006.jpg	99
724.482	0.946	945.7	repeat	Run1	repeat/STIM_006.jpg	99
729.185	0.753	753.3	repeat	Run1	repeat/STIM_006.jpg	99
733.651	0.974	973.5	repeat	Run1	repeat/STIM_006.jpg	99
737.802	0.749	749.3	repeat	Run1	repeat/STIM_007.jpg	99
741.527	0.637	636.8	repeat	Run1	repeat/STIM_007.jpg	100
744.602	0.999	999.1	repeat	Run1	repeat/STIM_007.jpg	100
748.575	1.084	1084.3	repeat	Run1	repeat/STIM_007.jpg	100
752.304	0.677	677.0	repeat	Run1	repeat/STIM_007.jpg	100
754.957	0.904	904.3	repeat	Run1	repeat/STIM_008.jpg	100
758.947	0.677	676.9	repeat	Run1	repeat/STIM_008.jpg	100
762.429	1.037	1037.4	repeat	Run1	repeat/STIM_008.jpg	99
766.034	0.658	657.9	repeat	Run1	repeat/STIM_008.jpg	100
770.581	0.767	766.6	repeat	Run1	repeat/STIM_008.jpg	99
773.817	0.606	605.6	repeat	Run1	repeat/STIM_009.jpg	99
777.35	0.888	887.8	repeat	Run1	repeat/STIM_009.jpg	100
781.751	0.989	988.7	repeat	Run1	repeat/STIM_009.jpg	100
785.49	0.996	996.3	repeat	Run1	repeat/STIM_009.jpg	100
788.858	0.689	689.3	repeat	Run1	repeat/STIM_009.jpg	100
793.317	0.973	973.4	repeat	Run1	repeat/STIM_010.jpg	100
796.46	0.834	833.8	repeat	Run1	repeat/STIM_010.jpg	100
799.749	0.669	668.7	repeat	Run1	repeat/STIM_010.jpg	100
803.843	0.856	856.3	repeat	Run1	repeat/STIM_010.jpg	99
808.047	0.923	922.9	repeat	Run1	repeat/STIM_010.jpg	99
811.395	0.954	953.6	repeat	Run1	repeat/STIM_011.jpg	99
816.093	0.599	599.0	repeat	Run1	repeat/STIM_011.jpg	100
818.961	0.927	927.3	repeat	Run1	repeat/STIM_011.jpg	99
823.042	0.648	647.6	repeat	Run1	repeat/STIM_011.jpg	99
826.298	0.751	751.4	repeat	Run1	repeat/STIM_011.jpg	99
829.245	0.914	914.2	repeat	Run1	repeat/STIM_012.jpg	100
833.816	0.886	886.0	repeat	Run1	repeat/STIM_012.jpg	99
837.097	1.017	1017.4	repeat	Run1	repeat/STIM_012.jpg	99
841.747	1.011	1010.8	repeat	Run1	repeat/STIM_012.jpg	100
845.091	0.961	960.6	repeat	Run1	repeat/STIM_012.jpg	100
848.135	0.867	866.9	repeat	Run1	repeat/STIM_013.jpg	100
852.161	0.58	579.7	repeat	Run1	repeat/STIM_013.jpg	100
855.991	1.06	1060.5	repeat	Run1	repeat/STIM_013.jpg	100
860.095	0.636	635.5	repeat	Run1	repeat/STIM_013.jpg	100
863.719	0.608	608.1	repeat	Run1	repeat/STIM_013.jpg	100
866.405	0.722	721.9	repeat	Run1	repeat/STIM_014.jpg	100
869.647	1.038	1038.5	repeat	Run1	repeat/STIM_014.jpg	99
873.302	0.773	772.8	repeat	Run1	repeat/STIM_014.jpg	100
877.695	1.013	1013.2	repeat	Run1	repeat/STIM_014.jpg	100
881.09	1.034	1033.8	repeat	Run1	repeat/STIM_014.jpg	100
884.244	1.56	1560.0	generate	Run2	generate/STIM_000.jpg	99
889.602	1.066	1066.5	generate	Run2	generate/STIM_000.jpg	99
894.213	1.145	1145.2	generate	Run2	generate/STIM_000.jpg	99
897.346	1.342	1342.5	generate	Run2	generate/STIM_000.jpg	99
901.351	1.524	1524.4	generate	Run2	generate/STIM_000.jpg	99
905.411	1.656	1655.9	generate	Run2	generate/STIM_001.jpg	99
909.327	1.252	1252.5	generate	Run2	generate/STIM_001.jpg	99
912.875	2.035	2034.7	generate	Run2	generate/STIM_001.jpg	99
918.705	1.411	1411.1	generate	Run2	generate/STIM_001.jpg	99
923.384	2.231	2231.1	generate	Run2	generate/STIM_001.jpg	100
927.64	2.443	2443.1	generate	Run2	generate/STIM_002.jpg	100
932.569	2.095	2094.8	generate	Run2	generate/STIM_002.jpg	99
938.323	2.016	2015.6	generate	Run2	generate/STIM_002.jpg	99
943.036	1.555	1555.4	generate	Run2	generate/STIM_002.jpg	100
947.789	1.522	1521.6	generate	Run2	generate/STIM_002.jpg	100
951.571	2.458	2458.2	generate	Run2	generate/STIM_003.jpg	100
957.647	1.143	1143.1	generate	Run2	generate/STIM_003.jpg	100
962.466	2.034	2034.5	generate	Run2	generate/STIM_003.jpg	99
967.372	1.388	1387.8	generate	Run2	generate/STIM_003.jpg	100
971.413	2.107	2107.0	generate	Run2	generate/STIM_003.jpg	100
976.502	1.933	1933.3	generate	Run2	generate/STIM_004.jpg	99
981.166	2.342	2342.3	generate	Run2	generate/STIM_004.jpg	100
986.482	1.496	1496.0	generate	Run2	generate/STIM_004.jpg	100
991.127	0.956	955.7	generate	Run2	generate/STIM_004.jpg	100
994.138	1.824	1823.5	generate	Run2	generate/STIM_004.jpg	100
998.482	1.334	1334.4	generate	Run2	generate/STIM_005.jpg	100
1002.552	2.184	2184.5	generate	Run2	generate/STIM_005.jpg	100
1006.975	1.172	1171.6	generate	Run2	generate/STIM_005.jpg	99
1010.399	0.965	964.7	generate	Run2	generate/STIM_005.jpg	100
1013.624	1.593	1592.7	generate	Run2	generate/STIM_005.jpg	99
1018.7	1.791	1791.3	generate	Run2	generate/STIM_006.jpg	100
1023.113	1.993	1993.0	generate	Run2	generate/STIM_006.jpg	100
1027.798	1.71	1709.5	generate	Run2	generate/STIM_006.jpg	99
1032.256	1.365	1365.1	generate	Run2	generate/STIM_006.jpg	100
1035.663	1.538	1538.3	generate	Run2	generate/STIM_006.jpg	99
1039.998	1.474	1474.0	generate	Run2	generate/STIM_007.jpg	99
1043.592	1.953	1953.0	generate	Run2	generate/STIM_007.jpg	99
1049.211	1.882	1882.0	generate	Run2	generate/STIM_007.jpg	99
1053.846	1.299	1299.0	generate	Run2	generate/STIM_007.jpg	100
1058.277	2.166	2166.0	generate	Run2	generate/STIM_007.jpg	100
1062.325	2.075	2075.2	generate	Run2	generate/STIM_008.jpg	100
1066.513	2.223	2222.7	generate	Run2	generate/STIM_008.jpg	99
1070.903	2.363	2363.0	generate	Run2	generate/STIM_008.jpg	100
1076.022	2.14	2139.6	generate	Run2	generate/STIM_008.jpg	100
1081.145	2.093	2092.9	generate	Run2	generate/STIM_008.jpg	99
1086.869	1.318	1317.7	generate	Run2	generate/STIM_009.jpg	100
1091.745	2.124	2124.5	generate	Run2	generate/STIM_009.jpg	99
1097.195	2.424	2424.1	generate	Run2	generate/STIM_009.jpg	100
1102.128	0.996	996.3	generate	Run2	generate/STIM_009.jpg	100
1105.634	1.136	1135.8	generate	Run2	generate/STIM_009.jpg	100
1109.637	2.807	2806.8	generate	Run2	generate/STIM_010.jpg	100
1116.095	2.21	2209.8	generate	Run2	generate/STIM_010.jpg	100
1120.891	2.218	2218.2	generate	Run2	generate/STIM_010.jpg	99
1125.129	1.961	1960.6	generate	Run2	generate/STIM_010.jpg	100
1130.607	1.558	1557.7	generate	Run2	generate/STIM_010.jpg	100
1135.575	2.704	2704.4	generate	Run2	generate/STIM_011.jpg	99
1140.516	1.926	1926.5	generate	Run2	generate/STIM_011.jpg	100
1144.72	2.001	2000.9	generate	Run2	generate/STIM_011.jpg	99
1150.211	1.549	1549.3	generate	Run2	generate/STIM_011.jpg	99
1154.525	1.236	1235.5	generate	Run2	generate/STIM_011.jpg	100
1157.68	1.672	1672.2	generate	Run2	generate/STIM_012.jpg	99
1162.715	1.986	1985.8	generate	Run2	generate/STIM_012.jpg	100
1166.792	1.284	1283.6	generate	Run2	generate/STIM_012.jpg	99
1171.152	1.613	1613.2	generate	Run2	generate/STIM_012.jpg	100
1175.995	2.224	2224.2	generate	Run2	generate/STIM_012.jpg	99
1181.452	1.51	1509.7	generate	Run2	generate/STIM_013.jpg	99
1186.601	2.556	2556.3	generate	Run2	generate/STIM_013.jpg	100
1191.171	2.275	2274.8	generate	Run2	generate/STIM_013.jpg	99
1195.916	2.193	2193.3	generate	Run2	generate/STIM_013.jpg	100
1200.793	1.68	1679.8	generate	Run2	generate/STIM_013.jpg	99
1206.087	1.865	1864.7	generate	Run2	generate/STIM_014.jpg	100
1210.495	1.429	1428.8	generate	Run2	generate/STIM_014.jpg	99
1214.618	1.247	1247.1	generate	Run2	generate/STIM_014.jpg	99
1218.301	2.193	2193.2	generate	Run2	generate/STIM_014.jpg	100
1223.825	1.072	1072.2	generate	Run2	generate/STIM_014.jpg	100
1227.938	1.383	1383.2	generate	Run2	generate/STIM_015.jpg	100
1232.451	1.576	1576.4	generate	Run2	generate/STIM_015.jpg	100
1237.314	2.278	2277.7	generate	Run2	generate/STIM_015.jpg	100
1241.89	1.061	1061.3	generate	Run2	generate/STIM_015.jpg	100
1246.305	1.331	1330.9	generate	Run2	generate/STIM_015.jpg	100
1249.757	1.337	1337.0	generate	Run2	generate/STIM_016.jpg	100
1254.625	1.07	1069.5	generate	Run2	generate/STIM_016.jpg	100
1258.362	1.465	1464.7	generate	Run2	generate/STIM_016.jpg	100
1262.613	2.183	2182.7	generate	Run2	generate/STIM_016.jpg	100
1267.987	1.082	1082.2	generate	Run2	generate/STIM_016.jpg	99
1271.975	1.856	1856.1	generate	Run2	generate/STIM_017.jpg	99
1276.732	1.791	1790.9	generate	Run2	generate/STIM_017.jpg	100
1281.002	1.058	1058.2	generate	Run2	generate/STIM_017.jpg	100
1284.513	1.181	1180.7	generate	Run2	generate/STIM_017.jpg	99
1288.476	1.755	1755.0	generate	Run2	generate/STIM_017.jpg	100
1293.809	2.12	2119.8	generate	Run2	generate/STIM_018.jpg	99
1299.62	1.91	1909.5	generate	Run2	generate/STIM_018.jpg	100
1305.225	1.834	1834.1	generate	Run2	generate/STIM_018.jpg	100
1309.811	1.508	1508.5	generate	Run2	generate/STIM_018.jpg	99
1313.965	1.616	1616.4	generate	Run2	generate/STIM_018.jpg	99
1318.702	1.492	1491.9	generate	Run2	generate/STIM_019.jpg	99
1322.373	1.125	1124.6	generate	Run2	generate/STIM_019.jpg	99
1325.677	1.38	1379.9	generate	Run2	generate/STIM_019.jpg	99
1330.302	1.514	1513.8	generate	Run2	generate/STIM_019.jpg	99
1335.173	1.042	1042.4	generate	Run2	generate/STIM_019.jpg	99
1339.042	2.44	2440.1	generate	Run2	generate/STIM_020.jpg	99
1343.572	1.16	1160.1	generate	Run2	generate/STIM_020.jpg	100
1348.452	1.694	1694.1	generate	Run2	generate/STIM_020.jpg	99
1352.187	1.401	1401.4	generate	Run2	generate/STIM_020.jpg	100
1356.915	1.13	1129.8	generate	Run2	generate/STIM_020.jpg	100
1360.614	1.96	1959.9	generate	Run2	generate/STIM_021.jpg	100
1364.877	1.528	1528.1	generate	Run2	generate/STIM_021.jpg	99
1369.599	1.892	1892.4	generate	Run2	generate/STIM_021.jpg	99
1373.974	2.017	2017.0	generate	Run2	generate/STIM_021.jpg	99
1378.67	1.6	1600.1	generate	Run2	generate/STIM_021.jpg	99
1382.715	2.48	2480.3	generate	Run2	generate/STIM_022.jpg	100
1388.502	1.408	1407.9	generate	Run2	generate/STIM_022.jpg	100
1393.016	1.325	1325.3	generate	Run2	generate/STIM_022.jpg	99
1396.336	2.193	2193.1	generate	Run2	generate/STIM_022.jpg	99
1401.145	1.063	1063.1	generate	Run2	generate/STIM_022.jpg	99
1404.496	1.192	1192.5	generate	Run2	generate/STIM_023.jpg	100
1407.754	1.652	1651.5	generate	Run2	generate/STIM_023.jpg	100
1411.59	1.976	1976.4	generate	Run2	generate/STIM_023.jpg	100
1416.839	1.825	1825.2	generate	Run2	generate/STIM_023.jpg	99
1422.096	1.141	1141.0	generate	Run2	generate/STIM_023.jpg	99
1426.413	1.294	1293.5	generate	Run2	generate/STIM_024.jpg	100
1430.065	1.76	1759.7	generate	Run2	generate/STIM_024.jpg	100
1435.317	1.828	1827.6	generate	Run2	generate/STIM_024.jpg	99
1440.264	1.905	1904.7	generate	Run2	generate/STIM_024.jpg	100
1444.952	1.096	1095.7	generate	Run2	generate/STIM_024.jpg	100
1448.635	0.605	605.0	repeat	Run2	repeat/STIM_000.jpg	100
1451.799	1.07	1070.0	repeat	Run2	repeat/STIM_000.jpg	100
1455.922	0.603	603.2	repeat	Run2	repeat/STIM_000.jpg	99
1460.402	0.894	894.0	repeat	Run2	repeat/STIM_000.jpg	100
1464.433	0.904	903.7	repeat	Run2	repeat/STIM_000.jpg	100
1468.836	0.644	644.0	repeat	Run2	repeat/STIM_001.jpg	100
1471.621	1.071	1071.1	repeat	Run2	repeat/STIM_001.jpg	99
1475.36	0.905	905.4	repeat	Run2	repeat/STIM_001.jpg	99
1478.197	0.673	673.4	repeat	Run2	repeat/STIM_001.jpg	99
1481.261	0.899	899.3	repeat	Run2	repeat/STIM_001.jpg	100
1484.435	0.991	990.7	repeat	Run2	repeat/STIM_002.jpg	100
1488.743	0.782	781.8	repeat	Run2	repeat/STIM_002.jpg	99
1492.019	1.074	1073.7	repeat	Run2	repeat/STIM_002.jpg	100
1496.294	0.91	910.0	repeat	Run2	repeat/STIM_002.jpg	99
1499.782	1.03	1029.6	repeat	Run2	repeat/STIM_002.jpg	99
1503.735	0.722	722.3	repeat	Run2	repeat/STIM_003.jpg	99
1507.215	0.746	746.0	repeat	Run2	repeat/STIM_003.jpg	99
1511.087	1.003	1003.0	repeat	Run2	repeat/STIM_003.jpg	100
1515.273	0.727	727.3	repeat	Run2	repeat/STIM_003.jpg	99
1519.496	0.884	883.7	repeat	Run2	repeat/STIM_003.jpg	99
1522.396	0.829	829.4	repeat	Run2	repeat/STIM_004.jpg	99
1526.598	0.768	768.4	repeat	Run2	repeat/STIM_004.jpg	99
1529.802	1.07	1069.6	repeat	Run2	repeat/STIM_004.jpg	100
1532.936	0.883	882.7	repeat	Run2	repeat/STIM_004.jpg	99
1536.998	1.081	1081.3	repeat	Run2	repeat/STIM_004.jpg	99
1541.068	0.62	620.5	repeat	Run2	repeat/STIM_005.jpg	99
1544.35	0.76	760.2	repeat	Run2	repeat/STIM_005.jpg	100
1547.746	1.038	1037.9	repeat	Run2	repeat/STIM_005.jpg	100
1551.528	0.828	827.6	repeat	Run2	repeat/STIM_005.jpg	100
1556.037	0.673	673.1	repeat	Run2	repeat/STIM_005.jpg	100
1559.261	0.852	852.2	repeat	Run2	repeat/STIM_006.jpg	100
1562.474	0.556	555.5	repeat	Run2	repeat/STIM_006.jpg	99
1565.131	0.858	858.0	repeat	Run2	repeat/STIM_006.jpg	99
1568.112	0.763	762.9	repeat	Run2	repeat/STIM_006.jpg	100
1572.375	0.91	910.5	repeat	Run2	repeat/STIM_006.jpg	100
1576.782	0.707	707.4	repeat	Run2	repeat/STIM_007.jpg	100
1579.904	0.704	703.8	repeat	Run2	repeat/STIM_007.jpg	99
1583.009	1.074	1074.4	repeat	Run2	repeat/STIM_007.jpg	99
1586.551	0.65	650.0	repeat	Run2	repeat/STIM_007.jpg	100
1590.033	0.958	958.5	repeat	Run2	repeat/STIM_007.jpg	100
1593.426	0.697	697.0	repeat	Run2	repeat/STIM_008.jpg	100
1596.533	0.868	868.5	repeat	Run2	repeat/STIM_008.jpg	99
1601.264	0.665	665.4	repeat	Run2	repeat/STIM_008.jpg	99
1604.269	0.639	639.3	repeat	Run2	repeat/STIM_008.jpg	100
1608.492	0.729	729.2	repeat	Run2	repeat/STIM_008.jpg	99
1613.121	0.775	774.8	repeat	Run2	repeat/STIM_009.jpg	99
1617.125	1.102	1102.3	repeat	Run2	repeat/STIM_009.jpg	100
1621.994	1.084	1084.3	repeat	Run2	repeat/STIM_009.jpg	99
1625.676	0.757	756.9	repeat	Run2	repeat/STIM_009.jpg	100
1630.249	1.085	1084.6	repeat	Run2	repeat/STIM_009.jpg	100
1634.855	0.568	568.0	repeat	Run2	repeat/STIM_010.jpg	99
1637.651	0.976	975.7	repeat	Run2	repeat/STIM_010.jpg	99
1641.847	0.558	558.4	repeat	Run2	repeat/STIM_010.jpg	100
1645.519	0.742	742.2	repeat	Run2	repeat/STIM_010.jpg	99
1648.551	1.065	1065.2	repeat	Run2	repeat/STIM_010.jpg	99
1653.281	0.723	723.0	repeat	Run2	repeat/STIM_011.jpg	100
1657.547	0.914	914.0	repeat	Run2	repeat/STIM_011.jpg	99
1661.902	0.924	924.3	repeat	Run2	repeat/STIM_011.jpg	99
1665.032	0.889	889.1	repeat	Run2	repeat/STIM_011.jpg	99
1668.604	0.97	970.3	repeat	Run2	repeat/STIM_011.jpg	99
1673.35	0.906	906.1	repeat	Run2	repeat/STIM_012.jpg	100
1677.049	0.683	683.1	repeat	Run2	repeat/STIM_012.jpg	99
1681.109	0.876	876.0	repeat	Run2	repeat/STIM_012.jpg	99
1684.499	0.613	613.1	repeat	Run2	repeat/STIM_012.jpg	100
1687.512	0.56	560.2	repeat	Run2	repeat/STIM_012.jpg	100
1690.769	0.995	994.6	repeat	Run2	repeat/STIM_013.jpg	100
1694.486	1.036	1036.4	repeat	Run2	repeat/STIM_013.jpg	100
1697.632	0.613	613.0	repeat	Run2	repeat/STIM_013.jpg	100
1700.535	0.914	913.8	repeat	Run2	repeat/STIM_013.jpg	100
1704.874	0.846	846.2	repeat	Run2	repeat/STIM_013.jpg	99
1708.618	0.719	719.1	repeat	Run2	repeat/STIM_014.jpg	100
1712.383	1.05	1050.2	repeat	Run2	repeat/STIM_014.jpg	100
1716.188	1.076	1076.5	repeat	Run2	repeat/STIM_014.jpg	100
1720.003	0.636	636.4	repeat	Run2	repeat/STIM_014.jpg	100
1723.973	1.02	1019.5	repeat	Run2	repeat/STIM_014.jpg	99
1726.923	1.964	1964.4	generate	Run3	generate/STIM_000.jpg	100
1731.803	1.31	1310.2	generate	Run3	generate/STIM_000.jpg	100
1735.785	1.374	1374.4	generate	Run3	generate/STIM_000.jpg	100
1740.762	1.112	1111.7	generate	Run3	generate/STIM_000.jpg	99
1745.292	1.726	1725.6	generate	Run3	generate/STIM_000.jpg	100
1749.687	1.208	1207.9	generate	Run3	generate/STIM_001.jpg	99
1754.271	1.088	1087.8	generate	Run3	generate/STIM_001.jpg	100
1758.51	1.84	1839.6	generate	Run3	generate/STIM_001.jpg	99
1763.558	1.529	1529.3	generate	Run3	generate/STIM_001.jpg	100
1767.872	1.94	1939.7	generate	Run3	generate/STIM_001.jpg	99
1772.896	2.085	2085.3	generate	Run3	generate/STIM_002.jpg	100
1777.597	1.638	1637.8	generate	Run3	generate/STIM_002.jpg	100
1781.829	1.765	1765.0	generate	Run3	generate/STIM_002.jpg	99
1787.006	2.255	2254.7	generate	Run3	generate/STIM_002.jpg	99
1791.705	1.514	1514.5	generate	Run3	generate/STIM_002.jpg	99
1795.287	1.795	1794.7	generate	Run3	generate/STIM_003.jpg	100
1800.606	1.363	1363.3	generate	Run3	generate/STIM_003.jpg	99
1804.612	1.896	1895.9	generate	Run3	generate/STIM_003.jpg	99
1810.262	1.162	1161.8	generate	Run3	generate/STIM_003.jpg	100
1813.415	1.729	1729.0	generate	Run3	generate/STIM_003.jpg	99
1818.49	2.234	2234.2	generate	Run3	generate/STIM_004.jpg	100
1824.108	1.273	1273.3	generate	Run3	generate/STIM_004.jpg	100
1828.836	1.284	1283.9	generate	Run3	generate/STIM_004.jpg	100
1832.957	1.505	1505.2	generate	Run3	generate/STIM_004.jpg	100
1836.74	1.848	1848.4	generate	Run3	generate/STIM_004.jpg	100
1841.052	1.183	1183.3	generate	Run3	generate/STIM_005.jpg	100
1844.991	1.5	1499.5	generate	Run3	generate/STIM_005.jpg	100
1849.808	1.012	1012.1	generate	Run3	generate/STIM_005.jpg	99
1854.468	1.512	1511.9	generate	Run3	generate/STIM_005.jpg	99
1859.056	1.304	1304.2	generate	Run3	generate/STIM_005.jpg	100
1862.783	1.685	1684.6	generate	Run3	generate/STIM_006.jpg	99
1866.985	2.223	2222.6	generate	Run3	generate/STIM_006.jpg	100
1871.79	2.228	2228.0	generate	Run3	generate/STIM_006.jpg	99
1877.713	1.476	1476.3	generate	Run3	generate/STIM_006.jpg	99
1883.012	1.994	1994.5	generate	Run3	generate/STIM_006.jpg	100
1887.16	1.627	1626.8	generate	Run3	generate/STIM_007.jpg	100
1890.761	0.953	952.8	generate	Run3	generate/STIM_007.jpg	99
1895.011	0.995	994.9	generate	Run3	generate/STIM_007.jpg	100
1899.113	2.108	2108.2	generate	Run3	generate/STIM_007.jpg	100
1903.132	1.778	1778.0	generate	Run3	generate/STIM_007.jpg	100
1908.357	1.899	1899.3	generate	Run3	generate/STIM_008.jpg	100
1913.174	1.722	1721.5	generate	Run3	generate/STIM_008.jpg	99
1918.346	1.414	1414.4	generate	Run3	generate/STIM_008.jpg	99
1923.243	1.262	1262.1	generate	Run3	generate/STIM_008.jpg	100
1926.491	2.155	2154.9	generate	Run3	generate/STIM_008.jpg	99
1931.781	1.34	1340.2	generate	Run3	generate/STIM_009.jpg	100
1936.679	1.577	1577.1	generate	Run3	generate/STIM_009.jpg	99
1942.05	1.936	1935.9	generate	Run3	generate/STIM_009.jpg	99
1947.397	1.718	1718.2	generate	Run3	generate/STIM_009.jpg	100
1951.817	1.222	1222.4	generate	Run3	generate/STIM_009.jpg	99
1956.414	1.066	1065.8	generate	Run3	generate/STIM_010.jpg	99
1960.992	1.338	1338.3	generate	Run3	generate/STIM_010.jpg	99
1964.95	1.206	1205.5	generate	Run3	generate/STIM_010.jpg	99
1969.572	1.484	1483.8	generate	Run3	generate/STIM_010.jpg	100
1973.117	1.445	1444.9	generate	Run3	generate/STIM_010.jpg	100
1977.398	2.083	2083.4	generate	Run3	generate/STIM_011.jpg	100
1981.656	1.734	1733.6	generate	Run3	generate/STIM_011.jpg	100
1986.54	1.487	1487.4	generate	Run3	generate/STIM_011.jpg	99
1991.128	1.449	1449.0	generate	Run3	generate/STIM_011.jpg	99
1995.022	1.466	1465.7	generate	Run3	generate/STIM_011.jpg	99
1999.457	2.282	2281.5	generate	Run3	generate/STIM_012.jpg	99
2005.429	0.986	985.8	generate	Run3	generate/STIM_012.jpg	99
2008.787	1.408	1407.6	generate	Run3	generate/STIM_012.jpg	99
2012.483	1.911	1911.4	generate	Run3	generate/STIM_012.jpg	100
2016.992	1.158	1157.6	generate	Run3	generate/STIM_012.jpg	100
2020.361	1.326	1326.2	generate	Run3	generate/STIM_013.jpg	99
2023.799	1.902	1902.3	generate	Run3	generate/STIM_013.jpg	100
2029.278	1.608	1608.5	generate	Run3	generate/STIM_013.jpg	99
2034.324	1.64	1640.4	generate	Run3	generate/STIM_013.jpg	100
2039.316	1.587	1586.7	generate	Run3	generate/STIM_013.jpg	99
2044.12	2.197	2197.2	generate	Run3	generate/STIM_014.jpg	99
2048.504	2.318	2318.1	generate	Run3	generate/STIM_014.jpg	99
2053.142	2.245	2245.1	generate	Run3	generate/STIM_014.jpg	99
2058.715	2.238	2237.6	generate	Run3	generate/STIM_014.jpg	100
2064.208	1.167	1166.8	generate	Run3	generate/STIM_014.jpg	100
2067.634	1.201	1201.1	generate	Run3	generate/STIM_015.jpg	100
2071.572	2.033	2032.5	generate	Run3	generate/STIM_015.jpg	100
2075.649	0.947	946.7	generate	Run3	generate/STIM_015.jpg	99
2078.683	1.66	1660.2	generate	Run3	generate/STIM_015.jpg	100
2082.572	1.942	1942.0	generate	Run3	generate/STIM_015.jpg	100
2086.43	1.433	1433.2	generate	Run3	generate/STIM_016.jpg	100
2091.492	2.002	2001.9	generate	Run3	generate/STIM_016.jpg	100
2097.177	2.177	2177.4	generate	Run3	generate/STIM_016.jpg	100
2102.731	1.997	1996.9	generate	Run3	generate/STIM_016.jpg	100
2107.505	1.812	1811.8	generate	Run3	generate/STIM_016.jpg	99
2111.196	2.014	2014.0	generate	Run3	generate/STIM_017.jpg	100
2115.271	1.718	1717.5	generate	Run3	generate/STIM_017.jpg	100
2119.282	1.451	1450.7	generate	Run3	generate/STIM_017.jpg	100
2123.736	1.218	1218.0	generate	Run3	generate/STIM_017.jpg	100
2127.291	1.439	1439.2	generate	Run3	generate/STIM_017.jpg	99
2132.436	2.213	2213.0	generate	Run3	generate/STIM_018.jpg	99
2137.231	1.564	1563.8	generate	Run3	generate/STIM_018.jpg	100
2142.222	1.85	1850.4	generate	Run3	generate/STIM_018.jpg	99
2145.983	1.116	1115.6	generate	Run3	generate/STIM_018.jpg	100
2149.281	2.265	2264.8	generate	Run3	generate/STIM_018.jpg	100
2153.591	0.958	958.1	generate	Run3	generate/STIM_019.jpg	100
2157.197	2.068	2067.9	generate	Run3	generate/STIM_019.jpg	100
2162.28	1.834	1834.4	generate	Run3	generate/STIM_019.jpg	99
2167.763	1.73	1729.8	generate	Run3	generate/STIM_019.jpg	99
2171.941	1.602	1602.1	generate	Run3	generate/STIM_019.jpg	99
2177.32	2.071	2071.2	generate	Run3	generate/STIM_020.jpg	99
2183.096	1.869	1868.8	generate	Run3	generate/STIM_020.jpg	99
2188.538	1.502	1501.5	generate	Run3	generate/STIM_020.jpg	100
2193.775	1.213	1213.4	generate	Run3	generate/STIM_020.jpg	100
2197.287	1.754	1754.1	generate	Run3	generate/STIM_020.jpg	100
2201.368	2.282	2282.3	generate	Run3	generate/STIM_021.jpg	100
2205.683	1.082	1081.9	generate	Run3	generate/STIM_021.jpg	99
2208.944	1.747	1746.6	generate	Run3	generate/STIM_021.jpg	99
2212.879	2.299	2299.4	generate	Run3	generate/STIM_021.jpg	99
2218.55	1.486	1486.3	generate	Run3	generate/STIM_021.jpg	99
2222.663	2.197	2196.9	generate	Run3	generate/STIM_022.jpg	99
2226.922	1.481	1480.7	generate	Run3	generate/STIM_022.jpg	100
2231.528	2.126	2125.8	generate	Run3	generate/STIM_022.jpg	100
2236.987	1.872	1871.8	generate	Run3	generate/STIM_022.jpg	100
2242.281	0.941	941.1	generate	Run3	generate/STIM_022.jpg	100
2246.937	1.766	1766.0	generate	Run3	generate/STIM_023.jpg	100
2252.352	1.319	1319.4	generate	Run3	generate/STIM_023.jpg	99
2256.901	2.217	2216.6	generate	Run3	generate/STIM_023.jpg	99
2261.068	1.322	1321.6	generate	Run3	generate/STIM_023.jpg	100
2264.899	1.47	1469.6	generate	Run3	generate/STIM_023.jpg	99
2269.871	0.956	956.0	generate	Run3	generate/STIM_024.jpg	100
2273.663	2.04	2039.9	generate	Run3	generate/STIM_024.jpg	100
2278.907	1.571	1570.6	generate	Run3	generate/STIM_024.jpg	99
2282.338	1.706	1705.8	generate	Run3	generate/STIM_024.jpg	100
2286.5	1.657	1657.4	generate	Run3	generate/STIM_024.jpg	99
2290.411	0.95	950.4	repeat	Run3	repeat/STIM_000.jpg	99
2294.229	1.097	1096.9	repeat	Run3	repeat/STIM_000.jpg	99
2297.701	1.102	1101.5	repeat	Run3	repeat/STIM_000.jpg	99
2301.363	0.65	649.5	repeat	Run3	repeat/STIM_000.jpg	100
2304.909	0.778	777.9	repeat	Run3	repeat/STIM_000.jpg	100
2308.802	0.71	710.1	repeat	Run3	repeat/STIM_001.jpg	100
2311.532	0.616	616.5	repeat	Run3	repeat/STIM_001.jpg	99
2315.91	0.634	634.1	repeat	Run3	repeat/STIM_001.jpg	100
2319.59	0.742	742.2	repeat	Run3	repeat/STIM_001.jpg	99
2322.49	0.876	876.4	repeat	Run3	repeat/STIM_001.jpg	100
2326.969	0.969	968.8	repeat	Run3	repeat/STIM_002.jpg	99
2329.854	0.86	860.4	repeat	Run3	repeat/STIM_002.jpg	100
2334.077	0.892	891.9	repeat	Run3	repeat/STIM_002.jpg	100
2338.814	0.718	718.4	repeat	Run3	repeat/STIM_002.jpg	100
2342.067	0.746	746.3	repeat	Run3	repeat/STIM_002.jpg	99
2345.228	0.959	959.3	repeat	Run3	repeat/STIM_003.jpg	100
2349.147	0.699	699.3	repeat	Run3	repeat/STIM_003.jpg	99
2351.929	0.728	728.1	repeat	Run3	repeat/STIM_003.jpg	99
2356.237	0.601	600.8	repeat	Run3	repeat/STIM_003.jpg	100
2360.354	0.73	729.7	repeat	Run3	repeat/STIM_003.jpg	99
2363.603	1.056	1056.2	repeat	Run3	repeat/STIM_004.jpg	99
2366.758	0.97	969.9	repeat	Run3	repeat/STIM_004.jpg	99
2369.687	0.694	693.9	repeat	Run3	repeat/STIM_004.jpg	100
2374.235	0.769	768.8	repeat	Run3	repeat/STIM_004.jpg	100
2377.482	0.665	665.4	repeat	Run3	repeat/STIM_004.jpg	100
2381.764	0.657	656.9	repeat	Run3	repeat/STIM_005.jpg	99
2384.526	0.987	986.9	repeat	Run3	repeat/STIM_005.jpg	99
2389.026	0.858	857.9	repeat	Run3	repeat/STIM_005.jpg	100
2393.283	1.025	1025.2	repeat	Run3	repeat/STIM_005.jpg	100
2397.033	0.842	841.7	repeat	Run3	repeat/STIM_005.jpg	100
2401.292	0.778	777.9	repeat	Run3	repeat/STIM_006.jpg	99
2405.796	0.91	910.4	repeat	Run3	repeat/STIM_006.jpg	100
2409.127	0.694	693.8	repeat	Run3	repeat/STIM_006.jpg	100
2413.328	0.744	744.0	repeat	Run3	repeat/STIM_006.jpg	99
2416.18	0.656	656.3	repeat	Run3	repeat/STIM_006.jpg	99
2419.609	0.996	996.2	repeat	Run3	repeat/STIM_007.jpg	99
2423.065	0.887	887.4	repeat	Run3	repeat/STIM_007.jpg	100
2426.01	0.636	635.6	repeat	Run3	repeat/STIM_007.jpg	100
2430.156	0.746	745.7	repeat	Run3	repeat/STIM_007.jpg	99
2434.305	0.718	718.0	repeat	Run3	repeat/STIM_007.jpg	100
2437.598	0.61	610.3	repeat	Run3	repeat/STIM_008.jpg	100
2441.153	0.806	805.5	repeat	Run3	repeat/STIM_008.jpg	100
2444.105	0.952	952.0	repeat	Run3	repeat/STIM_008.jpg	100
2448.672	0.96	959.9	repeat	Run3	repeat/STIM_008.jpg	100
2452.994	0.646	645.9	repeat	Run3	repeat/STIM_008.jpg	100
2457.46	0.828	827.5	repeat	Run3	repeat/STIM_009.jpg	99
2460.715	1.001	1000.6	repeat	Run3	repeat/STIM_009.jpg	99
2463.817	0.871	871.0	repeat	Run3	repeat/STIM_009.jpg	99
2467.679	0.892	891.9	repeat	Run3	repeat/STIM_009.jpg	99
2471.695	0.996	996.1	repeat	Run3	repeat/STIM_009.jpg	99
2475.898	1.01	1010.5	repeat	Run3	repeat/STIM_010.jpg	99
2480.69	0.937	937.2	repeat	Run3	repeat/STIM_010.jpg	100
2485.317	0.746	745.8	repeat	Run3	repeat/STIM_010.jpg	100
2488.357	0.93	930.5	repeat	Run3	repeat/STIM_010.jpg	99
2491.645	0.731	730.7	repeat	Run3	repeat/STIM_010.jpg	100
2494.927	1.039	1039.3	repeat	Run3	repeat/STIM_011.jpg	99
2499.712	0.763	762.8	repeat	Run3	repeat/STIM_011.jpg	100
2503.134	0.936	936.5	repeat	Run3	repeat/STIM_011.jpg	99
2506.588	0.878	877.9	repeat	Run3	repeat/STIM_011.jpg	100
2511.356	1.03	1029.6	repeat	Run3	repeat/STIM_011.jpg	100
2515.772	0.755	755.0	repeat	Run3	repeat/STIM_012.jpg	99
2519.147	0.695	694.7	repeat	Run3	repeat/STIM_012.jpg	99
2523.383	0.741	741.0	repeat	Run3	repeat/STIM_012.jpg	100
2526.303	1.083	1082.6	repeat	Run3	repeat/STIM_012.jpg	99
2529.806	0.934	934.1	repeat	Run3	repeat/STIM_012.jpg	99
2533.368	0.75	750.5	repeat	Run3	repeat/STIM_013.jpg	100
2537.692	0.687	686.7	repeat	Run3	repeat/STIM_013.jpg	99
2542.312	0.992	992.1	repeat	Run3	repeat/STIM_013.jpg	100
2546.574	0.643	643.2	repeat	Run3	repeat/STIM_013.jpg	100
2549.897	0.936	936.0	repeat	Run3	repeat/STIM_013.jpg	99
2554.069	0.801	801.2	repeat	Run3	repeat/STIM_014.jpg	99
2557.239	0.714	714.0	repeat	Run3	repeat/STIM_014.jpg	100
2560.074	0.68	680.0	repeat	Run3	repeat/STIM_014.jpg	99
2563.287	1.012	1011.8	repeat	Run3	repeat/STIM_014.jpg	99
2566.236	0.79	790.4	repeat	Run3	repeat/STIM_014.jpg	99
2569.208	1.763	1763.1	generate	Run4	generate/STIM_000.jpg	100
2573.73	1.504	1504.4	generate	Run4	generate/STIM_000.jpg	100
2577.262	1.944	1943.9	generate	Run4	generate/STIM_000.jpg	100
2581.025	1.295	1295.1	generate	Run4	generate/STIM_000.jpg	99
2584.804	1.124	1123.7	generate	Run4	generate/STIM_000.jpg	99
2589.505	1.938	1937.6	generate	Run4	generate/STIM_001.jpg	99
2593.668	1.152	1151.8	generate	Run4	generate/STIM_001.jpg	100
2597.283	1.447	1447.1	generate	Run4	generate/STIM_001.jpg	100
2601.173	1.52	1520.2	generate	Run4	generate/STIM_001.jpg	99
2604.668	1.974	1973.5	generate	Run4	generate/STIM_001.jpg	99
2609.214	2.209	2209.1	generate	Run4	generate/STIM_002.jpg	100
2614.144	1.555	1555.0	generate	Run4	generate/STIM_002.jpg	100
2618.457	1.363	1362.9	generate	Run4	generate/STIM_002.jpg	99
2622.955	1.445	1444.8	generate	Run4	generate/STIM_002.jpg	100
2627.336	2.229	2228.6	generate	Run4	generate/STIM_002.jpg	100
2633.233	1.949	1948.8	generate	Run4	generate/STIM_003.jpg	100
2638.445	2.19	2189.5	generate	Run4	generate/STIM_003.jpg	100
2644.109	1.48	1479.8	generate	Run4	generate/STIM_003.jpg	99
2649.245	1.169	1168.7	generate	Run4	generate/STIM_003.jpg	99
2654.0	1.911	1910.7	generate	Run4	generate/STIM_003.jpg	99
2659.333	1.466	1465.7	generate	Run4	generate/STIM_004.jpg	99
2663.184	1.77	1770.2	generate	Run4	generate/STIM_004.jpg	99
2667.678	1.972	1971.7	generate	Run4	generate/STIM_004.jpg	100
2673.348	1.278	1277.8	generate	Run4	generate/STIM_004.jpg	100
2676.559	1.137	1136.7	generate	Run4	generate/STIM_004.jpg	100
2681.473	1.356	1355.7	generate	Run4	generate/STIM_005.jpg	99
2685.754	2.146	2145.5	generate	Run4	generate/STIM_005.jpg	100
2690.98	1.693	1692.9	generate	Run4	generate/STIM_005.jpg	99
2696.242	2.122	2121.7	generate	Run4	generate/STIM_005.jpg	99
2700.263	1.724	1724.0	generate	Run4	generate/STIM_005.jpg	99
2705.31	1.816	1816.3	generate	Run4	generate/STIM_006.jpg	99
2710.802	1.029	1028.9	generate	Run4	generate/STIM_006.jpg	100
2714.416	1.174	1174.1	generate	Run4	generate/STIM_006.jpg	99
2718.334	2.09	2089.8	generate	Run4	generate/STIM_006.jpg	100
2723.253	1.282	1281.7	generate	Run4	generate/STIM_006.jpg	99
2727.518	0.933	932.9	generate	Run4	generate/STIM_007.jpg	100
2730.387	2.199	2199.0	generate	Run4	generate/STIM_007.jpg	99
2734.821	2.273	2273.2	generate	Run4	generate/STIM_007.jpg	99
2739.267	1.401	1400.7	generate	Run4	generate/STIM_007.jpg	100
2744.466	1.504	1503.5	generate	Run4	generate/STIM_007.jpg	100
2748.876	1.814	1814.5	generate	Run4	generate/STIM_008.jpg	100
2753.215	1.645	1645.3	generate	Run4	generate/STIM_008.jpg	100
2758.43	1.838	1838.3	generate	Run4	generate/STIM_008.jpg	99
2762.793	1.941	1941.0	generate	Run4	generate/STIM_008.jpg	100
2767.768	1.533	1532.8	generate	Run4	generate/STIM_008.jpg	100
2771.494	0.995	995.2	generate	Run4	generate/STIM_009.jpg	99
2774.903	1.145	1144.9	generate	Run4	generate/STIM_009.jpg	100
2779.595	1.883	1882.9	generate	Run4	generate/STIM_009.jpg	99
2783.323	1.615	1615.0	generate	Run4	generate/STIM_009.jpg	100
2788.443	1.004	1004.4	generate	Run4	generate/STIM_009.jpg	99
2792.96	2.141	2140.7	generate	Run4	generate/STIM_010.jpg	99
2797.827	1.659	1659.1	generate	Run4	generate/STIM_010.jpg	99
2802.242	1.946	1945.5	generate	Run4	generate/STIM_010.jpg	99
2807.854	1.879	1879.0	generate	Run4	generate/STIM_010.jpg	99
2811.748	1.05	1050.0	generate	Run4	generate/STIM_010.jpg	100
2814.99	1.696	1696.5	generate	Run4	generate/STIM_011.jpg	100
2820.131	1.716	1715.6	generate	Run4	generate/STIM_011.jpg	100
2825.318	1.149	1148.8	generate	Run4	generate/STIM_011.jpg	99
2829.515	1.269	1269.2	generate	Run4	generate/STIM_011.jpg	99
2833.936	1.59	1590.0	generate	Run4	generate/STIM_011.jpg	100
2837.508	0.985	985.1	generate	Run4	generate/STIM_012.jpg	99
2840.706	2.023	2022.9	generate	Run4	generate/STIM_012.jpg	99
2845.861	1.155	1155.1	generate	Run4	generate/STIM_012.jpg	99
2849.086	1.003	1002.7	generate	Run4	generate/STIM_012.jpg	99
2852.525	2.095	2095.0	generate	Run4	generate/STIM_012.jpg	100
2856.647	1.34	1339.8	generate	Run4	generate/STIM_013.jpg	99
2860.641	1.368	1367.9	generate	Run4	generate/STIM_013.jpg	99
2865.854	1.416	1415.5	generate	Run4	generate/STIM_013.jpg	100
2869.866	1.972	1971.9	generate	Run4	generate/STIM_013.jpg	99
2875.484	1.964	1963.9	generate	Run4	generate/STIM_013.jpg	99
2879.717	1.901	1901.3	generate	Run4	generate/STIM_014.jpg	99
2883.48	1.354	1354.4	generate	Run4	generate/STIM_014.jpg	100
2887.891	1.402	1402.4	generate	Run4	generate/STIM_014.jpg	99
2892.173	0.98	980.3	generate	Run4	generate/STIM_014.jpg	100
2895.88	2.228	2228.0	generate	Run4	generate/STIM_014.jpg	100
2901.705	2.075	2075.1	generate	Run4	generate/STIM_015.jpg	99
2906.85	1.874	1874.0	generate	Run4	generate/STIM_015.jpg	99
2912.109	1.054	1053.7	generate	Run4	generate/STIM_015.jpg	100
2917.056	2.308	2308.3	generate	Run4	generate/STIM_015.jpg	99
2921.15	1.552	1552.2	generate	Run4	generate/STIM_015.jpg	100
2925.519	1.111	1110.6	generate	Run4	generate/STIM_016.jpg	100
2929.075	1.844	1844.2	generate	Run4	generate/STIM_016.jpg	99
2933.382	2.213	2212.7	generate	Run4	generate/STIM_016.jpg	100
2938.606	2.198	2198.2	generate	Run4	generate/STIM_016.jpg	99
2943.407	1.835	1834.6	generate	Run4	generate/STIM_016.jpg	100
2947.76	1.384	1383.5	generate	Run4	generate/STIM_017.jpg	99
2951.256	1.563	1563.2	generate	Run4	generate/STIM_017.jpg	99
2956.45	2.133	2132.8	generate	Run4	generate/STIM_017.jpg	100
2961.483	1.213	1212.9	generate	Run4	generate/STIM_017.jpg	100
2966.43	2.075	2075.1	generate	Run4	generate/STIM_017.jpg	99
2971.866	1.274	1274.5	generate	Run4	generate/STIM_018.jpg	100
2976.92	1.349	1349.4	generate	Run4	generate/STIM_018.jpg	100
2980.653	1.92	1920.0	generate	Run4	generate/STIM_018.jpg	100
2985.109	2.046	2046.3	generate	Run4	generate/STIM_018.jpg	100
2989.167	1.112	1112.1	generate	Run4	generate/STIM_018.jpg	99
2994.074	1.36	1360.5	generate	Run4	generate/STIM_019.jpg	99
2997.447	1.066	1066.3	generate	Run4	generate/STIM_019.jpg	100
3001.334	1.008	1007.9	generate	Run4	generate/STIM_019.jpg	99
3004.563	1.964	1963.8	generate	Run4	generate/STIM_019.jpg	100
3009.888	2.143	2142.9	generate	Run4	generate/STIM_019.jpg	100
3013.89	1.456	1456.0	generate	Run4	generate/STIM_020.jpg	99
3018.97	1.264	1263.5	generate	Run4	generate/STIM_020.jpg	99
3022.558	1.86	1859.6	generate	Run4	generate/STIM_020.jpg	99
3028.017	1.292	1292.0	generate	Run4	generate/STIM_020.jpg	99
3031.299	1.288	1288.2	generate	Run4	generate/STIM_020.jpg	100
3034.949	1.246	1245.5	generate	Run4	generate/STIM_021.jpg	99
3039.889	2.299	2299.0	generate	Run4	generate/STIM_021.jpg	99
3045.49	1.038	1037.9	generate	Run4	generate/STIM_021.jpg	100
3049.927	1.181	1181.0	generate	Run4	generate/STIM_021.jpg	99
3053.771	1.929	1928.8	generate	Run4	generate/STIM_021.jpg	100
3058.835	1.904	1903.6	generate	Run4	generate/STIM_022.jpg	100
3064.312	1.825	1825.3	generate	Run4	generate/STIM_022.jpg	100
3068.27	1.454	1453.8	generate	Run4	generate/STIM_022.jpg	100
3072.241	2.288	2287.9	generate	Run4	generate/STIM_022.jpg	99
3078.228	2.005	2005.4	generate	Run4	generate/STIM_022.jpg	99
3083.902	1.031	1030.9	generate	Run4	generate/STIM_023.jpg	99
3086.913	1.221	1220.8	generate	Run4	generate/STIM_023.jpg	100
3091.633	1.92	1920.4	generate	Run4	generate/STIM_023.jpg	100
3096.8	1.032	1031.8	generate	Run4	generate/STIM_023.jpg	100
3100.81	1.574	1574.4	generate	Run4	generate/STIM_023.jpg	99
3104.751	2.2	2200.0	generate	Run4	generate/STIM_024.jpg	100
3109.094	1.386	1386.5	generate	Run4	generate/STIM_024.jpg	100
3114.184	1.446	1445.7	generate	Run4	generate/STIM_024.jpg	100
3118.155	1.139	1138.9	generate	Run4	generate/STIM_024.jpg	99
3121.97	1.467	1467.0	generate	Run4	generate/STIM_024.jpg	100
3125.392	0.969	969.0	repeat	Run4	repeat/STIM_000.jpg	99
3130.053	1.051	1050.9	repeat	Run4	repeat/STIM_000.jpg	100
3133.835	0.873	873.2	repeat	Run4	repeat/STIM_000.jpg	99
3136.907	1.103	1103.0	repeat	Run4	repeat/STIM_000.jpg	100
3140.351	0.586	586.1	repeat	Run4	repeat/STIM_000.jpg	100
3144.632	1.081	1080.6	repeat	Run4	repeat/STIM_001.jpg	100
3148.321	0.563	562.8	repeat	Run4	repeat/STIM_001.jpg	99
3151.593	1.076	1076.2	repeat	Run4	repeat/STIM_001.jpg	99
3154.957	0.654	654.4	repeat	Run4	repeat/STIM_001.jpg	99
3157.687	1.09	1090.1	repeat	Run4	repeat/STIM_001.jpg	99
3161.588	0.62	619.8	repeat	Run4	repeat/STIM_002.jpg	100
3165.476	0.581	580.6	repeat	Run4	repeat/STIM_002.jpg	100
3169.136	0.629	628.9	repeat	Run4	repeat/STIM_002.jpg	100
3171.76	0.934	934.2	repeat	Run4	repeat/STIM_002.jpg	100
3176.374	0.921	920.7	repeat	Run4	repeat/STIM_002.jpg	100
3179.807	0.578	578.2	repeat	Run4	repeat/STIM_003.jpg	100
3183.295	1.036	1036.5	repeat	Run4	repeat/STIM_003.jpg	99
3186.826	0.947	947.0	repeat	Run4	repeat/STIM_003.jpg	100
3190.305	1.028	1027.9	repeat	Run4	repeat/STIM_003.jpg	100
3195.029	0.805	805.0	repeat	Run4	repeat/STIM_003.jpg	99
3198.992	1.047	1046.6	repeat	Run4	repeat/STIM_004.jpg	100
3202.653	0.689	688.7	repeat	Run4	repeat/STIM_004.jpg	100
3205.461	0.808	808.0	repeat	Run4	repeat/STIM_004.jpg	100
3209.445	0.656	656.2	repeat	Run4	repeat/STIM_004.jpg	100
3212.556	0.567	566.9	repeat	Run4	repeat/STIM_004.jpg	100
3215.862	0.62	619.5	repeat	Run4	repeat/STIM_005.jpg	100
3220.379	0.817	816.6	repeat	Run4	repeat/STIM_005.jpg	99
3224.081	0.715	715.0	repeat	Run4	repeat/STIM_005.jpg	99
3227.319	0.925	925.1	repeat	Run4	repeat/STIM_005.jpg	99
3230.647	0.987	986.9	repeat	Run4	repeat/STIM_005.jpg	100
3233.567	0.812	811.8	repeat	Run4	repeat/STIM_006.jpg	99
3237.327	0.695	694.6	repeat	Run4	repeat/STIM_006.jpg	99
3240.072	1.044	1043.7	repeat	Run4	repeat/STIM_006.jpg	100
3243.737	0.565	564.7	repeat	Run4	repeat/STIM_006.jpg	99
3247.599	0.724	723.6	repeat	Run4	repeat/STIM_006.jpg	100
3251.779	0.673	672.8	repeat	Run4	repeat/STIM_007.jpg	100
3255.43	1.056	1055.7	repeat	Run4	repeat/STIM_007.jpg	100
3259.653	1.104	1103.6	repeat	Run4	repeat/STIM_007.jpg	100
3263.48	0.902	901.7	repeat	Run4	repeat/STIM_007.jpg	100
3266.577	0.937	936.8	repeat	Run4	repeat/STIM_007.jpg	100
3270.657	0.73	729.5	repeat	Run4	repeat/STIM_008.jpg	100
3274.606	0.822	821.7	repeat	Run4	repeat/STIM_008.jpg	100
3277.856	0.678	678.2	repeat	Run4	repeat/STIM_008.jpg	99
3281.99	0.616	616.5	repeat	Run4	repeat/STIM_008.jpg	100
3285.823	1.063	1062.6	repeat	Run4	repeat/STIM_008.jpg	99
3289.641	0.75	750.5	repeat	Run4	repeat/STIM_009.jpg	99
3293.152	0.635	634.8	repeat	Run4	repeat/STIM_009.jpg	100
3297.722	0.704	703.6	repeat	Run4	repeat/STIM_009.jpg	99
3300.674	0.866	866.1	repeat	Run4	repeat/STIM_009.jpg	100
3304.256	0.829	829.3	repeat	Run4	repeat/STIM_009.jpg	100
3308.662	0.975	975.2	repeat	Run4	repeat/STIM_010.jpg	100
3313.445	1.071	1070.8	repeat	Run4	repeat/STIM_010.jpg	99
3318.024	0.889	888.6	repeat	Run4	repeat/STIM_010.jpg	99
3321.241	1.102	1101.6	repeat	Run4	repeat/STIM_010.jpg	99
3325.906	0.906	905.8	repeat	Run4	repeat/STIM_010.jpg	99
3329.751	0.633	633.0	repeat	Run4	repeat/STIM_011.jpg	99
3333.212	0.738	738.2	repeat	Run4	repeat/STIM_011.jpg	100
3336.304	0.779	778.7	repeat	Run4	repeat/STIM_011.jpg	99
3340.469	0.662	662.3	repeat	Run4	repeat/STIM_011.jpg	100
3344.947	1.006	1006.5	repeat	Run4	repeat/STIM_011.jpg	100
3349.331	0.805	805.3	repeat	Run4	repeat/STIM_012.jpg	100
3353.493	0.845	845.1	repeat	Run4	repeat/STIM_012.jpg	100
3357.161	0.775	774.7	repeat	Run4	repeat/STIM_012.jpg	99
3360.62	0.66	660.1	repeat	Run4	repeat/STIM_012.jpg	99
3363.658	0.998	998.1	repeat	Run4	repeat/STIM_012.jpg	100
3366.765	0.927	926.8	repeat	Run4	repeat/STIM_013.jpg	99
3369.887	0.638	638.4	repeat	Run4	repeat/STIM_013.jpg	100
3374.011	0.826	825.5	repeat	Run4	repeat/STIM_013.jpg	100
3378.617	0.918	917.5	repeat	Run4	repeat/STIM_013.jpg	100
3382.066	0.774	774.0	repeat	Run4	repeat/STIM_013.jpg	99
3386.62	1.048	1047.6	repeat	Run4	repeat/STIM_014.jpg	100
3391.502	0.681	681.0	repeat	Run4	repeat/STIM_014.jpg	99
3394.124	0.942	942.1	repeat	Run4	repeat/STIM_014.jpg	99
3397.415	0.713	713.4	repeat	Run4	repeat/STIM_014.jpg	100
3402.003	1.004	1004.4	repeat	Run4	repeat/STIM_014.jpg	99
