onset	duration	accuracy_binary	trial_type	learning_stage	stimulus
0.0	2.339	0	generate	Run1	generate/STIM_000.jpg
4.37	1.597	1	generate	Run1	generate/STIM_000.jpg
9.345	1.681	1	generate	Run1	generate/STIM_000.jpg
14.506	1.756	1	generate	Run1	generate/STIM_000.jpg
18.894	2.02	1	generate	Run1	generate/STIM_000.jpg
24.139	2.065	0	generate	Run1	generate/STIM_001.jpg
29.859	2.528	1	generate	Run1	generate/STIM_001.jpg
35.707	2.062	1	generate	Run1	generate/STIM_001.jpg
41.504	1.504	1	generate	Run1	generate/STIM_001.jpg
45.608	2.806	1	generate	Run1	generate/STIM_001.jpg
50.677	1.545	1	generate	Run1	generate/STIM_002.jpg
55.649	3.289	0	generate	Run1	generate/STIM_002.jpg
61.907	2.612	1	generate	Run1	generate/STIM_002.jpg
66.7	2.346	1	generate	Run1	generate/STIM_002.jpg
71.369	1.75	1	generate	Run1	generate/STIM_002.jpg
76.829	3.084	1	generate	Run1	generate/STIM_003.jpg
82.867	2.78	1	generate	Run1	generate/STIM_003.jpg
89.384	1.558	1	generate	Run1	generate/STIM_003.jpg
94.816	2.359	1	generate	Run1	generate/STIM_003.jpg
101.092	1.366	1	generate	Run1	generate/STIM_003.jpg
104.865	3.184	1	generate	Run1	generate/STIM_004.jpg
111.237	2.593	0	generate	Run1	generate/STIM_004.jpg
115.994	2.321	1	generate	Run1	generate/STIM_004.jpg
121.157	2.738	0	generate	Run1	generate/STIM_004.jpg
126.001	1.339	0	generate	Run1	generate/STIM_004.jpg
130.611	2.105	1	generate	Run1	generate/STIM_005.jpg
135.672	1.688	1	generate	Run1	generate/STIM_005.jpg
140.496	2.294	1	generate	Run1	generate/STIM_005.jpg
145.282	1.252	1	generate	Run1	generate/STIM_005.jpg
149.124	2.351	1	generate	Run1	generate/STIM_005.jpg
154.799	2.397	1	generate	Run1	generate/STIM_006.jpg
160.925	2.995	1	generate	Run1	generate/STIM_006.jpg
166.359	1.839	1	generate	Run1	generate/STIM_006.jpg
171.145	2.281	1	generate	Run1	generate/STIM_006.jpg
175.893	2.688	1	generate	Run1	generate/STIM_006.jpg
181.481	1.448	1	generate	Run1	generate/STIM_007.jpg
186.849	2.44	1	generate	Run1	generate/STIM_007.jpg
192.109	1.524	1	generate	Run1	generate/STIM_007.jpg
195.719	2.967	1	generate	Run1	generate/STIM_007.jpg
202.43	1.492	1	generate	Run1	generate/STIM_007.jpg
206.419	2.434	1	generate	Run1	generate/STIM_008.jpg
211.469	1.906	0	generate	Run1	generate/STIM_008.jpg
217.168	2.071	1	generate	Run1	generate/STIM_008.jpg
222.956	1.868	1	generate	Run1	generate/STIM_008.jpg
227.437	1.682	0	generate	Run1	generate/STIM_008.jpg
231.325	3.528	1	generate	Run1	generate/STIM_009.jpg
237.459	3.286	0	generate	Run1	generate/STIM_009.jpg
243.364	2.844	0	generate	Run1	generate/STIM_009.jpg
249.171	2.552	1	generate	Run1	generate/STIM_009.jpg
254.304	2.539	0	generate	Run1	generate/STIM_009.jpg
259.856	1.742	1	generate	Run1	generate/STIM_010.jpg
264.695	1.429	1	generate	Run1	generate/STIM_010.jpg
269.007	1.674	0	generate	Run1	generate/STIM_010.jpg
274.051	1.206	1	generate	Run1	generate/STIM_010.jpg
278.799	1.405	1	generate	Run1	generate/STIM_010.jpg
283.223	3.209	1	generate	Run1	generate/STIM_011.jpg
288.481	2.199	1	generate	Run1	generate/STIM_011.jpg
293.72	2.125	0	generate	Run1	generate/STIM_011.jpg
299.033	2.597	1	generate	Run1	generate/STIM_011.jpg
305.563	2.266	1	generate	Run1	generate/STIM_011.jpg
310.129	2.053	0	generate	Run1	generate/STIM_012.jpg
316.012	2.021	1	generate	Run1	generate/STIM_012.jpg
321.317	3.122	1	generate	Run1	generate/STIM_012.jpg
328.269	1.379	1	generate	Run1	generate/STIM_012.jpg
333.069	1.462	1	generate	Run1	generate/STIM_012.jpg
337.78	1.926	1	generate	Run1	generate/STIM_013.jpg
343.418	2.474	1	generate	Run1	generate/STIM_013.jpg
348.902	2.005	1	generate	Run1	generate/STIM_013.jpg
353.317	2.776	1	generate	Run1	generate/STIM_013.jpg
358.882	2.028	1	generate	Run1	generate/STIM_013.jpg
364.376	2.363	1	generate	Run1	generate/STIM_014.jpg
369.266	1.765	1	generate	Run1	generate/STIM_014.jpg
373.211	2.672	1	generate	Run1	generate/STIM_014.jpg
379.327	1.883	1	generate	Run1	generate/STIM_014.jpg
384.736	1.298	1	generate	Run1	generate/STIM_014.jpg
388.456	1.495	1	generate	Run1	generate/STIM_015.jpg
393.24	1.84	1	generate	Run1	generate/STIM_015.jpg
397.709	3.083	1	generate	Run1	generate/STIM_015.jpg
402.979	2.996	1	generate	Run1	generate/STIM_015.jpg
409.104	2.224	1	generate	Run1	generate/STIM_015.jpg
413.815	2.913	1	generate	Run1	generate/STIM_016.jpg
419.287	1.93	1	generate	Run1	generate/STIM_016.jpg
423.99	3.057	1	generate	Run1	generate/STIM_016.jpg
429.268	2.524	0	generate	Run1	generate/STIM_016.jpg
435.228	1.304	1	generate	Run1	generate/STIM_016.jpg
439.795	2.742	1	generate	Run1	generate/STIM_017.jpg
445.263	3.072	0	generate	Run1	generate/STIM_017.jpg
451.325	1.584	1	generate	Run1	generate/STIM_017.jpg
456.841	2.915	1	generate	Run1	generate/STIM_017.jpg
462.783	1.953	1	generate	Run1	generate/STIM_017.jpg
467.515	3.268	1	generate	Run1	generate/STIM_018.jpg
472.9	1.726	1	generate	Run1	generate/STIM_018.jpg
478.009	2.056	1	generate	Run1	generate/STIM_018.jpg
482.822	2.498	1	generate	Run1	generate/STIM_018.jpg
488.035	2.11	0	generate	Run1	generate/STIM_018.jpg
493.204	3.405	1	generate	Run1	generate/STIM_019.jpg
500.576	2.234	1	generate	Run1	generate/STIM_019.jpg
506.601	1.303	0	generate	Run1	generate/STIM_019.jpg
511.275	1.838	0	generate	Run1	generate/STIM_019.jpg
516.593	2.076	1	generate	Run1	generate/STIM_019.jpg
521.509	1.884	0	generate	Run1	generate/STIM_020.jpg
525.397	1.555	1	generate	Run1	generate/STIM_020.jpg
530.49	1.819	1	generate	Run1	generate/STIM_020.jpg
535.897	2.362	0	generate	Run1	generate/STIM_020.jpg
540.74	2.172	1	generate	Run1	generate/STIM_020.jpg
546.305	1.5	1	generate	Run1	generate/STIM_021.jpg
551.075	2.701	1	generate	Run1	generate/STIM_021.jpg
557.217	2.514	1	generate	Run1	generate/STIM_021.jpg
562.851	2.527	1	generate	Run1	generate/STIM_021.jpg
568.307	2.115	1	generate	Run1	generate/STIM_021.jpg
572.738	1.493	1	generate	Run1	generate/STIM_022.jpg
576.99	2.182	0	generate	Run1	generate/STIM_022.jpg
582.857	3.03	1	generate	Run1	generate/STIM_022.jpg
589.794	1.656	0	generate	Run1	generate/STIM_022.jpg
594.236	1.664	1	generate	Run1	generate/STIM_022.jpg
599.359	1.439	1	generate	Run1	generate/STIM_023.jpg
602.851	2.449	1	generate	Run1	generate/STIM_023.jpg
608.964	1.706	1	generate	Run1	generate/STIM_023.jpg
614.134	1.657	1	generate	Run1	generate/STIM_023.jpg
619.716	1.407	1	generate	Run1	generate/STIM_023.jpg
624.427	2.579	1	generate	Run1	generate/STIM_024.jpg
630.786	3.13	1	generate	Run1	generate/STIM_024.jpg
637.877	1.973	1	generate	Run1	generate/STIM_024.jpg
642.18	1.653	1	generate	Run1	generate/STIM_024.jpg
646.521	1.498	1	generate	Run1	generate/STIM_024.jpg
651.068	0.849	1	repeat	Run1	repeat/STIM_000.jpg
655.701	1.064	1	repeat	Run1	repeat/STIM_000.jpg
659.264	0.614	1	repeat	Run1	repeat/STIM_000.jpg
662.728	0.899	1	repeat	Run1	repeat/STIM_000.jpg
666.269	0.83	1	repeat	Run1	repeat/STIM_000.jpg
669.904	1.11	1	repeat	Run1	repeat/STIM_001.jpg
673.61	0.812	1	repeat	Run1	repeat/STIM_001.jpg
678.291	1.098	1	repeat	Run1	repeat/STIM_001.jpg
681.527	0.816	1	repeat	Run1	repeat/STIM_001.jpg
685.445	0.979	1	repeat	Run1	repeat/STIM_001.jpg
689.762	0.687	1	repeat	Run1	repeat/STIM_002.jpg
693.011	1.055	1	repeat	Run1	repeat/STIM_002.jpg
696.734	0.609	1	repeat	Run1	repeat/STIM_002.jpg
699.639	0.931	1	repeat	Run1	repeat/STIM_002.jpg
703.13	0.628	1	repeat	Run1	repeat/STIM_002.jpg
707.506	0.891	1	repeat	Run1	repeat/STIM_003.jpg
710.559	1.066	1	repeat	Run1	repeat/STIM_003.jpg
715.495	1.152	1	repeat	Run1	repeat/STIM_003.jpg
720.182	1.181	1	repeat	Run1	repeat/STIM_003.jpg
724.982	1.082	1	repeat	Run1	repeat/STIM_003.jpg
728.843	0.832	1	repeat	Run1	repeat/STIM_004.jpg
731.834	0.87	1	repeat	Run1	repeat/STIM_004.jpg
734.953	0.861	1	repeat	Run1	repeat/STIM_004.jpg
737.923	1.138	1	repeat	Run1	repeat/STIM_004.jpg
742.384	0.987	1	repeat	Run1	repeat/STIM_004.jpg
746.234	0.703	1	repeat	Run1	repeat/STIM_005.jpg
750.487	1.147	1	repeat	Run1	repeat/STIM_005.jpg
755.111	1.085	1	repeat	Run1	repeat/STIM_005.jpg
759.218	0.85	1	repeat	Run1	repeat/STIM_005.jpg
762.241	0.825	1	repeat	Run1	repeat/STIM_005.jpg
766.151	0.648	1	repeat	Run1	repeat/STIM_006.jpg
770.061	0.671	1	repeat	Run1	repeat/STIM_006.jpg
774.197	1.031	1	repeat	Run1	repeat/STIM_006.jpg
777.917	0.916	1	repeat	Run1	repeat/STIM_006.jpg
782.343	1.109	1	repeat	Run1	repeat/STIM_006.jpg
785.764	0.659	1	repeat	Run1	repeat/STIM_007.jpg
789.792	0.674	1	repeat	Run1	repeat/STIM_007.jpg
793.113	0.838	1	repeat	Run1	repeat/STIM_007.jpg
797.521	1.124	1	repeat	Run1	repeat/STIM_007.jpg
802.444	1.031	1	repeat	Run1	repeat/STIM_007.jpg
806.771	1.023	1	repeat	Run1	repeat/STIM_008.jpg
810.54	0.752	1	repeat	Run1	repeat/STIM_008.jpg
813.492	1.012	1	repeat	Run1	repeat/STIM_008.jpg
817.088	0.999	1	repeat	Run1	repeat/STIM_008.jpg
820.114	0.727	1	repeat	Run1	repeat/STIM_008.jpg
824.131	1.079	1	repeat	Run1	repeat/STIM_009.jpg
827.66	1.036	1	repeat	Run1	repeat/STIM_009.jpg
831.871	1.019	1	repeat	Run1	repeat/STIM_009.jpg
836.373	1.052	1	repeat	Run1	repeat/STIM_009.jpg
840.071	0.729	1	repeat	Run1	repeat/STIM_009.jpg
843.635	1.034	1	repeat	Run1	repeat/STIM_010.jpg
848.552	0.624	1	repeat	Run1	repeat/STIM_010.jpg
852.84	0.946	1	repeat	Run1	repeat/STIM_010.jpg
857.25	0.914	1	repeat	Run1	repeat/STIM_010.jpg
862.142	1.039	1	repeat	Run1	repeat/STIM_010.jpg
866.636	1.168	1	repeat	Run1	repeat/STIM_011.jpg
871.062	0.826	1	repeat	Run1	repeat/STIM_011.jpg
874.004	1.007	1	repeat	Run1	repeat/STIM_011.jpg
878.316	0.682	1	repeat	Run1	repeat/STIM_011.jpg
881.109	0.634	1	repeat	Run1	repeat/STIM_011.jpg
885.636	0.902	1	repeat	Run1	repeat/STIM_012.jpg
890.249	0.71	1	repeat	Run1	repeat/STIM_012.jpg
894.368	0.859	1	repeat	Run1	repeat/STIM_012.jpg
897.376	0.762	1	repeat	Run1	repeat/STIM_012.jpg
901.93	1.084	1	repeat	Run1	repeat/STIM_012.jpg
905.113	0.97	1	repeat	Run1	repeat/STIM_013.jpg
909.424	0.736	1	repeat	Run1	repeat/STIM_013.jpg
912.627	0.99	1	repeat	Run1	repeat/STIM_013.jpg
916.025	0.627	1	repeat	Run1	repeat/STIM_013.jpg
920.136	1.08	0	repeat	Run1	repeat/STIM_013.jpg
923.254	1.071	1	repeat	Run1	repeat/STIM_014.jpg
928.042	1.067	1	repeat	Run1	repeat/STIM_014.jpg
931.482	1.005	1	repeat	Run1	repeat/STIM_014.jpg
935.855	0.693	1	repeat	Run1	repeat/STIM_014.jpg
938.828	0.687	1	repeat	Run1	repeat/STIM_014.jpg
943.135	2.565	1	generate	Run2	generate/STIM_000.jpg
947.91	2.322	1	generate	Run2	generate/STIM_000.jpg
953.858	1.603	1	generate	Run2	generate/STIM_000.jpg
959.046	1.191	1	generate	Run2	generate/STIM_000.jpg
962.42	1.49	1	generate	Run2	generate/STIM_000.jpg
966.85	2.198	1	generate	Run2	generate/STIM_001.jpg
972.299	2.435	1	generate	Run2	generate/STIM_001.jpg
977.409	1.994	1	generate	Run2	generate/STIM_001.jpg
983.277	1.559	1	generate	Run2	generate/STIM_001.jpg
987.009	1.654	1	generate	Run2	generate/STIM_001.jpg
991.846	2.799	0	generate	Run2	generate/STIM_002.jpg
997.062	2.833	1	generate	Run2	generate/STIM_002.jpg
1001.906	1.852	1	generate	Run2	generate/STIM_002.jpg
1007.284	1.658	1	generate	Run2	generate/STIM_002.jpg
1011.128	1.345	0	generate	Run2	generate/STIM_002.jpg
1016.375	1.249	1	generate	Run2	generate/STIM_003.jpg
1021.618	2.68	1	generate	Run2	generate/STIM_003.jpg
1027.709	1.136	1	generate	Run2	generate/STIM_003.jpg
1032.11	1.122	1	generate	Run2	generate/STIM_003.jpg
1036.013	1.463	1	generate	Run2	generate/STIM_003.jpg
1040.633	2.104	1	generate	Run2	generate/STIM_004.jpg
1045.878	1.366	0	generate	Run2	generate/STIM_004.jpg
1050.795	1.475	1	generate	Run2	generate/STIM_004.jpg
1054.393	1.786	1	generate	Run2	generate/STIM_004.jpg
1059.279	1.482	1	generate	Run2	generate/STIM_004.jpg
1064.306	1.835	1	generate	Run2	generate/STIM_005.jpg
1069.047	1.383	1	generate	Run2	generate/STIM_005.jpg
1074.001	1.648	1	generate	Run2	generate/STIM_005.jpg
1077.781	1.101	1	generate	Run2	generate/STIM_005.jpg
1081.662	1.237	1	generate	Run2	generate/STIM_005.jpg
1085.429	1.646	1	generate	Run2	generate/STIM_006.jpg
1091.03	2.532	1	generate	Run2	generate/STIM_006.jpg
1096.93	1.085	1	generate	Run2	generate/STIM_006.jpg
1100.251	1.734	1	generate	Run2	generate/STIM_006.jpg
1104.08	1.661	1	generate	Run2	generate/STIM_006.jpg
1108.083	1.748	1	generate	Run2	generate/STIM_007.jpg
1113.461	1.313	1	generate	Run2	generate/STIM_007.jpg
1117.207	1.615	1	generate	Run2	generate/STIM_007.jpg
1121.073	1.905	1	generate	Run2	generate/STIM_007.jpg
1125.313	1.583	1	generate	Run2	generate/STIM_007.jpg
1129.606	1.582	1	generate	Run2	generate/STIM_008.jpg
1134.779	2.806	1	generate	Run2	generate/STIM_008.jpg
1140.872	1.276	1	generate	Run2	generate/STIM_008.jpg
1144.189	1.967	1	generate	Run2	generate/STIM_008.jpg
1149.925	2.372	0	generate	Run2	generate/STIM_008.jpg
1155.447	2.59	1	generate	Run2	generate/STIM_009.jpg
1160.369	2.418	1	generate	Run2	generate/STIM_009.jpg
1165.867	1.911	1	generate	Run2	generate/STIM_009.jpg
1170.735	1.205	1	generate	Run2	generate/STIM_009.jpg
1174.719	1.36	1	generate	Run2	generate/STIM_009.jpg
1178.269	1.917	1	generate	Run2	generate/STIM_010.jpg
1182.707	2.794	0	generate	Run2	generate/STIM_010.jpg
1188.595	1.755	1	generate	Run2	generate/STIM_010.jpg
1193.4	2.176	0	generate	Run2	generate/STIM_010.jpg
1198.411	1.89	1	generate	Run2	generate/STIM_010.jpg
1202.679	2.112	1	generate	Run2	generate/STIM_011.jpg
1207.566	1.434	1	generate	Run2	generate/STIM_011.jpg
1211.53	2.139	1	generate	Run2	generate/STIM_011.jpg
1217.108	2.188	1	generate	Run2	generate/STIM_011.jpg
1222.93	1.75	0	generate	Run2	generate/STIM_011.jpg
1227.88	2.77	1	generate	Run2	generate/STIM_012.jpg
1233.13	1.256	1	generate	Run2	generate/STIM_012.jpg
1237.832	2.305	1	generate	Run2	generate/STIM_012.jpg
1242.569	1.349	1	generate	Run2	generate/STIM_012.jpg
1247.719	1.956	1	generate	Run2	generate/STIM_012.jpg
1253.401	1.86	1	generate	Run2	generate/STIM_013.jpg
1257.773	1.424	0	generate	Run2	generate/STIM_013.jpg
1262.98	2.537	0	generate	Run2	generate/STIM_013.jpg
1269.186	1.084	1	generate	Run2	generate/STIM_013.jpg
1273.389	2.254	1	generate	Run2	generate/STIM_013.jpg
1279.428	2.544	1	generate	Run2	generate/STIM_014.jpg
1284.837	2.045	1	generate	Run2	generate/STIM_014.jpg
1288.91	2.219	1	generate	Run2	generate/STIM_014.jpg
1293.414	1.927	1	generate	Run2	generate/STIM_014.jpg
1299.039	1.704	1	generate	Run2	generate/STIM_014.jpg
1302.783	1.366	1	generate	Run2	generate/STIM_015.jpg
1306.538	2.267	1	generate	Run2	generate/STIM_015.jpg
1312.629	2.54	1	generate	Run2	generate/STIM_015.jpg
1319.169	1.796	1	generate	Run2	generate/STIM_015.jpg
1324.315	1.271	0	generate	Run2	generate/STIM_015.jpg
1329.179	1.762	1	generate	Run2	generate/STIM_016.jpg
1333.837	1.702	1	generate	Run2	generate/STIM_016.jpg
1337.885	1.792	1	generate	Run2	generate/STIM_016.jpg
1343.586	1.777	1	generate	Run2	generate/STIM_016.jpg
1349.248	1.488	1	generate	Run2	generate/STIM_016.jpg
1353.669	2.698	1	generate	Run2	generate/STIM_017.jpg
1360.136	1.338	1	generate	Run2	generate/STIM_017.jpg
1363.479	1.64	1	generate	Run2	generate/STIM_017.jpg
1368.763	1.458	1	generate	Run2	generate/STIM_017.jpg
1372.293	1.26	1	generate	Run2	generate/STIM_017.jpg
1377.263	2.539	0	generate	Run2	generate/STIM_018.jpg
1382.084	1.705	1	generate	Run2	generate/STIM_018.jpg
1386.542	1.643	1	generate	Run2	generate/STIM_018.jpg
1390.357	1.81	1	generate	Run2	generate/STIM_018.jpg
1395.109	2.43	1	generate	Run2	generate/STIM_018.jpg
1401.383	1.516	1	generate	Run2	generate/STIM_019.jpg
1405.742	2.21	1	generate	Run2	generate/STIM_019.jpg
1410.669	2.169	1	generate	Run2	generate/STIM_019.jpg
1416.828	1.395	1	generate	Run2	generate/STIM_019.jpg
1420.527	2.324	1	generate	Run2	generate/STIM_019.jpg
1425.931	2.757	1	generate	Run2	generate/STIM_020.jpg
1431.291	2.349	1	generate	Run2	generate/STIM_020.jpg
1436.406	1.534	1	generate	Run2	generate/STIM_020.jpg
1441.228	1.366	1	generate	Run2	generate/STIM_020.jpg
1445.674	1.471	1	generate	Run2	generate/STIM_020.jpg
1449.823	1.57	1	generate	Run2	generate/STIM_021.jpg
1454.039	2.774	1	generate	Run2	generate/STIM_021.jpg
1459.66	1.836	1	generate	Run2	generate/STIM_021.jpg
1464.981	2.208	1	generate	Run2	generate/STIM_021.jpg
1469.605	2.425	1	generate	Run2	generate/STIM_021.jpg
1475.738	2.611	1	generate	Run2	generate/STIM_022.jpg
1480.771	2.041	1	generate	Run2	generate/STIM_022.jpg
1484.901	2.553	0	generate	Run2	generate/STIM_022.jpg
1490.838	1.92	1	generate	Run2	generate/STIM_022.jpg
1496.054	2.057	1	generate	Run2	generate/STIM_022.jpg
1500.632	2.816	1	generate	Run2	generate/STIM_023.jpg
1507.366	2.02	0	generate	Run2	generate/STIM_023.jpg
1512.187	1.545	1	generate	Run2	generate/STIM_023.jpg
1515.995	2.161	1	generate	Run2	generate/STIM_023.jpg
1520.706	1.62	1	generate	Run2	generate/STIM_023.jpg
1524.72	1.866	0	generate	Run2	generate/STIM_024.jpg
1529.604	1.338	1	generate	Run2	generate/STIM_024.jpg
1533.36	1.464	1	generate	Run2	generate/STIM_024.jpg
1537.83	2.444	1	generate	Run2	generate/STIM_024.jpg
1543.052	1.982	1	generate	Run2	generate/STIM_024.jpg
1547.715	0.917	1	repeat	Run2	repeat/STIM_000.jpg
1551.015	0.83	1	repeat	Run2	repeat/STIM_000.jpg
1555.781	0.859	1	repeat	Run2	repeat/STIM_000.jpg
1559.25	1.035	1	repeat	Run2	repeat/STIM_000.jpg
1563.797	0.873	1	repeat	Run2	repeat/STIM_000.jpg
1567.189	0.927	1	repeat	Run2	repeat/STIM_001.jpg
1571.873	0.622	1	repeat	Run2	repeat/STIM_001.jpg
1574.718	0.795	1	repeat	Run2	repeat/STIM_001.jpg
1578.142	0.85	1	repeat	Run2	repeat/STIM_001.jpg
1582.704	0.7	1	repeat	Run2	repeat/STIM_001.jpg
1587.19	0.678	1	repeat	Run2	repeat/STIM_002.jpg
1591.063	0.653	1	repeat	Run2	repeat/STIM_002.jpg
1594.647	0.967	1	repeat	Run2	repeat/STIM_002.jpg
1598.946	0.806	1	repeat	Run2	repeat/STIM_002.jpg
1602.079	0.7	1	repeat	Run2	repeat/STIM_002.jpg
1605.41	0.76	1	repeat	Run2	repeat/STIM_003.jpg
1608.833	0.77	1	repeat	Run2	repeat/STIM_003.jpg
1613.343	0.885	1	repeat	Run2	repeat/STIM_003.jpg
1616.339	0.612	1	repeat	Run2	repeat/STIM_003.jpg
1619.712	0.864	1	repeat	Run2	repeat/STIM_003.jpg
1624.346	0.898	1	repeat	Run2	repeat/STIM_004.jpg
1629.054	1.134	1	repeat	Run2	repeat/STIM_004.jpg
1632.384	0.806	1	repeat	Run2	repeat/STIM_004.jpg
1636.384	0.908	1	repeat	Run2	repeat/STIM_004.jpg
1641.233	0.625	1	repeat	Run2	repeat/STIM_004.jpg
1645.028	0.724	1	repeat	Run2	repeat/STIM_005.jpg
1648.143	0.614	1	repeat	Run2	repeat/STIM_005.jpg
1650.79	0.738	1	repeat	Run2	repeat/STIM_005.jpg
1655.419	1.117	1	repeat	Run2	repeat/STIM_005.jpg
1659.713	1.047	1	repeat	Run2	repeat/STIM_005.jpg
1663.65	1.126	1	repeat	Run2	repeat/STIM_006.jpg
1666.923	0.613	1	repeat	Run2	repeat/STIM_006.jpg
1669.983	0.958	1	repeat	Run2	repeat/STIM_006.jpg
1674.34	0.657	1	repeat	Run2	repeat/STIM_006.jpg
1677.696	0.78	1	repeat	Run2	repeat/STIM_006.jpg
1682.311	1.015	1	repeat	Run2	repeat/STIM_007.jpg
1686.214	0.846	1	repeat	Run2	repeat/STIM_007.jpg
1690.505	1.072	1	repeat	Run2	repeat/STIM_007.jpg
1694.351	0.649	1	repeat	Run2	repeat/STIM_007.jpg
1698.473	0.74	1	repeat	Run2	repeat/STIM_007.jpg
1703.104	1.127	1	repeat	Run2	repeat/STIM_008.jpg
1708.027	0.651	1	repeat	Run2	repeat/STIM_008.jpg
1711.279	0.931	1	repeat	Run2	repeat/STIM_008.jpg
1714.913	1.05	1	repeat	Run2	repeat/STIM_008.jpg
1719.031	1.057	1	repeat	Run2	repeat/STIM_008.jpg
1723.872	1.066	1	repeat	Run2	repeat/STIM_009.jpg
1727.891	0.617	0	repeat	Run2	repeat/STIM_009.jpg
1732.127	1.047	1	repeat	Run2	repeat/STIM_009.jpg
1736.114	0.875	1	repeat	Run2	repeat/STIM_009.jpg
1740.612	1.163	1	repeat	Run2	repeat/STIM_009.jpg
1744.498	0.651	1	repeat	Run2	repeat/STIM_010.jpg
1747.999	1.049	1	repeat	Run2	repeat/STIM_010.jpg
1752.427	1.012	1	repeat	Run2	repeat/STIM_010.jpg
1756.908	1.002	1	repeat	Run2	repeat/STIM_010.jpg
1761.693	1.091	1	repeat	Run2	repeat/STIM_010.jpg
1766.247	0.949	1	repeat	Run2	repeat/STIM_011.jpg
1770.83	0.667	1	repeat	Run2	repeat/STIM_011.jpg
1774.031	0.677	1	repeat	Run2	repeat/STIM_011.jpg
1778.167	1.084	1	repeat	Run2	repeat/STIM_011.jpg
1781.995	0.6	1	repeat	Run2	repeat/STIM_011.jpg
1785.954	0.952	1	repeat	Run2	repeat/STIM_012.jpg
1789.051	0.673	0	repeat	Run2	repeat/STIM_012.jpg
1791.885	0.872	1	repeat	Run2	repeat/STIM_012.jpg
1795.903	0.657	1	repeat	Run2	repeat/STIM_012.jpg
1798.77	1.14	1	repeat	Run2	repeat/STIM_012.jpg
1803.553	0.905	1	repeat	Run2	repeat/STIM_013.jpg
1807.039	1.113	1	repeat	Run2	repeat/STIM_013.jpg
1810.733	1.128	1	repeat	Run2	repeat/STIM_013.jpg
1815.652	0.927	1	repeat	Run2	repeat/STIM_013.jpg
1818.851	1.013	1	repeat	Run2	repeat/STIM_013.jpg
1823.368	1.054	1	repeat	Run2	repeat/STIM_014.jpg
1826.711	0.922	1	repeat	Run2	repeat/STIM_014.jpg
1831.461	1.165	1	repeat	Run2	repeat/STIM_014.jpg
1835.524	1.176	1	repeat	Run2	repeat/STIM_014.jpg
1840.673	0.659	1	repeat	Run2	repeat/STIM_014.jpg
1844.907	2.191	0	generate	Run3	generate/STIM_000.jpg
1850.102	2.352	1	generate	Run3	generate/STIM_000.jpg
1855.363	1.041	1	generate	Run3	generate/STIM_000.jpg
1860.201	1.475	1	generate	Run3	generate/STIM_000.jpg
1864.336	2.139	1	generate	Run3	generate/STIM_000.jpg
1869.122	1.213	1	generate	Run3	generate/STIM_001.jpg
1873.395	2.142	1	generate	Run3	generate/STIM_001.jpg
1878.255	2.209	1	generate	Run3	generate/STIM_001.jpg
1884.26	1.806	1	generate	Run3	generate/STIM_001.jpg
1888.406	1.975	1	generate	Run3	generate/STIM_001.jpg
1893.699	1.939	1	generate	Run3	generate/STIM_002.jpg
1898.006	1.909	1	generate	Run3	generate/STIM_002.jpg
1903.568	2.024	0	generate	Run3	generate/STIM_002.jpg
1909.225	1.651	1	generate	Run3	generate/STIM_002.jpg
1914.011	1.082	1	generate	Run3	generate/STIM_002.jpg
1917.522	2.419	1	generate	Run3	generate/STIM_003.jpg
1923.58	1.373	1	generate	Run3	generate/STIM_003.jpg
1927.321	1.737	1	generate	Run3	generate/STIM_003.jpg
1931.84	1.963	1	generate	Run3	generate/STIM_003.jpg
1936.121	2.079	1	generate	Run3	generate/STIM_003.jpg
1940.474	1.918	1	generate	Run3	generate/STIM_004.jpg
1945.392	2.302	1	generate	Run3	generate/STIM_004.jpg
1949.825	1.825	1	generate	Run3	generate/STIM_004.jpg
1954.872	1.758	0	generate	Run3	generate/STIM_004.jpg
1960.123	1.119	1	generate	Run3	generate/STIM_004.jpg
1963.573	1.674	1	generate	Run3	generate/STIM_005.jpg
1967.516	1.208	1	generate	Run3	generate/STIM_005.jpg
1970.851	2.364	1	generate	Run3	generate/STIM_005.jpg
1976.27	2.033	1	generate	Run3	generate/STIM_005.jpg
1980.353	0.999	1	generate	Run3	generate/STIM_005.jpg
1983.506	2.474	1	generate	Run3	generate/STIM_006.jpg
1989.5	2.209	1	generate	Run3	generate/STIM_006.jpg
1994.786	1.448	1	generate	Run3	generate/STIM_006.jpg
1999.409	1.579	1	generate	Run3	generate/STIM_006.jpg
2004.977	2.04	1	generate	Run3	generate/STIM_006.jpg
2010.728	1.897	0	generate	Run3	generate/STIM_007.jpg
2015.114	2.102	1	generate	Run3	generate/STIM_007.jpg
2021.126	1.383	1	generate	Run3	generate/STIM_007.jpg
2025.089	1.232	1	generate	Run3	generate/STIM_007.jpg
2028.908	1.562	1	generate	Run3	generate/STIM_007.jpg
2033.07	1.164	0	generate	Run3	generate/STIM_008.jpg
2036.418	1.138	1	generate	Run3	generate/STIM_008.jpg
2040.237	2.206	0	generate	Run3	generate/STIM_008.jpg
2045.975	1.003	1	generate	Run3	generate/STIM_008.jpg
2050.034	1.408	1	generate	Run3	generate/STIM_008.jpg
2054.679	2.089	1	generate	Run3	generate/STIM_009.jpg
2060.421	1.128	1	generate	Run3	generate/STIM_009.jpg
2064.737	2.466	1	generate	Run3	generate/STIM_009.jpg
2070.535	2.452	1	generate	Run3	generate/STIM_009.jpg
2075.56	1.492	1	generate	Run3	generate/STIM_009.jpg
2079.237	1.239	1	generate	Run3	generate/STIM_010.jpg
2084.14	2.358	1	generate	Run3	generate/STIM_010.jpg
2089.574	2.262	1	generate	Run3	generate/STIM_010.jpg
2094.986	1.478	1	generate	Run3	generate/STIM_010.jpg
2099.418	1.323	1	generate	Run3	generate/STIM_010.jpg
2104.523	2.072	1	generate	Run3	generate/STIM_011.jpg
2108.751	1.673	1	generate	Run3	generate/STIM_011.jpg
2113.31	2.167	1	generate	Run3	generate/STIM_011.jpg
2117.54	1.847	1	generate	Run3	generate/STIM_011.jpg
2121.708	2.267	1	generate	Run3	generate/STIM_011.jpg
2126.57	1.162	1	generate	Run3	generate/STIM_012.jpg
2130.595	2.193	1	generate	Run3	generate/STIM_012.jpg
2136.306	2.172	0	generate	Run3	generate/STIM_012.jpg
2141.542	1.344	1	generate	Run3	generate/STIM_012.jpg
2145.924	2.0	1	generate	Run3	generate/STIM_012.jpg
2151.711	1.303	1	generate	Run3	generate/STIM_013.jpg
2155.341	1.516	0	generate	Run3	generate/STIM_013.jpg
2159.561	1.236	1	generate	Run3	generate/STIM_013.jpg
2163.881	1.226	1	generate	Run3	generate/STIM_013.jpg
2167.957	1.58	1	generate	Run3	generate/STIM_013.jpg
2172.435	1.913	1	generate	Run3	generate/STIM_014.jpg
2176.588	2.068	1	generate	Run3	generate/STIM_014.jpg
2180.811	1.143	1	generate	Run3	generate/STIM_014.jpg
2184.569	1.925	1	generate	Run3	generate/STIM_014.jpg
2188.908	2.086	1	generate	Run3	generate/STIM_014.jpg
2193.47	1.067	1	generate	Run3	generate/STIM_015.jpg
2196.664	2.029	1	generate	Run3	generate/STIM_015.jpg
2201.106	2.011	1	generate	Run3	generate/STIM_015.jpg
2205.282	2.203	1	generate	Run3	generate/STIM_015.jpg
2211.354	1.256	1	generate	Run3	generate/STIM_015.jpg
2214.868	1.224	1	generate	Run3	generate/STIM_016.jpg
2219.621	2.207	1	generate	Run3	generate/STIM_016.jpg
2225.402	2.219	1	generate	Run3	generate/STIM_016.jpg
2231.086	1.841	1	generate	Run3	generate/STIM_016.jpg
2235.642	2.039	1	generate	Run3	generate/STIM_016.jpg
2241.485	2.342	1	generate	Run3	generate/STIM_017.jpg
2246.144	2.302	1	generate	Run3	generate/STIM_017.jpg
2251.23	1.027	1	generate	Run3	generate/STIM_017.jpg
2254.841	2.018	1	generate	Run3	generate/STIM_017.jpg
2259.618	1.921	1	generate	Run3	generate/STIM_017.jpg
2264.492	1.478	1	generate	Run3	generate/STIM_018.jpg
2269.165	1.866	1	generate	Run3	generate/STIM_018.jpg
2274.919	2.2	1	generate	Run3	generate/STIM_018.jpg
2279.779	2.032	1	generate	Run3	generate/STIM_018.jpg
2285.583	1.622	1	generate	Run3	generate/STIM_018.jpg
2290.413	1.668	1	generate	Run3	generate/STIM_019.jpg
2294.134	1.1	1	generate	Run3	generate/STIM_019.jpg
2299.13	1.847	1	generate	Run3	generate/STIM_019.jpg
2303.96	1.378	1	generate	Run3	generate/STIM_019.jpg
2307.831	1.633	1	generate	Run3	generate/STIM_019.jpg
2312.923	1.62	1	generate	Run3	generate/STIM_020.jpg
2318.122	1.794	1	generate	Run3	generate/STIM_020.jpg
2323.426	1.013	1	generate	Run3	generate/STIM_020.jpg
2328.121	1.866	1	generate	Run3	generate/STIM_020.jpg
2333.967	1.924	1	generate	Run3	generate/STIM_020.jpg
2338.748	1.926	1	generate	Run3	generate/STIM_021.jpg
2343.863	1.572	1	generate	Run3	generate/STIM_021.jpg
2348.312	2.339	1	generate	Run3	generate/STIM_021.jpg
2354.47	1.774	1	generate	Run3	generate/STIM_021.jpg
2359.49	2.228	1	generate	Run3	generate/STIM_021.jpg
2365.681	1.312	0	generate	Run3	generate/STIM_022.jpg
2369.083	1.129	1	generate	Run3	generate/STIM_022.jpg
2372.702	1.66	1	generate	Run3	generate/STIM_022.jpg
2376.775	1.342	1	generate	Run3	generate/STIM_022.jpg
2380.959	1.639	1	generate	Run3	generate/STIM_022.jpg
2385.247	1.343	1	generate	Run3	generate/STIM_023.jpg
2390.367	1.474	1	generate	Run3	generate/STIM_023.jpg
2394.457	2.218	1	generate	Run3	generate/STIM_023.jpg
2399.258	1.922	1	generate	Run3	generate/STIM_023.jpg
2403.299	1.531	1	generate	Run3	generate/STIM_023.jpg
2407.326	1.125	1	generate	Run3	generate/STIM_024.jpg
2412.346	2.397	1	generate	Run3	generate/STIM_024.jpg
2417.916	2.264	1	generate	Run3	generate/STIM_024.jpg
2422.953	1.423	1	generate	Run3	generate/STIM_024.jpg
2426.566	2.283	1	generate	Run3	generate/STIM_024.jpg
2431.28	1.095	1	repeat	Run3	repeat/STIM_000.jpg
2434.51	1.068	1	repeat	Run3	repeat/STIM_000.jpg
2438.697	0.81	1	repeat	Run3	repeat/STIM_000.jpg
2443.39	0.727	1	repeat	Run3	repeat/STIM_000.jpg
2447.553	1.137	1	repeat	Run3	repeat/STIM_000.jpg
2452.515	0.761	1	repeat	Run3	repeat/STIM_001.jpg
2455.491	0.592	1	repeat	Run3	repeat/STIM_001.jpg
2459.485	0.74	1	repeat	Run3	repeat/STIM_001.jpg
2463.312	0.916	1	repeat	Run3	repeat/STIM_001.jpg
2467.578	1.136	1	repeat	Run3	repeat/STIM_001.jpg
2470.865	0.701	1	repeat	Run3	repeat/STIM_002.jpg
2474.757	0.661	1	repeat	Run3	repeat/STIM_002.jpg
2478.283	1.089	1	repeat	Run3	repeat/STIM_002.jpg
2481.965	0.864	0	repeat	Run3	repeat/STIM_002.jpg
2486.606	1.114	1	repeat	Run3	repeat/STIM_002.jpg
2491.074	0.7	1	repeat	Run3	repeat/STIM_003.jpg
2494.7	0.735	1	repeat	Run3	repeat/STIM_003.jpg
2497.652	0.965	1	repeat	Run3	repeat/STIM_003.jpg
2500.641	0.95	1	repeat	Run3	repeat/STIM_003.jpg
2503.891	0.814	1	repeat	Run3	repeat/STIM_003.jpg
2507.803	1.059	1	repeat	Run3	repeat/STIM_004.jpg
2512.238	0.604	1	repeat	Run3	repeat/STIM_004.jpg
2516.709	0.68	1	repeat	Run3	repeat/STIM_004.jpg
2519.528	1.166	1	repeat	Run3	repeat/STIM_004.jpg
2523.747	0.874	1	repeat	Run3	repeat/STIM_004.jpg
2527.474	1.163	1	repeat	Run3	repeat/STIM_005.jpg
2531.522	0.703	1	repeat	Run3	repeat/STIM_005.jpg
2535.925	0.858	1	repeat	Run3	repeat/STIM_005.jpg
2539.059	1.019	1	repeat	Run3	repeat/STIM_005.jpg
2542.948	1.015	1	repeat	Run3	repeat/STIM_005.jpg
2547.679	0.695	1	repeat	Run3	repeat/STIM_006.jpg
2550.474	0.669	1	repeat	Run3	repeat/STIM_006.jpg
2555.057	0.674	1	repeat	Run3	repeat/STIM_006.jpg
2558.006	0.66	1	repeat	Run3	repeat/STIM_006.jpg
2561.278	1.035	1	repeat	Run3	repeat/STIM_006.jpg
2565.903	0.821	1	repeat	Run3	repeat/STIM_007.jpg
2570.002	0.776	1	repeat	Run3	repeat/STIM_007.jpg
2574.339	0.613	1	repeat	Run3	repeat/STIM_007.jpg
2577.651	0.871	1	repeat	Run3	repeat/STIM_007.jpg
2580.99	0.897	1	repeat	Run3	repeat/STIM_007.jpg
2583.925	1.076	1	repeat	Run3	repeat/STIM_008.jpg
2587.777	1.117	1	repeat	Run3	repeat/STIM_008.jpg
2591.364	1.11	1	repeat	Run3	repeat/STIM_008.jpg
2595.023	1.012	1	repeat	Run3	repeat/STIM_008.jpg
2598.426	1.147	1	repeat	Run3	repeat/STIM_008.jpg
2602.688	1.166	1	repeat	Run3	repeat/STIM_009.jpg
2606.632	1.027	1	repeat	Run3	repeat/STIM_009.jpg
2610.717	1.094	1	repeat	Run3	repeat/STIM_009.jpg
2614.048	0.989	1	repeat	Run3	repeat/STIM_009.jpg
2618.061	0.605	1	repeat	Run3	repeat/STIM_009.jpg
2620.96	0.655	1	repeat	Run3	repeat/STIM_010.jpg
2625.557	1.045	0	repeat	Run3	repeat/STIM_010.jpg
2629.659	0.745	1	repeat	Run3	repeat/STIM_010.jpg
2632.705	1.166	1	repeat	Run3	repeat/STIM_010.jpg
2636.428	0.875	0	repeat	Run3	repeat/STIM_010.jpg
2640.058	0.663	1	repeat	Run3	repeat/STIM_011.jpg
2643.469	1.058	1	repeat	Run3	repeat/STIM_011.jpg
2646.951	0.879	1	repeat	Run3	repeat/STIM_011.jpg
2650.329	0.647	1	repeat	Run3	repeat/STIM_011.jpg
2654.679	0.696	0	repeat	Run3	repeat/STIM_011.jpg
2658.378	1.085	1	repeat	Run3	repeat/STIM_012.jpg
2661.921	0.793	1	repeat	Run3	repeat/STIM_012.jpg
2665.852	0.775	1	repeat	Run3	repeat/STIM_012.jpg
2670.52	0.736	1	repeat	Run3	repeat/STIM_012.jpg
2674.956	0.852	1	repeat	Run3	repeat/STIM_012.jpg
2678.962	0.608	1	repeat	Run3	repeat/STIM_013.jpg
2682.486	1.125	1	repeat	Run3	repeat/STIM_013.jpg
2687.071	0.837	1	repeat	Run3	repeat/STIM_013.jpg
2691.225	0.793	1	repeat	Run3	repeat/STIM_013.jpg
2695.97	1.045	1	repeat	Run3	repeat/STIM_013.jpg
2699.505	0.765	1	repeat	Run3	repeat/STIM_014.jpg
2702.849	1.129	1	repeat	Run3	repeat/STIM_014.jpg
2707.866	0.818	1	repeat	Run3	repeat/STIM_014.jpg
2711.149	0.861	1	repeat	Run3	repeat/STIM_014.jpg
2715.207	0.891	1	repeat	Run3	repeat/STIM_014.jpg
2719.915	2.282	1	generate	Run4	generate/STIM_000.jpg
2725.865	1.818	1	generate	Run4	generate/STIM_000.jpg
2729.973	2.361	1	generate	Run4	generate/STIM_000.jpg
2735.473	2.082	1	generate	Run4	generate/STIM_000.jpg
2739.855	2.191	1	generate	Run4	generate/STIM_000.jpg
2745.435	1.649	1	generate	Run4	generate/STIM_001.jpg
2750.989	2.286	1	generate	Run4	generate/STIM_001.jpg
2756.47	2.209	1	generate	Run4	generate/STIM_001.jpg
2762.221	2.457	1	generate	Run4	generate/STIM_001.jpg
2768.608	1.079	1	generate	Run4	generate/STIM_001.jpg
2772.002	2.266	1	generate	Run4	generate/STIM_002.jpg
2776.714	1.881	1	generate	Run4	generate/STIM_002.jpg
2781.626	1.896	1	generate	Run4	generate/STIM_002.jpg
2786.38	2.179	1	generate	Run4	generate/STIM_002.jpg
2792.249	1.212	1	generate	Run4	generate/STIM_002.jpg
2797.182	2.123	1	generate	Run4	generate/STIM_003.jpg
2801.485	2.119	1	generate	Run4	generate/STIM_003.jpg
2807.525	1.592	1	generate	Run4	generate/STIM_003.jpg
2811.268	1.122	1	generate	Run4	generate/STIM_003.jpg
2814.595	1.644	1	generate	Run4	generate/STIM_003.jpg
2818.297	1.686	1	generate	Run4	generate/STIM_004.jpg
2823.105	1.108	1	generate	Run4	generate/STIM_004.jpg
2826.34	1.086	1	generate	Run4	generate/STIM_004.jpg
2831.393	1.517	1	generate	Run4	generate/STIM_004.jpg
2836.717	1.562	1	generate	Run4	generate/STIM_004.jpg
2841.265	2.013	1	generate	Run4	generate/STIM_005.jpg
2846.354	1.021	1	generate	Run4	generate/STIM_005.jpg
2851.284	1.059	1	generate	Run4	generate/STIM_005.jpg
2855.565	1.771	1	generate	Run4	generate/STIM_005.jpg
2860.773	2.227	1	generate	Run4	generate/STIM_005.jpg
2865.204	1.305	1	generate	Run4	generate/STIM_006.jpg
2870.44	2.268	0	generate	Run4	generate/STIM_006.jpg
2875.934	1.301	1	generate	Run4	generate/STIM_006.jpg
2880.011	1.991	1	generate	Run4	generate/STIM_006.jpg
2884.872	1.992	1	generate	Run4	generate/STIM_006.jpg
2888.904	2.477	1	generate	Run4	generate/STIM_007.jpg
2893.381	1.356	1	generate	Run4	generate/STIM_007.jpg
2898.387	2.307	1	generate	Run4	generate/STIM_007.jpg
2904.654	2.089	1	generate	Run4	generate/STIM_007.jpg
2909.351	1.552	1	generate	Run4	generate/STIM_007.jpg
2914.236	2.463	1	generate	Run4	generate/STIM_008.jpg
2920.682	2.292	1	generate	Run4	generate/STIM_008.jpg
2926.283	2.136	1	generate	Run4	generate/STIM_008.jpg
2932.013	1.208	1	generate	Run4	generate/STIM_008.jpg
2937.175	1.246	1	generate	Run4	generate/STIM_008.jpg
2941.404	1.935	1	generate	Run4	generate/STIM_009.jpg
2947.006	2.216	1	generate	Run4	generate/STIM_009.jpg
2952.543	1.361	1	generate	Run4	generate/STIM_009.jpg
2957.285	2.436	1	generate	Run4	generate/STIM_009.jpg
2962.319	2.48	1	generate	Run4	generate/STIM_009.jpg
2967.668	1.509	1	generate	Run4	generate/STIM_010.jpg
2972.296	1.85	1	generate	Run4	generate/STIM_010.jpg
2976.378	2.364	1	generate	Run4	generate/STIM_010.jpg
2982.141	1.436	1	generate	Run4	generate/STIM_010.jpg
2986.658	2.224	1	generate	Run4	generate/STIM_010.jpg
2992.878	1.407	1	generate	Run4	generate/STIM_011.jpg
2997.232	1.012	1	generate	Run4	generate/STIM_011.jpg
3001.006	2.168	1	generate	Run4	generate/STIM_011.jpg
3007.126	1.418	1	generate	Run4	generate/STIM_011.jpg
3010.714	2.35	1	generate	Run4	generate/STIM_011.jpg
3015.541	1.344	1	generate	Run4	generate/STIM_012.jpg
3019.541	1.762	1	generate	Run4	generate/STIM_012.jpg
3024.042	2.053	1	generate	Run4	generate/STIM_012.jpg
3029.968	2.194	1	generate	Run4	generate/STIM_012.jpg
3035.353	2.066	1	generate	Run4	generate/STIM_012.jpg
3039.933	2.309	1	generate	Run4	generate/STIM_013.jpg
3045.326	2.103	1	generate	Run4	generate/STIM_013.jpg
3050.918	2.42	1	generate	Run4	generate/STIM_013.jpg
3055.982	2.391	1	generate	Run4	generate/STIM_013.jpg
3060.704	1.474	1	generate	Run4	generate/STIM_013.jpg
3065.946	1.512	1	generate	Run4	generate/STIM_014.jpg
3070.854	1.037	1	generate	Run4	generate/STIM_014.jpg
3074.176	1.257	1	generate	Run4	generate/STIM_014.jpg
3077.623	2.076	1	generate	Run4	generate/STIM_014.jpg
3082.712	2.256	1	generate	Run4	generate/STIM_014.jpg
3087.311	1.433	1	generate	Run4	generate/STIM_015.jpg
3091.183	1.516	1	generate	Run4	generate/STIM_015.jpg
3096.491	2.19	1	generate	Run4	generate/STIM_015.jpg
3100.908	0.999	1	generate	Run4	generate/STIM_015.jpg
3104.81	1.798	1	generate	Run4	generate/STIM_015.jpg
3108.687	1.783	1	generate	Run4	generate/STIM_016.jpg
3113.984	1.091	1	generate	Run4	generate/STIM_016.jpg
3118.05	2.253	1	generate	Run4	generate/STIM_016.jpg
3123.262	1.053	1	generate	Run4	generate/STIM_016.jpg
3128.032	2.32	1	generate	Run4	generate/STIM_016.jpg
3132.857	1.068	1	generate	Run4	generate/STIM_017.jpg
3137.383	1.465	1	generate	Run4	generate/STIM_017.jpg
3140.992	1.346	1	generate	Run4	generate/STIM_017.jpg
3144.532	2.452	1	generate	Run4	generate/STIM_017.jpg
3149.42	2.423	1	generate	Run4	generate/STIM_017.jpg
3155.674	1.099	1	generate	Run4	generate/STIM_018.jpg
3159.238	1.199	1	generate	Run4	generate/STIM_018.jpg
3163.14	1.178	1	generate	Run4	generate/STIM_018.jpg
3167.989	1.512	1	generate	Run4	generate/STIM_018.jpg
3171.566	1.671	1	generate	Run4	generate/STIM_018.jpg
3175.463	2.345	1	generate	Run4	generate/STIM_019.jpg
3180.334	2.434	1	generate	Run4	generate/STIM_019.jpg
3185.726	2.296	1	generate	Run4	generate/STIM_019.jpg
3190.42	2.443	1	generate	Run4	generate/STIM_019.jpg
3195.672	1.268	1	generate	Run4	generate/STIM_019.jpg
3199.673	1.244	1	generate	Run4	generate/STIM_020.jpg
3204.517	1.953	1	generate	Run4	generate/STIM_020.jpg
3209.539	1.7	1	generate	Run4	generate/STIM_020.jpg
3213.483	1.323	1	generate	Run4	generate/STIM_020.jpg
3217.811	2.026	1	generate	Run4	generate/STIM_020.jpg
3223.457	2.131	1	generate	Run4	generate/STIM_021.jpg
3227.623	2.379	1	generate	Run4	generate/STIM_021.jpg
3232.178	2.312	1	generate	Run4	generate/STIM_021.jpg
3236.567	2.172	1	generate	Run4	generate/STIM_021.jpg
3241.249	1.241	1	generate	Run4	generate/STIM_021.jpg
3245.539	2.006	1	generate	Run4	generate/STIM_022.jpg
3249.648	1.327	1	generate	Run4	generate/STIM_022.jpg
3253.895	2.074	1	generate	Run4	generate/STIM_022.jpg
3258.817	1.553	1	generate	Run4	generate/STIM_022.jpg
3263.766	2.438	1	generate	Run4	generate/STIM_022.jpg
3269.887	1.24	1	generate	Run4	generate/STIM_023.jpg
3273.289	2.277	1	generate	Run4	generate/STIM_023.jpg
3279.268	1.021	1	generate	Run4	generate/STIM_023.jpg
3282.675	1.071	1	generate	Run4	generate/STIM_023.jpg
3287.05	1.467	1	generate	Run4	generate/STIM_023.jpg
3291.074	2.106	1	generate	Run4	generate/STIM_024.jpg
3295.987	1.76	1	generate	Run4	generate/STIM_024.jpg
3301.735	1.377	1	generate	Run4	generate/STIM_024.jpg
3306.348	1.576	1	generate	Run4	generate/STIM_024.jpg
3311.092	1.7	1	generate	Run4	generate/STIM_024.jpg
3314.845	0.65	1	repeat	Run4	repeat/STIM_000.jpg
3318.316	0.894	1	repeat	Run4	repeat/STIM_000.jpg
3322.197	0.726	1	repeat	Run4	repeat/STIM_000.jpg
3326.606	1.08	1	repeat	Run4	repeat/STIM_000.jpg
3331.45	0.918	1	repeat	Run4	repeat/STIM_000.jpg
3334.415	0.915	1	repeat	Run4	repeat/STIM_001.jpg
3337.583	0.829	1	repeat	Run4	repeat/STIM_001.jpg
3341.705	0.812	1	repeat	Run4	repeat/STIM_001.jpg
3346.418	0.877	1	repeat	Run4	repeat/STIM_001.jpg
3350.591	1.038	1	repeat	Run4	repeat/STIM_001.jpg
3354.056	0.902	1	repeat	Run4	repeat/STIM_002.jpg
3358.14	0.699	1	repeat	Run4	repeat/STIM_002.jpg
3361.879	0.809	1	repeat	Run4	repeat/STIM_002.jpg
3366.081	1.008	1	repeat	Run4	repeat/STIM_002.jpg
3369.495	0.714	1	repeat	Run4	repeat/STIM_002.jpg
3373.214	1.039	1	repeat	Run4	repeat/STIM_003.jpg
3378.152	0.624	1	repeat	Run4	repeat/STIM_003.jpg
3381.494	0.756	1	repeat	Run4	repeat/STIM_003.jpg
3386.233	0.681	1	repeat	Run4	repeat/STIM_003.jpg
3389.276	0.898	1	repeat	Run4	repeat/STIM_003.jpg
3393.916	0.653	1	repeat	Run4	repeat/STIM_004.jpg
3397.379	0.789	0	repeat	Run4	repeat/STIM_004.jpg
3402.032	0.807	1	repeat	Run4	repeat/STIM_004.jpg
3405.89	1.028	1	repeat	Run4	repeat/STIM_004.jpg
3409.551	0.725	1	repeat	Run4	repeat/STIM_004.jpg
3413.28	0.947	1	repeat	Run4	repeat/STIM_005.jpg
3416.867	0.788	1	repeat	Run4	repeat/STIM_005.jpg
3419.925	1.017	1	repeat	Run4	repeat/STIM_005.jpg
3424.899	0.891	1	repeat	Run4	repeat/STIM_005.jpg
3428.676	0.693	1	repeat	Run4	repeat/STIM_005.jpg
3432.042	0.657	1	repeat	Run4	repeat/STIM_006.jpg
3435.411	1.036	0	repeat	Run4	repeat/STIM_006.jpg
3440.046	1.047	1	repeat	Run4	repeat/STIM_006.jpg
3444.286	0.594	1	repeat	Run4	repeat/STIM_006.jpg
3448.455	0.722	1	repeat	Run4	repeat/STIM_006.jpg
3452.807	1.099	1	repeat	Run4	repeat/STIM_007.jpg
3456.297	1.155	1	repeat	Run4	repeat/STIM_007.jpg
3460.864	0.801	1	repeat	Run4	repeat/STIM_007.jpg
3465.535	0.762	1	repeat	Run4	repeat/STIM_007.jpg
3469.55	0.923	1	repeat	Run4	repeat/STIM_007.jpg
3473.276	0.816	1	repeat	Run4	repeat/STIM_008.jpg
3476.731	0.915	1	repeat	Run4	repeat/STIM_008.jpg
3479.694	0.944	1	repeat	Run4	repeat/STIM_008.jpg
3483.685	0.875	1	repeat	Run4	repeat/STIM_008.jpg
3487.383	0.741	1	repeat	Run4	repeat/STIM_008.jpg
3491.621	0.668	1	repeat	Run4	repeat/STIM_009.jpg
3494.425	0.609	1	repeat	Run4	repeat/STIM_009.jpg
3497.156	0.601	1	repeat	Run4	repeat/STIM_009.jpg
3501.408	0.948	1	repeat	Run4	repeat/STIM_009.jpg
3504.86	0.916	1	repeat	Run4	repeat/STIM_009.jpg
3509.392	1.051	1	repeat	Run4	repeat/STIM_010.jpg
3514.265	0.712	1	repeat	Run4	repeat/STIM_010.jpg
3518.757	0.666	1	repeat	Run4	repeat/STIM_010.jpg
3521.636	0.668	1	repeat	Run4	repeat/STIM_010.jpg
3524.677	1.142	1	repeat	Run4	repeat/STIM_010.jpg
3529.616	0.643	1	repeat	Run4	repeat/STIM_011.jpg
3534.178	0.961	1	repeat	Run4	repeat/STIM_011.jpg
3537.729	0.904	1	repeat	Run4	repeat/STIM_011.jpg
3542.619	1.128	1	repeat	Run4	repeat/STIM_011.jpg
3546.506	1.086	1	repeat	Run4	repeat/STIM_011.jpg
3550.065	0.869	1	repeat	Run4	repeat/STIM_012.jpg
3554.069	0.833	1	repeat	Run4	repeat/STIM_012.jpg
3557.512	0.825	1	repeat	Run4	repeat/STIM_012.jpg
3560.901	0.832	1	repeat	Run4	repeat/STIM_012.jpg
3565.716	1.111	1	repeat	Run4	repeat/STIM_012.jpg
3569.691	0.997	1	repeat	Run4	repeat/STIM_013.jpg
3573.762	0.898	1	repeat	Run4	repeat/STIM_013.jpg
3576.805	0.684	1	repeat	Run4	repeat/STIM_013.jpg
3581.412	0.899	1	repeat	Run4	repeat/STIM_013.jpg
3585.214	0.801	1	repeat	Run4	repeat/STIM_013.jpg
3589.772	1.07	1	repeat	Run4	repeat/STIM_014.jpg
3593.42	0.86	1	repeat	Run4	repeat/STIM_014.jpg
3596.77	0.834	1	repeat	Run4	repeat/STIM_014.jpg
3599.617	1.157	1	repeat	Run4	repeat/STIM_014.jpg
3603.5	1.132	1	repeat	Run4	repeat/STIM_014.jpg
