onset	duration	response_time_ms	trial_type	learning_stage	stimulus	response_port
0.0	2.339	2338.6	generate	Run1	generate/STIM_000.jpg	100
4.37	1.597	1597.0	generate	Run1	generate/STIM_000.jpg	100
9.345	1.681	1681.2	generate	Run1	generate/STIM_000.jpg	99
14.506	1.756	1756.5	generate	Run1	generate/STIM_000.jpg	100
18.894	2.02	2019.9	generate	Run1	generate/STIM_000.jpg	100
24.139	2.065	2065.4	generate	Run1	generate/STIM_001.jpg	100
29.859	2.528	2527.7	generate	Run1	generate/STIM_001.jpg	99
35.707	2.062	2062.5	generate	Run1	generate/STIM_001.jpg	100
41.504	1.504	1504.2	generate	Run1	generate/STIM_001.jpg	100
45.608	2.806	2806.5	generate	Run1	generate/STIM_001.jpg	99
50.677	1.545	1544.6	generate	Run1	generate/STIM_002.jpg	99
55.649	3.289	3288.8	generate	Run1	generate/STIM_002.jpg	100
61.907	2.612	2611.9	generate	Run1	generate/STIM_002.jpg	100
66.7	2.346	2346.2	generate	Run1	generate/STIM_002.jpg	100
71.369	1.75	1750.1	generate	Run1	generate/STIM_002.jpg	99
76.829	3.084	3084.2	generate	Run1	generate/STIM_003.jpg	100
82.867	2.78	2779.5	generate	Run1	generate/STIM_003.jpg	100
89.384	1.558	1558.5	generate	Run1	generate/STIM_003.jpg	100
94.816	2.359	2358.6	generate	Run1	generate/STIM_003.jpg	99
101.092	1.366	1366.4	generate	Run1	generate/STIM_003.jpg	99
104.865	3.184	3184.4	generate	Run1	generate/STIM_004.jpg	99
111.237	2.593	2593.1	generate	Run1	generate/STIM_004.jpg	100
115.994	2.321	2320.6	generate	Run1	generate/STIM_004.jpg	100
121.157	2.738	2737.7	generate	Run1	generate/STIM_004.jpg	100
126.001	1.339	1338.6	generate	Run1	generate/STIM_004.jpg	100
130.611	2.105	2105.4	generate	Run1	generate/STIM_005.jpg	99
135.672	1.688	1687.7	generate	Run1	generate/STIM_005.jpg	99
140.496	2.294	2294.0	generate	Run1	generate/STIM_005.jpg	99
145.282	1.252	1252.1	generate	Run1	generate/STIM_005.jpg	99
149.124	2.351	2351.2	generate	Run1	generate/STIM_005.jpg	99
154.799	2.397	2396.9	generate	Run1	generate/STIM_006.jpg	99
160.925	2.995	2994.7	generate	Run1	generate/STIM_006.jpg	100
166.359	1.839	1838.7	generate	Run1	generate/STIM_006.jpg	100
171.145	2.281	2280.9	generate	Run1	generate/STIM_006.jpg	99
175.893	2.688	2687.5	generate	Run1	generate/STIM_006.jpg	100
181.481	1.448	1447.6	generate	Run1	generate/STIM_007.jpg	99
186.849	2.44	2440.1	generate	Run1	generate/STIM_007.jpg	100
192.109	1.524	1523.7	generate	Run1	generate/STIM_007.jpg	100
195.719	2.967	2967.1	generate	Run1	generate/STIM_007.jpg	100
202.43	1.492	1491.9	generate	Run1	generate/STIM_007.jpg	100
206.419	2.434	2434.2	generate	Run1	generate/STIM_008.jpg	100
211.469	1.906	1906.1	generate	Run1	generate/STIM_008.jpg	100
217.168	2.071	2071.3	generate	Run1	generate/STIM_008.jpg	100
222.956	1.868	1867.7	generate	Run1	generate/STIM_008.jpg	99
227.437	1.682	1682.2	generate	Run1	generate/STIM_008.jpg	100
231.325	3.528	3528.2	generate	Run1	generate/STIM_009.jpg	100
237.459	3.286	3286.4	generate	Run1	generate/STIM_009.jpg	99
243.364	2.844	2843.9	generate	Run1	generate/STIM_009.jpg	99
249.171	2.552	2551.7	generate	Run1	generate/STIM_009.jpg	99
254.304	2.539	2538.8	generate	Run1	generate/STIM_009.jpg	100
259.856	1.742	1742.0	generate	Run1	generate/STIM_010.jpg	99
264.695	1.429	1429.3	generate	Run1	generate/STIM_010.jpg	100
269.007	1.674	1674.4	generate	Run1	generate/STIM_010.jpg	99
274.051	1.206	1206.5	generate	Run1	generate/STIM_010.jpg	99
278.799	1.405	1404.9	generate	Run1	generate/STIM_010.jpg	99
283.223	3.209	3209.4	generate	Run1	generate/STIM_011.jpg	99
288.481	2.199	2199.0	generate	Run1	generate/STIM_011.jpg	99
293.72	2.125	2124.9	generate	Run1	generate/STIM_011.jpg	100
299.033	2.597	2596.9	generate	Run1	generate/STIM_011.jpg	99
305.563	2.266	2266.4	generate	Run1	generate/STIM_011.jpg	99
310.129	2.053	2052.7	generate	Run1	generate/STIM_012.jpg	100
316.012	2.021	2021.3	generate	Run1	generate/STIM_012.jpg	99
321.317	3.122	3122.1	generate	Run1	generate/STIM_012.jpg	99
328.269	1.379	1379.4	generate	Run1	generate/STIM_012.jpg	99
333.069	1.462	1462.2	generate	Run1	generate/STIM_012.jpg	99
337.78	1.926	1925.9	generate	Run1	generate/STIM_013.jpg	100
343.418	2.474	2473.8	generate	Run1	generate/STIM_013.jpg	100
348.902	2.005	2005.4	generate	Run1	generate/STIM_013.jpg	100
353.317	2.776	2775.6	generate	Run1	generate/STIM_013.jpg	99
358.882	2.028	2027.9	generate	Run1	generate/STIM_013.jpg	99
364.376	2.363	2363.0	generate	Run1	generate/STIM_014.jpg	99
369.266	1.765	1764.8	generate	Run1	generate/STIM_014.jpg	100
373.211	2.672	2671.7	generate	Run1	generate/STIM_014.jpg	100
379.327	1.883	1883.2	generate	Run1	generate/STIM_014.jpg	99
384.736	1.298	1297.5	generate	Run1	generate/STIM_014.jpg	99
388.456	1.495	1495.0	generate	Run1	generate/STIM_015.jpg	100
393.24	1.84	1840.1	generate	Run1	generate/STIM_015.jpg	99
397.709	3.083	3083.2	generate	Run1	generate/STIM_015.jpg	99
402.979	2.996	2995.5	generate	Run1	generate/STIM_015.jpg	100
409.104	2.224	2223.9	generate	Run1	generate/STIM_015.jpg	100
413.815	2.913	2912.8	generate	Run1	generate/STIM_016.jpg	99
419.287	1.93	1930.4	generate	Run1	generate/STIM_016.jpg	99
423.99	3.057	3057.0	generate	Run1	generate/STIM_016.jpg	100
429.268	2.524	2523.9	generate	Run1	generate/STIM_016.jpg	99
435.228	1.304	1303.9	generate	Run1	generate/STIM_016.jpg	99
439.795	2.742	2741.7	generate	Run1	generate/STIM_017.jpg	99
445.263	3.072	3072.1	generate	Run1	generate/STIM_017.jpg	100
451.325	1.584	1583.5	generate	Run1	generate/STIM_017.jpg	100
456.841	2.915	2915.2	generate	Run1	generate/STIM_017.jpg	100
462.783	1.953	1952.9	generate	Run1	generate/STIM_017.jpg	100
467.515	3.268	3268.3	generate	Run1	generate/STIM_018.jpg	100
472.9	1.726	1726.4	generate	Run1	generate/STIM_018.jpg	99
478.009	2.056	2055.5	generate	Run1	generate/STIM_018.jpg	99
482.822	2.498	2498.5	generate	Run1	generate/STIM_018.jpg	100
488.035	2.11	2110.5	generate	Run1	generate/STIM_018.jpg	99
493.204	3.405	3404.9	generate	Run1	generate/STIM_019.jpg	100
500.576	2.234	2234.1	generate	Run1	generate/STIM_019.jpg	99
506.601	1.303	1303.3	generate	Run1	generate/STIM_019.jpg	100
511.275	1.838	1838.2	generate	Run1	generate/STIM_019.jpg	100
516.593	2.076	2076.0	generate	Run1	generate/STIM_019.jpg	99
521.509	1.884	1884.3	generate	Run1	generate/STIM_020.jpg	100
525.397	1.555	1555.4	generate	Run1	generate/STIM_020.jpg	99
530.49	1.819	1818.9	generate	Run1	generate/STIM_020.jpg	100
535.897	2.362	2361.5	generate	Run1	generate/STIM_020.jpg	100
540.74	2.172	2172.0	generate	Run1	generate/STIM_020.jpg	99
546.305	1.5	1499.5	generate	Run1	generate/STIM_021.jpg	99
551.075	2.701	2700.8	generate	Run1	generate/STIM_021.jpg	99
557.217	2.514	2513.6	generate	Run1	generate/STIM_021.jpg	99
562.851	2.527	2526.6	generate	Run1	generate/STIM_021.jpg	100
568.307	2.115	2115.3	generate	Run1	generate/STIM_021.jpg	99
572.738	1.493	1493.0	generate	Run1	generate/STIM_022.jpg	99
576.99	2.182	2181.8	generate	Run1	generate/STIM_022.jpg	99
582.857	3.03	3029.5	generate	Run1	generate/STIM_022.jpg	99
589.794	1.656	1656.4	generate	Run1	generate/STIM_022.jpg	100
594.236	1.664	1664.1	generate	Run1	generate/STIM_022.jpg	99
599.359	1.439	1439.1	generate	Run1	generate/STIM_023.jpg	100
602.851	2.449	2448.8	generate	Run1	generate/STIM_023.jpg	100
608.964	1.706	1706.2	generate	Run1	generate/STIM_023.jpg	99
614.134	1.657	1657.0	generate	Run1	generate/STIM_023.jpg	99
619.716	1.407	1406.7	generate	Run1	generate/STIM_023.jpg	100
624.427	2.579	2578.8	generate	Run1	generate/STIM_024.jpg	99
630.786	3.13	3130.4	generate	Run1	generate/STIM_024.jpg	100
637.877	1.973	1973.4	generate	Run1	generate/STIM_024.jpg	100
642.18	1.653	1652.9	generate	Run1	generate/STIM_024.jpg	99
646.521	1.498	1498.3	generate	Run1	generate/STIM_024.jpg	99
651.068	0.849	849.1	repeat	Run1	repeat/STIM_000.jpg	100
655.701	1.064	1063.8	repeat	Run1	repeat/STIM_000.jpg	100
659.264	0.614	613.8	repeat	Run1	repeat/STIM_000.jpg	100
662.728	0.899	898.6	repeat	Run1	repeat/STIM_000.jpg	99
666.269	0.83	829.8	repeat	Run1	repeat/STIM_000.jpg	100
669.904	1.11	1110.0	repeat	Run1	repeat/STIM_001.jpg	100
673.61	0.812	812.0	repeat	Run1	repeat/STIM_001.jpg	99
678.291	1.098	1098.2	repeat	Run1	repeat/STIM_001.jpg	99
681.527	0.816	815.8	repeat	Run1	repeat/STIM_001.jpg	100
685.445	0.979	978.9	repeat	Run1	repeat/STIM_001.jpg	100
689.762	0.687	686.7	repeat	Run1	repeat/STIM_002.jpg	100
693.011	1.055	1054.8	repeat	Run1	repeat/STIM_002.jpg	100
696.734	0.609	609.0	repeat	Run1	repeat/STIM_002.jpg	99
699.639	0.931	931.1	repeat	Run1	repeat/STIM_002.jpg	99
703.13	0.628	627.6	repeat	Run1	repeat/STIM_002.jpg	100
707.506	0.891	891.0	repeat	Run1	repeat/STIM_003.jpg	100
710.559	1.066	1065.6	repeat	Run1	repeat/STIM_003.jpg	99
715.495	1.152	1151.9	repeat	Run1	repeat/STIM_003.jpg	100
720.182	1.181	1181.3	repeat	Run1	repeat/STIM_003.jpg	99
724.982	1.082	1082.1	repeat	Run1	repeat/STIM_003.jpg	100
728.843	0.832	831.8	repeat	Run1	repeat/STIM_004.jpg	99
731.834	0.87	870.3	repeat	Run1	repeat/STIM_004.jpg	99
734.953	0.861	861.0	repeat	Run1	repeat/STIM_004.jpg	100
737.923	1.138	1137.8	repeat	Run1	repeat/STIM_004.jpg	100
742.384	0.987	987.4	repeat	Run1	repeat/STIM_004.jpg	99
746.234	0.703	702.8	repeat	Run1	repeat/STIM_005.jpg	99
750.487	1.147	1146.7	repeat	Run1	repeat/STIM_005.jpg	99
755.111	1.085	1085.3	repeat	Run1	repeat/STIM_005.jpg	100
759.218	0.85	850.0	repeat	Run1	repeat/STIM_005.jpg	100
762.241	0.825	825.3	repeat	Run1	repeat/STIM_005.jpg	99
766.151	0.648	647.6	repeat	Run1	repeat/STIM_006.jpg	99
770.061	0.671	671.0	repeat	Run1	repeat/STIM_006.jpg	99
774.197	1.031	1031.3	repeat	Run1	repeat/STIM_006.jpg	99
777.917	0.916	916.3	repeat	Run1	repeat/STIM_006.jpg	99
782.343	1.109	1108.6	repeat	Run1	repeat/STIM_006.jpg	99
785.764	0.659	659.4	repeat	Run1	repeat/STIM_007.jpg	99
789.792	0.674	674.0	repeat	Run1	repeat/STIM_007.jpg	100
793.113	0.838	838.3	repeat	Run1	repeat/STIM_007.jpg	100
797.521	1.124	1124.4	repeat	Run1	repeat/STIM_007.jpg	100
802.444	1.031	1031.0	repeat	Run1	repeat/STIM_007.jpg	100
806.771	1.023	1023.0	repeat	Run1	repeat/STIM_008.jpg	100
810.54	0.752	752.5	repeat	Run1	repeat/STIM_008.jpg	100
813.492	1.012	1011.6	repeat	Run1	repeat/STIM_008.jpg	99
817.088	0.999	998.6	repeat	Run1	repeat/STIM_008.jpg	100
820.114	0.727	727.1	repeat	Run1	repeat/STIM_008.jpg	99
824.131	1.079	1079.2	repeat	Run1	repeat/STIM_009.jpg	99
827.66	1.036	1036.5	repeat	Run1	repeat/STIM_009.jpg	100
831.871	1.019	1019.1	repeat	Run1	repeat/STIM_009.jpg	100
836.373	1.052	1052.1	repeat	Run1	repeat/STIM_009.jpg	100
840.071	0.729	728.8	repeat	Run1	repeat/STIM_009.jpg	100
843.635	1.034	1034.2	repeat	Run1	repeat/STIM_010.jpg	100
848.552	0.624	624.3	repeat	Run1	repeat/STIM_010.jpg	100
852.84	0.946	946.5	repeat	Run1	repeat/STIM_010.jpg	100
857.25	0.914	913.5	repeat	Run1	repeat/STIM_010.jpg	99
862.142	1.039	1039.2	repeat	Run1	repeat/STIM_010.jpg	99
866.636	1.168	1168.1	repeat	Run1	repeat/STIM_011.jpg	99
871.062	0.826	825.8	repeat	Run1	repeat/STIM_011.jpg	100
874.004	1.007	1007.1	repeat	Run1	repeat/STIM_011.jpg	99
878.316	0.682	682.4	repeat	Run1	repeat/STIM_011.jpg	99
881.109	0.634	633.8	repeat	Run1	repeat/STIM_011.jpg	99
885.636	0.902	902.2	repeat	Run1	repeat/STIM_012.jpg	100
890.249	0.71	710.5	repeat	Run1	repeat/STIM_012.jpg	99
894.368	0.859	858.7	repeat	Run1	repeat/STIM_012.jpg	99
897.376	0.762	762.5	repeat	Run1	repeat/STIM_012.jpg	100
901.93	1.084	1084.1	repeat	Run1	repeat/STIM_012.jpg	100
905.113	0.97	969.9	repeat	Run1	repeat/STIM_013.jpg	100
909.424	0.736	736.3	repeat	Run1	repeat/STIM_013.jpg	100
912.627	0.99	989.9	repeat	Run1	repeat/STIM_013.jpg	100
916.025	0.627	626.8	repeat	Run1	repeat/STIM_013.jpg	100
920.136	1.08	1079.8	repeat	Run1	repeat/STIM_013.jpg	100
923.254	1.071	1071.2	repeat	Run1	repeat/STIM_014.jpg	100
928.042	1.067	1067.4	repeat	Run1	repeat/STIM_014.jpg	99
931.482	1.005	1004.9	repeat	Run1	repeat/STIM_014.jpg	100
935.855	0.693	693.0	repeat	Run1	repeat/STIM_014.jpg	100
938.828	0.687	686.6	repeat	Run1	repeat/STIM_014.jpg	100
943.135	2.565	2564.9	generate	Run2	generate/STIM_000.jpg	99
947.91	2.322	2322.4	generate	Run2	generate/STIM_000.jpg	99
953.858	1.603	1603.4	generate	Run2	generate/STIM_000.jpg	99
959.046	1.191	1190.6	generate	Run2	generate/STIM_000.jpg	99
962.42	1.49	1489.6	generate	Run2	generate/STIM_000.jpg	99
966.85	2.198	2198.2	generate	Run2	generate/STIM_001.jpg	99
972.299	2.435	2434.6	generate	Run2	generate/STIM_001.jpg	99
977.409	1.994	1994.4	generate	Run2	generate/STIM_001.jpg	99
983.277	1.559	1558.7	generate	Run2	generate/STIM_001.jpg	99
987.009	1.654	1654.4	generate	Run2	generate/STIM_001.jpg	100
991.846	2.799	2799.3	generate	Run2	generate/STIM_002.jpg	100
997.062	2.833	2833.1	generate	Run2	generate/STIM_002.jpg	99
1001.906	1.852	1851.9	generate	Run2	generate/STIM_002.jpg	99
1007.284	1.658	1657.9	generate	Run2	generate/STIM_002.jpg	100
1011.128	1.345	1345.3	generate	Run2	generate/STIM_002.jpg	100
1016.375	1.249	1249.3	generate	Run2	generate/STIM_003.jpg	100
1021.618	2.68	2679.5	generate	Run2	generate/STIM_003.jpg	100
1027.709	1.136	1136.5	generate	Run2	generate/STIM_003.jpg	99
1032.11	1.122	1122.0	generate	Run2	generate/STIM_003.jpg	100
1036.013	1.463	1463.0	generate	Run2	generate/STIM_003.jpg	100
1040.633	2.104	2104.2	generate	Run2	generate/STIM_004.jpg	99
1045.878	1.366	1366.0	generate	Run2	generate/STIM_004.jpg	100
1050.795	1.475	1475.1	generate	Run2	generate/STIM_004.jpg	100
1054.393	1.786	1786.3	generate	Run2	generate/STIM_004.jpg	100
1059.279	1.482	1482.4	generate	Run2	generate/STIM_004.jpg	100
1064.306	1.835	1834.8	generate	Run2	generate/STIM_005.jpg	100
1069.047	1.383	1383.3	generate	Run2	generate/STIM_005.jpg	100
1074.001	1.648	1648.3	generate	Run2	generate/STIM_005.jpg	99
1077.781	1.101	1100.8	generate	Run2	generate/STIM_005.jpg	100
1081.662	1.237	1236.8	generate	Run2	generate/STIM_005.jpg	99
1085.429	1.646	1646.5	generate	Run2	generate/STIM_006.jpg	100
1091.03	2.532	2531.9	generate	Run2	generate/STIM_006.jpg	100
1096.93	1.085	1084.7	generate	Run2	generate/STIM_006.jpg	99
1100.251	1.734	1734.1	generate	Run2	generate/STIM_006.jpg	100
1104.08	1.661	1661.0	generate	Run2	generate/STIM_006.jpg	99
1108.083	1.748	1748.1	generate	Run2	generate/STIM_007.jpg	99
1113.461	1.313	1312.6	generate	Run2	generate/STIM_007.jpg	99
1117.207	1.615	1614.9	generate	Run2	generate/STIM_007.jpg	99
1121.073	1.905	1905.2	generate	Run2	generate/STIM_007.jpg	100
1125.313	1.583	1582.9	generate	Run2	generate/STIM_007.jpg	100
1129.606	1.582	1582.4	generate	Run2	generate/STIM_008.jpg	100
1134.779	2.806	2806.2	generate	Run2	generate/STIM_008.jpg	99
1140.872	1.276	1276.5	generate	Run2	generate/STIM_008.jpg	100
1144.189	1.967	1967.0	generate	Run2	generate/STIM_008.jpg	100
1149.925	2.372	2371.7	generate	Run2	generate/STIM_008.jpg	99
1155.447	2.59	2589.9	generate	Run2	generate/STIM_009.jpg	100
1160.369	2.418	2418.3	generate	Run2	generate/STIM_009.jpg	99
1165.867	1.911	1911.4	generate	Run2	generate/STIM_009.jpg	100
1170.735	1.205	1205.1	generate	Run2	generate/STIM_009.jpg	100
1174.719	1.36	1359.6	generate	Run2	generate/STIM_009.jpg	100
1178.269	1.917	1916.6	generate	Run2	generate/STIM_010.jpg	100
1182.707	2.794	2794.2	generate	Run2	generate/STIM_010.jpg	100
1188.595	1.755	1754.6	generate	Run2	generate/STIM_010.jpg	99
1193.4	2.176	2175.8	generate	Run2	generate/STIM_010.jpg	100
1198.411	1.89	1890.5	generate	Run2	generate/STIM_010.jpg	100
1202.679	2.112	2112.4	generate	Run2	generate/STIM_011.jpg	99
1207.566	1.434	1433.8	generate	Run2	generate/STIM_011.jpg	100
1211.53	2.139	2138.9	generate	Run2	generate/STIM_011.jpg	99
1217.108	2.188	2187.7	generate	Run2	generate/STIM_011.jpg	99
1222.93	1.75	1749.9	generate	Run2	generate/STIM_011.jpg	100
1227.88	2.77	2770.4	generate	Run2	generate/STIM_012.jpg	99
1233.13	1.256	1255.6	generate	Run2	generate/STIM_012.jpg	100
1237.832	2.305	2305.3	generate	Run2	generate/STIM_012.jpg	99
1242.569	1.349	1349.4	generate	Run2	generate/STIM_012.jpg	100
1247.719	1.956	1955.9	generate	Run2	generate/STIM_012.jpg	99
1253.401	1.86	1859.5	generate	Run2	generate/STIM_013.jpg	99
1257.773	1.424	1424.5	generate	Run2	generate/STIM_013.jpg	100
1262.98	2.537	2536.6	generate	Run2	generate/STIM_013.jpg	99
1269.186	1.084	1084.5	generate	Run2	generate/STIM_013.jpg	100
1273.389	2.254	2254.2	generate	Run2	generate/STIM_013.jpg	99
1279.428	2.544	2543.9	generate	Run2	generate/STIM_014.jpg	100
1284.837	2.045	2044.6	generate	Run2	generate/STIM_014.jpg	99
1288.91	2.219	2219.2	generate	Run2	generate/STIM_014.jpg	99
1293.414	1.927	1927.1	generate	Run2	generate/STIM_014.jpg	100
1299.039	1.704	1703.6	generate	Run2	generate/STIM_014.jpg	100
1302.783	1.366	1366.3	generate	Run2	generate/STIM_015.jpg	100
1306.538	2.267	2266.8	generate	Run2	generate/STIM_015.jpg	100
1312.629	2.54	2539.7	generate	Run2	generate/STIM_015.jpg	100
1319.169	1.796	1796.5	generate	Run2	generate/STIM_015.jpg	100
1324.315	1.271	1270.6	generate	Run2	generate/STIM_015.jpg	100
1329.179	1.762	1762.3	generate	Run2	generate/STIM_016.jpg	100
1333.837	1.702	1702.1	generate	Run2	generate/STIM_016.jpg	100
1337.885	1.792	1792.1	generate	Run2	generate/STIM_016.jpg	100
1343.586	1.777	1777.4	generate	Run2	generate/STIM_016.jpg	100
1349.248	1.488	1487.7	generate	Run2	generate/STIM_016.jpg	99
1353.669	2.698	2698.0	generate	Run2	generate/STIM_017.jpg	99
1360.136	1.338	1337.5	generate	Run2	generate/STIM_017.jpg	100
1363.479	1.64	1639.9	generate	Run2	generate/STIM_017.jpg	100
1368.763	1.458	1457.7	generate	Run2	generate/STIM_017.jpg	99
1372.293	1.26	1259.9	generate	Run2	generate/STIM_017.jpg	100
1377.263	2.539	2538.7	generate	Run2	generate/STIM_018.jpg	99
1382.084	1.705	1704.6	generate	Run2	generate/STIM_018.jpg	100
1386.542	1.643	1642.7	generate	Run2	generate/STIM_018.jpg	100
1390.357	1.81	1809.8	generate	Run2	generate/STIM_018.jpg	99
1395.109	2.43	2429.9	generate	Run2	generate/STIM_018.jpg	99
1401.383	1.516	1515.9	generate	Run2	generate/STIM_019.jpg	99
1405.742	2.21	2210.3	generate	Run2	generate/STIM_019.jpg	99
1410.669	2.169	2168.8	generate	Run2	generate/STIM_019.jpg	99
1416.828	1.395	1394.7	generate	Run2	generate/STIM_019.jpg	99
1420.527	2.324	2324.5	generate	Run2	generate/STIM_019.jpg	99
1425.931	2.757	2757.3	generate	Run2	generate/STIM_020.jpg	99
1431.291	2.349	2348.8	generate	Run2	generate/STIM_020.jpg	100
1436.406	1.534	1533.8	generate	Run2	generate/STIM_020.jpg	99
1441.228	1.366	1366.0	generate	Run2	generate/STIM_020.jpg	100
1445.674	1.471	1471.2	generate	Run2	generate/STIM_020.jpg	100
1449.823	1.57	1569.5	generate	Run2	generate/STIM_021.jpg	100
1454.039	2.774	2773.6	generate	Run2	generate/STIM_021.jpg	99
1459.66	1.836	1836.4	generate	Run2	generate/STIM_021.jpg	99
1464.981	2.208	2207.9	generate	Run2	generate/STIM_021.jpg	99
1469.605	2.425	2424.8	generate	Run2	generate/STIM_021.jpg	99
1475.738	2.611	2611.1	generate	Run2	generate/STIM_022.jpg	100
1480.771	2.041	2041.2	generate	Run2	generate/STIM_022.jpg	100
1484.901	2.553	2553.0	generate	Run2	generate/STIM_022.jpg	99
1490.838	1.92	1919.8	generate	Run2	generate/STIM_022.jpg	99
1496.054	2.057	2057.2	generate	Run2	generate/STIM_022.jpg	99
1500.632	2.816	2815.5	generate	Run2	generate/STIM_023.jpg	100
1507.366	2.02	2019.9	generate	Run2	generate/STIM_023.jpg	100
1512.187	1.545	1545.1	generate	Run2	generate/STIM_023.jpg	100
1515.995	2.161	2161.4	generate	Run2	generate/STIM_023.jpg	99
1520.706	1.62	1620.4	generate	Run2	generate/STIM_023.jpg	99
1524.72	1.866	1865.7	generate	Run2	generate/STIM_024.jpg	100
1529.604	1.338	1338.1	generate	Run2	generate/STIM_024.jpg	100
1533.36	1.464	1463.9	generate	Run2	generate/STIM_024.jpg	99
1537.83	2.444	2444.1	generate	Run2	generate/STIM_024.jpg	100
1543.052	1.982	1982.4	generate	Run2	generate/STIM_024.jpg	100
1547.715	0.917	917.1	repeat	Run2	repeat/STIM_000.jpg	100
1551.015	0.83	829.6	repeat	Run2	repeat/STIM_000.jpg	100
1555.781	0.859	858.6	repeat	Run2	repeat/STIM_000.jpg	99
1559.25	1.035	1035.0	repeat	Run2	repeat/STIM_000.jpg	100
1563.797	0.873	872.7	repeat	Run2	repeat/STIM_000.jpg	100
1567.189	0.927	926.7	repeat	Run2	repeat/STIM_001.jpg	100
1571.873	0.622	622.3	repeat	Run2	repeat/STIM_001.jpg	99
1574.718	0.795	794.8	repeat	Run2	repeat/STIM_001.jpg	99
1578.142	0.85	849.6	repeat	Run2	repeat/STIM_001.jpg	99
1582.704	0.7	700.2	repeat	Run2	repeat/STIM_001.jpg	100
1587.19	0.678	677.6	repeat	Run2	repeat/STIM_002.jpg	100
1591.063	0.653	653.0	repeat	Run2	repeat/STIM_002.jpg	99
1594.647	0.967	967.4	repeat	Run2	repeat/STIM_002.jpg	100
1598.946	0.806	806.1	repeat	Run2	repeat/STIM_002.jpg	99
1602.079	0.7	699.6	repeat	Run2	repeat/STIM_002.jpg	99
1605.41	0.76	759.6	repeat	Run2	repeat/STIM_003.jpg	99
1608.833	0.77	770.5	repeat	Run2	repeat/STIM_003.jpg	99
1613.343	0.885	884.6	repeat	Run2	repeat/STIM_003.jpg	100
1616.339	0.612	611.6	repeat	Run2	repeat/STIM_003.jpg	99
1619.712	0.864	864.0	repeat	Run2	repeat/STIM_003.jpg	99
1624.346	0.898	898.5	repeat	Run2	repeat/STIM_004.jpg	99
1629.054	1.134	1133.7	repeat	Run2	repeat/STIM_004.jpg	99
1632.384	0.806	805.6	repeat	Run2	repeat/STIM_004.jpg	100
1636.384	0.908	908.1	repeat	Run2	repeat/STIM_004.jpg	99
1641.233	0.625	624.9	repeat	Run2	repeat/STIM_004.jpg	99
1645.028	0.724	724.1	repeat	Run2	repeat/STIM_005.jpg	99
1648.143	0.614	613.6	repeat	Run2	repeat/STIM_005.jpg	100
1650.79	0.738	738.1	repeat	Run2	repeat/STIM_005.jpg	100
1655.419	1.117	1117.0	repeat	Run2	repeat/STIM_005.jpg	100
1659.713	1.047	1047.0	repeat	Run2	repeat/STIM_005.jpg	100
1663.65	1.126	1125.9	repeat	Run2	repeat/STIM_006.jpg	100
1666.923	0.613	613.0	repeat	Run2	repeat/STIM_006.jpg	99
1669.983	0.958	958.2	repeat	Run2	repeat/STIM_006.jpg	99
1674.34	0.657	657.1	repeat	Run2	repeat/STIM_006.jpg	100
1677.696	0.78	779.6	repeat	Run2	repeat/STIM_006.jpg	100
1682.311	1.015	1015.1	repeat	Run2	repeat/STIM_007.jpg	100
1686.214	0.846	846.1	repeat	Run2	repeat/STIM_007.jpg	99
1690.505	1.072	1072.4	repeat	Run2	repeat/STIM_007.jpg	99
1694.351	0.649	648.8	repeat	Run2	repeat/STIM_007.jpg	100
1698.473	0.74	740.3	repeat	Run2	repeat/STIM_007.jpg	100
1703.104	1.127	1127.1	repeat	Run2	repeat/STIM_008.jpg	100
1708.027	0.651	650.8	repeat	Run2	repeat/STIM_008.jpg	99
1711.279	0.931	930.9	repeat	Run2	repeat/STIM_008.jpg	99
1714.913	1.05	1049.9	repeat	Run2	repeat/STIM_008.jpg	100
1719.031	1.057	1056.8	repeat	Run2	repeat/STIM_008.jpg	99
1723.872	1.066	1066.0	repeat	Run2	repeat/STIM_009.jpg	99
1727.891	0.617	617.0	repeat	Run2	repeat/STIM_009.jpg	100
1732.127	1.047	1046.8	repeat	Run2	repeat/STIM_009.jpg	99
1736.114	0.875	875.2	repeat	Run2	repeat/STIM_009.jpg	100
1740.612	1.163	1163.2	repeat	Run2	repeat/STIM_009.jpg	100
1744.498	0.651	650.7	repeat	Run2	repeat/STIM_010.jpg	99
1747.999	1.049	1049.0	repeat	Run2	repeat/STIM_010.jpg	99
1752.427	1.012	1011.5	repeat	Run2	repeat/STIM_010.jpg	100
1756.908	1.002	1001.5	repeat	Run2	repeat/STIM_010.jpg	99
1761.693	1.091	1091.0	repeat	Run2	repeat/STIM_010.jpg	99
1766.247	0.949	948.9	repeat	Run2	repeat/STIM_011.jpg	100
1770.83	0.667	667.1	repeat	Run2	repeat/STIM_011.jpg	99
1774.031	0.677	677.3	repeat	Run2	repeat/STIM_011.jpg	99
1778.167	1.084	1084.0	repeat	Run2	repeat/STIM_011.jpg	99
1781.995	0.6	600.3	repeat	Run2	repeat/STIM_011.jpg	99
1785.954	0.952	952.0	repeat	Run2	repeat/STIM_012.jpg	100
1789.051	0.673	672.9	repeat	Run2	repeat/STIM_012.jpg	99
1791.885	0.872	872.2	repeat	Run2	repeat/STIM_012.jpg	99
1795.903	0.657	657.4	repeat	Run2	repeat/STIM_012.jpg	100
1798.77	1.14	1139.6	repeat	Run2	repeat/STIM_012.jpg	100
1803.553	0.905	904.9	repeat	Run2	repeat/STIM_013.jpg	100
1807.039	1.113	1113.0	repeat	Run2	repeat/STIM_013.jpg	100
1810.733	1.128	1128.3	repeat	Run2	repeat/STIM_013.jpg	100
1815.652	0.927	927.1	repeat	Run2	repeat/STIM_013.jpg	100
1818.851	1.013	1012.9	repeat	Run2	repeat/STIM_013.jpg	99
1823.368	1.054	1053.6	repeat	Run2	repeat/STIM_014.jpg	100
1826.711	0.922	922.2	repeat	Run2	repeat/STIM_014.jpg	100
1831.461	1.165	1165.0	repeat	Run2	repeat/STIM_014.jpg	100
1835.524	1.176	1176.2	repeat	Run2	repeat/STIM_014.jpg	100
1840.673	0.659	659.0	repeat	Run2	repeat/STIM_014.jpg	99
1844.907	2.191	2190.6	generate	Run3	generate/STIM_000.jpg	100
1850.102	2.352	2352.3	generate	Run3	generate/STIM_000.jpg	100
1855.363	1.041	1040.9	generate	Run3	generate/STIM_000.jpg	100
1860.201	1.475	1474.7	generate	Run3	generate/STIM_000.jpg	99
1864.336	2.139	2139.1	generate	Run3	generate/STIM_000.jpg	100
1869.122	1.213	1213.1	generate	Run3	generate/STIM_001.jpg	99
1873.395	2.142	2142.3	generate	Run3	generate/STIM_001.jpg	100
1878.255	2.209	2208.6	generate	Run3	generate/STIM_001.jpg	99
1884.26	1.806	1806.5	generate	Run3	generate/STIM_001.jpg	100
1888.406	1.975	1974.8	generate	Run3	generate/STIM_001.jpg	99
1893.699	1.939	1938.6	generate	Run3	generate/STIM_002.jpg	100
1898.006	1.909	1908.8	generate	Run3	generate/STIM_002.jpg	100
1903.568	2.024	2023.7	generate	Run3	generate/STIM_002.jpg	99
1909.225	1.651	1650.8	generate	Run3	generate/STIM_002.jpg	99
1914.011	1.082	1081.8	generate	Run3	generate/STIM_002.jpg	99
1917.522	2.419	2419.2	generate	Run3	generate/STIM_003.jpg	100
1923.58	1.373	1372.7	generate	Run3	generate/STIM_003.jpg	99
1927.321	1.737	1737.3	generate	Run3	generate/STIM_003.jpg	99
1931.84	1.963	1962.8	generate	Run3	generate/STIM_003.jpg	100
1936.121	2.079	2079.4	generate	Run3	generate/STIM_003.jpg	99
1940.474	1.918	1918.2	generate	Run3	generate/STIM_004.jpg	100
1945.392	2.302	2301.9	generate	Run3	generate/STIM_004.jpg	100
1949.825	1.825	1825.3	generate	Run3	generate/STIM_004.jpg	100
1954.872	1.758	1758.3	generate	Run3	generate/STIM_004.jpg	100
1960.123	1.119	1118.8	generate	Run3	generate/STIM_004.jpg	100
1963.573	1.674	1674.1	generate	Run3	generate/STIM_005.jpg	100
1967.516	1.208	1207.5	generate	Run3	generate/STIM_005.jpg	100
1970.851	2.364	2363.5	generate	Run3	generate/STIM_005.jpg	99
1976.27	2.033	2033.1	generate	Run3	generate/STIM_005.jpg	99
1980.353	0.999	999.4	generate	Run3	generate/STIM_005.jpg	100
1983.506	2.474	2474.0	generate	Run3	generate/STIM_006.jpg	99
1989.5	2.209	2209.2	generate	Run3	generate/STIM_006.jpg	100
1994.786	1.448	1447.6	generate	Run3	generate/STIM_006.jpg	99
1999.409	1.579	1578.9	generate	Run3	generate/STIM_006.jpg	99
2004.977	2.04	2039.7	generate	Run3	generate/STIM_006.jpg	100
2010.728	1.897	1897.4	generate	Run3	generate/STIM_007.jpg	100
2015.114	2.102	2102.4	generate	Run3	generate/STIM_007.jpg	99
2021.126	1.383	1382.7	generate	Run3	generate/STIM_007.jpg	100
2025.089	1.232	1232.3	generate	Run3	generate/STIM_007.jpg	100
2028.908	1.562	1561.9	generate	Run3	generate/STIM_007.jpg	100
2033.07	1.164	1164.0	generate	Run3	generate/STIM_008.jpg	100
2036.418	1.138	1138.3	generate	Run3	generate/STIM_008.jpg	99
2040.237	2.206	2206.2	generate	Run3	generate/STIM_008.jpg	99
2045.975	1.003	1003.2	generate	Run3	generate/STIM_008.jpg	100
2050.034	1.408	1408.1	generate	Run3	generate/STIM_008.jpg	99
2054.679	2.089	2089.4	generate	Run3	generate/STIM_009.jpg	100
2060.421	1.128	1128.5	generate	Run3	generate/STIM_009.jpg	99
2064.737	2.466	2466.5	generate	Run3	generate/STIM_009.jpg	99
2070.535	2.452	2452.2	generate	Run3	generate/STIM_009.jpg	100
2075.56	1.492	1492.2	generate	Run3	generate/STIM_009.jpg	99
2079.237	1.239	1239.4	generate	Run3	generate/STIM_010.jpg	99
2084.14	2.358	2358.2	generate	Run3	generate/STIM_010.jpg	99
2089.574	2.262	2261.5	generate	Run3	generate/STIM_010.jpg	99
2094.986	1.478	1478.5	generate	Run3	generate/STIM_010.jpg	100
2099.418	1.323	1322.9	generate	Run3	generate/STIM_010.jpg	100
2104.523	2.072	2071.8	generate	Run3	generate/STIM_011.jpg	100
2108.751	1.673	1672.7	generate	Run3	generate/STIM_011.jpg	100
2113.31	2.167	2166.6	generate	Run3	generate/STIM_011.jpg	99
2117.54	1.847	1846.8	generate	Run3	generate/STIM_011.jpg	99
2121.708	2.267	2267.3	generate	Run3	generate/STIM_011.jpg	99
2126.57	1.162	1162.0	generate	Run3	generate/STIM_012.jpg	99
2130.595	2.193	2192.6	generate	Run3	generate/STIM_012.jpg	99
2136.306	2.172	2171.6	generate	Run3	generate/STIM_012.jpg	99
2141.542	1.344	1343.7	generate	Run3	generate/STIM_012.jpg	100
2145.924	2.0	2000.0	generate	Run3	generate/STIM_012.jpg	100
2151.711	1.303	1303.3	generate	Run3	generate/STIM_013.jpg	99
2155.341	1.516	1516.1	generate	Run3	generate/STIM_013.jpg	100
2159.561	1.236	1236.4	generate	Run3	generate/STIM_013.jpg	99
2163.881	1.226	1225.5	generate	Run3	generate/STIM_013.jpg	100
2167.957	1.58	1579.7	generate	Run3	generate/STIM_013.jpg	99
2172.435	1.913	1913.4	generate	Run3	generate/STIM_014.jpg	99
2176.588	2.068	2068.2	generate	Run3	generate/STIM_014.jpg	99
2180.811	1.143	1143.4	generate	Run3	generate/STIM_014.jpg	99
2184.569	1.925	1925.0	generate	Run3	generate/STIM_014.jpg	100
2188.908	2.086	2085.6	generate	Run3	generate/STIM_014.jpg	100
2193.47	1.067	1067.4	generate	Run3	generate/STIM_015.jpg	100
2196.664	2.029	2028.7	generate	Run3	generate/STIM_015.jpg	100
2201.106	2.011	2011.3	generate	Run3	generate/STIM_015.jpg	99
2205.282	2.203	2203.3	generate	Run3	generate/STIM_015.jpg	100
2211.354	1.256	1256.5	generate	Run3	generate/STIM_015.jpg	100
2214.868	1.224	1223.5	generate	Run3	generate/STIM_016.jpg	100
2219.621	2.207	2207.2	generate	Run3	generate/STIM_016.jpg	100
2225.402	2.219	2218.7	generate	Run3	generate/STIM_016.jpg	100
2231.086	1.841	1841.3	generate	Run3	generate/STIM_016.jpg	100
2235.642	2.039	2039.3	generate	Run3	generate/STIM_016.jpg	99
2241.485	2.342	2342.1	generate	Run3	generate/STIM_017.jpg	100
2246.144	2.302	2301.8	generate	Run3	generate/STIM_017.jpg	100
2251.23	1.027	1027.3	generate	Run3	generate/STIM_017.jpg	100
2254.841	2.018	2017.8	generate	Run3	generate/STIM_017.jpg	100
2259.618	1.921	1921.3	generate	Run3	generate/STIM_017.jpg	99
2264.492	1.478	1478.3	generate	Run3	generate/STIM_018.jpg	99
2269.165	1.866	1866.3	generate	Run3	generate/STIM_018.jpg	100
2274.919	2.2	2200.5	generate	Run3	generate/STIM_018.jpg	99
2279.779	2.032	2031.9	generate	Run3	generate/STIM_018.jpg	100
2285.583	1.622	1622.1	generate	Run3	generate/STIM_018.jpg	100
2290.413	1.668	1668.1	generate	Run3	generate/STIM_019.jpg	100
2294.134	1.1	1100.5	generate	Run3	generate/STIM_019.jpg	100
2299.13	1.847	1846.8	generate	Run3	generate/STIM_019.jpg	99
2303.96	1.378	1377.7	generate	Run3	generate/STIM_019.jpg	99
2307.831	1.633	1633.3	generate	Run3	generate/STIM_019.jpg	99
2312.923	1.62	1620.0	generate	Run3	generate/STIM_020.jpg	99
2318.122	1.794	1794.4	generate	Run3	generate/STIM_020.jpg	99
2323.426	1.013	1012.7	generate	Run3	generate/STIM_020.jpg	100
2328.121	1.866	1865.7	generate	Run3	generate/STIM_020.jpg	100
2333.967	1.924	1924.2	generate	Run3	generate/STIM_020.jpg	100
2338.748	1.926	1925.5	generate	Run3	generate/STIM_021.jpg	100
2343.863	1.572	1572.4	generate	Run3	generate/STIM_021.jpg	99
2348.312	2.339	2338.8	generate	Run3	generate/STIM_021.jpg	99
2354.47	1.774	1773.6	generate	Run3	generate/STIM_021.jpg	99
2359.49	2.228	2227.6	generate	Run3	generate/STIM_021.jpg	99
2365.681	1.312	1311.7	generate	Run3	generate/STIM_022.jpg	99
2369.083	1.129	1128.6	generate	Run3	generate/STIM_022.jpg	100
2372.702	1.66	1660.1	generate	Run3	generate/STIM_022.jpg	100
2376.775	1.342	1342.0	generate	Run3	generate/STIM_022.jpg	100
2380.959	1.639	1639.3	generate	Run3	generate/STIM_022.jpg	100
2385.247	1.343	1343.0	generate	Run3	generate/STIM_023.jpg	100
2390.367	1.474	1473.8	generate	Run3	generate/STIM_023.jpg	99
2394.457	2.218	2218.0	generate	Run3	generate/STIM_023.jpg	99
2399.258	1.922	1922.0	generate	Run3	generate/STIM_023.jpg	100
2403.299	1.531	1531.0	generate	Run3	generate/STIM_023.jpg	99
2407.326	1.125	1124.8	generate	Run3	generate/STIM_024.jpg	100
2412.346	2.397	2396.8	generate	Run3	generate/STIM_024.jpg	100
2417.916	2.264	2264.3	generate	Run3	generate/STIM_024.jpg	99
2422.953	1.423	1422.7	generate	Run3	generate/STIM_024.jpg	100
2426.566	2.283	2283.3	generate	Run3	generate/STIM_024.jpg	99
2431.28	1.095	1094.9	repeat	Run3	repeat/STIM_000.jpg	99
2434.51	1.068	1067.6	repeat	Run3	repeat/STIM_000.jpg	99
2438.697	0.81	810.5	repeat	Run3	repeat/STIM_000.jpg	99
2443.39	0.727	727.0	repeat	Run3	repeat/STIM_000.jpg	100
2447.553	1.137	1136.8	repeat	Run3	repeat/STIM_000.jpg	100
2452.515	0.761	760.6	repeat	Run3	repeat/STIM_001.jpg	100
2455.491	0.592	592.4	repeat	Run3	repeat/STIM_001.jpg	99
2459.485	0.74	739.9	repeat	Run3	repeat/STIM_001.jpg	100
2463.312	0.916	915.9	repeat	Run3	repeat/STIM_001.jpg	99
2467.578	1.136	1136.1	repeat	Run3	repeat/STIM_001.jpg	100
2470.865	0.701	700.9	repeat	Run3	repeat/STIM_002.jpg	99
2474.757	0.661	660.7	repeat	Run3	repeat/STIM_002.jpg	100
2478.283	1.089	1088.8	repeat	Run3	repeat/STIM_002.jpg	100
2481.965	0.864	864.5	repeat	Run3	repeat/STIM_002.jpg	100
2486.606	1.114	1114.4	repeat	Run3	repeat/STIM_002.jpg	99
2491.074	0.7	700.4	repeat	Run3	repeat/STIM_003.jpg	100
2494.7	0.735	735.3	repeat	Run3	repeat/STIM_003.jpg	99
2497.652	0.965	965.0	repeat	Run3	repeat/STIM_003.jpg	99
2500.641	0.95	950.0	repeat	Run3	repeat/STIM_003.jpg	100
2503.891	0.814	814.1	repeat	Run3	repeat/STIM_003.jpg	99
2507.803	1.059	1059.3	repeat	Run3	repeat/STIM_004.jpg	99
2512.238	0.604	604.4	repeat	Run3	repeat/STIM_004.jpg	99
2516.709	0.68	680.3	repeat	Run3	repeat/STIM_004.jpg	100
2519.528	1.166	1165.9	repeat	Run3	repeat/STIM_004.jpg	100
2523.747	0.874	873.8	repeat	Run3	repeat/STIM_004.jpg	100
2527.474	1.163	1162.8	repeat	Run3	repeat/STIM_005.jpg	99
2531.522	0.703	703.0	repeat	Run3	repeat/STIM_005.jpg	99
2535.925	0.858	858.1	repeat	Run3	repeat/STIM_005.jpg	100
2539.059	1.019	1019.4	repeat	Run3	repeat/STIM_005.jpg	100
2542.948	1.015	1015.3	repeat	Run3	repeat/STIM_005.jpg	100
2547.679	0.695	694.7	repeat	Run3	repeat/STIM_006.jpg	99
2550.474	0.669	669.2	repeat	Run3	repeat/STIM_006.jpg	100
2555.057	0.674	674.3	repeat	Run3	repeat/STIM_006.jpg	100
2558.006	0.66	660.4	repeat	Run3	repeat/STIM_006.jpg	99
2561.278	1.035	1035.4	repeat	Run3	repeat/STIM_006.jpg	99
2565.903	0.821	821.2	repeat	Run3	repeat/STIM_007.jpg	99
2570.002	0.776	775.5	repeat	Run3	repeat/STIM_007.jpg	100
2574.339	0.613	612.9	repeat	Run3	repeat/STIM_007.jpg	100
2577.651	0.871	870.9	repeat	Run3	repeat/STIM_007.jpg	99
2580.99	0.897	896.6	repeat	Run3	repeat/STIM_007.jpg	100
2583.925	1.076	1075.9	repeat	Run3	repeat/STIM_008.jpg	100
2587.777	1.117	1116.7	repeat	Run3	repeat/STIM_008.jpg	100
2591.364	1.11	1110.0	repeat	Run3	repeat/STIM_008.jpg	100
2595.023	1.012	1012.0	repeat	Run3	repeat/STIM_008.jpg	100
2598.426	1.147	1147.0	repeat	Run3	repeat/STIM_008.jpg	100
2602.688	1.166	1166.2	repeat	Run3	repeat/STIM_009.jpg	99
2606.632	1.027	1026.7	repeat	Run3	repeat/STIM_009.jpg	99
2610.717	1.094	1094.1	repeat	Run3	repeat/STIM_009.jpg	99
2614.048	0.989	988.8	repeat	Run3	repeat/STIM_009.jpg	99
2618.061	0.605	604.8	repeat	Run3	repeat/STIM_009.jpg	99
2620.96	0.655	654.6	repeat	Run3	repeat/STIM_010.jpg	99
2625.557	1.045	1044.6	repeat	Run3	repeat/STIM_010.jpg	100
2629.659	0.745	745.2	repeat	Run3	repeat/STIM_010.jpg	100
2632.705	1.166	1166.0	repeat	Run3	repeat/STIM_010.jpg	99
2636.428	0.875	874.8	repeat	Run3	repeat/STIM_010.jpg	100
2640.058	0.663	663.4	repeat	Run3	repeat/STIM_011.jpg	99
2643.469	1.058	1057.5	repeat	Run3	repeat/STIM_011.jpg	100
2646.951	0.879	879.4	repeat	Run3	repeat/STIM_011.jpg	99
2650.329	0.647	646.9	repeat	Run3	repeat/STIM_011.jpg	100
2654.679	0.696	696.5	repeat	Run3	repeat/STIM_011.jpg	100
2658.378	1.085	1084.7	repeat	Run3	repeat/STIM_012.jpg	99
2661.921	0.793	793.4	repeat	Run3	repeat/STIM_012.jpg	99
2665.852	0.775	775.3	repeat	Run3	repeat/STIM_012.jpg	100
2670.52	0.736	736.1	repeat	Run3	repeat/STIM_012.jpg	99
2674.956	0.852	851.8	repeat	Run3	repeat/STIM_012.jpg	99
2678.962	0.608	608.2	repeat	Run3	repeat/STIM_013.jpg	100
2682.486	1.125	1125.2	repeat	Run3	repeat/STIM_013.jpg	99
2687.071	0.837	837.1	repeat	Run3	repeat/STIM_013.jpg	100
2691.225	0.793	793.3	repeat	Run3	repeat/STIM_013.jpg	100
2695.97	1.045	1044.9	repeat	Run3	repeat/STIM_013.jpg	99
2699.505	0.765	764.8	repeat	Run3	repeat/STIM_014.jpg	99
2702.849	1.129	1129.4	repeat	Run3	repeat/STIM_014.jpg	100
2707.866	0.818	818.3	repeat	Run3	repeat/STIM_014.jpg	99
2711.149	0.861	861.4	repeat	Run3	repeat/STIM_014.jpg	99
2715.207	0.891	890.8	repeat	Run3	repeat/STIM_014.jpg	99
2719.915	2.282	2282.1	generate	Run4	generate/STIM_000.jpg	100
2725.865	1.818	1818.1	generate	Run4	generate/STIM_000.jpg	100
2729.973	2.361	2361.1	generate	Run4	generate/STIM_000.jpg	100
2735.473	2.082	2081.9	generate	Run4	generate/STIM_000.jpg	99
2739.855	2.191	2191.4	generate	Run4	generate/STIM_000.jpg	99
2745.435	1.649	1649.4	generate	Run4	generate/STIM_001.jpg	99
2750.989	2.286	2285.9	generate	Run4	generate/STIM_001.jpg	100
2756.47	2.209	2209.3	generate	Run4	generate/STIM_001.jpg	100
2762.221	2.457	2456.6	generate	Run4	generate/STIM_001.jpg	99
2768.608	1.079	1078.7	generate	Run4	generate/STIM_001.jpg	99
2772.002	2.266	2265.7	generate	Run4	generate/STIM_002.jpg	100
2776.714	1.881	1881.2	generate	Run4	generate/STIM_002.jpg	100
2781.626	1.896	1895.8	generate	Run4	generate/STIM_002.jpg	99
2786.38	2.179	2179.3	generate	Run4	generate/STIM_002.jpg	100
2792.249	1.212	1212.0	generate	Run4	generate/STIM_002.jpg	100
2797.182	2.123	2122.8	generate	Run4	generate/STIM_003.jpg	100
2801.485	2.119	2118.9	generate	Run4	generate/STIM_003.jpg	100
2807.525	1.592	1592.4	generate	Run4	generate/STIM_003.jpg	99
2811.268	1.122	1121.5	generate	Run4	generate/STIM_003.jpg	99
2814.595	1.644	1644.1	generate	Run4	generate/STIM_003.jpg	99
2818.297	1.686	1686.1	generate	Run4	generate/STIM_004.jpg	99
2823.105	1.108	1108.1	generate	Run4	generate/STIM_004.jpg	99
2826.34	1.086	1085.7	generate	Run4	generate/STIM_004.jpg	100
2831.393	1.517	1517.3	generate	Run4	generate/STIM_004.jpg	100
2836.717	1.562	1562.2	generate	Run4	generate/STIM_004.jpg	100
2841.265	2.013	2012.7	generate	Run4	generate/STIM_005.jpg	99
2846.354	1.021	1020.9	generate	Run4	generate/STIM_005.jpg	100
2851.284	1.059	1058.6	generate	Run4	generate/STIM_005.jpg	99
2855.565	1.771	1770.7	generate	Run4	generate/STIM_005.jpg	99
2860.773	2.227	2227.3	generate	Run4	generate/STIM_005.jpg	99
2865.204	1.305	1304.6	generate	Run4	generate/STIM_006.jpg	99
2870.44	2.268	2267.9	generate	Run4	generate/STIM_006.jpg	100
2875.934	1.301	1301.4	generate	Run4	generate/STIM_006.jpg	99
2880.011	1.991	1990.9	generate	Run4	generate/STIM_006.jpg	100
2884.872	1.992	1992.2	generate	Run4	generate/STIM_006.jpg	99
2888.904	2.477	2476.7	generate	Run4	generate/STIM_007.jpg	100
2893.381	1.356	1356.2	generate	Run4	generate/STIM_007.jpg	99
2898.387	2.307	2307.2	generate	Run4	generate/STIM_007.jpg	99
2904.654	2.089	2089.4	generate	Run4	generate/STIM_007.jpg	100
2909.351	1.552	1552.5	generate	Run4	generate/STIM_007.jpg	100
2914.236	2.463	2462.7	generate	Run4	generate/STIM_008.jpg	100
2920.682	2.292	2291.7	generate	Run4	generate/STIM_008.jpg	100
2926.283	2.136	2135.9	generate	Run4	generate/STIM_008.jpg	99
2932.013	1.208	1207.7	generate	Run4	generate/STIM_008.jpg	100
2937.175	1.246	1246.1	generate	Run4	generate/STIM_008.jpg	100
2941.404	1.935	1935.3	generate	Run4	generate/STIM_009.jpg	99
2947.006	2.216	2216.5	generate	Run4	generate/STIM_009.jpg	100
2952.543	1.361	1360.8	generate	Run4	generate/STIM_009.jpg	99
2957.285	2.436	2435.7	generate	Run4	generate/STIM_009.jpg	100
2962.319	2.48	2480.3	generate	Run4	generate/STIM_009.jpg	99
2967.668	1.509	1509.4	generate	Run4	generate/STIM_010.jpg	99
2972.296	1.85	1850.5	generate	Run4	generate/STIM_010.jpg	99
2976.378	2.364	2363.6	generate	Run4	generate/STIM_010.jpg	99
2982.141	1.436	1436.0	generate	Run4	generate/STIM_010.jpg	99
2986.658	2.224	2223.8	generate	Run4	generate/STIM_010.jpg	100
2992.878	1.407	1407.0	generate	Run4	generate/STIM_011.jpg	100
2997.232	1.012	1012.1	generate	Run4	generate/STIM_011.jpg	100
3001.006	2.168	2167.6	generate	Run4	generate/STIM_011.jpg	99
3007.126	1.418	1418.5	generate	Run4	generate/STIM_011.jpg	99
3010.714	2.35	2350.5	generate	Run4	generate/STIM_011.jpg	100
3015.541	1.344	1343.8	generate	Run4	generate/STIM_012.jpg	99
3019.541	1.762	1761.5	generate	Run4	generate/STIM_012.jpg	99
3024.042	2.053	2053.1	generate	Run4	generate/STIM_012.jpg	99
3029.968	2.194	2193.9	generate	Run4	generate/STIM_012.jpg	99
3035.353	2.066	2065.8	generate	Run4	generate/STIM_012.jpg	100
3039.933	2.309	2308.9	generate	Run4	generate/STIM_013.jpg	99
3045.326	2.103	2103.3	generate	Run4	generate/STIM_013.jpg	99
3050.918	2.42	2419.7	generate	Run4	generate/STIM_013.jpg	100
3055.982	2.391	2390.6	generate	Run4	generate/STIM_013.jpg	99
3060.704	1.474	1474.5	generate	Run4	generate/STIM_013.jpg	99
3065.946	1.512	1512.4	generate	Run4	generate/STIM_014.jpg	99
3070.854	1.037	1037.3	generate	Run4	generate/STIM_014.jpg	100
3074.176	1.257	1257.1	generate	Run4	generate/STIM_014.jpg	99
3077.623	2.076	2075.5	generate	Run4	generate/STIM_014.jpg	100
3082.712	2.256	2256.5	generate	Run4	generate/STIM_014.jpg	100
3087.311	1.433	1432.7	generate	Run4	generate/STIM_015.jpg	99
3091.183	1.516	1516.2	generate	Run4	generate/STIM_015.jpg	99
3096.491	2.19	2190.2	generate	Run4	generate/STIM_015.jpg	100
3100.908	0.999	999.2	generate	Run4	generate/STIM_015.jpg	99
3104.81	1.798	1797.6	generate	Run4	generate/STIM_015.jpg	100
3108.687	1.783	1783.4	generate	Run4	generate/STIM_016.jpg	100
3113.984	1.091	1090.7	generate	Run4	generate/STIM_016.jpg	99
3118.05	2.253	2253.0	generate	Run4	generate/STIM_016.jpg	100
3123.262	1.053	1053.2	generate	Run4	generate/STIM_016.jpg	99
3128.032	2.32	2320.3	generate	Run4	generate/STIM_016.jpg	100
3132.857	1.068	1067.6	generate	Run4	generate/STIM_017.jpg	99
3137.383	1.465	1465.2	generate	Run4	generate/STIM_017.jpg	99
3140.992	1.346	1346.5	generate	Run4	generate/STIM_017.jpg	100
3144.532	2.452	2452.3	generate	Run4	generate/STIM_017.jpg	100
3149.42	2.423	2423.1	generate	Run4	generate/STIM_017.jpg	99
3155.674	1.099	1099.0	generate	Run4	generate/STIM_018.jpg	100
3159.238	1.199	1198.7	generate	Run4	generate/STIM_018.jpg	100
3163.14	1.178	1178.3	generate	Run4	generate/STIM_018.jpg	100
3167.989	1.512	1511.7	generate	Run4	generate/STIM_018.jpg	100
3171.566	1.671	1670.9	generate	Run4	generate/STIM_018.jpg	99
3175.463	2.345	2345.4	generate	Run4	generate/STIM_019.jpg	99
3180.334	2.434	2433.6	generate	Run4	generate/STIM_019.jpg	100
3185.726	2.296	2296.3	generate	Run4	generate/STIM_019.jpg	99
3190.42	2.443	2443.3	generate	Run4	generate/STIM_019.jpg	100
3195.672	1.268	1267.5	generate	Run4	generate/STIM_019.jpg	100
3199.673	1.244	1244.1	generate	Run4	generate/STIM_020.jpg	99
3204.517	1.953	1953.4	generate	Run4	generate/STIM_020.jpg	99
3209.539	1.7	1699.9	generate	Run4	generate/STIM_020.jpg	99
3213.483	1.323	1323.0	generate	Run4	generate/STIM_020.jpg	99
3217.811	2.026	2026.3	generate	Run4	generate/STIM_020.jpg	100
3223.457	2.131	2131.2	generate	Run4	generate/STIM_021.jpg	99
3227.623	2.379	2379.2	generate	Run4	generate/STIM_021.jpg	99
3232.178	2.312	2311.7	generate	Run4	generate/STIM_021.jpg	100
3236.567	2.172	2171.6	generate	Run4	generate/STIM_021.jpg	99
3241.249	1.241	1241.1	generate	Run4	generate/STIM_021.jpg	100
3245.539	2.006	2006.3	generate	Run4	generate/STIM_022.jpg	100
3249.648	1.327	1326.7	generate	Run4	generate/STIM_022.jpg	100
3253.895	2.074	2074.3	generate	Run4	generate/STIM_022.jpg	100
3258.817	1.553	1553.0	generate	Run4	generate/STIM_022.jpg	99
3263.766	2.438	2437.7	generate	Run4	generate/STIM_022.jpg	99
3269.887	1.24	1240.1	generate	Run4	generate/STIM_023.jpg	99
3273.289	2.277	2276.6	generate	Run4	generate/STIM_023.jpg	100
3279.268	1.021	1021.2	generate	Run4	generate/STIM_023.jpg	100
3282.675	1.071	1071.3	generate	Run4	generate/STIM_023.jpg	100
3287.05	1.467	1467.2	generate	Run4	generate/STIM_023.jpg	99
3291.074	2.106	2105.7	generate	Run4	generate/STIM_024.jpg	100
3295.987	1.76	1759.8	generate	Run4	generate/STIM_024.jpg	100
3301.735	1.377	1377.1	generate	Run4	generate/STIM_024.jpg	100
3306.348	1.576	1575.5	generate	Run4	generate/STIM_024.jpg	99
3311.092	1.7	1700.2	generate	Run4	generate/STIM_024.jpg	100
3314.845	0.65	650.5	repeat	Run4	repeat/STIM_000.jpg	99
3318.316	0.894	894.1	repeat	Run4	repeat/STIM_000.jpg	100
3322.197	0.726	726.5	repeat	Run4	repeat/STIM_000.jpg	99
3326.606	1.08	1080.2	repeat	Run4	repeat/STIM_000.jpg	100
3331.45	0.918	918.1	repeat	Run4	repeat/STIM_000.jpg	100
3334.415	0.915	915.0	repeat	Run4	repeat/STIM_001.jpg	100
3337.583	0.829	828.8	repeat	Run4	repeat/STIM_001.jpg	99
3341.705	0.812	812.5	repeat	Run4	repeat/STIM_001.jpg	99
3346.418	0.877	877.4	repeat	Run4	repeat/STIM_001.jpg	99
3350.591	1.038	1038.5	repeat	Run4	repeat/STIM_001.jpg	99
3354.056	0.902	901.9	repeat	Run4	repeat/STIM_002.jpg	100
3358.14	0.699	699.0	repeat	Run4	repeat/STIM_002.jpg	100
3361.879	0.809	809.1	repeat	Run4	repeat/STIM_002.jpg	100
3366.081	1.008	1008.4	repeat	Run4	repeat/STIM_002.jpg	100
3369.495	0.714	714.3	repeat	Run4	repeat/STIM_002.jpg	100
3373.214	1.039	1039.3	repeat	Run4	repeat/STIM_003.jpg	100
3378.152	0.624	624.3	repeat	Run4	repeat/STIM_003.jpg	99
3381.494	0.756	755.5	repeat	Run4	repeat/STIM_003.jpg	100
3386.233	0.681	681.1	repeat	Run4	repeat/STIM_003.jpg	100
3389.276	0.898	897.8	repeat	Run4	repeat/STIM_003.jpg	99
3393.916	0.653	652.8	repeat	Run4	repeat/STIM_004.jpg	100
3397.379	0.789	789.4	repeat	Run4	repeat/STIM_004.jpg	100
3402.032	0.807	807.0	repeat	Run4	repeat/STIM_004.jpg	100
3405.89	1.028	1027.6	repeat	Run4	repeat/STIM_004.jpg	100
3409.551	0.725	724.9	repeat	Run4	repeat/STIM_004.jpg	100
3413.28	0.947	947.0	repeat	Run4	repeat/STIM_005.jpg	100
3416.867	0.788	788.5	repeat	Run4	repeat/STIM_005.jpg	99
3419.925	1.017	1017.4	repeat	Run4	repeat/STIM_005.jpg	99
3424.899	0.891	891.0	repeat	Run4	repeat/STIM_005.jpg	99
3428.676	0.693	693.4	repeat	Run4	repeat/STIM_005.jpg	100
3432.042	0.657	657.1	repeat	Run4	repeat/STIM_006.jpg	99
3435.411	1.036	1036.2	repeat	Run4	repeat/STIM_006.jpg	99
3440.046	1.047	1046.7	repeat	Run4	repeat/STIM_006.jpg	100
3444.286	0.594	593.6	repeat	Run4	repeat/STIM_006.jpg	99
3448.455	0.722	721.7	repeat	Run4	repeat/STIM_006.jpg	100
3452.807	1.099	1099.1	repeat	Run4	repeat/STIM_007.jpg	100
3456.297	1.155	1154.7	repeat	Run4	repeat/STIM_007.jpg	100
3460.864	0.801	801.0	repeat	Run4	repeat/STIM_007.jpg	100
3465.535	0.762	762.3	repeat	Run4	repeat/STIM_007.jpg	100
3469.55	0.923	923.2	repeat	Run4	repeat/STIM_007.jpg	100
3473.276	0.816	815.8	repeat	Run4	repeat/STIM_008.jpg	100
3476.731	0.915	915.2	repeat	Run4	repeat/STIM_008.jpg	100
3479.694	0.944	943.6	repeat	Run4	repeat/STIM_008.jpg	99
3483.685	0.875	875.3	repeat	Run4	repeat/STIM_008.jpg	100
3487.383	0.741	741.1	repeat	Run4	repeat/STIM_008.jpg	99
3491.621	0.668	668.0	repeat	Run4	repeat/STIM_009.jpg	99
3494.425	0.609	609.4	repeat	Run4	repeat/STIM_009.jpg	100
3497.156	0.601	600.7	repeat	Run4	repeat/STIM_009.jpg	99
3501.408	0.948	947.8	repeat	Run4	repeat/STIM_009.jpg	100
3504.86	0.916	916.1	repeat	Run4	repeat/STIM_009.jpg	100
3509.392	1.051	1051.3	repeat	Run4	repeat/STIM_010.jpg	100
3514.265	0.712	712.0	repeat	Run4	repeat/STIM_010.jpg	99
3518.757	0.666	666.5	repeat	Run4	repeat/STIM_010.jpg	99
3521.636	0.668	668.0	repeat	Run4	repeat/STIM_010.jpg	99
3524.677	1.142	1141.7	repeat	Run4	repeat/STIM_010.jpg	99
3529.616	0.643	642.9	repeat	Run4	repeat/STIM_011.jpg	99
3534.178	0.961	961.1	repeat	Run4	repeat/STIM_011.jpg	100
3537.729	0.904	903.9	repeat	Run4	repeat/STIM_011.jpg	99
3542.619	1.128	1127.6	repeat	Run4	repeat/STIM_011.jpg	100
3546.506	1.086	1086.1	repeat	Run4	repeat/STIM_011.jpg	100
3550.065	0.869	869.0	repeat	Run4	repeat/STIM_012.jpg	100
3554.069	0.833	832.8	repeat	Run4	repeat/STIM_012.jpg	100
3557.512	0.825	825.2	repeat	Run4	repeat/STIM_012.jpg	99
3560.901	0.832	832.0	repeat	Run4	repeat/STIM_012.jpg	99
3565.716	1.111	1110.9	repeat	Run4	repeat/STIM_012.jpg	100
3569.691	0.997	997.3	repeat	Run4	repeat/STIM_013.jpg	99
3573.762	0.898	897.9	repeat	Run4	repeat/STIM_013.jpg	100
3576.805	0.684	683.6	repeat	Run4	repeat/STIM_013.jpg	100
3581.412	0.899	898.9	repeat	Run4	repeat/STIM_013.jpg	100
3585.214	0.801	801.2	repeat	Run4	repeat/STIM_013.jpg	99
3589.772	1.07	1069.8	repeat	Run4	repeat/STIM_014.jpg	100
3593.42	0.86	859.5	repeat	Run4	repeat/STIM_014.jpg	99
3596.77	0.834	833.8	repeat	Run4	repeat/STIM_014.jpg	99
3599.617	1.157	1157.2	repeat	Run4	repeat/STIM_014.jpg	100
3603.5	1.132	1132.4	repeat	Run4	repeat/STIM_014.jpg	99
