onset	duration	accuracy	trial_type	learning_stage	stimulus
0.0	0.828	correct	incongruent	Block1	incongruent/STIM_000.jpg
3.823	1.07	incorrect	incongruent	Block1	incongruent/STIM_000.jpg
8.838	1.249	correct	incongruent	Block1	incongruent/STIM_000.jpg
13.046	0.554	correct	incongruent	Block1	incongruent/STIM_000.jpg
17.749	0.672	correct	incongruent	Block1	incongruent/STIM_000.jpg
21.383	1.166	correct	incongruent	Block1	incongruent/STIM_001.jpg
25.671	0.668	correct	incongruent	Block1	incongruent/STIM_001.jpg
29.678	0.778	correct	incongruent	Block1	incongruent/STIM_001.jpg
32.859	0.77	correct	incongruent	Block1	incongruent/STIM_001.jpg
37.067	0.897	correct	incongruent	Block1	incongruent/STIM_001.jpg
41.833	1.202	correct	incongruent	Block1	incongruent/STIM_002.jpg
46.493	0.948	correct	incongruent	Block1	incongruent/STIM_002.jpg
50.061	0.787	correct	incongruent	Block1	incongruent/STIM_002.jpg
54.297	0.699	correct	incongruent	Block1	incongruent/STIM_002.jpg
57.087	0.858	correct	incongruent	Block1	incongruent/STIM_002.jpg
61.071	1.182	correct	incongruent	Block1	incongruent/STIM_003.jpg
66.269	0.739	correct	incongruent	Block1	incongruent/STIM_003.jpg
70.306	0.852	correct	incongruent	Block1	incongruent/STIM_003.jpg
74.194	0.748	correct	incongruent	Block1	incongruent/STIM_003.jpg
78.743	0.465	correct	incongruent	Block1	incongruent/STIM_003.jpg
81.879	0.968	correct	incongruent	Block1	incongruent/STIM_004.jpg
85.221	0.736	correct	incongruent	Block1	incongruent/STIM_004.jpg
89.176	0.709	correct	incongruent	Block1	incongruent/STIM_004.jpg
93.368	0.99	correct	incongruent	Block1	incongruent/STIM_004.jpg
96.754	0.961	correct	incongruent	Block1	incongruent/STIM_004.jpg
101.519	0.862	correct	incongruent	Block1	incongruent/STIM_005.jpg
105.58	0.84	correct	incongruent	Block1	incongruent/STIM_005.jpg
109.875	1.126	correct	incongruent	Block1	incongruent/STIM_005.jpg
113.934	1.193	correct	incongruent	Block1	incongruent/STIM_005.jpg
118.583	0.481	correct	incongruent	Block1	incongruent/STIM_005.jpg
121.373	0.836	correct	incongruent	Block1	incongruent/STIM_006.jpg
124.609	0.92	incorrect	incongruent	Block1	incongruent/STIM_006.jpg
128.491	0.767	correct	incongruent	Block1	incongruent/STIM_006.jpg
131.921	0.836	correct	incongruent	Block1	incongruent/STIM_006.jpg
136.682	0.894	correct	incongruent	Block1	incongruent/STIM_006.jpg
139.734	1.229	correct	incongruent	Block1	incongruent/STIM_007.jpg
143.306	0.594	correct	incongruent	Block1	incongruent/STIM_007.jpg
147.678	0.777	correct	incongruent	Block1	incongruent/STIM_007.jpg
150.947	0.919	incorrect	incongruent	Block1	incongruent/STIM_007.jpg
154.984	0.469	correct	incongruent	Block1	incongruent/STIM_007.jpg
157.757	1.279	incorrect	incongruent	Block1	incongruent/STIM_008.jpg
161.656	1.064	correct	incongruent	Block1	incongruent/STIM_008.jpg
166.799	1.033	correct	incongruent	Block1	incongruent/STIM_008.jpg
170.987	0.961	correct	incongruent	Block1	incongruent/STIM_008.jpg
175.407	0.905	correct	incongruent	Block1	incongruent/STIM_008.jpg
179.084	1.241	correct	incongruent	Block1	incongruent/STIM_009.jpg
184.056	1.158	correct	incongruent	Block1	incongruent/STIM_009.jpg
187.909	0.771	correct	incongruent	Block1	incongruent/STIM_009.jpg
191.87	0.846	incorrect	incongruent	Block1	incongruent/STIM_009.jpg
196.725	0.868	correct	incongruent	Block1	incongruent/STIM_009.jpg
201.292	1.216	correct	incongruent	Block1	incongruent/STIM_010.jpg
205.125	1.093	correct	incongruent	Block1	incongruent/STIM_010.jpg
209.29	0.793	correct	incongruent	Block1	incongruent/STIM_010.jpg
212.533	1.019	correct	incongruent	Block1	incongruent/STIM_010.jpg
216.342	0.578	correct	incongruent	Block1	incongruent/STIM_010.jpg
219.965	0.853	correct	incongruent	Block1	incongruent/STIM_011.jpg
223.495	0.738	correct	incongruent	Block1	incongruent/STIM_011.jpg
227.66	0.579	correct	incongruent	Block1	incongruent/STIM_011.jpg
231.139	0.768	correct	incongruent	Block1	incongruent/STIM_011.jpg
234.941	0.668	correct	incongruent	Block1	incongruent/STIM_011.jpg
239.455	0.967	correct	incongruent	Block1	incongruent/STIM_012.jpg
243.912	0.943	correct	incongruent	Block1	incongruent/STIM_012.jpg
248.089	0.493	correct	incongruent	Block1	incongruent/STIM_012.jpg
251.747	0.62	correct	incongruent	Block1	incongruent/STIM_012.jpg
254.504	0.668	correct	incongruent	Block1	incongruent/STIM_012.jpg
258.164	0.696	correct	incongruent	Block1	incongruent/STIM_013.jpg
261.313	0.569	correct	incongruent	Block1	incongruent/STIM_013.jpg
265.244	1.121	correct	incongruent	Block1	incongruent/STIM_013.jpg
269.682	0.518	correct	incongruent	Block1	incongruent/STIM_013.jpg
272.956	0.604	correct	incongruent	Block1	incongruent/STIM_013.jpg
277.02	0.739	correct	incongruent	Block1	incongruent/STIM_014.jpg
281.102	1.293	correct	incongruent	Block1	incongruent/STIM_014.jpg
286.002	0.954	correct	incongruent	Block1	incongruent/STIM_014.jpg
289.841	0.624	correct	incongruent	Block1	incongruent/STIM_014.jpg
294.353	0.656	correct	incongruent	Block1	incongruent/STIM_014.jpg
298.447	1.221	correct	incongruent	Block1	incongruent/STIM_015.jpg
301.965	0.69	correct	incongruent	Block1	incongruent/STIM_015.jpg
306.076	0.631	correct	incongruent	Block1	incongruent/STIM_015.jpg
310.709	0.542	correct	incongruent	Block1	incongruent/STIM_015.jpg
314.898	0.646	correct	incongruent	Block1	incongruent/STIM_015.jpg
318.97	0.798	correct	incongruent	Block1	incongruent/STIM_016.jpg
323.198	0.94	correct	incongruent	Block1	incongruent/STIM_016.jpg
327.235	0.838	incorrect	incongruent	Block1	incongruent/STIM_016.jpg
331.473	1.082	correct	incongruent	Block1	incongruent/STIM_016.jpg
336.126	0.632	incorrect	incongruent	Block1	incongruent/STIM_016.jpg
340.151	1.317	correct	incongruent	Block1	incongruent/STIM_017.jpg
344.634	1.129	correct	incongruent	Block1	incongruent/STIM_017.jpg
348.968	1.14	correct	incongruent	Block1	incongruent/STIM_017.jpg
353.28	0.796	correct	incongruent	Block1	incongruent/STIM_017.jpg
357.2	0.734	correct	incongruent	Block1	incongruent/STIM_017.jpg
360.77	1.398	incorrect	incongruent	Block1	incongruent/STIM_018.jpg
365.051	0.899	correct	incongruent	Block1	incongruent/STIM_018.jpg
369.182	0.515	correct	incongruent	Block1	incongruent/STIM_018.jpg
373.036	0.737	correct	incongruent	Block1	incongruent/STIM_018.jpg
376.648	1.025	correct	incongruent	Block1	incongruent/STIM_018.jpg
381.408	1.244	correct	incongruent	Block1	incongruent/STIM_019.jpg
385.993	1.194	correct	incongruent	Block1	incongruent/STIM_019.jpg
390.312	0.765	correct	incongruent	Block1	incongruent/STIM_019.jpg
393.568	0.886	correct	incongruent	Block1	incongruent/STIM_019.jpg
396.723	0.967	correct	incongruent	Block1	incongruent/STIM_019.jpg
401.575	0.758	correct	incongruent	Block1	incongruent/STIM_020.jpg
405.058	1.168	correct	incongruent	Block1	incongruent/STIM_020.jpg
410.265	1.188	correct	incongruent	Block1	incongruent/STIM_020.jpg
415.349	0.622	correct	incongruent	Block1	incongruent/STIM_020.jpg
419.381	0.778	correct	incongruent	Block1	incongruent/STIM_020.jpg
423.916	1.164	correct	incongruent	Block1	incongruent/STIM_021.jpg
429.014	0.632	correct	incongruent	Block1	incongruent/STIM_021.jpg
433.124	0.848	correct	incongruent	Block1	incongruent/STIM_021.jpg
437.503	0.682	correct	incongruent	Block1	incongruent/STIM_021.jpg
441.423	1.021	correct	incongruent	Block1	incongruent/STIM_021.jpg
445.379	0.775	correct	incongruent	Block1	incongruent/STIM_022.jpg
448.574	1.065	correct	incongruent	Block1	incongruent/STIM_022.jpg
451.957	1.01	correct	incongruent	Block1	incongruent/STIM_022.jpg
456.059	0.935	correct	incongruent	Block1	incongruent/STIM_022.jpg
460.605	0.669	correct	incongruent	Block1	incongruent/STIM_022.jpg
463.417	0.983	correct	incongruent	Block1	incongruent/STIM_023.jpg
468.334	0.699	correct	incongruent	Block1	incongruent/STIM_023.jpg
472.509	0.869	correct	incongruent	Block1	incongruent/STIM_023.jpg
476.089	0.728	correct	incongruent	Block1	incongruent/STIM_023.jpg
480.619	1.044	correct	incongruent	Block1	incongruent/STIM_023.jpg
485.462	1.091	correct	incongruent	Block1	incongruent/STIM_024.jpg
490.771	0.903	correct	incongruent	Block1	incongruent/STIM_024.jpg
494.286	1.026	incorrect	incongruent	Block1	incongruent/STIM_024.jpg
499.537	1.066	incorrect	incongruent	Block1	incongruent/STIM_024.jpg
503.282	0.605	correct	incongruent	Block1	incongruent/STIM_024.jpg
507.762	0.795	correct	incongruent	Block1	incongruent/STIM_025.jpg
512.557	0.9	correct	incongruent	Block1	incongruent/STIM_025.jpg
516.956	0.81	correct	incongruent	Block1	incongruent/STIM_025.jpg
521.404	0.608	correct	incongruent	Block1	incongruent/STIM_025.jpg
525.545	0.992	correct	incongruent	Block1	incongruent/STIM_025.jpg
530.234	1.015	correct	incongruent	Block1	incongruent/STIM_026.jpg
534.105	1.13	correct	incongruent	Block1	incongruent/STIM_026.jpg
539.178	1.089	incorrect	incongruent	Block1	incongruent/STIM_026.jpg
543.295	0.999	incorrect	incongruent	Block1	incongruent/STIM_026.jpg
548.296	0.741	correct	incongruent	Block1	incongruent/STIM_026.jpg
552.228	1.224	incorrect	incongruent	Block1	incongruent/STIM_027.jpg
556.498	0.845	correct	incongruent	Block1	incongruent/STIM_027.jpg
561.292	0.977	correct	incongruent	Block1	incongruent/STIM_027.jpg
564.745	0.99	correct	incongruent	Block1	incongruent/STIM_027.jpg
569.594	0.563	correct	incongruent	Block1	incongruent/STIM_027.jpg
572.964	0.998	correct	incongruent	Block1	incongruent/STIM_028.jpg
578.148	0.747	correct	incongruent	Block1	incongruent/STIM_028.jpg
582.35	0.642	correct	incongruent	Block1	incongruent/STIM_028.jpg
586.232	0.754	correct	incongruent	Block1	incongruent/STIM_028.jpg
590.491	0.543	correct	incongruent	Block1	incongruent/STIM_028.jpg
594.704	0.94	correct	incongruent	Block1	incongruent/STIM_029.jpg
597.997	1.021	correct	incongruent	Block1	incongruent/STIM_029.jpg
602.538	0.591	correct	incongruent	Block1	incongruent/STIM_029.jpg
606.694	0.655	correct	incongruent	Block1	incongruent/STIM_029.jpg
610.964	0.802	correct	incongruent	Block1	incongruent/STIM_029.jpg
615.276	0.717	correct	congruent	Block1	congruent/STIM_000.jpg
619.577	0.571	correct	congruent	Block1	congruent/STIM_000.jpg
622.804	0.533	correct	congruent	Block1	congruent/STIM_000.jpg
625.727	0.547	correct	congruent	Block1	congruent/STIM_000.jpg
629.057	0.357	correct	congruent	Block1	congruent/STIM_000.jpg
631.806	0.45	correct	congruent	Block1	congruent/STIM_001.jpg
635.369	0.531	correct	congruent	Block1	congruent/STIM_001.jpg
638.445	0.756	correct	congruent	Block1	congruent/STIM_001.jpg
642.407	0.478	correct	congruent	Block1	congruent/STIM_001.jpg
646.47	0.696	correct	congruent	Block1	congruent/STIM_001.jpg
651.216	0.462	correct	congruent	Block1	congruent/STIM_002.jpg
654.072	0.767	correct	congruent	Block1	congruent/STIM_002.jpg
658.476	0.631	correct	congruent	Block1	congruent/STIM_002.jpg
661.934	0.715	correct	congruent	Block1	congruent/STIM_002.jpg
666.239	0.661	correct	congruent	Block1	congruent/STIM_002.jpg
669.653	0.736	correct	congruent	Block1	congruent/STIM_003.jpg
673.97	0.368	correct	congruent	Block1	congruent/STIM_003.jpg
678.067	0.487	correct	congruent	Block1	congruent/STIM_003.jpg
681.757	0.778	correct	congruent	Block1	congruent/STIM_003.jpg
685.02	0.412	correct	congruent	Block1	congruent/STIM_003.jpg
689.039	0.801	correct	congruent	Block1	congruent/STIM_004.jpg
692.43	0.58	correct	congruent	Block1	congruent/STIM_004.jpg
696.507	0.664	incorrect	congruent	Block1	congruent/STIM_004.jpg
700.685	0.578	correct	congruent	Block1	congruent/STIM_004.jpg
703.408	0.472	correct	congruent	Block1	congruent/STIM_004.jpg
707.091	0.752	correct	congruent	Block1	congruent/STIM_005.jpg
710.411	0.778	correct	congruent	Block1	congruent/STIM_005.jpg
713.383	0.549	correct	congruent	Block1	congruent/STIM_005.jpg
717.107	0.495	correct	congruent	Block1	congruent/STIM_005.jpg
719.861	0.724	correct	congruent	Block1	congruent/STIM_005.jpg
723.373	0.576	correct	congruent	Block1	congruent/STIM_006.jpg
726.373	0.648	correct	congruent	Block1	congruent/STIM_006.jpg
731.107	0.501	incorrect	congruent	Block1	congruent/STIM_006.jpg
735.067	0.767	correct	congruent	Block1	congruent/STIM_006.jpg
739.879	0.759	correct	congruent	Block1	congruent/STIM_006.jpg
742.998	0.476	correct	congruent	Block1	congruent/STIM_007.jpg
747.267	0.55	correct	congruent	Block1	congruent/STIM_007.jpg
751.797	0.603	correct	congruent	Block1	congruent/STIM_007.jpg
755.738	0.744	correct	congruent	Block1	congruent/STIM_007.jpg
758.661	0.69	correct	congruent	Block1	congruent/STIM_007.jpg
761.646	0.714	correct	congruent	Block1	congruent/STIM_008.jpg
764.94	0.788	correct	congruent	Block1	congruent/STIM_008.jpg
769.088	0.671	correct	congruent	Block1	congruent/STIM_008.jpg
773.464	0.52	correct	congruent	Block1	congruent/STIM_008.jpg
777.99	0.737	correct	congruent	Block1	congruent/STIM_008.jpg
781.534	0.494	correct	congruent	Block1	congruent/STIM_009.jpg
786.001	0.546	correct	congruent	Block1	congruent/STIM_009.jpg
789.661	0.492	correct	congruent	Block1	congruent/STIM_009.jpg
793.132	0.654	correct	congruent	Block1	congruent/STIM_009.jpg
797.381	0.706	correct	congruent	Block1	congruent/STIM_009.jpg
800.517	0.671	correct	congruent	Block1	congruent/STIM_010.jpg
804.216	0.737	correct	congruent	Block1	congruent/STIM_010.jpg
808.37	0.581	correct	congruent	Block1	congruent/STIM_010.jpg
812.179	0.66	correct	congruent	Block1	congruent/STIM_010.jpg
815.774	0.636	correct	congruent	Block1	congruent/STIM_010.jpg
820.025	0.411	correct	congruent	Block1	congruent/STIM_011.jpg
824.209	0.63	correct	congruent	Block1	congruent/STIM_011.jpg
827.352	0.717	correct	congruent	Block1	congruent/STIM_011.jpg
831.187	0.445	correct	congruent	Block1	congruent/STIM_011.jpg
835.692	0.566	incorrect	congruent	Block1	congruent/STIM_011.jpg
838.747	0.61	incorrect	congruent	Block1	congruent/STIM_012.jpg
843.447	0.593	correct	congruent	Block1	congruent/STIM_012.jpg
848.146	0.598	correct	congruent	Block1	congruent/STIM_012.jpg
851.491	0.454	correct	congruent	Block1	congruent/STIM_012.jpg
854.248	0.711	correct	congruent	Block1	congruent/STIM_012.jpg
858.072	0.59	correct	congruent	Block1	congruent/STIM_013.jpg
861.432	0.554	correct	congruent	Block1	congruent/STIM_013.jpg
865.863	0.546	correct	congruent	Block1	congruent/STIM_013.jpg
870.207	0.597	correct	congruent	Block1	congruent/STIM_013.jpg
873.508	0.7	correct	congruent	Block1	congruent/STIM_013.jpg
878.193	0.738	correct	congruent	Block1	congruent/STIM_014.jpg
882.679	0.593	correct	congruent	Block1	congruent/STIM_014.jpg
885.754	0.57	correct	congruent	Block1	congruent/STIM_014.jpg
889.158	0.589	incorrect	congruent	Block1	congruent/STIM_014.jpg
892.797	0.736	correct	congruent	Block1	congruent/STIM_014.jpg
896.695	0.485	correct	congruent	Block1	congruent/STIM_015.jpg
900.037	0.668	correct	congruent	Block1	congruent/STIM_015.jpg
903.415	0.704	correct	congruent	Block1	congruent/STIM_015.jpg
906.922	0.526	correct	congruent	Block1	congruent/STIM_015.jpg
910.069	0.568	correct	congruent	Block1	congruent/STIM_015.jpg
913.817	0.654	correct	congruent	Block1	congruent/STIM_016.jpg
918.533	0.524	correct	congruent	Block1	congruent/STIM_016.jpg
921.376	0.698	correct	congruent	Block1	congruent/STIM_016.jpg
924.217	0.564	correct	congruent	Block1	congruent/STIM_016.jpg
928.805	0.552	correct	congruent	Block1	congruent/STIM_016.jpg
932.815	0.575	correct	congruent	Block1	congruent/STIM_017.jpg
937.21	0.563	correct	congruent	Block1	congruent/STIM_017.jpg
940.464	0.6	correct	congruent	Block1	congruent/STIM_017.jpg
944.74	0.824	correct	congruent	Block1	congruent/STIM_017.jpg
947.841	0.58	correct	congruent	Block1	congruent/STIM_017.jpg
952.192	0.799	correct	congruent	Block1	congruent/STIM_018.jpg
955.818	0.746	correct	congruent	Block1	congruent/STIM_018.jpg
960.629	0.696	correct	congruent	Block1	congruent/STIM_018.jpg
965.328	0.668	incorrect	congruent	Block1	congruent/STIM_018.jpg
968.739	0.594	correct	congruent	Block1	congruent/STIM_018.jpg
971.911	0.559	incorrect	congruent	Block1	congruent/STIM_019.jpg
974.923	0.555	correct	congruent	Block1	congruent/STIM_019.jpg
979.114	0.74	correct	congruent	Block1	congruent/STIM_019.jpg
983.722	0.654	correct	congruent	Block1	congruent/STIM_019.jpg
987.576	0.72	correct	congruent	Block1	congruent/STIM_019.jpg
991.195	0.618	correct	congruent	Block1	congruent/STIM_020.jpg
995.091	0.641	correct	congruent	Block1	congruent/STIM_020.jpg
998.239	0.492	correct	congruent	Block1	congruent/STIM_020.jpg
1002.176	0.507	correct	congruent	Block1	congruent/STIM_020.jpg
1005.008	0.43	correct	congruent	Block1	congruent/STIM_020.jpg
1008.049	0.535	correct	congruent	Block1	congruent/STIM_021.jpg
1012.217	0.425	correct	congruent	Block1	congruent/STIM_021.jpg
1015.892	0.537	correct	congruent	Block1	congruent/STIM_021.jpg
1018.939	0.654	correct	congruent	Block1	congruent/STIM_021.jpg
1023.263	0.547	incorrect	congruent	Block1	congruent/STIM_021.jpg
1026.556	0.384	correct	congruent	Block1	congruent/STIM_022.jpg
1030.377	0.707	correct	congruent	Block1	congruent/STIM_022.jpg
1034.636	0.71	correct	congruent	Block1	congruent/STIM_022.jpg
1038.901	0.582	correct	congruent	Block1	congruent/STIM_022.jpg
1043.48	0.57	correct	congruent	Block1	congruent/STIM_022.jpg
1047.961	0.54	correct	congruent	Block1	congruent/STIM_023.jpg
1050.573	0.821	correct	congruent	Block1	congruent/STIM_023.jpg
1055.189	0.653	correct	congruent	Block1	congruent/STIM_023.jpg
1059.262	0.648	correct	congruent	Block1	congruent/STIM_023.jpg
1063.411	0.558	correct	congruent	Block1	congruent/STIM_023.jpg
1066.15	0.51	correct	congruent	Block1	congruent/STIM_024.jpg
1069.462	0.601	correct	congruent	Block1	congruent/STIM_024.jpg
1073.618	0.714	correct	congruent	Block1	congruent/STIM_024.jpg
1077.064	0.751	correct	congruent	Block1	congruent/STIM_024.jpg
1081.292	0.533	correct	congruent	Block1	congruent/STIM_024.jpg
1084.616	0.778	correct	congruent	Block1	congruent/STIM_025.jpg
1088.1	0.526	correct	congruent	Block1	congruent/STIM_025.jpg
1092.654	0.646	correct	congruent	Block1	congruent/STIM_025.jpg
1095.359	0.448	correct	congruent	Block1	congruent/STIM_025.jpg
1098.703	0.692	correct	congruent	Block1	congruent/STIM_025.jpg
1103.545	0.384	correct	congruent	Block1	congruent/STIM_026.jpg
1106.555	0.66	correct	congruent	Block1	congruent/STIM_026.jpg
1110.684	0.558	correct	congruent	Block1	congruent/STIM_026.jpg
1114.377	0.722	correct	congruent	Block1	congruent/STIM_026.jpg
1118.683	0.632	correct	congruent	Block1	congruent/STIM_026.jpg
1122.008	0.5	correct	congruent	Block1	congruent/STIM_027.jpg
1125.859	0.38	correct	congruent	Block1	congruent/STIM_027.jpg
1129.874	0.734	correct	congruent	Block1	congruent/STIM_027.jpg
1133.922	0.525	correct	congruent	Block1	congruent/STIM_027.jpg
1137.77	0.727	correct	congruent	Block1	congruent/STIM_027.jpg
1142.128	0.499	correct	congruent	Block1	congruent/STIM_028.jpg
1145.938	0.539	correct	congruent	Block1	congruent/STIM_028.jpg
1149.98	0.509	correct	congruent	Block1	congruent/STIM_028.jpg
1154.46	0.457	correct	congruent	Block1	congruent/STIM_028.jpg
1157.318	0.482	correct	congruent	Block1	congruent/STIM_028.jpg
1160.138	0.51	correct	congruent	Block1	congruent/STIM_029.jpg
1164.494	0.502	correct	congruent	Block1	congruent/STIM_029.jpg
1169.088	0.614	correct	congruent	Block1	congruent/STIM_029.jpg
1173.755	0.541	correct	congruent	Block1	congruent/STIM_029.jpg
1178.089	0.669	correct	congruent	Block1	congruent/STIM_029.jpg
1182.871	1.035	correct	incongruent	Block2	incongruent/STIM_000.jpg
1187.321	0.584	correct	incongruent	Block2	incongruent/STIM_000.jpg
1191.411	0.514	correct	incongruent	Block2	incongruent/STIM_000.jpg
1195.467	0.803	correct	incongruent	Block2	incongruent/STIM_000.jpg
1198.847	0.906	correct	incongruent	Block2	incongruent/STIM_000.jpg
1202.667	1.063	correct	incongruent	Block2	incongruent/STIM_001.jpg
1207.518	0.876	correct	incongruent	Block2	incongruent/STIM_001.jpg
1212.446	0.837	correct	incongruent	Block2	incongruent/STIM_001.jpg
1216.661	0.89	correct	incongruent	Block2	incongruent/STIM_001.jpg
1220.644	0.662	correct	incongruent	Block2	incongruent/STIM_001.jpg
1224.185	0.623	correct	incongruent	Block2	incongruent/STIM_002.jpg
1227.34	0.528	correct	incongruent	Block2	incongruent/STIM_002.jpg
1230.5	0.661	correct	incongruent	Block2	incongruent/STIM_002.jpg
1233.294	0.779	correct	incongruent	Block2	incongruent/STIM_002.jpg
1237.185	0.74	incorrect	incongruent	Block2	incongruent/STIM_002.jpg
1240.893	0.696	correct	incongruent	Block2	incongruent/STIM_003.jpg
1245.487	1.023	correct	incongruent	Block2	incongruent/STIM_003.jpg
1249.72	0.683	correct	incongruent	Block2	incongruent/STIM_003.jpg
1253.833	0.881	correct	incongruent	Block2	incongruent/STIM_003.jpg
1257.624	0.736	correct	incongruent	Block2	incongruent/STIM_003.jpg
1262.317	0.81	correct	incongruent	Block2	incongruent/STIM_004.jpg
1267.289	0.977	correct	incongruent	Block2	incongruent/STIM_004.jpg
1270.776	0.629	correct	incongruent	Block2	incongruent/STIM_004.jpg
1274.557	0.762	correct	incongruent	Block2	incongruent/STIM_004.jpg
1277.99	0.664	correct	incongruent	Block2	incongruent/STIM_004.jpg
1282.652	1.006	correct	incongruent	Block2	incongruent/STIM_005.jpg
1287.514	1.111	correct	incongruent	Block2	incongruent/STIM_005.jpg
1291.804	0.754	correct	incongruent	Block2	incongruent/STIM_005.jpg
1295.996	0.506	correct	incongruent	Block2	incongruent/STIM_005.jpg
1300.437	0.637	correct	incongruent	Block2	incongruent/STIM_005.jpg
1304.457	0.722	correct	incongruent	Block2	incongruent/STIM_006.jpg
1308.9	0.877	correct	incongruent	Block2	incongruent/STIM_006.jpg
1312.393	0.541	correct	incongruent	Block2	incongruent/STIM_006.jpg
1315.72	0.599	correct	incongruent	Block2	incongruent/STIM_006.jpg
1318.723	0.751	correct	incongruent	Block2	incongruent/STIM_006.jpg
1322.588	1.156	correct	incongruent	Block2	incongruent/STIM_007.jpg
1327.459	0.875	correct	incongruent	Block2	incongruent/STIM_007.jpg
1331.488	0.77	correct	incongruent	Block2	incongruent/STIM_007.jpg
1335.966	0.762	correct	incongruent	Block2	incongruent/STIM_007.jpg
1339.6	0.422	correct	incongruent	Block2	incongruent/STIM_007.jpg
1342.939	0.963	correct	incongruent	Block2	incongruent/STIM_008.jpg
1346.334	0.75	correct	incongruent	Block2	incongruent/STIM_008.jpg
1350.02	0.824	correct	incongruent	Block2	incongruent/STIM_008.jpg
1354.201	0.851	correct	incongruent	Block2	incongruent/STIM_008.jpg
1358.626	0.848	correct	incongruent	Block2	incongruent/STIM_008.jpg
1363.317	0.532	correct	incongruent	Block2	incongruent/STIM_009.jpg
1366.844	0.749	correct	incongruent	Block2	incongruent/STIM_009.jpg
1370.556	0.864	correct	incongruent	Block2	incongruent/STIM_009.jpg
1374.625	0.49	correct	incongruent	Block2	incongruent/STIM_009.jpg
1377.15	0.779	correct	incongruent	Block2	incongruent/STIM_009.jpg
1381.093	0.622	correct	incongruent	Block2	incongruent/STIM_010.jpg
1384.695	0.687	correct	incongruent	Block2	incongruent/STIM_010.jpg
1388.374	0.653	correct	incongruent	Block2	incongruent/STIM_010.jpg
1391.713	0.729	correct	incongruent	Block2	incongruent/STIM_010.jpg
1395.047	0.51	correct	incongruent	Block2	incongruent/STIM_010.jpg
1398.619	0.609	correct	incongruent	Block2	incongruent/STIM_011.jpg
1402.014	0.559	correct	incongruent	Block2	incongruent/STIM_011.jpg
1405.682	0.868	correct	incongruent	Block2	incongruent/STIM_011.jpg
1410.522	0.614	correct	incongruent	Block2	incongruent/STIM_011.jpg
1413.711	0.399	correct	incongruent	Block2	incongruent/STIM_011.jpg
1417.504	0.547	correct	incongruent	Block2	incongruent/STIM_012.jpg
1421.277	0.685	correct	incongruent	Block2	incongruent/STIM_012.jpg
1424.886	0.551	correct	incongruent	Block2	incongruent/STIM_012.jpg
1429.279	0.902	correct	incongruent	Block2	incongruent/STIM_012.jpg
1432.366	0.735	correct	incongruent	Block2	incongruent/STIM_012.jpg
1436.329	0.763	incorrect	incongruent	Block2	incongruent/STIM_013.jpg
1440.208	0.648	correct	incongruent	Block2	incongruent/STIM_013.jpg
1443.389	0.981	correct	incongruent	Block2	incongruent/STIM_013.jpg
1446.552	0.607	correct	incongruent	Block2	incongruent/STIM_013.jpg
1449.424	0.874	correct	incongruent	Block2	incongruent/STIM_013.jpg
1453.851	0.732	correct	incongruent	Block2	incongruent/STIM_014.jpg
1456.64	0.6	correct	incongruent	Block2	incongruent/STIM_014.jpg
1459.441	0.703	correct	incongruent	Block2	incongruent/STIM_014.jpg
1462.699	0.83	correct	incongruent	Block2	incongruent/STIM_014.jpg
1466.92	0.582	correct	incongruent	Block2	incongruent/STIM_014.jpg
1469.782	1.016	correct	incongruent	Block2	incongruent/STIM_015.jpg
1473.567	0.973	correct	incongruent	Block2	incongruent/STIM_015.jpg
1477.46	0.67	correct	incongruent	Block2	incongruent/STIM_015.jpg
1482.089	0.435	correct	incongruent	Block2	incongruent/STIM_015.jpg
1485.82	0.884	correct	incongruent	Block2	incongruent/STIM_015.jpg
1488.929	0.869	incorrect	incongruent	Block2	incongruent/STIM_016.jpg
1492.302	0.576	correct	incongruent	Block2	incongruent/STIM_016.jpg
1495.766	0.485	correct	incongruent	Block2	incongruent/STIM_016.jpg
1499.786	0.657	correct	incongruent	Block2	incongruent/STIM_016.jpg
1504.258	0.604	correct	incongruent	Block2	incongruent/STIM_016.jpg
1508.859	0.7	correct	incongruent	Block2	incongruent/STIM_017.jpg
1512.324	0.782	correct	incongruent	Block2	incongruent/STIM_017.jpg
1515.845	0.634	correct	incongruent	Block2	incongruent/STIM_017.jpg
1519.47	0.69	correct	incongruent	Block2	incongruent/STIM_017.jpg
1524.229	0.662	correct	incongruent	Block2	incongruent/STIM_017.jpg
1527.5	0.728	correct	incongruent	Block2	incongruent/STIM_018.jpg
1531.676	0.65	correct	incongruent	Block2	incongruent/STIM_018.jpg
1535.147	0.621	correct	incongruent	Block2	incongruent/STIM_018.jpg
1538.48	0.834	correct	incongruent	Block2	incongruent/STIM_018.jpg
1542.026	0.831	correct	incongruent	Block2	incongruent/STIM_018.jpg
1546.594	0.918	correct	incongruent	Block2	incongruent/STIM_019.jpg
1550.54	0.795	correct	incongruent	Block2	incongruent/STIM_019.jpg
1554.691	0.538	correct	incongruent	Block2	incongruent/STIM_019.jpg
1558.971	0.694	incorrect	incongruent	Block2	incongruent/STIM_019.jpg
1563.062	0.516	correct	incongruent	Block2	incongruent/STIM_019.jpg
1567.092	0.785	correct	incongruent	Block2	incongruent/STIM_020.jpg
1570.194	0.794	correct	incongruent	Block2	incongruent/STIM_020.jpg
1574.8	0.668	correct	incongruent	Block2	incongruent/STIM_020.jpg
1579.429	0.686	correct	incongruent	Block2	incongruent/STIM_020.jpg
1583.764	0.509	correct	incongruent	Block2	incongruent/STIM_020.jpg
1586.622	0.856	correct	incongruent	Block2	incongruent/STIM_021.jpg
1591.025	0.758	correct	incongruent	Block2	incongruent/STIM_021.jpg
1595.166	0.843	correct	incongruent	Block2	incongruent/STIM_021.jpg
1599.692	0.686	correct	incongruent	Block2	incongruent/STIM_021.jpg
1602.971	0.584	correct	incongruent	Block2	incongruent/STIM_021.jpg
1606.461	0.575	correct	incongruent	Block2	incongruent/STIM_022.jpg
1609.379	0.586	correct	incongruent	Block2	incongruent/STIM_022.jpg
1613.421	0.742	correct	incongruent	Block2	incongruent/STIM_022.jpg
1616.867	0.761	correct	incongruent	Block2	incongruent/STIM_022.jpg
1620.905	0.852	correct	incongruent	Block2	incongruent/STIM_022.jpg
1624.206	0.939	correct	incongruent	Block2	incongruent/STIM_023.jpg
1627.818	0.815	correct	incongruent	Block2	incongruent/STIM_023.jpg
1631.809	0.955	correct	incongruent	Block2	incongruent/STIM_023.jpg
1636.663	0.615	correct	incongruent	Block2	incongruent/STIM_023.jpg
1640.002	0.605	correct	incongruent	Block2	incongruent/STIM_023.jpg
1642.987	0.576	correct	incongruent	Block2	incongruent/STIM_024.jpg
1647.336	0.705	correct	incongruent	Block2	incongruent/STIM_024.jpg
1650.61	0.66	incorrect	incongruent	Block2	incongruent/STIM_024.jpg
1655.405	0.83	correct	incongruent	Block2	incongruent/STIM_024.jpg
1659.735	0.646	correct	incongruent	Block2	incongruent/STIM_024.jpg
1664.328	0.801	correct	incongruent	Block2	incongruent/STIM_025.jpg
1668.371	0.936	correct	incongruent	Block2	incongruent/STIM_025.jpg
1672.482	0.863	correct	incongruent	Block2	incongruent/STIM_025.jpg
1675.401	0.763	correct	incongruent	Block2	incongruent/STIM_025.jpg
1678.785	0.497	correct	incongruent	Block2	incongruent/STIM_025.jpg
1681.559	0.924	correct	incongruent	Block2	incongruent/STIM_026.jpg
1685.004	0.648	correct	incongruent	Block2	incongruent/STIM_026.jpg
1689.623	0.65	correct	incongruent	Block2	incongruent/STIM_026.jpg
1692.361	0.586	correct	incongruent	Block2	incongruent/STIM_026.jpg
1695.041	0.671	correct	incongruent	Block2	incongruent/STIM_026.jpg
1698.996	1.098	correct	incongruent	Block2	incongruent/STIM_027.jpg
1703.217	0.857	correct	incongruent	Block2	incongruent/STIM_027.jpg
1707.758	0.875	correct	incongruent	Block2	incongruent/STIM_027.jpg
1711.622	0.466	correct	incongruent	Block2	incongruent/STIM_027.jpg
1715.664	0.646	correct	incongruent	Block2	incongruent/STIM_027.jpg
1719.098	1.032	incorrect	incongruent	Block2	incongruent/STIM_028.jpg
1722.602	0.465	correct	incongruent	Block2	incongruent/STIM_028.jpg
1725.503	0.842	correct	incongruent	Block2	incongruent/STIM_028.jpg
1729.704	0.449	correct	incongruent	Block2	incongruent/STIM_028.jpg
1732.707	0.436	correct	incongruent	Block2	incongruent/STIM_028.jpg
1736.452	0.843	correct	incongruent	Block2	incongruent/STIM_029.jpg
1740.058	0.976	correct	incongruent	Block2	incongruent/STIM_029.jpg
1743.583	0.558	correct	incongruent	Block2	incongruent/STIM_029.jpg
1748.039	0.694	correct	incongruent	Block2	incongruent/STIM_029.jpg
1752.692	0.533	correct	incongruent	Block2	incongruent/STIM_029.jpg
1757.33	0.347	incorrect	congruent	Block2	congruent/STIM_000.jpg
1761.149	0.695	correct	congruent	Block2	congruent/STIM_000.jpg
1764.116	0.656	correct	congruent	Block2	congruent/STIM_000.jpg
1768.684	0.656	correct	congruent	Block2	congruent/STIM_000.jpg
1771.581	0.64	correct	congruent	Block2	congruent/STIM_000.jpg
1774.631	0.431	correct	congruent	Block2	congruent/STIM_001.jpg
1778.499	0.413	correct	congruent	Block2	congruent/STIM_001.jpg
1782.189	0.461	correct	congruent	Block2	congruent/STIM_001.jpg
1786.172	0.454	correct	congruent	Block2	congruent/STIM_001.jpg
1789.248	0.831	correct	congruent	Block2	congruent/STIM_001.jpg
1793.385	0.708	correct	congruent	Block2	congruent/STIM_002.jpg
1797.192	0.538	correct	congruent	Block2	congruent/STIM_002.jpg
1801.192	0.757	correct	congruent	Block2	congruent/STIM_002.jpg
1805.474	0.774	correct	congruent	Block2	congruent/STIM_002.jpg
1808.421	0.413	correct	congruent	Block2	congruent/STIM_002.jpg
1811.362	0.478	correct	congruent	Block2	congruent/STIM_003.jpg
1815.924	0.486	correct	congruent	Block2	congruent/STIM_003.jpg
1820.404	0.793	correct	congruent	Block2	congruent/STIM_003.jpg
1823.314	0.598	correct	congruent	Block2	congruent/STIM_003.jpg
1826.217	0.444	correct	congruent	Block2	congruent/STIM_003.jpg
1829.897	0.612	correct	congruent	Block2	congruent/STIM_004.jpg
1833.681	0.606	correct	congruent	Block2	congruent/STIM_004.jpg
1837.504	0.482	correct	congruent	Block2	congruent/STIM_004.jpg
1840.579	0.81	correct	congruent	Block2	congruent/STIM_004.jpg
1844.986	0.629	incorrect	congruent	Block2	congruent/STIM_004.jpg
1847.92	0.651	correct	congruent	Block2	congruent/STIM_005.jpg
1851.001	0.753	correct	congruent	Block2	congruent/STIM_005.jpg
1853.946	0.391	correct	congruent	Block2	congruent/STIM_005.jpg
1857.201	0.552	correct	congruent	Block2	congruent/STIM_005.jpg
1861.451	0.784	correct	congruent	Block2	congruent/STIM_005.jpg
1865.384	0.69	correct	congruent	Block2	congruent/STIM_006.jpg
1869.278	0.42	correct	congruent	Block2	congruent/STIM_006.jpg
1873.183	0.678	correct	congruent	Block2	congruent/STIM_006.jpg
1877.724	0.548	correct	congruent	Block2	congruent/STIM_006.jpg
1882.249	0.428	correct	congruent	Block2	congruent/STIM_006.jpg
1886.287	0.487	correct	congruent	Block2	congruent/STIM_007.jpg
1890.58	0.775	correct	congruent	Block2	congruent/STIM_007.jpg
1894.638	0.673	correct	congruent	Block2	congruent/STIM_007.jpg
1897.531	0.574	correct	congruent	Block2	congruent/STIM_007.jpg
1901.474	0.557	correct	congruent	Block2	congruent/STIM_007.jpg
1905.124	0.553	correct	congruent	Block2	congruent/STIM_008.jpg
1908.45	0.542	correct	congruent	Block2	congruent/STIM_008.jpg
1912.225	0.766	correct	congruent	Block2	congruent/STIM_008.jpg
1915.148	0.412	incorrect	congruent	Block2	congruent/STIM_008.jpg
1917.965	0.726	correct	congruent	Block2	congruent/STIM_008.jpg
1921.49	0.494	correct	congruent	Block2	congruent/STIM_009.jpg
1924.787	0.433	correct	congruent	Block2	congruent/STIM_009.jpg
1928.362	0.401	correct	congruent	Block2	congruent/STIM_009.jpg
1930.984	0.798	correct	congruent	Block2	congruent/STIM_009.jpg
1935.606	0.72	correct	congruent	Block2	congruent/STIM_009.jpg
1940.028	0.607	correct	congruent	Block2	congruent/STIM_010.jpg
1943.334	0.661	correct	congruent	Block2	congruent/STIM_010.jpg
1947.07	0.52	correct	congruent	Block2	congruent/STIM_010.jpg
1950.695	0.455	correct	congruent	Block2	congruent/STIM_010.jpg
1955.29	0.744	correct	congruent	Block2	congruent/STIM_010.jpg
1958.423	0.767	correct	congruent	Block2	congruent/STIM_011.jpg
1961.392	0.716	correct	congruent	Block2	congruent/STIM_011.jpg
1965.114	0.531	correct	congruent	Block2	congruent/STIM_011.jpg
1968.166	0.538	correct	congruent	Block2	congruent/STIM_011.jpg
1972.323	0.435	correct	congruent	Block2	congruent/STIM_011.jpg
1976.418	0.504	correct	congruent	Block2	congruent/STIM_012.jpg
1980.271	0.736	correct	congruent	Block2	congruent/STIM_012.jpg
1983.456	0.627	correct	congruent	Block2	congruent/STIM_012.jpg
1986.205	0.587	incorrect	congruent	Block2	congruent/STIM_012.jpg
1989.774	0.437	correct	congruent	Block2	congruent/STIM_012.jpg
1992.56	0.737	correct	congruent	Block2	congruent/STIM_013.jpg
1997.162	0.625	correct	congruent	Block2	congruent/STIM_013.jpg
2000.703	0.687	correct	congruent	Block2	congruent/STIM_013.jpg
2005.359	0.553	correct	congruent	Block2	congruent/STIM_013.jpg
2009.895	0.541	correct	congruent	Block2	congruent/STIM_013.jpg
2012.586	0.594	correct	congruent	Block2	congruent/STIM_014.jpg
2017.283	0.63	correct	congruent	Block2	congruent/STIM_014.jpg
2020.966	0.786	correct	congruent	Block2	congruent/STIM_014.jpg
2024.245	0.626	correct	congruent	Block2	congruent/STIM_014.jpg
2027.664	0.755	correct	congruent	Block2	congruent/STIM_014.jpg
2032.081	0.511	correct	congruent	Block2	congruent/STIM_015.jpg
2035.271	0.696	correct	congruent	Block2	congruent/STIM_015.jpg
2039.639	0.524	correct	congruent	Block2	congruent/STIM_015.jpg
2043.574	0.604	correct	congruent	Block2	congruent/STIM_015.jpg
2046.737	0.484	correct	congruent	Block2	congruent/STIM_015.jpg
2049.935	0.561	correct	congruent	Block2	congruent/STIM_016.jpg
2054.327	0.633	correct	congruent	Block2	congruent/STIM_016.jpg
2057.932	0.513	correct	congruent	Block2	congruent/STIM_016.jpg
2062.048	0.728	correct	congruent	Block2	congruent/STIM_016.jpg
2065.41	0.52	correct	congruent	Block2	congruent/STIM_016.jpg
2070.063	0.479	correct	congruent	Block2	congruent/STIM_017.jpg
2073.995	0.701	correct	congruent	Block2	congruent/STIM_017.jpg
2078.688	0.595	correct	congruent	Block2	congruent/STIM_017.jpg
2082.628	0.336	correct	congruent	Block2	congruent/STIM_017.jpg
2087.099	0.538	correct	congruent	Block2	congruent/STIM_017.jpg
2089.954	0.429	correct	congruent	Block2	congruent/STIM_018.jpg
2093.303	0.489	correct	congruent	Block2	congruent/STIM_018.jpg
2096.428	0.682	correct	congruent	Block2	congruent/STIM_018.jpg
2100.087	0.686	correct	congruent	Block2	congruent/STIM_018.jpg
2104.254	0.552	correct	congruent	Block2	congruent/STIM_018.jpg
2108.812	0.71	correct	congruent	Block2	congruent/STIM_019.jpg
2113.52	0.748	correct	congruent	Block2	congruent/STIM_019.jpg
2117.517	0.52	correct	congruent	Block2	congruent/STIM_019.jpg
2120.97	0.655	incorrect	congruent	Block2	congruent/STIM_019.jpg
2123.948	0.684	correct	congruent	Block2	congruent/STIM_019.jpg
2127.571	0.703	correct	congruent	Block2	congruent/STIM_020.jpg
2131.365	0.574	correct	congruent	Block2	congruent/STIM_020.jpg
2135.485	0.556	correct	congruent	Block2	congruent/STIM_020.jpg
2139.784	0.685	correct	congruent	Block2	congruent/STIM_020.jpg
2144.136	0.697	correct	congruent	Block2	congruent/STIM_020.jpg
2147.466	0.365	correct	congruent	Block2	congruent/STIM_021.jpg
2150.501	0.49	correct	congruent	Block2	congruent/STIM_021.jpg
2154.71	0.522	correct	congruent	Block2	congruent/STIM_021.jpg
2158.744	0.628	correct	congruent	Block2	congruent/STIM_021.jpg
2161.711	0.663	correct	congruent	Block2	congruent/STIM_021.jpg
2165.315	0.49	incorrect	congruent	Block2	congruent/STIM_022.jpg
2167.819	0.579	correct	congruent	Block2	congruent/STIM_022.jpg
2172.293	0.337	correct	congruent	Block2	congruent/STIM_022.jpg
2175.558	0.507	correct	congruent	Block2	congruent/STIM_022.jpg
2180.036	0.776	correct	congruent	Block2	congruent/STIM_022.jpg
2184.402	0.817	correct	congruent	Block2	congruent/STIM_023.jpg
2188.326	0.676	correct	congruent	Block2	congruent/STIM_023.jpg
2191.699	0.517	correct	congruent	Block2	congruent/STIM_023.jpg
2195.92	0.556	correct	congruent	Block2	congruent/STIM_023.jpg
2200.085	0.647	correct	congruent	Block2	congruent/STIM_023.jpg
2204.712	0.695	correct	congruent	Block2	congruent/STIM_024.jpg
2208.357	0.668	correct	congruent	Block2	congruent/STIM_024.jpg
2212.531	0.545	correct	congruent	Block2	congruent/STIM_024.jpg
2216.163	0.462	correct	congruent	Block2	congruent/STIM_024.jpg
2220.484	0.594	correct	congruent	Block2	congruent/STIM_024.jpg
2223.918	0.626	correct	congruent	Block2	congruent/STIM_025.jpg
2227.446	0.644	correct	congruent	Block2	congruent/STIM_025.jpg
2231.273	0.526	correct	congruent	Block2	congruent/STIM_025.jpg
2235.076	0.483	correct	congruent	Block2	congruent/STIM_025.jpg
2238.356	0.7	correct	congruent	Block2	congruent/STIM_025.jpg
2242.739	0.723	correct	congruent	Block2	congruent/STIM_026.jpg
2247.457	0.517	correct	congruent	Block2	congruent/STIM_026.jpg
2251.507	0.552	correct	congruent	Block2	congruent/STIM_026.jpg
2255.879	0.586	correct	congruent	Block2	congruent/STIM_026.jpg
2260.161	0.616	correct	congruent	Block2	congruent/STIM_026.jpg
2264.886	0.585	correct	congruent	Block2	congruent/STIM_027.jpg
2267.796	0.786	correct	congruent	Block2	congruent/STIM_027.jpg
2271.229	0.551	correct	congruent	Block2	congruent/STIM_027.jpg
2275.652	0.786	correct	congruent	Block2	congruent/STIM_027.jpg
2279.623	0.398	correct	congruent	Block2	congruent/STIM_027.jpg
2282.455	0.726	correct	congruent	Block2	congruent/STIM_028.jpg
2285.331	0.593	correct	congruent	Block2	congruent/STIM_028.jpg
2289.878	0.543	correct	congruent	Block2	congruent/STIM_028.jpg
2293.994	0.447	correct	congruent	Block2	congruent/STIM_028.jpg
2297.273	0.527	correct	congruent	Block2	congruent/STIM_028.jpg
2300.273	0.614	correct	congruent	Block2	congruent/STIM_029.jpg
2303.195	0.789	correct	congruent	Block2	congruent/STIM_029.jpg
2307.254	0.441	correct	congruent	Block2	congruent/STIM_029.jpg
2311.696	0.498	correct	congruent	Block2	congruent/STIM_029.jpg
2314.965	0.595	correct	congruent	Block2	congruent/STIM_029.jpg
2319.397	0.405	correct	incongruent	Block3	incongruent/STIM_000.jpg
2323.298	0.823	correct	incongruent	Block3	incongruent/STIM_000.jpg
2327.683	0.562	correct	incongruent	Block3	incongruent/STIM_000.jpg
2330.994	0.618	correct	incongruent	Block3	incongruent/STIM_000.jpg
2334.119	0.544	correct	incongruent	Block3	incongruent/STIM_000.jpg
2337.438	0.651	correct	incongruent	Block3	incongruent/STIM_001.jpg
2341.015	0.403	correct	incongruent	Block3	incongruent/STIM_001.jpg
2344.701	0.769	correct	incongruent	Block3	incongruent/STIM_001.jpg
2347.742	0.823	correct	incongruent	Block3	incongruent/STIM_001.jpg
2351.97	0.492	correct	incongruent	Block3	incongruent/STIM_001.jpg
2355.591	0.722	correct	incongruent	Block3	incongruent/STIM_002.jpg
2359.44	0.96	correct	incongruent	Block3	incongruent/STIM_002.jpg
2363.289	0.437	correct	incongruent	Block3	incongruent/STIM_002.jpg
2365.935	0.854	correct	incongruent	Block3	incongruent/STIM_002.jpg
2369.308	0.807	correct	incongruent	Block3	incongruent/STIM_002.jpg
2372.648	0.76	correct	incongruent	Block3	incongruent/STIM_003.jpg
2377.241	0.748	correct	incongruent	Block3	incongruent/STIM_003.jpg
2380.08	0.305	correct	incongruent	Block3	incongruent/STIM_003.jpg
2383.476	0.574	correct	incongruent	Block3	incongruent/STIM_003.jpg
2386.485	0.708	correct	incongruent	Block3	incongruent/STIM_003.jpg
2390.456	0.676	correct	incongruent	Block3	incongruent/STIM_004.jpg
2393.421	0.612	correct	incongruent	Block3	incongruent/STIM_004.jpg
2398.036	0.415	correct	incongruent	Block3	incongruent/STIM_004.jpg
2402.374	0.788	correct	incongruent	Block3	incongruent/STIM_004.jpg
2405.231	0.725	correct	incongruent	Block3	incongruent/STIM_004.jpg
2409.281	0.619	correct	incongruent	Block3	incongruent/STIM_005.jpg
2412.535	0.75	correct	incongruent	Block3	incongruent/STIM_005.jpg
2416.443	0.8	correct	incongruent	Block3	incongruent/STIM_005.jpg
2420.79	0.907	correct	incongruent	Block3	incongruent/STIM_005.jpg
2424.979	0.513	correct	incongruent	Block3	incongruent/STIM_005.jpg
2427.609	0.467	correct	incongruent	Block3	incongruent/STIM_006.jpg
2430.208	0.562	correct	incongruent	Block3	incongruent/STIM_006.jpg
2434.936	0.724	correct	incongruent	Block3	incongruent/STIM_006.jpg
2438.655	0.548	correct	incongruent	Block3	incongruent/STIM_006.jpg
2442.968	0.888	correct	incongruent	Block3	incongruent/STIM_006.jpg
2446.324	0.692	correct	incongruent	Block3	incongruent/STIM_007.jpg
2450.621	0.855	correct	incongruent	Block3	incongruent/STIM_007.jpg
2455.452	0.682	correct	incongruent	Block3	incongruent/STIM_007.jpg
2459.615	0.587	correct	incongruent	Block3	incongruent/STIM_007.jpg
2463.839	0.487	correct	incongruent	Block3	incongruent/STIM_007.jpg
2466.477	0.951	correct	incongruent	Block3	incongruent/STIM_008.jpg
2471.394	0.451	correct	incongruent	Block3	incongruent/STIM_008.jpg
2475.516	0.603	correct	incongruent	Block3	incongruent/STIM_008.jpg
2478.521	0.8	correct	incongruent	Block3	incongruent/STIM_008.jpg
2482.823	0.57	correct	incongruent	Block3	incongruent/STIM_008.jpg
2486.576	0.758	correct	incongruent	Block3	incongruent/STIM_009.jpg
2490.651	0.934	correct	incongruent	Block3	incongruent/STIM_009.jpg
2495.022	0.494	correct	incongruent	Block3	incongruent/STIM_009.jpg
2498.801	0.881	correct	incongruent	Block3	incongruent/STIM_009.jpg
2503.648	0.798	correct	incongruent	Block3	incongruent/STIM_009.jpg
2507.802	0.502	correct	incongruent	Block3	incongruent/STIM_010.jpg
2511.864	0.774	correct	incongruent	Block3	incongruent/STIM_010.jpg
2515.825	0.573	correct	incongruent	Block3	incongruent/STIM_010.jpg
2518.67	0.82	correct	incongruent	Block3	incongruent/STIM_010.jpg
2522.063	0.867	correct	incongruent	Block3	incongruent/STIM_010.jpg
2525.993	0.95	correct	incongruent	Block3	incongruent/STIM_011.jpg
2530.334	0.617	correct	incongruent	Block3	incongruent/STIM_011.jpg
2533.809	0.476	correct	incongruent	Block3	incongruent/STIM_011.jpg
2536.996	0.61	correct	incongruent	Block3	incongruent/STIM_011.jpg
2540.349	0.608	correct	incongruent	Block3	incongruent/STIM_011.jpg
2543.416	0.773	correct	incongruent	Block3	incongruent/STIM_012.jpg
2547.031	0.906	correct	incongruent	Block3	incongruent/STIM_012.jpg
2550.789	0.78	correct	incongruent	Block3	incongruent/STIM_012.jpg
2554.919	0.658	incorrect	incongruent	Block3	incongruent/STIM_012.jpg
2558.218	0.608	correct	incongruent	Block3	incongruent/STIM_012.jpg
2561.524	0.815	correct	incongruent	Block3	incongruent/STIM_013.jpg
2564.654	0.635	correct	incongruent	Block3	incongruent/STIM_013.jpg
2568.244	0.47	correct	incongruent	Block3	incongruent/STIM_013.jpg
2571.991	0.601	correct	incongruent	Block3	incongruent/STIM_013.jpg
2576.185	0.731	correct	incongruent	Block3	incongruent/STIM_013.jpg
2580.765	0.846	correct	incongruent	Block3	incongruent/STIM_014.jpg
2584.446	0.408	correct	incongruent	Block3	incongruent/STIM_014.jpg
2587.932	0.42	correct	incongruent	Block3	incongruent/STIM_014.jpg
2591.822	0.67	correct	incongruent	Block3	incongruent/STIM_014.jpg
2595.641	0.544	correct	incongruent	Block3	incongruent/STIM_014.jpg
2600.177	0.468	correct	incongruent	Block3	incongruent/STIM_015.jpg
2603.865	0.587	correct	incongruent	Block3	incongruent/STIM_015.jpg
2607.691	0.537	correct	incongruent	Block3	incongruent/STIM_015.jpg
2611.447	0.46	incorrect	incongruent	Block3	incongruent/STIM_015.jpg
2614.441	0.701	correct	incongruent	Block3	incongruent/STIM_015.jpg
2618.153	0.771	incorrect	incongruent	Block3	incongruent/STIM_016.jpg
2621.088	0.862	correct	incongruent	Block3	incongruent/STIM_016.jpg
2624.503	0.92	correct	incongruent	Block3	incongruent/STIM_016.jpg
2628.399	0.66	correct	incongruent	Block3	incongruent/STIM_016.jpg
2631.768	0.56	correct	incongruent	Block3	incongruent/STIM_016.jpg
2634.634	0.846	correct	incongruent	Block3	incongruent/STIM_017.jpg
2638.052	0.85	correct	incongruent	Block3	incongruent/STIM_017.jpg
2642.505	0.38	correct	incongruent	Block3	incongruent/STIM_017.jpg
2645.267	0.783	correct	incongruent	Block3	incongruent/STIM_017.jpg
2649.119	0.952	correct	incongruent	Block3	incongruent/STIM_017.jpg
2653.501	0.504	correct	incongruent	Block3	incongruent/STIM_018.jpg
2657.706	0.401	correct	incongruent	Block3	incongruent/STIM_018.jpg
2660.937	0.633	correct	incongruent	Block3	incongruent/STIM_018.jpg
2664.008	0.594	correct	incongruent	Block3	incongruent/STIM_018.jpg
2667.412	0.514	correct	incongruent	Block3	incongruent/STIM_018.jpg
2671.029	0.712	correct	incongruent	Block3	incongruent/STIM_019.jpg
2675.41	0.605	correct	incongruent	Block3	incongruent/STIM_019.jpg
2680.007	0.491	correct	incongruent	Block3	incongruent/STIM_019.jpg
2683.297	0.526	correct	incongruent	Block3	incongruent/STIM_019.jpg
2686.744	0.68	correct	incongruent	Block3	incongruent/STIM_019.jpg
2691.125	0.68	correct	incongruent	Block3	incongruent/STIM_020.jpg
2694.74	0.54	correct	incongruent	Block3	incongruent/STIM_020.jpg
2697.709	0.898	correct	incongruent	Block3	incongruent/STIM_020.jpg
2702.614	0.771	correct	incongruent	Block3	incongruent/STIM_020.jpg
2706.921	0.742	correct	incongruent	Block3	incongruent/STIM_020.jpg
2710.667	0.674	correct	incongruent	Block3	incongruent/STIM_021.jpg
2713.538	0.916	correct	incongruent	Block3	incongruent/STIM_021.jpg
2716.576	0.411	correct	incongruent	Block3	incongruent/STIM_021.jpg
2719.415	0.495	correct	incongruent	Block3	incongruent/STIM_021.jpg
2722.032	0.386	correct	incongruent	Block3	incongruent/STIM_021.jpg
2725.598	0.76	correct	incongruent	Block3	incongruent/STIM_022.jpg
2728.982	0.483	correct	incongruent	Block3	incongruent/STIM_022.jpg
2732.476	0.767	correct	incongruent	Block3	incongruent/STIM_022.jpg
2736.824	0.829	correct	incongruent	Block3	incongruent/STIM_022.jpg
2739.741	0.733	correct	incongruent	Block3	incongruent/STIM_022.jpg
2744.43	0.955	correct	incongruent	Block3	incongruent/STIM_023.jpg
2747.936	0.635	correct	incongruent	Block3	incongruent/STIM_023.jpg
2752.23	0.653	correct	incongruent	Block3	incongruent/STIM_023.jpg
2756.134	0.807	correct	incongruent	Block3	incongruent/STIM_023.jpg
2760.988	0.788	correct	incongruent	Block3	incongruent/STIM_023.jpg
2764.688	0.657	correct	incongruent	Block3	incongruent/STIM_024.jpg
2769.167	0.696	correct	incongruent	Block3	incongruent/STIM_024.jpg
2773.181	0.447	correct	incongruent	Block3	incongruent/STIM_024.jpg
2777.316	0.655	correct	incongruent	Block3	incongruent/STIM_024.jpg
2781.562	0.827	correct	incongruent	Block3	incongruent/STIM_024.jpg
2785.46	0.554	correct	incongruent	Block3	incongruent/STIM_025.jpg
2788.735	0.654	correct	incongruent	Block3	incongruent/STIM_025.jpg
2793.122	0.503	correct	incongruent	Block3	incongruent/STIM_025.jpg
2797.33	0.639	correct	incongruent	Block3	incongruent/STIM_025.jpg
2800.491	0.845	correct	incongruent	Block3	incongruent/STIM_025.jpg
2803.693	0.829	correct	incongruent	Block3	incongruent/STIM_026.jpg
2808.505	0.529	correct	incongruent	Block3	incongruent/STIM_026.jpg
2812.232	0.748	correct	incongruent	Block3	incongruent/STIM_026.jpg
2815.242	0.804	correct	incongruent	Block3	incongruent/STIM_026.jpg
2818.655	0.617	correct	incongruent	Block3	incongruent/STIM_026.jpg
2822.006	0.749	correct	incongruent	Block3	incongruent/STIM_027.jpg
2826.428	0.798	correct	incongruent	Block3	incongruent/STIM_027.jpg
2830.041	0.588	correct	incongruent	Block3	incongruent/STIM_027.jpg
2832.944	0.477	correct	incongruent	Block3	incongruent/STIM_027.jpg
2835.762	0.81	correct	incongruent	Block3	incongruent/STIM_027.jpg
2838.816	0.535	correct	incongruent	Block3	incongruent/STIM_028.jpg
2842.187	0.855	correct	incongruent	Block3	incongruent/STIM_028.jpg
2846.811	0.87	correct	incongruent	Block3	incongruent/STIM_028.jpg
2850.82	0.579	correct	incongruent	Block3	incongruent/STIM_028.jpg
2855.237	0.785	correct	incongruent	Block3	incongruent/STIM_028.jpg
2859.666	0.676	correct	incongruent	Block3	incongruent/STIM_029.jpg
2863.169	0.644	correct	incongruent	Block3	incongruent/STIM_029.jpg
2867.509	0.574	correct	incongruent	Block3	incongruent/STIM_029.jpg
2871.297	0.845	correct	incongruent	Block3	incongruent/STIM_029.jpg
2875.855	0.796	correct	incongruent	Block3	incongruent/STIM_029.jpg
2879.081	0.732	correct	congruent	Block3	congruent/STIM_000.jpg
2881.915	0.44	correct	congruent	Block3	congruent/STIM_000.jpg
2886.199	0.505	correct	congruent	Block3	congruent/STIM_000.jpg
2889.065	0.727	correct	congruent	Block3	congruent/STIM_000.jpg
2893.722	0.484	correct	congruent	Block3	congruent/STIM_000.jpg
2897.02	0.418	correct	congruent	Block3	congruent/STIM_001.jpg
2900.149	0.879	correct	congruent	Block3	congruent/STIM_001.jpg
2903.343	0.81	correct	congruent	Block3	congruent/STIM_001.jpg
2907.818	0.604	correct	congruent	Block3	congruent/STIM_001.jpg
2911.902	0.616	correct	congruent	Block3	congruent/STIM_001.jpg
2916.065	0.726	correct	congruent	Block3	congruent/STIM_002.jpg
2918.972	0.537	correct	congruent	Block3	congruent/STIM_002.jpg
2923.291	0.609	correct	congruent	Block3	congruent/STIM_002.jpg
2926.553	0.514	correct	congruent	Block3	congruent/STIM_002.jpg
2929.855	0.591	correct	congruent	Block3	congruent/STIM_002.jpg
2933.074	0.509	correct	congruent	Block3	congruent/STIM_003.jpg
2937.078	0.8	correct	congruent	Block3	congruent/STIM_003.jpg
2940.229	0.612	correct	congruent	Block3	congruent/STIM_003.jpg
2944.4	0.491	correct	congruent	Block3	congruent/STIM_003.jpg
2947.262	0.537	correct	congruent	Block3	congruent/STIM_003.jpg
2951.203	0.81	correct	congruent	Block3	congruent/STIM_004.jpg
2955.04	0.697	correct	congruent	Block3	congruent/STIM_004.jpg
2959.627	0.578	correct	congruent	Block3	congruent/STIM_004.jpg
2962.479	0.479	correct	congruent	Block3	congruent/STIM_004.jpg
2965.389	0.628	correct	congruent	Block3	congruent/STIM_004.jpg
2969.518	0.783	correct	congruent	Block3	congruent/STIM_005.jpg
2973.653	0.287	correct	congruent	Block3	congruent/STIM_005.jpg
2977.262	0.676	correct	congruent	Block3	congruent/STIM_005.jpg
2981.292	0.64	correct	congruent	Block3	congruent/STIM_005.jpg
2985.471	0.58	correct	congruent	Block3	congruent/STIM_005.jpg
2989.079	0.423	correct	congruent	Block3	congruent/STIM_006.jpg
2993.41	0.522	correct	congruent	Block3	congruent/STIM_006.jpg
2997.912	0.703	correct	congruent	Block3	congruent/STIM_006.jpg
3001.745	0.582	correct	congruent	Block3	congruent/STIM_006.jpg
3005.642	0.587	correct	congruent	Block3	congruent/STIM_006.jpg
3008.979	0.668	correct	congruent	Block3	congruent/STIM_007.jpg
3013.496	0.755	correct	congruent	Block3	congruent/STIM_007.jpg
3016.543	0.71	correct	congruent	Block3	congruent/STIM_007.jpg
3019.425	0.7	correct	congruent	Block3	congruent/STIM_007.jpg
3023.818	0.753	correct	congruent	Block3	congruent/STIM_007.jpg
3027.569	0.515	correct	congruent	Block3	congruent/STIM_008.jpg
3030.578	0.608	correct	congruent	Block3	congruent/STIM_008.jpg
3035.333	0.477	correct	congruent	Block3	congruent/STIM_008.jpg
3039.28	0.693	correct	congruent	Block3	congruent/STIM_008.jpg
3042.593	0.716	correct	congruent	Block3	congruent/STIM_008.jpg
3046.574	0.68	correct	congruent	Block3	congruent/STIM_009.jpg
3051.014	0.569	correct	congruent	Block3	congruent/STIM_009.jpg
3054.816	0.705	correct	congruent	Block3	congruent/STIM_009.jpg
3058.433	0.521	correct	congruent	Block3	congruent/STIM_009.jpg
3062.774	0.776	correct	congruent	Block3	congruent/STIM_009.jpg
3067.66	0.457	correct	congruent	Block3	congruent/STIM_010.jpg
3071.522	0.73	correct	congruent	Block3	congruent/STIM_010.jpg
3075.556	0.716	correct	congruent	Block3	congruent/STIM_010.jpg
3079.131	0.526	correct	congruent	Block3	congruent/STIM_010.jpg
3082.868	0.648	correct	congruent	Block3	congruent/STIM_010.jpg
3085.675	0.512	correct	congruent	Block3	congruent/STIM_011.jpg
3088.267	0.714	correct	congruent	Block3	congruent/STIM_011.jpg
3091.187	0.71	correct	congruent	Block3	congruent/STIM_011.jpg
3096.007	0.62	correct	congruent	Block3	congruent/STIM_011.jpg
3099.949	0.621	correct	congruent	Block3	congruent/STIM_011.jpg
3103.197	0.475	correct	congruent	Block3	congruent/STIM_012.jpg
3105.899	0.665	correct	congruent	Block3	congruent/STIM_012.jpg
3110.589	0.747	correct	congruent	Block3	congruent/STIM_012.jpg
3113.687	0.605	correct	congruent	Block3	congruent/STIM_012.jpg
3116.411	0.606	correct	congruent	Block3	congruent/STIM_012.jpg
3120.391	0.472	correct	congruent	Block3	congruent/STIM_013.jpg
3124.863	0.626	correct	congruent	Block3	congruent/STIM_013.jpg
3129.072	0.653	correct	congruent	Block3	congruent/STIM_013.jpg
3132.518	0.625	correct	congruent	Block3	congruent/STIM_013.jpg
3136.768	0.559	correct	congruent	Block3	congruent/STIM_013.jpg
3141.176	0.723	correct	congruent	Block3	congruent/STIM_014.jpg
3144.013	0.698	correct	congruent	Block3	congruent/STIM_014.jpg
3147.382	0.599	correct	congruent	Block3	congruent/STIM_014.jpg
3151.927	0.514	correct	congruent	Block3	congruent/STIM_014.jpg
3156.114	0.475	correct	congruent	Block3	congruent/STIM_014.jpg
3160.018	0.539	correct	congruent	Block3	congruent/STIM_015.jpg
3163.642	0.584	correct	congruent	Block3	congruent/STIM_015.jpg
3166.391	0.635	correct	congruent	Block3	congruent/STIM_015.jpg
3171.089	0.462	correct	congruent	Block3	congruent/STIM_015.jpg
3175.358	0.497	incorrect	congruent	Block3	congruent/STIM_015.jpg
3178.775	0.702	correct	congruent	Block3	congruent/STIM_016.jpg
3182.511	0.687	correct	congruent	Block3	congruent/STIM_016.jpg
3186.88	0.638	correct	congruent	Block3	congruent/STIM_016.jpg
3190.596	0.728	correct	congruent	Block3	congruent/STIM_016.jpg
3195.329	0.607	correct	congruent	Block3	congruent/STIM_016.jpg
3199.106	0.684	correct	congruent	Block3	congruent/STIM_017.jpg
3202.379	0.727	correct	congruent	Block3	congruent/STIM_017.jpg
3205.842	0.683	correct	congruent	Block3	congruent/STIM_017.jpg
3209.339	0.67	correct	congruent	Block3	congruent/STIM_017.jpg
3213.987	0.552	correct	congruent	Block3	congruent/STIM_017.jpg
3217.386	0.697	correct	congruent	Block3	congruent/STIM_018.jpg
3220.64	0.472	correct	congruent	Block3	congruent/STIM_018.jpg
3224.766	0.433	correct	congruent	Block3	congruent/STIM_018.jpg
3227.774	0.496	correct	congruent	Block3	congruent/STIM_018.jpg
3231.54	0.607	correct	congruent	Block3	congruent/STIM_018.jpg
3234.264	0.785	correct	congruent	Block3	congruent/STIM_019.jpg
3237.683	0.532	correct	congruent	Block3	congruent/STIM_019.jpg
3241.72	0.578	correct	congruent	Block3	congruent/STIM_019.jpg
3245.96	0.66	correct	congruent	Block3	congruent/STIM_019.jpg
3248.875	0.597	correct	congruent	Block3	congruent/STIM_019.jpg
3252.397	0.751	correct	congruent	Block3	congruent/STIM_020.jpg
3255.754	0.509	correct	congruent	Block3	congruent/STIM_020.jpg
3259.155	0.736	correct	congruent	Block3	congruent/STIM_020.jpg
3262.37	0.389	correct	congruent	Block3	congruent/STIM_020.jpg
3266.477	0.502	correct	congruent	Block3	congruent/STIM_020.jpg
3269.237	0.474	correct	congruent	Block3	congruent/STIM_021.jpg
3272.338	0.521	correct	congruent	Block3	congruent/STIM_021.jpg
3274.903	0.657	correct	congruent	Block3	congruent/STIM_021.jpg
3277.755	0.634	incorrect	congruent	Block3	congruent/STIM_021.jpg
3280.565	0.785	incorrect	congruent	Block3	congruent/STIM_021.jpg
3284.744	0.676	incorrect	congruent	Block3	congruent/STIM_022.jpg
3288.166	0.533	correct	congruent	Block3	congruent/STIM_022.jpg
3292.74	0.624	correct	congruent	Block3	congruent/STIM_022.jpg
3296.385	0.811	correct	congruent	Block3	congruent/STIM_022.jpg
3300.523	0.632	correct	congruent	Block3	congruent/STIM_022.jpg
3304.247	0.708	correct	congruent	Block3	congruent/STIM_023.jpg
3308.131	0.798	correct	congruent	Block3	congruent/STIM_023.jpg
3311.192	0.44	correct	congruent	Block3	congruent/STIM_023.jpg
3313.977	0.579	correct	congruent	Block3	congruent/STIM_023.jpg
3317.533	0.776	correct	congruent	Block3	congruent/STIM_023.jpg
3321.849	0.533	correct	congruent	Block3	congruent/STIM_024.jpg
3325.693	0.562	correct	congruent	Block3	congruent/STIM_024.jpg
3328.748	0.561	correct	congruent	Block3	congruent/STIM_024.jpg
3331.596	0.644	correct	congruent	Block3	congruent/STIM_024.jpg
3335.157	0.695	correct	congruent	Block3	congruent/STIM_024.jpg
3338.614	0.623	correct	congruent	Block3	congruent/STIM_025.jpg
3341.705	0.453	correct	congruent	Block3	congruent/STIM_025.jpg
3344.552	0.762	correct	congruent	Block3	congruent/STIM_025.jpg
3349.124	0.581	correct	congruent	Block3	congruent/STIM_025.jpg
3353.719	0.527	correct	congruent	Block3	congruent/STIM_025.jpg
3356.668	0.428	correct	congruent	Block3	congruent/STIM_026.jpg
3360.709	0.446	correct	congruent	Block3	congruent/STIM_026.jpg
3365.187	0.742	correct	congruent	Block3	congruent/STIM_026.jpg
3369.876	0.832	correct	congruent	Block3	congruent/STIM_026.jpg
3373.574	0.509	correct	congruent	Block3	congruent/STIM_026.jpg
3376.303	0.608	correct	congruent	Block3	congruent/STIM_027.jpg
3380.615	0.771	correct	congruent	Block3	congruent/STIM_027.jpg
3383.637	0.55	correct	congruent	Block3	congruent/STIM_027.jpg
3387.84	0.455	correct	congruent	Block3	congruent/STIM_027.jpg
3390.751	0.674	correct	congruent	Block3	congruent/STIM_027.jpg
3395.434	0.621	correct	congruent	Block3	congruent/STIM_028.jpg
3398.747	0.667	correct	congruent	Block3	congruent/STIM_028.jpg
3403.306	0.501	correct	congruent	Block3	congruent/STIM_028.jpg
3406.482	0.535	correct	congruent	Block3	congruent/STIM_028.jpg
3409.432	0.497	correct	congruent	Block3	congruent/STIM_028.jpg
3412.403	0.665	correct	congruent	Block3	congruent/STIM_029.jpg
3416.278	0.512	correct	congruent	Block3	congruent/STIM_029.jpg
3419.858	0.725	correct	congruent	Block3	congruent/STIM_029.jpg
3423.956	0.485	correct	congruent	Block3	congruent/STIM_029.jpg
3426.682	0.521	correct	congruent	Block3	congruent/STIM_029.jpg
