onset	duration	response_time_ms	trial_type	learning_stage	stimulus	response_port
0.0	1.251	1250.8	incongruent	Block1	incongruent/STIM_000.jpg	99
3.4	1.104	1103.8	incongruent	Block1	incongruent/STIM_000.jpg	99
6.9	0.616	616.0	incongruent	Block1	incongruent/STIM_000.jpg	99
10.692	0.807	807.1	incongruent	Block1	incongruent/STIM_000.jpg	99
13.526	0.916	915.8	incongruent	Block1	incongruent/STIM_000.jpg	100
16.719	0.7	700.2	incongruent	Block1	incongruent/STIM_001.jpg	99
20.835	0.633	633.2	incongruent	Block1	incongruent/STIM_001.jpg	100
24.611	0.723	723.2	incongruent	Block1	incongruent/STIM_001.jpg	100
28.264	1.01	1010.0	incongruent	Block1	incongruent/STIM_001.jpg	100
31.281	0.565	564.9	incongruent	Block1	incongruent/STIM_001.jpg	99
33.865	0.703	702.9	incongruent	Block1	incongruent/STIM_002.jpg	99
36.751	0.703	702.9	incongruent	Block1	incongruent/STIM_002.jpg	100
41.062	1.164	1163.7	incongruent	Block1	incongruent/STIM_002.jpg	99
45.817	0.884	884.3	incongruent	Block1	incongruent/STIM_002.jpg	100
50.54	0.704	703.9	incongruent	Block1	incongruent/STIM_002.jpg	100
54.897	1.275	1274.6	incongruent	Block1	incongruent/STIM_003.jpg	100
59.608	1.0	1000.5	incongruent	Block1	incongruent/STIM_003.jpg	100
64.28	1.109	1108.8	incongruent	Block1	incongruent/STIM_003.jpg	100
68.651	0.684	684.4	incongruent	Block1	incongruent/STIM_003.jpg	99
72.994	0.853	853.2	incongruent	Block1	incongruent/STIM_003.jpg	100
75.884	1.046	1046.2	incongruent	Block1	incongruent/STIM_004.jpg	100
80.499	1.307	1307.1	incongruent	Block1	incongruent/STIM_004.jpg	100
84.757	0.886	886.4	incongruent	Block1	incongruent/STIM_004.jpg	100
89.134	0.674	674.3	incongruent	Block1	incongruent/STIM_004.jpg	100
92.233	0.608	607.5	incongruent	Block1	incongruent/STIM_004.jpg	100
95.043	1.234	1234.0	incongruent	Block1	incongruent/STIM_005.jpg	100
99.217	1.256	1255.6	incongruent	Block1	incongruent/STIM_005.jpg	100
102.915	1.267	1266.6	incongruent	Block1	incongruent/STIM_005.jpg	99
107.727	0.75	750.3	incongruent	Block1	incongruent/STIM_005.jpg	99
111.368	0.758	757.5	incongruent	Block1	incongruent/STIM_005.jpg	100
115.372	1.2	1200.3	incongruent	Block1	incongruent/STIM_006.jpg	100
120.338	0.757	756.6	incongruent	Block1	incongruent/STIM_006.jpg	99
123.754	0.681	680.9	incongruent	Block1	incongruent/STIM_006.jpg	100
127.01	0.618	618.5	incongruent	Block1	incongruent/STIM_006.jpg	100
130.976	0.623	623.3	incongruent	Block1	incongruent/STIM_006.jpg	100
134.602	1.318	1318.4	incongruent	Block1	incongruent/STIM_007.jpg	99
139.663	1.096	1096.4	incongruent	Block1	incongruent/STIM_007.jpg	99
143.936	0.776	775.7	incongruent	Block1	incongruent/STIM_007.jpg	100
147.987	0.635	634.7	incongruent	Block1	incongruent/STIM_007.jpg	100
151.322	0.648	648.4	incongruent	Block1	incongruent/STIM_007.jpg	99
155.698	1.356	1356.2	incongruent	Block1	incongruent/STIM_008.jpg	99
160.348	0.976	976.5	incongruent	Block1	incongruent/STIM_008.jpg	100
164.438	1.101	1101.2	incongruent	Block1	incongruent/STIM_008.jpg	99
169.006	0.979	978.6	incongruent	Block1	incongruent/STIM_008.jpg	100
173.698	0.68	679.9	incongruent	Block1	incongruent/STIM_008.jpg	99
177.95	1.408	1408.1	incongruent	Block1	incongruent/STIM_009.jpg	99
182.234	1.166	1165.7	incongruent	Block1	incongruent/STIM_009.jpg	100
186.965	0.646	645.5	incongruent	Block1	incongruent/STIM_009.jpg	100
190.294	1.013	1012.9	incongruent	Block1	incongruent/STIM_009.jpg	99
194.375	0.732	731.6	incongruent	Block1	incongruent/STIM_009.jpg	100
198.87	0.868	867.6	incongruent	Block1	incongruent/STIM_010.jpg	100
202.733	1.011	1010.7	incongruent	Block1	incongruent/STIM_010.jpg	100
206.975	0.785	784.7	incongruent	Block1	incongruent/STIM_010.jpg	100
211.03	0.772	771.8	incongruent	Block1	incongruent/STIM_010.jpg	100
215.447	1.072	1071.8	incongruent	Block1	incongruent/STIM_010.jpg	100
219.839	1.054	1054.3	incongruent	Block1	incongruent/STIM_011.jpg	99
223.969	0.76	760.0	incongruent	Block1	incongruent/STIM_011.jpg	99
226.764	0.923	922.9	incongruent	Block1	incongruent/STIM_011.jpg	100
231.376	1.078	1078.0	incongruent	Block1	incongruent/STIM_011.jpg	99
234.789	0.729	728.9	incongruent	Block1	incongruent/STIM_011.jpg	99
238.312	1.391	1391.1	incongruent	Block1	incongruent/STIM_012.jpg	100
241.76	0.696	696.3	incongruent	Block1	incongruent/STIM_012.jpg	99
244.524	0.953	953.1	incongruent	Block1	incongruent/STIM_012.jpg	99
247.561	0.972	971.6	incongruent	Block1	incongruent/STIM_012.jpg	100
250.776	0.874	873.6	incongruent	Block1	incongruent/STIM_012.jpg	99
255.336	1.187	1187.2	incongruent	Block1	incongruent/STIM_013.jpg	100
260.438	1.27	1269.6	incongruent	Block1	incongruent/STIM_013.jpg	100
265.032	1.161	1160.9	incongruent	Block1	incongruent/STIM_013.jpg	100
269.632	1.106	1105.9	incongruent	Block1	incongruent/STIM_013.jpg	100
273.276	0.864	864.3	incongruent	Block1	incongruent/STIM_013.jpg	99
276.146	0.939	938.6	incongruent	Block1	incongruent/STIM_014.jpg	99
280.074	1.241	1241.3	incongruent	Block1	incongruent/STIM_014.jpg	100
285.021	1.027	1027.4	incongruent	Block1	incongruent/STIM_014.jpg	100
288.87	0.627	626.9	incongruent	Block1	incongruent/STIM_014.jpg	99
292.648	0.642	641.9	incongruent	Block1	incongruent/STIM_014.jpg	99
296.252	0.819	819.4	incongruent	Block1	incongruent/STIM_015.jpg	99
300.364	1.305	1305.4	incongruent	Block1	incongruent/STIM_015.jpg	99
305.222	0.633	632.6	incongruent	Block1	incongruent/STIM_015.jpg	99
307.887	0.985	984.9	incongruent	Block1	incongruent/STIM_015.jpg	99
312.251	0.789	788.8	incongruent	Block1	incongruent/STIM_015.jpg	100
316.123	0.701	700.7	incongruent	Block1	incongruent/STIM_016.jpg	99
320.651	1.104	1104.3	incongruent	Block1	incongruent/STIM_016.jpg	100
323.869	1.057	1057.3	incongruent	Block1	incongruent/STIM_016.jpg	100
328.48	0.679	678.6	incongruent	Block1	incongruent/STIM_016.jpg	100
333.12	0.957	956.9	incongruent	Block1	incongruent/STIM_016.jpg	99
336.216	0.784	783.6	incongruent	Block1	incongruent/STIM_017.jpg	100
339.214	1.312	1312.2	incongruent	Block1	incongruent/STIM_017.jpg	100
343.233	1.164	1164.3	incongruent	Block1	incongruent/STIM_017.jpg	100
347.951	0.864	863.8	incongruent	Block1	incongruent/STIM_017.jpg	100
351.69	1.092	1092.2	incongruent	Block1	incongruent/STIM_017.jpg	99
355.099	0.869	869.0	incongruent	Block1	incongruent/STIM_018.jpg	100
358.876	1.112	1112.4	incongruent	Block1	incongruent/STIM_018.jpg	100
363.726	1.074	1074.3	incongruent	Block1	incongruent/STIM_018.jpg	100
367.207	0.735	735.2	incongruent	Block1	incongruent/STIM_018.jpg	100
370.209	1.042	1042.2	incongruent	Block1	incongruent/STIM_018.jpg	100
374.408	1.244	1244.0	incongruent	Block1	incongruent/STIM_019.jpg	100
379.469	1.239	1239.2	incongruent	Block1	incongruent/STIM_019.jpg	100
384.082	0.61	609.6	incongruent	Block1	incongruent/STIM_019.jpg	100
388.169	0.685	684.7	incongruent	Block1	incongruent/STIM_019.jpg	100
391.574	0.904	904.4	incongruent	Block1	incongruent/STIM_019.jpg	99
395.434	0.962	962.4	incongruent	Block1	incongruent/STIM_020.jpg	100
399.539	1.046	1045.8	incongruent	Block1	incongruent/STIM_020.jpg	99
402.855	0.974	973.9	incongruent	Block1	incongruent/STIM_020.jpg	99
406.855	0.954	954.4	incongruent	Block1	incongruent/STIM_020.jpg	99
410.938	0.532	531.7	incongruent	Block1	incongruent/STIM_020.jpg	100
414.842	1.4	1400.1	incongruent	Block1	incongruent/STIM_021.jpg	100
420.054	1.202	1202.3	incongruent	Block1	incongruent/STIM_021.jpg	99
423.827	0.755	755.3	incongruent	Block1	incongruent/STIM_021.jpg	99
427.665	0.637	637.3	incongruent	Block1	incongruent/STIM_021.jpg	99
431.18	0.851	850.6	incongruent	Block1	incongruent/STIM_021.jpg	100
434.427	0.822	821.8	incongruent	Block1	incongruent/STIM_022.jpg	100
438.776	1.202	1202.0	incongruent	Block1	incongruent/STIM_022.jpg	100
442.232	0.742	742.0	incongruent	Block1	incongruent/STIM_022.jpg	99
445.89	0.693	692.7	incongruent	Block1	incongruent/STIM_022.jpg	100
449.207	1.042	1042.0	incongruent	Block1	incongruent/STIM_022.jpg	99
452.817	0.786	786.4	incongruent	Block1	incongruent/STIM_023.jpg	100
457.437	1.265	1265.4	incongruent	Block1	incongruent/STIM_023.jpg	100
460.731	1.079	1078.8	incongruent	Block1	incongruent/STIM_023.jpg	100
465.465	0.977	977.3	incongruent	Block1	incongruent/STIM_023.jpg	100
470.337	0.553	552.9	incongruent	Block1	incongruent/STIM_023.jpg	100
473.293	0.673	673.0	incongruent	Block1	incongruent/STIM_024.jpg	99
476.851	0.896	895.6	incongruent	Block1	incongruent/STIM_024.jpg	100
479.948	0.866	865.6	incongruent	Block1	incongruent/STIM_024.jpg	100
484.548	0.877	877.3	incongruent	Block1	incongruent/STIM_024.jpg	99
489.161	0.765	764.8	incongruent	Block1	incongruent/STIM_024.jpg	100
492.052	0.788	788.0	incongruent	Block1	incongruent/STIM_025.jpg	99
496.174	1.026	1026.0	incongruent	Block1	incongruent/STIM_025.jpg	100
499.366	0.842	842.0	incongruent	Block1	incongruent/STIM_025.jpg	99
502.733	0.899	899.1	incongruent	Block1	incongruent/STIM_025.jpg	100
506.822	0.899	898.7	incongruent	Block1	incongruent/STIM_025.jpg	99
510.434	0.969	968.6	incongruent	Block1	incongruent/STIM_026.jpg	100
514.25	0.911	911.2	incongruent	Block1	incongruent/STIM_026.jpg	99
518.83	1.056	1055.5	incongruent	Block1	incongruent/STIM_026.jpg	100
521.918	1.131	1131.2	incongruent	Block1	incongruent/STIM_026.jpg	99
525.575	0.665	665.0	incongruent	Block1	incongruent/STIM_026.jpg	99
529.958	1.408	1408.3	incongruent	Block1	incongruent/STIM_027.jpg	100
533.781	0.887	887.3	incongruent	Block1	incongruent/STIM_027.jpg	99
537.015	1.067	1067.3	incongruent	Block1	incongruent/STIM_027.jpg	100
540.844	0.828	828.4	incongruent	Block1	incongruent/STIM_027.jpg	100
545.506	1.039	1038.8	incongruent	Block1	incongruent/STIM_027.jpg	99
549.06	0.843	842.9	incongruent	Block1	incongruent/STIM_028.jpg	100
553.886	0.675	674.6	incongruent	Block1	incongruent/STIM_028.jpg	99
557.285	1.044	1044.1	incongruent	Block1	incongruent/STIM_028.jpg	100
560.95	0.933	932.9	incongruent	Block1	incongruent/STIM_028.jpg	99
565.717	0.885	884.6	incongruent	Block1	incongruent/STIM_028.jpg	99
569.939	1.119	1118.8	incongruent	Block1	incongruent/STIM_029.jpg	100
574.363	1.164	1163.6	incongruent	Block1	incongruent/STIM_029.jpg	100
577.79	0.636	635.7	incongruent	Block1	incongruent/STIM_029.jpg	99
580.924	1.042	1042.4	incongruent	Block1	incongruent/STIM_029.jpg	100
583.994	1.037	1037.3	incongruent	Block1	incongruent/STIM_029.jpg	99
587.399	0.704	704.1	congruent	Block1	congruent/STIM_000.jpg	100
590.766	0.631	630.8	congruent	Block1	congruent/STIM_000.jpg	100
593.906	0.796	796.1	congruent	Block1	congruent/STIM_000.jpg	99
596.744	0.563	563.2	congruent	Block1	congruent/STIM_000.jpg	100
599.462	0.761	761.4	congruent	Block1	congruent/STIM_000.jpg	99
603.362	0.552	551.5	congruent	Block1	congruent/STIM_001.jpg	100
606.794	0.609	609.2	congruent	Block1	congruent/STIM_001.jpg	99
610.348	0.703	703.3	congruent	Block1	congruent/STIM_001.jpg	99
614.297	0.804	803.7	congruent	Block1	congruent/STIM_001.jpg	99
618.409	0.605	605.0	congruent	Block1	congruent/STIM_001.jpg	99
621.253	0.523	523.3	congruent	Block1	congruent/STIM_002.jpg	100
625.355	0.677	677.4	congruent	Block1	congruent/STIM_002.jpg	100
629.652	0.74	740.0	congruent	Block1	congruent/STIM_002.jpg	100
632.925	0.828	828.1	congruent	Block1	congruent/STIM_002.jpg	99
636.95	0.618	618.2	congruent	Block1	congruent/STIM_002.jpg	100
640.15	0.56	559.9	congruent	Block1	congruent/STIM_003.jpg	100
643.126	0.779	778.8	congruent	Block1	congruent/STIM_003.jpg	99
647.847	0.62	619.8	congruent	Block1	congruent/STIM_003.jpg	100
650.502	0.765	765.3	congruent	Block1	congruent/STIM_003.jpg	100
654.561	0.79	790.0	congruent	Block1	congruent/STIM_003.jpg	99
658.111	0.785	784.6	congruent	Block1	congruent/STIM_004.jpg	100
660.961	0.738	737.6	congruent	Block1	congruent/STIM_004.jpg	99
665.436	0.737	737.2	congruent	Block1	congruent/STIM_004.jpg	99
668.999	0.564	564.4	congruent	Block1	congruent/STIM_004.jpg	100
673.258	0.708	707.7	congruent	Block1	congruent/STIM_004.jpg	100
676.974	0.695	694.6	congruent	Block1	congruent/STIM_005.jpg	100
680.326	0.538	538.1	congruent	Block1	congruent/STIM_005.jpg	100
683.093	0.81	810.4	congruent	Block1	congruent/STIM_005.jpg	99
687.027	0.741	741.3	congruent	Block1	congruent/STIM_005.jpg	100
691.567	0.801	801.3	congruent	Block1	congruent/STIM_005.jpg	100
696.157	0.728	728.2	congruent	Block1	congruent/STIM_006.jpg	100
699.511	0.754	754.0	congruent	Block1	congruent/STIM_006.jpg	99
703.134	0.734	733.7	congruent	Block1	congruent/STIM_006.jpg	100
706.287	0.493	493.0	congruent	Block1	congruent/STIM_006.jpg	99
709.576	0.492	491.9	congruent	Block1	congruent/STIM_006.jpg	100
714.011	0.734	733.8	congruent	Block1	congruent/STIM_007.jpg	100
716.937	0.768	768.3	congruent	Block1	congruent/STIM_007.jpg	100
720.023	0.843	843.0	congruent	Block1	congruent/STIM_007.jpg	100
724.824	0.726	726.4	congruent	Block1	congruent/STIM_007.jpg	99
728.743	0.761	761.0	congruent	Block1	congruent/STIM_007.jpg	100
732.054	0.663	663.0	congruent	Block1	congruent/STIM_008.jpg	100
736.187	0.742	741.5	congruent	Block1	congruent/STIM_008.jpg	100
740.556	0.695	695.3	congruent	Block1	congruent/STIM_008.jpg	99
744.16	0.656	655.9	congruent	Block1	congruent/STIM_008.jpg	99
748.5	0.566	565.9	congruent	Block1	congruent/STIM_008.jpg	99
752.974	0.553	552.8	congruent	Block1	congruent/STIM_009.jpg	99
756.045	0.655	654.8	congruent	Block1	congruent/STIM_009.jpg	99
760.474	0.602	602.2	congruent	Block1	congruent/STIM_009.jpg	99
763.841	0.604	603.8	congruent	Block1	congruent/STIM_009.jpg	100
768.036	0.492	492.0	congruent	Block1	congruent/STIM_009.jpg	100
771.33	0.741	740.9	congruent	Block1	congruent/STIM_010.jpg	100
775.538	0.814	813.7	congruent	Block1	congruent/STIM_010.jpg	100
779.707	0.83	830.5	congruent	Block1	congruent/STIM_010.jpg	100
783.584	0.611	611.1	congruent	Block1	congruent/STIM_010.jpg	100
787.974	0.556	555.7	congruent	Block1	congruent/STIM_010.jpg	99
791.899	0.634	634.4	congruent	Block1	congruent/STIM_011.jpg	100
795.851	0.797	797.0	congruent	Block1	congruent/STIM_011.jpg	100
799.989	0.616	616.1	congruent	Block1	congruent/STIM_011.jpg	100
803.017	0.827	826.8	congruent	Block1	congruent/STIM_011.jpg	99
806.618	0.845	845.4	congruent	Block1	congruent/STIM_011.jpg	100
810.667	0.488	488.2	congruent	Block1	congruent/STIM_012.jpg	99
814.879	0.738	738.0	congruent	Block1	congruent/STIM_012.jpg	99
819.419	0.575	574.9	congruent	Block1	congruent/STIM_012.jpg	99
822.734	0.642	641.8	congruent	Block1	congruent/STIM_012.jpg	100
825.797	0.734	733.6	congruent	Block1	congruent/STIM_012.jpg	99
828.79	0.661	661.3	congruent	Block1	congruent/STIM_013.jpg	99
831.56	0.838	838.4	congruent	Block1	congruent/STIM_013.jpg	100
835.335	0.495	495.1	congruent	Block1	congruent/STIM_013.jpg	99
839.494	0.723	722.6	congruent	Block1	congruent/STIM_013.jpg	99
843.567	0.806	805.9	congruent	Block1	congruent/STIM_013.jpg	100
847.645	0.563	563.0	congruent	Block1	congruent/STIM_014.jpg	100
850.539	0.734	733.5	congruent	Block1	congruent/STIM_014.jpg	100
855.171	0.683	683.2	congruent	Block1	congruent/STIM_014.jpg	100
858.061	0.649	649.4	congruent	Block1	congruent/STIM_014.jpg	100
862.604	0.561	561.3	congruent	Block1	congruent/STIM_014.jpg	99
865.542	0.691	690.6	congruent	Block1	congruent/STIM_015.jpg	99
870.057	0.522	521.7	congruent	Block1	congruent/STIM_015.jpg	100
872.654	0.63	630.4	congruent	Block1	congruent/STIM_015.jpg	99
876.302	0.745	745.2	congruent	Block1	congruent/STIM_015.jpg	100
879.753	0.714	714.5	congruent	Block1	congruent/STIM_015.jpg	99
883.481	0.785	785.3	congruent	Block1	congruent/STIM_016.jpg	100
886.594	0.522	521.6	congruent	Block1	congruent/STIM_016.jpg	100
890.601	0.561	561.1	congruent	Block1	congruent/STIM_016.jpg	99
894.291	0.845	844.8	congruent	Block1	congruent/STIM_016.jpg	100
898.64	0.767	766.6	congruent	Block1	congruent/STIM_016.jpg	99
901.793	0.813	813.2	congruent	Block1	congruent/STIM_017.jpg	100
904.828	0.595	594.8	congruent	Block1	congruent/STIM_017.jpg	99
908.961	0.541	540.9	congruent	Block1	congruent/STIM_017.jpg	99
911.605	0.576	575.9	congruent	Block1	congruent/STIM_017.jpg	100
914.969	0.497	496.7	congruent	Block1	congruent/STIM_017.jpg	100
919.163	0.488	487.8	congruent	Block1	congruent/STIM_018.jpg	100
922.699	0.689	689.2	congruent	Block1	congruent/STIM_018.jpg	100
927.192	0.661	661.4	congruent	Block1	congruent/STIM_018.jpg	100
930.994	0.55	549.9	congruent	Block1	congruent/STIM_018.jpg	100
934.493	0.475	474.6	congruent	Block1	congruent/STIM_018.jpg	100
938.131	0.74	740.1	congruent	Block1	congruent/STIM_019.jpg	100
941.247	0.638	638.3	congruent	Block1	congruent/STIM_019.jpg	99
945.234	0.528	528.2	congruent	Block1	congruent/STIM_019.jpg	99
948.566	0.799	799.0	congruent	Block1	congruent/STIM_019.jpg	100
952.013	0.732	731.5	congruent	Block1	congruent/STIM_019.jpg	100
956.701	0.648	647.9	congruent	Block1	congruent/STIM_020.jpg	100
960.827	0.747	746.7	congruent	Block1	congruent/STIM_020.jpg	100
965.003	0.822	822.5	congruent	Block1	congruent/STIM_020.jpg	100
968.646	0.543	543.0	congruent	Block1	congruent/STIM_020.jpg	99
971.469	0.533	532.7	congruent	Block1	congruent/STIM_020.jpg	99
974.578	0.605	604.9	congruent	Block1	congruent/STIM_021.jpg	100
977.921	0.655	655.0	congruent	Block1	congruent/STIM_021.jpg	100
982.143	0.823	823.4	congruent	Block1	congruent/STIM_021.jpg	99
986.514	0.544	543.6	congruent	Block1	congruent/STIM_021.jpg	100
990.297	0.808	808.4	congruent	Block1	congruent/STIM_021.jpg	99
993.301	0.548	548.2	congruent	Block1	congruent/STIM_022.jpg	99
996.548	0.544	543.7	congruent	Block1	congruent/STIM_022.jpg	99
999.789	0.649	649.4	congruent	Block1	congruent/STIM_022.jpg	100
1003.617	0.597	596.7	congruent	Block1	congruent/STIM_022.jpg	99
1006.375	0.472	472.0	congruent	Block1	congruent/STIM_022.jpg	100
1008.926	0.493	493.4	congruent	Block1	congruent/STIM_023.jpg	99
1012.477	0.743	743.4	congruent	Block1	congruent/STIM_023.jpg	100
1015.506	0.629	628.9	congruent	Block1	congruent/STIM_023.jpg	99
1018.623	0.662	662.2	congruent	Block1	congruent/STIM_023.jpg	100
1022.809	0.592	592.0	congruent	Block1	congruent/STIM_023.jpg	100
1027.063	0.579	578.8	congruent	Block1	congruent/STIM_024.jpg	99
1031.211	0.607	606.6	congruent	Block1	congruent/STIM_024.jpg	99
1035.026	0.6	599.7	congruent	Block1	congruent/STIM_024.jpg	99
1038.315	0.479	478.9	congruent	Block1	congruent/STIM_024.jpg	100
1041.704	0.635	635.4	congruent	Block1	congruent/STIM_024.jpg	100
1045.259	0.668	668.1	congruent	Block1	congruent/STIM_025.jpg	99
1049.158	0.801	801.4	congruent	Block1	congruent/STIM_025.jpg	100
1052.639	0.747	747.1	congruent	Block1	congruent/STIM_025.jpg	99
1056.069	0.692	691.6	congruent	Block1	congruent/STIM_025.jpg	99
1059.516	0.547	547.1	congruent	Block1	congruent/STIM_025.jpg	99
1063.575	0.519	518.7	congruent	Block1	congruent/STIM_026.jpg	100
1066.367	0.495	495.4	congruent	Block1	congruent/STIM_026.jpg	99
1070.728	0.738	737.7	congruent	Block1	congruent/STIM_026.jpg	99
1075.053	0.683	682.8	congruent	Block1	congruent/STIM_026.jpg	99
1078.326	0.699	698.7	congruent	Block1	congruent/STIM_026.jpg	99
1081.884	0.588	587.6	congruent	Block1	congruent/STIM_027.jpg	100
1085.633	0.514	514.3	congruent	Block1	congruent/STIM_027.jpg	99
1088.735	0.827	827.1	congruent	Block1	congruent/STIM_027.jpg	99
1092.073	0.664	663.6	congruent	Block1	congruent/STIM_027.jpg	100
1095.058	0.683	683.1	congruent	Block1	congruent/STIM_027.jpg	99
1097.837	0.56	560.2	congruent	Block1	congruent/STIM_028.jpg	99
1101.808	0.573	573.1	congruent	Block1	congruent/STIM_028.jpg	99
1106.231	0.542	541.5	congruent	Block1	congruent/STIM_028.jpg	100
1108.871	0.588	587.8	congruent	Block1	congruent/STIM_028.jpg	99
1111.811	0.484	484.0	congruent	Block1	congruent/STIM_028.jpg	100
1115.477	0.711	710.6	congruent	Block1	congruent/STIM_029.jpg	99
1118.908	0.843	842.9	congruent	Block1	congruent/STIM_029.jpg	100
1123.238	0.626	625.5	congruent	Block1	congruent/STIM_029.jpg	99
1126.732	0.615	615.1	congruent	Block1	congruent/STIM_029.jpg	99
1130.686	0.793	793.0	congruent	Block1	congruent/STIM_029.jpg	100
1134.896	1.125	1124.8	incongruent	Block2	incongruent/STIM_000.jpg	100
1139.104	0.687	687.3	incongruent	Block2	incongruent/STIM_000.jpg	100
1143.762	0.82	820.1	incongruent	Block2	incongruent/STIM_000.jpg	100
1147.972	0.572	572.0	incongruent	Block2	incongruent/STIM_000.jpg	100
1152.273	0.493	493.4	incongruent	Block2	incongruent/STIM_000.jpg	100
1155.972	1.185	1185.4	incongruent	Block2	incongruent/STIM_001.jpg	100
1160.858	0.836	836.5	incongruent	Block2	incongruent/STIM_001.jpg	99
1164.326	0.603	603.1	incongruent	Block2	incongruent/STIM_001.jpg	100
1167.254	0.936	935.6	incongruent	Block2	incongruent/STIM_001.jpg	99
1170.444	0.536	535.8	incongruent	Block2	incongruent/STIM_001.jpg	100
1174.887	0.562	561.9	incongruent	Block2	incongruent/STIM_002.jpg	100
1178.117	0.874	873.6	incongruent	Block2	incongruent/STIM_002.jpg	100
1182.86	0.621	620.7	incongruent	Block2	incongruent/STIM_002.jpg	99
1185.837	0.529	529.4	incongruent	Block2	incongruent/STIM_002.jpg	100
1189.639	0.736	736.0	incongruent	Block2	incongruent/STIM_002.jpg	100
1193.287	0.822	821.6	incongruent	Block2	incongruent/STIM_003.jpg	99
1197.58	0.544	544.1	incongruent	Block2	incongruent/STIM_003.jpg	100
1201.702	0.641	640.6	incongruent	Block2	incongruent/STIM_003.jpg	100
1206.109	0.561	561.0	incongruent	Block2	incongruent/STIM_003.jpg	100
1209.096	0.844	843.8	incongruent	Block2	incongruent/STIM_003.jpg	100
1211.987	0.886	886.3	incongruent	Block2	incongruent/STIM_004.jpg	100
1215.221	0.783	783.0	incongruent	Block2	incongruent/STIM_004.jpg	100
1218.158	0.898	897.7	incongruent	Block2	incongruent/STIM_004.jpg	100
1221.943	0.49	489.8	incongruent	Block2	incongruent/STIM_004.jpg	99
1225.949	0.78	779.9	incongruent	Block2	incongruent/STIM_004.jpg	99
1228.87	0.659	659.4	incongruent	Block2	incongruent/STIM_005.jpg	99
1232.392	0.654	654.4	incongruent	Block2	incongruent/STIM_005.jpg	100
1236.731	0.909	908.8	incongruent	Block2	incongruent/STIM_005.jpg	100
1241.11	0.859	858.7	incongruent	Block2	incongruent/STIM_005.jpg	99
1245.705	0.574	574.2	incongruent	Block2	incongruent/STIM_005.jpg	99
1248.957	1.13	1130.5	incongruent	Block2	incongruent/STIM_006.jpg	99
1253.628	0.804	803.5	incongruent	Block2	incongruent/STIM_006.jpg	100
1257.803	0.769	769.2	incongruent	Block2	incongruent/STIM_006.jpg	99
1261.39	0.947	947.3	incongruent	Block2	incongruent/STIM_006.jpg	99
1265.125	0.559	558.9	incongruent	Block2	incongruent/STIM_006.jpg	100
1267.811	0.909	909.4	incongruent	Block2	incongruent/STIM_007.jpg	99
1272.62	0.939	939.4	incongruent	Block2	incongruent/STIM_007.jpg	99
1275.65	0.755	754.7	incongruent	Block2	incongruent/STIM_007.jpg	100
1278.677	0.484	484.0	incongruent	Block2	incongruent/STIM_007.jpg	99
1282.519	0.816	815.8	incongruent	Block2	incongruent/STIM_007.jpg	100
1285.469	0.756	756.4	incongruent	Block2	incongruent/STIM_008.jpg	99
1289.115	0.574	573.7	incongruent	Block2	incongruent/STIM_008.jpg	100
1293.203	0.756	756.3	incongruent	Block2	incongruent/STIM_008.jpg	99
1297.292	0.872	871.7	incongruent	Block2	incongruent/STIM_008.jpg	99
1302.13	0.858	858.4	incongruent	Block2	incongruent/STIM_008.jpg	99
1305.413	1.041	1041.0	incongruent	Block2	incongruent/STIM_009.jpg	100
1308.764	0.662	661.7	incongruent	Block2	incongruent/STIM_009.jpg	100
1312.716	0.708	708.5	incongruent	Block2	incongruent/STIM_009.jpg	99
1317.085	0.798	797.5	incongruent	Block2	incongruent/STIM_009.jpg	100
1321.487	0.54	539.6	incongruent	Block2	incongruent/STIM_009.jpg	99
1324.042	1.021	1021.0	incongruent	Block2	incongruent/STIM_010.jpg	99
1327.169	0.74	739.8	incongruent	Block2	incongruent/STIM_010.jpg	99
1330.956	0.874	873.9	incongruent	Block2	incongruent/STIM_010.jpg	99
1334.092	0.822	822.5	incongruent	Block2	incongruent/STIM_010.jpg	99
1337.607	0.802	801.6	incongruent	Block2	incongruent/STIM_010.jpg	99
1340.914	0.712	711.7	incongruent	Block2	incongruent/STIM_011.jpg	99
1344.243	0.76	760.0	incongruent	Block2	incongruent/STIM_011.jpg	99
1348.429	0.65	650.1	incongruent	Block2	incongruent/STIM_011.jpg	99
1351.823	0.931	931.0	incongruent	Block2	incongruent/STIM_011.jpg	100
1355.324	0.888	888.1	incongruent	Block2	incongruent/STIM_011.jpg	99
1358.641	0.811	810.8	incongruent	Block2	incongruent/STIM_012.jpg	99
1361.759	0.607	607.2	incongruent	Block2	incongruent/STIM_012.jpg	99
1364.638	0.988	987.9	incongruent	Block2	incongruent/STIM_012.jpg	99
1369.416	0.757	757.0	incongruent	Block2	incongruent/STIM_012.jpg	99
1373.179	0.88	879.8	incongruent	Block2	incongruent/STIM_012.jpg	99
1376.701	0.632	631.6	incongruent	Block2	incongruent/STIM_013.jpg	100
1380.76	0.666	666.3	incongruent	Block2	incongruent/STIM_013.jpg	100
1383.614	0.89	890.4	incongruent	Block2	incongruent/STIM_013.jpg	99
1387.024	0.733	732.9	incongruent	Block2	incongruent/STIM_013.jpg	100
1391.097	0.537	537.2	incongruent	Block2	incongruent/STIM_013.jpg	100
1394.777	0.602	601.8	incongruent	Block2	incongruent/STIM_014.jpg	100
1399.233	0.735	735.1	incongruent	Block2	incongruent/STIM_014.jpg	100
1402.567	0.993	992.8	incongruent	Block2	incongruent/STIM_014.jpg	100
1407.496	0.585	584.6	incongruent	Block2	incongruent/STIM_014.jpg	99
1410.66	0.844	844.1	incongruent	Block2	incongruent/STIM_014.jpg	99
1414.101	0.641	640.8	incongruent	Block2	incongruent/STIM_015.jpg	99
1418.04	0.971	970.9	incongruent	Block2	incongruent/STIM_015.jpg	99
1421.222	0.562	562.3	incongruent	Block2	incongruent/STIM_015.jpg	100
1423.809	0.881	880.6	incongruent	Block2	incongruent/STIM_015.jpg	100
1428.252	0.825	824.6	incongruent	Block2	incongruent/STIM_015.jpg	100
1432.707	1.054	1053.5	incongruent	Block2	incongruent/STIM_016.jpg	99
1437.694	0.713	713.3	incongruent	Block2	incongruent/STIM_016.jpg	99
1442.248	0.718	717.8	incongruent	Block2	incongruent/STIM_016.jpg	99
1445.841	0.716	716.5	incongruent	Block2	incongruent/STIM_016.jpg	100
1450.32	0.88	879.7	incongruent	Block2	incongruent/STIM_016.jpg	99
1453.239	1.014	1014.5	incongruent	Block2	incongruent/STIM_017.jpg	100
1456.684	0.699	698.6	incongruent	Block2	incongruent/STIM_017.jpg	99
1460.631	0.528	528.3	incongruent	Block2	incongruent/STIM_017.jpg	99
1463.563	0.596	596.5	incongruent	Block2	incongruent/STIM_017.jpg	99
1466.386	0.554	554.1	incongruent	Block2	incongruent/STIM_017.jpg	99
1470.042	1.089	1088.9	incongruent	Block2	incongruent/STIM_018.jpg	100
1474.167	0.937	936.9	incongruent	Block2	incongruent/STIM_018.jpg	100
1478.221	0.927	927.4	incongruent	Block2	incongruent/STIM_018.jpg	100
1482.5	0.674	673.6	incongruent	Block2	incongruent/STIM_018.jpg	99
1486.227	0.57	569.9	incongruent	Block2	incongruent/STIM_018.jpg	100
1488.898	0.959	959.4	incongruent	Block2	incongruent/STIM_019.jpg	99
1493.294	0.694	693.8	incongruent	Block2	incongruent/STIM_019.jpg	99
1497.484	0.691	690.8	incongruent	Block2	incongruent/STIM_019.jpg	99
1500.773	0.926	925.8	incongruent	Block2	incongruent/STIM_019.jpg	99
1504.33	0.481	481.3	incongruent	Block2	incongruent/STIM_019.jpg	99
1507.304	0.996	995.6	incongruent	Block2	incongruent/STIM_020.jpg	99
1511.121	0.71	710.0	incongruent	Block2	incongruent/STIM_020.jpg	99
1515.661	0.607	607.4	incongruent	Block2	incongruent/STIM_020.jpg	100
1520.21	0.544	543.5	incongruent	Block2	incongruent/STIM_020.jpg	100
1522.83	0.54	539.7	incongruent	Block2	incongruent/STIM_020.jpg	99
1525.842	0.689	689.1	incongruent	Block2	incongruent/STIM_021.jpg	100
1530.483	0.612	612.1	incongruent	Block2	incongruent/STIM_021.jpg	100
1535.094	0.858	858.4	incongruent	Block2	incongruent/STIM_021.jpg	99
1537.994	0.819	818.8	incongruent	Block2	incongruent/STIM_021.jpg	99
1541.617	0.958	957.7	incongruent	Block2	incongruent/STIM_021.jpg	99
1544.733	0.917	916.6	incongruent	Block2	incongruent/STIM_022.jpg	99
1547.865	0.964	964.0	incongruent	Block2	incongruent/STIM_022.jpg	100
1550.887	0.732	732.1	incongruent	Block2	incongruent/STIM_022.jpg	99
1554.723	0.606	606.1	incongruent	Block2	incongruent/STIM_022.jpg	99
1558.887	0.702	701.8	incongruent	Block2	incongruent/STIM_022.jpg	100
1562.64	0.883	883.3	incongruent	Block2	incongruent/STIM_023.jpg	100
1567.202	0.652	652.4	incongruent	Block2	incongruent/STIM_023.jpg	100
1571.55	0.646	645.5	incongruent	Block2	incongruent/STIM_023.jpg	99
1574.538	0.862	861.8	incongruent	Block2	incongruent/STIM_023.jpg	99
1578.967	0.832	832.1	incongruent	Block2	incongruent/STIM_023.jpg	99
1582.294	1.189	1188.8	incongruent	Block2	incongruent/STIM_024.jpg	100
1586.798	0.918	917.6	incongruent	Block2	incongruent/STIM_024.jpg	99
1591.006	0.554	553.7	incongruent	Block2	incongruent/STIM_024.jpg	99
1594.644	0.711	711.0	incongruent	Block2	incongruent/STIM_024.jpg	99
1599.286	0.476	476.2	incongruent	Block2	incongruent/STIM_024.jpg	99
1601.833	1.115	1114.6	incongruent	Block2	incongruent/STIM_025.jpg	100
1605.702	0.646	645.7	incongruent	Block2	incongruent/STIM_025.jpg	100
1608.472	0.634	633.9	incongruent	Block2	incongruent/STIM_025.jpg	100
1613.053	0.479	478.9	incongruent	Block2	incongruent/STIM_025.jpg	99
1616.535	0.935	935.1	incongruent	Block2	incongruent/STIM_025.jpg	99
1620.435	0.838	838.5	incongruent	Block2	incongruent/STIM_026.jpg	99
1623.732	1.098	1097.5	incongruent	Block2	incongruent/STIM_026.jpg	100
1627.591	0.716	716.2	incongruent	Block2	incongruent/STIM_026.jpg	100
1630.906	0.497	497.4	incongruent	Block2	incongruent/STIM_026.jpg	100
1634.325	0.488	487.9	incongruent	Block2	incongruent/STIM_026.jpg	100
1638.74	0.568	568.4	incongruent	Block2	incongruent/STIM_027.jpg	99
1641.359	0.949	948.7	incongruent	Block2	incongruent/STIM_027.jpg	100
1645.138	0.504	504.5	incongruent	Block2	incongruent/STIM_027.jpg	100
1649.542	0.776	776.2	incongruent	Block2	incongruent/STIM_027.jpg	99
1654.204	0.71	710.3	incongruent	Block2	incongruent/STIM_027.jpg	99
1658.769	0.9	900.1	incongruent	Block2	incongruent/STIM_028.jpg	99
1662.473	0.854	854.4	incongruent	Block2	incongruent/STIM_028.jpg	99
1666.408	0.589	589.3	incongruent	Block2	incongruent/STIM_028.jpg	99
1669.044	0.668	667.6	incongruent	Block2	incongruent/STIM_028.jpg	100
1671.725	0.984	983.5	incongruent	Block2	incongruent/STIM_028.jpg	99
1674.856	0.85	850.0	incongruent	Block2	incongruent/STIM_029.jpg	99
1679.062	1.012	1011.6	incongruent	Block2	incongruent/STIM_029.jpg	99
1683.862	0.546	545.7	incongruent	Block2	incongruent/STIM_029.jpg	99
1686.727	0.95	949.6	incongruent	Block2	incongruent/STIM_029.jpg	100
1690.562	0.5	500.2	incongruent	Block2	incongruent/STIM_029.jpg	99
1694.987	0.774	774.5	congruent	Block2	congruent/STIM_000.jpg	99
1698.809	0.569	568.6	congruent	Block2	congruent/STIM_000.jpg	99
1701.448	0.768	768.0	congruent	Block2	congruent/STIM_000.jpg	99
1706.093	0.721	720.8	congruent	Block2	congruent/STIM_000.jpg	99
1710.743	0.7	699.8	congruent	Block2	congruent/STIM_000.jpg	100
1714.108	0.769	768.6	congruent	Block2	congruent/STIM_001.jpg	99
1716.944	0.661	660.8	congruent	Block2	congruent/STIM_001.jpg	99
1720.786	0.787	787.1	congruent	Block2	congruent/STIM_001.jpg	100
1724.268	0.677	676.7	congruent	Block2	congruent/STIM_001.jpg	100
1727.184	0.628	628.2	congruent	Block2	congruent/STIM_001.jpg	99
1730.503	0.754	754.5	congruent	Block2	congruent/STIM_002.jpg	100
1733.261	0.83	829.7	congruent	Block2	congruent/STIM_002.jpg	100
1736.396	0.493	492.6	congruent	Block2	congruent/STIM_002.jpg	99
1740.465	0.843	842.6	congruent	Block2	congruent/STIM_002.jpg	100
1744.841	0.822	821.9	congruent	Block2	congruent/STIM_002.jpg	99
1748.856	0.751	750.7	congruent	Block2	congruent/STIM_003.jpg	99
1753.485	0.52	520.3	congruent	Block2	congruent/STIM_003.jpg	100
1757.206	0.578	578.2	congruent	Block2	congruent/STIM_003.jpg	99
1760.659	0.758	758.4	congruent	Block2	congruent/STIM_003.jpg	99
1765.002	0.527	526.7	congruent	Block2	congruent/STIM_003.jpg	100
1768.867	0.51	510.4	congruent	Block2	congruent/STIM_004.jpg	100
1771.921	0.504	503.8	congruent	Block2	congruent/STIM_004.jpg	99
1775.886	0.719	719.3	congruent	Block2	congruent/STIM_004.jpg	99
1779.603	0.631	631.2	congruent	Block2	congruent/STIM_004.jpg	99
1784.019	0.794	793.8	congruent	Block2	congruent/STIM_004.jpg	99
1787.477	0.816	816.5	congruent	Block2	congruent/STIM_005.jpg	100
1792.113	0.729	729.0	congruent	Block2	congruent/STIM_005.jpg	99
1795.949	0.842	842.5	congruent	Block2	congruent/STIM_005.jpg	100
1799.635	0.604	603.9	congruent	Block2	congruent/STIM_005.jpg	99
1803.451	0.531	531.2	congruent	Block2	congruent/STIM_005.jpg	100
1807.793	0.715	715.0	congruent	Block2	congruent/STIM_006.jpg	99
1812.499	0.741	740.9	congruent	Block2	congruent/STIM_006.jpg	100
1816.915	0.796	795.7	congruent	Block2	congruent/STIM_006.jpg	100
1819.851	0.583	582.8	congruent	Block2	congruent/STIM_006.jpg	99
1823.388	0.65	650.1	congruent	Block2	congruent/STIM_006.jpg	99
1828.015	0.574	574.2	congruent	Block2	congruent/STIM_007.jpg	99
1832.268	0.52	520.1	congruent	Block2	congruent/STIM_007.jpg	99
1835.269	0.77	770.1	congruent	Block2	congruent/STIM_007.jpg	99
1838.609	0.672	672.0	congruent	Block2	congruent/STIM_007.jpg	99
1841.614	0.594	594.2	congruent	Block2	congruent/STIM_007.jpg	99
1844.371	0.799	799.4	congruent	Block2	congruent/STIM_008.jpg	100
1848.852	0.6	599.8	congruent	Block2	congruent/STIM_008.jpg	99
1852.186	0.568	567.9	congruent	Block2	congruent/STIM_008.jpg	99
1854.936	0.717	717.0	congruent	Block2	congruent/STIM_008.jpg	100
1859.217	0.762	762.5	congruent	Block2	congruent/STIM_008.jpg	99
1863.75	0.804	804.1	congruent	Block2	congruent/STIM_009.jpg	99
1866.587	0.532	532.3	congruent	Block2	congruent/STIM_009.jpg	99
1870.184	0.69	689.5	congruent	Block2	congruent/STIM_009.jpg	100
1872.955	0.648	648.5	congruent	Block2	congruent/STIM_009.jpg	99
1876.083	0.815	814.6	congruent	Block2	congruent/STIM_009.jpg	99
1879.051	0.63	630.4	congruent	Block2	congruent/STIM_010.jpg	100
1882.843	0.547	547.0	congruent	Block2	congruent/STIM_010.jpg	100
1886.645	0.727	727.1	congruent	Block2	congruent/STIM_010.jpg	100
1891.022	0.805	805.4	congruent	Block2	congruent/STIM_010.jpg	99
1895.715	0.585	584.9	congruent	Block2	congruent/STIM_010.jpg	100
1898.983	0.705	705.0	congruent	Block2	congruent/STIM_011.jpg	100
1902.691	0.766	765.6	congruent	Block2	congruent/STIM_011.jpg	100
1907.093	0.704	704.1	congruent	Block2	congruent/STIM_011.jpg	100
1911.151	0.514	513.5	congruent	Block2	congruent/STIM_011.jpg	99
1914.028	0.626	625.6	congruent	Block2	congruent/STIM_011.jpg	99
1917.09	0.574	574.4	congruent	Block2	congruent/STIM_012.jpg	100
1920.594	0.699	699.4	congruent	Block2	congruent/STIM_012.jpg	99
1924.571	0.515	515.1	congruent	Block2	congruent/STIM_012.jpg	100
1928.78	0.478	478.4	congruent	Block2	congruent/STIM_012.jpg	100
1933.048	0.819	819.1	congruent	Block2	congruent/STIM_012.jpg	100
1936.919	0.538	538.0	congruent	Block2	congruent/STIM_013.jpg	100
1941.17	0.73	730.4	congruent	Block2	congruent/STIM_013.jpg	99
1944.019	0.822	821.5	congruent	Block2	congruent/STIM_013.jpg	99
1946.871	0.822	822.4	congruent	Block2	congruent/STIM_013.jpg	99
1951.052	0.513	512.9	congruent	Block2	congruent/STIM_013.jpg	99
1955.549	0.79	789.6	congruent	Block2	congruent/STIM_014.jpg	100
1959.976	0.553	552.8	congruent	Block2	congruent/STIM_014.jpg	100
1963.12	0.535	535.3	congruent	Block2	congruent/STIM_014.jpg	100
1965.768	0.792	791.9	congruent	Block2	congruent/STIM_014.jpg	99
1968.835	0.65	649.8	congruent	Block2	congruent/STIM_014.jpg	100
1973.102	0.805	805.4	congruent	Block2	congruent/STIM_015.jpg	99
1976.329	0.599	598.8	congruent	Block2	congruent/STIM_015.jpg	99
1979.137	0.707	707.4	congruent	Block2	congruent/STIM_015.jpg	100
1982.254	0.642	641.7	congruent	Block2	congruent/STIM_015.jpg	99
1985.878	0.575	575.1	congruent	Block2	congruent/STIM_015.jpg	99
1989.544	0.804	803.7	congruent	Block2	congruent/STIM_016.jpg	100
1994.298	0.641	640.9	congruent	Block2	congruent/STIM_016.jpg	99
1997.144	0.695	695.1	congruent	Block2	congruent/STIM_016.jpg	99
2001.21	0.745	745.2	congruent	Block2	congruent/STIM_016.jpg	100
2005.698	0.77	770.4	congruent	Block2	congruent/STIM_016.jpg	100
2010.023	0.612	611.5	congruent	Block2	congruent/STIM_017.jpg	99
2012.65	0.57	570.2	congruent	Block2	congruent/STIM_017.jpg	99
2016.903	0.484	484.4	congruent	Block2	congruent/STIM_017.jpg	100
2019.952	0.571	571.1	congruent	Block2	congruent/STIM_017.jpg	99
2023.539	0.832	831.8	congruent	Block2	congruent/STIM_017.jpg	100
2027.428	0.831	831.3	congruent	Block2	congruent/STIM_018.jpg	100
2030.899	0.478	478.0	congruent	Block2	congruent/STIM_018.jpg	99
2034.836	0.765	764.7	congruent	Block2	congruent/STIM_018.jpg	99
2038.836	0.769	769.3	congruent	Block2	congruent/STIM_018.jpg	99
2041.769	0.661	660.9	congruent	Block2	congruent/STIM_018.jpg	100
2046.035	0.632	632.0	congruent	Block2	congruent/STIM_019.jpg	100
2049.543	0.668	668.0	congruent	Block2	congruent/STIM_019.jpg	100
2053.218	0.537	537.3	congruent	Block2	congruent/STIM_019.jpg	99
2056.316	0.74	740.5	congruent	Block2	congruent/STIM_019.jpg	99
2060.674	0.621	620.8	congruent	Block2	congruent/STIM_019.jpg	100
2064.411	0.551	550.9	congruent	Block2	congruent/STIM_020.jpg	100
2068.232	0.53	529.8	congruent	Block2	congruent/STIM_020.jpg	99
2071.065	0.832	831.5	congruent	Block2	congruent/STIM_020.jpg	100
2074.886	0.56	560.1	congruent	Block2	congruent/STIM_020.jpg	99
2078.722	0.62	620.1	congruent	Block2	congruent/STIM_020.jpg	99
2082.49	0.703	703.0	congruent	Block2	congruent/STIM_021.jpg	99
2085.873	0.726	726.2	congruent	Block2	congruent/STIM_021.jpg	99
2089.994	0.535	534.6	congruent	Block2	congruent/STIM_021.jpg	99
2093.43	0.765	765.3	congruent	Block2	congruent/STIM_021.jpg	99
2097.577	0.511	511.1	congruent	Block2	congruent/STIM_021.jpg	100
2101.256	0.753	753.3	congruent	Block2	congruent/STIM_022.jpg	100
2104.918	0.618	618.1	congruent	Block2	congruent/STIM_022.jpg	99
2109.165	0.79	790.1	congruent	Block2	congruent/STIM_022.jpg	99
2113.024	0.595	595.4	congruent	Block2	congruent/STIM_022.jpg	100
2117.319	0.574	574.2	congruent	Block2	congruent/STIM_022.jpg	99
2120.477	0.723	723.3	congruent	Block2	congruent/STIM_023.jpg	100
2123.934	0.686	686.5	congruent	Block2	congruent/STIM_023.jpg	100
2128.371	0.585	585.0	congruent	Block2	congruent/STIM_023.jpg	99
2131.074	0.795	795.3	congruent	Block2	congruent/STIM_023.jpg	99
2135.797	0.546	546.0	congruent	Block2	congruent/STIM_023.jpg	100
2138.655	0.8	800.3	congruent	Block2	congruent/STIM_024.jpg	99
2142.798	0.802	802.1	congruent	Block2	congruent/STIM_024.jpg	100
2146.046	0.499	498.8	congruent	Block2	congruent/STIM_024.jpg	100
2149.522	0.52	520.2	congruent	Block2	congruent/STIM_024.jpg	100
2153.304	0.53	529.9	congruent	Block2	congruent/STIM_024.jpg	99
2156.565	0.482	481.9	congruent	Block2	congruent/STIM_025.jpg	99
2160.547	0.645	644.7	congruent	Block2	congruent/STIM_025.jpg	100
2164.025	0.716	715.9	congruent	Block2	congruent/STIM_025.jpg	99
2167.871	0.498	498.1	congruent	Block2	congruent/STIM_025.jpg	99
2170.811	0.583	583.3	congruent	Block2	congruent/STIM_025.jpg	100
2174.515	0.48	479.9	congruent	Block2	congruent/STIM_026.jpg	100
2177.15	0.481	481.4	congruent	Block2	congruent/STIM_026.jpg	99
2181.199	0.635	635.4	congruent	Block2	congruent/STIM_026.jpg	99
2183.988	0.51	510.3	congruent	Block2	congruent/STIM_026.jpg	99
2187.51	0.666	665.6	congruent	Block2	congruent/STIM_026.jpg	100
2190.722	0.642	642.1	congruent	Block2	congruent/STIM_027.jpg	99
2195.083	0.613	613.4	congruent	Block2	congruent/STIM_027.jpg	99
2199.298	0.682	682.2	congruent	Block2	congruent/STIM_027.jpg	99
2202.368	0.506	505.6	congruent	Block2	congruent/STIM_027.jpg	99
2206.522	0.514	514.0	congruent	Block2	congruent/STIM_027.jpg	99
2209.555	0.524	523.8	congruent	Block2	congruent/STIM_028.jpg	99
2213.332	0.702	702.0	congruent	Block2	congruent/STIM_028.jpg	100
2217.082	0.674	673.6	congruent	Block2	congruent/STIM_028.jpg	100
2220.819	0.844	844.0	congruent	Block2	congruent/STIM_028.jpg	99
2223.848	0.787	786.7	congruent	Block2	congruent/STIM_028.jpg	100
2228.16	0.581	580.7	congruent	Block2	congruent/STIM_029.jpg	100
2232.358	0.641	641.3	congruent	Block2	congruent/STIM_029.jpg	99
2236.33	0.476	476.1	congruent	Block2	congruent/STIM_029.jpg	100
2239.456	0.798	798.4	congruent	Block2	congruent/STIM_029.jpg	100
2242.393	0.747	746.9	congruent	Block2	congruent/STIM_029.jpg	99
2246.094	0.673	673.3	incongruent	Block3	incongruent/STIM_000.jpg	99
2249.437	0.883	883.3	incongruent	Block3	incongruent/STIM_000.jpg	100
2252.383	0.765	764.7	incongruent	Block3	incongruent/STIM_000.jpg	100
2255.88	0.704	703.5	incongruent	Block3	incongruent/STIM_000.jpg	99
2260.37	0.901	901.0	incongruent	Block3	incongruent/STIM_000.jpg	99
2264.649	0.645	644.9	incongruent	Block3	incongruent/STIM_001.jpg	99
2268.172	0.724	724.0	incongruent	Block3	incongruent/STIM_001.jpg	99
2271.119	0.766	766.5	incongruent	Block3	incongruent/STIM_001.jpg	100
2275.799	0.946	946.4	incongruent	Block3	incongruent/STIM_001.jpg	100
2278.89	0.924	923.7	incongruent	Block3	incongruent/STIM_001.jpg	99
2282.623	0.908	908.5	incongruent	Block3	incongruent/STIM_002.jpg	100
2285.779	0.641	640.8	incongruent	Block3	incongruent/STIM_002.jpg	100
2289.159	0.665	665.0	incongruent	Block3	incongruent/STIM_002.jpg	100
2292.216	0.552	552.1	incongruent	Block3	incongruent/STIM_002.jpg	99
2296.507	0.903	902.7	incongruent	Block3	incongruent/STIM_002.jpg	99
2299.889	0.751	750.7	incongruent	Block3	incongruent/STIM_003.jpg	99
2302.747	0.651	650.9	incongruent	Block3	incongruent/STIM_003.jpg	99
2306.519	0.775	774.8	incongruent	Block3	incongruent/STIM_003.jpg	100
2310.647	0.894	893.6	incongruent	Block3	incongruent/STIM_003.jpg	99
2314.337	0.97	970.5	incongruent	Block3	incongruent/STIM_003.jpg	100
2318.305	0.535	535.2	incongruent	Block3	incongruent/STIM_004.jpg	99
2321.0	0.55	550.2	incongruent	Block3	incongruent/STIM_004.jpg	99
2323.67	0.867	867.1	incongruent	Block3	incongruent/STIM_004.jpg	99
2327.035	0.637	637.3	incongruent	Block3	incongruent/STIM_004.jpg	99
2330.418	0.795	795.0	incongruent	Block3	incongruent/STIM_004.jpg	100
2334.607	0.675	674.9	incongruent	Block3	incongruent/STIM_005.jpg	100
2337.803	0.497	497.0	incongruent	Block3	incongruent/STIM_005.jpg	100
2340.327	0.915	914.9	incongruent	Block3	incongruent/STIM_005.jpg	100
2344.141	0.743	742.7	incongruent	Block3	incongruent/STIM_005.jpg	99
2348.641	0.704	703.6	incongruent	Block3	incongruent/STIM_005.jpg	99
2352.701	0.576	575.7	incongruent	Block3	incongruent/STIM_006.jpg	99
2355.973	0.987	986.6	incongruent	Block3	incongruent/STIM_006.jpg	99
2360.23	0.925	925.4	incongruent	Block3	incongruent/STIM_006.jpg	100
2363.879	0.741	741.2	incongruent	Block3	incongruent/STIM_006.jpg	99
2366.683	0.548	548.0	incongruent	Block3	incongruent/STIM_006.jpg	99
2370.854	0.702	701.8	incongruent	Block3	incongruent/STIM_007.jpg	99
2374.215	0.96	959.7	incongruent	Block3	incongruent/STIM_007.jpg	99
2377.691	0.91	909.6	incongruent	Block3	incongruent/STIM_007.jpg	100
2381.134	0.677	677.1	incongruent	Block3	incongruent/STIM_007.jpg	100
2384.526	0.919	919.1	incongruent	Block3	incongruent/STIM_007.jpg	99
2389.295	0.532	531.8	incongruent	Block3	incongruent/STIM_008.jpg	99
2393.583	0.762	761.9	incongruent	Block3	incongruent/STIM_008.jpg	100
2396.667	0.676	676.0	incongruent	Block3	incongruent/STIM_008.jpg	99
2399.966	0.536	535.5	incongruent	Block3	incongruent/STIM_008.jpg	100
2403.515	0.473	473.4	incongruent	Block3	incongruent/STIM_008.jpg	100
2407.52	0.757	757.3	incongruent	Block3	incongruent/STIM_009.jpg	100
2411.805	0.835	834.7	incongruent	Block3	incongruent/STIM_009.jpg	100
2414.922	0.821	821.2	incongruent	Block3	incongruent/STIM_009.jpg	99
2418.404	0.917	916.7	incongruent	Block3	incongruent/STIM_009.jpg	100
2423.141	0.542	541.6	incongruent	Block3	incongruent/STIM_009.jpg	99
2426.241	0.912	912.0	incongruent	Block3	incongruent/STIM_010.jpg	100
2430.754	0.572	571.8	incongruent	Block3	incongruent/STIM_010.jpg	100
2433.757	0.548	548.2	incongruent	Block3	incongruent/STIM_010.jpg	99
2437.942	0.755	754.9	incongruent	Block3	incongruent/STIM_010.jpg	99
2441.076	0.894	894.0	incongruent	Block3	incongruent/STIM_010.jpg	100
2445.252	0.945	945.4	incongruent	Block3	incongruent/STIM_011.jpg	100
2449.602	0.741	741.2	incongruent	Block3	incongruent/STIM_011.jpg	100
2453.14	0.772	772.2	incongruent	Block3	incongruent/STIM_011.jpg	100
2456.385	0.674	674.2	incongruent	Block3	incongruent/STIM_011.jpg	99
2459.92	0.978	977.8	incongruent	Block3	incongruent/STIM_011.jpg	99
2464.159	0.729	728.7	incongruent	Block3	incongruent/STIM_012.jpg	100
2467.712	0.854	854.5	incongruent	Block3	incongruent/STIM_012.jpg	100
2470.573	0.569	569.1	incongruent	Block3	incongruent/STIM_012.jpg	100
2474.527	0.875	875.0	incongruent	Block3	incongruent/STIM_012.jpg	100
2479.037	0.587	587.4	incongruent	Block3	incongruent/STIM_012.jpg	100
2483.52	0.759	758.8	incongruent	Block3	incongruent/STIM_013.jpg	99
2487.405	0.78	780.0	incongruent	Block3	incongruent/STIM_013.jpg	100
2492.134	0.932	932.5	incongruent	Block3	incongruent/STIM_013.jpg	100
2495.465	0.482	482.5	incongruent	Block3	incongruent/STIM_013.jpg	99
2499.239	0.634	633.9	incongruent	Block3	incongruent/STIM_013.jpg	99
2502.58	0.501	501.5	incongruent	Block3	incongruent/STIM_014.jpg	99
2506.554	0.505	505.4	incongruent	Block3	incongruent/STIM_014.jpg	99
2510.281	0.799	799.2	incongruent	Block3	incongruent/STIM_014.jpg	100
2514.794	0.968	968.0	incongruent	Block3	incongruent/STIM_014.jpg	100
2519.17	0.973	973.2	incongruent	Block3	incongruent/STIM_014.jpg	99
2523.249	0.927	927.2	incongruent	Block3	incongruent/STIM_015.jpg	99
2527.319	0.498	498.5	incongruent	Block3	incongruent/STIM_015.jpg	100
2529.967	0.862	861.6	incongruent	Block3	incongruent/STIM_015.jpg	99
2533.833	0.944	943.9	incongruent	Block3	incongruent/STIM_015.jpg	99
2537.164	0.472	471.5	incongruent	Block3	incongruent/STIM_015.jpg	100
2540.99	0.55	549.5	incongruent	Block3	incongruent/STIM_016.jpg	100
2543.696	0.887	887.1	incongruent	Block3	incongruent/STIM_016.jpg	100
2547.489	0.517	517.1	incongruent	Block3	incongruent/STIM_016.jpg	100
2550.638	0.736	735.8	incongruent	Block3	incongruent/STIM_016.jpg	100
2554.255	0.811	810.8	incongruent	Block3	incongruent/STIM_016.jpg	100
2557.303	0.548	548.1	incongruent	Block3	incongruent/STIM_017.jpg	100
2560.095	0.638	638.3	incongruent	Block3	incongruent/STIM_017.jpg	100
2563.045	0.538	538.5	incongruent	Block3	incongruent/STIM_017.jpg	100
2565.74	0.973	972.9	incongruent	Block3	incongruent/STIM_017.jpg	100
2569.029	0.824	823.8	incongruent	Block3	incongruent/STIM_017.jpg	99
2573.77	0.552	551.9	incongruent	Block3	incongruent/STIM_018.jpg	100
2578.027	0.573	572.7	incongruent	Block3	incongruent/STIM_018.jpg	99
2580.683	0.828	827.7	incongruent	Block3	incongruent/STIM_018.jpg	100
2584.798	0.482	482.4	incongruent	Block3	incongruent/STIM_018.jpg	99
2588.507	0.555	555.0	incongruent	Block3	incongruent/STIM_018.jpg	99
2592.398	0.68	680.0	incongruent	Block3	incongruent/STIM_019.jpg	99
2595.632	0.71	710.0	incongruent	Block3	incongruent/STIM_019.jpg	100
2599.812	0.776	775.7	incongruent	Block3	incongruent/STIM_019.jpg	99
2604.009	0.672	672.1	incongruent	Block3	incongruent/STIM_019.jpg	100
2607.745	0.979	979.0	incongruent	Block3	incongruent/STIM_019.jpg	100
2612.052	0.847	847.2	incongruent	Block3	incongruent/STIM_020.jpg	100
2616.304	0.51	510.4	incongruent	Block3	incongruent/STIM_020.jpg	100
2620.675	0.683	682.7	incongruent	Block3	incongruent/STIM_020.jpg	99
2624.308	0.652	651.8	incongruent	Block3	incongruent/STIM_020.jpg	100
2627.939	0.645	644.8	incongruent	Block3	incongruent/STIM_020.jpg	100
2631.174	0.785	785.0	incongruent	Block3	incongruent/STIM_021.jpg	99
2635.215	0.626	625.7	incongruent	Block3	incongruent/STIM_021.jpg	100
2637.91	0.741	740.9	incongruent	Block3	incongruent/STIM_021.jpg	100
2640.795	0.718	718.5	incongruent	Block3	incongruent/STIM_021.jpg	100
2645.439	0.921	921.3	incongruent	Block3	incongruent/STIM_021.jpg	100
2649.29	0.97	970.0	incongruent	Block3	incongruent/STIM_022.jpg	99
2653.865	0.831	831.4	incongruent	Block3	incongruent/STIM_022.jpg	99
2657.272	0.682	682.4	incongruent	Block3	incongruent/STIM_022.jpg	99
2660.828	0.758	758.1	incongruent	Block3	incongruent/STIM_022.jpg	100
2665.033	0.74	740.0	incongruent	Block3	incongruent/STIM_022.jpg	99
2667.956	0.759	759.4	incongruent	Block3	incongruent/STIM_023.jpg	100
2671.188	0.642	642.1	incongruent	Block3	incongruent/STIM_023.jpg	99
2674.847	0.464	463.9	incongruent	Block3	incongruent/STIM_023.jpg	100
2677.994	0.514	514.5	incongruent	Block3	incongruent/STIM_023.jpg	100
2680.672	0.758	758.3	incongruent	Block3	incongruent/STIM_023.jpg	99
2683.599	0.47	470.5	incongruent	Block3	incongruent/STIM_024.jpg	100
2686.737	0.87	870.2	incongruent	Block3	incongruent/STIM_024.jpg	100
2690.804	0.671	671.3	incongruent	Block3	incongruent/STIM_024.jpg	100
2694.161	0.632	631.9	incongruent	Block3	incongruent/STIM_024.jpg	99
2697.85	0.818	817.8	incongruent	Block3	incongruent/STIM_024.jpg	99
2701.39	0.556	555.7	incongruent	Block3	incongruent/STIM_025.jpg	99
2704.614	0.496	496.1	incongruent	Block3	incongruent/STIM_025.jpg	100
2708.146	0.915	914.7	incongruent	Block3	incongruent/STIM_025.jpg	100
2712.358	0.52	520.1	incongruent	Block3	incongruent/STIM_025.jpg	99
2715.154	0.782	782.5	incongruent	Block3	incongruent/STIM_025.jpg	99
2717.95	0.538	538.3	incongruent	Block3	incongruent/STIM_026.jpg	99
2721.508	0.926	925.9	incongruent	Block3	incongruent/STIM_026.jpg	100
2724.956	0.665	665.4	incongruent	Block3	incongruent/STIM_026.jpg	99
2727.938	0.916	916.2	incongruent	Block3	incongruent/STIM_026.jpg	100
2732.802	0.678	678.5	incongruent	Block3	incongruent/STIM_026.jpg	99
2735.888	0.756	756.3	incongruent	Block3	incongruent/STIM_027.jpg	99
2740.592	0.559	558.7	incongruent	Block3	incongruent/STIM_027.jpg	99
2744.653	0.608	608.1	incongruent	Block3	incongruent/STIM_027.jpg	100
2747.876	0.486	486.5	incongruent	Block3	incongruent/STIM_027.jpg	100
2751.507	0.461	460.7	incongruent	Block3	incongruent/STIM_027.jpg	100
2754.28	0.551	550.9	incongruent	Block3	incongruent/STIM_028.jpg	99
2757.017	0.646	646.5	incongruent	Block3	incongruent/STIM_028.jpg	99
2760.274	0.533	532.9	incongruent	Block3	incongruent/STIM_028.jpg	100
2764.747	0.469	469.0	incongruent	Block3	incongruent/STIM_028.jpg	99
2768.237	0.784	783.8	incongruent	Block3	incongruent/STIM_028.jpg	99
2772.284	0.741	740.7	incongruent	Block3	incongruent/STIM_029.jpg	99
2776.344	0.937	937.2	incongruent	Block3	incongruent/STIM_029.jpg	99
2780.167	0.477	477.4	incongruent	Block3	incongruent/STIM_029.jpg	100
2782.985	0.735	735.1	incongruent	Block3	incongruent/STIM_029.jpg	99
2786.356	0.951	950.6	incongruent	Block3	incongruent/STIM_029.jpg	99
2789.467	0.508	508.4	congruent	Block3	congruent/STIM_000.jpg	99
2792.005	0.561	561.1	congruent	Block3	congruent/STIM_000.jpg	99
2795.747	0.708	707.8	congruent	Block3	congruent/STIM_000.jpg	99
2798.576	0.622	622.4	congruent	Block3	congruent/STIM_000.jpg	100
2802.613	0.732	731.7	congruent	Block3	congruent/STIM_000.jpg	100
2806.779	0.778	777.5	congruent	Block3	congruent/STIM_001.jpg	99
2809.864	0.546	546.4	congruent	Block3	congruent/STIM_001.jpg	99
2813.886	0.786	785.7	congruent	Block3	congruent/STIM_001.jpg	100
2817.32	0.816	816.1	congruent	Block3	congruent/STIM_001.jpg	99
2822.075	0.553	553.2	congruent	Block3	congruent/STIM_001.jpg	100
2824.682	0.814	813.6	congruent	Block3	congruent/STIM_002.jpg	100
2828.104	0.589	588.8	congruent	Block3	congruent/STIM_002.jpg	100
2832.448	0.495	495.3	congruent	Block3	congruent/STIM_002.jpg	99
2835.294	0.643	643.3	congruent	Block3	congruent/STIM_002.jpg	99
2839.252	0.539	539.0	congruent	Block3	congruent/STIM_002.jpg	99
2843.565	0.682	682.3	congruent	Block3	congruent/STIM_003.jpg	99
2847.733	0.652	652.0	congruent	Block3	congruent/STIM_003.jpg	100
2852.248	0.528	527.6	congruent	Block3	congruent/STIM_003.jpg	99
2855.201	0.682	682.4	congruent	Block3	congruent/STIM_003.jpg	100
2858.389	0.673	672.9	congruent	Block3	congruent/STIM_003.jpg	100
2862.112	0.711	711.2	congruent	Block3	congruent/STIM_004.jpg	99
2866.124	0.658	657.8	congruent	Block3	congruent/STIM_004.jpg	100
2869.691	0.77	770.5	congruent	Block3	congruent/STIM_004.jpg	100
2873.67	0.614	613.7	congruent	Block3	congruent/STIM_004.jpg	99
2878.173	0.615	615.2	congruent	Block3	congruent/STIM_004.jpg	99
2882.281	0.823	822.8	congruent	Block3	congruent/STIM_005.jpg	100
2886.107	0.682	682.2	congruent	Block3	congruent/STIM_005.jpg	99
2890.236	0.663	663.2	congruent	Block3	congruent/STIM_005.jpg	99
2894.24	0.706	705.8	congruent	Block3	congruent/STIM_005.jpg	99
2897.092	0.748	748.3	congruent	Block3	congruent/STIM_005.jpg	100
2899.842	0.538	538.4	congruent	Block3	congruent/STIM_006.jpg	99
2903.319	0.738	738.4	congruent	Block3	congruent/STIM_006.jpg	100
2907.771	0.612	612.3	congruent	Block3	congruent/STIM_006.jpg	99
2911.529	0.771	771.2	congruent	Block3	congruent/STIM_006.jpg	99
2914.822	0.581	581.4	congruent	Block3	congruent/STIM_006.jpg	99
2918.135	0.701	700.7	congruent	Block3	congruent/STIM_007.jpg	99
2921.469	0.478	477.7	congruent	Block3	congruent/STIM_007.jpg	100
2924.545	0.818	817.8	congruent	Block3	congruent/STIM_007.jpg	99
2929.045	0.747	747.1	congruent	Block3	congruent/STIM_007.jpg	100
2932.532	0.731	730.6	congruent	Block3	congruent/STIM_007.jpg	100
2935.888	0.596	595.9	congruent	Block3	congruent/STIM_008.jpg	99
2939.911	0.547	547.3	congruent	Block3	congruent/STIM_008.jpg	100
2942.628	0.819	819.0	congruent	Block3	congruent/STIM_008.jpg	99
2946.346	0.8	800.0	congruent	Block3	congruent/STIM_008.jpg	100
2949.403	0.637	636.8	congruent	Block3	congruent/STIM_008.jpg	100
2952.262	0.584	583.6	congruent	Block3	congruent/STIM_009.jpg	99
2955.122	0.694	694.1	congruent	Block3	congruent/STIM_009.jpg	99
2958.405	0.606	605.5	congruent	Block3	congruent/STIM_009.jpg	100
2961.488	0.546	545.7	congruent	Block3	congruent/STIM_009.jpg	99
2964.802	0.479	479.3	congruent	Block3	congruent/STIM_009.jpg	99
2968.011	0.579	579.2	congruent	Block3	congruent/STIM_010.jpg	100
2971.151	0.724	724.5	congruent	Block3	congruent/STIM_010.jpg	100
2973.976	0.777	776.8	congruent	Block3	congruent/STIM_010.jpg	100
2978.502	0.69	689.8	congruent	Block3	congruent/STIM_010.jpg	99
2982.636	0.655	655.1	congruent	Block3	congruent/STIM_010.jpg	100
2985.393	0.482	481.7	congruent	Block3	congruent/STIM_011.jpg	99
2989.27	0.516	516.2	congruent	Block3	congruent/STIM_011.jpg	99
2993.163	0.584	583.6	congruent	Block3	congruent/STIM_011.jpg	100
2996.624	0.575	575.0	congruent	Block3	congruent/STIM_011.jpg	100
2999.953	0.812	811.9	congruent	Block3	congruent/STIM_011.jpg	100
3003.681	0.729	729.4	congruent	Block3	congruent/STIM_012.jpg	100
3007.188	0.546	546.4	congruent	Block3	congruent/STIM_012.jpg	100
3010.79	0.581	581.1	congruent	Block3	congruent/STIM_012.jpg	100
3013.764	0.669	668.9	congruent	Block3	congruent/STIM_012.jpg	99
3018.027	0.616	616.5	congruent	Block3	congruent/STIM_012.jpg	99
3022.601	0.482	482.1	congruent	Block3	congruent/STIM_013.jpg	99
3026.386	0.761	761.1	congruent	Block3	congruent/STIM_013.jpg	99
3029.692	0.494	494.4	congruent	Block3	congruent/STIM_013.jpg	100
3032.94	0.62	620.1	congruent	Block3	congruent/STIM_013.jpg	100
3035.912	0.821	820.8	congruent	Block3	congruent/STIM_013.jpg	99
3038.969	0.816	816.5	congruent	Block3	congruent/STIM_014.jpg	100
3043.215	0.62	620.5	congruent	Block3	congruent/STIM_014.jpg	99
3046.057	0.521	520.7	congruent	Block3	congruent/STIM_014.jpg	99
3049.806	0.651	650.9	congruent	Block3	congruent/STIM_014.jpg	99
3054.397	0.761	761.4	congruent	Block3	congruent/STIM_014.jpg	100
3058.402	0.559	559.3	congruent	Block3	congruent/STIM_015.jpg	100
3061.583	0.696	695.9	congruent	Block3	congruent/STIM_015.jpg	99
3066.244	0.562	562.2	congruent	Block3	congruent/STIM_015.jpg	99
3069.357	0.515	515.0	congruent	Block3	congruent/STIM_015.jpg	99
3073.824	0.712	712.4	congruent	Block3	congruent/STIM_015.jpg	99
3078.387	0.723	722.9	congruent	Block3	congruent/STIM_016.jpg	99
3083.01	0.763	763.3	congruent	Block3	congruent/STIM_016.jpg	99
3087.519	0.491	490.7	congruent	Block3	congruent/STIM_016.jpg	99
3090.425	0.81	809.9	congruent	Block3	congruent/STIM_016.jpg	100
3094.897	0.613	613.1	congruent	Block3	congruent/STIM_016.jpg	99
3098.351	0.716	715.7	congruent	Block3	congruent/STIM_017.jpg	99
3101.949	0.814	814.1	congruent	Block3	congruent/STIM_017.jpg	99
3106.318	0.65	649.5	congruent	Block3	congruent/STIM_017.jpg	100
3110.213	0.585	585.0	congruent	Block3	congruent/STIM_017.jpg	100
3114.762	0.827	827.0	congruent	Block3	congruent/STIM_017.jpg	100
3119.177	0.582	582.5	congruent	Block3	congruent/STIM_018.jpg	99
3123.231	0.494	494.5	congruent	Block3	congruent/STIM_018.jpg	99
3126.239	0.629	628.8	congruent	Block3	congruent/STIM_018.jpg	99
3128.981	0.615	615.4	congruent	Block3	congruent/STIM_018.jpg	99
3133.487	0.767	766.8	congruent	Block3	congruent/STIM_018.jpg	100
3136.513	0.639	639.2	congruent	Block3	congruent/STIM_019.jpg	100
3140.122	0.84	839.6	congruent	Block3	congruent/STIM_019.jpg	100
3143.575	0.558	557.9	congruent	Block3	congruent/STIM_019.jpg	99
3147.672	0.8	800.5	congruent	Block3	congruent/STIM_019.jpg	100
3152.045	0.633	632.6	congruent	Block3	congruent/STIM_019.jpg	99
3155.919	0.764	763.5	congruent	Block3	congruent/STIM_020.jpg	100
3158.693	0.492	491.7	congruent	Block3	congruent/STIM_020.jpg	99
3161.699	0.756	755.9	congruent	Block3	congruent/STIM_020.jpg	100
3166.093	0.592	592.0	congruent	Block3	congruent/STIM_020.jpg	100
3169.58	0.798	797.8	congruent	Block3	congruent/STIM_020.jpg	99
3172.479	0.748	748.1	congruent	Block3	congruent/STIM_021.jpg	100
3175.845	0.55	550.2	congruent	Block3	congruent/STIM_021.jpg	99
3179.625	0.532	532.1	congruent	Block3	congruent/STIM_021.jpg	100
3183.698	0.526	525.5	congruent	Block3	congruent/STIM_021.jpg	99
3187.394	0.703	703.4	congruent	Block3	congruent/STIM_021.jpg	100
3190.761	0.798	798.5	congruent	Block3	congruent/STIM_022.jpg	100
3194.271	0.625	625.3	congruent	Block3	congruent/STIM_022.jpg	99
3198.637	0.83	829.5	congruent	Block3	congruent/STIM_022.jpg	100
3202.743	0.621	620.9	congruent	Block3	congruent/STIM_022.jpg	99
3206.831	0.661	660.8	congruent	Block3	congruent/STIM_022.jpg	99
3211.148	0.538	537.8	congruent	Block3	congruent/STIM_023.jpg	99
3214.727	0.661	660.8	congruent	Block3	congruent/STIM_023.jpg	99
3218.443	0.628	628.2	congruent	Block3	congruent/STIM_023.jpg	99
3221.584	0.837	836.9	congruent	Block3	congruent/STIM_023.jpg	99
3225.53	0.612	612.0	congruent	Block3	congruent/STIM_023.jpg	99
3229.662	0.705	705.1	congruent	Block3	congruent/STIM_024.jpg	100
3234.303	0.723	723.4	congruent	Block3	congruent/STIM_024.jpg	100
3237.726	0.543	543.1	congruent	Block3	congruent/STIM_024.jpg	100
3240.71	0.594	593.7	congruent	Block3	congruent/STIM_024.jpg	100
3245.213	0.622	621.6	congruent	Block3	congruent/STIM_024.jpg	99
3248.244	0.524	523.5	congruent	Block3	congruent/STIM_025.jpg	99
3251.667	0.717	717.1	congruent	Block3	congruent/STIM_025.jpg	99
3256.179	0.741	741.2	congruent	Block3	congruent/STIM_025.jpg	100
3259.336	0.575	574.9	congruent	Block3	congruent/STIM_025.jpg	100
3263.186	0.637	637.0	congruent	Block3	congruent/STIM_025.jpg	100
3266.657	0.594	593.7	congruent	Block3	congruent/STIM_026.jpg	100
3270.668	0.81	809.5	congruent	Block3	congruent/STIM_026.jpg	100
3275.02	0.556	555.6	congruent	Block3	congruent/STIM_026.jpg	100
3278.456	0.622	621.5	congruent	Block3	congruent/STIM_026.jpg	100
3282.796	0.665	665.3	congruent	Block3	congruent/STIM_026.jpg	100
3285.907	0.801	801.4	congruent	Block3	congruent/STIM_027.jpg	99
3288.755	0.825	825.2	congruent	Block3	congruent/STIM_027.jpg	100
3293.557	0.536	536.4	congruent	Block3	congruent/STIM_027.jpg	100
3297.935	0.76	760.5	congruent	Block3	congruent/STIM_027.jpg	100
3302.342	0.824	824.4	congruent	Block3	congruent/STIM_027.jpg	99
3306.039	0.576	575.6	congruent	Block3	congruent/STIM_028.jpg	100
3310.344	0.793	793.2	congruent	Block3	congruent/STIM_028.jpg	99
3315.134	0.552	551.8	congruent	Block3	congruent/STIM_028.jpg	99
3318.876	0.75	749.5	congruent	Block3	congruent/STIM_028.jpg	100
3323.304	0.49	489.6	congruent	Block3	congruent/STIM_028.jpg	100
3326.207	0.704	703.6	congruent	Block3	congruent/STIM_029.jpg	100
3329.105	0.748	747.9	congruent	Block3	congruent/STIM_029.jpg	99
3333.634	0.5	500.0	congruent	Block3	congruent/STIM_029.jpg	99
3336.501	0.632	631.5	congruent	Block3	congruent/STIM_029.jpg	99
3339.359	0.674	674.0	congruent	Block3	congruent/STIM_029.jpg	99
