onset	duration	accuracy_binary	trial_type	learning_stage	stimulus
0.0	1.251	1	incongruent	Block1	incongruent/STIM_000.jpg
3.4	1.104	0	incongruent	Block1	incongruent/STIM_000.jpg
6.9	0.616	1	incongruent	Block1	incongruent/STIM_000.jpg
10.692	0.807	1	incongruent	Block1	incongruent/STIM_000.jpg
13.526	0.916	1	incongruent	Block1	incongruent/STIM_000.jpg
16.719	0.7	1	incongruent	Block1	incongruent/STIM_001.jpg
20.835	0.633	1	incongruent	Block1	incongruent/STIM_001.jpg
24.611	0.723	1	incongruent	Block1	incongruent/STIM_001.jpg
28.264	1.01	1	incongruent	Block1	incongruent/STIM_001.jpg
31.281	0.565	1	incongruent	Block1	incongruent/STIM_001.jpg
33.865	0.703	1	incongruent	Block1	incongruent/STIM_002.jpg
36.751	0.703	1	incongruent	Block1	incongruent/STIM_002.jpg
41.062	1.164	1	incongruent	Block1	incongruent/STIM_002.jpg
45.817	0.884	1	incongruent	Block1	incongruent/STIM_002.jpg
50.54	0.704	1	incongruent	Block1	incongruent/STIM_002.jpg
54.897	1.275	1	incongruent	Block1	incongruent/STIM_003.jpg
59.608	1.0	1	incongruent	Block1	incongruent/STIM_003.jpg
64.28	1.109	1	incongruent	Block1	incongruent/STIM_003.jpg
68.651	0.684	1	incongruent	Block1	incongruent/STIM_003.jpg
72.994	0.853	1	incongruent	Block1	incongruent/STIM_003.jpg
75.884	1.046	1	incongruent	Block1	incongruent/STIM_004.jpg
80.499	1.307	1	incongruent	Block1	incongruent/STIM_004.jpg
84.757	0.886	1	incongruent	Block1	incongruent/STIM_004.jpg
89.134	0.674	1	incongruent	Block1	incongruent/STIM_004.jpg
92.233	0.608	1	incongruent	Block1	incongruent/STIM_004.jpg
95.043	1.234	1	incongruent	Block1	incongruent/STIM_005.jpg
99.217	1.256	1	incongruent	Block1	incongruent/STIM_005.jpg
102.915	1.267	1	incongruent	Block1	incongruent/STIM_005.jpg
107.727	0.75	1	incongruent	Block1	incongruent/STIM_005.jpg
111.368	0.758	1	incongruent	Block1	incongruent/STIM_005.jpg
115.372	1.2	1	incongruent	Block1	incongruent/STIM_006.jpg
120.338	0.757	0	incongruent	Block1	incongruent/STIM_006.jpg
123.754	0.681	1	incongruent	Block1	incongruent/STIM_006.jpg
127.01	0.618	1	incongruent	Block1	incongruent/STIM_006.jpg
130.976	0.623	1	incongruent	Block1	incongruent/STIM_006.jpg
134.602	1.318	1	incongruent	Block1	incongruent/STIM_007.jpg
139.663	1.096	1	incongruent	Block1	incongruent/STIM_007.jpg
143.936	0.776	1	incongruent	Block1	incongruent/STIM_007.jpg
147.987	0.635	0	incongruent	Block1	incongruent/STIM_007.jpg
151.322	0.648	1	incongruent	Block1	incongruent/STIM_007.jpg
155.698	1.356	0	incongruent	Block1	incongruent/STIM_008.jpg
160.348	0.976	1	incongruent	Block1	incongruent/STIM_008.jpg
164.438	1.101	1	incongruent	Block1	incongruent/STIM_008.jpg
169.006	0.979	1	incongruent	Block1	incongruent/STIM_008.jpg
173.698	0.68	1	incongruent	Block1	incongruent/STIM_008.jpg
177.95	1.408	1	incongruent	Block1	incongruent/STIM_009.jpg
182.234	1.166	1	incongruent	Block1	incongruent/STIM_009.jpg
186.965	0.646	1	incongruent	Block1	incongruent/STIM_009.jpg
190.294	1.013	0	incongruent	Block1	incongruent/STIM_009.jpg
194.375	0.732	1	incongruent	Block1	incongruent/STIM_009.jpg
198.87	0.868	0	incongruent	Block1	incongruent/STIM_010.jpg
202.733	1.011	1	incongruent	Block1	incongruent/STIM_010.jpg
206.975	0.785	0	incongruent	Block1	incongruent/STIM_010.jpg
211.03	0.772	1	incongruent	Block1	incongruent/STIM_010.jpg
215.447	1.072	1	incongruent	Block1	incongruent/STIM_010.jpg
219.839	1.054	1	incongruent	Block1	incongruent/STIM_011.jpg
223.969	0.76	1	incongruent	Block1	incongruent/STIM_011.jpg
226.764	0.923	1	incongruent	Block1	incongruent/STIM_011.jpg
231.376	1.078	1	incongruent	Block1	incongruent/STIM_011.jpg
234.789	0.729	1	incongruent	Block1	incongruent/STIM_011.jpg
238.312	1.391	1	incongruent	Block1	incongruent/STIM_012.jpg
241.76	0.696	1	incongruent	Block1	incongruent/STIM_012.jpg
244.524	0.953	1	incongruent	Block1	incongruent/STIM_012.jpg
247.561	0.972	1	incongruent	Block1	incongruent/STIM_012.jpg
250.776	0.874	1	incongruent	Block1	incongruent/STIM_012.jpg
255.336	1.187	1	incongruent	Block1	incongruent/STIM_013.jpg
260.438	1.27	1	incongruent	Block1	incongruent/STIM_013.jpg
265.032	1.161	1	incongruent	Block1	incongruent/STIM_013.jpg
269.632	1.106	1	incongruent	Block1	incongruent/STIM_013.jpg
273.276	0.864	1	incongruent	Block1	incongruent/STIM_013.jpg
276.146	0.939	1	incongruent	Block1	incongruent/STIM_014.jpg
280.074	1.241	1	incongruent	Block1	incongruent/STIM_014.jpg
285.021	1.027	1	incongruent	Block1	incongruent/STIM_014.jpg
288.87	0.627	1	incongruent	Block1	incongruent/STIM_014.jpg
292.648	0.642	1	incongruent	Block1	incongruent/STIM_014.jpg
296.252	0.819	1	incongruent	Block1	incongruent/STIM_015.jpg
300.364	1.305	1	incongruent	Block1	incongruent/STIM_015.jpg
305.222	0.633	1	incongruent	Block1	incongruent/STIM_015.jpg
307.887	0.985	1	incongruent	Block1	incongruent/STIM_015.jpg
312.251	0.789	1	incongruent	Block1	incongruent/STIM_015.jpg
316.123	0.701	1	incongruent	Block1	incongruent/STIM_016.jpg
320.651	1.104	1	incongruent	Block1	incongruent/STIM_016.jpg
323.869	1.057	0	incongruent	Block1	incongruent/STIM_016.jpg
328.48	0.679	1	incongruent	Block1	incongruent/STIM_016.jpg
333.12	0.957	0	incongruent	Block1	incongruent/STIM_016.jpg
336.216	0.784	1	incongruent	Block1	incongruent/STIM_017.jpg
339.214	1.312	1	incongruent	Block1	incongruent/STIM_017.jpg
343.233	1.164	1	incongruent	Block1	incongruent/STIM_017.jpg
347.951	0.864	1	incongruent	Block1	incongruent/STIM_017.jpg
351.69	1.092	1	incongruent	Block1	incongruent/STIM_017.jpg
355.099	0.869	1	incongruent	Block1	incongruent/STIM_018.jpg
358.876	1.112	1	incongruent	Block1	incongruent/STIM_018.jpg
363.726	1.074	1	incongruent	Block1	incongruent/STIM_018.jpg
367.207	0.735	1	incongruent	Block1	incongruent/STIM_018.jpg
370.209	1.042	1	incongruent	Block1	incongruent/STIM_018.jpg
374.408	1.244	1	incongruent	Block1	incongruent/STIM_019.jpg
379.469	1.239	1	incongruent	Block1	incongruent/STIM_019.jpg
384.082	0.61	1	incongruent	Block1	incongruent/STIM_019.jpg
388.169	0.685	1	incongruent	Block1	incongruent/STIM_019.jpg
391.574	0.904	1	incongruent	Block1	incongruent/STIM_019.jpg
395.434	0.962	1	incongruent	Block1	incongruent/STIM_020.jpg
399.539	1.046	1	incongruent	Block1	incongruent/STIM_020.jpg
402.855	0.974	1	incongruent	Block1	incongruent/STIM_020.jpg
406.855	0.954	1	incongruent	Block1	incongruent/STIM_020.jpg
410.938	0.532	1	incongruent	Block1	incongruent/STIM_020.jpg
414.842	1.4	0	incongruent	Block1	incongruent/STIM_021.jpg
420.054	1.202	1	incongruent	Block1	incongruent/STIM_021.jpg
423.827	0.755	1	incongruent	Block1	incongruent/STIM_021.jpg
427.665	0.637	1	incongruent	Block1	incongruent/STIM_021.jpg
431.18	0.851	1	incongruent	Block1	incongruent/STIM_021.jpg
434.427	0.822	1	incongruent	Block1	incongruent/STIM_022.jpg
438.776	1.202	1	incongruent	Block1	incongruent/STIM_022.jpg
442.232	0.742	1	incongruent	Block1	incongruent/STIM_022.jpg
445.89	0.693	1	incongruent	Block1	incongruent/STIM_022.jpg
449.207	1.042	1	incongruent	Block1	incongruent/STIM_022.jpg
452.817	0.786	1	incongruent	Block1	incongruent/STIM_023.jpg
457.437	1.265	1	incongruent	Block1	incongruent/STIM_023.jpg
460.731	1.079	1	incongruent	Block1	incongruent/STIM_023.jpg
465.465	0.977	1	incongruent	Block1	incongruent/STIM_023.jpg
470.337	0.553	1	incongruent	Block1	incongruent/STIM_023.jpg
473.293	0.673	1	incongruent	Block1	incongruent/STIM_024.jpg
476.851	0.896	1	incongruent	Block1	incongruent/STIM_024.jpg
479.948	0.866	0	incongruent	Block1	incongruent/STIM_024.jpg
484.548	0.877	0	incongruent	Block1	incongruent/STIM_024.jpg
489.161	0.765	1	incongruent	Block1	incongruent/STIM_024.jpg
492.052	0.788	1	incongruent	Block1	incongruent/STIM_025.jpg
496.174	1.026	1	incongruent	Block1	incongruent/STIM_025.jpg
499.366	0.842	1	incongruent	Block1	incongruent/STIM_025.jpg
502.733	0.899	1	incongruent	Block1	incongruent/STIM_025.jpg
506.822	0.899	1	incongruent	Block1	incongruent/STIM_025.jpg
510.434	0.969	1	incongruent	Block1	incongruent/STIM_026.jpg
514.25	0.911	1	incongruent	Block1	incongruent/STIM_026.jpg
518.83	1.056	0	incongruent	Block1	incongruent/STIM_026.jpg
521.918	1.131	1	incongruent	Block1	incongruent/STIM_026.jpg
525.575	0.665	1	incongruent	Block1	incongruent/STIM_026.jpg
529.958	1.408	1	incongruent	Block1	incongruent/STIM_027.jpg
533.781	0.887	1	incongruent	Block1	incongruent/STIM_027.jpg
537.015	1.067	1	incongruent	Block1	incongruent/STIM_027.jpg
540.844	0.828	1	incongruent	Block1	incongruent/STIM_027.jpg
545.506	1.039	1	incongruent	Block1	incongruent/STIM_027.jpg
549.06	0.843	1	incongruent	Block1	incongruent/STIM_028.jpg
553.886	0.675	1	incongruent	Block1	incongruent/STIM_028.jpg
557.285	1.044	1	incongruent	Block1	incongruent/STIM_028.jpg
560.95	0.933	1	incongruent	Block1	incongruent/STIM_028.jpg
565.717	0.885	1	incongruent	Block1	incongruent/STIM_028.jpg
569.939	1.119	1	incongruent	Block1	incongruent/STIM_029.jpg
574.363	1.164	1	incongruent	Block1	incongruent/STIM_029.jpg
577.79	0.636	1	incongruent	Block1	incongruent/STIM_029.jpg
580.924	1.042	1	incongruent	Block1	incongruent/STIM_029.jpg
583.994	1.037	1	incongruent	Block1	incongruent/STIM_029.jpg
587.399	0.704	1	congruent	Block1	congruent/STIM_000.jpg
590.766	0.631	1	congruent	Block1	congruent/STIM_000.jpg
593.906	0.796	1	congruent	Block1	congruent/STIM_000.jpg
596.744	0.563	1	congruent	Block1	congruent/STIM_000.jpg
599.462	0.761	1	congruent	Block1	congruent/STIM_000.jpg
603.362	0.552	1	congruent	Block1	congruent/STIM_001.jpg
606.794	0.609	1	congruent	Block1	congruent/STIM_001.jpg
610.348	0.703	1	congruent	Block1	congruent/STIM_001.jpg
614.297	0.804	1	congruent	Block1	congruent/STIM_001.jpg
618.409	0.605	1	congruent	Block1	congruent/STIM_001.jpg
621.253	0.523	1	congruent	Block1	congruent/STIM_002.jpg
625.355	0.677	1	congruent	Block1	congruent/STIM_002.jpg
629.652	0.74	1	congruent	Block1	congruent/STIM_002.jpg
632.925	0.828	1	congruent	Block1	congruent/STIM_002.jpg
636.95	0.618	1	congruent	Block1	congruent/STIM_002.jpg
640.15	0.56	1	congruent	Block1	congruent/STIM_003.jpg
643.126	0.779	1	congruent	Block1	congruent/STIM_003.jpg
647.847	0.62	1	congruent	Block1	congruent/STIM_003.jpg
650.502	0.765	1	congruent	Block1	congruent/STIM_003.jpg
654.561	0.79	1	congruent	Block1	congruent/STIM_003.jpg
658.111	0.785	1	congruent	Block1	congruent/STIM_004.jpg
660.961	0.738	1	congruent	Block1	congruent/STIM_004.jpg
665.436	0.737	1	congruent	Block1	congruent/STIM_004.jpg
668.999	0.564	1	congruent	Block1	congruent/STIM_004.jpg
673.258	0.708	1	congruent	Block1	congruent/STIM_004.jpg
676.974	0.695	1	congruent	Block1	congruent/STIM_005.jpg
680.326	0.538	1	congruent	Block1	congruent/STIM_005.jpg
683.093	0.81	1	congruent	Block1	congruent/STIM_005.jpg
687.027	0.741	1	congruent	Block1	congruent/STIM_005.jpg
691.567	0.801	1	congruent	Block1	congruent/STIM_005.jpg
696.157	0.728	1	congruent	Block1	congruent/STIM_006.jpg
699.511	0.754	1	congruent	Block1	congruent/STIM_006.jpg
703.134	0.734	0	congruent	Block1	congruent/STIM_006.jpg
706.287	0.493	1	congruent	Block1	congruent/STIM_006.jpg
709.576	0.492	1	congruent	Block1	congruent/STIM_006.jpg
714.011	0.734	1	congruent	Block1	congruent/STIM_007.jpg
716.937	0.768	1	congruent	Block1	congruent/STIM_007.jpg
720.023	0.843	1	congruent	Block1	congruent/STIM_007.jpg
724.824	0.726	1	congruent	Block1	congruent/STIM_007.jpg
728.743	0.761	1	congruent	Block1	congruent/STIM_007.jpg
732.054	0.663	1	congruent	Block1	congruent/STIM_008.jpg
736.187	0.742	1	congruent	Block1	congruent/STIM_008.jpg
740.556	0.695	1	congruent	Block1	congruent/STIM_008.jpg
744.16	0.656	1	congruent	Block1	congruent/STIM_008.jpg
748.5	0.566	1	congruent	Block1	congruent/STIM_008.jpg
752.974	0.553	1	congruent	Block1	congruent/STIM_009.jpg
756.045	0.655	1	congruent	Block1	congruent/STIM_009.jpg
760.474	0.602	1	congruent	Block1	congruent/STIM_009.jpg
763.841	0.604	1	congruent	Block1	congruent/STIM_009.jpg
768.036	0.492	1	congruent	Block1	congruent/STIM_009.jpg
771.33	0.741	1	congruent	Block1	congruent/STIM_010.jpg
775.538	0.814	1	congruent	Block1	congruent/STIM_010.jpg
779.707	0.83	1	congruent	Block1	congruent/STIM_010.jpg
783.584	0.611	1	congruent	Block1	congruent/STIM_010.jpg
787.974	0.556	1	congruent	Block1	congruent/STIM_010.jpg
791.899	0.634	1	congruent	Block1	congruent/STIM_011.jpg
795.851	0.797	1	congruent	Block1	congruent/STIM_011.jpg
799.989	0.616	1	congruent	Block1	congruent/STIM_011.jpg
803.017	0.827	1	congruent	Block1	congruent/STIM_011.jpg
806.618	0.845	1	congruent	Block1	congruent/STIM_011.jpg
810.667	0.488	1	congruent	Block1	congruent/STIM_012.jpg
814.879	0.738	1	congruent	Block1	congruent/STIM_012.jpg
819.419	0.575	0	congruent	Block1	congruent/STIM_012.jpg
822.734	0.642	1	congruent	Block1	congruent/STIM_012.jpg
825.797	0.734	1	congruent	Block1	congruent/STIM_012.jpg
828.79	0.661	1	congruent	Block1	congruent/STIM_013.jpg
831.56	0.838	1	congruent	Block1	congruent/STIM_013.jpg
835.335	0.495	1	congruent	Block1	congruent/STIM_013.jpg
839.494	0.723	1	congruent	Block1	congruent/STIM_013.jpg
843.567	0.806	1	congruent	Block1	congruent/STIM_013.jpg
847.645	0.563	1	congruent	Block1	congruent/STIM_014.jpg
850.539	0.734	1	congruent	Block1	congruent/STIM_014.jpg
855.171	0.683	1	congruent	Block1	congruent/STIM_014.jpg
858.061	0.649	0	congruent	Block1	congruent/STIM_014.jpg
862.604	0.561	1	congruent	Block1	congruent/STIM_014.jpg
865.542	0.691	1	congruent	Block1	congruent/STIM_015.jpg
870.057	0.522	1	congruent	Block1	congruent/STIM_015.jpg
872.654	0.63	1	congruent	Block1	congruent/STIM_015.jpg
876.302	0.745	1	congruent	Block1	congruent/STIM_015.jpg
879.753	0.714	1	congruent	Block1	congruent/STIM_015.jpg
883.481	0.785	1	congruent	Block1	congruent/STIM_016.jpg
886.594	0.522	1	congruent	Block1	congruent/STIM_016.jpg
890.601	0.561	1	congruent	Block1	congruent/STIM_016.jpg
894.291	0.845	1	congruent	Block1	congruent/STIM_016.jpg
898.64	0.767	1	congruent	Block1	congruent/STIM_016.jpg
901.793	0.813	1	congruent	Block1	congruent/STIM_017.jpg
904.828	0.595	1	congruent	Block1	congruent/STIM_017.jpg
908.961	0.541	1	congruent	Block1	congruent/STIM_017.jpg
911.605	0.576	1	congruent	Block1	congruent/STIM_017.jpg
914.969	0.497	1	congruent	Block1	congruent/STIM_017.jpg
919.163	0.488	1	congruent	Block1	congruent/STIM_018.jpg
922.699	0.689	1	congruent	Block1	congruent/STIM_018.jpg
927.192	0.661	1	congruent	Block1	congruent/STIM_018.jpg
930.994	0.55	1	congruent	Block1	congruent/STIM_018.jpg
934.493	0.475	1	congruent	Block1	congruent/STIM_018.jpg
938.131	0.74	0	congruent	Block1	congruent/STIM_019.jpg
941.247	0.638	1	congruent	Block1	congruent/STIM_019.jpg
945.234	0.528	1	congruent	Block1	congruent/STIM_019.jpg
948.566	0.799	1	congruent	Block1	congruent/STIM_019.jpg
952.013	0.732	1	congruent	Block1	congruent/STIM_019.jpg
956.701	0.648	1	congruent	Block1	congruent/STIM_020.jpg
960.827	0.747	1	congruent	Block1	congruent/STIM_020.jpg
965.003	0.822	1	congruent	Block1	congruent/STIM_020.jpg
968.646	0.543	1	congruent	Block1	congruent/STIM_020.jpg
971.469	0.533	1	congruent	Block1	congruent/STIM_020.jpg
974.578	0.605	1	congruent	Block1	congruent/STIM_021.jpg
977.921	0.655	1	congruent	Block1	congruent/STIM_021.jpg
982.143	0.823	1	congruent	Block1	congruent/STIM_021.jpg
986.514	0.544	1	congruent	Block1	congruent/STIM_021.jpg
990.297	0.808	1	congruent	Block1	congruent/STIM_021.jpg
993.301	0.548	1	congruent	Block1	congruent/STIM_022.jpg
996.548	0.544	1	congruent	Block1	congruent/STIM_022.jpg
999.789	0.649	1	congruent	Block1	congruent/STIM_022.jpg
1003.617	0.597	1	congruent	Block1	congruent/STIM_022.jpg
1006.375	0.472	1	congruent	Block1	congruent/STIM_022.jpg
1008.926	0.493	1	congruent	Block1	congruent/STIM_023.jpg
1012.477	0.743	1	congruent	Block1	congruent/STIM_023.jpg
1015.506	0.629	1	congruent	Block1	congruent/STIM_023.jpg
1018.623	0.662	1	congruent	Block1	congruent/STIM_023.jpg
1022.809	0.592	1	congruent	Block1	congruent/STIM_023.jpg
1027.063	0.579	1	congruent	Block1	congruent/STIM_024.jpg
1031.211	0.607	1	congruent	Block1	congruent/STIM_024.jpg
1035.026	0.6	1	congruent	Block1	congruent/STIM_024.jpg
1038.315	0.479	1	congruent	Block1	congruent/STIM_024.jpg
1041.704	0.635	1	congruent	Block1	congruent/STIM_024.jpg
1045.259	0.668	1	congruent	Block1	congruent/STIM_025.jpg
1049.158	0.801	1	congruent	Block1	congruent/STIM_025.jpg
1052.639	0.747	1	congruent	Block1	congruent/STIM_025.jpg
1056.069	0.692	1	congruent	Block1	congruent/STIM_025.jpg
1059.516	0.547	1	congruent	Block1	congruent/STIM_025.jpg
1063.575	0.519	1	congruent	Block1	congruent/STIM_026.jpg
1066.367	0.495	1	congruent	Block1	congruent/STIM_026.jpg
1070.728	0.738	1	congruent	Block1	congruent/STIM_026.jpg
1075.053	0.683	1	congruent	Block1	congruent/STIM_026.jpg
1078.326	0.699	1	congruent	Block1	congruent/STIM_026.jpg
1081.884	0.588	1	congruent	Block1	congruent/STIM_027.jpg
1085.633	0.514	1	congruent	Block1	congruent/STIM_027.jpg
1088.735	0.827	1	congruent	Block1	congruent/STIM_027.jpg
1092.073	0.664	1	congruent	Block1	congruent/STIM_027.jpg
1095.058	0.683	1	congruent	Block1	congruent/STIM_027.jpg
1097.837	0.56	1	congruent	Block1	congruent/STIM_028.jpg
1101.808	0.573	1	congruent	Block1	congruent/STIM_028.jpg
1106.231	0.542	1	congruent	Block1	congruent/STIM_028.jpg
1108.871	0.588	1	congruent	Block1	congruent/STIM_028.jpg
1111.811	0.484	1	congruent	Block1	congruent/STIM_028.jpg
1115.477	0.711	1	congruent	Block1	congruent/STIM_029.jpg
1118.908	0.843	1	congruent	Block1	congruent/STIM_029.jpg
1123.238	0.626	1	congruent	Block1	congruent/STIM_029.jpg
1126.732	0.615	1	congruent	Block1	congruent/STIM_029.jpg
1130.686	0.793	1	congruent	Block1	congruent/STIM_029.jpg
1134.896	1.125	1	incongruent	Block2	incongruent/STIM_000.jpg
1139.104	0.687	1	incongruent	Block2	incongruent/STIM_000.jpg
1143.762	0.82	1	incongruent	Block2	incongruent/STIM_000.jpg
1147.972	0.572	1	incongruent	Block2	incongruent/STIM_000.jpg
1152.273	0.493	1	incongruent	Block2	incongruent/STIM_000.jpg
1155.972	1.185	1	incongruent	Block2	incongruent/STIM_001.jpg
1160.858	0.836	1	incongruent	Block2	incongruent/STIM_001.jpg
1164.326	0.603	1	incongruent	Block2	incongruent/STIM_001.jpg
1167.254	0.936	1	incongruent	Block2	incongruent/STIM_001.jpg
1170.444	0.536	1	incongruent	Block2	incongruent/STIM_001.jpg
1174.887	0.562	1	incongruent	Block2	incongruent/STIM_002.jpg
1178.117	0.874	1	incongruent	Block2	incongruent/STIM_002.jpg
1182.86	0.621	1	incongruent	Block2	incongruent/STIM_002.jpg
1185.837	0.529	1	incongruent	Block2	incongruent/STIM_002.jpg
1189.639	0.736	0	incongruent	Block2	incongruent/STIM_002.jpg
1193.287	0.822	1	incongruent	Block2	incongruent/STIM_003.jpg
1197.58	0.544	1	incongruent	Block2	incongruent/STIM_003.jpg
1201.702	0.641	1	incongruent	Block2	incongruent/STIM_003.jpg
1206.109	0.561	1	incongruent	Block2	incongruent/STIM_003.jpg
1209.096	0.844	1	incongruent	Block2	incongruent/STIM_003.jpg
1211.987	0.886	1	incongruent	Block2	incongruent/STIM_004.jpg
1215.221	0.783	1	incongruent	Block2	incongruent/STIM_004.jpg
1218.158	0.898	1	incongruent	Block2	incongruent/STIM_004.jpg
1221.943	0.49	1	incongruent	Block2	incongruent/STIM_004.jpg
1225.949	0.78	1	incongruent	Block2	incongruent/STIM_004.jpg
1228.87	0.659	1	incongruent	Block2	incongruent/STIM_005.jpg
1232.392	0.654	1	incongruent	Block2	incongruent/STIM_005.jpg
1236.731	0.909	1	incongruent	Block2	incongruent/STIM_005.jpg
1241.11	0.859	1	incongruent	Block2	incongruent/STIM_005.jpg
1245.705	0.574	1	incongruent	Block2	incongruent/STIM_005.jpg
1248.957	1.13	1	incongruent	Block2	incongruent/STIM_006.jpg
1253.628	0.804	1	incongruent	Block2	incongruent/STIM_006.jpg
1257.803	0.769	1	incongruent	Block2	incongruent/STIM_006.jpg
1261.39	0.947	1	incongruent	Block2	incongruent/STIM_006.jpg
1265.125	0.559	1	incongruent	Block2	incongruent/STIM_006.jpg
1267.811	0.909	1	incongruent	Block2	incongruent/STIM_007.jpg
1272.62	0.939	1	incongruent	Block2	incongruent/STIM_007.jpg
1275.65	0.755	1	incongruent	Block2	incongruent/STIM_007.jpg
1278.677	0.484	1	incongruent	Block2	incongruent/STIM_007.jpg
1282.519	0.816	1	incongruent	Block2	incongruent/STIM_007.jpg
1285.469	0.756	1	incongruent	Block2	incongruent/STIM_008.jpg
1289.115	0.574	1	incongruent	Block2	incongruent/STIM_008.jpg
1293.203	0.756	1	incongruent	Block2	incongruent/STIM_008.jpg
1297.292	0.872	1	incongruent	Block2	incongruent/STIM_008.jpg
1302.13	0.858	1	incongruent	Block2	incongruent/STIM_008.jpg
1305.413	1.041	1	incongruent	Block2	incongruent/STIM_009.jpg
1308.764	0.662	1	incongruent	Block2	incongruent/STIM_009.jpg
1312.716	0.708	1	incongruent	Block2	incongruent/STIM_009.jpg
1317.085	0.798	1	incongruent	Block2	incongruent/STIM_009.jpg
1321.487	0.54	1	incongruent	Block2	incongruent/STIM_009.jpg
1324.042	1.021	1	incongruent	Block2	incongruent/STIM_010.jpg
1327.169	0.74	1	incongruent	Block2	incongruent/STIM_010.jpg
1330.956	0.874	1	incongruent	Block2	incongruent/STIM_010.jpg
1334.092	0.822	1	incongruent	Block2	incongruent/STIM_010.jpg
1337.607	0.802	1	incongruent	Block2	incongruent/STIM_010.jpg
1340.914	0.712	1	incongruent	Block2	incongruent/STIM_011.jpg
1344.243	0.76	1	incongruent	Block2	incongruent/STIM_011.jpg
1348.429	0.65	1	incongruent	Block2	incongruent/STIM_011.jpg
1351.823	0.931	1	incongruent	Block2	incongruent/STIM_011.jpg
1355.324	0.888	1	incongruent	Block2	incongruent/STIM_011.jpg
1358.641	0.811	1	incongruent	Block2	incongruent/STIM_012.jpg
1361.759	0.607	1	incongruent	Block2	incongruent/STIM_012.jpg
1364.638	0.988	1	incongruent	Block2	incongruent/STIM_012.jpg
1369.416	0.757	1	incongruent	Block2	incongruent/STIM_012.jpg
1373.179	0.88	1	incongruent	Block2	incongruent/STIM_012.jpg
1376.701	0.632	1	incongruent	Block2	incongruent/STIM_013.jpg
1380.76	0.666	1	incongruent	Block2	incongruent/STIM_013.jpg
1383.614	0.89	1	incongruent	Block2	incongruent/STIM_013.jpg
1387.024	0.733	1	incongruent	Block2	incongruent/STIM_013.jpg
1391.097	0.537	1	incongruent	Block2	incongruent/STIM_013.jpg
1394.777	0.602	1	incongruent	Block2	incongruent/STIM_014.jpg
1399.233	0.735	1	incongruent	Block2	incongruent/STIM_014.jpg
1402.567	0.993	1	incongruent	Block2	incongruent/STIM_014.jpg
1407.496	0.585	1	incongruent	Block2	incongruent/STIM_014.jpg
1410.66	0.844	1	incongruent	Block2	incongruent/STIM_014.jpg
1414.101	0.641	1	incongruent	Block2	incongruent/STIM_015.jpg
1418.04	0.971	1	incongruent	Block2	incongruent/STIM_015.jpg
1421.222	0.562	1	incongruent	Block2	incongruent/STIM_015.jpg
1423.809	0.881	1	incongruent	Block2	incongruent/STIM_015.jpg
1428.252	0.825	1	incongruent	Block2	incongruent/STIM_015.jpg
1432.707	1.054	0	incongruent	Block2	incongruent/STIM_016.jpg
1437.694	0.713	1	incongruent	Block2	incongruent/STIM_016.jpg
1442.248	0.718	1	incongruent	Block2	incongruent/STIM_016.jpg
1445.841	0.716	1	incongruent	Block2	incongruent/STIM_016.jpg
1450.32	0.88	1	incongruent	Block2	incongruent/STIM_016.jpg
1453.239	1.014	0	incongruent	Block2	incongruent/STIM_017.jpg
1456.684	0.699	1	incongruent	Block2	incongruent/STIM_017.jpg
1460.631	0.528	1	incongruent	Block2	incongruent/STIM_017.jpg
1463.563	0.596	1	incongruent	Block2	incongruent/STIM_017.jpg
1466.386	0.554	1	incongruent	Block2	incongruent/STIM_017.jpg
1470.042	1.089	1	incongruent	Block2	incongruent/STIM_018.jpg
1474.167	0.937	1	incongruent	Block2	incongruent/STIM_018.jpg
1478.221	0.927	1	incongruent	Block2	incongruent/STIM_018.jpg
1482.5	0.674	1	incongruent	Block2	incongruent/STIM_018.jpg
1486.227	0.57	1	incongruent	Block2	incongruent/STIM_018.jpg
1488.898	0.959	1	incongruent	Block2	incongruent/STIM_019.jpg
1493.294	0.694	1	incongruent	Block2	incongruent/STIM_019.jpg
1497.484	0.691	1	incongruent	Block2	incongruent/STIM_019.jpg
1500.773	0.926	1	incongruent	Block2	incongruent/STIM_019.jpg
1504.33	0.481	1	incongruent	Block2	incongruent/STIM_019.jpg
1507.304	0.996	1	incongruent	Block2	incongruent/STIM_020.jpg
1511.121	0.71	1	incongruent	Block2	incongruent/STIM_020.jpg
1515.661	0.607	1	incongruent	Block2	incongruent/STIM_020.jpg
1520.21	0.544	1	incongruent	Block2	incongruent/STIM_020.jpg
1522.83	0.54	1	incongruent	Block2	incongruent/STIM_020.jpg
1525.842	0.689	1	incongruent	Block2	incongruent/STIM_021.jpg
1530.483	0.612	1	incongruent	Block2	incongruent/STIM_021.jpg
1535.094	0.858	1	incongruent	Block2	incongruent/STIM_021.jpg
1537.994	0.819	1	incongruent	Block2	incongruent/STIM_021.jpg
1541.617	0.958	1	incongruent	Block2	incongruent/STIM_021.jpg
1544.733	0.917	1	incongruent	Block2	incongruent/STIM_022.jpg
1547.865	0.964	1	incongruent	Block2	incongruent/STIM_022.jpg
1550.887	0.732	1	incongruent	Block2	incongruent/STIM_022.jpg
1554.723	0.606	1	incongruent	Block2	incongruent/STIM_022.jpg
1558.887	0.702	1	incongruent	Block2	incongruent/STIM_022.jpg
1562.64	0.883	1	incongruent	Block2	incongruent/STIM_023.jpg
1567.202	0.652	1	incongruent	Block2	incongruent/STIM_023.jpg
1571.55	0.646	1	incongruent	Block2	incongruent/STIM_023.jpg
1574.538	0.862	1	incongruent	Block2	incongruent/STIM_023.jpg
1578.967	0.832	1	incongruent	Block2	incongruent/STIM_023.jpg
1582.294	1.189	1	incongruent	Block2	incongruent/STIM_024.jpg
1586.798	0.918	1	incongruent	Block2	incongruent/STIM_024.jpg
1591.006	0.554	1	incongruent	Block2	incongruent/STIM_024.jpg
1594.644	0.711	1	incongruent	Block2	incongruent/STIM_024.jpg
1599.286	0.476	1	incongruent	Block2	incongruent/STIM_024.jpg
1601.833	1.115	1	incongruent	Block2	incongruent/STIM_025.jpg
1605.702	0.646	1	incongruent	Block2	incongruent/STIM_025.jpg
1608.472	0.634	1	incongruent	Block2	incongruent/STIM_025.jpg
1613.053	0.479	1	incongruent	Block2	incongruent/STIM_025.jpg
1616.535	0.935	1	incongruent	Block2	incongruent/STIM_025.jpg
1620.435	0.838	1	incongruent	Block2	incongruent/STIM_026.jpg
1623.732	1.098	1	incongruent	Block2	incongruent/STIM_026.jpg
1627.591	0.716	1	incongruent	Block2	incongruent/STIM_026.jpg
1630.906	0.497	1	incongruent	Block2	incongruent/STIM_026.jpg
1634.325	0.488	1	incongruent	Block2	incongruent/STIM_026.jpg
1638.74	0.568	1	incongruent	Block2	incongruent/STIM_027.jpg
1641.359	0.949	1	incongruent	Block2	incongruent/STIM_027.jpg
1645.138	0.504	1	incongruent	Block2	incongruent/STIM_027.jpg
1649.542	0.776	1	incongruent	Block2	incongruent/STIM_027.jpg
1654.204	0.71	1	incongruent	Block2	incongruent/STIM_027.jpg
1658.769	0.9	1	incongruent	Block2	incongruent/STIM_028.jpg
1662.473	0.854	1	incongruent	Block2	incongruent/STIM_028.jpg
1666.408	0.589	1	incongruent	Block2	incongruent/STIM_028.jpg
1669.044	0.668	1	incongruent	Block2	incongruent/STIM_028.jpg
1671.725	0.984	1	incongruent	Block2	incongruent/STIM_028.jpg
1674.856	0.85	1	incongruent	Block2	incongruent/STIM_029.jpg
1679.062	1.012	1	incongruent	Block2	incongruent/STIM_029.jpg
1683.862	0.546	1	incongruent	Block2	incongruent/STIM_029.jpg
1686.727	0.95	1	incongruent	Block2	incongruent/STIM_029.jpg
1690.562	0.5	1	incongruent	Block2	incongruent/STIM_029.jpg
1694.987	0.774	1	congruent	Block2	congruent/STIM_000.jpg
1698.809	0.569	1	congruent	Block2	congruent/STIM_000.jpg
1701.448	0.768	1	congruent	Block2	congruent/STIM_000.jpg
1706.093	0.721	1	congruent	Block2	congruent/STIM_000.jpg
1710.743	0.7	1	congruent	Block2	congruent/STIM_000.jpg
1714.108	0.769	1	congruent	Block2	congruent/STIM_001.jpg
1716.944	0.661	1	congruent	Block2	congruent/STIM_001.jpg
1720.786	0.787	1	congruent	Block2	congruent/STIM_001.jpg
1724.268	0.677	1	congruent	Block2	congruent/STIM_001.jpg
1727.184	0.628	1	congruent	Block2	congruent/STIM_001.jpg
1730.503	0.754	1	congruent	Block2	congruent/STIM_002.jpg
1733.261	0.83	1	congruent	Block2	congruent/STIM_002.jpg
1736.396	0.493	1	congruent	Block2	congruent/STIM_002.jpg
1740.465	0.843	1	congruent	Block2	congruent/STIM_002.jpg
1744.841	0.822	1	congruent	Block2	congruent/STIM_002.jpg
1748.856	0.751	1	congruent	Block2	congruent/STIM_003.jpg
1753.485	0.52	1	congruent	Block2	congruent/STIM_003.jpg
1757.206	0.578	1	congruent	Block2	congruent/STIM_003.jpg
1760.659	0.758	1	congruent	Block2	congruent/STIM_003.jpg
1765.002	0.527	1	congruent	Block2	congruent/STIM_003.jpg
1768.867	0.51	1	congruent	Block2	congruent/STIM_004.jpg
1771.921	0.504	1	congruent	Block2	congruent/STIM_004.jpg
1775.886	0.719	1	congruent	Block2	congruent/STIM_004.jpg
1779.603	0.631	1	congruent	Block2	congruent/STIM_004.jpg
1784.019	0.794	1	congruent	Block2	congruent/STIM_004.jpg
1787.477	0.816	1	congruent	Block2	congruent/STIM_005.jpg
1792.113	0.729	1	congruent	Block2	congruent/STIM_005.jpg
1795.949	0.842	1	congruent	Block2	congruent/STIM_005.jpg
1799.635	0.604	1	congruent	Block2	congruent/STIM_005.jpg
1803.451	0.531	1	congruent	Block2	congruent/STIM_005.jpg
1807.793	0.715	1	congruent	Block2	congruent/STIM_006.jpg
1812.499	0.741	1	congruent	Block2	congruent/STIM_006.jpg
1816.915	0.796	1	congruent	Block2	congruent/STIM_006.jpg
1819.851	0.583	1	congruent	Block2	congruent/STIM_006.jpg
1823.388	0.65	1	congruent	Block2	congruent/STIM_006.jpg
1828.015	0.574	1	congruent	Block2	congruent/STIM_007.jpg
1832.268	0.52	1	congruent	Block2	congruent/STIM_007.jpg
1835.269	0.77	1	congruent	Block2	congruent/STIM_007.jpg
1838.609	0.672	1	congruent	Block2	congruent/STIM_007.jpg
1841.614	0.594	1	congruent	Block2	congruent/STIM_007.jpg
1844.371	0.799	1	congruent	Block2	congruent/STIM_008.jpg
1848.852	0.6	1	congruent	Block2	congruent/STIM_008.jpg
1852.186	0.568	1	congruent	Block2	congruent/STIM_008.jpg
1854.936	0.717	1	congruent	Block2	congruent/STIM_008.jpg
1859.217	0.762	1	congruent	Block2	congruent/STIM_008.jpg
1863.75	0.804	1	congruent	Block2	congruent/STIM_009.jpg
1866.587	0.532	1	congruent	Block2	congruent/STIM_009.jpg
1870.184	0.69	1	congruent	Block2	congruent/STIM_009.jpg
1872.955	0.648	1	congruent	Block2	congruent/STIM_009.jpg
1876.083	0.815	1	congruent	Block2	congruent/STIM_009.jpg
1879.051	0.63	1	congruent	Block2	congruent/STIM_010.jpg
1882.843	0.547	1	congruent	Block2	congruent/STIM_010.jpg
1886.645	0.727	1	congruent	Block2	congruent/STIM_010.jpg
1891.022	0.805	1	congruent	Block2	congruent/STIM_010.jpg
1895.715	0.585	1	congruent	Block2	congruent/STIM_010.jpg
1898.983	0.705	0	congruent	Block2	congruent/STIM_011.jpg
1902.691	0.766	1	congruent	Block2	congruent/STIM_011.jpg
1907.093	0.704	1	congruent	Block2	congruent/STIM_011.jpg
1911.151	0.514	1	congruent	Block2	congruent/STIM_011.jpg
1914.028	0.626	1	congruent	Block2	congruent/STIM_011.jpg
1917.09	0.574	1	congruent	Block2	congruent/STIM_012.jpg
1920.594	0.699	1	congruent	Block2	congruent/STIM_012.jpg
1924.571	0.515	1	congruent	Block2	congruent/STIM_012.jpg
1928.78	0.478	0	congruent	Block2	congruent/STIM_012.jpg
1933.048	0.819	1	congruent	Block2	congruent/STIM_012.jpg
1936.919	0.538	1	congruent	Block2	congruent/STIM_013.jpg
1941.17	0.73	1	congruent	Block2	congruent/STIM_013.jpg
1944.019	0.822	1	congruent	Block2	congruent/STIM_013.jpg
1946.871	0.822	1	congruent	Block2	congruent/STIM_013.jpg
1951.052	0.513	1	congruent	Block2	congruent/STIM_013.jpg
1955.549	0.79	1	congruent	Block2	congruent/STIM_014.jpg
1959.976	0.553	1	congruent	Block2	congruent/STIM_014.jpg
1963.12	0.535	1	congruent	Block2	congruent/STIM_014.jpg
1965.768	0.792	1	congruent	Block2	congruent/STIM_014.jpg
1968.835	0.65	1	congruent	Block2	congruent/STIM_014.jpg
1973.102	0.805	1	congruent	Block2	congruent/STIM_015.jpg
1976.329	0.599	1	congruent	Block2	congruent/STIM_015.jpg
1979.137	0.707	0	congruent	Block2	congruent/STIM_015.jpg
1982.254	0.642	1	congruent	Block2	congruent/STIM_015.jpg
1985.878	0.575	1	congruent	Block2	congruent/STIM_015.jpg
1989.544	0.804	1	congruent	Block2	congruent/STIM_016.jpg
1994.298	0.641	1	congruent	Block2	congruent/STIM_016.jpg
1997.144	0.695	1	congruent	Block2	congruent/STIM_016.jpg
2001.21	0.745	1	congruent	Block2	congruent/STIM_016.jpg
2005.698	0.77	1	congruent	Block2	congruent/STIM_016.jpg
2010.023	0.612	1	congruent	Block2	congruent/STIM_017.jpg
2012.65	0.57	1	congruent	Block2	congruent/STIM_017.jpg
2016.903	0.484	1	congruent	Block2	congruent/STIM_017.jpg
2019.952	0.571	1	congruent	Block2	congruent/STIM_017.jpg
2023.539	0.832	1	congruent	Block2	congruent/STIM_017.jpg
2027.428	0.831	1	congruent	Block2	congruent/STIM_018.jpg
2030.899	0.478	1	congruent	Block2	congruent/STIM_018.jpg
2034.836	0.765	1	congruent	Block2	congruent/STIM_018.jpg
2038.836	0.769	1	congruent	Block2	congruent/STIM_018.jpg
2041.769	0.661	1	congruent	Block2	congruent/STIM_018.jpg
2046.035	0.632	1	congruent	Block2	congruent/STIM_019.jpg
2049.543	0.668	1	congruent	Block2	congruent/STIM_019.jpg
2053.218	0.537	1	congruent	Block2	congruent/STIM_019.jpg
2056.316	0.74	0	congruent	Block2	congruent/STIM_019.jpg
2060.674	0.621	1	congruent	Block2	congruent/STIM_019.jpg
2064.411	0.551	1	congruent	Block2	congruent/STIM_020.jpg
2068.232	0.53	1	congruent	Block2	congruent/STIM_020.jpg
2071.065	0.832	1	congruent	Block2	congruent/STIM_020.jpg
2074.886	0.56	1	congruent	Block2	congruent/STIM_020.jpg
2078.722	0.62	1	congruent	Block2	congruent/STIM_020.jpg
2082.49	0.703	1	congruent	Block2	congruent/STIM_021.jpg
2085.873	0.726	1	congruent	Block2	congruent/STIM_021.jpg
2089.994	0.535	1	congruent	Block2	congruent/STIM_021.jpg
2093.43	0.765	1	congruent	Block2	congruent/STIM_021.jpg
2097.577	0.511	1	congruent	Block2	congruent/STIM_021.jpg
2101.256	0.753	0	congruent	Block2	congruent/STIM_022.jpg
2104.918	0.618	1	congruent	Block2	congruent/STIM_022.jpg
2109.165	0.79	1	congruent	Block2	congruent/STIM_022.jpg
2113.024	0.595	1	congruent	Block2	congruent/STIM_022.jpg
2117.319	0.574	1	congruent	Block2	congruent/STIM_022.jpg
2120.477	0.723	1	congruent	Block2	congruent/STIM_023.jpg
2123.934	0.686	1	congruent	Block2	congruent/STIM_023.jpg
2128.371	0.585	1	congruent	Block2	congruent/STIM_023.jpg
2131.074	0.795	1	congruent	Block2	congruent/STIM_023.jpg
2135.797	0.546	1	congruent	Block2	congruent/STIM_023.jpg
2138.655	0.8	1	congruent	Block2	congruent/STIM_024.jpg
2142.798	0.802	1	congruent	Block2	congruent/STIM_024.jpg
2146.046	0.499	1	congruent	Block2	congruent/STIM_024.jpg
2149.522	0.52	1	congruent	Block2	congruent/STIM_024.jpg
2153.304	0.53	1	congruent	Block2	congruent/STIM_024.jpg
2156.565	0.482	1	congruent	Block2	congruent/STIM_025.jpg
2160.547	0.645	1	congruent	Block2	congruent/STIM_025.jpg
2164.025	0.716	1	congruent	Block2	congruent/STIM_025.jpg
2167.871	0.498	1	congruent	Block2	congruent/STIM_025.jpg
2170.811	0.583	1	congruent	Block2	congruent/STIM_025.jpg
2174.515	0.48	1	congruent	Block2	congruent/STIM_026.jpg
2177.15	0.481	1	congruent	Block2	congruent/STIM_026.jpg
2181.199	0.635	1	congruent	Block2	congruent/STIM_026.jpg
2183.988	0.51	1	congruent	Block2	congruent/STIM_026.jpg
2187.51	0.666	1	congruent	Block2	congruent/STIM_026.jpg
2190.722	0.642	1	congruent	Block2	congruent/STIM_027.jpg
2195.083	0.613	1	congruent	Block2	congruent/STIM_027.jpg
2199.298	0.682	1	congruent	Block2	congruent/STIM_027.jpg
2202.368	0.506	1	congruent	Block2	congruent/STIM_027.jpg
2206.522	0.514	1	congruent	Block2	congruent/STIM_027.jpg
2209.555	0.524	1	congruent	Block2	congruent/STIM_028.jpg
2213.332	0.702	1	congruent	Block2	congruent/STIM_028.jpg
2217.082	0.674	1	congruent	Block2	congruent/STIM_028.jpg
2220.819	0.844	1	congruent	Block2	congruent/STIM_028.jpg
2223.848	0.787	1	congruent	Block2	congruent/STIM_028.jpg
2228.16	0.581	1	congruent	Block2	congruent/STIM_029.jpg
2232.358	0.641	1	congruent	Block2	congruent/STIM_029.jpg
2236.33	0.476	1	congruent	Block2	congruent/STIM_029.jpg
2239.456	0.798	1	congruent	Block2	congruent/STIM_029.jpg
2242.393	0.747	1	congruent	Block2	congruent/STIM_029.jpg
2246.094	0.673	1	incongruent	Block3	incongruent/STIM_000.jpg
2249.437	0.883	1	incongruent	Block3	incongruent/STIM_000.jpg
2252.383	0.765	1	incongruent	Block3	incongruent/STIM_000.jpg
2255.88	0.704	1	incongruent	Block3	incongruent/STIM_000.jpg
2260.37	0.901	1	incongruent	Block3	incongruent/STIM_000.jpg
2264.649	0.645	1	incongruent	Block3	incongruent/STIM_001.jpg
2268.172	0.724	1	incongruent	Block3	incongruent/STIM_001.jpg
2271.119	0.766	1	incongruent	Block3	incongruent/STIM_001.jpg
2275.799	0.946	1	incongruent	Block3	incongruent/STIM_001.jpg
2278.89	0.924	1	incongruent	Block3	incongruent/STIM_001.jpg
2282.623	0.908	1	incongruent	Block3	incongruent/STIM_002.jpg
2285.779	0.641	1	incongruent	Block3	incongruent/STIM_002.jpg
2289.159	0.665	1	incongruent	Block3	incongruent/STIM_002.jpg
2292.216	0.552	1	incongruent	Block3	incongruent/STIM_002.jpg
2296.507	0.903	1	incongruent	Block3	incongruent/STIM_002.jpg
2299.889	0.751	1	incongruent	Block3	incongruent/STIM_003.jpg
2302.747	0.651	1	incongruent	Block3	incongruent/STIM_003.jpg
2306.519	0.775	1	incongruent	Block3	incongruent/STIM_003.jpg
2310.647	0.894	1	incongruent	Block3	incongruent/STIM_003.jpg
2314.337	0.97	1	incongruent	Block3	incongruent/STIM_003.jpg
2318.305	0.535	1	incongruent	Block3	incongruent/STIM_004.jpg
2321.0	0.55	1	incongruent	Block3	incongruent/STIM_004.jpg
2323.67	0.867	1	incongruent	Block3	incongruent/STIM_004.jpg
2327.035	0.637	1	incongruent	Block3	incongruent/STIM_004.jpg
2330.418	0.795	1	incongruent	Block3	incongruent/STIM_004.jpg
2334.607	0.675	1	incongruent	Block3	incongruent/STIM_005.jpg
2337.803	0.497	1	incongruent	Block3	incongruent/STIM_005.jpg
2340.327	0.915	1	incongruent	Block3	incongruent/STIM_005.jpg
2344.141	0.743	1	incongruent	Block3	incongruent/STIM_005.jpg
2348.641	0.704	1	incongruent	Block3	incongruent/STIM_005.jpg
2352.701	0.576	1	incongruent	Block3	incongruent/STIM_006.jpg
2355.973	0.987	1	incongruent	Block3	incongruent/STIM_006.jpg
2360.23	0.925	1	incongruent	Block3	incongruent/STIM_006.jpg
2363.879	0.741	1	incongruent	Block3	incongruent/STIM_006.jpg
2366.683	0.548	1	incongruent	Block3	incongruent/STIM_006.jpg
2370.854	0.702	1	incongruent	Block3	incongruent/STIM_007.jpg
2374.215	0.96	1	incongruent	Block3	incongruent/STIM_007.jpg
2377.691	0.91	1	incongruent	Block3	incongruent/STIM_007.jpg
2381.134	0.677	1	incongruent	Block3	incongruent/STIM_007.jpg
2384.526	0.919	1	incongruent	Block3	incongruent/STIM_007.jpg
2389.295	0.532	1	incongruent	Block3	incongruent/STIM_008.jpg
2393.583	0.762	1	incongruent	Block3	incongruent/STIM_008.jpg
2396.667	0.676	1	incongruent	Block3	incongruent/STIM_008.jpg
2399.966	0.536	1	incongruent	Block3	incongruent/STIM_008.jpg
2403.515	0.473	1	incongruent	Block3	incongruent/STIM_008.jpg
2407.52	0.757	1	incongruent	Block3	incongruent/STIM_009.jpg
2411.805	0.835	1	incongruent	Block3	incongruent/STIM_009.jpg
2414.922	0.821	1	incongruent	Block3	incongruent/STIM_009.jpg
2418.404	0.917	1	incongruent	Block3	incongruent/STIM_009.jpg
2423.141	0.542	1	incongruent	Block3	incongruent/STIM_009.jpg
2426.241	0.912	1	incongruent	Block3	incongruent/STIM_010.jpg
2430.754	0.572	1	incongruent	Block3	incongruent/STIM_010.jpg
2433.757	0.548	1	incongruent	Block3	incongruent/STIM_010.jpg
2437.942	0.755	1	incongruent	Block3	incongruent/STIM_010.jpg
2441.076	0.894	1	incongruent	Block3	incongruent/STIM_010.jpg
2445.252	0.945	1	incongruent	Block3	incongruent/STIM_011.jpg
2449.602	0.741	1	incongruent	Block3	incongruent/STIM_011.jpg
2453.14	0.772	1	incongruent	Block3	incongruent/STIM_011.jpg
2456.385	0.674	1	incongruent	Block3	incongruent/STIM_011.jpg
2459.92	0.978	1	incongruent	Block3	incongruent/STIM_011.jpg
2464.159	0.729	1	incongruent	Block3	incongruent/STIM_012.jpg
2467.712	0.854	1	incongruent	Block3	incongruent/STIM_012.jpg
2470.573	0.569	1	incongruent	Block3	incongruent/STIM_012.jpg
2474.527	0.875	0	incongruent	Block3	incongruent/STIM_012.jpg
2479.037	0.587	1	incongruent	Block3	incongruent/STIM_012.jpg
2483.52	0.759	1	incongruent	Block3	incongruent/STIM_013.jpg
2487.405	0.78	1	incongruent	Block3	incongruent/STIM_013.jpg
2492.134	0.932	1	incongruent	Block3	incongruent/STIM_013.jpg
2495.465	0.482	1	incongruent	Block3	incongruent/STIM_013.jpg
2499.239	0.634	1	incongruent	Block3	incongruent/STIM_013.jpg
2502.58	0.501	1	incongruent	Block3	incongruent/STIM_014.jpg
2506.554	0.505	1	incongruent	Block3	incongruent/STIM_014.jpg
2510.281	0.799	1	incongruent	Block3	incongruent/STIM_014.jpg
2514.794	0.968	1	incongruent	Block3	incongruent/STIM_014.jpg
2519.17	0.973	1	incongruent	Block3	incongruent/STIM_014.jpg
2523.249	0.927	1	incongruent	Block3	incongruent/STIM_015.jpg
2527.319	0.498	1	incongruent	Block3	incongruent/STIM_015.jpg
2529.967	0.862	1	incongruent	Block3	incongruent/STIM_015.jpg
2533.833	0.944	0	incongruent	Block3	incongruent/STIM_015.jpg
2537.164	0.472	1	incongruent	Block3	incongruent/STIM_015.jpg
2540.99	0.55	0	incongruent	Block3	incongruent/STIM_016.jpg
2543.696	0.887	1	incongruent	Block3	incongruent/STIM_016.jpg
2547.489	0.517	1	incongruent	Block3	incongruent/STIM_016.jpg
2550.638	0.736	1	incongruent	Block3	incongruent/STIM_016.jpg
2554.255	0.811	1	incongruent	Block3	incongruent/STIM_016.jpg
2557.303	0.548	1	incongruent	Block3	incongruent/STIM_017.jpg
2560.095	0.638	1	incongruent	Block3	incongruent/STIM_017.jpg
2563.045	0.538	1	incongruent	Block3	incongruent/STIM_017.jpg
2565.74	0.973	1	incongruent	Block3	incongruent/STIM_017.jpg
2569.029	0.824	1	incongruent	Block3	incongruent/STIM_017.jpg
2573.77	0.552	1	incongruent	Block3	incongruent/STIM_018.jpg
2578.027	0.573	1	incongruent	Block3	incongruent/STIM_018.jpg
2580.683	0.828	1	incongruent	Block3	incongruent/STIM_018.jpg
2584.798	0.482	1	incongruent	Block3	incongruent/STIM_018.jpg
2588.507	0.555	1	incongruent	Block3	incongruent/STIM_018.jpg
2592.398	0.68	1	incongruent	Block3	incongruent/STIM_019.jpg
2595.632	0.71	1	incongruent	Block3	incongruent/STIM_019.jpg
2599.812	0.776	1	incongruent	Block3	incongruent/STIM_019.jpg
2604.009	0.672	1	incongruent	Block3	incongruent/STIM_019.jpg
2607.745	0.979	1	incongruent	Block3	incongruent/STIM_019.jpg
2612.052	0.847	1	incongruent	Block3	incongruent/STIM_020.jpg
2616.304	0.51	1	incongruent	Block3	incongruent/STIM_020.jpg
2620.675	0.683	1	incongruent	Block3	incongruent/STIM_020.jpg
2624.308	0.652	1	incongruent	Block3	incongruent/STIM_020.jpg
2627.939	0.645	1	incongruent	Block3	incongruent/STIM_020.jpg
2631.174	0.785	1	incongruent	Block3	incongruent/STIM_021.jpg
2635.215	0.626	1	incongruent	Block3	incongruent/STIM_021.jpg
2637.91	0.741	1	incongruent	Block3	incongruent/STIM_021.jpg
2640.795	0.718	1	incongruent	Block3	incongruent/STIM_021.jpg
2645.439	0.921	1	incongruent	Block3	incongruent/STIM_021.jpg
2649.29	0.97	1	incongruent	Block3	incongruent/STIM_022.jpg
2653.865	0.831	1	incongruent	Block3	incongruent/STIM_022.jpg
2657.272	0.682	1	incongruent	Block3	incongruent/STIM_022.jpg
2660.828	0.758	1	incongruent	Block3	incongruent/STIM_022.jpg
2665.033	0.74	1	incongruent	Block3	incongruent/STIM_022.jpg
2667.956	0.759	1	incongruent	Block3	incongruent/STIM_023.jpg
2671.188	0.642	1	incongruent	Block3	incongruent/STIM_023.jpg
2674.847	0.464	1	incongruent	Block3	incongruent/STIM_023.jpg
2677.994	0.514	1	incongruent	Block3	incongruent/STIM_023.jpg
2680.672	0.758	1	incongruent	Block3	incongruent/STIM_023.jpg
2683.599	0.47	1	incongruent	Block3	incongruent/STIM_024.jpg
2686.737	0.87	1	incongruent	Block3	incongruent/STIM_024.jpg
2690.804	0.671	1	incongruent	Block3	incongruent/STIM_024.jpg
2694.161	0.632	1	incongruent	Block3	incongruent/STIM_024.jpg
2697.85	0.818	1	incongruent	Block3	incongruent/STIM_024.jpg
2701.39	0.556	1	incongruent	Block3	incongruent/STIM_025.jpg
2704.614	0.496	1	incongruent	Block3	incongruent/STIM_025.jpg
2708.146	0.915	1	incongruent	Block3	incongruent/STIM_025.jpg
2712.358	0.52	1	incongruent	Block3	incongruent/STIM_025.jpg
2715.154	0.782	1	incongruent	Block3	incongruent/STIM_025.jpg
2717.95	0.538	1	incongruent	Block3	incongruent/STIM_026.jpg
2721.508	0.926	1	incongruent	Block3	incongruent/STIM_026.jpg
2724.956	0.665	1	incongruent	Block3	incongruent/STIM_026.jpg
2727.938	0.916	1	incongruent	Block3	incongruent/STIM_026.jpg
2732.802	0.678	1	incongruent	Block3	incongruent/STIM_026.jpg
2735.888	0.756	1	incongruent	Block3	incongruent/STIM_027.jpg
2740.592	0.559	1	incongruent	Block3	incongruent/STIM_027.jpg
2744.653	0.608	1	incongruent	Block3	incongruent/STIM_027.jpg
2747.876	0.486	1	incongruent	Block3	incongruent/STIM_027.jpg
2751.507	0.461	1	incongruent	Block3	incongruent/STIM_027.jpg
2754.28	0.551	1	incongruent	Block3	incongruent/STIM_028.jpg
2757.017	0.646	1	incongruent	Block3	incongruent/STIM_028.jpg
2760.274	0.533	1	incongruent	Block3	incongruent/STIM_028.jpg
2764.747	0.469	1	incongruent	Block3	incongruent/STIM_028.jpg
2768.237	0.784	1	incongruent	Block3	incongruent/STIM_028.jpg
2772.284	0.741	1	incongruent	Block3	incongruent/STIM_029.jpg
2776.344	0.937	1	incongruent	Block3	incongruent/STIM_029.jpg
2780.167	0.477	1	incongruent	Block3	incongruent/STIM_029.jpg
2782.985	0.735	1	incongruent	Block3	incongruent/STIM_029.jpg
2786.356	0.951	1	incongruent	Block3	incongruent/STIM_029.jpg
2789.467	0.508	1	congruent	Block3	congruent/STIM_000.jpg
2792.005	0.561	1	congruent	Block3	congruent/STIM_000.jpg
2795.747	0.708	1	congruent	Block3	congruent/STIM_000.jpg
2798.576	0.622	1	congruent	Block3	congruent/STIM_000.jpg
2802.613	0.732	1	congruent	Block3	congruent/STIM_000.jpg
2806.779	0.778	1	congruent	Block3	congruent/STIM_001.jpg
2809.864	0.546	1	congruent	Block3	congruent/STIM_001.jpg
2813.886	0.786	0	congruent	Block3	congruent/STIM_001.jpg
2817.32	0.816	1	congruent	Block3	congruent/STIM_001.jpg
2822.075	0.553	1	congruent	Block3	congruent/STIM_001.jpg
2824.682	0.814	1	congruent	Block3	congruent/STIM_002.jpg
2828.104	0.589	1	congruent	Block3	congruent/STIM_002.jpg
2832.448	0.495	1	congruent	Block3	congruent/STIM_002.jpg
2835.294	0.643	1	congruent	Block3	congruent/STIM_002.jpg
2839.252	0.539	1	congruent	Block3	congruent/STIM_002.jpg
2843.565	0.682	1	congruent	Block3	congruent/STIM_003.jpg
2847.733	0.652	1	congruent	Block3	congruent/STIM_003.jpg
2852.248	0.528	1	congruent	Block3	congruent/STIM_003.jpg
2855.201	0.682	1	congruent	Block3	congruent/STIM_003.jpg
2858.389	0.673	1	congruent	Block3	congruent/STIM_003.jpg
2862.112	0.711	1	congruent	Block3	congruent/STIM_004.jpg
2866.124	0.658	1	congruent	Block3	congruent/STIM_004.jpg
2869.691	0.77	1	congruent	Block3	congruent/STIM_004.jpg
2873.67	0.614	1	congruent	Block3	congruent/STIM_004.jpg
2878.173	0.615	1	congruent	Block3	congruent/STIM_004.jpg
2882.281	0.823	1	congruent	Block3	congruent/STIM_005.jpg
2886.107	0.682	1	congruent	Block3	congruent/STIM_005.jpg
2890.236	0.663	1	congruent	Block3	congruent/STIM_005.jpg
2894.24	0.706	1	congruent	Block3	congruent/STIM_005.jpg
2897.092	0.748	1	congruent	Block3	congruent/STIM_005.jpg
2899.842	0.538	1	congruent	Block3	congruent/STIM_006.jpg
2903.319	0.738	1	congruent	Block3	congruent/STIM_006.jpg
2907.771	0.612	1	congruent	Block3	congruent/STIM_006.jpg
2911.529	0.771	1	congruent	Block3	congruent/STIM_006.jpg
2914.822	0.581	1	congruent	Block3	congruent/STIM_006.jpg
2918.135	0.701	1	congruent	Block3	congruent/STIM_007.jpg
2921.469	0.478	1	congruent	Block3	congruent/STIM_007.jpg
2924.545	0.818	1	congruent	Block3	congruent/STIM_007.jpg
2929.045	0.747	1	congruent	Block3	congruent/STIM_007.jpg
2932.532	0.731	1	congruent	Block3	congruent/STIM_007.jpg
2935.888	0.596	1	congruent	Block3	congruent/STIM_008.jpg
2939.911	0.547	0	congruent	Block3	congruent/STIM_008.jpg
2942.628	0.819	1	congruent	Block3	congruent/STIM_008.jpg
2946.346	0.8	1	congruent	Block3	congruent/STIM_008.jpg
2949.403	0.637	1	congruent	Block3	congruent/STIM_008.jpg
2952.262	0.584	1	congruent	Block3	congruent/STIM_009.jpg
2955.122	0.694	1	congruent	Block3	congruent/STIM_009.jpg
2958.405	0.606	1	congruent	Block3	congruent/STIM_009.jpg
2961.488	0.546	1	congruent	Block3	congruent/STIM_009.jpg
2964.802	0.479	1	congruent	Block3	congruent/STIM_009.jpg
2968.011	0.579	1	congruent	Block3	congruent/STIM_010.jpg
2971.151	0.724	1	congruent	Block3	congruent/STIM_010.jpg
2973.976	0.777	1	congruent	Block3	congruent/STIM_010.jpg
2978.502	0.69	1	congruent	Block3	congruent/STIM_010.jpg
2982.636	0.655	1	congruent	Block3	congruent/STIM_010.jpg
2985.393	0.482	1	congruent	Block3	congruent/STIM_011.jpg
2989.27	0.516	1	congruent	Block3	congruent/STIM_011.jpg
2993.163	0.584	1	congruent	Block3	congruent/STIM_011.jpg
2996.624	0.575	1	congruent	Block3	congruent/STIM_011.jpg
2999.953	0.812	0	congruent	Block3	congruent/STIM_011.jpg
3003.681	0.729	1	congruent	Block3	congruent/STIM_012.jpg
3007.188	0.546	1	congruent	Block3	congruent/STIM_012.jpg
3010.79	0.581	1	congruent	Block3	congruent/STIM_012.jpg
3013.764	0.669	1	congruent	Block3	congruent/STIM_012.jpg
3018.027	0.616	1	congruent	Block3	congruent/STIM_012.jpg
3022.601	0.482	1	congruent	Block3	congruent/STIM_013.jpg
3026.386	0.761	1	congruent	Block3	congruent/STIM_013.jpg
3029.692	0.494	1	congruent	Block3	congruent/STIM_013.jpg
3032.94	0.62	1	congruent	Block3	congruent/STIM_013.jpg
3035.912	0.821	1	congruent	Block3	congruent/STIM_013.jpg
3038.969	0.816	1	congruent	Block3	congruent/STIM_014.jpg
3043.215	0.62	1	congruent	Block3	congruent/STIM_014.jpg
3046.057	0.521	1	congruent	Block3	congruent/STIM_014.jpg
3049.806	0.651	1	congruent	Block3	congruent/STIM_014.jpg
3054.397	0.761	1	congruent	Block3	congruent/STIM_014.jpg
3058.402	0.559	1	congruent	Block3	congruent/STIM_015.jpg
3061.583	0.696	1	congruent	Block3	congruent/STIM_015.jpg
3066.244	0.562	1	congruent	Block3	congruent/STIM_015.jpg
3069.357	0.515	1	congruent	Block3	congruent/STIM_015.jpg
3073.824	0.712	0	congruent	Block3	congruent/STIM_015.jpg
3078.387	0.723	1	congruent	Block3	congruent/STIM_016.jpg
3083.01	0.763	1	congruent	Block3	congruent/STIM_016.jpg
3087.519	0.491	1	congruent	Block3	congruent/STIM_016.jpg
3090.425	0.81	1	congruent	Block3	congruent/STIM_016.jpg
3094.897	0.613	1	congruent	Block3	congruent/STIM_016.jpg
3098.351	0.716	1	congruent	Block3	congruent/STIM_017.jpg
3101.949	0.814	1	congruent	Block3	congruent/STIM_017.jpg
3106.318	0.65	1	congruent	Block3	congruent/STIM_017.jpg
3110.213	0.585	1	congruent	Block3	congruent/STIM_017.jpg
3114.762	0.827	1	congruent	Block3	congruent/STIM_017.jpg
3119.177	0.582	1	congruent	Block3	congruent/STIM_018.jpg
3123.231	0.494	1	congruent	Block3	congruent/STIM_018.jpg
3126.239	0.629	1	congruent	Block3	congruent/STIM_018.jpg
3128.981	0.615	1	congruent	Block3	congruent/STIM_018.jpg
3133.487	0.767	1	congruent	Block3	congruent/STIM_018.jpg
3136.513	0.639	1	congruent	Block3	congruent/STIM_019.jpg
3140.122	0.84	1	congruent	Block3	congruent/STIM_019.jpg
3143.575	0.558	1	congruent	Block3	congruent/STIM_019.jpg
3147.672	0.8	1	congruent	Block3	congruent/STIM_019.jpg
3152.045	0.633	1	congruent	Block3	congruent/STIM_019.jpg
3155.919	0.764	1	congruent	Block3	congruent/STIM_020.jpg
3158.693	0.492	1	congruent	Block3	congruent/STIM_020.jpg
3161.699	0.756	1	congruent	Block3	congruent/STIM_020.jpg
3166.093	0.592	1	congruent	Block3	congruent/STIM_020.jpg
3169.58	0.798	1	congruent	Block3	congruent/STIM_020.jpg
3172.479	0.748	1	congruent	Block3	congruent/STIM_021.jpg
3175.845	0.55	1	congruent	Block3	congruent/STIM_021.jpg
3179.625	0.532	1	congruent	Block3	congruent/STIM_021.jpg
3183.698	0.526	1	congruent	Block3	congruent/STIM_021.jpg
3187.394	0.703	0	congruent	Block3	congruent/STIM_021.jpg
3190.761	0.798	1	congruent	Block3	congruent/STIM_022.jpg
3194.271	0.625	1	congruent	Block3	congruent/STIM_022.jpg
3198.637	0.83	1	congruent	Block3	congruent/STIM_022.jpg
3202.743	0.621	1	congruent	Block3	congruent/STIM_022.jpg
3206.831	0.661	1	congruent	Block3	congruent/STIM_022.jpg
3211.148	0.538	1	congruent	Block3	congruent/STIM_023.jpg
3214.727	0.661	1	congruent	Block3	congruent/STIM_023.jpg
3218.443	0.628	1	congruent	Block3	congruent/STIM_023.jpg
3221.584	0.837	1	congruent	Block3	congruent/STIM_023.jpg
3225.53	0.612	1	congruent	Block3	congruent/STIM_023.jpg
3229.662	0.705	1	congruent	Block3	congruent/STIM_024.jpg
3234.303	0.723	1	congruent	Block3	congruent/STIM_024.jpg
3237.726	0.543	1	congruent	Block3	congruent/STIM_024.jpg
3240.71	0.594	1	congruent	Block3	congruent/STIM_024.jpg
3245.213	0.622	1	congruent	Block3	congruent/STIM_024.jpg
3248.244	0.524	1	congruent	Block3	congruent/STIM_025.jpg
3251.667	0.717	1	congruent	Block3	congruent/STIM_025.jpg
3256.179	0.741	1	congruent	Block3	congruent/STIM_025.jpg
3259.336	0.575	1	congruent	Block3	congruent/STIM_025.jpg
3263.186	0.637	1	congruent	Block3	congruent/STIM_025.jpg
3266.657	0.594	1	congruent	Block3	congruent/STIM_026.jpg
3270.668	0.81	1	congruent	Block3	congruent/STIM_026.jpg
3275.02	0.556	1	congruent	Block3	congruent/STIM_026.jpg
3278.456	0.622	1	congruent	Block3	congruent/STIM_026.jpg
3282.796	0.665	1	congruent	Block3	congruent/STIM_026.jpg
3285.907	0.801	1	congruent	Block3	congruent/STIM_027.jpg
3288.755	0.825	1	congruent	Block3	congruent/STIM_027.jpg
3293.557	0.536	1	congruent	Block3	congruent/STIM_027.jpg
3297.935	0.76	1	congruent	Block3	congruent/STIM_027.jpg
3302.342	0.824	1	congruent	Block3	congruent/STIM_027.jpg
3306.039	0.576	1	congruent	Block3	congruent/STIM_028.jpg
3310.344	0.793	1	congruent	Block3	congruent/STIM_028.jpg
3315.134	0.552	1	congruent	Block3	congruent/STIM_028.jpg
3318.876	0.75	1	congruent	Block3	congruent/STIM_028.jpg
3323.304	0.49	1	congruent	Block3	congruent/STIM_028.jpg
3326.207	0.704	1	congruent	Block3	congruent/STIM_029.jpg
3329.105	0.748	1	congruent	Block3	congruent/STIM_029.jpg
3333.634	0.5	1	congruent	Block3	congruent/STIM_029.jpg
3336.501	0.632	1	congruent	Block3	congruent/STIM_029.jpg
3339.359	0.674	1	congruent	Block3	congruent/STIM_029.jpg
