onset	duration	accuracy_binary	trial_type	learning_stage	stimulus
0.0	0.828	1	incongruent	Block1	incongruent/STIM_000.jpg
3.823	1.07	0	incongruent	Block1	incongruent/STIM_000.jpg
8.838	1.249	1	incongruent	Block1	incongruent/STIM_000.jpg
13.046	0.554	1	incongruent	Block1	incongruent/STIM_000.jpg
17.749	0.672	1	incongruent	Block1	incongruent/STIM_000.jpg
21.383	1.166	1	incongruent	Block1	incongruent/STIM_001.jpg
25.671	0.668	1	incongruent	Block1	incongruent/STIM_001.jpg
29.678	0.778	1	incongruent	Block1	incongruent/STIM_001.jpg
32.859	0.77	1	incongruent	Block1	incongruent/STIM_001.jpg
37.067	0.897	1	incongruent	Block1	incongruent/STIM_001.jpg
41.833	1.202	1	incongruent	Block1	incongruent/STIM_002.jpg
46.493	0.948	1	incongruent	Block1	incongruent/STIM_002.jpg
50.061	0.787	1	incongruent	Block1	incongruent/STIM_002.jpg
54.297	0.699	1	incongruent	Block1	incongruent/STIM_002.jpg
57.087	0.858	1	incongruent	Block1	incongruent/STIM_002.jpg
61.071	1.182	1	incongruent	Block1	incongruent/STIM_003.jpg
66.269	0.739	1	incongruent	Block1	incongruent/STIM_003.jpg
70.306	0.852	1	incongruent	Block1	incongruent/STIM_003.jpg
74.194	0.748	1	incongruent	Block1	incongruent/STIM_003.jpg
78.743	0.465	1	incongruent	Block1	incongruent/STIM_003.jpg
81.879	0.968	1	incongruent	Block1	incongruent/STIM_004.jpg
85.221	0.736	1	incongruent	Block1	incongruent/STIM_004.jpg
89.176	0.709	1	incongruent	Block1	incongruent/STIM_004.jpg
93.368	0.99	1	incongruent	Block1	incongruent/STIM_004.jpg
96.754	0.961	1	incongruent	Block1	incongruent/STIM_004.jpg
101.519	0.862	1	incongruent	Block1	incongruent/STIM_005.jpg
105.58	0.84	1	incongruent	Block1	incongruent/STIM_005.jpg
109.875	1.126	1	incongruent	Block1	incongruent/STIM_005.jpg
113.934	1.193	1	incongruent	Block1	incongruent/STIM_005.jpg
118.583	0.481	1	incongruent	Block1	incongruent/STIM_005.jpg
121.373	0.836	1	incongruent	Block1	incongruent/STIM_006.jpg
124.609	0.92	0	incongruent	Block1	incongruent/STIM_006.jpg
128.491	0.767	1	incongruent	Block1	incongruent/STIM_006.jpg
131.921	0.836	1	incongruent	Block1	incongruent/STIM_006.jpg
136.682	0.894	1	incongruent	Block1	incongruent/STIM_006.jpg
139.734	1.229	1	incongruent	Block1	incongruent/STIM_007.jpg
143.306	0.594	1	incongruent	Block1	incongruent/STIM_007.jpg
147.678	0.777	1	incongruent	Block1	incongruent/STIM_007.jpg
150.947	0.919	0	incongruent	Block1	incongruent/STIM_007.jpg
154.984	0.469	1	incongruent	Block1	incongruent/STIM_007.jpg
157.757	1.279	0	incongruent	Block1	incongruent/STIM_008.jpg
161.656	1.064	1	incongruent	Block1	incongruent/STIM_008.jpg
166.799	1.033	1	incongruent	Block1	incongruent/STIM_008.jpg
170.987	0.961	1	incongruent	Block1	incongruent/STIM_008.jpg
175.407	0.905	1	incongruent	Block1	incongruent/STIM_008.jpg
179.084	1.241	1	incongruent	Block1	incongruent/STIM_009.jpg
184.056	1.158	1	incongruent	Block1	incongruent/STIM_009.jpg
187.909	0.771	1	incongruent	Block1	incongruent/STIM_009.jpg
191.87	0.846	0	incongruent	Block1	incongruent/STIM_009.jpg
196.725	0.868	1	incongruent	Block1	incongruent/STIM_009.jpg
201.292	1.216	1	incongruent	Block1	incongruent/STIM_010.jpg
205.125	1.093	1	incongruent	Block1	incongruent/STIM_010.jpg
209.29	0.793	1	incongruent	Block1	incongruent/STIM_010.jpg
212.533	1.019	1	incongruent	Block1	incongruent/STIM_010.jpg
216.342	0.578	1	incongruent	Block1	incongruent/STIM_010.jpg
219.965	0.853	1	incongruent	Block1	incongruent/STIM_011.jpg
223.495	0.738	1	incongruent	Block1	incongruent/STIM_011.jpg
227.66	0.579	1	incongruent	Block1	incongruent/STIM_011.jpg
231.139	0.768	1	incongruent	Block1	incongruent/STIM_011.jpg
234.941	0.668	1	incongruent	Block1	incongruent/STIM_011.jpg
239.455	0.967	1	incongruent	Block1	incongruent/STIM_012.jpg
243.912	0.943	1	incongruent	Block1	incongruent/STIM_012.jpg
248.089	0.493	1	incongruent	Block1	incongruent/STIM_012.jpg
251.747	0.62	1	incongruent	Block1	incongruent/STIM_012.jpg
254.504	0.668	1	incongruent	Block1	incongruent/STIM_012.jpg
258.164	0.696	1	incongruent	Block1	incongruent/STIM_013.jpg
261.313	0.569	1	incongruent	Block1	incongruent/STIM_013.jpg
265.244	1.121	1	incongruent	Block1	incongruent/STIM_013.jpg
269.682	0.518	1	incongruent	Block1	incongruent/STIM_013.jpg
272.956	0.604	1	incongruent	Block1	incongruent/STIM_013.jpg
277.02	0.739	1	incongruent	Block1	incongruent/STIM_014.jpg
281.102	1.293	1	incongruent	Block1	incongruent/STIM_014.jpg
286.002	0.954	1	incongruent	Block1	incongruent/STIM_014.jpg
289.841	0.624	1	incongruent	Block1	incongruent/STIM_014.jpg
294.353	0.656	1	incongruent	Block1	incongruent/STIM_014.jpg
298.447	1.221	1	incongruent	Block1	incongruent/STIM_015.jpg
301.965	0.69	1	incongruent	Block1	incongruent/STIM_015.jpg
306.076	0.631	1	incongruent	Block1	incongruent/STIM_015.jpg
310.709	0.542	1	incongruent	Block1	incongruent/STIM_015.jpg
314.898	0.646	1	incongruent	Block1	incongruent/STIM_015.jpg
318.97	0.798	1	incongruent	Block1	incongruent/STIM_016.jpg
323.198	0.94	1	incongruent	Block1	incongruent/STIM_016.jpg
327.235	0.838	0	incongruent	Block1	incongruent/STIM_016.jpg
331.473	1.082	1	incongruent	Block1	incongruent/STIM_016.jpg
336.126	0.632	0	incongruent	Block1	incongruent/STIM_016.jpg
340.151	1.317	1	incongruent	Block1	incongruent/STIM_017.jpg
344.634	1.129	1	incongruent	Block1	incongruent/STIM_017.jpg
348.968	1.14	1	incongruent	Block1	incongruent/STIM_017.jpg
353.28	0.796	1	incongruent	Block1	incongruent/STIM_017.jpg
357.2	0.734	1	incongruent	Block1	incongruent/STIM_017.jpg
360.77	1.398	0	incongruent	Block1	incongruent/STIM_018.jpg
365.051	0.899	1	incongruent	Block1	incongruent/STIM_018.jpg
369.182	0.515	1	incongruent	Block1	incongruent/STIM_018.jpg
373.036	0.737	1	incongruent	Block1	incongruent/STIM_018.jpg
376.648	1.025	1	incongruent	Block1	incongruent/STIM_018.jpg
381.408	1.244	1	incongruent	Block1	incongruent/STIM_019.jpg
385.993	1.194	1	incongruent	Block1	incongruent/STIM_019.jpg
390.312	0.765	1	incongruent	Block1	incongruent/STIM_019.jpg
393.568	0.886	1	incongruent	Block1	incongruent/STIM_019.jpg
396.723	0.967	1	incongruent	Block1	incongruent/STIM_019.jpg
401.575	0.758	1	incongruent	Block1	incongruent/STIM_020.jpg
405.058	1.168	1	incongruent	Block1	incongruent/STIM_020.jpg
410.265	1.188	1	incongruent	Block1	incongruent/STIM_020.jpg
415.349	0.622	1	incongruent	Block1	incongruent/STIM_020.jpg
419.381	0.778	1	incongruent	Block1	incongruent/STIM_020.jpg
423.916	1.164	1	incongruent	Block1	incongruent/STIM_021.jpg
429.014	0.632	1	incongruent	Block1	incongruent/STIM_021.jpg
433.124	0.848	1	incongruent	Block1	incongruent/STIM_021.jpg
437.503	0.682	1	incongruent	Block1	incongruent/STIM_021.jpg
441.423	1.021	1	incongruent	Block1	incongruent/STIM_021.jpg
445.379	0.775	1	incongruent	Block1	incongruent/STIM_022.jpg
448.574	1.065	1	incongruent	Block1	incongruent/STIM_022.jpg
451.957	1.01	1	incongruent	Block1	incongruent/STIM_022.jpg
456.059	0.935	1	incongruent	Block1	incongruent/STIM_022.jpg
460.605	0.669	1	incongruent	Block1	incongruent/STIM_022.jpg
463.417	0.983	1	incongruent	Block1	incongruent/STIM_023.jpg
468.334	0.699	1	incongruent	Block1	incongruent/STIM_023.jpg
472.509	0.869	1	incongruent	Block1	incongruent/STIM_023.jpg
476.089	0.728	1	incongruent	Block1	incongruent/STIM_023.jpg
480.619	1.044	1	incongruent	Block1	incongruent/STIM_023.jpg
485.462	1.091	1	incongruent	Block1	incongruent/STIM_024.jpg
490.771	0.903	1	incongruent	Block1	incongruent/STIM_024.jpg
494.286	1.026	0	incongruent	Block1	incongruent/STIM_024.jpg
499.537	1.066	0	incongruent	Block1	incongruent/STIM_024.jpg
503.282	0.605	1	incongruent	Block1	incongruent/STIM_024.jpg
507.762	0.795	1	incongruent	Block1	incongruent/STIM_025.jpg
512.557	0.9	1	incongruent	Block1	incongruent/STIM_025.jpg
516.956	0.81	1	incongruent	Block1	incongruent/STIM_025.jpg
521.404	0.608	1	incongruent	Block1	incongruent/STIM_025.jpg
525.545	0.992	1	incongruent	Block1	incongruent/STIM_025.jpg
530.234	1.015	1	incongruent	Block1	incongruent/STIM_026.jpg
534.105	1.13	1	incongruent	Block1	incongruent/STIM_026.jpg
539.178	1.089	0	incongruent	Block1	incongruent/STIM_026.jpg
543.295	0.999	0	incongruent	Block1	incongruent/STIM_026.jpg
548.296	0.741	1	incongruent	Block1	incongruent/STIM_026.jpg
552.228	1.224	0	incongruent	Block1	incongruent/STIM_027.jpg
556.498	0.845	1	incongruent	Block1	incongruent/STIM_027.jpg
561.292	0.977	1	incongruent	Block1	incongruent/STIM_027.jpg
564.745	0.99	1	incongruent	Block1	incongruent/STIM_027.jpg
569.594	0.563	1	incongruent	Block1	incongruent/STIM_027.jpg
572.964	0.998	1	incongruent	Block1	incongruent/STIM_028.jpg
578.148	0.747	1	incongruent	Block1	incongruent/STIM_028.jpg
582.35	0.642	1	incongruent	Block1	incongruent/STIM_028.jpg
586.232	0.754	1	incongruent	Block1	incongruent/STIM_028.jpg
590.491	0.543	1	incongruent	Block1	incongruent/STIM_028.jpg
594.704	0.94	1	incongruent	Block1	incongruent/STIM_029.jpg
597.997	1.021	1	incongruent	Block1	incongruent/STIM_029.jpg
602.538	0.591	1	incongruent	Block1	incongruent/STIM_029.jpg
606.694	0.655	1	incongruent	Block1	incongruent/STIM_029.jpg
610.964	0.802	1	incongruent	Block1	incongruent/STIM_029.jpg
615.276	0.717	1	congruent	Block1	congruent/STIM_000.jpg
619.577	0.571	1	congruent	Block1	congruent/STIM_000.jpg
622.804	0.533	1	congruent	Block1	congruent/STIM_000.jpg
625.727	0.547	1	congruent	Block1	congruent/STIM_000.jpg
629.057	0.357	1	congruent	Block1	congruent/STIM_000.jpg
631.806	0.45	1	congruent	Block1	congruent/STIM_001.jpg
635.369	0.531	1	congruent	Block1	congruent/STIM_001.jpg
638.445	0.756	1	congruent	Block1	congruent/STIM_001.jpg
642.407	0.478	1	congruent	Block1	congruent/STIM_001.jpg
646.47	0.696	1	congruent	Block1	congruent/STIM_001.jpg
651.216	0.462	1	congruent	Block1	congruent/STIM_002.jpg
654.072	0.767	1	congruent	Block1	congruent/STIM_002.jpg
658.476	0.631	1	congruent	Block1	congruent/STIM_002.jpg
661.934	0.715	1	congruent	Block1	congruent/STIM_002.jpg
666.239	0.661	1	congruent	Block1	congruent/STIM_002.jpg
669.653	0.736	1	congruent	Block1	congruent/STIM_003.jpg
673.97	0.368	1	congruent	Block1	congruent/STIM_003.jpg
678.067	0.487	1	congruent	Block1	congruent/STIM_003.jpg
681.757	0.778	1	congruent	Block1	congruent/STIM_003.jpg
685.02	0.412	1	congruent	Block1	congruent/STIM_003.jpg
689.039	0.801	1	congruent	Block1	congruent/STIM_004.jpg
692.43	0.58	1	congruent	Block1	congruent/STIM_004.jpg
696.507	0.664	0	congruent	Block1	congruent/STIM_004.jpg
700.685	0.578	1	congruent	Block1	congruent/STIM_004.jpg
703.408	0.472	1	congruent	Block1	congruent/STIM_004.jpg
707.091	0.752	1	congruent	Block1	congruent/STIM_005.jpg
710.411	0.778	1	congruent	Block1	congruent/STIM_005.jpg
713.383	0.549	1	congruent	Block1	congruent/STIM_005.jpg
717.107	0.495	1	congruent	Block1	congruent/STIM_005.jpg
719.861	0.724	1	congruent	Block1	congruent/STIM_005.jpg
723.373	0.576	1	congruent	Block1	congruent/STIM_006.jpg
726.373	0.648	1	congruent	Block1	congruent/STIM_006.jpg
731.107	0.501	0	congruent	Block1	congruent/STIM_006.jpg
735.067	0.767	1	congruent	Block1	congruent/STIM_006.jpg
739.879	0.759	1	congruent	Block1	congruent/STIM_006.jpg
742.998	0.476	1	congruent	Block1	congruent/STIM_007.jpg
747.267	0.55	1	congruent	Block1	congruent/STIM_007.jpg
751.797	0.603	1	congruent	Block1	congruent/STIM_007.jpg
755.738	0.744	1	congruent	Block1	congruent/STIM_007.jpg
758.661	0.69	1	congruent	Block1	congruent/STIM_007.jpg
761.646	0.714	1	congruent	Block1	congruent/STIM_008.jpg
764.94	0.788	1	congruent	Block1	congruent/STIM_008.jpg
769.088	0.671	1	congruent	Block1	congruent/STIM_008.jpg
773.464	0.52	1	congruent	Block1	congruent/STIM_008.jpg
777.99	0.737	1	congruent	Block1	congruent/STIM_008.jpg
781.534	0.494	1	congruent	Block1	congruent/STIM_009.jpg
786.001	0.546	1	congruent	Block1	congruent/STIM_009.jpg
789.661	0.492	1	congruent	Block1	congruent/STIM_009.jpg
793.132	0.654	1	congruent	Block1	congruent/STIM_009.jpg
797.381	0.706	1	congruent	Block1	congruent/STIM_009.jpg
800.517	0.671	1	congruent	Block1	congruent/STIM_010.jpg
804.216	0.737	1	congruent	Block1	congruent/STIM_010.jpg
808.37	0.581	1	congruent	Block1	congruent/STIM_010.jpg
812.179	0.66	1	congruent	Block1	congruent/STIM_010.jpg
815.774	0.636	1	congruent	Block1	congruent/STIM_010.jpg
820.025	0.411	1	congruent	Block1	congruent/STIM_011.jpg
824.209	0.63	1	congruent	Block1	congruent/STIM_011.jpg
827.352	0.717	1	congruent	Block1	congruent/STIM_011.jpg
831.187	0.445	1	congruent	Block1	congruent/STIM_011.jpg
835.692	0.566	0	congruent	Block1	congruent/STIM_011.jpg
838.747	0.61	0	congruent	Block1	congruent/STIM_012.jpg
843.447	0.593	1	congruent	Block1	congruent/STIM_012.jpg
848.146	0.598	1	congruent	Block1	congruent/STIM_012.jpg
851.491	0.454	1	congruent	Block1	congruent/STIM_012.jpg
854.248	0.711	1	congruent	Block1	congruent/STIM_012.jpg
858.072	0.59	1	congruent	Block1	congruent/STIM_013.jpg
861.432	0.554	1	congruent	Block1	congruent/STIM_013.jpg
865.863	0.546	1	congruent	Block1	congruent/STIM_013.jpg
870.207	0.597	1	congruent	Block1	congruent/STIM_013.jpg
873.508	0.7	1	congruent	Block1	congruent/STIM_013.jpg
878.193	0.738	1	congruent	Block1	congruent/STIM_014.jpg
882.679	0.593	1	congruent	Block1	congruent/STIM_014.jpg
885.754	0.57	1	congruent	Block1	congruent/STIM_014.jpg
889.158	0.589	0	congruent	Block1	congruent/STIM_014.jpg
892.797	0.736	1	congruent	Block1	congruent/STIM_014.jpg
896.695	0.485	1	congruent	Block1	congruent/STIM_015.jpg
900.037	0.668	1	congruent	Block1	congruent/STIM_015.jpg
903.415	0.704	1	congruent	Block1	congruent/STIM_015.jpg
906.922	0.526	1	congruent	Block1	congruent/STIM_015.jpg
910.069	0.568	1	congruent	Block1	congruent/STIM_015.jpg
913.817	0.654	1	congruent	Block1	congruent/STIM_016.jpg
918.533	0.524	1	congruent	Block1	congruent/STIM_016.jpg
921.376	0.698	1	congruent	Block1	congruent/STIM_016.jpg
924.217	0.564	1	congruent	Block1	congruent/STIM_016.jpg
928.805	0.552	1	congruent	Block1	congruent/STIM_016.jpg
932.815	0.575	1	congruent	Block1	congruent/STIM_017.jpg
937.21	0.563	1	congruent	Block1	congruent/STIM_017.jpg
940.464	0.6	1	congruent	Block1	congruent/STIM_017.jpg
944.74	0.824	1	congruent	Block1	congruent/STIM_017.jpg
947.841	0.58	1	congruent	Block1	congruent/STIM_017.jpg
952.192	0.799	1	congruent	Block1	congruent/STIM_018.jpg
955.818	0.746	1	congruent	Block1	congruent/STIM_018.jpg
960.629	0.696	1	congruent	Block1	congruent/STIM_018.jpg
965.328	0.668	0	congruent	Block1	congruent/STIM_018.jpg
968.739	0.594	1	congruent	Block1	congruent/STIM_018.jpg
971.911	0.559	0	congruent	Block1	congruent/STIM_019.jpg
974.923	0.555	1	congruent	Block1	congruent/STIM_019.jpg
979.114	0.74	1	congruent	Block1	congruent/STIM_019.jpg
983.722	0.654	1	congruent	Block1	congruent/STIM_019.jpg
987.576	0.72	1	congruent	Block1	congruent/STIM_019.jpg
991.195	0.618	1	congruent	Block1	congruent/STIM_020.jpg
995.091	0.641	1	congruent	Block1	congruent/STIM_020.jpg
998.239	0.492	1	congruent	Block1	congruent/STIM_020.jpg
1002.176	0.507	1	congruent	Block1	congruent/STIM_020.jpg
1005.008	0.43	1	congruent	Block1	congruent/STIM_020.jpg
1008.049	0.535	1	congruent	Block1	congruent/STIM_021.jpg
1012.217	0.425	1	congruent	Block1	congruent/STIM_021.jpg
1015.892	0.537	1	congruent	Block1	congruent/STIM_021.jpg
1018.939	0.654	1	congruent	Block1	congruent/STIM_021.jpg
1023.263	0.547	0	congruent	Block1	congruent/STIM_021.jpg
1026.556	0.384	1	congruent	Block1	congruent/STIM_022.jpg
1030.377	0.707	1	congruent	Block1	congruent/STIM_022.jpg
1034.636	0.71	1	congruent	Block1	congruent/STIM_022.jpg
1038.901	0.582	1	congruent	Block1	congruent/STIM_022.jpg
1043.48	0.57	1	congruent	Block1	congruent/STIM_022.jpg
1047.961	0.54	1	congruent	Block1	congruent/STIM_023.jpg
1050.573	0.821	1	congruent	Block1	congruent/STIM_023.jpg
1055.189	0.653	1	congruent	Block1	congruent/STIM_023.jpg
1059.262	0.648	1	congruent	Block1	congruent/STIM_023.jpg
1063.411	0.558	1	congruent	Block1	congruent/STIM_023.jpg
1066.15	0.51	1	congruent	Block1	congruent/STIM_024.jpg
1069.462	0.601	1	congruent	Block1	congruent/STIM_024.jpg
1073.618	0.714	1	congruent	Block1	congruent/STIM_024.jpg
1077.064	0.751	1	congruent	Block1	congruent/STIM_024.jpg
1081.292	0.533	1	congruent	Block1	congruent/STIM_024.jpg
1084.616	0.778	1	congruent	Block1	congruent/STIM_025.jpg
1088.1	0.526	1	congruent	Block1	congruent/STIM_025.jpg
1092.654	0.646	1	congruent	Block1	congruent/STIM_025.jpg
1095.359	0.448	1	congruent	Block1	congruent/STIM_025.jpg
1098.703	0.692	1	congruent	Block1	congruent/STIM_025.jpg
1103.545	0.384	1	congruent	Block1	congruent/STIM_026.jpg
1106.555	0.66	1	congruent	Block1	congruent/STIM_026.jpg
1110.684	0.558	1	congruent	Block1	congruent/STIM_026.jpg
1114.377	0.722	1	congruent	Block1	congruent/STIM_026.jpg
1118.683	0.632	1	congruent	Block1	congruent/STIM_026.jpg
1122.008	0.5	1	congruent	Block1	congruent/STIM_027.jpg
1125.859	0.38	1	congruent	Block1	congruent/STIM_027.jpg
1129.874	0.734	1	congruent	Block1	congruent/STIM_027.jpg
1133.922	0.525	1	congruent	Block1	congruent/STIM_027.jpg
1137.77	0.727	1	congruent	Block1	congruent/STIM_027.jpg
1142.128	0.499	1	congruent	Block1	congruent/STIM_028.jpg
1145.938	0.539	1	congruent	Block1	congruent/STIM_028.jpg
1149.98	0.509	1	congruent	Block1	congruent/STIM_028.jpg
1154.46	0.457	1	congruent	Block1	congruent/STIM_028.jpg
1157.318	0.482	1	congruent	Block1	congruent/STIM_028.jpg
1160.138	0.51	1	congruent	Block1	congruent/STIM_029.jpg
1164.494	0.502	1	congruent	Block1	congruent/STIM_029.jpg
1169.088	0.614	1	congruent	Block1	congruent/STIM_029.jpg
1173.755	0.541	1	congruent	Block1	congruent/STIM_029.jpg
1178.089	0.669	1	congruent	Block1	congruent/STIM_029.jpg
1182.871	1.035	1	incongruent	Block2	incongruent/STIM_000.jpg
1187.321	0.584	1	incongruent	Block2	incongruent/STIM_000.jpg
1191.411	0.514	1	incongruent	Block2	incongruent/STIM_000.jpg
1195.467	0.803	1	incongruent	Block2	incongruent/STIM_000.jpg
1198.847	0.906	1	incongruent	Block2	incongruent/STIM_000.jpg
1202.667	1.063	1	incongruent	Block2	incongruent/STIM_001.jpg
1207.518	0.876	1	incongruent	Block2	incongruent/STIM_001.jpg
1212.446	0.837	1	incongruent	Block2	incongruent/STIM_001.jpg
1216.661	0.89	1	incongruent	Block2	incongruent/STIM_001.jpg
1220.644	0.662	1	incongruent	Block2	incongruent/STIM_001.jpg
1224.185	0.623	1	incongruent	Block2	incongruent/STIM_002.jpg
1227.34	0.528	1	incongruent	Block2	incongruent/STIM_002.jpg
1230.5	0.661	1	incongruent	Block2	incongruent/STIM_002.jpg
1233.294	0.779	1	incongruent	Block2	incongruent/STIM_002.jpg
1237.185	0.74	0	incongruent	Block2	incongruent/STIM_002.jpg
1240.893	0.696	1	incongruent	Block2	incongruent/STIM_003.jpg
1245.487	1.023	1	incongruent	Block2	incongruent/STIM_003.jpg
1249.72	0.683	1	incongruent	Block2	incongruent/STIM_003.jpg
1253.833	0.881	1	incongruent	Block2	incongruent/STIM_003.jpg
1257.624	0.736	1	incongruent	Block2	incongruent/STIM_003.jpg
1262.317	0.81	1	incongruent	Block2	incongruent/STIM_004.jpg
1267.289	0.977	1	incongruent	Block2	incongruent/STIM_004.jpg
1270.776	0.629	1	incongruent	Block2	incongruent/STIM_004.jpg
1274.557	0.762	1	incongruent	Block2	incongruent/STIM_004.jpg
1277.99	0.664	1	incongruent	Block2	incongruent/STIM_004.jpg
1282.652	1.006	1	incongruent	Block2	incongruent/STIM_005.jpg
1287.514	1.111	1	incongruent	Block2	incongruent/STIM_005.jpg
1291.804	0.754	1	incongruent	Block2	incongruent/STIM_005.jpg
1295.996	0.506	1	incongruent	Block2	incongruent/STIM_005.jpg
1300.437	0.637	1	incongruent	Block2	incongruent/STIM_005.jpg
1304.457	0.722	1	incongruent	Block2	incongruent/STIM_006.jpg
1308.9	0.877	1	incongruent	Block2	incongruent/STIM_006.jpg
1312.393	0.541	1	incongruent	Block2	incongruent/STIM_006.jpg
1315.72	0.599	1	incongruent	Block2	incongruent/STIM_006.jpg
1318.723	0.751	1	incongruent	Block2	incongruent/STIM_006.jpg
1322.588	1.156	1	incongruent	Block2	incongruent/STIM_007.jpg
1327.459	0.875	1	incongruent	Block2	incongruent/STIM_007.jpg
1331.488	0.77	1	incongruent	Block2	incongruent/STIM_007.jpg
1335.966	0.762	1	incongruent	Block2	incongruent/STIM_007.jpg
1339.6	0.422	1	incongruent	Block2	incongruent/STIM_007.jpg
1342.939	0.963	1	incongruent	Block2	incongruent/STIM_008.jpg
1346.334	0.75	1	incongruent	Block2	incongruent/STIM_008.jpg
1350.02	0.824	1	incongruent	Block2	incongruent/STIM_008.jpg
1354.201	0.851	1	incongruent	Block2	incongruent/STIM_008.jpg
1358.626	0.848	1	incongruent	Block2	incongruent/STIM_008.jpg
1363.317	0.532	1	incongruent	Block2	incongruent/STIM_009.jpg
1366.844	0.749	1	incongruent	Block2	incongruent/STIM_009.jpg
1370.556	0.864	1	incongruent	Block2	incongruent/STIM_009.jpg
1374.625	0.49	1	incongruent	Block2	incongruent/STIM_009.jpg
1377.15	0.779	1	incongruent	Block2	incongruent/STIM_009.jpg
1381.093	0.622	1	incongruent	Block2	incongruent/STIM_010.jpg
1384.695	0.687	1	incongruent	Block2	incongruent/STIM_010.jpg
1388.374	0.653	1	incongruent	Block2	incongruent/STIM_010.jpg
1391.713	0.729	1	incongruent	Block2	incongruent/STIM_010.jpg
1395.047	0.51	1	incongruent	Block2	incongruent/STIM_010.jpg
1398.619	0.609	1	incongruent	Block2	incongruent/STIM_011.jpg
1402.014	0.559	1	incongruent	Block2	incongruent/STIM_011.jpg
1405.682	0.868	1	incongruent	Block2	incongruent/STIM_011.jpg
1410.522	0.614	1	incongruent	Block2	incongruent/STIM_011.jpg
1413.711	0.399	1	incongruent	Block2	incongruent/STIM_011.jpg
1417.504	0.547	1	incongruent	Block2	incongruent/STIM_012.jpg
1421.277	0.685	1	incongruent	Block2	incongruent/STIM_012.jpg
1424.886	0.551	1	incongruent	Block2	incongruent/STIM_012.jpg
1429.279	0.902	1	incongruent	Block2	incongruent/STIM_012.jpg
1432.366	0.735	1	incongruent	Block2	incongruent/STIM_012.jpg
1436.329	0.763	0	incongruent	Block2	incongruent/STIM_013.jpg
1440.208	0.648	1	incongruent	Block2	incongruent/STIM_013.jpg
1443.389	0.981	1	incongruent	Block2	incongruent/STIM_013.jpg
1446.552	0.607	1	incongruent	Block2	incongruent/STIM_013.jpg
1449.424	0.874	1	incongruent	Block2	incongruent/STIM_013.jpg
1453.851	0.732	1	incongruent	Block2	incongruent/STIM_014.jpg
1456.64	0.6	1	incongruent	Block2	incongruent/STIM_014.jpg
1459.441	0.703	1	incongruent	Block2	incongruent/STIM_014.jpg
1462.699	0.83	1	incongruent	Block2	incongruent/STIM_014.jpg
1466.92	0.582	1	incongruent	Block2	incongruent/STIM_014.jpg
1469.782	1.016	1	incongruent	Block2	incongruent/STIM_015.jpg
1473.567	0.973	1	incongruent	Block2	incongruent/STIM_015.jpg
1477.46	0.67	1	incongruent	Block2	incongruent/STIM_015.jpg
1482.089	0.435	1	incongruent	Block2	incongruent/STIM_015.jpg
1485.82	0.884	1	incongruent	Block2	incongruent/STIM_015.jpg
1488.929	0.869	0	incongruent	Block2	incongruent/STIM_016.jpg
1492.302	0.576	1	incongruent	Block2	incongruent/STIM_016.jpg
1495.766	0.485	1	incongruent	Block2	incongruent/STIM_016.jpg
1499.786	0.657	1	incongruent	Block2	incongruent/STIM_016.jpg
1504.258	0.604	1	incongruent	Block2	incongruent/STIM_016.jpg
1508.859	0.7	1	incongruent	Block2	incongruent/STIM_017.jpg
1512.324	0.782	1	incongruent	Block2	incongruent/STIM_017.jpg
1515.845	0.634	1	incongruent	Block2	incongruent/STIM_017.jpg
1519.47	0.69	1	incongruent	Block2	incongruent/STIM_017.jpg
1524.229	0.662	1	incongruent	Block2	incongruent/STIM_017.jpg
1527.5	0.728	1	incongruent	Block2	incongruent/STIM_018.jpg
1531.676	0.65	1	incongruent	Block2	incongruent/STIM_018.jpg
1535.147	0.621	1	incongruent	Block2	incongruent/STIM_018.jpg
1538.48	0.834	1	incongruent	Block2	incongruent/STIM_018.jpg
1542.026	0.831	1	incongruent	Block2	incongruent/STIM_018.jpg
1546.594	0.918	1	incongruent	Block2	incongruent/STIM_019.jpg
1550.54	0.795	1	incongruent	Block2	incongruent/STIM_019.jpg
1554.691	0.538	1	incongruent	Block2	incongruent/STIM_019.jpg
1558.971	0.694	0	incongruent	Block2	incongruent/STIM_019.jpg
1563.062	0.516	1	incongruent	Block2	incongruent/STIM_019.jpg
1567.092	0.785	1	incongruent	Block2	incongruent/STIM_020.jpg
1570.194	0.794	1	incongruent	Block2	incongruent/STIM_020.jpg
1574.8	0.668	1	incongruent	Block2	incongruent/STIM_020.jpg
1579.429	0.686	1	incongruent	Block2	incongruent/STIM_020.jpg
1583.764	0.509	1	incongruent	Block2	incongruent/STIM_020.jpg
1586.622	0.856	1	incongruent	Block2	incongruent/STIM_021.jpg
1591.025	0.758	1	incongruent	Block2	incongruent/STIM_021.jpg
1595.166	0.843	1	incongruent	Block2	incongruent/STIM_021.jpg
1599.692	0.686	1	incongruent	Block2	incongruent/STIM_021.jpg
1602.971	0.584	1	incongruent	Block2	incongruent/STIM_021.jpg
1606.461	0.575	1	incongruent	Block2	incongruent/STIM_022.jpg
1609.379	0.586	1	incongruent	Block2	incongruent/STIM_022.jpg
1613.421	0.742	1	incongruent	Block2	incongruent/STIM_022.jpg
1616.867	0.761	1	incongruent	Block2	incongruent/STIM_022.jpg
1620.905	0.852	1	incongruent	Block2	incongruent/STIM_022.jpg
1624.206	0.939	1	incongruent	Block2	incongruent/STIM_023.jpg
1627.818	0.815	1	incongruent	Block2	incongruent/STIM_023.jpg
1631.809	0.955	1	incongruent	Block2	incongruent/STIM_023.jpg
1636.663	0.615	1	incongruent	Block2	incongruent/STIM_023.jpg
1640.002	0.605	1	incongruent	Block2	incongruent/STIM_023.jpg
1642.987	0.576	1	incongruent	Block2	incongruent/STIM_024.jpg
1647.336	0.705	1	incongruent	Block2	incongruent/STIM_024.jpg
1650.61	0.66	0	incongruent	Block2	incongruent/STIM_024.jpg
1655.405	0.83	1	incongruent	Block2	incongruent/STIM_024.jpg
1659.735	0.646	1	incongruent	Block2	incongruent/STIM_024.jpg
1664.328	0.801	1	incongruent	Block2	incongruent/STIM_025.jpg
1668.371	0.936	1	incongruent	Block2	incongruent/STIM_025.jpg
1672.482	0.863	1	incongruent	Block2	incongruent/STIM_025.jpg
1675.401	0.763	1	incongruent	Block2	incongruent/STIM_025.jpg
1678.785	0.497	1	incongruent	Block2	incongruent/STIM_025.jpg
1681.559	0.924	1	incongruent	Block2	incongruent/STIM_026.jpg
1685.004	0.648	1	incongruent	Block2	incongruent/STIM_026.jpg
1689.623	0.65	1	incongruent	Block2	incongruent/STIM_026.jpg
1692.361	0.586	1	incongruent	Block2	incongruent/STIM_026.jpg
1695.041	0.671	1	incongruent	Block2	incongruent/STIM_026.jpg
1698.996	1.098	1	incongruent	Block2	incongruent/STIM_027.jpg
1703.217	0.857	1	incongruent	Block2	incongruent/STIM_027.jpg
1707.758	0.875	1	incongruent	Block2	incongruent/STIM_027.jpg
1711.622	0.466	1	incongruent	Block2	incongruent/STIM_027.jpg
1715.664	0.646	1	incongruent	Block2	incongruent/STIM_027.jpg
1719.098	1.032	0	incongruent	Block2	incongruent/STIM_028.jpg
1722.602	0.465	1	incongruent	Block2	incongruent/STIM_028.jpg
1725.503	0.842	1	incongruent	Block2	incongruent/STIM_028.jpg
1729.704	0.449	1	incongruent	Block2	incongruent/STIM_028.jpg
1732.707	0.436	1	incongruent	Block2	incongruent/STIM_028.jpg
1736.452	0.843	1	incongruent	Block2	incongruent/STIM_029.jpg
1740.058	0.976	1	incongruent	Block2	incongruent/STIM_029.jpg
1743.583	0.558	1	incongruent	Block2	incongruent/STIM_029.jpg
1748.039	0.694	1	incongruent	Block2	incongruent/STIM_029.jpg
1752.692	0.533	1	incongruent	Block2	incongruent/STIM_029.jpg
1757.33	0.347	0	congruent	Block2	congruent/STIM_000.jpg
1761.149	0.695	1	congruent	Block2	congruent/STIM_000.jpg
1764.116	0.656	1	congruent	Block2	congruent/STIM_000.jpg
1768.684	0.656	1	congruent	Block2	congruent/STIM_000.jpg
1771.581	0.64	1	congruent	Block2	congruent/STIM_000.jpg
1774.631	0.431	1	congruent	Block2	congruent/STIM_001.jpg
1778.499	0.413	1	congruent	Block2	congruent/STIM_001.jpg
1782.189	0.461	1	congruent	Block2	congruent/STIM_001.jpg
1786.172	0.454	1	congruent	Block2	congruent/STIM_001.jpg
1789.248	0.831	1	congruent	Block2	congruent/STIM_001.jpg
1793.385	0.708	1	congruent	Block2	congruent/STIM_002.jpg
1797.192	0.538	1	congruent	Block2	congruent/STIM_002.jpg
1801.192	0.757	1	congruent	Block2	congruent/STIM_002.jpg
1805.474	0.774	1	congruent	Block2	congruent/STIM_002.jpg
1808.421	0.413	1	congruent	Block2	congruent/STIM_002.jpg
1811.362	0.478	1	congruent	Block2	congruent/STIM_003.jpg
1815.924	0.486	1	congruent	Block2	congruent/STIM_003.jpg
1820.404	0.793	1	congruent	Block2	congruent/STIM_003.jpg
1823.314	0.598	1	congruent	Block2	congruent/STIM_003.jpg
1826.217	0.444	1	congruent	Block2	congruent/STIM_003.jpg
1829.897	0.612	1	congruent	Block2	congruent/STIM_004.jpg
1833.681	0.606	1	congruent	Block2	congruent/STIM_004.jpg
1837.504	0.482	1	congruent	Block2	congruent/STIM_004.jpg
1840.579	0.81	1	congruent	Block2	congruent/STIM_004.jpg
1844.986	0.629	0	congruent	Block2	congruent/STIM_004.jpg
1847.92	0.651	1	congruent	Block2	congruent/STIM_005.jpg
1851.001	0.753	1	congruent	Block2	congruent/STIM_005.jpg
1853.946	0.391	1	congruent	Block2	congruent/STIM_005.jpg
1857.201	0.552	1	congruent	Block2	congruent/STIM_005.jpg
1861.451	0.784	1	congruent	Block2	congruent/STIM_005.jpg
1865.384	0.69	1	congruent	Block2	congruent/STIM_006.jpg
1869.278	0.42	1	congruent	Block2	congruent/STIM_006.jpg
1873.183	0.678	1	congruent	Block2	congruent/STIM_006.jpg
1877.724	0.548	1	congruent	Block2	congruent/STIM_006.jpg
1882.249	0.428	1	congruent	Block2	congruent/STIM_006.jpg
1886.287	0.487	1	congruent	Block2	congruent/STIM_007.jpg
1890.58	0.775	1	congruent	Block2	congruent/STIM_007.jpg
1894.638	0.673	1	congruent	Block2	congruent/STIM_007.jpg
1897.531	0.574	1	congruent	Block2	congruent/STIM_007.jpg
1901.474	0.557	1	congruent	Block2	congruent/STIM_007.jpg
1905.124	0.553	1	congruent	Block2	congruent/STIM_008.jpg
1908.45	0.542	1	congruent	Block2	congruent/STIM_008.jpg
1912.225	0.766	1	congruent	Block2	congruent/STIM_008.jpg
1915.148	0.412	0	congruent	Block2	congruent/STIM_008.jpg
1917.965	0.726	1	congruent	Block2	congruent/STIM_008.jpg
1921.49	0.494	1	congruent	Block2	congruent/STIM_009.jpg
1924.787	0.433	1	congruent	Block2	congruent/STIM_009.jpg
1928.362	0.401	1	congruent	Block2	congruent/STIM_009.jpg
1930.984	0.798	1	congruent	Block2	congruent/STIM_009.jpg
1935.606	0.72	1	congruent	Block2	congruent/STIM_009.jpg
1940.028	0.607	1	congruent	Block2	congruent/STIM_010.jpg
1943.334	0.661	1	congruent	Block2	congruent/STIM_010.jpg
1947.07	0.52	1	congruent	Block2	congruent/STIM_010.jpg
1950.695	0.455	1	congruent	Block2	congruent/STIM_010.jpg
1955.29	0.744	1	congruent	Block2	congruent/STIM_010.jpg
1958.423	0.767	1	congruent	Block2	congruent/STIM_011.jpg
1961.392	0.716	1	congruent	Block2	congruent/STIM_011.jpg
1965.114	0.531	1	congruent	Block2	congruent/STIM_011.jpg
1968.166	0.538	1	congruent	Block2	congruent/STIM_011.jpg
1972.323	0.435	1	congruent	Block2	congruent/STIM_011.jpg
1976.418	0.504	1	congruent	Block2	congruent/STIM_012.jpg
1980.271	0.736	1	congruent	Block2	congruent/STIM_012.jpg
1983.456	0.627	1	congruent	Block2	congruent/STIM_012.jpg
1986.205	0.587	0	congruent	Block2	congruent/STIM_012.jpg
1989.774	0.437	1	congruent	Block2	congruent/STIM_012.jpg
1992.56	0.737	1	congruent	Block2	congruent/STIM_013.jpg
1997.162	0.625	1	congruent	Block2	congruent/STIM_013.jpg
2000.703	0.687	1	congruent	Block2	congruent/STIM_013.jpg
2005.359	0.553	1	congruent	Block2	congruent/STIM_013.jpg
2009.895	0.541	1	congruent	Block2	congruent/STIM_013.jpg
2012.586	0.594	1	congruent	Block2	congruent/STIM_014.jpg
2017.283	0.63	1	congruent	Block2	congruent/STIM_014.jpg
2020.966	0.786	1	congruent	Block2	congruent/STIM_014.jpg
2024.245	0.626	1	congruent	Block2	congruent/STIM_014.jpg
2027.664	0.755	1	congruent	Block2	congruent/STIM_014.jpg
2032.081	0.511	1	congruent	Block2	congruent/STIM_015.jpg
2035.271	0.696	1	congruent	Block2	congruent/STIM_015.jpg
2039.639	0.524	1	congruent	Block2	congruent/STIM_015.jpg
2043.574	0.604	1	congruent	Block2	congruent/STIM_015.jpg
2046.737	0.484	1	congruent	Block2	congruent/STIM_015.jpg
2049.935	0.561	1	congruent	Block2	congruent/STIM_016.jpg
2054.327	0.633	1	congruent	Block2	congruent/STIM_016.jpg
2057.932	0.513	1	congruent	Block2	congruent/STIM_016.jpg
2062.048	0.728	1	congruent	Block2	congruent/STIM_016.jpg
2065.41	0.52	1	congruent	Block2	congruent/STIM_016.jpg
2070.063	0.479	1	congruent	Block2	congruent/STIM_017.jpg
2073.995	0.701	1	congruent	Block2	congruent/STIM_017.jpg
2078.688	0.595	1	congruent	Block2	congruent/STIM_017.jpg
2082.628	0.336	1	congruent	Block2	congruent/STIM_017.jpg
2087.099	0.538	1	congruent	Block2	congruent/STIM_017.jpg
2089.954	0.429	1	congruent	Block2	congruent/STIM_018.jpg
2093.303	0.489	1	congruent	Block2	congruent/STIM_018.jpg
2096.428	0.682	1	congruent	Block2	congruent/STIM_018.jpg
2100.087	0.686	1	congruent	Block2	congruent/STIM_018.jpg
2104.254	0.552	1	congruent	Block2	congruent/STIM_018.jpg
2108.812	0.71	1	congruent	Block2	congruent/STIM_019.jpg
2113.52	0.748	1	congruent	Block2	congruent/STIM_019.jpg
2117.517	0.52	1	congruent	Block2	congruent/STIM_019.jpg
2120.97	0.655	0	congruent	Block2	congruent/STIM_019.jpg
2123.948	0.684	1	congruent	Block2	congruent/STIM_019.jpg
2127.571	0.703	1	congruent	Block2	congruent/STIM_020.jpg
2131.365	0.574	1	congruent	Block2	congruent/STIM_020.jpg
2135.485	0.556	1	congruent	Block2	congruent/STIM_020.jpg
2139.784	0.685	1	congruent	Block2	congruent/STIM_020.jpg
2144.136	0.697	1	congruent	Block2	congruent/STIM_020.jpg
2147.466	0.365	1	congruent	Block2	congruent/STIM_021.jpg
2150.501	0.49	1	congruent	Block2	congruent/STIM_021.jpg
2154.71	0.522	1	congruent	Block2	congruent/STIM_021.jpg
2158.744	0.628	1	congruent	Block2	congruent/STIM_021.jpg
2161.711	0.663	1	congruent	Block2	congruent/STIM_021.jpg
2165.315	0.49	0	congruent	Block2	congruent/STIM_022.jpg
2167.819	0.579	1	congruent	Block2	congruent/STIM_022.jpg
2172.293	0.337	1	congruent	Block2	congruent/STIM_022.jpg
2175.558	0.507	1	congruent	Block2	congruent/STIM_022.jpg
2180.036	0.776	1	congruent	Block2	congruent/STIM_022.jpg
2184.402	0.817	1	congruent	Block2	congruent/STIM_023.jpg
2188.326	0.676	1	congruent	Block2	congruent/STIM_023.jpg
2191.699	0.517	1	congruent	Block2	congruent/STIM_023.jpg
2195.92	0.556	1	congruent	Block2	congruent/STIM_023.jpg
2200.085	0.647	1	congruent	Block2	congruent/STIM_023.jpg
2204.712	0.695	1	congruent	Block2	congruent/STIM_024.jpg
2208.357	0.668	1	congruent	Block2	congruent/STIM_024.jpg
2212.531	0.545	1	congruent	Block2	congruent/STIM_024.jpg
2216.163	0.462	1	congruent	Block2	congruent/STIM_024.jpg
2220.484	0.594	1	congruent	Block2	congruent/STIM_024.jpg
2223.918	0.626	1	congruent	Block2	congruent/STIM_025.jpg
2227.446	0.644	1	congruent	Block2	congruent/STIM_025.jpg
2231.273	0.526	1	congruent	Block2	congruent/STIM_025.jpg
2235.076	0.483	1	congruent	Block2	congruent/STIM_025.jpg
2238.356	0.7	1	congruent	Block2	congruent/STIM_025.jpg
2242.739	0.723	1	congruent	Block2	congruent/STIM_026.jpg
2247.457	0.517	1	congruent	Block2	congruent/STIM_026.jpg
2251.507	0.552	1	congruent	Block2	congruent/STIM_026.jpg
2255.879	0.586	1	congruent	Block2	congruent/STIM_026.jpg
2260.161	0.616	1	congruent	Block2	congruent/STIM_026.jpg
2264.886	0.585	1	congruent	Block2	congruent/STIM_027.jpg
2267.796	0.786	1	congruent	Block2	congruent/STIM_027.jpg
2271.229	0.551	1	congruent	Block2	congruent/STIM_027.jpg
2275.652	0.786	1	congruent	Block2	congruent/STIM_027.jpg
2279.623	0.398	1	congruent	Block2	congruent/STIM_027.jpg
2282.455	0.726	1	congruent	Block2	congruent/STIM_028.jpg
2285.331	0.593	1	congruent	Block2	congruent/STIM_028.jpg
2289.878	0.543	1	congruent	Block2	congruent/STIM_028.jpg
2293.994	0.447	1	congruent	Block2	congruent/STIM_028.jpg
2297.273	0.527	1	congruent	Block2	congruent/STIM_028.jpg
2300.273	0.614	1	congruent	Block2	congruent/STIM_029.jpg
2303.195	0.789	1	congruent	Block2	congruent/STIM_029.jpg
2307.254	0.441	1	congruent	Block2	congruent/STIM_029.jpg
2311.696	0.498	1	congruent	Block2	congruent/STIM_029.jpg
2314.965	0.595	1	congruent	Block2	congruent/STIM_029.jpg
2319.397	0.405	1	incongruent	Block3	incongruent/STIM_000.jpg
2323.298	0.823	1	incongruent	Block3	incongruent/STIM_000.jpg
2327.683	0.562	1	incongruent	Block3	incongruent/STIM_000.jpg
2330.994	0.618	1	incongruent	Block3	incongruent/STIM_000.jpg
2334.119	0.544	1	incongruent	Block3	incongruent/STIM_000.jpg
2337.438	0.651	1	incongruent	Block3	incongruent/STIM_001.jpg
2341.015	0.403	1	incongruent	Block3	incongruent/STIM_001.jpg
2344.701	0.769	1	incongruent	Block3	incongruent/STIM_001.jpg
2347.742	0.823	1	incongruent	Block3	incongruent/STIM_001.jpg
2351.97	0.492	1	incongruent	Block3	incongruent/STIM_001.jpg
2355.591	0.722	1	incongruent	Block3	incongruent/STIM_002.jpg
2359.44	0.96	1	incongruent	Block3	incongruent/STIM_002.jpg
2363.289	0.437	1	incongruent	Block3	incongruent/STIM_002.jpg
2365.935	0.854	1	incongruent	Block3	incongruent/STIM_002.jpg
2369.308	0.807	1	incongruent	Block3	incongruent/STIM_002.jpg
2372.648	0.76	1	incongruent	Block3	incongruent/STIM_003.jpg
2377.241	0.748	1	incongruent	Block3	incongruent/STIM_003.jpg
2380.08	0.305	1	incongruent	Block3	incongruent/STIM_003.jpg
2383.476	0.574	1	incongruent	Block3	incongruent/STIM_003.jpg
2386.485	0.708	1	incongruent	Block3	incongruent/STIM_003.jpg
2390.456	0.676	1	incongruent	Block3	incongruent/STIM_004.jpg
2393.421	0.612	1	incongruent	Block3	incongruent/STIM_004.jpg
2398.036	0.415	1	incongruent	Block3	incongruent/STIM_004.jpg
2402.374	0.788	1	incongruent	Block3	incongruent/STIM_004.jpg
2405.231	0.725	1	incongruent	Block3	incongruent/STIM_004.jpg
2409.281	0.619	1	incongruent	Block3	incongruent/STIM_005.jpg
2412.535	0.75	1	incongruent	Block3	incongruent/STIM_005.jpg
2416.443	0.8	1	incongruent	Block3	incongruent/STIM_005.jpg
2420.79	0.907	1	incongruent	Block3	incongruent/STIM_005.jpg
2424.979	0.513	1	incongruent	Block3	incongruent/STIM_005.jpg
2427.609	0.467	1	incongruent	Block3	incongruent/STIM_006.jpg
2430.208	0.562	1	incongruent	Block3	incongruent/STIM_006.jpg
2434.936	0.724	1	incongruent	Block3	incongruent/STIM_006.jpg
2438.655	0.548	1	incongruent	Block3	incongruent/STIM_006.jpg
2442.968	0.888	1	incongruent	Block3	incongruent/STIM_006.jpg
2446.324	0.692	1	incongruent	Block3	incongruent/STIM_007.jpg
2450.621	0.855	1	incongruent	Block3	incongruent/STIM_007.jpg
2455.452	0.682	1	incongruent	Block3	incongruent/STIM_007.jpg
2459.615	0.587	1	incongruent	Block3	incongruent/STIM_007.jpg
2463.839	0.487	1	incongruent	Block3	incongruent/STIM_007.jpg
2466.477	0.951	1	incongruent	Block3	incongruent/STIM_008.jpg
2471.394	0.451	1	incongruent	Block3	incongruent/STIM_008.jpg
2475.516	0.603	1	incongruent	Block3	incongruent/STIM_008.jpg
2478.521	0.8	1	incongruent	Block3	incongruent/STIM_008.jpg
2482.823	0.57	1	incongruent	Block3	incongruent/STIM_008.jpg
2486.576	0.758	1	incongruent	Block3	incongruent/STIM_009.jpg
2490.651	0.934	1	incongruent	Block3	incongruent/STIM_009.jpg
2495.022	0.494	1	incongruent	Block3	incongruent/STIM_009.jpg
2498.801	0.881	1	incongruent	Block3	incongruent/STIM_009.jpg
2503.648	0.798	1	incongruent	Block3	incongruent/STIM_009.jpg
2507.802	0.502	1	incongruent	Block3	incongruent/STIM_010.jpg
2511.864	0.774	1	incongruent	Block3	incongruent/STIM_010.jpg
2515.825	0.573	1	incongruent	Block3	incongruent/STIM_010.jpg
2518.67	0.82	1	incongruent	Block3	incongruent/STIM_010.jpg
2522.063	0.867	1	incongruent	Block3	incongruent/STIM_010.jpg
2525.993	0.95	1	incongruent	Block3	incongruent/STIM_011.jpg
2530.334	0.617	1	incongruent	Block3	incongruent/STIM_011.jpg
2533.809	0.476	1	incongruent	Block3	incongruent/STIM_011.jpg
2536.996	0.61	1	incongruent	Block3	incongruent/STIM_011.jpg
2540.349	0.608	1	incongruent	Block3	incongruent/STIM_011.jpg
2543.416	0.773	1	incongruent	Block3	incongruent/STIM_012.jpg
2547.031	0.906	1	incongruent	Block3	incongruent/STIM_012.jpg
2550.789	0.78	1	incongruent	Block3	incongruent/STIM_012.jpg
2554.919	0.658	0	incongruent	Block3	incongruent/STIM_012.jpg
2558.218	0.608	1	incongruent	Block3	incongruent/STIM_012.jpg
2561.524	0.815	1	incongruent	Block3	incongruent/STIM_013.jpg
2564.654	0.635	1	incongruent	Block3	incongruent/STIM_013.jpg
2568.244	0.47	1	incongruent	Block3	incongruent/STIM_013.jpg
2571.991	0.601	1	incongruent	Block3	incongruent/STIM_013.jpg
2576.185	0.731	1	incongruent	Block3	incongruent/STIM_013.jpg
2580.765	0.846	1	incongruent	Block3	incongruent/STIM_014.jpg
2584.446	0.408	1	incongruent	Block3	incongruent/STIM_014.jpg
2587.932	0.42	1	incongruent	Block3	incongruent/STIM_014.jpg
2591.822	0.67	1	incongruent	Block3	incongruent/STIM_014.jpg
2595.641	0.544	1	incongruent	Block3	incongruent/STIM_014.jpg
2600.177	0.468	1	incongruent	Block3	incongruent/STIM_015.jpg
2603.865	0.587	1	incongruent	Block3	incongruent/STIM_015.jpg
2607.691	0.537	1	incongruent	Block3	incongruent/STIM_015.jpg
2611.447	0.46	0	incongruent	Block3	incongruent/STIM_015.jpg
2614.441	0.701	1	incongruent	Block3	incongruent/STIM_015.jpg
2618.153	0.771	0	incongruent	Block3	incongruent/STIM_016.jpg
2621.088	0.862	1	incongruent	Block3	incongruent/STIM_016.jpg
2624.503	0.92	1	incongruent	Block3	incongruent/STIM_016.jpg
2628.399	0.66	1	incongruent	Block3	incongruent/STIM_016.jpg
2631.768	0.56	1	incongruent	Block3	incongruent/STIM_016.jpg
2634.634	0.846	1	incongruent	Block3	incongruent/STIM_017.jpg
2638.052	0.85	1	incongruent	Block3	incongruent/STIM_017.jpg
2642.505	0.38	1	incongruent	Block3	incongruent/STIM_017.jpg
2645.267	0.783	1	incongruent	Block3	incongruent/STIM_017.jpg
2649.119	0.952	1	incongruent	Block3	incongruent/STIM_017.jpg
2653.501	0.504	1	incongruent	Block3	incongruent/STIM_018.jpg
2657.706	0.401	1	incongruent	Block3	incongruent/STIM_018.jpg
2660.937	0.633	1	incongruent	Block3	incongruent/STIM_018.jpg
2664.008	0.594	1	incongruent	Block3	incongruent/STIM_018.jpg
2667.412	0.514	1	incongruent	Block3	incongruent/STIM_018.jpg
2671.029	0.712	1	incongruent	Block3	incongruent/STIM_019.jpg
2675.41	0.605	1	incongruent	Block3	incongruent/STIM_019.jpg
2680.007	0.491	1	incongruent	Block3	incongruent/STIM_019.jpg
2683.297	0.526	1	incongruent	Block3	incongruent/STIM_019.jpg
2686.744	0.68	1	incongruent	Block3	incongruent/STIM_019.jpg
2691.125	0.68	1	incongruent	Block3	incongruent/STIM_020.jpg
2694.74	0.54	1	incongruent	Block3	incongruent/STIM_020.jpg
2697.709	0.898	1	incongruent	Block3	incongruent/STIM_020.jpg
2702.614	0.771	1	incongruent	Block3	incongruent/STIM_020.jpg
2706.921	0.742	1	incongruent	Block3	incongruent/STIM_020.jpg
2710.667	0.674	1	incongruent	Block3	incongruent/STIM_021.jpg
2713.538	0.916	1	incongruent	Block3	incongruent/STIM_021.jpg
2716.576	0.411	1	incongruent	Block3	incongruent/STIM_021.jpg
2719.415	0.495	1	incongruent	Block3	incongruent/STIM_021.jpg
2722.032	0.386	1	incongruent	Block3	incongruent/STIM_021.jpg
2725.598	0.76	1	incongruent	Block3	incongruent/STIM_022.jpg
2728.982	0.483	1	incongruent	Block3	incongruent/STIM_022.jpg
2732.476	0.767	1	incongruent	Block3	incongruent/STIM_022.jpg
2736.824	0.829	1	incongruent	Block3	incongruent/STIM_022.jpg
2739.741	0.733	1	incongruent	Block3	incongruent/STIM_022.jpg
2744.43	0.955	1	incongruent	Block3	incongruent/STIM_023.jpg
2747.936	0.635	1	incongruent	Block3	incongruent/STIM_023.jpg
2752.23	0.653	1	incongruent	Block3	incongruent/STIM_023.jpg
2756.134	0.807	1	incongruent	Block3	incongruent/STIM_023.jpg
2760.988	0.788	1	incongruent	Block3	incongruent/STIM_023.jpg
2764.688	0.657	1	incongruent	Block3	incongruent/STIM_024.jpg
2769.167	0.696	1	incongruent	Block3	incongruent/STIM_024.jpg
2773.181	0.447	1	incongruent	Block3	incongruent/STIM_024.jpg
2777.316	0.655	1	incongruent	Block3	incongruent/STIM_024.jpg
2781.562	0.827	1	incongruent	Block3	incongruent/STIM_024.jpg
2785.46	0.554	1	incongruent	Block3	incongruent/STIM_025.jpg
2788.735	0.654	1	incongruent	Block3	incongruent/STIM_025.jpg
2793.122	0.503	1	incongruent	Block3	incongruent/STIM_025.jpg
2797.33	0.639	1	incongruent	Block3	incongruent/STIM_025.jpg
2800.491	0.845	1	incongruent	Block3	incongruent/STIM_025.jpg
2803.693	0.829	1	incongruent	Block3	incongruent/STIM_026.jpg
2808.505	0.529	1	incongruent	Block3	incongruent/STIM_026.jpg
2812.232	0.748	1	incongruent	Block3	incongruent/STIM_026.jpg
2815.242	0.804	1	incongruent	Block3	incongruent/STIM_026.jpg
2818.655	0.617	1	incongruent	Block3	incongruent/STIM_026.jpg
2822.006	0.749	1	incongruent	Block3	incongruent/STIM_027.jpg
2826.428	0.798	1	incongruent	Block3	incongruent/STIM_027.jpg
2830.041	0.588	1	incongruent	Block3	incongruent/STIM_027.jpg
2832.944	0.477	1	incongruent	Block3	incongruent/STIM_027.jpg
2835.762	0.81	1	incongruent	Block3	incongruent/STIM_027.jpg
2838.816	0.535	1	incongruent	Block3	incongruent/STIM_028.jpg
2842.187	0.855	1	incongruent	Block3	incongruent/STIM_028.jpg
2846.811	0.87	1	incongruent	Block3	incongruent/STIM_028.jpg
2850.82	0.579	1	incongruent	Block3	incongruent/STIM_028.jpg
2855.237	0.785	1	incongruent	Block3	incongruent/STIM_028.jpg
2859.666	0.676	1	incongruent	Block3	incongruent/STIM_029.jpg
2863.169	0.644	1	incongruent	Block3	incongruent/STIM_029.jpg
2867.509	0.574	1	incongruent	Block3	incongruent/STIM_029.jpg
2871.297	0.845	1	incongruent	Block3	incongruent/STIM_029.jpg
2875.855	0.796	1	incongruent	Block3	incongruent/STIM_029.jpg
2879.081	0.732	1	congruent	Block3	congruent/STIM_000.jpg
2881.915	0.44	1	congruent	Block3	congruent/STIM_000.jpg
2886.199	0.505	1	congruent	Block3	congruent/STIM_000.jpg
2889.065	0.727	1	congruent	Block3	congruent/STIM_000.jpg
2893.722	0.484	1	congruent	Block3	congruent/STIM_000.jpg
2897.02	0.418	1	congruent	Block3	congruent/STIM_001.jpg
2900.149	0.879	1	congruent	Block3	congruent/STIM_001.jpg
2903.343	0.81	1	congruent	Block3	congruent/STIM_001.jpg
2907.818	0.604	1	congruent	Block3	congruent/STIM_001.jpg
2911.902	0.616	1	congruent	Block3	congruent/STIM_001.jpg
2916.065	0.726	1	congruent	Block3	congruent/STIM_002.jpg
2918.972	0.537	1	congruent	Block3	congruent/STIM_002.jpg
2923.291	0.609	1	congruent	Block3	congruent/STIM_002.jpg
2926.553	0.514	1	congruent	Block3	congruent/STIM_002.jpg
2929.855	0.591	1	congruent	Block3	congruent/STIM_002.jpg
2933.074	0.509	1	congruent	Block3	congruent/STIM_003.jpg
2937.078	0.8	1	congruent	Block3	congruent/STIM_003.jpg
2940.229	0.612	1	congruent	Block3	congruent/STIM_003.jpg
2944.4	0.491	1	congruent	Block3	congruent/STIM_003.jpg
2947.262	0.537	1	congruent	Block3	congruent/STIM_003.jpg
2951.203	0.81	1	congruent	Block3	congruent/STIM_004.jpg
2955.04	0.697	1	congruent	Block3	congruent/STIM_004.jpg
2959.627	0.578	1	congruent	Block3	congruent/STIM_004.jpg
2962.479	0.479	1	congruent	Block3	congruent/STIM_004.jpg
2965.389	0.628	1	congruent	Block3	congruent/STIM_004.jpg
2969.518	0.783	1	congruent	Block3	congruent/STIM_005.jpg
2973.653	0.287	1	congruent	Block3	congruent/STIM_005.jpg
2977.262	0.676	1	congruent	Block3	congruent/STIM_005.jpg
2981.292	0.64	1	congruent	Block3	congruent/STIM_005.jpg
2985.471	0.58	1	congruent	Block3	congruent/STIM_005.jpg
2989.079	0.423	1	congruent	Block3	congruent/STIM_006.jpg
2993.41	0.522	1	congruent	Block3	congruent/STIM_006.jpg
2997.912	0.703	1	congruent	Block3	congruent/STIM_006.jpg
3001.745	0.582	1	congruent	Block3	congruent/STIM_006.jpg
3005.642	0.587	1	congruent	Block3	congruent/STIM_006.jpg
3008.979	0.668	1	congruent	Block3	congruent/STIM_007.jpg
3013.496	0.755	1	congruent	Block3	congruent/STIM_007.jpg
3016.543	0.71	1	congruent	Block3	congruent/STIM_007.jpg
3019.425	0.7	1	congruent	Block3	congruent/STIM_007.jpg
3023.818	0.753	1	congruent	Block3	congruent/STIM_007.jpg
3027.569	0.515	1	congruent	Block3	congruent/STIM_008.jpg
3030.578	0.608	1	congruent	Block3	congruent/STIM_008.jpg
3035.333	0.477	1	congruent	Block3	congruent/STIM_008.jpg
3039.28	0.693	1	congruent	Block3	congruent/STIM_008.jpg
3042.593	0.716	1	congruent	Block3	congruent/STIM_008.jpg
3046.574	0.68	1	congruent	Block3	congruent/STIM_009.jpg
3051.014	0.569	1	congruent	Block3	congruent/STIM_009.jpg
3054.816	0.705	1	congruent	Block3	congruent/STIM_009.jpg
3058.433	0.521	1	congruent	Block3	congruent/STIM_009.jpg
3062.774	0.776	1	congruent	Block3	congruent/STIM_009.jpg
3067.66	0.457	1	congruent	Block3	congruent/STIM_010.jpg
3071.522	0.73	1	congruent	Block3	congruent/STIM_010.jpg
3075.556	0.716	1	congruent	Block3	congruent/STIM_010.jpg
3079.131	0.526	1	congruent	Block3	congruent/STIM_010.jpg
3082.868	0.648	1	congruent	Block3	congruent/STIM_010.jpg
3085.675	0.512	1	congruent	Block3	congruent/STIM_011.jpg
3088.267	0.714	1	congruent	Block3	congruent/STIM_011.jpg
3091.187	0.71	1	congruent	Block3	congruent/STIM_011.jpg
3096.007	0.62	1	congruent	Block3	congruent/STIM_011.jpg
3099.949	0.621	1	congruent	Block3	congruent/STIM_011.jpg
3103.197	0.475	1	congruent	Block3	congruent/STIM_012.jpg
3105.899	0.665	1	congruent	Block3	congruent/STIM_012.jpg
3110.589	0.747	1	congruent	Block3	congruent/STIM_012.jpg
3113.687	0.605	1	congruent	Block3	congruent/STIM_012.jpg
3116.411	0.606	1	congruent	Block3	congruent/STIM_012.jpg
3120.391	0.472	1	congruent	Block3	congruent/STIM_013.jpg
3124.863	0.626	1	congruent	Block3	congruent/STIM_013.jpg
3129.072	0.653	1	congruent	Block3	congruent/STIM_013.jpg
3132.518	0.625	1	congruent	Block3	congruent/STIM_013.jpg
3136.768	0.559	1	congruent	Block3	congruent/STIM_013.jpg
3141.176	0.723	1	congruent	Block3	congruent/STIM_014.jpg
3144.013	0.698	1	congruent	Block3	congruent/STIM_014.jpg
3147.382	0.599	1	congruent	Block3	congruent/STIM_014.jpg
3151.927	0.514	1	congruent	Block3	congruent/STIM_014.jpg
3156.114	0.475	1	congruent	Block3	congruent/STIM_014.jpg
3160.018	0.539	1	congruent	Block3	congruent/STIM_015.jpg
3163.642	0.584	1	congruent	Block3	congruent/STIM_015.jpg
3166.391	0.635	1	congruent	Block3	congruent/STIM_015.jpg
3171.089	0.462	1	congruent	Block3	congruent/STIM_015.jpg
3175.358	0.497	0	congruent	Block3	congruent/STIM_015.jpg
3178.775	0.702	1	congruent	Block3	congruent/STIM_016.jpg
3182.511	0.687	1	congruent	Block3	congruent/STIM_016.jpg
3186.88	0.638	1	congruent	Block3	congruent/STIM_016.jpg
3190.596	0.728	1	congruent	Block3	congruent/STIM_016.jpg
3195.329	0.607	1	congruent	Block3	congruent/STIM_016.jpg
3199.106	0.684	1	congruent	Block3	congruent/STIM_017.jpg
3202.379	0.727	1	congruent	Block3	congruent/STIM_017.jpg
3205.842	0.683	1	congruent	Block3	congruent/STIM_017.jpg
3209.339	0.67	1	congruent	Block3	congruent/STIM_017.jpg
3213.987	0.552	1	congruent	Block3	congruent/STIM_017.jpg
3217.386	0.697	1	congruent	Block3	congruent/STIM_018.jpg
3220.64	0.472	1	congruent	Block3	congruent/STIM_018.jpg
3224.766	0.433	1	congruent	Block3	congruent/STIM_018.jpg
3227.774	0.496	1	congruent	Block3	congruent/STIM_018.jpg
3231.54	0.607	1	congruent	Block3	congruent/STIM_018.jpg
3234.264	0.785	1	congruent	Block3	congruent/STIM_019.jpg
3237.683	0.532	1	congruent	Block3	congruent/STIM_019.jpg
3241.72	0.578	1	congruent	Block3	congruent/STIM_019.jpg
3245.96	0.66	1	congruent	Block3	congruent/STIM_019.jpg
3248.875	0.597	1	congruent	Block3	congruent/STIM_019.jpg
3252.397	0.751	1	congruent	Block3	congruent/STIM_020.jpg
3255.754	0.509	1	congruent	Block3	congruent/STIM_020.jpg
3259.155	0.736	1	congruent	Block3	congruent/STIM_020.jpg
3262.37	0.389	1	congruent	Block3	congruent/STIM_020.jpg
3266.477	0.502	1	congruent	Block3	congruent/STIM_020.jpg
3269.237	0.474	1	congruent	Block3	congruent/STIM_021.jpg
3272.338	0.521	1	congruent	Block3	congruent/STIM_021.jpg
3274.903	0.657	1	congruent	Block3	congruent/STIM_021.jpg
3277.755	0.634	0	congruent	Block3	congruent/STIM_021.jpg
3280.565	0.785	0	congruent	Block3	congruent/STIM_021.jpg
3284.744	0.676	0	congruent	Block3	congruent/STIM_022.jpg
3288.166	0.533	1	congruent	Block3	congruent/STIM_022.jpg
3292.74	0.624	1	congruent	Block3	congruent/STIM_022.jpg
3296.385	0.811	1	congruent	Block3	congruent/STIM_022.jpg
3300.523	0.632	1	congruent	Block3	congruent/STIM_022.jpg
3304.247	0.708	1	congruent	Block3	congruent/STIM_023.jpg
3308.131	0.798	1	congruent	Block3	congruent/STIM_023.jpg
3311.192	0.44	1	congruent	Block3	congruent/STIM_023.jpg
3313.977	0.579	1	congruent	Block3	congruent/STIM_023.jpg
3317.533	0.776	1	congruent	Block3	congruent/STIM_023.jpg
3321.849	0.533	1	congruent	Block3	congruent/STIM_024.jpg
3325.693	0.562	1	congruent	Block3	congruent/STIM_024.jpg
3328.748	0.561	1	congruent	Block3	congruent/STIM_024.jpg
3331.596	0.644	1	congruent	Block3	congruent/STIM_024.jpg
3335.157	0.695	1	congruent	Block3	congruent/STIM_024.jpg
3338.614	0.623	1	congruent	Block3	congruent/STIM_025.jpg
3341.705	0.453	1	congruent	Block3	congruent/STIM_025.jpg
3344.552	0.762	1	congruent	Block3	congruent/STIM_025.jpg
3349.124	0.581	1	congruent	Block3	congruent/STIM_025.jpg
3353.719	0.527	1	congruent	Block3	congruent/STIM_025.jpg
3356.668	0.428	1	congruent	Block3	congruent/STIM_026.jpg
3360.709	0.446	1	congruent	Block3	congruent/STIM_026.jpg
3365.187	0.742	1	congruent	Block3	congruent/STIM_026.jpg
3369.876	0.832	1	congruent	Block3	congruent/STIM_026.jpg
3373.574	0.509	1	congruent	Block3	congruent/STIM_026.jpg
3376.303	0.608	1	congruent	Block3	congruent/STIM_027.jpg
3380.615	0.771	1	congruent	Block3	congruent/STIM_027.jpg
3383.637	0.55	1	congruent	Block3	congruent/STIM_027.jpg
3387.84	0.455	1	congruent	Block3	congruent/STIM_027.jpg
3390.751	0.674	1	congruent	Block3	congruent/STIM_027.jpg
3395.434	0.621	1	congruent	Block3	congruent/STIM_028.jpg
3398.747	0.667	1	congruent	Block3	congruent/STIM_028.jpg
3403.306	0.501	1	congruent	Block3	congruent/STIM_028.jpg
3406.482	0.535	1	congruent	Block3	congruent/STIM_028.jpg
3409.432	0.497	1	congruent	Block3	congruent/STIM_028.jpg
3412.403	0.665	1	congruent	Block3	congruent/STIM_029.jpg
3416.278	0.512	1	congruent	Block3	congruent/STIM_029.jpg
3419.858	0.725	1	congruent	Block3	congruent/STIM_029.jpg
3423.956	0.485	1	congruent	Block3	congruent/STIM_029.jpg
3426.682	0.521	1	congruent	Block3	congruent/STIM_029.jpg
