onset	duration	response_time_ms	trial_type	learning_stage	stimulus	response_port
0.0	0.828	827.8	incongruent	Block1	incongruent/STIM_000.jpg	99
3.823	1.07	1070.3	incongruent	Block1	incongruent/STIM_000.jpg	99
8.838	1.249	1248.9	incongruent	Block1	incongruent/STIM_000.jpg	99
13.046	0.554	554.1	incongruent	Block1	incongruent/STIM_000.jpg	99
17.749	0.672	672.3	incongruent	Block1	incongruent/STIM_000.jpg	100
21.383	1.166	1165.7	incongruent	Block1	incongruent/STIM_001.jpg	99
25.671	0.668	668.1	incongruent	Block1	incongruent/STIM_001.jpg	100
29.678	0.778	778.5	incongruent	Block1	incongruent/STIM_001.jpg	100
32.859	0.77	770.4	incongruent	Block1	incongruent/STIM_001.jpg	100
37.067	0.897	896.6	incongruent	Block1	incongruent/STIM_001.jpg	99
41.833	1.202	1201.5	incongruent	Block1	incongruent/STIM_002.jpg	99
46.493	0.948	948.4	incongruent	Block1	incongruent/STIM_002.jpg	100
50.061	0.787	787.3	incongruent	Block1	incongruent/STIM_002.jpg	99
54.297	0.699	698.6	incongruent	Block1	incongruent/STIM_002.jpg	100
57.087	0.858	857.6	incongruent	Block1	incongruent/STIM_002.jpg	100
61.071	1.182	1181.7	incongruent	Block1	incongruent/STIM_003.jpg	100
66.269	0.739	739.0	incongruent	Block1	incongruent/STIM_003.jpg	100
70.306	0.852	852.2	incongruent	Block1	incongruent/STIM_003.jpg	100
74.194	0.748	748.3	incongruent	Block1	incongruent/STIM_003.jpg	99
78.743	0.465	465.0	incongruent	Block1	incongruent/STIM_003.jpg	100
81.879	0.968	967.5	incongruent	Block1	incongruent/STIM_004.jpg	100
85.221	0.736	736.0	incongruent	Block1	incongruent/STIM_004.jpg	100
89.176	0.709	708.9	incongruent	Block1	incongruent/STIM_004.jpg	100
93.368	0.99	989.7	incongruent	Block1	incongruent/STIM_004.jpg	100
96.754	0.961	960.6	incongruent	Block1	incongruent/STIM_004.jpg	100
101.519	0.862	861.5	incongruent	Block1	incongruent/STIM_005.jpg	100
105.58	0.84	840.1	incongruent	Block1	incongruent/STIM_005.jpg	100
109.875	1.126	1125.8	incongruent	Block1	incongruent/STIM_005.jpg	99
113.934	1.193	1192.9	incongruent	Block1	incongruent/STIM_005.jpg	99
118.583	0.481	480.9	incongruent	Block1	incongruent/STIM_005.jpg	100
121.373	0.836	836.3	incongruent	Block1	incongruent/STIM_006.jpg	100
124.609	0.92	920.1	incongruent	Block1	incongruent/STIM_006.jpg	99
128.491	0.767	767.4	incongruent	Block1	incongruent/STIM_006.jpg	100
131.921	0.836	835.9	incongruent	Block1	incongruent/STIM_006.jpg	100
136.682	0.894	894.4	incongruent	Block1	incongruent/STIM_006.jpg	100
139.734	1.229	1228.6	incongruent	Block1	incongruent/STIM_007.jpg	99
143.306	0.594	594.1	incongruent	Block1	incongruent/STIM_007.jpg	99
147.678	0.777	777.3	incongruent	Block1	incongruent/STIM_007.jpg	100
150.947	0.919	918.8	incongruent	Block1	incongruent/STIM_007.jpg	100
154.984	0.469	469.1	incongruent	Block1	incongruent/STIM_007.jpg	99
157.757	1.279	1278.7	incongruent	Block1	incongruent/STIM_008.jpg	99
161.656	1.064	1063.9	incongruent	Block1	incongruent/STIM_008.jpg	100
166.799	1.033	1033.2	incongruent	Block1	incongruent/STIM_008.jpg	99
170.987	0.961	960.8	incongruent	Block1	incongruent/STIM_008.jpg	100
175.407	0.905	905.4	incongruent	Block1	incongruent/STIM_008.jpg	99
179.084	1.241	1241.3	incongruent	Block1	incongruent/STIM_009.jpg	99
184.056	1.158	1158.5	incongruent	Block1	incongruent/STIM_009.jpg	100
187.909	0.771	771.3	incongruent	Block1	incongruent/STIM_009.jpg	100
191.87	0.846	845.6	incongruent	Block1	incongruent/STIM_009.jpg	99
196.725	0.868	867.8	incongruent	Block1	incongruent/STIM_009.jpg	100
201.292	1.216	1216.1	incongruent	Block1	incongruent/STIM_010.jpg	100
205.125	1.093	1092.9	incongruent	Block1	incongruent/STIM_010.jpg	100
209.29	0.793	792.6	incongruent	Block1	incongruent/STIM_010.jpg	100
212.533	1.019	1019.2	incongruent	Block1	incongruent/STIM_010.jpg	100
216.342	0.578	577.8	incongruent	Block1	incongruent/STIM_010.jpg	100
219.965	0.853	853.4	incongruent	Block1	incongruent/STIM_011.jpg	99
223.495	0.738	737.9	incongruent	Block1	incongruent/STIM_011.jpg	99
227.66	0.579	579.0	incongruent	Block1	incongruent/STIM_011.jpg	100
231.139	0.768	768.5	incongruent	Block1	incongruent/STIM_011.jpg	99
234.941	0.668	668.5	incongruent	Block1	incongruent/STIM_011.jpg	99
239.455	0.967	966.6	incongruent	Block1	incongruent/STIM_012.jpg	100
243.912	0.943	943.0	incongruent	Block1	incongruent/STIM_012.jpg	99
248.089	0.493	492.7	incongruent	Block1	incongruent/STIM_012.jpg	99
251.747	0.62	620.5	incongruent	Block1	incongruent/STIM_012.jpg	100
254.504	0.668	668.2	incongruent	Block1	incongruent/STIM_012.jpg	99
258.164	0.696	695.8	incongruent	Block1	incongruent/STIM_013.jpg	100
261.313	0.569	568.8	incongruent	Block1	incongruent/STIM_013.jpg	100
265.244	1.121	1121.1	incongruent	Block1	incongruent/STIM_013.jpg	100
269.682	0.518	517.9	incongruent	Block1	incongruent/STIM_013.jpg	100
272.956	0.604	604.4	incongruent	Block1	incongruent/STIM_013.jpg	99
277.02	0.739	738.8	incongruent	Block1	incongruent/STIM_014.jpg	99
281.102	1.293	1293.2	incongruent	Block1	incongruent/STIM_014.jpg	100
286.002	0.954	953.9	incongruent	Block1	incongruent/STIM_014.jpg	100
289.841	0.624	623.8	incongruent	Block1	incongruent/STIM_014.jpg	99
294.353	0.656	656.3	incongruent	Block1	incongruent/STIM_014.jpg	99
298.447	1.221	1221.2	incongruent	Block1	incongruent/STIM_015.jpg	99
301.965	0.69	690.0	incongruent	Block1	incongruent/STIM_015.jpg	99
306.076	0.631	631.2	incongruent	Block1	incongruent/STIM_015.jpg	99
310.709	0.542	541.6	incongruent	Block1	incongruent/STIM_015.jpg	99
314.898	0.646	645.7	incongruent	Block1	incongruent/STIM_015.jpg	100
318.97	0.798	797.9	incongruent	Block1	incongruent/STIM_016.jpg	99
323.198	0.94	940.3	incongruent	Block1	incongruent/STIM_016.jpg	100
327.235	0.838	838.2	incongruent	Block1	incongruent/STIM_016.jpg	100
331.473	1.082	1081.6	incongruent	Block1	incongruent/STIM_016.jpg	100
336.126	0.632	632.2	incongruent	Block1	incongruent/STIM_016.jpg	99
340.151	1.317	1317.2	incongruent	Block1	incongruent/STIM_017.jpg	100
344.634	1.129	1129.4	incongruent	Block1	incongruent/STIM_017.jpg	100
348.968	1.14	1139.8	incongruent	Block1	incongruent/STIM_017.jpg	100
353.28	0.796	795.6	incongruent	Block1	incongruent/STIM_017.jpg	100
357.2	0.734	734.4	incongruent	Block1	incongruent/STIM_017.jpg	99
360.77	1.398	1397.8	incongruent	Block1	incongruent/STIM_018.jpg	100
365.051	0.899	899.3	incongruent	Block1	incongruent/STIM_018.jpg	100
369.182	0.515	515.2	incongruent	Block1	incongruent/STIM_018.jpg	100
373.036	0.737	737.0	incongruent	Block1	incongruent/STIM_018.jpg	100
376.648	1.025	1025.2	incongruent	Block1	incongruent/STIM_018.jpg	100
381.408	1.244	1244.0	incongruent	Block1	incongruent/STIM_019.jpg	100
385.993	1.194	1193.6	incongruent	Block1	incongruent/STIM_019.jpg	100
390.312	0.765	764.7	incongruent	Block1	incongruent/STIM_019.jpg	100
393.568	0.886	886.1	incongruent	Block1	incongruent/STIM_019.jpg	100
396.723	0.967	966.6	incongruent	Block1	incongruent/STIM_019.jpg	99
401.575	0.758	758.2	incongruent	Block1	incongruent/STIM_020.jpg	100
405.058	1.168	1167.7	incongruent	Block1	incongruent/STIM_020.jpg	99
410.265	1.188	1188.0	incongruent	Block1	incongruent/STIM_020.jpg	99
415.349	0.622	621.9	incongruent	Block1	incongruent/STIM_020.jpg	99
419.381	0.778	777.8	incongruent	Block1	incongruent/STIM_020.jpg	100
423.916	1.164	1164.5	incongruent	Block1	incongruent/STIM_021.jpg	100
429.014	0.632	631.5	incongruent	Block1	incongruent/STIM_021.jpg	99
433.124	0.848	848.3	incongruent	Block1	incongruent/STIM_021.jpg	99
437.503	0.682	682.4	incongruent	Block1	incongruent/STIM_021.jpg	99
441.423	1.021	1021.2	incongruent	Block1	incongruent/STIM_021.jpg	100
445.379	0.775	775.1	incongruent	Block1	incongruent/STIM_022.jpg	100
448.574	1.065	1065.0	incongruent	Block1	incongruent/STIM_022.jpg	100
451.957	1.01	1010.3	incongruent	Block1	incongruent/STIM_022.jpg	99
456.059	0.935	934.8	incongruent	Block1	incongruent/STIM_022.jpg	100
460.605	0.669	669.3	incongruent	Block1	incongruent/STIM_022.jpg	99
463.417	0.983	983.1	incongruent	Block1	incongruent/STIM_023.jpg	100
468.334	0.699	698.6	incongruent	Block1	incongruent/STIM_023.jpg	100
472.509	0.869	868.8	incongruent	Block1	incongruent/STIM_023.jpg	100
476.089	0.728	727.5	incongruent	Block1	incongruent/STIM_023.jpg	100
480.619	1.044	1044.0	incongruent	Block1	incongruent/STIM_023.jpg	100
485.462	1.091	1091.0	incongruent	Block1	incongruent/STIM_024.jpg	99
490.771	0.903	903.0	incongruent	Block1	incongruent/STIM_024.jpg	100
494.286	1.026	1025.5	incongruent	Block1	incongruent/STIM_024.jpg	100
499.537	1.066	1066.2	incongruent	Block1	incongruent/STIM_024.jpg	99
503.282	0.605	604.8	incongruent	Block1	incongruent/STIM_024.jpg	100
507.762	0.795	795.1	incongruent	Block1	incongruent/STIM_025.jpg	99
512.557	0.9	899.5	incongruent	Block1	incongruent/STIM_025.jpg	100
516.956	0.81	809.8	incongruent	Block1	incongruent/STIM_025.jpg	99
521.404	0.608	608.3	incongruent	Block1	incongruent/STIM_025.jpg	100
525.545	0.992	992.5	incongruent	Block1	incongruent/STIM_025.jpg	99
530.234	1.015	1015.3	incongruent	Block1	incongruent/STIM_026.jpg	100
534.105	1.13	1130.5	incongruent	Block1	incongruent/STIM_026.jpg	99
539.178	1.089	1088.7	incongruent	Block1	incongruent/STIM_026.jpg	100
543.295	0.999	998.8	incongruent	Block1	incongruent/STIM_026.jpg	99
548.296	0.741	741.2	incongruent	Block1	incongruent/STIM_026.jpg	99
552.228	1.224	1223.5	incongruent	Block1	incongruent/STIM_027.jpg	100
556.498	0.845	845.1	incongruent	Block1	incongruent/STIM_027.jpg	99
561.292	0.977	977.0	incongruent	Block1	incongruent/STIM_027.jpg	100
564.745	0.99	989.6	incongruent	Block1	incongruent/STIM_027.jpg	100
569.594	0.563	563.1	incongruent	Block1	incongruent/STIM_027.jpg	99
572.964	0.998	998.4	incongruent	Block1	incongruent/STIM_028.jpg	100
578.148	0.747	747.3	incongruent	Block1	incongruent/STIM_028.jpg	99
582.35	0.642	642.5	incongruent	Block1	incongruent/STIM_028.jpg	100
586.232	0.754	754.2	incongruent	Block1	incongruent/STIM_028.jpg	99
590.491	0.543	542.6	incongruent	Block1	incongruent/STIM_028.jpg	99
594.704	0.94	939.9	incongruent	Block1	incongruent/STIM_029.jpg	100
597.997	1.021	1021.3	incongruent	Block1	incongruent/STIM_029.jpg	100
602.538	0.591	591.3	incongruent	Block1	incongruent/STIM_029.jpg	99
606.694	0.655	655.4	incongruent	Block1	incongruent/STIM_029.jpg	100
610.964	0.802	801.8	incongruent	Block1	incongruent/STIM_029.jpg	99
615.276	0.717	717.4	congruent	Block1	congruent/STIM_000.jpg	100
619.577	0.571	571.0	congruent	Block1	congruent/STIM_000.jpg	100
622.804	0.533	532.7	congruent	Block1	congruent/STIM_000.jpg	99
625.727	0.547	547.0	congruent	Block1	congruent/STIM_000.jpg	100
629.057	0.357	357.0	congruent	Block1	congruent/STIM_000.jpg	99
631.806	0.45	449.5	congruent	Block1	congruent/STIM_001.jpg	100
635.369	0.531	531.2	congruent	Block1	congruent/STIM_001.jpg	99
638.445	0.756	755.9	congruent	Block1	congruent/STIM_001.jpg	99
642.407	0.478	478.0	congruent	Block1	congruent/STIM_001.jpg	99
646.47	0.696	695.7	congruent	Block1	congruent/STIM_001.jpg	99
651.216	0.462	461.7	congruent	Block1	congruent/STIM_002.jpg	100
654.072	0.767	766.7	congruent	Block1	congruent/STIM_002.jpg	100
658.476	0.631	631.1	congruent	Block1	congruent/STIM_002.jpg	100
661.934	0.715	715.4	congruent	Block1	congruent/STIM_002.jpg	99
666.239	0.661	661.0	congruent	Block1	congruent/STIM_002.jpg	100
669.653	0.736	735.9	congruent	Block1	congruent/STIM_003.jpg	100
673.97	0.368	368.4	congruent	Block1	congruent/STIM_003.jpg	99
678.067	0.487	487.0	congruent	Block1	congruent/STIM_003.jpg	100
681.757	0.778	778.1	congruent	Block1	congruent/STIM_003.jpg	100
685.02	0.412	412.0	congruent	Block1	congruent/STIM_003.jpg	99
689.039	0.801	801.3	congruent	Block1	congruent/STIM_004.jpg	100
692.43	0.58	579.5	congruent	Block1	congruent/STIM_004.jpg	99
696.507	0.664	664.1	congruent	Block1	congruent/STIM_004.jpg	99
700.685	0.578	577.6	congruent	Block1	congruent/STIM_004.jpg	100
703.408	0.472	471.9	congruent	Block1	congruent/STIM_004.jpg	100
707.091	0.752	752.4	congruent	Block1	congruent/STIM_005.jpg	100
710.411	0.778	777.8	congruent	Block1	congruent/STIM_005.jpg	100
713.383	0.549	548.6	congruent	Block1	congruent/STIM_005.jpg	99
717.107	0.495	494.9	congruent	Block1	congruent/STIM_005.jpg	100
719.861	0.724	723.6	congruent	Block1	congruent/STIM_005.jpg	100
723.373	0.576	575.6	congruent	Block1	congruent/STIM_006.jpg	100
726.373	0.648	648.2	congruent	Block1	congruent/STIM_006.jpg	99
731.107	0.501	501.0	congruent	Block1	congruent/STIM_006.jpg	100
735.067	0.767	767.0	congruent	Block1	congruent/STIM_006.jpg	99
739.879	0.759	758.7	congruent	Block1	congruent/STIM_006.jpg	100
742.998	0.476	475.8	congruent	Block1	congruent/STIM_007.jpg	100
747.267	0.55	550.2	congruent	Block1	congruent/STIM_007.jpg	100
751.797	0.603	603.1	congruent	Block1	congruent/STIM_007.jpg	100
755.738	0.744	744.5	congruent	Block1	congruent/STIM_007.jpg	99
758.661	0.69	690.0	congruent	Block1	congruent/STIM_007.jpg	100
761.646	0.714	713.9	congruent	Block1	congruent/STIM_008.jpg	100
764.94	0.788	788.1	congruent	Block1	congruent/STIM_008.jpg	100
769.088	0.671	670.9	congruent	Block1	congruent/STIM_008.jpg	99
773.464	0.52	519.7	congruent	Block1	congruent/STIM_008.jpg	99
777.99	0.737	737.3	congruent	Block1	congruent/STIM_008.jpg	99
781.534	0.494	493.7	congruent	Block1	congruent/STIM_009.jpg	99
786.001	0.546	545.8	congruent	Block1	congruent/STIM_009.jpg	99
789.661	0.492	492.1	congruent	Block1	congruent/STIM_009.jpg	99
793.132	0.654	654.0	congruent	Block1	congruent/STIM_009.jpg	100
797.381	0.706	706.3	congruent	Block1	congruent/STIM_009.jpg	100
800.517	0.671	670.7	congruent	Block1	congruent/STIM_010.jpg	100
804.216	0.737	736.8	congruent	Block1	congruent/STIM_010.jpg	100
808.37	0.581	581.0	congruent	Block1	congruent/STIM_010.jpg	100
812.179	0.66	660.2	congruent	Block1	congruent/STIM_010.jpg	100
815.774	0.636	635.5	congruent	Block1	congruent/STIM_010.jpg	99
820.025	0.411	411.0	congruent	Block1	congruent/STIM_011.jpg	100
824.209	0.63	630.3	congruent	Block1	congruent/STIM_011.jpg	100
827.352	0.717	717.2	congruent	Block1	congruent/STIM_011.jpg	100
831.187	0.445	444.9	congruent	Block1	congruent/STIM_011.jpg	99
835.692	0.566	566.5	congruent	Block1	congruent/STIM_011.jpg	100
838.747	0.61	609.8	congruent	Block1	congruent/STIM_012.jpg	99
843.447	0.593	592.6	congruent	Block1	congruent/STIM_012.jpg	99
848.146	0.598	598.1	congruent	Block1	congruent/STIM_012.jpg	99
851.491	0.454	454.3	congruent	Block1	congruent/STIM_012.jpg	100
854.248	0.711	711.1	congruent	Block1	congruent/STIM_012.jpg	99
858.072	0.59	590.1	congruent	Block1	congruent/STIM_013.jpg	99
861.432	0.554	553.8	congruent	Block1	congruent/STIM_013.jpg	100
865.863	0.546	546.0	congruent	Block1	congruent/STIM_013.jpg	99
870.207	0.597	597.0	congruent	Block1	congruent/STIM_013.jpg	99
873.508	0.7	700.0	congruent	Block1	congruent/STIM_013.jpg	100
878.193	0.738	737.5	congruent	Block1	congruent/STIM_014.jpg	100
882.679	0.593	593.4	congruent	Block1	congruent/STIM_014.jpg	100
885.754	0.57	570.2	congruent	Block1	congruent/STIM_014.jpg	100
889.158	0.589	589.1	congruent	Block1	congruent/STIM_014.jpg	100
892.797	0.736	735.5	congruent	Block1	congruent/STIM_014.jpg	99
896.695	0.485	485.1	congruent	Block1	congruent/STIM_015.jpg	99
900.037	0.668	668.4	congruent	Block1	congruent/STIM_015.jpg	100
903.415	0.704	703.5	congruent	Block1	congruent/STIM_015.jpg	99
906.922	0.526	525.7	congruent	Block1	congruent/STIM_015.jpg	100
910.069	0.568	568.0	congruent	Block1	congruent/STIM_015.jpg	99
913.817	0.654	654.2	congruent	Block1	congruent/STIM_016.jpg	100
918.533	0.524	524.1	congruent	Block1	congruent/STIM_016.jpg	100
921.376	0.698	697.8	congruent	Block1	congruent/STIM_016.jpg	99
924.217	0.564	563.6	congruent	Block1	congruent/STIM_016.jpg	100
928.805	0.552	552.4	congruent	Block1	congruent/STIM_016.jpg	99
932.815	0.575	575.1	congruent	Block1	congruent/STIM_017.jpg	100
937.21	0.563	563.2	congruent	Block1	congruent/STIM_017.jpg	99
940.464	0.6	600.3	congruent	Block1	congruent/STIM_017.jpg	99
944.74	0.824	824.2	congruent	Block1	congruent/STIM_017.jpg	100
947.841	0.58	580.2	congruent	Block1	congruent/STIM_017.jpg	100
952.192	0.799	798.7	congruent	Block1	congruent/STIM_018.jpg	100
955.818	0.746	746.4	congruent	Block1	congruent/STIM_018.jpg	100
960.629	0.696	696.2	congruent	Block1	congruent/STIM_018.jpg	100
965.328	0.668	667.9	congruent	Block1	congruent/STIM_018.jpg	100
968.739	0.594	593.7	congruent	Block1	congruent/STIM_018.jpg	100
971.911	0.559	559.0	congruent	Block1	congruent/STIM_019.jpg	100
974.923	0.555	554.6	congruent	Block1	congruent/STIM_019.jpg	99
979.114	0.74	740.4	congruent	Block1	congruent/STIM_019.jpg	99
983.722	0.654	654.0	congruent	Block1	congruent/STIM_019.jpg	100
987.576	0.72	719.5	congruent	Block1	congruent/STIM_019.jpg	100
991.195	0.618	617.8	congruent	Block1	congruent/STIM_020.jpg	100
995.091	0.641	641.1	congruent	Block1	congruent/STIM_020.jpg	100
998.239	0.492	492.5	congruent	Block1	congruent/STIM_020.jpg	100
1002.176	0.507	506.9	congruent	Block1	congruent/STIM_020.jpg	99
1005.008	0.43	429.9	congruent	Block1	congruent/STIM_020.jpg	99
1008.049	0.535	534.7	congruent	Block1	congruent/STIM_021.jpg	100
1012.217	0.425	424.9	congruent	Block1	congruent/STIM_021.jpg	100
1015.892	0.537	536.7	congruent	Block1	congruent/STIM_021.jpg	99
1018.939	0.654	653.5	congruent	Block1	congruent/STIM_021.jpg	100
1023.263	0.547	546.8	congruent	Block1	congruent/STIM_021.jpg	99
1026.556	0.384	383.7	congruent	Block1	congruent/STIM_022.jpg	99
1030.377	0.707	706.8	congruent	Block1	congruent/STIM_022.jpg	99
1034.636	0.71	709.6	congruent	Block1	congruent/STIM_022.jpg	100
1038.901	0.582	581.8	congruent	Block1	congruent/STIM_022.jpg	99
1043.48	0.57	569.6	congruent	Block1	congruent/STIM_022.jpg	100
1047.961	0.54	540.3	congruent	Block1	congruent/STIM_023.jpg	99
1050.573	0.821	820.8	congruent	Block1	congruent/STIM_023.jpg	100
1055.189	0.653	653.1	congruent	Block1	congruent/STIM_023.jpg	99
1059.262	0.648	647.6	congruent	Block1	congruent/STIM_023.jpg	100
1063.411	0.558	557.9	congruent	Block1	congruent/STIM_023.jpg	100
1066.15	0.51	510.1	congruent	Block1	congruent/STIM_024.jpg	99
1069.462	0.601	600.8	congruent	Block1	congruent/STIM_024.jpg	99
1073.618	0.714	714.2	congruent	Block1	congruent/STIM_024.jpg	99
1077.064	0.751	750.8	congruent	Block1	congruent/STIM_024.jpg	100
1081.292	0.533	533.3	congruent	Block1	congruent/STIM_024.jpg	100
1084.616	0.778	778.2	congruent	Block1	congruent/STIM_025.jpg	99
1088.1	0.526	526.2	congruent	Block1	congruent/STIM_025.jpg	100
1092.654	0.646	646.0	congruent	Block1	congruent/STIM_025.jpg	99
1095.359	0.448	448.0	congruent	Block1	congruent/STIM_025.jpg	99
1098.703	0.692	691.5	congruent	Block1	congruent/STIM_025.jpg	99
1103.545	0.384	384.0	congruent	Block1	congruent/STIM_026.jpg	100
1106.555	0.66	659.8	congruent	Block1	congruent/STIM_026.jpg	99
1110.684	0.558	557.6	congruent	Block1	congruent/STIM_026.jpg	99
1114.377	0.722	722.1	congruent	Block1	congruent/STIM_026.jpg	99
1118.683	0.632	632.0	congruent	Block1	congruent/STIM_026.jpg	99
1122.008	0.5	500.2	congruent	Block1	congruent/STIM_027.jpg	100
1125.859	0.38	380.3	congruent	Block1	congruent/STIM_027.jpg	99
1129.874	0.734	733.5	congruent	Block1	congruent/STIM_027.jpg	99
1133.922	0.525	524.8	congruent	Block1	congruent/STIM_027.jpg	100
1137.77	0.727	726.7	congruent	Block1	congruent/STIM_027.jpg	99
1142.128	0.499	499.3	congruent	Block1	congruent/STIM_028.jpg	99
1145.938	0.539	539.4	congruent	Block1	congruent/STIM_028.jpg	99
1149.98	0.509	508.8	congruent	Block1	congruent/STIM_028.jpg	100
1154.46	0.457	456.8	congruent	Block1	congruent/STIM_028.jpg	99
1157.318	0.482	481.7	congruent	Block1	congruent/STIM_028.jpg	100
1160.138	0.51	510.0	congruent	Block1	congruent/STIM_029.jpg	99
1164.494	0.502	502.0	congruent	Block1	congruent/STIM_029.jpg	100
1169.088	0.614	614.5	congruent	Block1	congruent/STIM_029.jpg	99
1173.755	0.541	540.6	congruent	Block1	congruent/STIM_029.jpg	99
1178.089	0.669	669.3	congruent	Block1	congruent/STIM_029.jpg	100
1182.871	1.035	1034.7	incongruent	Block2	incongruent/STIM_000.jpg	100
1187.321	0.584	584.5	incongruent	Block2	incongruent/STIM_000.jpg	100
1191.411	0.514	513.5	incongruent	Block2	incongruent/STIM_000.jpg	100
1195.467	0.803	803.2	incongruent	Block2	incongruent/STIM_000.jpg	100
1198.847	0.906	905.7	incongruent	Block2	incongruent/STIM_000.jpg	100
1202.667	1.063	1063.2	incongruent	Block2	incongruent/STIM_001.jpg	100
1207.518	0.876	875.9	incongruent	Block2	incongruent/STIM_001.jpg	99
1212.446	0.837	837.1	incongruent	Block2	incongruent/STIM_001.jpg	100
1216.661	0.89	890.4	incongruent	Block2	incongruent/STIM_001.jpg	99
1220.644	0.662	662.4	incongruent	Block2	incongruent/STIM_001.jpg	100
1224.185	0.623	623.0	incongruent	Block2	incongruent/STIM_002.jpg	100
1227.34	0.528	527.8	incongruent	Block2	incongruent/STIM_002.jpg	100
1230.5	0.661	660.9	incongruent	Block2	incongruent/STIM_002.jpg	99
1233.294	0.779	778.6	incongruent	Block2	incongruent/STIM_002.jpg	100
1237.185	0.74	739.9	incongruent	Block2	incongruent/STIM_002.jpg	100
1240.893	0.696	695.9	incongruent	Block2	incongruent/STIM_003.jpg	99
1245.487	1.023	1022.9	incongruent	Block2	incongruent/STIM_003.jpg	100
1249.72	0.683	683.4	incongruent	Block2	incongruent/STIM_003.jpg	100
1253.833	0.881	881.1	incongruent	Block2	incongruent/STIM_003.jpg	100
1257.624	0.736	735.5	incongruent	Block2	incongruent/STIM_003.jpg	100
1262.317	0.81	810.2	incongruent	Block2	incongruent/STIM_004.jpg	100
1267.289	0.977	976.8	incongruent	Block2	incongruent/STIM_004.jpg	100
1270.776	0.629	629.3	incongruent	Block2	incongruent/STIM_004.jpg	100
1274.557	0.762	762.2	incongruent	Block2	incongruent/STIM_004.jpg	99
1277.99	0.664	664.3	incongruent	Block2	incongruent/STIM_004.jpg	99
1282.652	1.006	1006.5	incongruent	Block2	incongruent/STIM_005.jpg	99
1287.514	1.111	1110.6	incongruent	Block2	incongruent/STIM_005.jpg	100
1291.804	0.754	753.5	incongruent	Block2	incongruent/STIM_005.jpg	100
1295.996	0.506	505.6	incongruent	Block2	incongruent/STIM_005.jpg	99
1300.437	0.637	636.7	incongruent	Block2	incongruent/STIM_005.jpg	99
1304.457	0.722	721.6	incongruent	Block2	incongruent/STIM_006.jpg	99
1308.9	0.877	877.4	incongruent	Block2	incongruent/STIM_006.jpg	100
1312.393	0.541	541.2	incongruent	Block2	incongruent/STIM_006.jpg	99
1315.72	0.599	598.9	incongruent	Block2	incongruent/STIM_006.jpg	99
1318.723	0.751	751.3	incongruent	Block2	incongruent/STIM_006.jpg	100
1322.588	1.156	1155.8	incongruent	Block2	incongruent/STIM_007.jpg	99
1327.459	0.875	874.7	incongruent	Block2	incongruent/STIM_007.jpg	99
1331.488	0.77	769.6	incongruent	Block2	incongruent/STIM_007.jpg	100
1335.966	0.762	762.5	incongruent	Block2	incongruent/STIM_007.jpg	99
1339.6	0.422	421.6	incongruent	Block2	incongruent/STIM_007.jpg	100
1342.939	0.963	963.4	incongruent	Block2	incongruent/STIM_008.jpg	99
1346.334	0.75	749.6	incongruent	Block2	incongruent/STIM_008.jpg	100
1350.02	0.824	823.8	incongruent	Block2	incongruent/STIM_008.jpg	99
1354.201	0.851	851.1	incongruent	Block2	incongruent/STIM_008.jpg	99
1358.626	0.848	848.5	incongruent	Block2	incongruent/STIM_008.jpg	99
1363.317	0.532	532.5	incongruent	Block2	incongruent/STIM_009.jpg	100
1366.844	0.749	748.7	incongruent	Block2	incongruent/STIM_009.jpg	100
1370.556	0.864	864.5	incongruent	Block2	incongruent/STIM_009.jpg	99
1374.625	0.49	489.7	incongruent	Block2	incongruent/STIM_009.jpg	100
1377.15	0.779	779.4	incongruent	Block2	incongruent/STIM_009.jpg	99
1381.093	0.622	622.2	incongruent	Block2	incongruent/STIM_010.jpg	99
1384.695	0.687	686.6	incongruent	Block2	incongruent/STIM_010.jpg	99
1388.374	0.653	652.9	incongruent	Block2	incongruent/STIM_010.jpg	99
1391.713	0.729	729.2	incongruent	Block2	incongruent/STIM_010.jpg	99
1395.047	0.51	510.2	incongruent	Block2	incongruent/STIM_010.jpg	99
1398.619	0.609	608.8	incongruent	Block2	incongruent/STIM_011.jpg	99
1402.014	0.559	558.9	incongruent	Block2	incongruent/STIM_011.jpg	99
1405.682	0.868	868.1	incongruent	Block2	incongruent/STIM_011.jpg	99
1410.522	0.614	614.2	incongruent	Block2	incongruent/STIM_011.jpg	100
1413.711	0.399	399.3	incongruent	Block2	incongruent/STIM_011.jpg	99
1417.504	0.547	546.6	incongruent	Block2	incongruent/STIM_012.jpg	99
1421.277	0.685	685.1	incongruent	Block2	incongruent/STIM_012.jpg	99
1424.886	0.551	550.9	incongruent	Block2	incongruent/STIM_012.jpg	99
1429.279	0.902	901.8	incongruent	Block2	incongruent/STIM_012.jpg	99
1432.366	0.735	735.1	incongruent	Block2	incongruent/STIM_012.jpg	99
1436.329	0.763	763.4	incongruent	Block2	incongruent/STIM_013.jpg	100
1440.208	0.648	647.6	incongruent	Block2	incongruent/STIM_013.jpg	100
1443.389	0.981	981.3	incongruent	Block2	incongruent/STIM_013.jpg	99
1446.552	0.607	607.4	incongruent	Block2	incongruent/STIM_013.jpg	100
1449.424	0.874	874.1	incongruent	Block2	incongruent/STIM_013.jpg	100
1453.851	0.732	732.1	incongruent	Block2	incongruent/STIM_014.jpg	100
1456.64	0.6	600.3	incongruent	Block2	incongruent/STIM_014.jpg	100
1459.441	0.703	703.0	incongruent	Block2	incongruent/STIM_014.jpg	100
1462.699	0.83	830.1	incongruent	Block2	incongruent/STIM_014.jpg	99
1466.92	0.582	581.9	incongruent	Block2	incongruent/STIM_014.jpg	99
1469.782	1.016	1015.6	incongruent	Block2	incongruent/STIM_015.jpg	99
1473.567	0.973	972.8	incongruent	Block2	incongruent/STIM_015.jpg	99
1477.46	0.67	669.9	incongruent	Block2	incongruent/STIM_015.jpg	100
1482.089	0.435	434.6	incongruent	Block2	incongruent/STIM_015.jpg	100
1485.82	0.884	884.1	incongruent	Block2	incongruent/STIM_015.jpg	100
1488.929	0.869	869.3	incongruent	Block2	incongruent/STIM_016.jpg	99
1492.302	0.576	576.4	incongruent	Block2	incongruent/STIM_016.jpg	99
1495.766	0.485	484.7	incongruent	Block2	incongruent/STIM_016.jpg	99
1499.786	0.657	657.1	incongruent	Block2	incongruent/STIM_016.jpg	100
1504.258	0.604	604.0	incongruent	Block2	incongruent/STIM_016.jpg	99
1508.859	0.7	699.6	incongruent	Block2	incongruent/STIM_017.jpg	100
1512.324	0.782	781.7	incongruent	Block2	incongruent/STIM_017.jpg	99
1515.845	0.634	634.5	incongruent	Block2	incongruent/STIM_017.jpg	99
1519.47	0.69	689.6	incongruent	Block2	incongruent/STIM_017.jpg	99
1524.229	0.662	662.1	incongruent	Block2	incongruent/STIM_017.jpg	99
1527.5	0.728	728.2	incongruent	Block2	incongruent/STIM_018.jpg	100
1531.676	0.65	650.2	incongruent	Block2	incongruent/STIM_018.jpg	100
1535.147	0.621	620.8	incongruent	Block2	incongruent/STIM_018.jpg	100
1538.48	0.834	834.1	incongruent	Block2	incongruent/STIM_018.jpg	99
1542.026	0.831	830.9	incongruent	Block2	incongruent/STIM_018.jpg	100
1546.594	0.918	917.7	incongruent	Block2	incongruent/STIM_019.jpg	99
1550.54	0.795	795.4	incongruent	Block2	incongruent/STIM_019.jpg	99
1554.691	0.538	537.8	incongruent	Block2	incongruent/STIM_019.jpg	99
1558.971	0.694	693.5	incongruent	Block2	incongruent/STIM_019.jpg	99
1563.062	0.516	515.6	incongruent	Block2	incongruent/STIM_019.jpg	99
1567.092	0.785	784.7	incongruent	Block2	incongruent/STIM_020.jpg	99
1570.194	0.794	794.5	incongruent	Block2	incongruent/STIM_020.jpg	99
1574.8	0.668	667.7	incongruent	Block2	incongruent/STIM_020.jpg	100
1579.429	0.686	686.2	incongruent	Block2	incongruent/STIM_020.jpg	100
1583.764	0.509	509.4	incongruent	Block2	incongruent/STIM_020.jpg	99
1586.622	0.856	856.3	incongruent	Block2	incongruent/STIM_021.jpg	100
1591.025	0.758	757.8	incongruent	Block2	incongruent/STIM_021.jpg	100
1595.166	0.843	843.3	incongruent	Block2	incongruent/STIM_021.jpg	99
1599.692	0.686	686.2	incongruent	Block2	incongruent/STIM_021.jpg	99
1602.971	0.584	583.9	incongruent	Block2	incongruent/STIM_021.jpg	99
1606.461	0.575	575.3	incongruent	Block2	incongruent/STIM_022.jpg	99
1609.379	0.586	585.8	incongruent	Block2	incongruent/STIM_022.jpg	100
1613.421	0.742	741.5	incongruent	Block2	incongruent/STIM_022.jpg	99
1616.867	0.761	761.1	incongruent	Block2	incongruent/STIM_022.jpg	99
1620.905	0.852	852.5	incongruent	Block2	incongruent/STIM_022.jpg	100
1624.206	0.939	939.2	incongruent	Block2	incongruent/STIM_023.jpg	100
1627.818	0.815	815.1	incongruent	Block2	incongruent/STIM_023.jpg	100
1631.809	0.955	955.0	incongruent	Block2	incongruent/STIM_023.jpg	99
1636.663	0.615	614.9	incongruent	Block2	incongruent/STIM_023.jpg	99
1640.002	0.605	604.9	incongruent	Block2	incongruent/STIM_023.jpg	99
1642.987	0.576	575.9	incongruent	Block2	incongruent/STIM_024.jpg	100
1647.336	0.705	704.7	incongruent	Block2	incongruent/STIM_024.jpg	99
1650.61	0.66	659.6	incongruent	Block2	incongruent/STIM_024.jpg	99
1655.405	0.83	830.0	incongruent	Block2	incongruent/STIM_024.jpg	99
1659.735	0.646	646.5	incongruent	Block2	incongruent/STIM_024.jpg	99
1664.328	0.801	801.4	incongruent	Block2	incongruent/STIM_025.jpg	100
1668.371	0.936	936.1	incongruent	Block2	incongruent/STIM_025.jpg	100
1672.482	0.863	862.8	incongruent	Block2	incongruent/STIM_025.jpg	100
1675.401	0.763	762.8	incongruent	Block2	incongruent/STIM_025.jpg	99
1678.785	0.497	497.2	incongruent	Block2	incongruent/STIM_025.jpg	99
1681.559	0.924	924.3	incongruent	Block2	incongruent/STIM_026.jpg	99
1685.004	0.648	648.2	incongruent	Block2	incongruent/STIM_026.jpg	100
1689.623	0.65	649.8	incongruent	Block2	incongruent/STIM_026.jpg	100
1692.361	0.586	586.2	incongruent	Block2	incongruent/STIM_026.jpg	100
1695.041	0.671	670.6	incongruent	Block2	incongruent/STIM_026.jpg	100
1698.996	1.098	1097.7	incongruent	Block2	incongruent/STIM_027.jpg	99
1703.217	0.857	856.9	incongruent	Block2	incongruent/STIM_027.jpg	100
1707.758	0.875	875.3	incongruent	Block2	incongruent/STIM_027.jpg	100
1711.622	0.466	466.1	incongruent	Block2	incongruent/STIM_027.jpg	99
1715.664	0.646	645.7	incongruent	Block2	incongruent/STIM_027.jpg	99
1719.098	1.032	1031.8	incongruent	Block2	incongruent/STIM_028.jpg	99
1722.602	0.465	464.7	incongruent	Block2	incongruent/STIM_028.jpg	99
1725.503	0.842	841.9	incongruent	Block2	incongruent/STIM_028.jpg	99
1729.704	0.449	448.8	incongruent	Block2	incongruent/STIM_028.jpg	100
1732.707	0.436	436.1	incongruent	Block2	incongruent/STIM_028.jpg	99
1736.452	0.843	842.7	incongruent	Block2	incongruent/STIM_029.jpg	99
1740.058	0.976	975.9	incongruent	Block2	incongruent/STIM_029.jpg	99
1743.583	0.558	557.9	incongruent	Block2	incongruent/STIM_029.jpg	99
1748.039	0.694	694.2	incongruent	Block2	incongruent/STIM_029.jpg	100
1752.692	0.533	533.0	incongruent	Block2	incongruent/STIM_029.jpg	99
1757.33	0.347	346.7	congruent	Block2	congruent/STIM_000.jpg	99
1761.149	0.695	695.0	congruent	Block2	congruent/STIM_000.jpg	99
1764.116	0.656	655.5	congruent	Block2	congruent/STIM_000.jpg	99
1768.684	0.656	655.8	congruent	Block2	congruent/STIM_000.jpg	99
1771.581	0.64	639.6	congruent	Block2	congruent/STIM_000.jpg	100
1774.631	0.431	431.3	congruent	Block2	congruent/STIM_001.jpg	99
1778.499	0.413	413.4	congruent	Block2	congruent/STIM_001.jpg	99
1782.189	0.461	461.0	congruent	Block2	congruent/STIM_001.jpg	100
1786.172	0.454	454.0	congruent	Block2	congruent/STIM_001.jpg	100
1789.248	0.831	831.2	congruent	Block2	congruent/STIM_001.jpg	99
1793.385	0.708	707.9	congruent	Block2	congruent/STIM_002.jpg	100
1797.192	0.538	537.9	congruent	Block2	congruent/STIM_002.jpg	100
1801.192	0.757	756.7	congruent	Block2	congruent/STIM_002.jpg	99
1805.474	0.774	773.5	congruent	Block2	congruent/STIM_002.jpg	100
1808.421	0.413	413.1	congruent	Block2	congruent/STIM_002.jpg	99
1811.362	0.478	477.8	congruent	Block2	congruent/STIM_003.jpg	99
1815.924	0.486	485.8	congruent	Block2	congruent/STIM_003.jpg	100
1820.404	0.793	792.7	congruent	Block2	congruent/STIM_003.jpg	99
1823.314	0.598	597.9	congruent	Block2	congruent/STIM_003.jpg	99
1826.217	0.444	443.5	congruent	Block2	congruent/STIM_003.jpg	100
1829.897	0.612	611.6	congruent	Block2	congruent/STIM_004.jpg	100
1833.681	0.606	606.3	congruent	Block2	congruent/STIM_004.jpg	99
1837.504	0.482	482.0	congruent	Block2	congruent/STIM_004.jpg	99
1840.579	0.81	809.8	congruent	Block2	congruent/STIM_004.jpg	99
1844.986	0.629	629.3	congruent	Block2	congruent/STIM_004.jpg	99
1847.92	0.651	651.1	congruent	Block2	congruent/STIM_005.jpg	100
1851.001	0.753	753.2	congruent	Block2	congruent/STIM_005.jpg	99
1853.946	0.391	391.1	congruent	Block2	congruent/STIM_005.jpg	100
1857.201	0.552	551.9	congruent	Block2	congruent/STIM_005.jpg	99
1861.451	0.784	784.4	congruent	Block2	congruent/STIM_005.jpg	100
1865.384	0.69	690.3	congruent	Block2	congruent/STIM_006.jpg	99
1869.278	0.42	420.5	congruent	Block2	congruent/STIM_006.jpg	100
1873.183	0.678	678.0	congruent	Block2	congruent/STIM_006.jpg	100
1877.724	0.548	548.5	congruent	Block2	congruent/STIM_006.jpg	99
1882.249	0.428	427.5	congruent	Block2	congruent/STIM_006.jpg	99
1886.287	0.487	486.6	congruent	Block2	congruent/STIM_007.jpg	99
1890.58	0.775	774.9	congruent	Block2	congruent/STIM_007.jpg	99
1894.638	0.673	673.4	congruent	Block2	congruent/STIM_007.jpg	99
1897.531	0.574	574.3	congruent	Block2	congruent/STIM_007.jpg	99
1901.474	0.557	557.4	congruent	Block2	congruent/STIM_007.jpg	99
1905.124	0.553	552.9	congruent	Block2	congruent/STIM_008.jpg	100
1908.45	0.542	541.6	congruent	Block2	congruent/STIM_008.jpg	99
1912.225	0.766	766.1	congruent	Block2	congruent/STIM_008.jpg	99
1915.148	0.412	411.8	congruent	Block2	congruent/STIM_008.jpg	100
1917.965	0.726	725.9	congruent	Block2	congruent/STIM_008.jpg	99
1921.49	0.494	494.4	congruent	Block2	congruent/STIM_009.jpg	99
1924.787	0.433	433.1	congruent	Block2	congruent/STIM_009.jpg	99
1928.362	0.401	401.3	congruent	Block2	congruent/STIM_009.jpg	100
1930.984	0.798	797.6	congruent	Block2	congruent/STIM_009.jpg	99
1935.606	0.72	719.6	congruent	Block2	congruent/STIM_009.jpg	99
1940.028	0.607	607.1	congruent	Block2	congruent/STIM_010.jpg	100
1943.334	0.661	661.3	congruent	Block2	congruent/STIM_010.jpg	100
1947.07	0.52	519.8	congruent	Block2	congruent/STIM_010.jpg	100
1950.695	0.455	455.1	congruent	Block2	congruent/STIM_010.jpg	99
1955.29	0.744	743.9	congruent	Block2	congruent/STIM_010.jpg	100
1958.423	0.767	766.7	congruent	Block2	congruent/STIM_011.jpg	100
1961.392	0.716	715.5	congruent	Block2	congruent/STIM_011.jpg	100
1965.114	0.531	530.9	congruent	Block2	congruent/STIM_011.jpg	100
1968.166	0.538	538.0	congruent	Block2	congruent/STIM_011.jpg	99
1972.323	0.435	434.6	congruent	Block2	congruent/STIM_011.jpg	99
1976.418	0.504	504.1	congruent	Block2	congruent/STIM_012.jpg	100
1980.271	0.736	735.7	congruent	Block2	congruent/STIM_012.jpg	99
1983.456	0.627	627.4	congruent	Block2	congruent/STIM_012.jpg	100
1986.205	0.587	586.9	congruent	Block2	congruent/STIM_012.jpg	100
1989.774	0.437	436.7	congruent	Block2	congruent/STIM_012.jpg	100
1992.56	0.737	737.2	congruent	Block2	congruent/STIM_013.jpg	100
1997.162	0.625	625.2	congruent	Block2	congruent/STIM_013.jpg	99
2000.703	0.687	686.6	congruent	Block2	congruent/STIM_013.jpg	99
2005.359	0.553	552.9	congruent	Block2	congruent/STIM_013.jpg	99
2009.895	0.541	541.4	congruent	Block2	congruent/STIM_013.jpg	99
2012.586	0.594	594.3	congruent	Block2	congruent/STIM_014.jpg	100
2017.283	0.63	629.7	congruent	Block2	congruent/STIM_014.jpg	100
2020.966	0.786	786.1	congruent	Block2	congruent/STIM_014.jpg	100
2024.245	0.626	626.1	congruent	Block2	congruent/STIM_014.jpg	99
2027.664	0.755	755.2	congruent	Block2	congruent/STIM_014.jpg	100
2032.081	0.511	510.8	congruent	Block2	congruent/STIM_015.jpg	99
2035.271	0.696	696.2	congruent	Block2	congruent/STIM_015.jpg	99
2039.639	0.524	524.0	congruent	Block2	congruent/STIM_015.jpg	100
2043.574	0.604	604.2	congruent	Block2	congruent/STIM_015.jpg	99
2046.737	0.484	484.3	congruent	Block2	congruent/STIM_015.jpg	99
2049.935	0.561	561.2	congruent	Block2	congruent/STIM_016.jpg	100
2054.327	0.633	632.7	congruent	Block2	congruent/STIM_016.jpg	99
2057.932	0.513	513.2	congruent	Block2	congruent/STIM_016.jpg	99
2062.048	0.728	727.9	congruent	Block2	congruent/STIM_016.jpg	100
2065.41	0.52	519.6	congruent	Block2	congruent/STIM_016.jpg	100
2070.063	0.479	478.8	congruent	Block2	congruent/STIM_017.jpg	99
2073.995	0.701	701.2	congruent	Block2	congruent/STIM_017.jpg	99
2078.688	0.595	594.7	congruent	Block2	congruent/STIM_017.jpg	100
2082.628	0.336	336.0	congruent	Block2	congruent/STIM_017.jpg	99
2087.099	0.538	538.2	congruent	Block2	congruent/STIM_017.jpg	100
2089.954	0.429	428.6	congruent	Block2	congruent/STIM_018.jpg	100
2093.303	0.489	488.9	congruent	Block2	congruent/STIM_018.jpg	99
2096.428	0.682	681.6	congruent	Block2	congruent/STIM_018.jpg	99
2100.087	0.686	686.3	congruent	Block2	congruent/STIM_018.jpg	99
2104.254	0.552	551.9	congruent	Block2	congruent/STIM_018.jpg	100
2108.812	0.71	710.2	congruent	Block2	congruent/STIM_019.jpg	100
2113.52	0.748	747.5	congruent	Block2	congruent/STIM_019.jpg	100
2117.517	0.52	520.0	congruent	Block2	congruent/STIM_019.jpg	99
2120.97	0.655	654.7	congruent	Block2	congruent/STIM_019.jpg	99
2123.948	0.684	684.5	congruent	Block2	congruent/STIM_019.jpg	100
2127.571	0.703	703.2	congruent	Block2	congruent/STIM_020.jpg	100
2131.365	0.574	573.8	congruent	Block2	congruent/STIM_020.jpg	99
2135.485	0.556	555.8	congruent	Block2	congruent/STIM_020.jpg	100
2139.784	0.685	685.0	congruent	Block2	congruent/STIM_020.jpg	99
2144.136	0.697	697.2	congruent	Block2	congruent/STIM_020.jpg	99
2147.466	0.365	364.7	congruent	Block2	congruent/STIM_021.jpg	99
2150.501	0.49	490.4	congruent	Block2	congruent/STIM_021.jpg	99
2154.71	0.522	522.4	congruent	Block2	congruent/STIM_021.jpg	99
2158.744	0.628	628.4	congruent	Block2	congruent/STIM_021.jpg	99
2161.711	0.663	662.7	congruent	Block2	congruent/STIM_021.jpg	100
2165.315	0.49	489.9	congruent	Block2	congruent/STIM_022.jpg	100
2167.819	0.579	579.1	congruent	Block2	congruent/STIM_022.jpg	99
2172.293	0.337	337.0	congruent	Block2	congruent/STIM_022.jpg	99
2175.558	0.507	506.7	congruent	Block2	congruent/STIM_022.jpg	100
2180.036	0.776	775.6	congruent	Block2	congruent/STIM_022.jpg	99
2184.402	0.817	816.9	congruent	Block2	congruent/STIM_023.jpg	100
2188.326	0.676	675.8	congruent	Block2	congruent/STIM_023.jpg	100
2191.699	0.517	517.1	congruent	Block2	congruent/STIM_023.jpg	99
2195.92	0.556	556.2	congruent	Block2	congruent/STIM_023.jpg	99
2200.085	0.647	647.2	congruent	Block2	congruent/STIM_023.jpg	100
2204.712	0.695	694.6	congruent	Block2	congruent/STIM_024.jpg	99
2208.357	0.668	667.5	congruent	Block2	congruent/STIM_024.jpg	100
2212.531	0.545	545.0	congruent	Block2	congruent/STIM_024.jpg	100
2216.163	0.462	462.2	congruent	Block2	congruent/STIM_024.jpg	100
2220.484	0.594	593.5	congruent	Block2	congruent/STIM_024.jpg	99
2223.918	0.626	625.8	congruent	Block2	congruent/STIM_025.jpg	99
2227.446	0.644	643.5	congruent	Block2	congruent/STIM_025.jpg	100
2231.273	0.526	526.3	congruent	Block2	congruent/STIM_025.jpg	99
2235.076	0.483	482.9	congruent	Block2	congruent/STIM_025.jpg	99
2238.356	0.7	700.3	congruent	Block2	congruent/STIM_025.jpg	100
2242.739	0.723	723.1	congruent	Block2	congruent/STIM_026.jpg	100
2247.457	0.517	516.9	congruent	Block2	congruent/STIM_026.jpg	99
2251.507	0.552	552.4	congruent	Block2	congruent/STIM_026.jpg	99
2255.879	0.586	586.2	congruent	Block2	congruent/STIM_026.jpg	99
2260.161	0.616	615.9	congruent	Block2	congruent/STIM_026.jpg	100
2264.886	0.585	585.2	congruent	Block2	congruent/STIM_027.jpg	99
2267.796	0.786	785.7	congruent	Block2	congruent/STIM_027.jpg	99
2271.229	0.551	551.1	congruent	Block2	congruent/STIM_027.jpg	99
2275.652	0.786	785.9	congruent	Block2	congruent/STIM_027.jpg	99
2279.623	0.398	398.3	congruent	Block2	congruent/STIM_027.jpg	99
2282.455	0.726	725.9	congruent	Block2	congruent/STIM_028.jpg	99
2285.331	0.593	593.3	congruent	Block2	congruent/STIM_028.jpg	100
2289.878	0.543	543.0	congruent	Block2	congruent/STIM_028.jpg	100
2293.994	0.447	447.4	congruent	Block2	congruent/STIM_028.jpg	99
2297.273	0.527	527.4	congruent	Block2	congruent/STIM_028.jpg	100
2300.273	0.614	613.6	congruent	Block2	congruent/STIM_029.jpg	100
2303.195	0.789	788.6	congruent	Block2	congruent/STIM_029.jpg	99
2307.254	0.441	440.6	congruent	Block2	congruent/STIM_029.jpg	100
2311.696	0.498	497.7	congruent	Block2	congruent/STIM_029.jpg	100
2314.965	0.595	595.2	congruent	Block2	congruent/STIM_029.jpg	99
2319.397	0.405	404.8	incongruent	Block3	incongruent/STIM_000.jpg	99
2323.298	0.823	823.4	incongruent	Block3	incongruent/STIM_000.jpg	100
2327.683	0.562	562.2	incongruent	Block3	incongruent/STIM_000.jpg	100
2330.994	0.618	617.9	incongruent	Block3	incongruent/STIM_000.jpg	99
2334.119	0.544	543.9	incongruent	Block3	incongruent/STIM_000.jpg	99
2337.438	0.651	650.7	incongruent	Block3	incongruent/STIM_001.jpg	99
2341.015	0.403	403.0	incongruent	Block3	incongruent/STIM_001.jpg	99
2344.701	0.769	768.6	incongruent	Block3	incongruent/STIM_001.jpg	100
2347.742	0.823	822.8	incongruent	Block3	incongruent/STIM_001.jpg	100
2351.97	0.492	492.3	incongruent	Block3	incongruent/STIM_001.jpg	99
2355.591	0.722	721.5	incongruent	Block3	incongruent/STIM_002.jpg	100
2359.44	0.96	960.2	incongruent	Block3	incongruent/STIM_002.jpg	100
2363.289	0.437	436.9	incongruent	Block3	incongruent/STIM_002.jpg	100
2365.935	0.854	854.0	incongruent	Block3	incongruent/STIM_002.jpg	99
2369.308	0.807	807.4	incongruent	Block3	incongruent/STIM_002.jpg	99
2372.648	0.76	760.5	incongruent	Block3	incongruent/STIM_003.jpg	99
2377.241	0.748	748.1	incongruent	Block3	incongruent/STIM_003.jpg	99
2380.08	0.305	304.8	incongruent	Block3	incongruent/STIM_003.jpg	100
2383.476	0.574	574.2	incongruent	Block3	incongruent/STIM_003.jpg	99
2386.485	0.708	708.0	incongruent	Block3	incongruent/STIM_003.jpg	100
2390.456	0.676	675.7	incongruent	Block3	incongruent/STIM_004.jpg	99
2393.421	0.612	612.1	incongruent	Block3	incongruent/STIM_004.jpg	99
2398.036	0.415	414.6	incongruent	Block3	incongruent/STIM_004.jpg	99
2402.374	0.788	788.2	incongruent	Block3	incongruent/STIM_004.jpg	99
2405.231	0.725	724.9	incongruent	Block3	incongruent/STIM_004.jpg	100
2409.281	0.619	619.3	incongruent	Block3	incongruent/STIM_005.jpg	100
2412.535	0.75	749.5	incongruent	Block3	incongruent/STIM_005.jpg	100
2416.443	0.8	800.3	incongruent	Block3	incongruent/STIM_005.jpg	100
2420.79	0.907	907.0	incongruent	Block3	incongruent/STIM_005.jpg	99
2424.979	0.513	513.3	incongruent	Block3	incongruent/STIM_005.jpg	99
2427.609	0.467	467.2	incongruent	Block3	incongruent/STIM_006.jpg	99
2430.208	0.562	561.8	incongruent	Block3	incongruent/STIM_006.jpg	99
2434.936	0.724	723.6	incongruent	Block3	incongruent/STIM_006.jpg	100
2438.655	0.548	547.8	incongruent	Block3	incongruent/STIM_006.jpg	99
2442.968	0.888	888.0	incongruent	Block3	incongruent/STIM_006.jpg	99
2446.324	0.692	691.7	incongruent	Block3	incongruent/STIM_007.jpg	99
2450.621	0.855	855.1	incongruent	Block3	incongruent/STIM_007.jpg	99
2455.452	0.682	682.4	incongruent	Block3	incongruent/STIM_007.jpg	100
2459.615	0.587	586.8	incongruent	Block3	incongruent/STIM_007.jpg	100
2463.839	0.487	487.1	incongruent	Block3	incongruent/STIM_007.jpg	99
2466.477	0.951	950.8	incongruent	Block3	incongruent/STIM_008.jpg	99
2471.394	0.451	451.2	incongruent	Block3	incongruent/STIM_008.jpg	100
2475.516	0.603	603.1	incongruent	Block3	incongruent/STIM_008.jpg	99
2478.521	0.8	799.9	incongruent	Block3	incongruent/STIM_008.jpg	100
2482.823	0.57	570.4	incongruent	Block3	incongruent/STIM_008.jpg	100
2486.576	0.758	757.5	incongruent	Block3	incongruent/STIM_009.jpg	100
2490.651	0.934	933.5	incongruent	Block3	incongruent/STIM_009.jpg	100
2495.022	0.494	493.6	incongruent	Block3	incongruent/STIM_009.jpg	99
2498.801	0.881	880.9	incongruent	Block3	incongruent/STIM_009.jpg	100
2503.648	0.798	797.7	incongruent	Block3	incongruent/STIM_009.jpg	99
2507.802	0.502	501.6	incongruent	Block3	incongruent/STIM_010.jpg	100
2511.864	0.774	774.3	incongruent	Block3	incongruent/STIM_010.jpg	100
2515.825	0.573	573.4	incongruent	Block3	incongruent/STIM_010.jpg	99
2518.67	0.82	820.3	incongruent	Block3	incongruent/STIM_010.jpg	99
2522.063	0.867	866.9	incongruent	Block3	incongruent/STIM_010.jpg	100
2525.993	0.95	950.4	incongruent	Block3	incongruent/STIM_011.jpg	100
2530.334	0.617	617.1	incongruent	Block3	incongruent/STIM_011.jpg	100
2533.809	0.476	475.8	incongruent	Block3	incongruent/STIM_011.jpg	100
2536.996	0.61	610.4	incongruent	Block3	incongruent/STIM_011.jpg	99
2540.349	0.608	607.8	incongruent	Block3	incongruent/STIM_011.jpg	99
2543.416	0.773	773.0	incongruent	Block3	incongruent/STIM_012.jpg	100
2547.031	0.906	905.6	incongruent	Block3	incongruent/STIM_012.jpg	100
2550.789	0.78	779.8	incongruent	Block3	incongruent/STIM_012.jpg	100
2554.919	0.658	658.1	incongruent	Block3	incongruent/STIM_012.jpg	100
2558.218	0.608	607.9	incongruent	Block3	incongruent/STIM_012.jpg	100
2561.524	0.815	815.4	incongruent	Block3	incongruent/STIM_013.jpg	99
2564.654	0.635	635.0	incongruent	Block3	incongruent/STIM_013.jpg	100
2568.244	0.47	470.4	incongruent	Block3	incongruent/STIM_013.jpg	100
2571.991	0.601	600.6	incongruent	Block3	incongruent/STIM_013.jpg	99
2576.185	0.731	730.7	incongruent	Block3	incongruent/STIM_013.jpg	99
2580.765	0.846	845.7	incongruent	Block3	incongruent/STIM_014.jpg	99
2584.446	0.408	408.2	incongruent	Block3	incongruent/STIM_014.jpg	99
2587.932	0.42	419.7	incongruent	Block3	incongruent/STIM_014.jpg	100
2591.822	0.67	670.1	incongruent	Block3	incongruent/STIM_014.jpg	100
2595.641	0.544	543.8	incongruent	Block3	incongruent/STIM_014.jpg	99
2600.177	0.468	467.6	incongruent	Block3	incongruent/STIM_015.jpg	99
2603.865	0.587	587.4	incongruent	Block3	incongruent/STIM_015.jpg	100
2607.691	0.537	537.3	incongruent	Block3	incongruent/STIM_015.jpg	99
2611.447	0.46	460.2	incongruent	Block3	incongruent/STIM_015.jpg	99
2614.441	0.701	700.8	incongruent	Block3	incongruent/STIM_015.jpg	100
2618.153	0.771	771.1	incongruent	Block3	incongruent/STIM_016.jpg	100
2621.088	0.862	862.0	incongruent	Block3	incongruent/STIM_016.jpg	100
2624.503	0.92	920.2	incongruent	Block3	incongruent/STIM_016.jpg	100
2628.399	0.66	660.3	incongruent	Block3	incongruent/STIM_016.jpg	100
2631.768	0.56	560.3	incongruent	Block3	incongruent/STIM_016.jpg	100
2634.634	0.846	845.5	incongruent	Block3	incongruent/STIM_017.jpg	100
2638.052	0.85	850.4	incongruent	Block3	incongruent/STIM_017.jpg	100
2642.505	0.38	380.1	incongruent	Block3	incongruent/STIM_017.jpg	100
2645.267	0.783	782.8	incongruent	Block3	incongruent/STIM_017.jpg	100
2649.119	0.952	951.8	incongruent	Block3	incongruent/STIM_017.jpg	99
2653.501	0.504	504.3	incongruent	Block3	incongruent/STIM_018.jpg	100
2657.706	0.401	400.9	incongruent	Block3	incongruent/STIM_018.jpg	99
2660.937	0.633	633.0	incongruent	Block3	incongruent/STIM_018.jpg	100
2664.008	0.594	593.8	incongruent	Block3	incongruent/STIM_018.jpg	99
2667.412	0.514	513.7	incongruent	Block3	incongruent/STIM_018.jpg	99
2671.029	0.712	712.2	incongruent	Block3	incongruent/STIM_019.jpg	99
2675.41	0.605	605.4	incongruent	Block3	incongruent/STIM_019.jpg	100
2680.007	0.491	490.9	incongruent	Block3	incongruent/STIM_019.jpg	99
2683.297	0.526	526.2	incongruent	Block3	incongruent/STIM_019.jpg	100
2686.744	0.68	680.5	incongruent	Block3	incongruent/STIM_019.jpg	100
2691.125	0.68	680.0	incongruent	Block3	incongruent/STIM_020.jpg	100
2694.74	0.54	539.5	incongruent	Block3	incongruent/STIM_020.jpg	100
2697.709	0.898	898.2	incongruent	Block3	incongruent/STIM_020.jpg	99
2702.614	0.771	770.8	incongruent	Block3	incongruent/STIM_020.jpg	100
2706.921	0.742	741.9	incongruent	Block3	incongruent/STIM_020.jpg	100
2710.667	0.674	674.3	incongruent	Block3	incongruent/STIM_021.jpg	99
2713.538	0.916	916.0	incongruent	Block3	incongruent/STIM_021.jpg	100
2716.576	0.411	410.9	incongruent	Block3	incongruent/STIM_021.jpg	100
2719.415	0.495	495.1	incongruent	Block3	incongruent/STIM_021.jpg	100
2722.032	0.386	385.7	incongruent	Block3	incongruent/STIM_021.jpg	100
2725.598	0.76	760.2	incongruent	Block3	incongruent/STIM_022.jpg	99
2728.982	0.483	483.3	incongruent	Block3	incongruent/STIM_022.jpg	99
2732.476	0.767	767.2	incongruent	Block3	incongruent/STIM_022.jpg	99
2736.824	0.829	828.6	incongruent	Block3	incongruent/STIM_022.jpg	100
2739.741	0.733	733.4	incongruent	Block3	incongruent/STIM_022.jpg	99
2744.43	0.955	955.4	incongruent	Block3	incongruent/STIM_023.jpg	100
2747.936	0.635	635.2	incongruent	Block3	incongruent/STIM_023.jpg	99
2752.23	0.653	652.6	incongruent	Block3	incongruent/STIM_023.jpg	100
2756.134	0.807	807.2	incongruent	Block3	incongruent/STIM_023.jpg	100
2760.988	0.788	788.5	incongruent	Block3	incongruent/STIM_023.jpg	99
2764.688	0.657	657.4	incongruent	Block3	incongruent/STIM_024.jpg	100
2769.167	0.696	696.1	incongruent	Block3	incongruent/STIM_024.jpg	100
2773.181	0.447	447.0	incongruent	Block3	incongruent/STIM_024.jpg	100
2777.316	0.655	654.8	incongruent	Block3	incongruent/STIM_024.jpg	99
2781.562	0.827	826.9	incongruent	Block3	incongruent/STIM_024.jpg	99
2785.46	0.554	553.6	incongruent	Block3	incongruent/STIM_025.jpg	99
2788.735	0.654	654.5	incongruent	Block3	incongruent/STIM_025.jpg	100
2793.122	0.503	503.4	incongruent	Block3	incongruent/STIM_025.jpg	100
2797.33	0.639	639.0	incongruent	Block3	incongruent/STIM_025.jpg	99
2800.491	0.845	844.8	incongruent	Block3	incongruent/STIM_025.jpg	99
2803.693	0.829	829.2	incongruent	Block3	incongruent/STIM_026.jpg	99
2808.505	0.529	528.8	incongruent	Block3	incongruent/STIM_026.jpg	100
2812.232	0.748	748.3	incongruent	Block3	incongruent/STIM_026.jpg	99
2815.242	0.804	804.2	incongruent	Block3	incongruent/STIM_026.jpg	100
2818.655	0.617	617.1	incongruent	Block3	incongruent/STIM_026.jpg	99
2822.006	0.749	749.1	incongruent	Block3	incongruent/STIM_027.jpg	99
2826.428	0.798	798.4	incongruent	Block3	incongruent/STIM_027.jpg	99
2830.041	0.588	588.1	incongruent	Block3	incongruent/STIM_027.jpg	100
2832.944	0.477	476.9	incongruent	Block3	incongruent/STIM_027.jpg	100
2835.762	0.81	810.5	incongruent	Block3	incongruent/STIM_027.jpg	100
2838.816	0.535	534.7	incongruent	Block3	incongruent/STIM_028.jpg	99
2842.187	0.855	854.7	incongruent	Block3	incongruent/STIM_028.jpg	99
2846.811	0.87	870.0	incongruent	Block3	incongruent/STIM_028.jpg	100
2850.82	0.579	579.4	incongruent	Block3	incongruent/STIM_028.jpg	99
2855.237	0.785	784.8	incongruent	Block3	incongruent/STIM_028.jpg	99
2859.666	0.676	675.5	incongruent	Block3	incongruent/STIM_029.jpg	99
2863.169	0.644	643.6	incongruent	Block3	incongruent/STIM_029.jpg	99
2867.509	0.574	573.6	incongruent	Block3	incongruent/STIM_029.jpg	100
2871.297	0.845	845.4	incongruent	Block3	incongruent/STIM_029.jpg	99
2875.855	0.796	796.5	incongruent	Block3	incongruent/STIM_029.jpg	99
2879.081	0.732	732.0	congruent	Block3	congruent/STIM_000.jpg	99
2881.915	0.44	439.7	congruent	Block3	congruent/STIM_000.jpg	99
2886.199	0.505	505.5	congruent	Block3	congruent/STIM_000.jpg	99
2889.065	0.727	726.9	congruent	Block3	congruent/STIM_000.jpg	100
2893.722	0.484	484.4	congruent	Block3	congruent/STIM_000.jpg	100
2897.02	0.418	417.9	congruent	Block3	congruent/STIM_001.jpg	99
2900.149	0.879	879.1	congruent	Block3	congruent/STIM_001.jpg	99
2903.343	0.81	809.6	congruent	Block3	congruent/STIM_001.jpg	100
2907.818	0.604	604.2	congruent	Block3	congruent/STIM_001.jpg	99
2911.902	0.616	615.6	congruent	Block3	congruent/STIM_001.jpg	100
2916.065	0.726	725.7	congruent	Block3	congruent/STIM_002.jpg	100
2918.972	0.537	537.3	congruent	Block3	congruent/STIM_002.jpg	100
2923.291	0.609	609.1	congruent	Block3	congruent/STIM_002.jpg	99
2926.553	0.514	513.8	congruent	Block3	congruent/STIM_002.jpg	99
2929.855	0.591	591.4	congruent	Block3	congruent/STIM_002.jpg	99
2933.074	0.509	508.9	congruent	Block3	congruent/STIM_003.jpg	99
2937.078	0.8	800.3	congruent	Block3	congruent/STIM_003.jpg	100
2940.229	0.612	612.2	congruent	Block3	congruent/STIM_003.jpg	99
2944.4	0.491	491.1	congruent	Block3	congruent/STIM_003.jpg	100
2947.262	0.537	537.2	congruent	Block3	congruent/STIM_003.jpg	100
2951.203	0.81	810.2	congruent	Block3	congruent/STIM_004.jpg	99
2955.04	0.697	696.6	congruent	Block3	congruent/STIM_004.jpg	100
2959.627	0.578	578.2	congruent	Block3	congruent/STIM_004.jpg	100
2962.479	0.479	478.7	congruent	Block3	congruent/STIM_004.jpg	99
2965.389	0.628	628.4	congruent	Block3	congruent/STIM_004.jpg	99
2969.518	0.783	783.0	congruent	Block3	congruent/STIM_005.jpg	100
2973.653	0.287	287.3	congruent	Block3	congruent/STIM_005.jpg	99
2977.262	0.676	675.8	congruent	Block3	congruent/STIM_005.jpg	99
2981.292	0.64	639.9	congruent	Block3	congruent/STIM_005.jpg	99
2985.471	0.58	579.7	congruent	Block3	congruent/STIM_005.jpg	100
2989.079	0.423	423.1	congruent	Block3	congruent/STIM_006.jpg	99
2993.41	0.522	522.4	congruent	Block3	congruent/STIM_006.jpg	100
2997.912	0.703	703.0	congruent	Block3	congruent/STIM_006.jpg	99
3001.745	0.582	581.7	congruent	Block3	congruent/STIM_006.jpg	99
3005.642	0.587	587.3	congruent	Block3	congruent/STIM_006.jpg	99
3008.979	0.668	667.5	congruent	Block3	congruent/STIM_007.jpg	99
3013.496	0.755	754.6	congruent	Block3	congruent/STIM_007.jpg	100
3016.543	0.71	710.2	congruent	Block3	congruent/STIM_007.jpg	99
3019.425	0.7	699.5	congruent	Block3	congruent/STIM_007.jpg	100
3023.818	0.753	753.3	congruent	Block3	congruent/STIM_007.jpg	100
3027.569	0.515	515.1	congruent	Block3	congruent/STIM_008.jpg	99
3030.578	0.608	607.7	congruent	Block3	congruent/STIM_008.jpg	100
3035.333	0.477	477.3	congruent	Block3	congruent/STIM_008.jpg	99
3039.28	0.693	693.0	congruent	Block3	congruent/STIM_008.jpg	100
3042.593	0.716	716.0	congruent	Block3	congruent/STIM_008.jpg	100
3046.574	0.68	679.7	congruent	Block3	congruent/STIM_009.jpg	99
3051.014	0.569	569.3	congruent	Block3	congruent/STIM_009.jpg	99
3054.816	0.705	704.7	congruent	Block3	congruent/STIM_009.jpg	100
3058.433	0.521	520.9	congruent	Block3	congruent/STIM_009.jpg	99
3062.774	0.776	776.2	congruent	Block3	congruent/STIM_009.jpg	99
3067.66	0.457	456.6	congruent	Block3	congruent/STIM_010.jpg	100
3071.522	0.73	730.0	congruent	Block3	congruent/STIM_010.jpg	100
3075.556	0.716	716.5	congruent	Block3	congruent/STIM_010.jpg	100
3079.131	0.526	526.5	congruent	Block3	congruent/STIM_010.jpg	99
3082.868	0.648	648.2	congruent	Block3	congruent/STIM_010.jpg	100
3085.675	0.512	512.4	congruent	Block3	congruent/STIM_011.jpg	99
3088.267	0.714	713.5	congruent	Block3	congruent/STIM_011.jpg	99
3091.187	0.71	709.5	congruent	Block3	congruent/STIM_011.jpg	100
3096.007	0.62	620.4	congruent	Block3	congruent/STIM_011.jpg	100
3099.949	0.621	621.3	congruent	Block3	congruent/STIM_011.jpg	100
3103.197	0.475	475.3	congruent	Block3	congruent/STIM_012.jpg	100
3105.899	0.665	664.9	congruent	Block3	congruent/STIM_012.jpg	100
3110.589	0.747	747.1	congruent	Block3	congruent/STIM_012.jpg	100
3113.687	0.605	604.7	congruent	Block3	congruent/STIM_012.jpg	99
3116.411	0.606	606.2	congruent	Block3	congruent/STIM_012.jpg	99
3120.391	0.472	471.7	congruent	Block3	congruent/STIM_013.jpg	99
3124.863	0.626	625.6	congruent	Block3	congruent/STIM_013.jpg	99
3129.072	0.653	652.6	congruent	Block3	congruent/STIM_013.jpg	100
3132.518	0.625	624.7	congruent	Block3	congruent/STIM_013.jpg	100
3136.768	0.559	558.6	congruent	Block3	congruent/STIM_013.jpg	99
3141.176	0.723	722.7	congruent	Block3	congruent/STIM_014.jpg	100
3144.013	0.698	697.6	congruent	Block3	congruent/STIM_014.jpg	99
3147.382	0.599	598.7	congruent	Block3	congruent/STIM_014.jpg	99
3151.927	0.514	513.6	congruent	Block3	congruent/STIM_014.jpg	99
3156.114	0.475	475.3	congruent	Block3	congruent/STIM_014.jpg	100
3160.018	0.539	538.7	congruent	Block3	congruent/STIM_015.jpg	100
3163.642	0.584	584.2	congruent	Block3	congruent/STIM_015.jpg	99
3166.391	0.635	635.3	congruent	Block3	congruent/STIM_015.jpg	99
3171.089	0.462	462.2	congruent	Block3	congruent/STIM_015.jpg	99
3175.358	0.497	497.1	congruent	Block3	congruent/STIM_015.jpg	99
3178.775	0.702	702.1	congruent	Block3	congruent/STIM_016.jpg	99
3182.511	0.687	687.2	congruent	Block3	congruent/STIM_016.jpg	99
3186.88	0.638	637.5	congruent	Block3	congruent/STIM_016.jpg	99
3190.596	0.728	728.2	congruent	Block3	congruent/STIM_016.jpg	100
3195.329	0.607	606.6	congruent	Block3	congruent/STIM_016.jpg	99
3199.106	0.684	684.2	congruent	Block3	congruent/STIM_017.jpg	99
3202.379	0.727	726.9	congruent	Block3	congruent/STIM_017.jpg	99
3205.842	0.683	683.3	congruent	Block3	congruent/STIM_017.jpg	100
3209.339	0.67	670.2	congruent	Block3	congruent/STIM_017.jpg	100
3213.987	0.552	552.1	congruent	Block3	congruent/STIM_017.jpg	100
3217.386	0.697	696.8	congruent	Block3	congruent/STIM_018.jpg	99
3220.64	0.472	472.1	congruent	Block3	congruent/STIM_018.jpg	99
3224.766	0.433	432.7	congruent	Block3	congruent/STIM_018.jpg	99
3227.774	0.496	496.2	congruent	Block3	congruent/STIM_018.jpg	99
3231.54	0.607	606.8	congruent	Block3	congruent/STIM_018.jpg	100
3234.264	0.785	785.1	congruent	Block3	congruent/STIM_019.jpg	100
3237.683	0.532	531.5	congruent	Block3	congruent/STIM_019.jpg	100
3241.72	0.578	578.5	congruent	Block3	congruent/STIM_019.jpg	99
3245.96	0.66	660.1	congruent	Block3	congruent/STIM_019.jpg	100
3248.875	0.597	597.1	congruent	Block3	congruent/STIM_019.jpg	99
3252.397	0.751	750.8	congruent	Block3	congruent/STIM_020.jpg	100
3255.754	0.509	508.8	congruent	Block3	congruent/STIM_020.jpg	99
3259.155	0.736	736.5	congruent	Block3	congruent/STIM_020.jpg	100
3262.37	0.389	388.9	congruent	Block3	congruent/STIM_020.jpg	100
3266.477	0.502	501.8	congruent	Block3	congruent/STIM_020.jpg	99
3269.237	0.474	473.7	congruent	Block3	congruent/STIM_021.jpg	100
3272.338	0.521	520.6	congruent	Block3	congruent/STIM_021.jpg	99
3274.903	0.657	657.1	congruent	Block3	congruent/STIM_021.jpg	100
3277.755	0.634	633.8	congruent	Block3	congruent/STIM_021.jpg	99
3280.565	0.785	785.3	congruent	Block3	congruent/STIM_021.jpg	100
3284.744	0.676	675.6	congruent	Block3	congruent/STIM_022.jpg	100
3288.166	0.533	532.6	congruent	Block3	congruent/STIM_022.jpg	99
3292.74	0.624	623.6	congruent	Block3	congruent/STIM_022.jpg	100
3296.385	0.811	811.3	congruent	Block3	congruent/STIM_022.jpg	99
3300.523	0.632	632.2	congruent	Block3	congruent/STIM_022.jpg	99
3304.247	0.708	708.0	congruent	Block3	congruent/STIM_023.jpg	99
3308.131	0.798	797.5	congruent	Block3	congruent/STIM_023.jpg	99
3311.192	0.44	439.7	congruent	Block3	congruent/STIM_023.jpg	99
3313.977	0.579	578.6	congruent	Block3	congruent/STIM_023.jpg	99
3317.533	0.776	775.5	congruent	Block3	congruent/STIM_023.jpg	99
3321.849	0.533	532.7	congruent	Block3	congruent/STIM_024.jpg	100
3325.693	0.562	562.3	congruent	Block3	congruent/STIM_024.jpg	100
3328.748	0.561	561.0	congruent	Block3	congruent/STIM_024.jpg	100
3331.596	0.644	644.1	congruent	Block3	congruent/STIM_024.jpg	100
3335.157	0.695	695.1	congruent	Block3	congruent/STIM_024.jpg	99
3338.614	0.623	623.4	congruent	Block3	congruent/STIM_025.jpg	99
3341.705	0.453	453.4	congruent	Block3	congruent/STIM_025.jpg	99
3344.552	0.762	761.8	congruent	Block3	congruent/STIM_025.jpg	100
3349.124	0.581	581.4	congruent	Block3	congruent/STIM_025.jpg	100
3353.719	0.527	527.1	congruent	Block3	congruent/STIM_025.jpg	100
3356.668	0.428	428.0	congruent	Block3	congruent/STIM_026.jpg	100
3360.709	0.446	445.7	congruent	Block3	congruent/STIM_026.jpg	100
3365.187	0.742	742.4	congruent	Block3	congruent/STIM_026.jpg	100
3369.876	0.832	831.9	congruent	Block3	congruent/STIM_026.jpg	100
3373.574	0.509	509.3	congruent	Block3	congruent/STIM_026.jpg	100
3376.303	0.608	608.1	congruent	Block3	congruent/STIM_027.jpg	99
3380.615	0.771	770.7	congruent	Block3	congruent/STIM_027.jpg	100
3383.637	0.55	549.8	congruent	Block3	congruent/STIM_027.jpg	100
3387.84	0.455	454.8	congruent	Block3	congruent/STIM_027.jpg	100
3390.751	0.674	673.7	congruent	Block3	congruent/STIM_027.jpg	99
3395.434	0.621	620.8	congruent	Block3	congruent/STIM_028.jpg	100
3398.747	0.667	666.8	congruent	Block3	congruent/STIM_028.jpg	99
3403.306	0.501	500.7	congruent	Block3	congruent/STIM_028.jpg	99
3406.482	0.535	534.7	congruent	Block3	congruent/STIM_028.jpg	100
3409.432	0.497	497.2	congruent	Block3	congruent/STIM_028.jpg	100
3412.403	0.665	664.7	congruent	Block3	congruent/STIM_029.jpg	100
3416.278	0.512	511.7	congruent	Block3	congruent/STIM_029.jpg	99
3419.858	0.725	724.8	congruent	Block3	congruent/STIM_029.jpg	99
3423.956	0.485	484.6	congruent	Block3	congruent/STIM_029.jpg	99
3426.682	0.521	521.0	congruent	Block3	congruent/STIM_029.jpg	99
