onset	duration	accuracy	trial_type	learning_stage	stimulus
0.0	2.549	correct	generate	Run1	generate/STIM_000.jpg
5.194	1.401	correct	generate	Run1	generate/STIM_000.jpg
10.278	1.318	correct	generate	Run1	generate/STIM_000.jpg
13.856	2.869	incorrect	generate	Run1	generate/STIM_000.jpg
18.428	1.941	incorrect	generate	Run1	generate/STIM_000.jpg
22.145	2.295	correct	generate	Run1	generate/STIM_001.jpg
28.056	1.874	incorrect	generate	Run1	generate/STIM_001.jpg
32.068	1.646	correct	generate	Run1	generate/STIM_001.jpg
36.734	2.814	correct	generate	Run1	generate/STIM_001.jpg
41.814	1.441	correct	generate	Run1	generate/STIM_001.jpg
46.837	2.241	correct	generate	Run1	generate/STIM_002.jpg
52.537	1.969	incorrect	generate	Run1	generate/STIM_002.jpg
58.233	1.652	correct	generate	Run1	generate/STIM_002.jpg
63.036	2.84	incorrect	generate	Run1	generate/STIM_002.jpg
68.41	2.543	correct	generate	Run1	generate/STIM_002.jpg
73.923	1.922	incorrect	generate	Run1	generate/STIM_003.jpg
79.216	2.539	incorrect	generate	Run1	generate/STIM_003.jpg
84.334	1.822	incorrect	generate	Run1	generate/STIM_003.jpg
89.847	2.062	correct	generate	Run1	generate/STIM_003.jpg
95.328	2.301	correct	generate	Run1	generate/STIM_003.jpg
99.422	1.455	correct	generate	Run1	generate/STIM_004.jpg
103.483	2.369	correct	generate	Run1	generate/STIM_004.jpg
107.969	1.907	correct	generate	Run1	generate/STIM_004.jpg
113.228	2.371	correct	generate	Run1	generate/STIM_004.jpg
117.387	1.208	correct	generate	Run1	generate/STIM_004.jpg
120.927	2.799	incorrect	generate	Run1	generate/STIM_005.jpg
125.894	2.97	correct	generate	Run1	generate/STIM_005.jpg
132.22	2.131	incorrect	generate	Run1	generate/STIM_005.jpg
136.951	2.871	correct	generate	Run1	generate/STIM_005.jpg
143.154	1.739	correct	generate	Run1	generate/STIM_005.jpg
147.656	3.226	incorrect	generate	Run1	generate/STIM_006.jpg
153.197	2.118	correct	generate	Run1	generate/STIM_006.jpg
158.401	2.744	correct	generate	Run1	generate/STIM_006.jpg
164.354	2.834	incorrect	generate	Run1	generate/STIM_006.jpg
169.072	2.637	correct	generate	Run1	generate/STIM_006.jpg
173.839	2.873	correct	generate	Run1	generate/STIM_007.jpg
179.277	2.086	correct	generate	Run1	generate/STIM_007.jpg
183.267	1.704	correct	generate	Run1	generate/STIM_007.jpg
187.352	2.068	correct	generate	Run1	generate/STIM_007.jpg
191.343	2.666	correct	generate	Run1	generate/STIM_007.jpg
196.755	2.807	correct	generate	Run1	generate/STIM_008.jpg
202.003	3.01	correct	generate	Run1	generate/STIM_008.jpg
208.057	1.597	correct	generate	Run1	generate/STIM_008.jpg
213.345	1.416	correct	generate	Run1	generate/STIM_008.jpg
218.389	1.33	incorrect	generate	Run1	generate/STIM_008.jpg
221.627	1.684	correct	generate	Run1	generate/STIM_009.jpg
226.61	2.288	correct	generate	Run1	generate/STIM_009.jpg
231.341	2.553	correct	generate	Run1	generate/STIM_009.jpg
236.414	2.006	correct	generate	Run1	generate/STIM_009.jpg
241.151	1.882	correct	generate	Run1	generate/STIM_009.jpg
245.04	2.47	correct	generate	Run1	generate/STIM_010.jpg
250.145	2.936	correct	generate	Run1	generate/STIM_010.jpg
255.647	1.782	correct	generate	Run1	generate/STIM_010.jpg
259.754	1.279	correct	generate	Run1	generate/STIM_010.jpg
264.367	2.354	correct	generate	Run1	generate/STIM_010.jpg
269.66	1.896	correct	generate	Run1	generate/STIM_011.jpg
273.679	1.447	correct	generate	Run1	generate/STIM_011.jpg
277.822	2.854	correct	generate	Run1	generate/STIM_011.jpg
283.91	1.288	incorrect	generate	Run1	generate/STIM_011.jpg
288.992	1.313	incorrect	generate	Run1	generate/STIM_011.jpg
292.431	3.139	correct	generate	Run1	generate/STIM_012.jpg
297.578	2.005	correct	generate	Run1	generate/STIM_012.jpg
301.772	2.828	correct	generate	Run1	generate/STIM_012.jpg
306.896	2.427	incorrect	generate	Run1	generate/STIM_012.jpg
312.71	2.165	correct	generate	Run1	generate/STIM_012.jpg
316.913	2.78	correct	generate	Run1	generate/STIM_013.jpg
321.806	1.671	correct	generate	Run1	generate/STIM_013.jpg
327.065	2.47	correct	generate	Run1	generate/STIM_013.jpg
332.246	2.016	correct	generate	Run1	generate/STIM_013.jpg
336.771	1.621	incorrect	generate	Run1	generate/STIM_013.jpg
341.856	1.452	correct	generate	Run1	generate/STIM_014.jpg
345.995	1.962	correct	generate	Run1	generate/STIM_014.jpg
351.401	1.681	incorrect	generate	Run1	generate/STIM_014.jpg
355.918	1.736	correct	generate	Run1	generate/STIM_014.jpg
361.118	1.825	correct	generate	Run1	generate/STIM_014.jpg
365.815	2.771	correct	generate	Run1	generate/STIM_015.jpg
370.68	1.585	incorrect	generate	Run1	generate/STIM_015.jpg
375.688	2.416	correct	generate	Run1	generate/STIM_015.jpg
381.36	2.676	incorrect	generate	Run1	generate/STIM_015.jpg
387.033	1.814	correct	generate	Run1	generate/STIM_015.jpg
390.78	3.211	incorrect	generate	Run1	generate/STIM_016.jpg
397.339	2.357	correct	generate	Run1	generate/STIM_016.jpg
402.804	3.05	correct	generate	Run1	generate/STIM_016.jpg
408.914	1.315	correct	generate	Run1	generate/STIM_016.jpg
412.845	2.611	correct	generate	Run1	generate/STIM_016.jpg
417.612	2.079	correct	generate	Run1	generate/STIM_017.jpg
422.541	1.632	correct	generate	Run1	generate/STIM_017.jpg
427.478	1.806	incorrect	generate	Run1	generate/STIM_017.jpg
432.528	2.395	correct	generate	Run1	generate/STIM_017.jpg
438.498	2.071	correct	generate	Run1	generate/STIM_017.jpg
443.6	2.803	correct	generate	Run1	generate/STIM_018.jpg
449.944	2.372	correct	generate	Run1	generate/STIM_018.jpg
454.556	2.215	correct	generate	Run1	generate/STIM_018.jpg
459.293	1.846	incorrect	generate	Run1	generate/STIM_018.jpg
463.549	1.597	correct	generate	Run1	generate/STIM_018.jpg
468.485	2.122	incorrect	generate	Run1	generate/STIM_019.jpg
472.601	1.87	correct	generate	Run1	generate/STIM_019.jpg
478.111	1.655	correct	generate	Run1	generate/STIM_019.jpg
482.51	1.558	incorrect	generate	Run1	generate/STIM_019.jpg
487.734	1.868	correct	generate	Run1	generate/STIM_019.jpg
493.047	1.767	correct	generate	Run1	generate/STIM_020.jpg
496.767	2.433	correct	generate	Run1	generate/STIM_020.jpg
502.499	2.35	incorrect	generate	Run1	generate/STIM_020.jpg
508.126	1.732	correct	generate	Run1	generate/STIM_020.jpg
513.273	2.041	incorrect	generate	Run1	generate/STIM_020.jpg
518.636	2.445	correct	generate	Run1	generate/STIM_021.jpg
523.848	2.914	correct	generate	Run1	generate/STIM_021.jpg
529.86	2.575	correct	generate	Run1	generate/STIM_021.jpg
535.123	2.388	incorrect	generate	Run1	generate/STIM_021.jpg
541.202	2.304	correct	generate	Run1	generate/STIM_021.jpg
546.218	2.035	correct	generate	Run1	generate/STIM_022.jpg
550.137	3.231	correct	generate	Run1	generate/STIM_022.jpg
556.208	1.704	correct	generate	Run1	generate/STIM_022.jpg
559.833	1.246	correct	generate	Run1	generate/STIM_022.jpg
564.717	1.204	correct	generate	Run1	generate/STIM_022.jpg
568.666	2.408	correct	generate	Run1	generate/STIM_023.jpg
572.973	1.896	correct	generate	Run1	generate/STIM_023.jpg
577.719	1.581	correct	generate	Run1	generate/STIM_023.jpg
583.083	1.168	correct	generate	Run1	generate/STIM_023.jpg
587.275	1.732	correct	generate	Run1	generate/STIM_023.jpg
591.056	2.261	correct	generate	Run1	generate/STIM_024.jpg
595.504	3.129	correct	generate	Run1	generate/STIM_024.jpg
600.788	2.559	correct	generate	Run1	generate/STIM_024.jpg
606.594	2.108	correct	generate	Run1	generate/STIM_024.jpg
610.792	2.267	correct	generate	Run1	generate/STIM_024.jpg
615.98	0.958	correct	repeat	Run1	repeat/STIM_000.jpg
619.878	0.841	correct	repeat	Run1	repeat/STIM_000.jpg
624.068	1.081	correct	repeat	Run1	repeat/STIM_000.jpg
627.831	1.102	correct	repeat	Run1	repeat/STIM_000.jpg
631.743	0.989	correct	repeat	Run1	repeat/STIM_000.jpg
635.876	0.866	correct	repeat	Run1	repeat/STIM_001.jpg
638.903	0.759	correct	repeat	Run1	repeat/STIM_001.jpg
642.705	0.649	correct	repeat	Run1	repeat/STIM_001.jpg
645.955	0.724	correct	repeat	Run1	repeat/STIM_001.jpg
649.557	0.93	correct	repeat	Run1	repeat/STIM_001.jpg
653.723	1.047	correct	repeat	Run1	repeat/STIM_002.jpg
657.839	0.987	correct	repeat	Run1	repeat/STIM_002.jpg
661.156	0.851	correct	repeat	Run1	repeat/STIM_002.jpg
665.844	0.983	correct	repeat	Run1	repeat/STIM_002.jpg
668.728	0.708	correct	repeat	Run1	repeat/STIM_002.jpg
673.319	0.594	correct	repeat	Run1	repeat/STIM_003.jpg
677.048	0.759	correct	repeat	Run1	repeat/STIM_003.jpg
681.421	0.665	correct	repeat	Run1	repeat/STIM_003.jpg
684.338	0.736	correct	repeat	Run1	repeat/STIM_003.jpg
688.272	0.723	correct	repeat	Run1	repeat/STIM_003.jpg
692.582	0.988	correct	repeat	Run1	repeat/STIM_004.jpg
697.158	0.645	correct	repeat	Run1	repeat/STIM_004.jpg
700.49	1.047	correct	repeat	Run1	repeat/STIM_004.jpg
703.997	1.123	correct	repeat	Run1	repeat/STIM_004.jpg
708.934	0.825	correct	repeat	Run1	repeat/STIM_004.jpg
713.536	0.678	correct	repeat	Run1	repeat/STIM_005.jpg
718.001	0.673	correct	repeat	Run1	repeat/STIM_005.jpg
720.903	0.703	correct	repeat	Run1	repeat/STIM_005.jpg
724.559	0.932	correct	repeat	Run1	repeat/STIM_005.jpg
729.251	0.699	correct	repeat	Run1	repeat/STIM_005.jpg
732.315	0.944	correct	repeat	Run1	repeat/STIM_006.jpg
736.703	0.817	correct	repeat	Run1	repeat/STIM_006.jpg
740.488	0.67	correct	repeat	Run1	repeat/STIM_006.jpg
744.88	0.722	correct	repeat	Run1	repeat/STIM_006.jpg
749.23	0.662	correct	repeat	Run1	repeat/STIM_006.jpg
752.342	0.952	correct	repeat	Run1	repeat/STIM_007.jpg
756.504	1.026	correct	repeat	Run1	repeat/STIM_007.jpg
760.757	0.842	correct	repeat	Run1	repeat/STIM_007.jpg
763.773	1.092	correct	repeat	Run1	repeat/STIM_007.jpg
768.297	0.835	correct	repeat	Run1	repeat/STIM_007.jpg
772.521	1.038	correct	repeat	Run1	repeat/STIM_008.jpg
775.952	0.608	correct	repeat	Run1	repeat/STIM_008.jpg
779.424	0.974	correct	repeat	Run1	repeat/STIM_008.jpg
783.068	0.827	correct	repeat	Run1	repeat/STIM_008.jpg
787.426	1.022	correct	repeat	Run1	repeat/STIM_008.jpg
790.722	0.923	correct	repeat	Run1	repeat/STIM_009.jpg
794.075	0.738	correct	repeat	Run1	repeat/STIM_009.jpg
798.313	0.848	correct	repeat	Run1	repeat/STIM_009.jpg
802.757	0.825	correct	repeat	Run1	repeat/STIM_009.jpg
806.487	0.953	correct	repeat	Run1	repeat/STIM_009.jpg
810.451	0.874	correct	repeat	Run1	repeat/STIM_010.jpg
815.054	0.806	correct	repeat	Run1	repeat/STIM_010.jpg
817.871	0.696	correct	repeat	Run1	repeat/STIM_010.jpg
822.455	1.083	correct	repeat	Run1	repeat/STIM_010.jpg
825.741	0.894	correct	repeat	Run1	repeat/STIM_010.jpg
829.283	0.95	correct	repeat	Run1	repeat/STIM_011.jpg
833.874	0.691	correct	repeat	Run1	repeat/STIM_011.jpg
837.46	0.897	correct	repeat	Run1	repeat/STIM_011.jpg
841.059	0.667	correct	repeat	Run1	repeat/STIM_011.jpg
844.285	0.627	correct	repeat	Run1	repeat/STIM_011.jpg
847.771	0.954	correct	repeat	Run1	repeat/STIM_012.jpg
851.39	0.777	correct	repeat	Run1	repeat/STIM_012.jpg
854.703	0.613	correct	repeat	Run1	repeat/STIM_012.jpg
857.869	0.641	correct	repeat	Run1	repeat/STIM_012.jpg
860.872	1.033	correct	repeat	Run1	repeat/STIM_012.jpg
865.753	1.119	incorrect	repeat	Run1	repeat/STIM_013.jpg
870.285	0.863	correct	repeat	Run1	repeat/STIM_013.jpg
874.203	1.062	correct	repeat	Run1	repeat/STIM_013.jpg
877.241	0.856	incorrect	repeat	Run1	repeat/STIM_013.jpg
881.868	0.661	correct	repeat	Run1	repeat/STIM_013.jpg
885.767	0.635	correct	repeat	Run1	repeat/STIM_014.jpg
889.981	0.601	correct	repeat	Run1	repeat/STIM_014.jpg
893.302	0.687	correct	repeat	Run1	repeat/STIM_014.jpg
896.98	0.734	correct	repeat	Run1	repeat/STIM_014.jpg
900.122	0.657	correct	repeat	Run1	repeat/STIM_014.jpg
903.181	2.807	correct	generate	Run2	generate/STIM_000.jpg
909.561	1.479	correct	generate	Run2	generate/STIM_000.jpg
914.799	2.532	correct	generate	Run2	generate/STIM_000.jpg
919.707	2.044	correct	generate	Run2	generate/STIM_000.jpg
924.185	1.067	correct	generate	Run2	generate/STIM_000.jpg
928.194	1.342	correct	generate	Run2	generate/STIM_001.jpg
932.224	2.286	incorrect	generate	Run2	generate/STIM_001.jpg
936.404	2.272	correct	generate	Run2	generate/STIM_001.jpg
940.984	1.722	correct	generate	Run2	generate/STIM_001.jpg
945.203	2.178	correct	generate	Run2	generate/STIM_001.jpg
949.611	2.489	correct	generate	Run2	generate/STIM_002.jpg
955.233	2.283	correct	generate	Run2	generate/STIM_002.jpg
960.161	1.358	correct	generate	Run2	generate/STIM_002.jpg
964.177	2.014	correct	generate	Run2	generate/STIM_002.jpg
968.011	1.069	correct	generate	Run2	generate/STIM_002.jpg
971.468	2.023	correct	generate	Run2	generate/STIM_003.jpg
975.568	1.24	correct	generate	Run2	generate/STIM_003.jpg
980.118	1.402	correct	generate	Run2	generate/STIM_003.jpg
983.506	0.992	correct	generate	Run2	generate/STIM_003.jpg
988.168	1.112	correct	generate	Run2	generate/STIM_003.jpg
991.97	1.758	correct	generate	Run2	generate/STIM_004.jpg
997.486	2.591	correct	generate	Run2	generate/STIM_004.jpg
1002.435	1.45	correct	generate	Run2	generate/STIM_004.jpg
1005.977	1.604	correct	generate	Run2	generate/STIM_004.jpg
1009.53	1.026	correct	generate	Run2	generate/STIM_004.jpg
1014.022	2.192	correct	generate	Run2	generate/STIM_005.jpg
1019.823	2.054	correct	generate	Run2	generate/STIM_005.jpg
1023.89	1.555	correct	generate	Run2	generate/STIM_005.jpg
1028.462	1.25	incorrect	generate	Run2	generate/STIM_005.jpg
1033.014	1.602	correct	generate	Run2	generate/STIM_005.jpg
1036.947	1.497	correct	generate	Run2	generate/STIM_006.jpg
1040.596	2.607	correct	generate	Run2	generate/STIM_006.jpg
1045.668	1.756	correct	generate	Run2	generate/STIM_006.jpg
1050.354	2.352	correct	generate	Run2	generate/STIM_006.jpg
1056.214	0.955	correct	generate	Run2	generate/STIM_006.jpg
1060.386	2.732	incorrect	generate	Run2	generate/STIM_007.jpg
1065.592	2.535	correct	generate	Run2	generate/STIM_007.jpg
1070.972	2.221	correct	generate	Run2	generate/STIM_007.jpg
1076.221	1.026	correct	generate	Run2	generate/STIM_007.jpg
1079.126	1.9	correct	generate	Run2	generate/STIM_007.jpg
1084.568	2.804	correct	generate	Run2	generate/STIM_008.jpg
1089.826	1.47	incorrect	generate	Run2	generate/STIM_008.jpg
1093.573	1.554	correct	generate	Run2	generate/STIM_008.jpg
1097.171	2.174	correct	generate	Run2	generate/STIM_008.jpg
1102.264	1.577	correct	generate	Run2	generate/STIM_008.jpg
1105.769	1.713	incorrect	generate	Run2	generate/STIM_009.jpg
1110.437	2.71	correct	generate	Run2	generate/STIM_009.jpg
1116.555	1.909	incorrect	generate	Run2	generate/STIM_009.jpg
1121.935	1.402	correct	generate	Run2	generate/STIM_009.jpg
1125.616	2.014	correct	generate	Run2	generate/STIM_009.jpg
1130.06	1.459	correct	generate	Run2	generate/STIM_010.jpg
1134.438	1.752	correct	generate	Run2	generate/STIM_010.jpg
1139.579	1.37	correct	generate	Run2	generate/STIM_010.jpg
1142.913	2.0	correct	generate	Run2	generate/STIM_010.jpg
1147.731	1.786	correct	generate	Run2	generate/STIM_010.jpg
1152.434	1.896	correct	generate	Run2	generate/STIM_011.jpg
1157.326	1.312	correct	generate	Run2	generate/STIM_011.jpg
1160.72	1.836	correct	generate	Run2	generate/STIM_011.jpg
1165.497	1.957	correct	generate	Run2	generate/STIM_011.jpg
1169.94	1.73	incorrect	generate	Run2	generate/STIM_011.jpg
1174.799	1.75	correct	generate	Run2	generate/STIM_012.jpg
1178.958	1.658	correct	generate	Run2	generate/STIM_012.jpg
1184.333	1.7	correct	generate	Run2	generate/STIM_012.jpg
1188.118	0.984	correct	generate	Run2	generate/STIM_012.jpg
1191.912	1.216	correct	generate	Run2	generate/STIM_012.jpg
1196.772	2.533	correct	generate	Run2	generate/STIM_013.jpg
1202.522	1.499	correct	generate	Run2	generate/STIM_013.jpg
1207.412	1.5	correct	generate	Run2	generate/STIM_013.jpg
1211.577	1.744	correct	generate	Run2	generate/STIM_013.jpg
1215.932	2.118	correct	generate	Run2	generate/STIM_013.jpg
1221.521	2.519	correct	generate	Run2	generate/STIM_014.jpg
1226.696	1.102	correct	generate	Run2	generate/STIM_014.jpg
1231.042	1.576	incorrect	generate	Run2	generate/STIM_014.jpg
1234.81	1.92	correct	generate	Run2	generate/STIM_014.jpg
1239.848	1.622	correct	generate	Run2	generate/STIM_014.jpg
1244.562	2.432	correct	generate	Run2	generate/STIM_015.jpg
1249.646	2.057	correct	generate	Run2	generate/STIM_015.jpg
1253.736	2.398	correct	generate	Run2	generate/STIM_015.jpg
1259.181	1.4	correct	generate	Run2	generate/STIM_015.jpg
1263.497	1.346	correct	generate	Run2	generate/STIM_015.jpg
1267.581	2.726	correct	generate	Run2	generate/STIM_016.jpg
1272.899	1.11	correct	generate	Run2	generate/STIM_016.jpg
1277.766	1.33	correct	generate	Run2	generate/STIM_016.jpg
1282.512	1.893	correct	generate	Run2	generate/STIM_016.jpg
1286.612	1.578	correct	generate	Run2	generate/STIM_016.jpg
1290.483	2.805	incorrect	generate	Run2	generate/STIM_017.jpg
1296.194	1.422	correct	generate	Run2	generate/STIM_017.jpg
1300.83	1.849	correct	generate	Run2	generate/STIM_017.jpg
1305.236	1.716	correct	generate	Run2	generate/STIM_017.jpg
1309.938	1.282	correct	generate	Run2	generate/STIM_017.jpg
1314.996	2.169	correct	generate	Run2	generate/STIM_018.jpg
1319.116	1.702	correct	generate	Run2	generate/STIM_018.jpg
1324.361	2.108	correct	generate	Run2	generate/STIM_018.jpg
1330.07	1.064	correct	generate	Run2	generate/STIM_018.jpg
1333.817	1.352	correct	generate	Run2	generate/STIM_018.jpg
1338.785	1.647	incorrect	generate	Run2	generate/STIM_019.jpg
1343.258	2.564	correct	generate	Run2	generate/STIM_019.jpg
1349.31	1.338	correct	generate	Run2	generate/STIM_019.jpg
1354.036	1.693	correct	generate	Run2	generate/STIM_019.jpg
1358.083	1.013	correct	generate	Run2	generate/STIM_019.jpg
1361.614	1.5	incorrect	generate	Run2	generate/STIM_020.jpg
1365.402	2.074	correct	generate	Run2	generate/STIM_020.jpg
1370.696	1.931	correct	generate	Run2	generate/STIM_020.jpg
1376.245	1.401	correct	generate	Run2	generate/STIM_020.jpg
1379.887	1.284	correct	generate	Run2	generate/STIM_020.jpg
1383.801	2.601	incorrect	generate	Run2	generate/STIM_021.jpg
1389.285	2.479	correct	generate	Run2	generate/STIM_021.jpg
1393.919	1.267	correct	generate	Run2	generate/STIM_021.jpg
1397.313	2.039	correct	generate	Run2	generate/STIM_021.jpg
1401.543	1.714	correct	generate	Run2	generate/STIM_021.jpg
1405.5	1.471	correct	generate	Run2	generate/STIM_022.jpg
1410.089	2.541	correct	generate	Run2	generate/STIM_022.jpg
1416.296	1.744	correct	generate	Run2	generate/STIM_022.jpg
1420.472	1.516	correct	generate	Run2	generate/STIM_022.jpg
1424.704	1.863	correct	generate	Run2	generate/STIM_022.jpg
1428.745	1.923	correct	generate	Run2	generate/STIM_023.jpg
1433.326	1.188	correct	generate	Run2	generate/STIM_023.jpg
1437.05	1.561	correct	generate	Run2	generate/STIM_023.jpg
1441.29	1.131	correct	generate	Run2	generate/STIM_023.jpg
1445.945	2.266	correct	generate	Run2	generate/STIM_023.jpg
1451.852	1.166	correct	generate	Run2	generate/STIM_024.jpg
1454.881	1.745	correct	generate	Run2	generate/STIM_024.jpg
1459.85	2.401	correct	generate	Run2	generate/STIM_024.jpg
1465.533	1.592	correct	generate	Run2	generate/STIM_024.jpg
1469.751	2.085	correct	generate	Run2	generate/STIM_024.jpg
1474.328	0.938	correct	repeat	Run2	repeat/STIM_000.jpg
1477.459	0.608	correct	repeat	Run2	repeat/STIM_000.jpg
1481.56	0.815	correct	repeat	Run2	repeat/STIM_000.jpg
1485.494	0.655	correct	repeat	Run2	repeat/STIM_000.jpg
1488.589	1.08	correct	repeat	Run2	repeat/STIM_000.jpg
1491.886	0.612	correct	repeat	Run2	repeat/STIM_001.jpg
1495.063	1.113	incorrect	repeat	Run2	repeat/STIM_001.jpg
1498.545	0.691	correct	repeat	Run2	repeat/STIM_001.jpg
1501.286	0.75	correct	repeat	Run2	repeat/STIM_001.jpg
1505.599	0.891	correct	repeat	Run2	repeat/STIM_001.jpg
1509.15	1.007	correct	repeat	Run2	repeat/STIM_002.jpg
1512.354	0.946	correct	repeat	Run2	repeat/STIM_002.jpg
1515.949	0.72	correct	repeat	Run2	repeat/STIM_002.jpg
1519.564	0.829	correct	repeat	Run2	repeat/STIM_002.jpg
1524.176	0.962	correct	repeat	Run2	repeat/STIM_002.jpg
1528.342	0.947	correct	repeat	Run2	repeat/STIM_003.jpg
1532.223	1.056	correct	repeat	Run2	repeat/STIM_003.jpg
1536.602	0.778	correct	repeat	Run2	repeat/STIM_003.jpg
1540.935	0.865	correct	repeat	Run2	repeat/STIM_003.jpg
1545.19	0.961	incorrect	repeat	Run2	repeat/STIM_003.jpg
1548.88	0.928	correct	repeat	Run2	repeat/STIM_004.jpg
1553.22	1.065	correct	repeat	Run2	repeat/STIM_004.jpg
1557.752	0.751	correct	repeat	Run2	repeat/STIM_004.jpg
1560.509	0.842	correct	repeat	Run2	repeat/STIM_004.jpg
1564.684	0.686	correct	repeat	Run2	repeat/STIM_004.jpg
1568.553	0.924	correct	repeat	Run2	repeat/STIM_005.jpg
1573.207	0.64	correct	repeat	Run2	repeat/STIM_005.jpg
1576.861	0.633	correct	repeat	Run2	repeat/STIM_005.jpg
1581.088	0.815	correct	repeat	Run2	repeat/STIM_005.jpg
1585.66	1.102	correct	repeat	Run2	repeat/STIM_005.jpg
1590.262	0.836	correct	repeat	Run2	repeat/STIM_006.jpg
1594.241	0.935	correct	repeat	Run2	repeat/STIM_006.jpg
1598.248	0.74	correct	repeat	Run2	repeat/STIM_006.jpg
1602.644	0.694	correct	repeat	Run2	repeat/STIM_006.jpg
1607.051	0.659	correct	repeat	Run2	repeat/STIM_006.jpg
1610.877	0.866	correct	repeat	Run2	repeat/STIM_007.jpg
1614.195	1.062	correct	repeat	Run2	repeat/STIM_007.jpg
1617.631	0.69	correct	repeat	Run2	repeat/STIM_007.jpg
1620.621	0.624	correct	repeat	Run2	repeat/STIM_007.jpg
1623.274	0.582	correct	repeat	Run2	repeat/STIM_007.jpg
1626.229	0.782	correct	repeat	Run2	repeat/STIM_008.jpg
1629.116	0.728	correct	repeat	Run2	repeat/STIM_008.jpg
1632.017	0.799	correct	repeat	Run2	repeat/STIM_008.jpg
1636.533	1.02	correct	repeat	Run2	repeat/STIM_008.jpg
1640.122	0.941	correct	repeat	Run2	repeat/STIM_008.jpg
1643.882	0.877	correct	repeat	Run2	repeat/STIM_009.jpg
1648.139	0.632	correct	repeat	Run2	repeat/STIM_009.jpg
1651.535	0.577	correct	repeat	Run2	repeat/STIM_009.jpg
1654.815	1.063	correct	repeat	Run2	repeat/STIM_009.jpg
1658.118	0.874	correct	repeat	Run2	repeat/STIM_009.jpg
1661.763	0.572	correct	repeat	Run2	repeat/STIM_010.jpg
1664.774	0.654	correct	repeat	Run2	repeat/STIM_010.jpg
1669.126	0.945	correct	repeat	Run2	repeat/STIM_010.jpg
1673.19	0.846	correct	repeat	Run2	repeat/STIM_010.jpg
1676.601	0.572	correct	repeat	Run2	repeat/STIM_010.jpg
1680.182	1.082	correct	repeat	Run2	repeat/STIM_011.jpg
1684.501	0.726	correct	repeat	Run2	repeat/STIM_011.jpg
1688.095	1.092	correct	repeat	Run2	repeat/STIM_011.jpg
1692.936	0.646	correct	repeat	Run2	repeat/STIM_011.jpg
1696.87	1.127	correct	repeat	Run2	repeat/STIM_011.jpg
1701.185	0.765	correct	repeat	Run2	repeat/STIM_012.jpg
1705.635	1.076	correct	repeat	Run2	repeat/STIM_012.jpg
1708.672	0.708	correct	repeat	Run2	repeat/STIM_012.jpg
1713.103	0.852	incorrect	repeat	Run2	repeat/STIM_012.jpg
1717.181	1.032	correct	repeat	Run2	repeat/STIM_012.jpg
1721.338	1.052	correct	repeat	Run2	repeat/STIM_013.jpg
1724.497	0.676	correct	repeat	Run2	repeat/STIM_013.jpg
1727.774	1.036	correct	repeat	Run2	repeat/STIM_013.jpg
1731.655	0.731	correct	repeat	Run2	repeat/STIM_013.jpg
1735.731	0.846	correct	repeat	Run2	repeat/STIM_013.jpg
1740.03	0.756	correct	repeat	Run2	repeat/STIM_014.jpg
1743.562	0.906	correct	repeat	Run2	repeat/STIM_014.jpg
1747.886	1.062	correct	repeat	Run2	repeat/STIM_014.jpg
1751.552	0.813	correct	repeat	Run2	repeat/STIM_014.jpg
1755.429	0.848	correct	repeat	Run2	repeat/STIM_014.jpg
1758.481	2.238	incorrect	generate	Run3	generate/STIM_000.jpg
1763.308	1.199	correct	generate	Run3	generate/STIM_000.jpg
1768.172	1.036	correct	generate	Run3	generate/STIM_000.jpg
1772.315	1.231	correct	generate	Run3	generate/STIM_000.jpg
1776.224	2.024	correct	generate	Run3	generate/STIM_000.jpg
1780.73	2.31	correct	generate	Run3	generate/STIM_001.jpg
1786.518	2.094	correct	generate	Run3	generate/STIM_001.jpg
1791.89	1.19	correct	generate	Run3	generate/STIM_001.jpg
1796.548	1.539	correct	generate	Run3	generate/STIM_001.jpg
1800.069	2.056	correct	generate	Run3	generate/STIM_001.jpg
1804.347	1.765	correct	generate	Run3	generate/STIM_002.jpg
1808.598	1.8	correct	generate	Run3	generate/STIM_002.jpg
1812.503	1.837	correct	generate	Run3	generate/STIM_002.jpg
1817.072	0.974	correct	generate	Run3	generate/STIM_002.jpg
1821.107	1.806	correct	generate	Run3	generate/STIM_002.jpg
1826.357	1.229	correct	generate	Run3	generate/STIM_003.jpg
1829.736	1.347	incorrect	generate	Run3	generate/STIM_003.jpg
1834.058	1.315	correct	generate	Run3	generate/STIM_003.jpg
1838.509	2.336	correct	generate	Run3	generate/STIM_003.jpg
1842.838	2.377	correct	generate	Run3	generate/STIM_003.jpg
1847.812	2.205	correct	generate	Run3	generate/STIM_004.jpg
1852.159	1.422	correct	generate	Run3	generate/STIM_004.jpg
1856.773	2.122	correct	generate	Run3	generate/STIM_004.jpg
1861.871	1.951	correct	generate	Run3	generate/STIM_004.jpg
1867.206	1.244	correct	generate	Run3	generate/STIM_004.jpg
1870.48	0.962	incorrect	generate	Run3	generate/STIM_005.jpg
1873.775	2.084	correct	generate	Run3	generate/STIM_005.jpg
1878.176	1.098	correct	generate	Run3	generate/STIM_005.jpg
1881.158	1.114	correct	generate	Run3	generate/STIM_005.jpg
1885.025	1.13	correct	generate	Run3	generate/STIM_005.jpg
1888.905	2.024	incorrect	generate	Run3	generate/STIM_006.jpg
1892.777	1.869	correct	generate	Run3	generate/STIM_006.jpg
1897.025	1.683	correct	generate	Run3	generate/STIM_006.jpg
1901.98	2.345	correct	generate	Run3	generate/STIM_006.jpg
1908.036	1.559	correct	generate	Run3	generate/STIM_006.jpg
1911.931	2.178	correct	generate	Run3	generate/STIM_007.jpg
1916.92	1.986	correct	generate	Run3	generate/STIM_007.jpg
1921.292	1.486	correct	generate	Run3	generate/STIM_007.jpg
1925.345	1.51	correct	generate	Run3	generate/STIM_007.jpg
1929.394	1.61	correct	generate	Run3	generate/STIM_007.jpg
1933.169	1.174	incorrect	generate	Run3	generate/STIM_008.jpg
1937.96	0.962	correct	generate	Run3	generate/STIM_008.jpg
1941.29	1.584	correct	generate	Run3	generate/STIM_008.jpg
1945.964	0.989	correct	generate	Run3	generate/STIM_008.jpg
1949.679	1.535	correct	generate	Run3	generate/STIM_008.jpg
1953.917	2.02	incorrect	generate	Run3	generate/STIM_009.jpg
1958.827	2.372	correct	generate	Run3	generate/STIM_009.jpg
1963.31	1.487	correct	generate	Run3	generate/STIM_009.jpg
1967.914	2.312	correct	generate	Run3	generate/STIM_009.jpg
1972.403	2.257	correct	generate	Run3	generate/STIM_009.jpg
1977.545	1.476	correct	generate	Run3	generate/STIM_010.jpg
1981.11	1.067	correct	generate	Run3	generate/STIM_010.jpg
1985.474	2.134	correct	generate	Run3	generate/STIM_010.jpg
1989.537	2.023	correct	generate	Run3	generate/STIM_010.jpg
1994.931	1.834	correct	generate	Run3	generate/STIM_010.jpg
1999.289	1.556	correct	generate	Run3	generate/STIM_011.jpg
2003.977	1.223	correct	generate	Run3	generate/STIM_011.jpg
2008.134	2.048	correct	generate	Run3	generate/STIM_011.jpg
2012.64	1.146	correct	generate	Run3	generate/STIM_011.jpg
2015.88	1.681	correct	generate	Run3	generate/STIM_011.jpg
2020.212	1.286	incorrect	generate	Run3	generate/STIM_012.jpg
2024.222	1.653	correct	generate	Run3	generate/STIM_012.jpg
2028.629	1.568	correct	generate	Run3	generate/STIM_012.jpg
2032.234	1.253	correct	generate	Run3	generate/STIM_012.jpg
2035.678	1.72	correct	generate	Run3	generate/STIM_012.jpg
2039.419	1.672	correct	generate	Run3	generate/STIM_013.jpg
2043.237	1.753	correct	generate	Run3	generate/STIM_013.jpg
2048.463	1.07	correct	generate	Run3	generate/STIM_013.jpg
2052.793	1.852	correct	generate	Run3	generate/STIM_013.jpg
2057.726	1.863	correct	generate	Run3	generate/STIM_013.jpg
2061.614	1.884	correct	generate	Run3	generate/STIM_014.jpg
2065.564	1.557	correct	generate	Run3	generate/STIM_014.jpg
2070.489	1.44	correct	generate	Run3	generate/STIM_014.jpg
2074.711	1.652	correct	generate	Run3	generate/STIM_014.jpg
2079.661	1.093	correct	generate	Run3	generate/STIM_014.jpg
2083.028	1.507	incorrect	generate	Run3	generate/STIM_015.jpg
2087.777	2.176	correct	generate	Run3	generate/STIM_015.jpg
2092.757	1.969	incorrect	generate	Run3	generate/STIM_015.jpg
2096.669	2.165	correct	generate	Run3	generate/STIM_015.jpg
2101.784	1.891	correct	generate	Run3	generate/STIM_015.jpg
2105.824	1.462	correct	generate	Run3	generate/STIM_016.jpg
2110.768	1.449	correct	generate	Run3	generate/STIM_016.jpg
2116.0	2.119	correct	generate	Run3	generate/STIM_016.jpg
2121.605	2.277	correct	generate	Run3	generate/STIM_016.jpg
2126.26	1.509	correct	generate	Run3	generate/STIM_016.jpg
2131.571	1.949	correct	generate	Run3	generate/STIM_017.jpg
2136.957	1.235	correct	generate	Run3	generate/STIM_017.jpg
2140.219	1.429	correct	generate	Run3	generate/STIM_017.jpg
2144.322	1.088	correct	generate	Run3	generate/STIM_017.jpg
2149.075	1.484	correct	generate	Run3	generate/STIM_017.jpg
2152.647	2.052	correct	generate	Run3	generate/STIM_018.jpg
2156.782	1.453	correct	generate	Run3	generate/STIM_018.jpg
2160.154	2.216	correct	generate	Run3	generate/STIM_018.jpg
2165.183	2.285	incorrect	generate	Run3	generate/STIM_018.jpg
2170.58	1.462	correct	generate	Run3	generate/STIM_018.jpg
2175.146	1.013	correct	generate	Run3	generate/STIM_019.jpg
2178.942	1.618	correct	generate	Run3	generate/STIM_019.jpg
2182.751	1.294	correct	generate	Run3	generate/STIM_019.jpg
2187.609	2.26	correct	generate	Run3	generate/STIM_019.jpg
2193.437	1.202	correct	generate	Run3	generate/STIM_019.jpg
2197.966	1.637	correct	generate	Run3	generate/STIM_020.jpg
2201.5	1.875	incorrect	generate	Run3	generate/STIM_020.jpg
2207.066	1.77	correct	generate	Run3	generate/STIM_020.jpg
2212.419	1.544	correct	generate	Run3	generate/STIM_020.jpg
2217.745	1.494	correct	generate	Run3	generate/STIM_020.jpg
2221.413	1.297	correct	generate	Run3	generate/STIM_021.jpg
2226.386	1.583	correct	generate	Run3	generate/STIM_021.jpg
2231.189	1.212	correct	generate	Run3	generate/STIM_021.jpg
2235.767	1.083	correct	generate	Run3	generate/STIM_021.jpg
2240.361	1.259	correct	generate	Run3	generate/STIM_021.jpg
2244.879	1.272	correct	generate	Run3	generate/STIM_022.jpg
2249.57	2.371	correct	generate	Run3	generate/STIM_022.jpg
2254.979	1.553	correct	generate	Run3	generate/STIM_022.jpg
2259.621	1.342	correct	generate	Run3	generate/STIM_022.jpg
2262.939	2.239	correct	generate	Run3	generate/STIM_022.jpg
2268.833	1.205	correct	generate	Run3	generate/STIM_023.jpg
2272.759	1.479	correct	generate	Run3	generate/STIM_023.jpg
2277.07	1.756	correct	generate	Run3	generate/STIM_023.jpg
2281.398	1.488	incorrect	generate	Run3	generate/STIM_023.jpg
2286.128	1.087	correct	generate	Run3	generate/STIM_023.jpg
2291.056	1.766	correct	generate	Run3	generate/STIM_024.jpg
2296.333	1.511	correct	generate	Run3	generate/STIM_024.jpg
2300.352	2.012	correct	generate	Run3	generate/STIM_024.jpg
2304.633	1.105	correct	generate	Run3	generate/STIM_024.jpg
2309.566	1.274	correct	generate	Run3	generate/STIM_024.jpg
2313.187	1.1	correct	repeat	Run3	repeat/STIM_000.jpg
2316.243	1.106	correct	repeat	Run3	repeat/STIM_000.jpg
2320.545	1.002	correct	repeat	Run3	repeat/STIM_000.jpg
2324.963	1.055	correct	repeat	Run3	repeat/STIM_000.jpg
2329.58	0.661	correct	repeat	Run3	repeat/STIM_000.jpg
2333.837	0.611	correct	repeat	Run3	repeat/STIM_001.jpg
2337.231	1.063	correct	repeat	Run3	repeat/STIM_001.jpg
2342.121	1.09	correct	repeat	Run3	repeat/STIM_001.jpg
2346.175	0.768	correct	repeat	Run3	repeat/STIM_001.jpg
2349.544	1.046	correct	repeat	Run3	repeat/STIM_001.jpg
2354.242	1.023	correct	repeat	Run3	repeat/STIM_002.jpg
2358.64	0.748	correct	repeat	Run3	repeat/STIM_002.jpg
2361.41	1.05	correct	repeat	Run3	repeat/STIM_002.jpg
2365.563	0.975	incorrect	repeat	Run3	repeat/STIM_002.jpg
2368.55	0.609	correct	repeat	Run3	repeat/STIM_002.jpg
2372.753	0.812	correct	repeat	Run3	repeat/STIM_003.jpg
2376.692	0.66	correct	repeat	Run3	repeat/STIM_003.jpg
2379.843	0.621	correct	repeat	Run3	repeat/STIM_003.jpg
2383.189	0.98	correct	repeat	Run3	repeat/STIM_003.jpg
2386.667	0.736	correct	repeat	Run3	repeat/STIM_003.jpg
2390.72	0.693	correct	repeat	Run3	repeat/STIM_004.jpg
2394.626	0.82	correct	repeat	Run3	repeat/STIM_004.jpg
2397.909	1.063	correct	repeat	Run3	repeat/STIM_004.jpg
2401.763	0.697	correct	repeat	Run3	repeat/STIM_004.jpg
2404.757	0.772	correct	repeat	Run3	repeat/STIM_004.jpg
2408.569	0.93	correct	repeat	Run3	repeat/STIM_005.jpg
2412.735	0.907	correct	repeat	Run3	repeat/STIM_005.jpg
2416.805	1.04	correct	repeat	Run3	repeat/STIM_005.jpg
2419.735	0.877	correct	repeat	Run3	repeat/STIM_005.jpg
2423.279	0.666	correct	repeat	Run3	repeat/STIM_005.jpg
2427.413	1.022	correct	repeat	Run3	repeat/STIM_006.jpg
2431.185	0.696	correct	repeat	Run3	repeat/STIM_006.jpg
2435.111	0.674	correct	repeat	Run3	repeat/STIM_006.jpg
2438.123	0.66	correct	repeat	Run3	repeat/STIM_006.jpg
2441.209	0.648	correct	repeat	Run3	repeat/STIM_006.jpg
2444.948	1.042	correct	repeat	Run3	repeat/STIM_007.jpg
2448.85	0.722	correct	repeat	Run3	repeat/STIM_007.jpg
2453.075	0.901	correct	repeat	Run3	repeat/STIM_007.jpg
2456.732	0.648	correct	repeat	Run3	repeat/STIM_007.jpg
2459.44	0.94	correct	repeat	Run3	repeat/STIM_007.jpg
2464.112	1.136	correct	repeat	Run3	repeat/STIM_008.jpg
2468.262	0.917	correct	repeat	Run3	repeat/STIM_008.jpg
2472.239	0.828	correct	repeat	Run3	repeat/STIM_008.jpg
2475.084	0.894	correct	repeat	Run3	repeat/STIM_008.jpg
2479.28	0.714	correct	repeat	Run3	repeat/STIM_008.jpg
2483.578	1.012	correct	repeat	Run3	repeat/STIM_009.jpg
2488.232	1.099	correct	repeat	Run3	repeat/STIM_009.jpg
2491.552	0.833	correct	repeat	Run3	repeat/STIM_009.jpg
2495.028	0.678	correct	repeat	Run3	repeat/STIM_009.jpg
2498.636	0.719	correct	repeat	Run3	repeat/STIM_009.jpg
2502.745	0.714	correct	repeat	Run3	repeat/STIM_010.jpg
2505.981	0.756	correct	repeat	Run3	repeat/STIM_010.jpg
2510.224	1.032	correct	repeat	Run3	repeat/STIM_010.jpg
2513.296	1.059	correct	repeat	Run3	repeat/STIM_010.jpg
2517.538	0.641	correct	repeat	Run3	repeat/STIM_010.jpg
2521.526	0.832	correct	repeat	Run3	repeat/STIM_011.jpg
2525.152	0.676	correct	repeat	Run3	repeat/STIM_011.jpg
2528.621	0.87	correct	repeat	Run3	repeat/STIM_011.jpg
2532.382	1.099	correct	repeat	Run3	repeat/STIM_011.jpg
2536.602	1.051	correct	repeat	Run3	repeat/STIM_011.jpg
2540.567	0.758	correct	repeat	Run3	repeat/STIM_012.jpg
2543.727	0.598	correct	repeat	Run3	repeat/STIM_012.jpg
2547.25	0.918	correct	repeat	Run3	repeat/STIM_012.jpg
2550.649	0.893	correct	repeat	Run3	repeat/STIM_012.jpg
2553.474	0.582	correct	repeat	Run3	repeat/STIM_012.jpg
2557.906	0.894	correct	repeat	Run3	repeat/STIM_013.jpg
2561.47	1.088	correct	repeat	Run3	repeat/STIM_013.jpg
2564.569	0.593	correct	repeat	Run3	repeat/STIM_013.jpg
2568.508	0.956	correct	repeat	Run3	repeat/STIM_013.jpg
2572.784	1.046	correct	repeat	Run3	repeat/STIM_013.jpg
2577.364	0.841	correct	repeat	Run3	repeat/STIM_014.jpg
2581.391	1.081	correct	repeat	Run3	repeat/STIM_014.jpg
2586.136	0.722	correct	repeat	Run3	repeat/STIM_014.jpg
2590.14	0.724	correct	repeat	Run3	repeat/STIM_014.jpg
2592.805	0.683	correct	repeat	Run3	repeat/STIM_014.jpg
2596.011	1.846	correct	generate	Run4	generate/STIM_000.jpg
2599.894	1.969	correct	generate	Run4	generate/STIM_000.jpg
2604.578	2.322	correct	generate	Run4	generate/STIM_000.jpg
2608.628	2.166	correct	generate	Run4	generate/STIM_000.jpg
2613.071	2.025	correct	generate	Run4	generate/STIM_000.jpg
2617.301	1.187	correct	generate	Run4	generate/STIM_001.jpg
2621.761	1.37	correct	generate	Run4	generate/STIM_001.jpg
2625.351	1.21	correct	generate	Run4	generate/STIM_001.jpg
2629.056	1.307	correct	generate	Run4	generate/STIM_001.jpg
2633.423	2.252	correct	generate	Run4	generate/STIM_001.jpg
2637.813	1.632	correct	generate	Run4	generate/STIM_002.jpg
2642.748	1.367	correct	generate	Run4	generate/STIM_002.jpg
2646.496	2.214	correct	generate	Run4	generate/STIM_002.jpg
2651.974	2.065	correct	generate	Run4	generate/STIM_002.jpg
2655.922	1.015	correct	generate	Run4	generate/STIM_002.jpg
2659.192	2.165	correct	generate	Run4	generate/STIM_003.jpg
2664.789	1.16	correct	generate	Run4	generate/STIM_003.jpg
2669.257	1.054	correct	generate	Run4	generate/STIM_003.jpg
2672.45	2.236	correct	generate	Run4	generate/STIM_003.jpg
2678.28	1.08	correct	generate	Run4	generate/STIM_003.jpg
2681.759	1.464	correct	generate	Run4	generate/STIM_004.jpg
2685.514	1.102	correct	generate	Run4	generate/STIM_004.jpg
2689.657	1.628	correct	generate	Run4	generate/STIM_004.jpg
2694.632	2.262	correct	generate	Run4	generate/STIM_004.jpg
2699.028	1.283	correct	generate	Run4	generate/STIM_004.jpg
2702.449	2.313	correct	generate	Run4	generate/STIM_005.jpg
2706.953	1.99	correct	generate	Run4	generate/STIM_005.jpg
2712.07	1.311	correct	generate	Run4	generate/STIM_005.jpg
2716.747	1.594	correct	generate	Run4	generate/STIM_005.jpg
2720.234	1.67	correct	generate	Run4	generate/STIM_005.jpg
2724.196	1.491	correct	generate	Run4	generate/STIM_006.jpg
2727.839	1.938	correct	generate	Run4	generate/STIM_006.jpg
2732.112	2.083	correct	generate	Run4	generate/STIM_006.jpg
2737.691	1.375	correct	generate	Run4	generate/STIM_006.jpg
2741.973	1.46	correct	generate	Run4	generate/STIM_006.jpg
2745.618	1.734	correct	generate	Run4	generate/STIM_007.jpg
2749.408	1.461	correct	generate	Run4	generate/STIM_007.jpg
2754.142	1.032	correct	generate	Run4	generate/STIM_007.jpg
2759.021	1.228	correct	generate	Run4	generate/STIM_007.jpg
2764.019	1.672	correct	generate	Run4	generate/STIM_007.jpg
2769.094	1.365	correct	generate	Run4	generate/STIM_008.jpg
2774.093	1.995	correct	generate	Run4	generate/STIM_008.jpg
2778.5	2.212	correct	generate	Run4	generate/STIM_008.jpg
2784.168	1.303	correct	generate	Run4	generate/STIM_008.jpg
2789.037	1.863	correct	generate	Run4	generate/STIM_008.jpg
2793.376	1.215	correct	generate	Run4	generate/STIM_009.jpg
2797.052	1.084	correct	generate	Run4	generate/STIM_009.jpg
2801.71	0.975	correct	generate	Run4	generate/STIM_009.jpg
2804.732	1.323	correct	generate	Run4	generate/STIM_009.jpg
2808.919	1.503	correct	generate	Run4	generate/STIM_009.jpg
2814.002	1.54	correct	generate	Run4	generate/STIM_010.jpg
2817.741	2.016	correct	generate	Run4	generate/STIM_010.jpg
2822.792	1.989	correct	generate	Run4	generate/STIM_010.jpg
2827.024	2.269	correct	generate	Run4	generate/STIM_010.jpg
2831.846	1.264	correct	generate	Run4	generate/STIM_010.jpg
2836.728	1.186	correct	generate	Run4	generate/STIM_011.jpg
2839.797	2.024	correct	generate	Run4	generate/STIM_011.jpg
2844.587	1.093	correct	generate	Run4	generate/STIM_011.jpg
2847.807	2.202	correct	generate	Run4	generate/STIM_011.jpg
2851.782	1.217	correct	generate	Run4	generate/STIM_011.jpg
2856.631	1.597	correct	generate	Run4	generate/STIM_012.jpg
2861.494	2.379	correct	generate	Run4	generate/STIM_012.jpg
2867.251	1.814	correct	generate	Run4	generate/STIM_012.jpg
2871.73	2.339	correct	generate	Run4	generate/STIM_012.jpg
2876.4	1.561	correct	generate	Run4	generate/STIM_012.jpg
2880.722	2.194	correct	generate	Run4	generate/STIM_013.jpg
2886.266	1.312	correct	generate	Run4	generate/STIM_013.jpg
2890.643	2.243	correct	generate	Run4	generate/STIM_013.jpg
2896.236	1.927	correct	generate	Run4	generate/STIM_013.jpg
2901.446	1.14	correct	generate	Run4	generate/STIM_013.jpg
2904.556	2.179	correct	generate	Run4	generate/STIM_014.jpg
2909.765	1.925	correct	generate	Run4	generate/STIM_014.jpg
2913.564	1.311	correct	generate	Run4	generate/STIM_014.jpg
2918.352	1.261	incorrect	generate	Run4	generate/STIM_014.jpg
2922.173	2.177	correct	generate	Run4	generate/STIM_014.jpg
2926.916	1.113	correct	generate	Run4	generate/STIM_015.jpg
2930.251	1.558	correct	generate	Run4	generate/STIM_015.jpg
2934.806	2.32	correct	generate	Run4	generate/STIM_015.jpg
2939.27	1.821	correct	generate	Run4	generate/STIM_015.jpg
2943.445	1.101	correct	generate	Run4	generate/STIM_015.jpg
2946.576	2.384	correct	generate	Run4	generate/STIM_016.jpg
2951.371	2.022	correct	generate	Run4	generate/STIM_016.jpg
2956.134	1.497	correct	generate	Run4	generate/STIM_016.jpg
2961.071	1.49	correct	generate	Run4	generate/STIM_016.jpg
2964.619	1.176	correct	generate	Run4	generate/STIM_016.jpg
2969.548	1.764	correct	generate	Run4	generate/STIM_017.jpg
2973.863	1.708	correct	generate	Run4	generate/STIM_017.jpg
2978.995	1.025	correct	generate	Run4	generate/STIM_017.jpg
2983.771	2.044	incorrect	generate	Run4	generate/STIM_017.jpg
2988.075	1.051	correct	generate	Run4	generate/STIM_017.jpg
2991.186	1.507	correct	generate	Run4	generate/STIM_018.jpg
2994.684	1.771	correct	generate	Run4	generate/STIM_018.jpg
2998.45	0.992	correct	generate	Run4	generate/STIM_018.jpg
3001.994	1.13	correct	generate	Run4	generate/STIM_018.jpg
3006.364	2.192	correct	generate	Run4	generate/STIM_018.jpg
3011.199	1.842	correct	generate	Run4	generate/STIM_019.jpg
3015.761	1.538	correct	generate	Run4	generate/STIM_019.jpg
3020.006	2.169	correct	generate	Run4	generate/STIM_019.jpg
3024.949	1.545	correct	generate	Run4	generate/STIM_019.jpg
3029.276	1.955	correct	generate	Run4	generate/STIM_019.jpg
3033.285	0.994	correct	generate	Run4	generate/STIM_020.jpg
3036.582	1.075	correct	generate	Run4	generate/STIM_020.jpg
3041.448	1.332	correct	generate	Run4	generate/STIM_020.jpg
3045.444	2.284	correct	generate	Run4	generate/STIM_020.jpg
3050.847	2.217	correct	generate	Run4	generate/STIM_020.jpg
3055.454	2.184	correct	generate	Run4	generate/STIM_021.jpg
3059.405	1.092	correct	generate	Run4	generate/STIM_021.jpg
3064.282	1.738	correct	generate	Run4	generate/STIM_021.jpg
3069.197	1.857	correct	generate	Run4	generate/STIM_021.jpg
3073.19	2.101	correct	generate	Run4	generate/STIM_021.jpg
3077.855	1.151	correct	generate	Run4	generate/STIM_022.jpg
3082.326	1.289	correct	generate	Run4	generate/STIM_022.jpg
3086.744	1.116	correct	generate	Run4	generate/STIM_022.jpg
3090.233	2.118	correct	generate	Run4	generate/STIM_022.jpg
3094.919	1.685	correct	generate	Run4	generate/STIM_022.jpg
3100.207	1.909	correct	generate	Run4	generate/STIM_023.jpg
3105.645	1.18	correct	generate	Run4	generate/STIM_023.jpg
3110.303	2.373	correct	generate	Run4	generate/STIM_023.jpg
3114.962	2.079	correct	generate	Run4	generate/STIM_023.jpg
3119.58	2.228	correct	generate	Run4	generate/STIM_023.jpg
3125.086	2.36	correct	generate	Run4	generate/STIM_024.jpg
3130.933	2.066	incorrect	generate	Run4	generate/STIM_024.jpg
3136.162	2.189	correct	generate	Run4	generate/STIM_024.jpg
3141.957	1.359	correct	generate	Run4	generate/STIM_024.jpg
3146.709	1.655	correct	generate	Run4	generate/STIM_024.jpg
3152.05	0.979	correct	repeat	Run4	repeat/STIM_000.jpg
3156.689	0.736	incorrect	repeat	Run4	repeat/STIM_000.jpg
3160.947	0.597	correct	repeat	Run4	repeat/STIM_000.jpg
3165.187	0.785	correct	repeat	Run4	repeat/STIM_000.jpg
3168.963	0.957	correct	repeat	Run4	repeat/STIM_000.jpg
3173.228	1.037	correct	repeat	Run4	repeat/STIM_001.jpg
3177.285	0.676	correct	repeat	Run4	repeat/STIM_001.jpg
3181.855	1.071	correct	repeat	Run4	repeat/STIM_001.jpg
3186.556	1.103	correct	repeat	Run4	repeat/STIM_001.jpg
3189.759	1.068	incorrect	repeat	Run4	repeat/STIM_001.jpg
3193.891	0.693	correct	repeat	Run4	repeat/STIM_002.jpg
3197.445	1.086	correct	repeat	Run4	repeat/STIM_002.jpg
3201.695	0.674	correct	repeat	Run4	repeat/STIM_002.jpg
3204.952	0.874	correct	repeat	Run4	repeat/STIM_002.jpg
3208.012	0.72	correct	repeat	Run4	repeat/STIM_002.jpg
3212.318	0.66	correct	repeat	Run4	repeat/STIM_003.jpg
3214.912	0.741	correct	repeat	Run4	repeat/STIM_003.jpg
3218.336	0.975	correct	repeat	Run4	repeat/STIM_003.jpg
3221.365	0.907	correct	repeat	Run4	repeat/STIM_003.jpg
3225.088	0.738	correct	repeat	Run4	repeat/STIM_003.jpg
3228.601	0.744	correct	repeat	Run4	repeat/STIM_004.jpg
3233.061	1.028	correct	repeat	Run4	repeat/STIM_004.jpg
3237.211	1.1	correct	repeat	Run4	repeat/STIM_004.jpg
3241.972	0.947	correct	repeat	Run4	repeat/STIM_004.jpg
3245.498	0.672	correct	repeat	Run4	repeat/STIM_004.jpg
3249.593	0.829	correct	repeat	Run4	repeat/STIM_005.jpg
3252.799	0.788	correct	repeat	Run4	repeat/STIM_005.jpg
3256.73	0.7	incorrect	repeat	Run4	repeat/STIM_005.jpg
3260.861	0.91	correct	repeat	Run4	repeat/STIM_005.jpg
3264.712	0.756	correct	repeat	Run4	repeat/STIM_005.jpg
3268.502	0.749	correct	repeat	Run4	repeat/STIM_006.jpg
3273.162	0.877	correct	repeat	Run4	repeat/STIM_006.jpg
3277.657	0.905	correct	repeat	Run4	repeat/STIM_006.jpg
3281.391	0.895	correct	repeat	Run4	repeat/STIM_006.jpg
3285.653	0.945	correct	repeat	Run4	repeat/STIM_006.jpg
3288.644	0.697	correct	repeat	Run4	repeat/STIM_007.jpg
3291.874	0.64	correct	repeat	Run4	repeat/STIM_007.jpg
3294.91	0.886	correct	repeat	Run4	repeat/STIM_007.jpg
3298.319	1.06	correct	repeat	Run4	repeat/STIM_007.jpg
3303.103	0.582	correct	repeat	Run4	repeat/STIM_007.jpg
3307.272	0.972	correct	repeat	Run4	repeat/STIM_008.jpg
3311.512	0.639	correct	repeat	Run4	repeat/STIM_008.jpg
3314.078	0.586	incorrect	repeat	Run4	repeat/STIM_008.jpg
3318.532	1.027	correct	repeat	Run4	repeat/STIM_008.jpg
3322.848	1.048	correct	repeat	Run4	repeat/STIM_008.jpg
3326.787	1.015	correct	repeat	Run4	repeat/STIM_009.jpg
3330.619	0.86	correct	repeat	Run4	repeat/STIM_009.jpg
3333.547	0.674	correct	repeat	Run4	repeat/STIM_009.jpg
3337.867	0.742	correct	repeat	Run4	repeat/STIM_009.jpg
3340.78	1.1	correct	repeat	Run4	repeat/STIM_009.jpg
3345.123	0.998	correct	repeat	Run4	repeat/STIM_010.jpg
3349.95	0.868	correct	repeat	Run4	repeat/STIM_010.jpg
3354.138	0.648	correct	repeat	Run4	repeat/STIM_010.jpg
3357.122	0.585	correct	repeat	Run4	repeat/STIM_010.jpg
3361.334	1.089	correct	repeat	Run4	repeat/STIM_010.jpg
3365.206	1.097	correct	repeat	Run4	repeat/STIM_011.jpg
3368.721	0.589	correct	repeat	Run4	repeat/STIM_011.jpg
3371.518	1.026	correct	repeat	Run4	repeat/STIM_011.jpg
3375.83	0.922	correct	repeat	Run4	repeat/STIM_011.jpg
3380.386	0.774	incorrect	repeat	Run4	repeat/STIM_011.jpg
3384.175	0.974	correct	repeat	Run4	repeat/STIM_012.jpg
3388.545	1.002	correct	repeat	Run4	repeat/STIM_012.jpg
3391.607	0.676	correct	repeat	Run4	repeat/STIM_012.jpg
3394.567	1.076	correct	repeat	Run4	repeat/STIM_012.jpg
3399.119	0.608	correct	repeat	Run4	repeat/STIM_012.jpg
3403.206	0.57	correct	repeat	Run4	repeat/STIM_013.jpg
3406.822	1.127	correct	repeat	Run4	repeat/STIM_013.jpg
3411.814	0.838	correct	repeat	Run4	repeat/STIM_013.jpg
3415.842	0.682	correct	repeat	Run4	repeat/STIM_013.jpg
3419.991	0.693	correct	repeat	Run4	repeat/STIM_013.jpg
3424.27	0.647	correct	repeat	Run4	repeat/STIM_014.jpg
3428.227	0.658	correct	repeat	Run4	repeat/STIM_014.jpg
3432.046	0.58	correct	repeat	Run4	repeat/STIM_014.jpg
3434.987	0.748	correct	repeat	Run4	repeat/STIM_014.jpg
3439.33	0.658	correct	repeat	Run4	repeat/STIM_014.jpg
