onset	duration	response_time_ms	trial_type	learning_stage	stimulus	response_port
0.0	1.179	1179.1	2back	Block1	2back/STIM_000.jpg	100
3.935	1.217	1216.7	2back	Block1	2back/STIM_000.jpg	100
7.56	1.235	1235.2	2back	Block1	2back/STIM_000.jpg	100
12.135	0.781	780.6	2back	Block1	2back/STIM_001.jpg	99
16.128	0.708	708.5	2back	Block1	2back/STIM_001.jpg	99
19.283	0.809	809.0	2back	Block1	2back/STIM_001.jpg	99
23.852	1.394	1393.8	2back	Block1	2back/STIM_002.jpg	99
28.882	0.599	598.7	2back	Block1	2back/STIM_002.jpg	100
32.005	1.019	1018.8	2back	Block1	2back/STIM_002.jpg	99
36.864	0.795	795.0	2back	Block1	2back/STIM_003.jpg	99
40.144	1.313	1313.3	2back	Block1	2back/STIM_003.jpg	99
44.832	1.186	1186.2	2back	Block1	2back/STIM_003.jpg	99
48.308	0.832	831.7	2back	Block1	2back/STIM_004.jpg	100
51.412	0.917	917.4	2back	Block1	2back/STIM_004.jpg	99
55.462	0.574	573.9	2back	Block1	2back/STIM_004.jpg	99
59.828	1.241	1241.1	2back	Block1	2back/STIM_005.jpg	99
64.168	1.114	1113.9	2back	Block1	2back/STIM_005.jpg	100
67.916	1.237	1237.3	2back	Block1	2back/STIM_005.jpg	100
71.29	0.688	687.6	2back	Block1	2back/STIM_006.jpg	99
74.441	0.854	854.2	2back	Block1	2back/STIM_006.jpg	99
78.789	1.05	1049.6	2back	Block1	2back/STIM_006.jpg	100
83.268	1.247	1246.9	2back	Block1	2back/STIM_007.jpg	100
86.506	0.63	629.6	2back	Block1	2back/STIM_007.jpg	100
90.356	1.248	1247.5	2back	Block1	2back/STIM_007.jpg	100
94.368	0.98	980.2	2back	Block1	2back/STIM_008.jpg	99
97.812	1.118	1117.6	2back	Block1	2back/STIM_008.jpg	99
102.761	1.123	1123.1	2back	Block1	2back/STIM_008.jpg	100
107.648	1.056	1056.5	2back	Block1	2back/STIM_009.jpg	100
110.987	0.995	995.3	2back	Block1	2back/STIM_009.jpg	100
114.112	0.598	598.1	2back	Block1	2back/STIM_009.jpg	99
116.735	0.76	760.2	2back	Block1	2back/STIM_010.jpg	100
119.888	1.346	1346.1	2back	Block1	2back/STIM_010.jpg	100
125.044	0.819	818.7	2back	Block1	2back/STIM_010.jpg	100
128.423	1.144	1144.2	2back	Block1	2back/STIM_011.jpg	99
131.968	0.886	885.9	2back	Block1	2back/STIM_011.jpg	100
136.25	0.908	907.5	2back	Block1	2back/STIM_011.jpg	100
140.363	1.464	1464.0	2back	Block1	2back/STIM_012.jpg	99
144.579	1.25	1250.4	2back	Block1	2back/STIM_012.jpg	100
148.435	0.887	886.6	2back	Block1	2back/STIM_012.jpg	100
153.19	0.956	956.4	2back	Block1	2back/STIM_013.jpg	100
156.259	0.928	928.5	2back	Block1	2back/STIM_013.jpg	100
160.201	1.15	1150.4	2back	Block1	2back/STIM_013.jpg	99
163.624	0.887	887.1	2back	Block1	2back/STIM_014.jpg	100
167.618	0.676	676.0	2back	Block1	2back/STIM_014.jpg	99
171.293	0.695	694.7	2back	Block1	2back/STIM_014.jpg	100
173.98	1.024	1024.3	2back	Block1	2back/STIM_015.jpg	99
177.965	0.992	992.1	2back	Block1	2back/STIM_015.jpg	100
181.124	1.197	1197.0	2back	Block1	2back/STIM_015.jpg	100
185.842	1.246	1246.0	2back	Block1	2back/STIM_016.jpg	100
189.327	0.703	703.1	2back	Block1	2back/STIM_016.jpg	100
193.184	0.647	647.3	2back	Block1	2back/STIM_016.jpg	100
196.33	0.825	825.1	2back	Block1	2back/STIM_017.jpg	100
199.246	0.63	629.7	2back	Block1	2back/STIM_017.jpg	100
202.799	0.742	742.0	2back	Block1	2back/STIM_017.jpg	99
207.012	1.324	1324.0	2back	Block1	2back/STIM_018.jpg	100
212.2	0.925	924.9	2back	Block1	2back/STIM_018.jpg	100
216.815	1.103	1103.1	2back	Block1	2back/STIM_018.jpg	100
221.418	1.357	1356.6	2back	Block1	2back/STIM_019.jpg	99
225.271	1.346	1345.6	2back	Block1	2back/STIM_019.jpg	100
230.097	1.296	1295.9	2back	Block1	2back/STIM_019.jpg	99
233.681	1.086	1086.3	2back	Block1	2back/STIM_020.jpg	99
237.961	1.256	1256.4	2back	Block1	2back/STIM_020.jpg	99
242.171	0.953	953.1	2back	Block1	2back/STIM_020.jpg	99
246.495	1.313	1312.7	2back	Block1	2back/STIM_021.jpg	100
251.211	0.783	782.7	2back	Block1	2back/STIM_021.jpg	100
254.022	1.311	1310.8	2back	Block1	2back/STIM_021.jpg	100
258.791	1.277	1277.2	2back	Block1	2back/STIM_022.jpg	99
263.246	0.815	814.7	2back	Block1	2back/STIM_022.jpg	100
266.466	0.698	698.0	2back	Block1	2back/STIM_022.jpg	100
269.154	0.839	838.6	2back	Block1	2back/STIM_023.jpg	99
273.663	0.9	900.1	2back	Block1	2back/STIM_023.jpg	100
277.585	1.22	1219.8	2back	Block1	2back/STIM_023.jpg	100
280.866	0.678	677.7	2back	Block1	2back/STIM_024.jpg	100
284.544	0.762	761.9	2back	Block1	2back/STIM_024.jpg	100
287.271	1.206	1206.3	2back	Block1	2back/STIM_024.jpg	99
291.928	0.944	943.6	2back	Block1	2back/STIM_025.jpg	100
294.951	1.215	1214.6	2back	Block1	2back/STIM_025.jpg	100
298.93	0.799	798.7	2back	Block1	2back/STIM_025.jpg	99
303.339	0.699	699.2	2back	Block1	2back/STIM_026.jpg	99
307.764	1.322	1322.4	2back	Block1	2back/STIM_026.jpg	100
311.948	0.961	960.8	2back	Block1	2back/STIM_026.jpg	99
316.255	0.695	694.7	2back	Block1	2back/STIM_027.jpg	99
320.764	0.767	766.6	2back	Block1	2back/STIM_027.jpg	100
325.339	0.813	812.9	2back	Block1	2back/STIM_027.jpg	100
328.155	1.345	1345.0	2back	Block1	2back/STIM_028.jpg	100
333.086	1.108	1108.0	2back	Block1	2back/STIM_028.jpg	100
337.161	1.239	1238.7	2back	Block1	2back/STIM_028.jpg	100
342.184	0.861	860.7	2back	Block1	2back/STIM_029.jpg	99
345.885	0.776	776.4	2back	Block1	2back/STIM_029.jpg	100
349.347	1.112	1111.9	2back	Block1	2back/STIM_029.jpg	100
352.836	1.025	1025.1	2back	Block1	2back/STIM_030.jpg	99
355.848	1.159	1159.1	2back	Block1	2back/STIM_030.jpg	100
359.29	0.646	645.8	2back	Block1	2back/STIM_030.jpg	100
363.598	0.946	945.7	2back	Block1	2back/STIM_031.jpg	99
367.881	1.092	1091.7	2back	Block1	2back/STIM_031.jpg	99
371.849	1.062	1062.3	2back	Block1	2back/STIM_031.jpg	100
376.065	0.702	702.3	2back	Block1	2back/STIM_032.jpg	99
379.5	0.852	852.5	2back	Block1	2back/STIM_032.jpg	99
382.333	1.273	1273.0	2back	Block1	2back/STIM_032.jpg	99
386.502	1.246	1246.1	2back	Block1	2back/STIM_033.jpg	100
390.591	1.276	1276.5	2back	Block1	2back/STIM_033.jpg	99
394.171	0.589	589.0	2back	Block1	2back/STIM_033.jpg	100
397.445	1.257	1256.9	2back	Block1	2back/STIM_034.jpg	100
402.199	0.846	846.2	2back	Block1	2back/STIM_034.jpg	99
406.475	1.274	1274.2	2back	Block1	2back/STIM_034.jpg	100
410.714	0.649	648.7	2back	Block1	2back/STIM_035.jpg	100
414.024	0.993	992.8	2back	Block1	2back/STIM_035.jpg	99
418.851	1.241	1240.8	2back	Block1	2back/STIM_035.jpg	100
422.049	0.743	743.0	2back	Block1	2back/STIM_036.jpg	100
426.481	0.938	937.6	2back	Block1	2back/STIM_036.jpg	99
431.085	0.786	786.0	2back	Block1	2back/STIM_036.jpg	99
435.745	1.178	1177.7	2back	Block1	2back/STIM_037.jpg	100
439.585	1.079	1079.3	2back	Block1	2back/STIM_037.jpg	100
443.821	0.583	583.2	2back	Block1	2back/STIM_037.jpg	99
448.137	1.414	1414.5	2back	Block1	2back/STIM_038.jpg	100
451.866	0.778	777.9	2back	Block1	2back/STIM_038.jpg	99
455.492	0.803	802.8	2back	Block1	2back/STIM_038.jpg	100
459.266	0.822	822.4	2back	Block1	2back/STIM_039.jpg	100
462.646	0.761	761.1	2back	Block1	2back/STIM_039.jpg	99
466.822	0.709	708.8	2back	Block1	2back/STIM_039.jpg	99
470.734	0.467	467.2	0back	Block1	0back/STIM_000.jpg	100
473.19	0.514	513.9	0back	Block1	0back/STIM_000.jpg	99
477.321	0.607	606.7	0back	Block1	0back/STIM_000.jpg	99
481.41	0.726	725.9	0back	Block1	0back/STIM_001.jpg	99
485.119	0.704	704.0	0back	Block1	0back/STIM_001.jpg	99
489.471	0.694	694.3	0back	Block1	0back/STIM_001.jpg	100
493.611	0.721	721.3	0back	Block1	0back/STIM_002.jpg	100
497.021	0.653	652.7	0back	Block1	0back/STIM_002.jpg	100
501.022	0.532	532.4	0back	Block1	0back/STIM_002.jpg	99
505.151	0.807	806.6	0back	Block1	0back/STIM_003.jpg	100
509.434	0.599	599.2	0back	Block1	0back/STIM_003.jpg	100
513.462	0.746	745.8	0back	Block1	0back/STIM_003.jpg	99
518.076	0.54	540.2	0back	Block1	0back/STIM_004.jpg	100
521.233	0.646	645.7	0back	Block1	0back/STIM_004.jpg	100
524.131	0.486	485.9	0back	Block1	0back/STIM_004.jpg	100
528.024	0.637	636.8	0back	Block1	0back/STIM_005.jpg	99
532.005	0.568	568.2	0back	Block1	0back/STIM_005.jpg	99
534.88	0.711	711.4	0back	Block1	0back/STIM_005.jpg	99
538.959	0.629	628.6	0back	Block1	0back/STIM_006.jpg	99
542.983	0.613	612.9	0back	Block1	0back/STIM_006.jpg	100
546.606	0.462	461.7	0back	Block1	0back/STIM_006.jpg	99
549.344	0.764	763.5	0back	Block1	0back/STIM_007.jpg	99
553.775	0.722	722.0	0back	Block1	0back/STIM_007.jpg	99
557.492	0.46	460.2	0back	Block1	0back/STIM_007.jpg	99
560.522	0.696	696.1	0back	Block1	0back/STIM_008.jpg	99
565.153	0.542	541.5	0back	Block1	0back/STIM_008.jpg	100
568.154	0.502	501.9	0back	Block1	0back/STIM_008.jpg	99
570.722	0.808	807.8	0back	Block1	0back/STIM_009.jpg	99
573.591	0.802	801.6	0back	Block1	0back/STIM_009.jpg	100
578.016	0.791	790.8	0back	Block1	0back/STIM_009.jpg	99
582.676	0.71	710.5	0back	Block1	0back/STIM_010.jpg	99
585.984	0.698	697.9	0back	Block1	0back/STIM_010.jpg	99
589.457	0.681	681.3	0back	Block1	0back/STIM_010.jpg	100
593.288	0.786	785.7	0back	Block1	0back/STIM_011.jpg	100
597.899	0.779	779.2	0back	Block1	0back/STIM_011.jpg	100
601.398	0.831	831.2	0back	Block1	0back/STIM_011.jpg	99
605.858	0.762	762.3	0back	Block1	0back/STIM_012.jpg	99
608.618	0.825	825.0	0back	Block1	0back/STIM_012.jpg	99
612.832	0.504	503.9	0back	Block1	0back/STIM_012.jpg	99
616.673	0.616	616.4	0back	Block1	0back/STIM_013.jpg	99
620.499	0.59	589.8	0back	Block1	0back/STIM_013.jpg	99
625.038	0.49	489.9	0back	Block1	0back/STIM_013.jpg	100
628.86	0.69	690.0	0back	Block1	0back/STIM_014.jpg	99
631.736	0.585	585.4	0back	Block1	0back/STIM_014.jpg	99
634.324	0.561	561.3	0back	Block1	0back/STIM_014.jpg	99
638.225	0.606	605.9	0back	Block1	0back/STIM_015.jpg	100
642.322	0.475	474.9	0back	Block1	0back/STIM_015.jpg	100
646.042	0.522	521.7	0back	Block1	0back/STIM_015.jpg	100
650.237	0.802	801.6	0back	Block1	0back/STIM_016.jpg	99
654.846	0.458	458.5	0back	Block1	0back/STIM_016.jpg	100
658.877	0.701	701.0	0back	Block1	0back/STIM_016.jpg	99
663.184	0.741	740.8	0back	Block1	0back/STIM_017.jpg	100
667.595	0.445	444.6	0back	Block1	0back/STIM_017.jpg	99
671.105	0.582	581.5	0back	Block1	0back/STIM_017.jpg	100
674.21	0.425	425.4	0back	Block1	0back/STIM_018.jpg	99
676.619	0.486	485.5	0back	Block1	0back/STIM_018.jpg	99
679.619	0.71	709.8	0back	Block1	0back/STIM_018.jpg	100
683.135	0.58	580.0	0back	Block1	0back/STIM_019.jpg	99
687.602	0.7	700.0	0back	Block1	0back/STIM_019.jpg	99
691.197	0.816	816.0	0back	Block1	0back/STIM_019.jpg	100
694.255	1.033	1033.4	2back	Block2	2back/STIM_000.jpg	99
697.899	0.691	691.3	2back	Block2	2back/STIM_000.jpg	100
701.161	0.485	485.1	2back	Block2	2back/STIM_000.jpg	99
704.158	0.545	544.7	2back	Block2	2back/STIM_001.jpg	99
707.832	0.61	609.8	2back	Block2	2back/STIM_001.jpg	100
711.029	0.897	896.8	2back	Block2	2back/STIM_001.jpg	99
714.68	1.047	1047.1	2back	Block2	2back/STIM_002.jpg	99
718.794	0.822	822.2	2back	Block2	2back/STIM_002.jpg	100
721.731	0.736	735.8	2back	Block2	2back/STIM_002.jpg	99
725.914	0.748	747.6	2back	Block2	2back/STIM_003.jpg	100
730.197	1.08	1079.7	2back	Block2	2back/STIM_003.jpg	99
734.594	0.822	822.4	2back	Block2	2back/STIM_003.jpg	99
738.98	1.106	1105.7	2back	Block2	2back/STIM_004.jpg	100
743.171	0.716	716.4	2back	Block2	2back/STIM_004.jpg	99
747.34	0.877	877.1	2back	Block2	2back/STIM_004.jpg	99
751.292	0.592	592.4	2back	Block2	2back/STIM_005.jpg	99
755.114	0.711	710.9	2back	Block2	2back/STIM_005.jpg	99
758.949	0.653	653.0	2back	Block2	2back/STIM_005.jpg	99
762.783	0.667	666.8	2back	Block2	2back/STIM_006.jpg	100
767.131	0.809	809.0	2back	Block2	2back/STIM_006.jpg	99
771.281	0.925	924.6	2back	Block2	2back/STIM_006.jpg	99
775.275	0.622	622.3	2back	Block2	2back/STIM_007.jpg	99
778.904	0.511	511.0	2back	Block2	2back/STIM_007.jpg	99
782.881	0.552	552.2	2back	Block2	2back/STIM_007.jpg	100
786.249	0.58	580.2	2back	Block2	2back/STIM_008.jpg	99
789.452	1.0	1000.3	2back	Block2	2back/STIM_008.jpg	100
793.697	0.847	847.4	2back	Block2	2back/STIM_008.jpg	100
798.371	0.671	670.6	2back	Block2	2back/STIM_009.jpg	99
801.159	0.565	565.3	2back	Block2	2back/STIM_009.jpg	100
804.955	1.079	1079.0	2back	Block2	2back/STIM_009.jpg	99
808.15	0.764	764.0	2back	Block2	2back/STIM_010.jpg	100
812.657	0.522	522.5	2back	Block2	2back/STIM_010.jpg	100
816.247	0.598	598.1	2back	Block2	2back/STIM_010.jpg	99
820.811	1.036	1035.6	2back	Block2	2back/STIM_011.jpg	99
825.352	0.772	771.6	2back	Block2	2back/STIM_011.jpg	99
829.744	1.097	1097.4	2back	Block2	2back/STIM_011.jpg	99
833.1	0.576	576.4	2back	Block2	2back/STIM_012.jpg	100
837.027	0.713	712.6	2back	Block2	2back/STIM_012.jpg	100
840.163	0.788	788.0	2back	Block2	2back/STIM_012.jpg	99
844.783	1.17	1169.9	2back	Block2	2back/STIM_013.jpg	99
849.093	0.523	523.4	2back	Block2	2back/STIM_013.jpg	100
852.878	0.567	566.6	2back	Block2	2back/STIM_013.jpg	99
857.211	1.175	1174.6	2back	Block2	2back/STIM_014.jpg	99
861.477	0.631	631.2	2back	Block2	2back/STIM_014.jpg	100
865.115	0.636	635.9	2back	Block2	2back/STIM_014.jpg	99
869.294	0.7	700.5	2back	Block2	2back/STIM_015.jpg	100
873.236	0.648	648.2	2back	Block2	2back/STIM_015.jpg	100
876.963	0.876	876.1	2back	Block2	2back/STIM_015.jpg	99
880.404	0.702	701.8	2back	Block2	2back/STIM_016.jpg	99
883.179	0.708	708.4	2back	Block2	2back/STIM_016.jpg	99
885.905	1.051	1051.3	2back	Block2	2back/STIM_016.jpg	99
890.025	1.163	1163.1	2back	Block2	2back/STIM_017.jpg	99
893.521	0.774	774.2	2back	Block2	2back/STIM_017.jpg	100
898.073	0.778	777.7	2back	Block2	2back/STIM_017.jpg	99
901.306	0.708	707.5	2back	Block2	2back/STIM_018.jpg	99
905.781	0.836	836.0	2back	Block2	2back/STIM_018.jpg	100
909.974	0.794	793.5	2back	Block2	2back/STIM_018.jpg	99
913.755	0.937	936.8	2back	Block2	2back/STIM_019.jpg	100
918.623	0.651	650.8	2back	Block2	2back/STIM_019.jpg	100
922.617	0.759	759.2	2back	Block2	2back/STIM_019.jpg	100
927.19	0.711	711.4	2back	Block2	2back/STIM_020.jpg	100
930.187	1.091	1090.9	2back	Block2	2back/STIM_020.jpg	99
933.886	0.849	848.7	2back	Block2	2back/STIM_020.jpg	100
938.388	0.655	654.8	2back	Block2	2back/STIM_021.jpg	100
942.061	0.91	909.7	2back	Block2	2back/STIM_021.jpg	100
946.64	0.835	834.8	2back	Block2	2back/STIM_021.jpg	99
950.395	0.855	854.8	2back	Block2	2back/STIM_022.jpg	99
954.854	1.022	1022.4	2back	Block2	2back/STIM_022.jpg	100
959.61	0.536	536.0	2back	Block2	2back/STIM_022.jpg	99
962.511	0.961	961.0	2back	Block2	2back/STIM_023.jpg	100
967.056	0.719	719.1	2back	Block2	2back/STIM_023.jpg	100
971.628	1.034	1034.4	2back	Block2	2back/STIM_023.jpg	100
976.402	0.872	872.1	2back	Block2	2back/STIM_024.jpg	100
980.56	0.659	658.7	2back	Block2	2back/STIM_024.jpg	100
983.472	0.688	687.8	2back	Block2	2back/STIM_024.jpg	99
986.373	0.915	915.0	2back	Block2	2back/STIM_025.jpg	100
989.841	0.864	864.5	2back	Block2	2back/STIM_025.jpg	99
992.92	1.054	1053.9	2back	Block2	2back/STIM_025.jpg	100
997.847	0.77	770.1	2back	Block2	2back/STIM_026.jpg	99
1001.844	1.031	1030.8	2back	Block2	2back/STIM_026.jpg	100
1005.335	0.927	926.8	2back	Block2	2back/STIM_026.jpg	99
1008.342	0.584	583.5	2back	Block2	2back/STIM_027.jpg	100
1011.815	1.068	1068.3	2back	Block2	2back/STIM_027.jpg	100
1015.689	0.528	528.4	2back	Block2	2back/STIM_027.jpg	100
1019.458	0.536	536.1	2back	Block2	2back/STIM_028.jpg	100
1022.692	1.122	1122.2	2back	Block2	2back/STIM_028.jpg	99
1025.785	0.572	572.4	2back	Block2	2back/STIM_028.jpg	99
1029.051	0.876	875.6	2back	Block2	2back/STIM_029.jpg	100
1033.328	0.626	625.6	2back	Block2	2back/STIM_029.jpg	99
1037.101	1.061	1061.0	2back	Block2	2back/STIM_029.jpg	100
1041.678	1.013	1012.7	2back	Block2	2back/STIM_030.jpg	99
1045.126	0.931	931.0	2back	Block2	2back/STIM_030.jpg	100
1049.272	1.028	1027.9	2back	Block2	2back/STIM_030.jpg	99
1053.801	0.933	933.2	2back	Block2	2back/STIM_031.jpg	100
1058.239	0.764	764.5	2back	Block2	2back/STIM_031.jpg	100
1061.873	0.654	654.3	2back	Block2	2back/STIM_031.jpg	99
1065.324	0.556	555.8	2back	Block2	2back/STIM_032.jpg	99
1068.03	0.662	662.4	2back	Block2	2back/STIM_032.jpg	100
1072.116	0.516	515.5	2back	Block2	2back/STIM_032.jpg	99
1075.126	1.078	1078.4	2back	Block2	2back/STIM_033.jpg	99
1079.404	1.066	1066.2	2back	Block2	2back/STIM_033.jpg	99
1083.288	0.858	857.5	2back	Block2	2back/STIM_033.jpg	100
1087.981	1.115	1114.9	2back	Block2	2back/STIM_034.jpg	100
1091.119	0.658	657.6	2back	Block2	2back/STIM_034.jpg	100
1094.872	0.539	539.2	2back	Block2	2back/STIM_034.jpg	99
1098.779	0.962	961.5	2back	Block2	2back/STIM_035.jpg	99
1103.646	0.94	940.0	2back	Block2	2back/STIM_035.jpg	100
1107.197	0.828	827.5	2back	Block2	2back/STIM_035.jpg	99
1110.434	1.096	1096.3	2back	Block2	2back/STIM_036.jpg	100
1113.635	1.141	1140.8	2back	Block2	2back/STIM_036.jpg	100
1117.028	0.814	813.8	2back	Block2	2back/STIM_036.jpg	99
1120.938	0.586	585.6	2back	Block2	2back/STIM_037.jpg	100
1123.869	1.1	1100.1	2back	Block2	2back/STIM_037.jpg	100
1127.779	0.703	703.4	2back	Block2	2back/STIM_037.jpg	99
1131.118	0.671	670.8	2back	Block2	2back/STIM_038.jpg	100
1134.65	0.792	792.1	2back	Block2	2back/STIM_038.jpg	99
1138.029	0.518	518.5	2back	Block2	2back/STIM_038.jpg	100
1141.641	0.82	819.7	2back	Block2	2back/STIM_039.jpg	100
1144.707	0.625	625.3	2back	Block2	2back/STIM_039.jpg	99
1147.888	0.693	692.6	2back	Block2	2back/STIM_039.jpg	100
1152.239	0.615	614.9	0back	Block2	0back/STIM_000.jpg	100
1155.056	0.768	767.7	0back	Block2	0back/STIM_000.jpg	99
1158.464	0.482	482.1	0back	Block2	0back/STIM_000.jpg	100
1161.539	0.527	526.9	0back	Block2	0back/STIM_001.jpg	99
1165.033	0.613	612.8	0back	Block2	0back/STIM_001.jpg	99
1168.393	0.496	496.3	0back	Block2	0back/STIM_001.jpg	99
1171.982	0.455	454.6	0back	Block2	0back/STIM_002.jpg	100
1175.374	0.422	421.5	0back	Block2	0back/STIM_002.jpg	100
1178.784	0.5	499.9	0back	Block2	0back/STIM_002.jpg	99
1182.276	0.799	798.7	0back	Block2	0back/STIM_003.jpg	100
1186.034	0.465	465.0	0back	Block2	0back/STIM_003.jpg	100
1190.419	0.429	429.0	0back	Block2	0back/STIM_003.jpg	99
1192.937	0.688	687.8	0back	Block2	0back/STIM_004.jpg	100
1196.897	0.802	802.2	0back	Block2	0back/STIM_004.jpg	100
1201.529	0.834	834.0	0back	Block2	0back/STIM_004.jpg	100
1204.526	0.428	428.3	0back	Block2	0back/STIM_005.jpg	99
1207.103	0.586	586.3	0back	Block2	0back/STIM_005.jpg	99
1211.258	0.722	722.3	0back	Block2	0back/STIM_005.jpg	99
1215.359	0.552	552.3	0back	Block2	0back/STIM_006.jpg	100
1219.503	0.686	686.3	0back	Block2	0back/STIM_006.jpg	100
1223.738	0.424	424.0	0back	Block2	0back/STIM_006.jpg	100
1227.41	0.528	528.0	0back	Block2	0back/STIM_007.jpg	99
1231.827	0.429	429.3	0back	Block2	0back/STIM_007.jpg	99
1234.371	0.501	501.3	0back	Block2	0back/STIM_007.jpg	99
1237.917	0.697	697.4	0back	Block2	0back/STIM_008.jpg	100
1242.124	0.537	536.7	0back	Block2	0back/STIM_008.jpg	99
1245.701	0.729	729.4	0back	Block2	0back/STIM_008.jpg	99
1248.881	0.632	631.5	0back	Block2	0back/STIM_009.jpg	100
1252.854	0.539	538.8	0back	Block2	0back/STIM_009.jpg	99
1256.392	0.727	727.2	0back	Block2	0back/STIM_009.jpg	100
1259.639	0.601	600.8	0back	Block2	0back/STIM_010.jpg	99
1263.59	0.752	752.3	0back	Block2	0back/STIM_010.jpg	99
1267.295	0.544	544.3	0back	Block2	0back/STIM_010.jpg	100
1270.955	0.583	583.2	0back	Block2	0back/STIM_011.jpg	100
1274.005	0.8	800.4	0back	Block2	0back/STIM_011.jpg	100
1278.345	0.505	505.0	0back	Block2	0back/STIM_011.jpg	100
1281.259	0.446	445.6	0back	Block2	0back/STIM_012.jpg	99
1283.826	0.491	491.2	0back	Block2	0back/STIM_012.jpg	100
1287.479	0.736	735.9	0back	Block2	0back/STIM_012.jpg	99
1291.621	0.793	792.9	0back	Block2	0back/STIM_013.jpg	99
1296.271	0.498	498.3	0back	Block2	0back/STIM_013.jpg	99
1299.292	0.724	723.8	0back	Block2	0back/STIM_013.jpg	100
1303.423	0.468	467.6	0back	Block2	0back/STIM_014.jpg	99
1306.432	0.702	702.3	0back	Block2	0back/STIM_014.jpg	99
1310.095	0.678	678.3	0back	Block2	0back/STIM_014.jpg	99
1314.435	0.501	500.7	0back	Block2	0back/STIM_015.jpg	100
1318.718	0.783	783.2	0back	Block2	0back/STIM_015.jpg	100
1323.4	0.727	727.1	0back	Block2	0back/STIM_015.jpg	100
1327.552	0.484	484.4	0back	Block2	0back/STIM_016.jpg	99
1331.827	0.749	749.3	0back	Block2	0back/STIM_016.jpg	99
1336.479	0.624	624.1	0back	Block2	0back/STIM_016.jpg	99
1340.335	0.462	461.9	0back	Block2	0back/STIM_017.jpg	100
1343.959	0.688	687.7	0back	Block2	0back/STIM_017.jpg	99
1347.697	0.7	700.3	0back	Block2	0back/STIM_017.jpg	99
1352.334	0.608	608.4	0back	Block2	0back/STIM_018.jpg	99
1356.008	0.676	676.5	0back	Block2	0back/STIM_018.jpg	100
1360.429	0.534	533.7	0back	Block2	0back/STIM_018.jpg	99
1363.911	0.508	508.2	0back	Block2	0back/STIM_019.jpg	99
1368.131	0.694	694.3	0back	Block2	0back/STIM_019.jpg	100
1372.241	0.574	573.8	0back	Block2	0back/STIM_019.jpg	99
1375.849	0.752	752.3	2back	Block3	2back/STIM_000.jpg	99
1379.874	0.511	511.0	2back	Block3	2back/STIM_000.jpg	99
1383.663	1.007	1007.2	2back	Block3	2back/STIM_000.jpg	99
1387.595	0.899	898.9	2back	Block3	2back/STIM_001.jpg	99
1391.226	0.844	843.9	2back	Block3	2back/STIM_001.jpg	100
1395.24	0.597	596.8	2back	Block3	2back/STIM_001.jpg	100
1398.568	0.855	854.8	2back	Block3	2back/STIM_002.jpg	99
1402.36	0.72	720.1	2back	Block3	2back/STIM_002.jpg	100
1405.088	0.761	760.9	2back	Block3	2back/STIM_002.jpg	99
1409.199	0.846	846.0	2back	Block3	2back/STIM_003.jpg	99
1413.986	0.479	479.3	2back	Block3	2back/STIM_003.jpg	100
1417.449	0.794	794.1	2back	Block3	2back/STIM_003.jpg	100
1420.723	0.68	680.5	2back	Block3	2back/STIM_004.jpg	100
1424.042	0.716	716.1	2back	Block3	2back/STIM_004.jpg	99
1426.766	0.524	523.7	2back	Block3	2back/STIM_004.jpg	100
1431.258	0.603	602.6	2back	Block3	2back/STIM_005.jpg	99
1435.296	0.92	919.7	2back	Block3	2back/STIM_005.jpg	99
1439.037	0.772	772.5	2back	Block3	2back/STIM_005.jpg	99
1443.054	0.983	983.4	2back	Block3	2back/STIM_006.jpg	100
1447.837	0.968	968.4	2back	Block3	2back/STIM_006.jpg	99
1451.988	0.96	959.6	2back	Block3	2back/STIM_006.jpg	100
1456.022	0.553	553.1	2back	Block3	2back/STIM_007.jpg	99
1459.58	0.627	626.7	2back	Block3	2back/STIM_007.jpg	99
1463.485	0.941	940.8	2back	Block3	2back/STIM_007.jpg	99
1467.647	1.003	1002.7	2back	Block3	2back/STIM_008.jpg	99
1470.728	0.958	958.5	2back	Block3	2back/STIM_008.jpg	99
1474.02	0.727	726.9	2back	Block3	2back/STIM_008.jpg	100
1477.588	0.999	999.4	2back	Block3	2back/STIM_009.jpg	99
1481.127	0.626	626.1	2back	Block3	2back/STIM_009.jpg	99
1484.628	0.703	702.6	2back	Block3	2back/STIM_009.jpg	99
1487.578	0.811	811.1	2back	Block3	2back/STIM_010.jpg	99
1490.645	0.499	499.4	2back	Block3	2back/STIM_010.jpg	100
1493.814	0.758	757.7	2back	Block3	2back/STIM_010.jpg	100
1497.347	0.535	534.9	2back	Block3	2back/STIM_011.jpg	99
1500.822	0.668	668.5	2back	Block3	2back/STIM_011.jpg	100
1504.228	0.992	991.5	2back	Block3	2back/STIM_011.jpg	99
1507.221	0.647	647.1	2back	Block3	2back/STIM_012.jpg	99
1510.727	0.47	469.9	2back	Block3	2back/STIM_012.jpg	99
1514.795	0.739	739.0	2back	Block3	2back/STIM_012.jpg	100
1517.851	0.947	946.6	2back	Block3	2back/STIM_013.jpg	99
1520.856	0.729	729.0	2back	Block3	2back/STIM_013.jpg	100
1524.143	0.881	880.6	2back	Block3	2back/STIM_013.jpg	100
1527.268	0.814	814.5	2back	Block3	2back/STIM_014.jpg	99
1530.713	0.688	688.0	2back	Block3	2back/STIM_014.jpg	99
1533.681	0.839	839.2	2back	Block3	2back/STIM_014.jpg	100
1538.213	0.944	944.1	2back	Block3	2back/STIM_015.jpg	100
1541.932	0.984	984.4	2back	Block3	2back/STIM_015.jpg	99
1545.732	0.601	600.7	2back	Block3	2back/STIM_015.jpg	100
1549.979	0.826	825.7	2back	Block3	2back/STIM_016.jpg	99
1554.427	0.441	440.6	2back	Block3	2back/STIM_016.jpg	100
1558.209	0.77	769.8	2back	Block3	2back/STIM_016.jpg	100
1562.739	0.854	854.5	2back	Block3	2back/STIM_017.jpg	99
1565.993	0.647	646.7	2back	Block3	2back/STIM_017.jpg	100
1569.446	1.026	1025.6	2back	Block3	2back/STIM_017.jpg	99
1573.24	0.625	624.8	2back	Block3	2back/STIM_018.jpg	100
1576.526	0.995	995.0	2back	Block3	2back/STIM_018.jpg	100
1580.035	0.746	746.0	2back	Block3	2back/STIM_018.jpg	100
1583.864	0.852	851.6	2back	Block3	2back/STIM_019.jpg	99
1587.035	0.447	446.8	2back	Block3	2back/STIM_019.jpg	99
1590.642	0.717	717.2	2back	Block3	2back/STIM_019.jpg	99
1593.926	0.725	725.3	2back	Block3	2back/STIM_020.jpg	100
1597.306	0.476	475.8	2back	Block3	2back/STIM_020.jpg	99
1601.555	0.604	604.0	2back	Block3	2back/STIM_020.jpg	100
1604.296	0.984	984.1	2back	Block3	2back/STIM_021.jpg	100
1607.89	0.828	828.2	2back	Block3	2back/STIM_021.jpg	100
1612.537	0.46	460.1	2back	Block3	2back/STIM_021.jpg	100
1615.914	0.942	941.5	2back	Block3	2back/STIM_022.jpg	100
1618.868	1.013	1013.1	2back	Block3	2back/STIM_022.jpg	100
1623.093	0.813	812.6	2back	Block3	2back/STIM_022.jpg	99
1626.17	0.46	460.1	2back	Block3	2back/STIM_023.jpg	99
1628.792	0.704	704.3	2back	Block3	2back/STIM_023.jpg	99
1633.035	1.026	1026.3	2back	Block3	2back/STIM_023.jpg	99
1636.813	0.76	760.2	2back	Block3	2back/STIM_024.jpg	100
1639.745	0.852	852.3	2back	Block3	2back/STIM_024.jpg	99
1644.26	0.486	485.5	2back	Block3	2back/STIM_024.jpg	99
1648.619	0.517	516.6	2back	Block3	2back/STIM_025.jpg	99
1651.716	0.763	763.0	2back	Block3	2back/STIM_025.jpg	100
1655.13	0.932	932.5	2back	Block3	2back/STIM_025.jpg	99
1658.162	0.619	618.7	2back	Block3	2back/STIM_026.jpg	100
1661.954	0.83	829.9	2back	Block3	2back/STIM_026.jpg	100
1666.558	0.861	860.6	2back	Block3	2back/STIM_026.jpg	100
1670.17	0.833	832.7	2back	Block3	2back/STIM_027.jpg	100
1673.188	0.73	729.6	2back	Block3	2back/STIM_027.jpg	100
1676.307	0.9	900.1	2back	Block3	2back/STIM_027.jpg	100
1680.554	0.636	635.6	2back	Block3	2back/STIM_028.jpg	100
1684.827	1.009	1009.2	2back	Block3	2back/STIM_028.jpg	100
1687.963	1.021	1021.2	2back	Block3	2back/STIM_028.jpg	100
1692.918	0.763	762.8	2back	Block3	2back/STIM_029.jpg	99
1696.958	0.98	980.2	2back	Block3	2back/STIM_029.jpg	99
1701.318	0.574	573.6	2back	Block3	2back/STIM_029.jpg	100
1705.832	0.784	784.5	2back	Block3	2back/STIM_030.jpg	99
1710.544	0.962	961.8	2back	Block3	2back/STIM_030.jpg	99
1714.699	0.57	569.9	2back	Block3	2back/STIM_030.jpg	99
1717.878	0.681	680.6	2back	Block3	2back/STIM_031.jpg	99
1720.989	0.911	910.7	2back	Block3	2back/STIM_031.jpg	99
1725.109	0.495	494.7	2back	Block3	2back/STIM_031.jpg	100
1729.165	0.77	769.8	2back	Block3	2back/STIM_032.jpg	100
1733.016	0.462	462.0	2back	Block3	2back/STIM_032.jpg	99
1737.444	0.965	964.6	2back	Block3	2back/STIM_032.jpg	100
1741.434	1.026	1026.4	2back	Block3	2back/STIM_033.jpg	100
1744.603	0.732	732.1	2back	Block3	2back/STIM_033.jpg	99
1749.057	0.476	476.2	2back	Block3	2back/STIM_033.jpg	100
1752.857	0.486	486.4	2back	Block3	2back/STIM_034.jpg	100
1756.719	0.94	940.5	2back	Block3	2back/STIM_034.jpg	100
1761.54	0.723	722.8	2back	Block3	2back/STIM_034.jpg	100
1766.021	0.651	650.7	2back	Block3	2back/STIM_035.jpg	100
1770.065	0.566	566.3	2back	Block3	2back/STIM_035.jpg	100
1774.577	0.991	990.8	2back	Block3	2back/STIM_035.jpg	99
1777.777	0.513	512.7	2back	Block3	2back/STIM_036.jpg	100
1782.032	1.006	1005.6	2back	Block3	2back/STIM_036.jpg	99
1785.671	0.943	942.9	2back	Block3	2back/STIM_036.jpg	100
1789.362	0.623	623.2	2back	Block3	2back/STIM_037.jpg	100
1792.966	0.466	466.0	2back	Block3	2back/STIM_037.jpg	100
1795.763	0.832	831.8	2back	Block3	2back/STIM_037.jpg	99
1800.298	0.497	497.0	2back	Block3	2back/STIM_038.jpg	99
1803.353	0.984	984.4	2back	Block3	2back/STIM_038.jpg	100
1806.811	0.603	602.8	2back	Block3	2back/STIM_038.jpg	99
1810.151	0.852	852.4	2back	Block3	2back/STIM_039.jpg	100
1813.201	0.624	624.4	2back	Block3	2back/STIM_039.jpg	100
1817.617	0.84	839.7	2back	Block3	2back/STIM_039.jpg	100
1821.964	0.628	627.9	0back	Block3	0back/STIM_000.jpg	99
1825.585	0.651	650.6	0back	Block3	0back/STIM_000.jpg	100
1829.044	0.758	757.6	0back	Block3	0back/STIM_000.jpg	99
1833.357	0.615	615.3	0back	Block3	0back/STIM_001.jpg	100
1836.038	0.556	556.0	0back	Block3	0back/STIM_001.jpg	100
1840.164	0.539	539.3	0back	Block3	0back/STIM_001.jpg	99
1843.979	0.708	708.3	0back	Block3	0back/STIM_002.jpg	99
1848.612	0.6	600.1	0back	Block3	0back/STIM_002.jpg	99
1851.333	0.423	423.3	0back	Block3	0back/STIM_002.jpg	99
1855.094	0.628	627.7	0back	Block3	0back/STIM_003.jpg	99
1858.704	0.836	835.6	0back	Block3	0back/STIM_003.jpg	100
1862.309	0.454	454.4	0back	Block3	0back/STIM_003.jpg	100
1865.375	0.725	725.3	0back	Block3	0back/STIM_004.jpg	99
1869.206	0.713	712.7	0back	Block3	0back/STIM_004.jpg	99
1872.254	0.556	556.1	0back	Block3	0back/STIM_004.jpg	100
1876.074	0.527	527.0	0back	Block3	0back/STIM_005.jpg	100
1878.819	0.691	690.9	0back	Block3	0back/STIM_005.jpg	100
1882.04	0.537	536.9	0back	Block3	0back/STIM_005.jpg	100
1884.691	0.612	611.7	0back	Block3	0back/STIM_006.jpg	100
1888.426	0.751	750.9	0back	Block3	0back/STIM_006.jpg	100
1892.857	0.578	578.5	0back	Block3	0back/STIM_006.jpg	99
1896.218	0.618	617.6	0back	Block3	0back/STIM_007.jpg	99
1899.496	0.578	578.5	0back	Block3	0back/STIM_007.jpg	99
1903.356	0.478	478.3	0back	Block3	0back/STIM_007.jpg	99
1906.3	0.638	637.6	0back	Block3	0back/STIM_008.jpg	100
1910.035	0.5	499.5	0back	Block3	0back/STIM_008.jpg	100
1913.473	0.461	461.0	0back	Block3	0back/STIM_008.jpg	100
1916.417	0.552	551.9	0back	Block3	0back/STIM_009.jpg	100
1920.062	0.526	526.0	0back	Block3	0back/STIM_009.jpg	100
1922.933	0.603	603.2	0back	Block3	0back/STIM_009.jpg	100
1926.901	0.503	503.0	0back	Block3	0back/STIM_010.jpg	99
1930.011	0.621	620.8	0back	Block3	0back/STIM_010.jpg	100
1934.215	0.725	724.6	0back	Block3	0back/STIM_010.jpg	100
1937.828	0.596	596.0	0back	Block3	0back/STIM_011.jpg	100
1942.27	0.726	725.7	0back	Block3	0back/STIM_011.jpg	100
1946.652	0.509	508.7	0back	Block3	0back/STIM_011.jpg	99
1950.668	0.792	792.5	0back	Block3	0back/STIM_012.jpg	99
1954.74	0.545	544.9	0back	Block3	0back/STIM_012.jpg	99
1958.089	0.506	506.1	0back	Block3	0back/STIM_012.jpg	99
1960.944	0.681	681.0	0back	Block3	0back/STIM_013.jpg	99
1965.145	0.566	566.4	0back	Block3	0back/STIM_013.jpg	100
1969.004	0.694	693.8	0back	Block3	0back/STIM_013.jpg	99
1972.747	0.482	481.7	0back	Block3	0back/STIM_014.jpg	100
1975.683	0.821	820.7	0back	Block3	0back/STIM_014.jpg	100
1979.103	0.676	676.1	0back	Block3	0back/STIM_014.jpg	100
1982.401	0.691	690.9	0back	Block3	0back/STIM_015.jpg	99
1985.096	0.695	694.9	0back	Block3	0back/STIM_015.jpg	100
1989.436	0.672	672.5	0back	Block3	0back/STIM_015.jpg	99
1992.86	0.654	654.3	0back	Block3	0back/STIM_016.jpg	100
1996.468	0.799	799.3	0back	Block3	0back/STIM_016.jpg	99
1999.944	0.546	546.3	0back	Block3	0back/STIM_016.jpg	99
2002.61	0.525	524.9	0back	Block3	0back/STIM_017.jpg	100
2005.33	0.495	495.0	0back	Block3	0back/STIM_017.jpg	99
2009.141	0.588	587.6	0back	Block3	0back/STIM_017.jpg	100
2012.269	0.512	512.1	0back	Block3	0back/STIM_018.jpg	100
2015.969	0.731	730.6	0back	Block3	0back/STIM_018.jpg	99
2019.278	0.549	548.9	0back	Block3	0back/STIM_018.jpg	100
2023.722	0.491	490.6	0back	Block3	0back/STIM_019.jpg	100
2027.624	0.694	694.3	0back	Block3	0back/STIM_019.jpg	100
2030.904	0.722	721.6	0back	Block3	0back/STIM_019.jpg	99
2035.256	0.445	444.8	2back	Block4	2back/STIM_000.jpg	99
2038.042	0.959	959.3	2back	Block4	2back/STIM_000.jpg	100
2041.202	0.893	892.8	2back	Block4	2back/STIM_000.jpg	99
2044.315	0.602	602.4	2back	Block4	2back/STIM_001.jpg	99
2047.656	0.743	743.3	2back	Block4	2back/STIM_001.jpg	100
2051.765	0.983	982.8	2back	Block4	2back/STIM_001.jpg	99
2056.407	0.928	927.7	2back	Block4	2back/STIM_002.jpg	99
2061.15	0.448	447.6	2back	Block4	2back/STIM_002.jpg	99
2065.21	0.706	706.4	2back	Block4	2back/STIM_002.jpg	100
2069.398	0.897	897.4	2back	Block4	2back/STIM_003.jpg	100
2073.214	0.594	593.9	2back	Block4	2back/STIM_003.jpg	100
2076.699	0.618	617.5	2back	Block4	2back/STIM_003.jpg	99
2079.636	0.474	474.0	2back	Block4	2back/STIM_004.jpg	99
2083.022	0.855	855.0	2back	Block4	2back/STIM_004.jpg	99
2087.284	0.655	655.0	2back	Block4	2back/STIM_004.jpg	100
2090.608	0.702	702.2	2back	Block4	2back/STIM_005.jpg	100
2094.556	0.904	903.8	2back	Block4	2back/STIM_005.jpg	99
2098.592	0.896	896.3	2back	Block4	2back/STIM_005.jpg	100
2102.077	0.723	722.9	2back	Block4	2back/STIM_006.jpg	99
2105.822	0.876	875.8	2back	Block4	2back/STIM_006.jpg	100
2109.369	0.991	991.0	2back	Block4	2back/STIM_006.jpg	100
2112.667	0.538	538.3	2back	Block4	2back/STIM_007.jpg	99
2115.366	1.019	1018.9	2back	Block4	2back/STIM_007.jpg	100
2120.27	0.712	711.9	2back	Block4	2back/STIM_007.jpg	99
2123.369	0.828	828.1	2back	Block4	2back/STIM_008.jpg	100
2127.358	0.708	708.2	2back	Block4	2back/STIM_008.jpg	99
2131.736	0.619	618.6	2back	Block4	2back/STIM_008.jpg	100
2135.604	0.552	551.6	2back	Block4	2back/STIM_009.jpg	100
2139.192	0.901	901.1	2back	Block4	2back/STIM_009.jpg	100
2144.006	0.846	846.3	2back	Block4	2back/STIM_009.jpg	100
2148.662	0.826	825.8	2back	Block4	2back/STIM_010.jpg	100
2153.073	0.695	695.3	2back	Block4	2back/STIM_010.jpg	99
2157.29	0.744	743.7	2back	Block4	2back/STIM_010.jpg	99
2160.349	0.817	816.7	2back	Block4	2back/STIM_011.jpg	99
2163.554	0.739	739.2	2back	Block4	2back/STIM_011.jpg	100
2166.867	0.531	531.4	2back	Block4	2back/STIM_011.jpg	99
2171.223	0.842	842.4	2back	Block4	2back/STIM_012.jpg	100
2174.577	0.979	978.6	2back	Block4	2back/STIM_012.jpg	99
2178.894	0.718	718.0	2back	Block4	2back/STIM_012.jpg	99
2182.936	0.508	507.7	2back	Block4	2back/STIM_013.jpg	99
2185.535	0.631	630.9	2back	Block4	2back/STIM_013.jpg	100
2189.277	0.977	976.8	2back	Block4	2back/STIM_013.jpg	100
2192.312	0.504	503.7	2back	Block4	2back/STIM_014.jpg	100
2196.462	1.001	1000.6	2back	Block4	2back/STIM_014.jpg	99
2199.949	0.461	460.7	2back	Block4	2back/STIM_014.jpg	99
2204.266	0.922	921.6	2back	Block4	2back/STIM_015.jpg	100
2208.759	0.626	626.3	2back	Block4	2back/STIM_015.jpg	100
2211.476	1.026	1026.3	2back	Block4	2back/STIM_015.jpg	99
2215.145	0.468	467.5	2back	Block4	2back/STIM_016.jpg	99
2218.706	0.523	522.7	2back	Block4	2back/STIM_016.jpg	99
2222.275	0.881	880.6	2back	Block4	2back/STIM_016.jpg	99
2226.531	0.819	819.1	2back	Block4	2back/STIM_017.jpg	99
2229.689	0.718	718.3	2back	Block4	2back/STIM_017.jpg	100
2232.731	0.794	794.3	2back	Block4	2back/STIM_017.jpg	100
2236.826	1.018	1018.5	2back	Block4	2back/STIM_018.jpg	99
2240.563	0.517	516.7	2back	Block4	2back/STIM_018.jpg	99
2245.014	1.012	1012.4	2back	Block4	2back/STIM_018.jpg	100
2248.799	0.504	503.7	2back	Block4	2back/STIM_019.jpg	100
2252.895	0.659	659.1	2back	Block4	2back/STIM_019.jpg	99
2256.049	0.559	559.3	2back	Block4	2back/STIM_019.jpg	100
2258.583	0.891	890.7	2back	Block4	2back/STIM_020.jpg	99
2261.496	0.53	530.5	2back	Block4	2back/STIM_020.jpg	99
2264.538	1.016	1016.1	2back	Block4	2back/STIM_020.jpg	100
2267.804	0.636	636.0	2back	Block4	2back/STIM_021.jpg	99
2270.42	0.749	748.7	2back	Block4	2back/STIM_021.jpg	100
2274.612	0.863	862.8	2back	Block4	2back/STIM_021.jpg	99
2278.308	0.503	502.8	2back	Block4	2back/STIM_022.jpg	99
2281.453	0.978	977.5	2back	Block4	2back/STIM_022.jpg	100
2285.918	0.51	510.0	2back	Block4	2back/STIM_022.jpg	99
2289.244	0.477	477.4	2back	Block4	2back/STIM_023.jpg	100
2292.298	0.817	816.6	2back	Block4	2back/STIM_023.jpg	99
2295.231	0.931	930.7	2back	Block4	2back/STIM_023.jpg	100
2299.816	0.891	890.9	2back	Block4	2back/STIM_024.jpg	100
2303.126	0.81	810.3	2back	Block4	2back/STIM_024.jpg	99
2307.887	0.716	715.6	2back	Block4	2back/STIM_024.jpg	99
2310.778	0.75	750.0	2back	Block4	2back/STIM_025.jpg	100
2315.236	0.907	906.8	2back	Block4	2back/STIM_025.jpg	99
2319.951	1.009	1009.1	2back	Block4	2back/STIM_025.jpg	99
2324.372	0.502	502.0	2back	Block4	2back/STIM_026.jpg	100
2328.297	0.45	449.9	2back	Block4	2back/STIM_026.jpg	100
2331.142	1.026	1025.6	2back	Block4	2back/STIM_026.jpg	100
2334.73	0.52	519.6	2back	Block4	2back/STIM_027.jpg	100
2338.463	0.799	798.6	2back	Block4	2back/STIM_027.jpg	100
2342.684	1.005	1005.2	2back	Block4	2back/STIM_027.jpg	99
2346.23	0.458	458.5	2back	Block4	2back/STIM_028.jpg	100
2350.476	0.688	687.9	2back	Block4	2back/STIM_028.jpg	100
2354.064	0.574	574.3	2back	Block4	2back/STIM_028.jpg	100
2357.907	0.459	459.4	2back	Block4	2back/STIM_029.jpg	100
2360.526	0.642	641.6	2back	Block4	2back/STIM_029.jpg	99
2363.165	0.728	728.3	2back	Block4	2back/STIM_029.jpg	99
2367.369	0.444	444.5	2back	Block4	2back/STIM_030.jpg	99
2371.635	0.816	816.0	2back	Block4	2back/STIM_030.jpg	99
2375.217	0.805	804.8	2back	Block4	2back/STIM_030.jpg	100
2379.731	0.919	919.2	2back	Block4	2back/STIM_031.jpg	100
2382.727	0.897	896.9	2back	Block4	2back/STIM_031.jpg	99
2387.411	0.88	879.8	2back	Block4	2back/STIM_031.jpg	100
2390.664	0.49	490.0	2back	Block4	2back/STIM_032.jpg	100
2393.568	0.655	655.2	2back	Block4	2back/STIM_032.jpg	100
2397.793	0.503	502.6	2back	Block4	2back/STIM_032.jpg	100
2401.898	0.94	940.3	2back	Block4	2back/STIM_033.jpg	100
2405.269	0.442	442.0	2back	Block4	2back/STIM_033.jpg	100
2408.824	0.504	503.8	2back	Block4	2back/STIM_033.jpg	100
2412.633	0.79	789.7	2back	Block4	2back/STIM_034.jpg	99
2416.552	0.665	664.7	2back	Block4	2back/STIM_034.jpg	100
2420.767	0.71	709.8	2back	Block4	2back/STIM_034.jpg	100
2423.689	0.91	910.4	2back	Block4	2back/STIM_035.jpg	100
2427.703	0.853	853.1	2back	Block4	2back/STIM_035.jpg	100
2432.292	0.444	444.4	2back	Block4	2back/STIM_035.jpg	100
2436.44	0.941	941.1	2back	Block4	2back/STIM_036.jpg	99
2440.379	0.975	975.4	2back	Block4	2back/STIM_036.jpg	100
2445.237	0.639	638.6	2back	Block4	2back/STIM_036.jpg	100
2448.42	1.002	1002.0	2back	Block4	2back/STIM_037.jpg	100
2451.598	0.467	467.4	2back	Block4	2back/STIM_037.jpg	99
2455.89	0.945	945.2	2back	Block4	2back/STIM_037.jpg	99
2460.328	0.466	465.7	2back	Block4	2back/STIM_038.jpg	100
2463.793	0.659	659.1	2back	Block4	2back/STIM_038.jpg	99
2466.762	0.866	865.5	2back	Block4	2back/STIM_038.jpg	99
2471.171	1.003	1003.0	2back	Block4	2back/STIM_039.jpg	99
2475.132	0.8	800.4	2back	Block4	2back/STIM_039.jpg	99
2479.125	1.006	1005.6	2back	Block4	2back/STIM_039.jpg	99
2483.224	0.834	834.5	0back	Block4	0back/STIM_000.jpg	100
2487.785	0.421	421.4	0back	Block4	0back/STIM_000.jpg	99
2491.732	0.642	641.6	0back	Block4	0back/STIM_000.jpg	100
2494.399	0.639	639.2	0back	Block4	0back/STIM_001.jpg	100
2498.182	0.647	647.4	0back	Block4	0back/STIM_001.jpg	99
2501.633	0.421	421.3	0back	Block4	0back/STIM_001.jpg	99
2505.566	0.6	600.5	0back	Block4	0back/STIM_002.jpg	100
2508.849	0.778	777.5	0back	Block4	0back/STIM_002.jpg	100
2512.538	0.65	650.4	0back	Block4	0back/STIM_002.jpg	99
2516.075	0.518	518.0	0back	Block4	0back/STIM_003.jpg	99
2520.04	0.642	642.3	0back	Block4	0back/STIM_003.jpg	99
2524.334	0.73	730.0	0back	Block4	0back/STIM_003.jpg	99
2527.093	0.743	743.4	0back	Block4	0back/STIM_004.jpg	99
2531.668	0.556	556.3	0back	Block4	0back/STIM_004.jpg	100
2536.113	0.618	618.0	0back	Block4	0back/STIM_004.jpg	99
2540.374	0.513	513.2	0back	Block4	0back/STIM_005.jpg	99
2543.145	0.606	605.9	0back	Block4	0back/STIM_005.jpg	99
2547.354	0.787	787.3	0back	Block4	0back/STIM_005.jpg	99
2550.924	0.82	819.7	0back	Block4	0back/STIM_006.jpg	99
2555.625	0.799	798.8	0back	Block4	0back/STIM_006.jpg	100
2559.786	0.523	523.1	0back	Block4	0back/STIM_006.jpg	100
2564.133	0.772	772.2	0back	Block4	0back/STIM_007.jpg	100
2567.425	0.577	576.8	0back	Block4	0back/STIM_007.jpg	100
2571.906	0.809	808.7	0back	Block4	0back/STIM_007.jpg	99
2576.041	0.721	720.6	0back	Block4	0back/STIM_008.jpg	99
2578.759	0.513	513.1	0back	Block4	0back/STIM_008.jpg	100
2581.413	0.488	487.9	0back	Block4	0back/STIM_008.jpg	99
2585.336	0.523	523.4	0back	Block4	0back/STIM_009.jpg	100
2588.394	0.559	559.0	0back	Block4	0back/STIM_009.jpg	100
2591.815	0.45	449.8	0back	Block4	0back/STIM_009.jpg	99
2594.274	0.466	466.1	0back	Block4	0back/STIM_010.jpg	99
2598.38	0.678	677.6	0back	Block4	0back/STIM_010.jpg	100
2601.248	0.446	445.7	0back	Block4	0back/STIM_010.jpg	100
2603.714	0.497	496.6	0back	Block4	0back/STIM_011.jpg	100
2606.921	0.526	526.2	0back	Block4	0back/STIM_011.jpg	99
2610.756	0.59	589.8	0back	Block4	0back/STIM_011.jpg	99
2614.96	0.664	664.1	0back	Block4	0back/STIM_012.jpg	100
2617.936	0.808	808.4	0back	Block4	0back/STIM_012.jpg	99
2621.501	0.521	521.1	0back	Block4	0back/STIM_012.jpg	100
2624.228	0.67	670.5	0back	Block4	0back/STIM_013.jpg	100
2627.051	0.656	656.1	0back	Block4	0back/STIM_013.jpg	100
2630.696	0.783	782.7	0back	Block4	0back/STIM_013.jpg	100
2635.043	0.484	483.9	0back	Block4	0back/STIM_014.jpg	100
2639.035	0.521	520.6	0back	Block4	0back/STIM_014.jpg	100
2642.818	0.689	689.2	0back	Block4	0back/STIM_014.jpg	100
2645.927	0.683	683.2	0back	Block4	0back/STIM_015.jpg	100
2649.213	0.506	505.9	0back	Block4	0back/STIM_015.jpg	99
2652.539	0.633	633.4	0back	Block4	0back/STIM_015.jpg	99
2657.08	0.779	778.9	0back	Block4	0back/STIM_016.jpg	100
2660.068	0.497	496.8	0back	Block4	0back/STIM_016.jpg	100
2664.285	0.682	681.5	0back	Block4	0back/STIM_016.jpg	100
2667.2	0.709	708.9	0back	Block4	0back/STIM_017.jpg	99
2670.608	0.709	708.8	0back	Block4	0back/STIM_017.jpg	100
2673.756	0.713	712.7	0back	Block4	0back/STIM_017.jpg	100
2677.588	0.678	677.7	0back	Block4	0back/STIM_018.jpg	100
2682.055	0.656	656.1	0back	Block4	0back/STIM_018.jpg	100
2684.752	0.491	490.6	0back	Block4	0back/STIM_018.jpg	100
2688.683	0.431	430.8	0back	Block4	0back/STIM_019.jpg	99
2691.186	0.62	619.9	0back	Block4	0back/STIM_019.jpg	99
2694.247	0.616	616.2	0back	Block4	0back/STIM_019.jpg	99
