onset	duration	accuracy_binary	trial_type	learning_stage	stimulus
0.0	1.179	1	2back	Block1	2back/STIM_000.jpg
3.935	1.217	1	2back	Block1	2back/STIM_000.jpg
7.56	1.235	1	2back	Block1	2back/STIM_000.jpg
12.135	0.781	1	2back	Block1	2back/STIM_001.jpg
16.128	0.708	1	2back	Block1	2back/STIM_001.jpg
19.283	0.809	1	2back	Block1	2back/STIM_001.jpg
23.852	1.394	1	2back	Block1	2back/STIM_002.jpg
28.882	0.599	1	2back	Block1	2back/STIM_002.jpg
32.005	1.019	1	2back	Block1	2back/STIM_002.jpg
36.864	0.795	1	2back	Block1	2back/STIM_003.jpg
40.144	1.313	1	2back	Block1	2back/STIM_003.jpg
44.832	1.186	1	2back	Block1	2back/STIM_003.jpg
48.308	0.832	1	2back	Block1	2back/STIM_004.jpg
51.412	0.917	1	2back	Block1	2back/STIM_004.jpg
55.462	0.574	1	2back	Block1	2back/STIM_004.jpg
59.828	1.241	1	2back	Block1	2back/STIM_005.jpg
64.168	1.114	1	2back	Block1	2back/STIM_005.jpg
67.916	1.237	1	2back	Block1	2back/STIM_005.jpg
71.29	0.688	1	2back	Block1	2back/STIM_006.jpg
74.441	0.854	1	2back	Block1	2back/STIM_006.jpg
78.789	1.05	1	2back	Block1	2back/STIM_006.jpg
83.268	1.247	1	2back	Block1	2back/STIM_007.jpg
86.506	0.63	1	2back	Block1	2back/STIM_007.jpg
90.356	1.248	1	2back	Block1	2back/STIM_007.jpg
94.368	0.98	1	2back	Block1	2back/STIM_008.jpg
97.812	1.118	1	2back	Block1	2back/STIM_008.jpg
102.761	1.123	1	2back	Block1	2back/STIM_008.jpg
107.648	1.056	1	2back	Block1	2back/STIM_009.jpg
110.987	0.995	1	2back	Block1	2back/STIM_009.jpg
114.112	0.598	1	2back	Block1	2back/STIM_009.jpg
116.735	0.76	1	2back	Block1	2back/STIM_010.jpg
119.888	1.346	1	2back	Block1	2back/STIM_010.jpg
125.044	0.819	0	2back	Block1	2back/STIM_010.jpg
128.423	1.144	1	2back	Block1	2back/STIM_011.jpg
131.968	0.886	0	2back	Block1	2back/STIM_011.jpg
136.25	0.908	1	2back	Block1	2back/STIM_011.jpg
140.363	1.464	1	2back	Block1	2back/STIM_012.jpg
144.579	1.25	1	2back	Block1	2back/STIM_012.jpg
148.435	0.887	1	2back	Block1	2back/STIM_012.jpg
153.19	0.956	1	2back	Block1	2back/STIM_013.jpg
156.259	0.928	1	2back	Block1	2back/STIM_013.jpg
160.201	1.15	1	2back	Block1	2back/STIM_013.jpg
163.624	0.887	0	2back	Block1	2back/STIM_014.jpg
167.618	0.676	1	2back	Block1	2back/STIM_014.jpg
171.293	0.695	1	2back	Block1	2back/STIM_014.jpg
173.98	1.024	0	2back	Block1	2back/STIM_015.jpg
177.965	0.992	1	2back	Block1	2back/STIM_015.jpg
181.124	1.197	1	2back	Block1	2back/STIM_015.jpg
185.842	1.246	1	2back	Block1	2back/STIM_016.jpg
189.327	0.703	1	2back	Block1	2back/STIM_016.jpg
193.184	0.647	1	2back	Block1	2back/STIM_016.jpg
196.33	0.825	1	2back	Block1	2back/STIM_017.jpg
199.246	0.63	1	2back	Block1	2back/STIM_017.jpg
202.799	0.742	1	2back	Block1	2back/STIM_017.jpg
207.012	1.324	1	2back	Block1	2back/STIM_018.jpg
212.2	0.925	1	2back	Block1	2back/STIM_018.jpg
216.815	1.103	1	2back	Block1	2back/STIM_018.jpg
221.418	1.357	1	2back	Block1	2back/STIM_019.jpg
225.271	1.346	1	2back	Block1	2back/STIM_019.jpg
230.097	1.296	1	2back	Block1	2back/STIM_019.jpg
233.681	1.086	1	2back	Block1	2back/STIM_020.jpg
237.961	1.256	1	2back	Block1	2back/STIM_020.jpg
242.171	0.953	1	2back	Block1	2back/STIM_020.jpg
246.495	1.313	1	2back	Block1	2back/STIM_021.jpg
251.211	0.783	1	2back	Block1	2back/STIM_021.jpg
254.022	1.311	1	2back	Block1	2back/STIM_021.jpg
258.791	1.277	1	2back	Block1	2back/STIM_022.jpg
263.246	0.815	1	2back	Block1	2back/STIM_022.jpg
266.466	0.698	1	2back	Block1	2back/STIM_022.jpg
269.154	0.839	1	2back	Block1	2back/STIM_023.jpg
273.663	0.9	0	2back	Block1	2back/STIM_023.jpg
277.585	1.22	0	2back	Block1	2back/STIM_023.jpg
280.866	0.678	1	2back	Block1	2back/STIM_024.jpg
284.544	0.762	1	2back	Block1	2back/STIM_024.jpg
287.271	1.206	0	2back	Block1	2back/STIM_024.jpg
291.928	0.944	1	2back	Block1	2back/STIM_025.jpg
294.951	1.215	1	2back	Block1	2back/STIM_025.jpg
298.93	0.799	1	2back	Block1	2back/STIM_025.jpg
303.339	0.699	1	2back	Block1	2back/STIM_026.jpg
307.764	1.322	0	2back	Block1	2back/STIM_026.jpg
311.948	0.961	1	2back	Block1	2back/STIM_026.jpg
316.255	0.695	1	2back	Block1	2back/STIM_027.jpg
320.764	0.767	1	2back	Block1	2back/STIM_027.jpg
325.339	0.813	0	2back	Block1	2back/STIM_027.jpg
328.155	1.345	1	2back	Block1	2back/STIM_028.jpg
333.086	1.108	1	2back	Block1	2back/STIM_028.jpg
337.161	1.239	1	2back	Block1	2back/STIM_028.jpg
342.184	0.861	1	2back	Block1	2back/STIM_029.jpg
345.885	0.776	1	2back	Block1	2back/STIM_029.jpg
349.347	1.112	1	2back	Block1	2back/STIM_029.jpg
352.836	1.025	1	2back	Block1	2back/STIM_030.jpg
355.848	1.159	1	2back	Block1	2back/STIM_030.jpg
359.29	0.646	1	2back	Block1	2back/STIM_030.jpg
363.598	0.946	1	2back	Block1	2back/STIM_031.jpg
367.881	1.092	1	2back	Block1	2back/STIM_031.jpg
371.849	1.062	1	2back	Block1	2back/STIM_031.jpg
376.065	0.702	1	2back	Block1	2back/STIM_032.jpg
379.5	0.852	0	2back	Block1	2back/STIM_032.jpg
382.333	1.273	1	2back	Block1	2back/STIM_032.jpg
386.502	1.246	1	2back	Block1	2back/STIM_033.jpg
390.591	1.276	0	2back	Block1	2back/STIM_033.jpg
394.171	0.589	1	2back	Block1	2back/STIM_033.jpg
397.445	1.257	1	2back	Block1	2back/STIM_034.jpg
402.199	0.846	1	2back	Block1	2back/STIM_034.jpg
406.475	1.274	1	2back	Block1	2back/STIM_034.jpg
410.714	0.649	1	2back	Block1	2back/STIM_035.jpg
414.024	0.993	1	2back	Block1	2back/STIM_035.jpg
418.851	1.241	1	2back	Block1	2back/STIM_035.jpg
422.049	0.743	1	2back	Block1	2back/STIM_036.jpg
426.481	0.938	1	2back	Block1	2back/STIM_036.jpg
431.085	0.786	1	2back	Block1	2back/STIM_036.jpg
435.745	1.178	0	2back	Block1	2back/STIM_037.jpg
439.585	1.079	1	2back	Block1	2back/STIM_037.jpg
443.821	0.583	1	2back	Block1	2back/STIM_037.jpg
448.137	1.414	1	2back	Block1	2back/STIM_038.jpg
451.866	0.778	1	2back	Block1	2back/STIM_038.jpg
455.492	0.803	1	2back	Block1	2back/STIM_038.jpg
459.266	0.822	0	2back	Block1	2back/STIM_039.jpg
462.646	0.761	1	2back	Block1	2back/STIM_039.jpg
466.822	0.709	1	2back	Block1	2back/STIM_039.jpg
470.734	0.467	1	0back	Block1	0back/STIM_000.jpg
473.19	0.514	1	0back	Block1	0back/STIM_000.jpg
477.321	0.607	1	0back	Block1	0back/STIM_000.jpg
481.41	0.726	1	0back	Block1	0back/STIM_001.jpg
485.119	0.704	1	0back	Block1	0back/STIM_001.jpg
489.471	0.694	0	0back	Block1	0back/STIM_001.jpg
493.611	0.721	1	0back	Block1	0back/STIM_002.jpg
497.021	0.653	1	0back	Block1	0back/STIM_002.jpg
501.022	0.532	1	0back	Block1	0back/STIM_002.jpg
505.151	0.807	1	0back	Block1	0back/STIM_003.jpg
509.434	0.599	1	0back	Block1	0back/STIM_003.jpg
513.462	0.746	1	0back	Block1	0back/STIM_003.jpg
518.076	0.54	1	0back	Block1	0back/STIM_004.jpg
521.233	0.646	1	0back	Block1	0back/STIM_004.jpg
524.131	0.486	1	0back	Block1	0back/STIM_004.jpg
528.024	0.637	1	0back	Block1	0back/STIM_005.jpg
532.005	0.568	1	0back	Block1	0back/STIM_005.jpg
534.88	0.711	1	0back	Block1	0back/STIM_005.jpg
538.959	0.629	1	0back	Block1	0back/STIM_006.jpg
542.983	0.613	1	0back	Block1	0back/STIM_006.jpg
546.606	0.462	1	0back	Block1	0back/STIM_006.jpg
549.344	0.764	1	0back	Block1	0back/STIM_007.jpg
553.775	0.722	1	0back	Block1	0back/STIM_007.jpg
557.492	0.46	1	0back	Block1	0back/STIM_007.jpg
560.522	0.696	1	0back	Block1	0back/STIM_008.jpg
565.153	0.542	0	0back	Block1	0back/STIM_008.jpg
568.154	0.502	1	0back	Block1	0back/STIM_008.jpg
570.722	0.808	1	0back	Block1	0back/STIM_009.jpg
573.591	0.802	1	0back	Block1	0back/STIM_009.jpg
578.016	0.791	0	0back	Block1	0back/STIM_009.jpg
582.676	0.71	1	0back	Block1	0back/STIM_010.jpg
585.984	0.698	1	0back	Block1	0back/STIM_010.jpg
589.457	0.681	1	0back	Block1	0back/STIM_010.jpg
593.288	0.786	1	0back	Block1	0back/STIM_011.jpg
597.899	0.779	1	0back	Block1	0back/STIM_011.jpg
601.398	0.831	1	0back	Block1	0back/STIM_011.jpg
605.858	0.762	1	0back	Block1	0back/STIM_012.jpg
608.618	0.825	0	0back	Block1	0back/STIM_012.jpg
612.832	0.504	1	0back	Block1	0back/STIM_012.jpg
616.673	0.616	1	0back	Block1	0back/STIM_013.jpg
620.499	0.59	1	0back	Block1	0back/STIM_013.jpg
625.038	0.49	1	0back	Block1	0back/STIM_013.jpg
628.86	0.69	1	0back	Block1	0back/STIM_014.jpg
631.736	0.585	1	0back	Block1	0back/STIM_014.jpg
634.324	0.561	1	0back	Block1	0back/STIM_014.jpg
638.225	0.606	1	0back	Block1	0back/STIM_015.jpg
642.322	0.475	1	0back	Block1	0back/STIM_015.jpg
646.042	0.522	1	0back	Block1	0back/STIM_015.jpg
650.237	0.802	1	0back	Block1	0back/STIM_016.jpg
654.846	0.458	1	0back	Block1	0back/STIM_016.jpg
658.877	0.701	1	0back	Block1	0back/STIM_016.jpg
663.184	0.741	1	0back	Block1	0back/STIM_017.jpg
667.595	0.445	1	0back	Block1	0back/STIM_017.jpg
671.105	0.582	1	0back	Block1	0back/STIM_017.jpg
674.21	0.425	1	0back	Block1	0back/STIM_018.jpg
676.619	0.486	1	0back	Block1	0back/STIM_018.jpg
679.619	0.71	1	0back	Block1	0back/STIM_018.jpg
683.135	0.58	1	0back	Block1	0back/STIM_019.jpg
687.602	0.7	1	0back	Block1	0back/STIM_019.jpg
691.197	0.816	1	0back	Block1	0back/STIM_019.jpg
694.255	1.033	1	2back	Block2	2back/STIM_000.jpg
697.899	0.691	1	2back	Block2	2back/STIM_000.jpg
701.161	0.485	1	2back	Block2	2back/STIM_000.jpg
704.158	0.545	1	2back	Block2	2back/STIM_001.jpg
707.832	0.61	1	2back	Block2	2back/STIM_001.jpg
711.029	0.897	1	2back	Block2	2back/STIM_001.jpg
714.68	1.047	1	2back	Block2	2back/STIM_002.jpg
718.794	0.822	1	2back	Block2	2back/STIM_002.jpg
721.731	0.736	1	2back	Block2	2back/STIM_002.jpg
725.914	0.748	1	2back	Block2	2back/STIM_003.jpg
730.197	1.08	1	2back	Block2	2back/STIM_003.jpg
734.594	0.822	1	2back	Block2	2back/STIM_003.jpg
738.98	1.106	1	2back	Block2	2back/STIM_004.jpg
743.171	0.716	1	2back	Block2	2back/STIM_004.jpg
747.34	0.877	0	2back	Block2	2back/STIM_004.jpg
751.292	0.592	1	2back	Block2	2back/STIM_005.jpg
755.114	0.711	1	2back	Block2	2back/STIM_005.jpg
758.949	0.653	1	2back	Block2	2back/STIM_005.jpg
762.783	0.667	1	2back	Block2	2back/STIM_006.jpg
767.131	0.809	1	2back	Block2	2back/STIM_006.jpg
771.281	0.925	1	2back	Block2	2back/STIM_006.jpg
775.275	0.622	1	2back	Block2	2back/STIM_007.jpg
778.904	0.511	1	2back	Block2	2back/STIM_007.jpg
782.881	0.552	1	2back	Block2	2back/STIM_007.jpg
786.249	0.58	1	2back	Block2	2back/STIM_008.jpg
789.452	1.0	0	2back	Block2	2back/STIM_008.jpg
793.697	0.847	1	2back	Block2	2back/STIM_008.jpg
798.371	0.671	1	2back	Block2	2back/STIM_009.jpg
801.159	0.565	0	2back	Block2	2back/STIM_009.jpg
804.955	1.079	0	2back	Block2	2back/STIM_009.jpg
808.15	0.764	1	2back	Block2	2back/STIM_010.jpg
812.657	0.522	1	2back	Block2	2back/STIM_010.jpg
816.247	0.598	1	2back	Block2	2back/STIM_010.jpg
820.811	1.036	1	2back	Block2	2back/STIM_011.jpg
825.352	0.772	1	2back	Block2	2back/STIM_011.jpg
829.744	1.097	1	2back	Block2	2back/STIM_011.jpg
833.1	0.576	1	2back	Block2	2back/STIM_012.jpg
837.027	0.713	1	2back	Block2	2back/STIM_012.jpg
840.163	0.788	1	2back	Block2	2back/STIM_012.jpg
844.783	1.17	1	2back	Block2	2back/STIM_013.jpg
849.093	0.523	1	2back	Block2	2back/STIM_013.jpg
852.878	0.567	1	2back	Block2	2back/STIM_013.jpg
857.211	1.175	1	2back	Block2	2back/STIM_014.jpg
861.477	0.631	1	2back	Block2	2back/STIM_014.jpg
865.115	0.636	1	2back	Block2	2back/STIM_014.jpg
869.294	0.7	1	2back	Block2	2back/STIM_015.jpg
873.236	0.648	1	2back	Block2	2back/STIM_015.jpg
876.963	0.876	1	2back	Block2	2back/STIM_015.jpg
880.404	0.702	1	2back	Block2	2back/STIM_016.jpg
883.179	0.708	1	2back	Block2	2back/STIM_016.jpg
885.905	1.051	1	2back	Block2	2back/STIM_016.jpg
890.025	1.163	1	2back	Block2	2back/STIM_017.jpg
893.521	0.774	1	2back	Block2	2back/STIM_017.jpg
898.073	0.778	1	2back	Block2	2back/STIM_017.jpg
901.306	0.708	1	2back	Block2	2back/STIM_018.jpg
905.781	0.836	1	2back	Block2	2back/STIM_018.jpg
909.974	0.794	1	2back	Block2	2back/STIM_018.jpg
913.755	0.937	1	2back	Block2	2back/STIM_019.jpg
918.623	0.651	1	2back	Block2	2back/STIM_019.jpg
922.617	0.759	1	2back	Block2	2back/STIM_019.jpg
927.19	0.711	1	2back	Block2	2back/STIM_020.jpg
930.187	1.091	1	2back	Block2	2back/STIM_020.jpg
933.886	0.849	1	2back	Block2	2back/STIM_020.jpg
938.388	0.655	1	2back	Block2	2back/STIM_021.jpg
942.061	0.91	1	2back	Block2	2back/STIM_021.jpg
946.64	0.835	1	2back	Block2	2back/STIM_021.jpg
950.395	0.855	1	2back	Block2	2back/STIM_022.jpg
954.854	1.022	1	2back	Block2	2back/STIM_022.jpg
959.61	0.536	1	2back	Block2	2back/STIM_022.jpg
962.511	0.961	1	2back	Block2	2back/STIM_023.jpg
967.056	0.719	1	2back	Block2	2back/STIM_023.jpg
971.628	1.034	1	2back	Block2	2back/STIM_023.jpg
976.402	0.872	1	2back	Block2	2back/STIM_024.jpg
980.56	0.659	1	2back	Block2	2back/STIM_024.jpg
983.472	0.688	1	2back	Block2	2back/STIM_024.jpg
986.373	0.915	1	2back	Block2	2back/STIM_025.jpg
989.841	0.864	1	2back	Block2	2back/STIM_025.jpg
992.92	1.054	1	2back	Block2	2back/STIM_025.jpg
997.847	0.77	1	2back	Block2	2back/STIM_026.jpg
1001.844	1.031	1	2back	Block2	2back/STIM_026.jpg
1005.335	0.927	1	2back	Block2	2back/STIM_026.jpg
1008.342	0.584	1	2back	Block2	2back/STIM_027.jpg
1011.815	1.068	1	2back	Block2	2back/STIM_027.jpg
1015.689	0.528	1	2back	Block2	2back/STIM_027.jpg
1019.458	0.536	0	2back	Block2	2back/STIM_028.jpg
1022.692	1.122	1	2back	Block2	2back/STIM_028.jpg
1025.785	0.572	1	2back	Block2	2back/STIM_028.jpg
1029.051	0.876	1	2back	Block2	2back/STIM_029.jpg
1033.328	0.626	1	2back	Block2	2back/STIM_029.jpg
1037.101	1.061	1	2back	Block2	2back/STIM_029.jpg
1041.678	1.013	1	2back	Block2	2back/STIM_030.jpg
1045.126	0.931	1	2back	Block2	2back/STIM_030.jpg
1049.272	1.028	1	2back	Block2	2back/STIM_030.jpg
1053.801	0.933	1	2back	Block2	2back/STIM_031.jpg
1058.239	0.764	1	2back	Block2	2back/STIM_031.jpg
1061.873	0.654	1	2back	Block2	2back/STIM_031.jpg
1065.324	0.556	1	2back	Block2	2back/STIM_032.jpg
1068.03	0.662	1	2back	Block2	2back/STIM_032.jpg
1072.116	0.516	1	2back	Block2	2back/STIM_032.jpg
1075.126	1.078	1	2back	Block2	2back/STIM_033.jpg
1079.404	1.066	1	2back	Block2	2back/STIM_033.jpg
1083.288	0.858	1	2back	Block2	2back/STIM_033.jpg
1087.981	1.115	0	2back	Block2	2back/STIM_034.jpg
1091.119	0.658	1	2back	Block2	2back/STIM_034.jpg
1094.872	0.539	1	2back	Block2	2back/STIM_034.jpg
1098.779	0.962	1	2back	Block2	2back/STIM_035.jpg
1103.646	0.94	1	2back	Block2	2back/STIM_035.jpg
1107.197	0.828	1	2back	Block2	2back/STIM_035.jpg
1110.434	1.096	1	2back	Block2	2back/STIM_036.jpg
1113.635	1.141	1	2back	Block2	2back/STIM_036.jpg
1117.028	0.814	1	2back	Block2	2back/STIM_036.jpg
1120.938	0.586	1	2back	Block2	2back/STIM_037.jpg
1123.869	1.1	1	2back	Block2	2back/STIM_037.jpg
1127.779	0.703	1	2back	Block2	2back/STIM_037.jpg
1131.118	0.671	0	2back	Block2	2back/STIM_038.jpg
1134.65	0.792	1	2back	Block2	2back/STIM_038.jpg
1138.029	0.518	1	2back	Block2	2back/STIM_038.jpg
1141.641	0.82	1	2back	Block2	2back/STIM_039.jpg
1144.707	0.625	1	2back	Block2	2back/STIM_039.jpg
1147.888	0.693	1	2back	Block2	2back/STIM_039.jpg
1152.239	0.615	1	0back	Block2	0back/STIM_000.jpg
1155.056	0.768	1	0back	Block2	0back/STIM_000.jpg
1158.464	0.482	1	0back	Block2	0back/STIM_000.jpg
1161.539	0.527	1	0back	Block2	0back/STIM_001.jpg
1165.033	0.613	1	0back	Block2	0back/STIM_001.jpg
1168.393	0.496	1	0back	Block2	0back/STIM_001.jpg
1171.982	0.455	1	0back	Block2	0back/STIM_002.jpg
1175.374	0.422	1	0back	Block2	0back/STIM_002.jpg
1178.784	0.5	1	0back	Block2	0back/STIM_002.jpg
1182.276	0.799	1	0back	Block2	0back/STIM_003.jpg
1186.034	0.465	1	0back	Block2	0back/STIM_003.jpg
1190.419	0.429	1	0back	Block2	0back/STIM_003.jpg
1192.937	0.688	1	0back	Block2	0back/STIM_004.jpg
1196.897	0.802	1	0back	Block2	0back/STIM_004.jpg
1201.529	0.834	1	0back	Block2	0back/STIM_004.jpg
1204.526	0.428	1	0back	Block2	0back/STIM_005.jpg
1207.103	0.586	1	0back	Block2	0back/STIM_005.jpg
1211.258	0.722	1	0back	Block2	0back/STIM_005.jpg
1215.359	0.552	1	0back	Block2	0back/STIM_006.jpg
1219.503	0.686	1	0back	Block2	0back/STIM_006.jpg
1223.738	0.424	1	0back	Block2	0back/STIM_006.jpg
1227.41	0.528	1	0back	Block2	0back/STIM_007.jpg
1231.827	0.429	1	0back	Block2	0back/STIM_007.jpg
1234.371	0.501	1	0back	Block2	0back/STIM_007.jpg
1237.917	0.697	1	0back	Block2	0back/STIM_008.jpg
1242.124	0.537	1	0back	Block2	0back/STIM_008.jpg
1245.701	0.729	1	0back	Block2	0back/STIM_008.jpg
1248.881	0.632	1	0back	Block2	0back/STIM_009.jpg
1252.854	0.539	0	0back	Block2	0back/STIM_009.jpg
1256.392	0.727	1	0back	Block2	0back/STIM_009.jpg
1259.639	0.601	1	0back	Block2	0back/STIM_010.jpg
1263.59	0.752	1	0back	Block2	0back/STIM_010.jpg
1267.295	0.544	1	0back	Block2	0back/STIM_010.jpg
1270.955	0.583	1	0back	Block2	0back/STIM_011.jpg
1274.005	0.8	1	0back	Block2	0back/STIM_011.jpg
1278.345	0.505	1	0back	Block2	0back/STIM_011.jpg
1281.259	0.446	1	0back	Block2	0back/STIM_012.jpg
1283.826	0.491	1	0back	Block2	0back/STIM_012.jpg
1287.479	0.736	0	0back	Block2	0back/STIM_012.jpg
1291.621	0.793	1	0back	Block2	0back/STIM_013.jpg
1296.271	0.498	1	0back	Block2	0back/STIM_013.jpg
1299.292	0.724	1	0back	Block2	0back/STIM_013.jpg
1303.423	0.468	1	0back	Block2	0back/STIM_014.jpg
1306.432	0.702	1	0back	Block2	0back/STIM_014.jpg
1310.095	0.678	1	0back	Block2	0back/STIM_014.jpg
1314.435	0.501	1	0back	Block2	0back/STIM_015.jpg
1318.718	0.783	1	0back	Block2	0back/STIM_015.jpg
1323.4	0.727	1	0back	Block2	0back/STIM_015.jpg
1327.552	0.484	1	0back	Block2	0back/STIM_016.jpg
1331.827	0.749	1	0back	Block2	0back/STIM_016.jpg
1336.479	0.624	1	0back	Block2	0back/STIM_016.jpg
1340.335	0.462	1	0back	Block2	0back/STIM_017.jpg
1343.959	0.688	1	0back	Block2	0back/STIM_017.jpg
1347.697	0.7	1	0back	Block2	0back/STIM_017.jpg
1352.334	0.608	1	0back	Block2	0back/STIM_018.jpg
1356.008	0.676	1	0back	Block2	0back/STIM_018.jpg
1360.429	0.534	1	0back	Block2	0back/STIM_018.jpg
1363.911	0.508	1	0back	Block2	0back/STIM_019.jpg
1368.131	0.694	1	0back	Block2	0back/STIM_019.jpg
1372.241	0.574	1	0back	Block2	0back/STIM_019.jpg
1375.849	0.752	1	2back	Block3	2back/STIM_000.jpg
1379.874	0.511	1	2back	Block3	2back/STIM_000.jpg
1383.663	1.007	1	2back	Block3	2back/STIM_000.jpg
1387.595	0.899	1	2back	Block3	2back/STIM_001.jpg
1391.226	0.844	1	2back	Block3	2back/STIM_001.jpg
1395.24	0.597	1	2back	Block3	2back/STIM_001.jpg
1398.568	0.855	1	2back	Block3	2back/STIM_002.jpg
1402.36	0.72	1	2back	Block3	2back/STIM_002.jpg
1405.088	0.761	1	2back	Block3	2back/STIM_002.jpg
1409.199	0.846	1	2back	Block3	2back/STIM_003.jpg
1413.986	0.479	1	2back	Block3	2back/STIM_003.jpg
1417.449	0.794	1	2back	Block3	2back/STIM_003.jpg
1420.723	0.68	1	2back	Block3	2back/STIM_004.jpg
1424.042	0.716	1	2back	Block3	2back/STIM_004.jpg
1426.766	0.524	1	2back	Block3	2back/STIM_004.jpg
1431.258	0.603	0	2back	Block3	2back/STIM_005.jpg
1435.296	0.92	1	2back	Block3	2back/STIM_005.jpg
1439.037	0.772	1	2back	Block3	2back/STIM_005.jpg
1443.054	0.983	1	2back	Block3	2back/STIM_006.jpg
1447.837	0.968	1	2back	Block3	2back/STIM_006.jpg
1451.988	0.96	1	2back	Block3	2back/STIM_006.jpg
1456.022	0.553	1	2back	Block3	2back/STIM_007.jpg
1459.58	0.627	1	2back	Block3	2back/STIM_007.jpg
1463.485	0.941	1	2back	Block3	2back/STIM_007.jpg
1467.647	1.003	1	2back	Block3	2back/STIM_008.jpg
1470.728	0.958	1	2back	Block3	2back/STIM_008.jpg
1474.02	0.727	1	2back	Block3	2back/STIM_008.jpg
1477.588	0.999	1	2back	Block3	2back/STIM_009.jpg
1481.127	0.626	1	2back	Block3	2back/STIM_009.jpg
1484.628	0.703	1	2back	Block3	2back/STIM_009.jpg
1487.578	0.811	1	2back	Block3	2back/STIM_010.jpg
1490.645	0.499	1	2back	Block3	2back/STIM_010.jpg
1493.814	0.758	1	2back	Block3	2back/STIM_010.jpg
1497.347	0.535	0	2back	Block3	2back/STIM_011.jpg
1500.822	0.668	1	2back	Block3	2back/STIM_011.jpg
1504.228	0.992	1	2back	Block3	2back/STIM_011.jpg
1507.221	0.647	1	2back	Block3	2back/STIM_012.jpg
1510.727	0.47	1	2back	Block3	2back/STIM_012.jpg
1514.795	0.739	0	2back	Block3	2back/STIM_012.jpg
1517.851	0.947	1	2back	Block3	2back/STIM_013.jpg
1520.856	0.729	1	2back	Block3	2back/STIM_013.jpg
1524.143	0.881	1	2back	Block3	2back/STIM_013.jpg
1527.268	0.814	1	2back	Block3	2back/STIM_014.jpg
1530.713	0.688	1	2back	Block3	2back/STIM_014.jpg
1533.681	0.839	1	2back	Block3	2back/STIM_014.jpg
1538.213	0.944	1	2back	Block3	2back/STIM_015.jpg
1541.932	0.984	1	2back	Block3	2back/STIM_015.jpg
1545.732	0.601	1	2back	Block3	2back/STIM_015.jpg
1549.979	0.826	1	2back	Block3	2back/STIM_016.jpg
1554.427	0.441	1	2back	Block3	2back/STIM_016.jpg
1558.209	0.77	1	2back	Block3	2back/STIM_016.jpg
1562.739	0.854	1	2back	Block3	2back/STIM_017.jpg
1565.993	0.647	1	2back	Block3	2back/STIM_017.jpg
1569.446	1.026	1	2back	Block3	2back/STIM_017.jpg
1573.24	0.625	1	2back	Block3	2back/STIM_018.jpg
1576.526	0.995	1	2back	Block3	2back/STIM_018.jpg
1580.035	0.746	1	2back	Block3	2back/STIM_018.jpg
1583.864	0.852	1	2back	Block3	2back/STIM_019.jpg
1587.035	0.447	1	2back	Block3	2back/STIM_019.jpg
1590.642	0.717	1	2back	Block3	2back/STIM_019.jpg
1593.926	0.725	1	2back	Block3	2back/STIM_020.jpg
1597.306	0.476	1	2back	Block3	2back/STIM_020.jpg
1601.555	0.604	1	2back	Block3	2back/STIM_020.jpg
1604.296	0.984	1	2back	Block3	2back/STIM_021.jpg
1607.89	0.828	1	2back	Block3	2back/STIM_021.jpg
1612.537	0.46	1	2back	Block3	2back/STIM_021.jpg
1615.914	0.942	1	2back	Block3	2back/STIM_022.jpg
1618.868	1.013	1	2back	Block3	2back/STIM_022.jpg
1623.093	0.813	1	2back	Block3	2back/STIM_022.jpg
1626.17	0.46	1	2back	Block3	2back/STIM_023.jpg
1628.792	0.704	1	2back	Block3	2back/STIM_023.jpg
1633.035	1.026	1	2back	Block3	2back/STIM_023.jpg
1636.813	0.76	1	2back	Block3	2back/STIM_024.jpg
1639.745	0.852	1	2back	Block3	2back/STIM_024.jpg
1644.26	0.486	1	2back	Block3	2back/STIM_024.jpg
1648.619	0.517	1	2back	Block3	2back/STIM_025.jpg
1651.716	0.763	1	2back	Block3	2back/STIM_025.jpg
1655.13	0.932	1	2back	Block3	2back/STIM_025.jpg
1658.162	0.619	1	2back	Block3	2back/STIM_026.jpg
1661.954	0.83	1	2back	Block3	2back/STIM_026.jpg
1666.558	0.861	1	2back	Block3	2back/STIM_026.jpg
1670.17	0.833	1	2back	Block3	2back/STIM_027.jpg
1673.188	0.73	1	2back	Block3	2back/STIM_027.jpg
1676.307	0.9	1	2back	Block3	2back/STIM_027.jpg
1680.554	0.636	1	2back	Block3	2back/STIM_028.jpg
1684.827	1.009	1	2back	Block3	2back/STIM_028.jpg
1687.963	1.021	1	2back	Block3	2back/STIM_028.jpg
1692.918	0.763	1	2back	Block3	2back/STIM_029.jpg
1696.958	0.98	1	2back	Block3	2back/STIM_029.jpg
1701.318	0.574	1	2back	Block3	2back/STIM_029.jpg
1705.832	0.784	1	2back	Block3	2back/STIM_030.jpg
1710.544	0.962	1	2back	Block3	2back/STIM_030.jpg
1714.699	0.57	1	2back	Block3	2back/STIM_030.jpg
1717.878	0.681	1	2back	Block3	2back/STIM_031.jpg
1720.989	0.911	1	2back	Block3	2back/STIM_031.jpg
1725.109	0.495	1	2back	Block3	2back/STIM_031.jpg
1729.165	0.77	1	2back	Block3	2back/STIM_032.jpg
1733.016	0.462	1	2back	Block3	2back/STIM_032.jpg
1737.444	0.965	1	2back	Block3	2back/STIM_032.jpg
1741.434	1.026	1	2back	Block3	2back/STIM_033.jpg
1744.603	0.732	1	2back	Block3	2back/STIM_033.jpg
1749.057	0.476	1	2back	Block3	2back/STIM_033.jpg
1752.857	0.486	1	2back	Block3	2back/STIM_034.jpg
1756.719	0.94	1	2back	Block3	2back/STIM_034.jpg
1761.54	0.723	1	2back	Block3	2back/STIM_034.jpg
1766.021	0.651	1	2back	Block3	2back/STIM_035.jpg
1770.065	0.566	1	2back	Block3	2back/STIM_035.jpg
1774.577	0.991	1	2back	Block3	2back/STIM_035.jpg
1777.777	0.513	1	2back	Block3	2back/STIM_036.jpg
1782.032	1.006	1	2back	Block3	2back/STIM_036.jpg
1785.671	0.943	1	2back	Block3	2back/STIM_036.jpg
1789.362	0.623	1	2back	Block3	2back/STIM_037.jpg
1792.966	0.466	1	2back	Block3	2back/STIM_037.jpg
1795.763	0.832	1	2back	Block3	2back/STIM_037.jpg
1800.298	0.497	1	2back	Block3	2back/STIM_038.jpg
1803.353	0.984	1	2back	Block3	2back/STIM_038.jpg
1806.811	0.603	1	2back	Block3	2back/STIM_038.jpg
1810.151	0.852	1	2back	Block3	2back/STIM_039.jpg
1813.201	0.624	1	2back	Block3	2back/STIM_039.jpg
1817.617	0.84	1	2back	Block3	2back/STIM_039.jpg
1821.964	0.628	1	0back	Block3	0back/STIM_000.jpg
1825.585	0.651	1	0back	Block3	0back/STIM_000.jpg
1829.044	0.758	1	0back	Block3	0back/STIM_000.jpg
1833.357	0.615	1	0back	Block3	0back/STIM_001.jpg
1836.038	0.556	0	0back	Block3	0back/STIM_001.jpg
1840.164	0.539	1	0back	Block3	0back/STIM_001.jpg
1843.979	0.708	1	0back	Block3	0back/STIM_002.jpg
1848.612	0.6	1	0back	Block3	0back/STIM_002.jpg
1851.333	0.423	1	0back	Block3	0back/STIM_002.jpg
1855.094	0.628	1	0back	Block3	0back/STIM_003.jpg
1858.704	0.836	1	0back	Block3	0back/STIM_003.jpg
1862.309	0.454	1	0back	Block3	0back/STIM_003.jpg
1865.375	0.725	1	0back	Block3	0back/STIM_004.jpg
1869.206	0.713	1	0back	Block3	0back/STIM_004.jpg
1872.254	0.556	1	0back	Block3	0back/STIM_004.jpg
1876.074	0.527	0	0back	Block3	0back/STIM_005.jpg
1878.819	0.691	1	0back	Block3	0back/STIM_005.jpg
1882.04	0.537	1	0back	Block3	0back/STIM_005.jpg
1884.691	0.612	1	0back	Block3	0back/STIM_006.jpg
1888.426	0.751	1	0back	Block3	0back/STIM_006.jpg
1892.857	0.578	1	0back	Block3	0back/STIM_006.jpg
1896.218	0.618	1	0back	Block3	0back/STIM_007.jpg
1899.496	0.578	1	0back	Block3	0back/STIM_007.jpg
1903.356	0.478	1	0back	Block3	0back/STIM_007.jpg
1906.3	0.638	1	0back	Block3	0back/STIM_008.jpg
1910.035	0.5	1	0back	Block3	0back/STIM_008.jpg
1913.473	0.461	1	0back	Block3	0back/STIM_008.jpg
1916.417	0.552	1	0back	Block3	0back/STIM_009.jpg
1920.062	0.526	1	0back	Block3	0back/STIM_009.jpg
1922.933	0.603	1	0back	Block3	0back/STIM_009.jpg
1926.901	0.503	1	0back	Block3	0back/STIM_010.jpg
1930.011	0.621	1	0back	Block3	0back/STIM_010.jpg
1934.215	0.725	1	0back	Block3	0back/STIM_010.jpg
1937.828	0.596	1	0back	Block3	0back/STIM_011.jpg
1942.27	0.726	1	0back	Block3	0back/STIM_011.jpg
1946.652	0.509	1	0back	Block3	0back/STIM_011.jpg
1950.668	0.792	1	0back	Block3	0back/STIM_012.jpg
1954.74	0.545	1	0back	Block3	0back/STIM_012.jpg
1958.089	0.506	1	0back	Block3	0back/STIM_012.jpg
1960.944	0.681	1	0back	Block3	0back/STIM_013.jpg
1965.145	0.566	1	0back	Block3	0back/STIM_013.jpg
1969.004	0.694	1	0back	Block3	0back/STIM_013.jpg
1972.747	0.482	1	0back	Block3	0back/STIM_014.jpg
1975.683	0.821	1	0back	Block3	0back/STIM_014.jpg
1979.103	0.676	1	0back	Block3	0back/STIM_014.jpg
1982.401	0.691	1	0back	Block3	0back/STIM_015.jpg
1985.096	0.695	1	0back	Block3	0back/STIM_015.jpg
1989.436	0.672	1	0back	Block3	0back/STIM_015.jpg
1992.86	0.654	1	0back	Block3	0back/STIM_016.jpg
1996.468	0.799	1	0back	Block3	0back/STIM_016.jpg
1999.944	0.546	1	0back	Block3	0back/STIM_016.jpg
2002.61	0.525	1	0back	Block3	0back/STIM_017.jpg
2005.33	0.495	0	0back	Block3	0back/STIM_017.jpg
2009.141	0.588	1	0back	Block3	0back/STIM_017.jpg
2012.269	0.512	1	0back	Block3	0back/STIM_018.jpg
2015.969	0.731	1	0back	Block3	0back/STIM_018.jpg
2019.278	0.549	1	0back	Block3	0back/STIM_018.jpg
2023.722	0.491	1	0back	Block3	0back/STIM_019.jpg
2027.624	0.694	1	0back	Block3	0back/STIM_019.jpg
2030.904	0.722	1	0back	Block3	0back/STIM_019.jpg
2035.256	0.445	1	2back	Block4	2back/STIM_000.jpg
2038.042	0.959	1	2back	Block4	2back/STIM_000.jpg
2041.202	0.893	1	2back	Block4	2back/STIM_000.jpg
2044.315	0.602	1	2back	Block4	2back/STIM_001.jpg
2047.656	0.743	1	2back	Block4	2back/STIM_001.jpg
2051.765	0.983	1	2back	Block4	2back/STIM_001.jpg
2056.407	0.928	1	2back	Block4	2back/STIM_002.jpg
2061.15	0.448	1	2back	Block4	2back/STIM_002.jpg
2065.21	0.706	1	2back	Block4	2back/STIM_002.jpg
2069.398	0.897	1	2back	Block4	2back/STIM_003.jpg
2073.214	0.594	1	2back	Block4	2back/STIM_003.jpg
2076.699	0.618	1	2back	Block4	2back/STIM_003.jpg
2079.636	0.474	1	2back	Block4	2back/STIM_004.jpg
2083.022	0.855	1	2back	Block4	2back/STIM_004.jpg
2087.284	0.655	1	2back	Block4	2back/STIM_004.jpg
2090.608	0.702	1	2back	Block4	2back/STIM_005.jpg
2094.556	0.904	1	2back	Block4	2back/STIM_005.jpg
2098.592	0.896	1	2back	Block4	2back/STIM_005.jpg
2102.077	0.723	1	2back	Block4	2back/STIM_006.jpg
2105.822	0.876	0	2back	Block4	2back/STIM_006.jpg
2109.369	0.991	1	2back	Block4	2back/STIM_006.jpg
2112.667	0.538	1	2back	Block4	2back/STIM_007.jpg
2115.366	1.019	1	2back	Block4	2back/STIM_007.jpg
2120.27	0.712	1	2back	Block4	2back/STIM_007.jpg
2123.369	0.828	1	2back	Block4	2back/STIM_008.jpg
2127.358	0.708	1	2back	Block4	2back/STIM_008.jpg
2131.736	0.619	1	2back	Block4	2back/STIM_008.jpg
2135.604	0.552	1	2back	Block4	2back/STIM_009.jpg
2139.192	0.901	1	2back	Block4	2back/STIM_009.jpg
2144.006	0.846	1	2back	Block4	2back/STIM_009.jpg
2148.662	0.826	1	2back	Block4	2back/STIM_010.jpg
2153.073	0.695	1	2back	Block4	2back/STIM_010.jpg
2157.29	0.744	1	2back	Block4	2back/STIM_010.jpg
2160.349	0.817	1	2back	Block4	2back/STIM_011.jpg
2163.554	0.739	1	2back	Block4	2back/STIM_011.jpg
2166.867	0.531	1	2back	Block4	2back/STIM_011.jpg
2171.223	0.842	1	2back	Block4	2back/STIM_012.jpg
2174.577	0.979	1	2back	Block4	2back/STIM_012.jpg
2178.894	0.718	1	2back	Block4	2back/STIM_012.jpg
2182.936	0.508	1	2back	Block4	2back/STIM_013.jpg
2185.535	0.631	1	2back	Block4	2back/STIM_013.jpg
2189.277	0.977	1	2back	Block4	2back/STIM_013.jpg
2192.312	0.504	1	2back	Block4	2back/STIM_014.jpg
2196.462	1.001	1	2back	Block4	2back/STIM_014.jpg
2199.949	0.461	1	2back	Block4	2back/STIM_014.jpg
2204.266	0.922	1	2back	Block4	2back/STIM_015.jpg
2208.759	0.626	1	2back	Block4	2back/STIM_015.jpg
2211.476	1.026	1	2back	Block4	2back/STIM_015.jpg
2215.145	0.468	1	2back	Block4	2back/STIM_016.jpg
2218.706	0.523	1	2back	Block4	2back/STIM_016.jpg
2222.275	0.881	1	2back	Block4	2back/STIM_016.jpg
2226.531	0.819	1	2back	Block4	2back/STIM_017.jpg
2229.689	0.718	1	2back	Block4	2back/STIM_017.jpg
2232.731	0.794	1	2back	Block4	2back/STIM_017.jpg
2236.826	1.018	1	2back	Block4	2back/STIM_018.jpg
2240.563	0.517	1	2back	Block4	2back/STIM_018.jpg
2245.014	1.012	1	2back	Block4	2back/STIM_018.jpg
2248.799	0.504	1	2back	Block4	2back/STIM_019.jpg
2252.895	0.659	1	2back	Block4	2back/STIM_019.jpg
2256.049	0.559	1	2back	Block4	2back/STIM_019.jpg
2258.583	0.891	1	2back	Block4	2back/STIM_020.jpg
2261.496	0.53	1	2back	Block4	2back/STIM_020.jpg
2264.538	1.016	1	2back	Block4	2back/STIM_020.jpg
2267.804	0.636	1	2back	Block4	2back/STIM_021.jpg
2270.42	0.749	1	2back	Block4	2back/STIM_021.jpg
2274.612	0.863	1	2back	Block4	2back/STIM_021.jpg
2278.308	0.503	1	2back	Block4	2back/STIM_022.jpg
2281.453	0.978	1	2back	Block4	2back/STIM_022.jpg
2285.918	0.51	1	2back	Block4	2back/STIM_022.jpg
2289.244	0.477	1	2back	Block4	2back/STIM_023.jpg
2292.298	0.817	1	2back	Block4	2back/STIM_023.jpg
2295.231	0.931	1	2back	Block4	2back/STIM_023.jpg
2299.816	0.891	1	2back	Block4	2back/STIM_024.jpg
2303.126	0.81	1	2back	Block4	2back/STIM_024.jpg
2307.887	0.716	1	2back	Block4	2back/STIM_024.jpg
2310.778	0.75	1	2back	Block4	2back/STIM_025.jpg
2315.236	0.907	1	2back	Block4	2back/STIM_025.jpg
2319.951	1.009	1	2back	Block4	2back/STIM_025.jpg
2324.372	0.502	1	2back	Block4	2back/STIM_026.jpg
2328.297	0.45	1	2back	Block4	2back/STIM_026.jpg
2331.142	1.026	1	2back	Block4	2back/STIM_026.jpg
2334.73	0.52	1	2back	Block4	2back/STIM_027.jpg
2338.463	0.799	1	2back	Block4	2back/STIM_027.jpg
2342.684	1.005	1	2back	Block4	2back/STIM_027.jpg
2346.23	0.458	1	2back	Block4	2back/STIM_028.jpg
2350.476	0.688	1	2back	Block4	2back/STIM_028.jpg
2354.064	0.574	1	2back	Block4	2back/STIM_028.jpg
2357.907	0.459	1	2back	Block4	2back/STIM_029.jpg
2360.526	0.642	1	2back	Block4	2back/STIM_029.jpg
2363.165	0.728	1	2back	Block4	2back/STIM_029.jpg
2367.369	0.444	1	2back	Block4	2back/STIM_030.jpg
2371.635	0.816	1	2back	Block4	2back/STIM_030.jpg
2375.217	0.805	1	2back	Block4	2back/STIM_030.jpg
2379.731	0.919	1	2back	Block4	2back/STIM_031.jpg
2382.727	0.897	1	2back	Block4	2back/STIM_031.jpg
2387.411	0.88	1	2back	Block4	2back/STIM_031.jpg
2390.664	0.49	1	2back	Block4	2back/STIM_032.jpg
2393.568	0.655	1	2back	Block4	2back/STIM_032.jpg
2397.793	0.503	1	2back	Block4	2back/STIM_032.jpg
2401.898	0.94	1	2back	Block4	2back/STIM_033.jpg
2405.269	0.442	1	2back	Block4	2back/STIM_033.jpg
2408.824	0.504	1	2back	Block4	2back/STIM_033.jpg
2412.633	0.79	1	2back	Block4	2back/STIM_034.jpg
2416.552	0.665	1	2back	Block4	2back/STIM_034.jpg
2420.767	0.71	1	2back	Block4	2back/STIM_034.jpg
2423.689	0.91	1	2back	Block4	2back/STIM_035.jpg
2427.703	0.853	1	2back	Block4	2back/STIM_035.jpg
2432.292	0.444	1	2back	Block4	2back/STIM_035.jpg
2436.44	0.941	1	2back	Block4	2back/STIM_036.jpg
2440.379	0.975	1	2back	Block4	2back/STIM_036.jpg
2445.237	0.639	1	2back	Block4	2back/STIM_036.jpg
2448.42	1.002	1	2back	Block4	2back/STIM_037.jpg
2451.598	0.467	1	2back	Block4	2back/STIM_037.jpg
2455.89	0.945	1	2back	Block4	2back/STIM_037.jpg
2460.328	0.466	1	2back	Block4	2back/STIM_038.jpg
2463.793	0.659	1	2back	Block4	2back/STIM_038.jpg
2466.762	0.866	1	2back	Block4	2back/STIM_038.jpg
2471.171	1.003	1	2back	Block4	2back/STIM_039.jpg
2475.132	0.8	1	2back	Block4	2back/STIM_039.jpg
2479.125	1.006	1	2back	Block4	2back/STIM_039.jpg
2483.224	0.834	1	0back	Block4	0back/STIM_000.jpg
2487.785	0.421	0	0back	Block4	0back/STIM_000.jpg
2491.732	0.642	1	0back	Block4	0back/STIM_000.jpg
2494.399	0.639	1	0back	Block4	0back/STIM_001.jpg
2498.182	0.647	1	0back	Block4	0back/STIM_001.jpg
2501.633	0.421	1	0back	Block4	0back/STIM_001.jpg
2505.566	0.6	1	0back	Block4	0back/STIM_002.jpg
2508.849	0.778	1	0back	Block4	0back/STIM_002.jpg
2512.538	0.65	1	0back	Block4	0back/STIM_002.jpg
2516.075	0.518	1	0back	Block4	0back/STIM_003.jpg
2520.04	0.642	1	0back	Block4	0back/STIM_003.jpg
2524.334	0.73	1	0back	Block4	0back/STIM_003.jpg
2527.093	0.743	1	0back	Block4	0back/STIM_004.jpg
2531.668	0.556	1	0back	Block4	0back/STIM_004.jpg
2536.113	0.618	1	0back	Block4	0back/STIM_004.jpg
2540.374	0.513	1	0back	Block4	0back/STIM_005.jpg
2543.145	0.606	1	0back	Block4	0back/STIM_005.jpg
2547.354	0.787	1	0back	Block4	0back/STIM_005.jpg
2550.924	0.82	1	0back	Block4	0back/STIM_006.jpg
2555.625	0.799	1	0back	Block4	0back/STIM_006.jpg
2559.786	0.523	1	0back	Block4	0back/STIM_006.jpg
2564.133	0.772	1	0back	Block4	0back/STIM_007.jpg
2567.425	0.577	1	0back	Block4	0back/STIM_007.jpg
2571.906	0.809	1	0back	Block4	0back/STIM_007.jpg
2576.041	0.721	1	0back	Block4	0back/STIM_008.jpg
2578.759	0.513	1	0back	Block4	0back/STIM_008.jpg
2581.413	0.488	0	0back	Block4	0back/STIM_008.jpg
2585.336	0.523	1	0back	Block4	0back/STIM_009.jpg
2588.394	0.559	1	0back	Block4	0back/STIM_009.jpg
2591.815	0.45	1	0back	Block4	0back/STIM_009.jpg
2594.274	0.466	1	0back	Block4	0back/STIM_010.jpg
2598.38	0.678	1	0back	Block4	0back/STIM_010.jpg
2601.248	0.446	0	0back	Block4	0back/STIM_010.jpg
2603.714	0.497	1	0back	Block4	0back/STIM_011.jpg
2606.921	0.526	1	0back	Block4	0back/STIM_011.jpg
2610.756	0.59	1	0back	Block4	0back/STIM_011.jpg
2614.96	0.664	1	0back	Block4	0back/STIM_012.jpg
2617.936	0.808	1	0back	Block4	0back/STIM_012.jpg
2621.501	0.521	1	0back	Block4	0back/STIM_012.jpg
2624.228	0.67	1	0back	Block4	0back/STIM_013.jpg
2627.051	0.656	1	0back	Block4	0back/STIM_013.jpg
2630.696	0.783	1	0back	Block4	0back/STIM_013.jpg
2635.043	0.484	1	0back	Block4	0back/STIM_014.jpg
2639.035	0.521	1	0back	Block4	0back/STIM_014.jpg
2642.818	0.689	1	0back	Block4	0back/STIM_014.jpg
2645.927	0.683	1	0back	Block4	0back/STIM_015.jpg
2649.213	0.506	1	0back	Block4	0back/STIM_015.jpg
2652.539	0.633	1	0back	Block4	0back/STIM_015.jpg
2657.08	0.779	1	0back	Block4	0back/STIM_016.jpg
2660.068	0.497	1	0back	Block4	0back/STIM_016.jpg
2664.285	0.682	1	0back	Block4	0back/STIM_016.jpg
2667.2	0.709	1	0back	Block4	0back/STIM_017.jpg
2670.608	0.709	1	0back	Block4	0back/STIM_017.jpg
2673.756	0.713	1	0back	Block4	0back/STIM_017.jpg
2677.588	0.678	1	0back	Block4	0back/STIM_018.jpg
2682.055	0.656	1	0back	Block4	0back/STIM_018.jpg
2684.752	0.491	1	0back	Block4	0back/STIM_018.jpg
2688.683	0.431	1	0back	Block4	0back/STIM_019.jpg
2691.186	0.62	1	0back	Block4	0back/STIM_019.jpg
2694.247	0.616	1	0back	Block4	0back/STIM_019.jpg
