onset	duration	accuracy_binary	trial_type	learning_stage	stimulus
0.0	1.363	1	incongruent	Block1	incongruent/STIM_000.jpg
5.342	0.876	1	incongruent	Block1	incongruent/STIM_000.jpg
9.599	1.668	1	incongruent	Block1	incongruent/STIM_000.jpg
15.058	1.438	1	incongruent	Block1	incongruent/STIM_000.jpg
18.545	1.298	1	incongruent	Block1	incongruent/STIM_000.jpg
23.818	1.224	1	incongruent	Block1	incongruent/STIM_001.jpg
27.096	1.679	1	incongruent	Block1	incongruent/STIM_001.jpg
30.83	1.299	0	incongruent	Block1	incongruent/STIM_001.jpg
35.223	0.989	1	incongruent	Block1	incongruent/STIM_001.jpg
39.771	0.921	1	incongruent	Block1	incongruent/STIM_001.jpg
44.293	1.854	1	incongruent	Block1	incongruent/STIM_002.jpg
48.416	1.37	1	incongruent	Block1	incongruent/STIM_002.jpg
52.474	1.231	1	incongruent	Block1	incongruent/STIM_002.jpg
57.027	0.768	1	incongruent	Block1	incongruent/STIM_002.jpg
60.983	0.7	1	incongruent	Block1	incongruent/STIM_002.jpg
64.803	0.87	1	incongruent	Block1	incongruent/STIM_003.jpg
69.023	1.394	0	incongruent	Block1	incongruent/STIM_003.jpg
72.826	1.262	1	incongruent	Block1	incongruent/STIM_003.jpg
76.177	1.187	1	incongruent	Block1	incongruent/STIM_003.jpg
79.389	0.782	1	incongruent	Block1	incongruent/STIM_003.jpg
84.081	1.091	1	incongruent	Block1	incongruent/STIM_004.jpg
88.458	1.628	1	incongruent	Block1	incongruent/STIM_004.jpg
92.753	1.574	0	incongruent	Block1	incongruent/STIM_004.jpg
97.663	0.978	1	incongruent	Block1	incongruent/STIM_004.jpg
101.352	1.352	1	incongruent	Block1	incongruent/STIM_004.jpg
104.769	1.575	0	incongruent	Block1	incongruent/STIM_005.jpg
109.895	1.736	1	incongruent	Block1	incongruent/STIM_005.jpg
114.917	1.058	0	incongruent	Block1	incongruent/STIM_005.jpg
119.818	0.805	1	incongruent	Block1	incongruent/STIM_005.jpg
123.913	1.251	1	incongruent	Block1	incongruent/STIM_005.jpg
127.194	1.528	1	incongruent	Block1	incongruent/STIM_006.jpg
131.462	1.165	1	incongruent	Block1	incongruent/STIM_006.jpg
135.23	1.664	1	incongruent	Block1	incongruent/STIM_006.jpg
140.535	1.495	1	incongruent	Block1	incongruent/STIM_006.jpg
145.224	1.306	0	incongruent	Block1	incongruent/STIM_006.jpg
149.577	1.056	0	incongruent	Block1	incongruent/STIM_007.jpg
154.587	1.344	1	incongruent	Block1	incongruent/STIM_007.jpg
159.499	1.317	1	incongruent	Block1	incongruent/STIM_007.jpg
163.556	1.357	1	incongruent	Block1	incongruent/STIM_007.jpg
168.16	0.99	1	incongruent	Block1	incongruent/STIM_007.jpg
171.167	1.049	1	incongruent	Block1	incongruent/STIM_008.jpg
174.999	1.628	1	incongruent	Block1	incongruent/STIM_008.jpg
180.251	1.637	1	incongruent	Block1	incongruent/STIM_008.jpg
185.348	1.106	1	incongruent	Block1	incongruent/STIM_008.jpg
189.596	1.291	1	incongruent	Block1	incongruent/STIM_008.jpg
194.617	1.694	0	incongruent	Block1	incongruent/STIM_009.jpg
199.314	1.513	1	incongruent	Block1	incongruent/STIM_009.jpg
203.069	1.058	1	incongruent	Block1	incongruent/STIM_009.jpg
207.711	1.436	0	incongruent	Block1	incongruent/STIM_009.jpg
212.837	1.248	1	incongruent	Block1	incongruent/STIM_009.jpg
216.126	1.839	0	incongruent	Block1	incongruent/STIM_010.jpg
220.754	1.716	0	incongruent	Block1	incongruent/STIM_010.jpg
225.837	0.903	1	incongruent	Block1	incongruent/STIM_010.jpg
229.009	0.916	0	incongruent	Block1	incongruent/STIM_010.jpg
232.025	0.724	1	incongruent	Block1	incongruent/STIM_010.jpg
236.214	1.351	0	incongruent	Block1	incongruent/STIM_011.jpg
240.889	1.54	1	incongruent	Block1	incongruent/STIM_011.jpg
246.053	1.626	1	incongruent	Block1	incongruent/STIM_011.jpg
250.715	0.905	1	incongruent	Block1	incongruent/STIM_011.jpg
254.526	0.764	1	incongruent	Block1	incongruent/STIM_011.jpg
258.597	1.003	1	incongruent	Block1	incongruent/STIM_012.jpg
263.371	1.531	0	incongruent	Block1	incongruent/STIM_012.jpg
268.241	1.035	0	incongruent	Block1	incongruent/STIM_012.jpg
272.745	1.204	1	incongruent	Block1	incongruent/STIM_012.jpg
277.806	0.987	1	incongruent	Block1	incongruent/STIM_012.jpg
282.569	1.096	1	incongruent	Block1	incongruent/STIM_013.jpg
287.611	0.86	0	incongruent	Block1	incongruent/STIM_013.jpg
291.262	0.802	0	incongruent	Block1	incongruent/STIM_013.jpg
295.434	0.807	1	incongruent	Block1	incongruent/STIM_013.jpg
298.704	0.93	0	incongruent	Block1	incongruent/STIM_013.jpg
303.351	1.647	1	incongruent	Block1	incongruent/STIM_014.jpg
308.189	1.232	1	incongruent	Block1	incongruent/STIM_014.jpg
313.072	1.2	1	incongruent	Block1	incongruent/STIM_014.jpg
317.002	1.147	1	incongruent	Block1	incongruent/STIM_014.jpg
321.084	0.774	1	incongruent	Block1	incongruent/STIM_014.jpg
325.289	1.0	1	incongruent	Block1	incongruent/STIM_015.jpg
329.568	1.058	1	incongruent	Block1	incongruent/STIM_015.jpg
334.318	1.263	1	incongruent	Block1	incongruent/STIM_015.jpg
338.982	0.832	1	incongruent	Block1	incongruent/STIM_015.jpg
343.082	1.315	0	incongruent	Block1	incongruent/STIM_015.jpg
347.585	1.296	1	incongruent	Block1	incongruent/STIM_016.jpg
351.905	1.39	0	incongruent	Block1	incongruent/STIM_016.jpg
355.578	1.502	1	incongruent	Block1	incongruent/STIM_016.jpg
359.29	0.798	1	incongruent	Block1	incongruent/STIM_016.jpg
362.197	0.934	1	incongruent	Block1	incongruent/STIM_016.jpg
365.71	1.483	1	incongruent	Block1	incongruent/STIM_017.jpg
369.592	1.571	1	incongruent	Block1	incongruent/STIM_017.jpg
373.998	1.397	0	incongruent	Block1	incongruent/STIM_017.jpg
377.451	1.182	1	incongruent	Block1	incongruent/STIM_017.jpg
382.1	1.303	1	incongruent	Block1	incongruent/STIM_017.jpg
386.728	1.509	1	incongruent	Block1	incongruent/STIM_018.jpg
391.402	1.486	1	incongruent	Block1	incongruent/STIM_018.jpg
396.212	1.507	1	incongruent	Block1	incongruent/STIM_018.jpg
400.518	1.114	0	incongruent	Block1	incongruent/STIM_018.jpg
404.708	0.947	1	incongruent	Block1	incongruent/STIM_018.jpg
407.878	1.465	0	incongruent	Block1	incongruent/STIM_019.jpg
411.842	0.977	1	incongruent	Block1	incongruent/STIM_019.jpg
414.936	0.953	1	incongruent	Block1	incongruent/STIM_019.jpg
418.541	0.8	0	incongruent	Block1	incongruent/STIM_019.jpg
421.842	1.429	0	incongruent	Block1	incongruent/STIM_019.jpg
425.596	1.156	1	incongruent	Block1	incongruent/STIM_020.jpg
429.858	1.624	1	incongruent	Block1	incongruent/STIM_020.jpg
434.696	1.022	1	incongruent	Block1	incongruent/STIM_020.jpg
439.091	0.755	1	incongruent	Block1	incongruent/STIM_020.jpg
443.833	1.45	1	incongruent	Block1	incongruent/STIM_020.jpg
449.06	1.265	0	incongruent	Block1	incongruent/STIM_021.jpg
453.151	1.52	1	incongruent	Block1	incongruent/STIM_021.jpg
458.421	1.492	1	incongruent	Block1	incongruent/STIM_021.jpg
462.106	1.181	1	incongruent	Block1	incongruent/STIM_021.jpg
466.046	0.757	1	incongruent	Block1	incongruent/STIM_021.jpg
470.3	1.668	1	incongruent	Block1	incongruent/STIM_022.jpg
474.505	1.554	1	incongruent	Block1	incongruent/STIM_022.jpg
478.169	0.941	1	incongruent	Block1	incongruent/STIM_022.jpg
482.062	0.882	0	incongruent	Block1	incongruent/STIM_022.jpg
485.624	1.172	0	incongruent	Block1	incongruent/STIM_022.jpg
490.703	1.266	1	incongruent	Block1	incongruent/STIM_023.jpg
494.968	1.567	0	incongruent	Block1	incongruent/STIM_023.jpg
499.151	1.268	1	incongruent	Block1	incongruent/STIM_023.jpg
503.395	1.044	1	incongruent	Block1	incongruent/STIM_023.jpg
506.793	0.734	1	incongruent	Block1	incongruent/STIM_023.jpg
510.952	1.316	1	incongruent	Block1	incongruent/STIM_024.jpg
515.784	0.928	1	incongruent	Block1	incongruent/STIM_024.jpg
519.254	1.618	1	incongruent	Block1	incongruent/STIM_024.jpg
524.223	1.489	0	incongruent	Block1	incongruent/STIM_024.jpg
528.259	1.059	1	incongruent	Block1	incongruent/STIM_024.jpg
533.277	1.533	1	incongruent	Block1	incongruent/STIM_025.jpg
538.539	1.492	1	incongruent	Block1	incongruent/STIM_025.jpg
543.742	1.247	1	incongruent	Block1	incongruent/STIM_025.jpg
548.613	0.742	1	incongruent	Block1	incongruent/STIM_025.jpg
552.129	0.776	1	incongruent	Block1	incongruent/STIM_025.jpg
556.324	1.828	0	incongruent	Block1	incongruent/STIM_026.jpg
560.364	1.726	1	incongruent	Block1	incongruent/STIM_026.jpg
565.484	1.075	1	incongruent	Block1	incongruent/STIM_026.jpg
570.29	1.104	0	incongruent	Block1	incongruent/STIM_026.jpg
573.524	1.312	1	incongruent	Block1	incongruent/STIM_026.jpg
578.791	1.418	1	incongruent	Block1	incongruent/STIM_027.jpg
583.995	1.535	1	incongruent	Block1	incongruent/STIM_027.jpg
588.957	1.199	0	incongruent	Block1	incongruent/STIM_027.jpg
593.768	1.005	1	incongruent	Block1	incongruent/STIM_027.jpg
598.682	1.122	1	incongruent	Block1	incongruent/STIM_027.jpg
603.746	1.183	1	incongruent	Block1	incongruent/STIM_028.jpg
608.108	0.846	0	incongruent	Block1	incongruent/STIM_028.jpg
611.66	1.468	0	incongruent	Block1	incongruent/STIM_028.jpg
616.204	1.467	1	incongruent	Block1	incongruent/STIM_028.jpg
620.506	1.022	1	incongruent	Block1	incongruent/STIM_028.jpg
623.829	1.279	1	incongruent	Block1	incongruent/STIM_029.jpg
628.61	1.378	1	incongruent	Block1	incongruent/STIM_029.jpg
633.646	1.361	1	incongruent	Block1	incongruent/STIM_029.jpg
638.493	1.349	1	incongruent	Block1	incongruent/STIM_029.jpg
642.188	0.848	1	incongruent	Block1	incongruent/STIM_029.jpg
645.094	1.052	1	congruent	Block1	congruent/STIM_000.jpg
648.166	0.747	1	congruent	Block1	congruent/STIM_000.jpg
651.213	1.04	1	congruent	Block1	congruent/STIM_000.jpg
655.657	1.103	0	congruent	Block1	congruent/STIM_000.jpg
659.093	0.74	1	congruent	Block1	congruent/STIM_000.jpg
662.839	0.771	1	congruent	Block1	congruent/STIM_001.jpg
667.383	1.072	1	congruent	Block1	congruent/STIM_001.jpg
671.472	0.85	0	congruent	Block1	congruent/STIM_001.jpg
674.715	1.04	0	congruent	Block1	congruent/STIM_001.jpg
679.717	0.897	1	congruent	Block1	congruent/STIM_001.jpg
684.602	0.773	1	congruent	Block1	congruent/STIM_002.jpg
689.314	0.817	1	congruent	Block1	congruent/STIM_002.jpg
693.784	1.065	1	congruent	Block1	congruent/STIM_002.jpg
698.112	0.815	1	congruent	Block1	congruent/STIM_002.jpg
701.659	1.07	1	congruent	Block1	congruent/STIM_002.jpg
705.012	0.716	1	congruent	Block1	congruent/STIM_003.jpg
708.44	0.698	1	congruent	Block1	congruent/STIM_003.jpg
712.506	0.938	1	congruent	Block1	congruent/STIM_003.jpg
716.147	0.661	1	congruent	Block1	congruent/STIM_003.jpg
719.286	0.839	1	congruent	Block1	congruent/STIM_003.jpg
723.69	1.042	1	congruent	Block1	congruent/STIM_004.jpg
727.306	0.81	1	congruent	Block1	congruent/STIM_004.jpg
731.073	0.664	1	congruent	Block1	congruent/STIM_004.jpg
734.121	0.89	0	congruent	Block1	congruent/STIM_004.jpg
737.444	0.661	0	congruent	Block1	congruent/STIM_004.jpg
741.37	0.63	1	congruent	Block1	congruent/STIM_005.jpg
744.425	0.688	1	congruent	Block1	congruent/STIM_005.jpg
747.428	0.696	1	congruent	Block1	congruent/STIM_005.jpg
751.354	0.717	1	congruent	Block1	congruent/STIM_005.jpg
754.321	1.075	1	congruent	Block1	congruent/STIM_005.jpg
757.667	0.702	1	congruent	Block1	congruent/STIM_006.jpg
761.018	0.744	1	congruent	Block1	congruent/STIM_006.jpg
764.769	0.94	1	congruent	Block1	congruent/STIM_006.jpg
768.425	0.65	1	congruent	Block1	congruent/STIM_006.jpg
773.055	1.072	0	congruent	Block1	congruent/STIM_006.jpg
776.275	0.83	0	congruent	Block1	congruent/STIM_007.jpg
780.333	1.083	0	congruent	Block1	congruent/STIM_007.jpg
785.357	0.834	1	congruent	Block1	congruent/STIM_007.jpg
789.165	1.061	1	congruent	Block1	congruent/STIM_007.jpg
793.735	1.09	0	congruent	Block1	congruent/STIM_007.jpg
797.546	0.676	0	congruent	Block1	congruent/STIM_008.jpg
800.623	0.711	1	congruent	Block1	congruent/STIM_008.jpg
805.311	0.826	1	congruent	Block1	congruent/STIM_008.jpg
809.858	0.842	1	congruent	Block1	congruent/STIM_008.jpg
812.802	0.788	1	congruent	Block1	congruent/STIM_008.jpg
816.002	0.66	1	congruent	Block1	congruent/STIM_009.jpg
819.737	0.884	1	congruent	Block1	congruent/STIM_009.jpg
823.411	1.007	1	congruent	Block1	congruent/STIM_009.jpg
827.417	1.013	1	congruent	Block1	congruent/STIM_009.jpg
830.585	0.864	1	congruent	Block1	congruent/STIM_009.jpg
834.696	1.056	1	congruent	Block1	congruent/STIM_010.jpg
839.714	0.978	1	congruent	Block1	congruent/STIM_010.jpg
843.443	0.758	1	congruent	Block1	congruent/STIM_010.jpg
846.645	0.842	0	congruent	Block1	congruent/STIM_010.jpg
851.379	0.638	1	congruent	Block1	congruent/STIM_010.jpg
854.706	0.724	1	congruent	Block1	congruent/STIM_011.jpg
858.198	0.651	1	congruent	Block1	congruent/STIM_011.jpg
862.134	1.054	1	congruent	Block1	congruent/STIM_011.jpg
866.489	1.104	1	congruent	Block1	congruent/STIM_011.jpg
870.388	0.632	1	congruent	Block1	congruent/STIM_011.jpg
874.114	1.062	0	congruent	Block1	congruent/STIM_012.jpg
878.537	0.861	1	congruent	Block1	congruent/STIM_012.jpg
882.056	0.954	1	congruent	Block1	congruent/STIM_012.jpg
885.48	1.049	1	congruent	Block1	congruent/STIM_012.jpg
889.082	1.1	1	congruent	Block1	congruent/STIM_012.jpg
893.773	1.078	1	congruent	Block1	congruent/STIM_013.jpg
897.004	0.678	1	congruent	Block1	congruent/STIM_013.jpg
900.422	1.109	1	congruent	Block1	congruent/STIM_013.jpg
903.92	0.872	0	congruent	Block1	congruent/STIM_013.jpg
907.216	0.957	0	congruent	Block1	congruent/STIM_013.jpg
911.453	0.954	1	congruent	Block1	congruent/STIM_014.jpg
914.53	1.073	0	congruent	Block1	congruent/STIM_014.jpg
917.82	0.963	1	congruent	Block1	congruent/STIM_014.jpg
921.161	0.902	1	congruent	Block1	congruent/STIM_014.jpg
924.226	0.728	1	congruent	Block1	congruent/STIM_014.jpg
927.024	0.902	1	congruent	Block1	congruent/STIM_015.jpg
931.11	0.945	1	congruent	Block1	congruent/STIM_015.jpg
935.176	0.88	1	congruent	Block1	congruent/STIM_015.jpg
939.044	1.022	1	congruent	Block1	congruent/STIM_015.jpg
943.777	0.638	1	congruent	Block1	congruent/STIM_015.jpg
948.103	0.685	1	congruent	Block1	congruent/STIM_016.jpg
951.649	0.867	1	congruent	Block1	congruent/STIM_016.jpg
955.995	0.875	0	congruent	Block1	congruent/STIM_016.jpg
960.042	0.648	1	congruent	Block1	congruent/STIM_016.jpg
964.132	0.963	0	congruent	Block1	congruent/STIM_016.jpg
968.484	1.046	1	congruent	Block1	congruent/STIM_017.jpg
972.938	0.912	1	congruent	Block1	congruent/STIM_017.jpg
976.896	0.773	1	congruent	Block1	congruent/STIM_017.jpg
979.849	1.079	1	congruent	Block1	congruent/STIM_017.jpg
983.104	0.878	1	congruent	Block1	congruent/STIM_017.jpg
986.256	0.873	1	congruent	Block1	congruent/STIM_018.jpg
989.71	0.88	0	congruent	Block1	congruent/STIM_018.jpg
993.422	0.986	1	congruent	Block1	congruent/STIM_018.jpg
997.179	0.853	1	congruent	Block1	congruent/STIM_018.jpg
1000.641	0.673	1	congruent	Block1	congruent/STIM_018.jpg
1004.694	0.681	1	congruent	Block1	congruent/STIM_019.jpg
1008.509	1.092	0	congruent	Block1	congruent/STIM_019.jpg
1013.033	0.642	1	congruent	Block1	congruent/STIM_019.jpg
1017.044	0.907	1	congruent	Block1	congruent/STIM_019.jpg
1020.574	0.89	1	congruent	Block1	congruent/STIM_019.jpg
1025.23	1.084	0	congruent	Block1	congruent/STIM_020.jpg
1028.586	0.86	1	congruent	Block1	congruent/STIM_020.jpg
1031.678	0.63	1	congruent	Block1	congruent/STIM_020.jpg
1035.229	0.978	1	congruent	Block1	congruent/STIM_020.jpg
1039.22	0.994	1	congruent	Block1	congruent/STIM_020.jpg
1043.54	0.776	1	congruent	Block1	congruent/STIM_021.jpg
1048.051	1.087	1	congruent	Block1	congruent/STIM_021.jpg
1051.247	0.814	1	congruent	Block1	congruent/STIM_021.jpg
1055.461	0.715	1	congruent	Block1	congruent/STIM_021.jpg
1058.287	0.933	1	congruent	Block1	congruent/STIM_021.jpg
1062.33	1.039	1	congruent	Block1	congruent/STIM_022.jpg
1066.562	0.989	1	congruent	Block1	congruent/STIM_022.jpg
1069.581	1.028	1	congruent	Block1	congruent/STIM_022.jpg
1073.282	1.076	1	congruent	Block1	congruent/STIM_022.jpg
1077.944	1.038	1	congruent	Block1	congruent/STIM_022.jpg
1082.573	0.802	1	congruent	Block1	congruent/STIM_023.jpg
1085.522	0.963	1	congruent	Block1	congruent/STIM_023.jpg
1090.307	0.744	1	congruent	Block1	congruent/STIM_023.jpg
1093.292	0.958	1	congruent	Block1	congruent/STIM_023.jpg
1096.957	0.872	1	congruent	Block1	congruent/STIM_023.jpg
1101.687	0.702	1	congruent	Block1	congruent/STIM_024.jpg
1105.473	1.027	1	congruent	Block1	congruent/STIM_024.jpg
1109.172	0.998	1	congruent	Block1	congruent/STIM_024.jpg
1113.336	0.994	1	congruent	Block1	congruent/STIM_024.jpg
1116.935	0.923	1	congruent	Block1	congruent/STIM_024.jpg
1120.694	0.951	0	congruent	Block1	congruent/STIM_025.jpg
1124.351	1.085	1	congruent	Block1	congruent/STIM_025.jpg
1129.086	1.117	1	congruent	Block1	congruent/STIM_025.jpg
1133.273	0.877	1	congruent	Block1	congruent/STIM_025.jpg
1136.169	0.816	1	congruent	Block1	congruent/STIM_025.jpg
1140.682	0.653	1	congruent	Block1	congruent/STIM_026.jpg
1144.005	0.72	0	congruent	Block1	congruent/STIM_026.jpg
1146.921	0.69	1	congruent	Block1	congruent/STIM_026.jpg
1150.907	0.738	1	congruent	Block1	congruent/STIM_026.jpg
1155.347	1.08	1	congruent	Block1	congruent/STIM_026.jpg
1160.375	0.973	0	congruent	Block1	congruent/STIM_027.jpg
1163.989	0.854	1	congruent	Block1	congruent/STIM_027.jpg
1167.865	0.738	1	congruent	Block1	congruent/STIM_027.jpg
1171.597	0.833	1	congruent	Block1	congruent/STIM_027.jpg
1175.037	0.851	1	congruent	Block1	congruent/STIM_027.jpg
1179.673	0.949	1	congruent	Block1	congruent/STIM_028.jpg
1183.957	1.004	1	congruent	Block1	congruent/STIM_028.jpg
1188.747	0.95	1	congruent	Block1	congruent/STIM_028.jpg
1193.456	0.915	1	congruent	Block1	congruent/STIM_028.jpg
1197.652	0.805	1	congruent	Block1	congruent/STIM_028.jpg
1202.131	1.072	1	congruent	Block1	congruent/STIM_029.jpg
1206.879	0.689	1	congruent	Block1	congruent/STIM_029.jpg
1211.306	0.897	1	congruent	Block1	congruent/STIM_029.jpg
1215.669	0.88	1	congruent	Block1	congruent/STIM_029.jpg
1219.09	1.044	1	congruent	Block1	congruent/STIM_029.jpg
1222.781	0.871	1	incongruent	Block2	incongruent/STIM_000.jpg
1226.684	0.886	1	incongruent	Block2	incongruent/STIM_000.jpg
1230.793	0.725	1	incongruent	Block2	incongruent/STIM_000.jpg
1234.249	0.727	1	incongruent	Block2	incongruent/STIM_000.jpg
1237.415	0.95	0	incongruent	Block2	incongruent/STIM_000.jpg
1240.876	1.272	0	incongruent	Block2	incongruent/STIM_001.jpg
1244.684	1.412	1	incongruent	Block2	incongruent/STIM_001.jpg
1249.578	1.191	1	incongruent	Block2	incongruent/STIM_001.jpg
1254.526	1.199	1	incongruent	Block2	incongruent/STIM_001.jpg
1259.472	1.181	1	incongruent	Block2	incongruent/STIM_001.jpg
1264.47	0.836	1	incongruent	Block2	incongruent/STIM_002.jpg
1267.791	1.386	0	incongruent	Block2	incongruent/STIM_002.jpg
1272.032	1.026	0	incongruent	Block2	incongruent/STIM_002.jpg
1275.41	0.614	1	incongruent	Block2	incongruent/STIM_002.jpg
1278.092	1.255	1	incongruent	Block2	incongruent/STIM_002.jpg
1282.003	1.136	1	incongruent	Block2	incongruent/STIM_003.jpg
1285.623	1.274	0	incongruent	Block2	incongruent/STIM_003.jpg
1290.208	0.802	1	incongruent	Block2	incongruent/STIM_003.jpg
1293.356	1.007	1	incongruent	Block2	incongruent/STIM_003.jpg
1296.656	1.241	1	incongruent	Block2	incongruent/STIM_003.jpg
1300.142	0.934	1	incongruent	Block2	incongruent/STIM_004.jpg
1305.018	1.35	0	incongruent	Block2	incongruent/STIM_004.jpg
1308.991	0.938	1	incongruent	Block2	incongruent/STIM_004.jpg
1312.806	1.044	1	incongruent	Block2	incongruent/STIM_004.jpg
1316.155	1.208	1	incongruent	Block2	incongruent/STIM_004.jpg
1320.573	1.197	1	incongruent	Block2	incongruent/STIM_005.jpg
1323.973	0.992	0	incongruent	Block2	incongruent/STIM_005.jpg
1327.065	1.13	1	incongruent	Block2	incongruent/STIM_005.jpg
1330.401	0.679	0	incongruent	Block2	incongruent/STIM_005.jpg
1334.058	1.219	1	incongruent	Block2	incongruent/STIM_005.jpg
1337.938	0.767	1	incongruent	Block2	incongruent/STIM_006.jpg
1341.39	0.857	1	incongruent	Block2	incongruent/STIM_006.jpg
1345.827	1.153	1	incongruent	Block2	incongruent/STIM_006.jpg
1349.094	0.67	1	incongruent	Block2	incongruent/STIM_006.jpg
1352.761	0.84	1	incongruent	Block2	incongruent/STIM_006.jpg
1356.498	1.303	1	incongruent	Block2	incongruent/STIM_007.jpg
1361.792	0.973	1	incongruent	Block2	incongruent/STIM_007.jpg
1366.373	0.886	1	incongruent	Block2	incongruent/STIM_007.jpg
1370.57	0.724	1	incongruent	Block2	incongruent/STIM_007.jpg
1373.415	0.684	1	incongruent	Block2	incongruent/STIM_007.jpg
1377.66	0.947	1	incongruent	Block2	incongruent/STIM_008.jpg
1380.764	1.242	0	incongruent	Block2	incongruent/STIM_008.jpg
1384.222	0.737	1	incongruent	Block2	incongruent/STIM_008.jpg
1387.606	0.671	1	incongruent	Block2	incongruent/STIM_008.jpg
1390.847	0.927	1	incongruent	Block2	incongruent/STIM_008.jpg
1394.602	1.226	1	incongruent	Block2	incongruent/STIM_009.jpg
1399.476	1.186	1	incongruent	Block2	incongruent/STIM_009.jpg
1404.349	1.138	1	incongruent	Block2	incongruent/STIM_009.jpg
1408.579	0.726	1	incongruent	Block2	incongruent/STIM_009.jpg
1411.484	0.759	0	incongruent	Block2	incongruent/STIM_009.jpg
1414.325	1.006	1	incongruent	Block2	incongruent/STIM_010.jpg
1419.046	0.909	1	incongruent	Block2	incongruent/STIM_010.jpg
1423.919	1.367	0	incongruent	Block2	incongruent/STIM_010.jpg
1428.853	1.27	1	incongruent	Block2	incongruent/STIM_010.jpg
1432.885	1.246	0	incongruent	Block2	incongruent/STIM_010.jpg
1436.262	1.088	1	incongruent	Block2	incongruent/STIM_011.jpg
1439.877	1.2	1	incongruent	Block2	incongruent/STIM_011.jpg
1443.377	0.803	1	incongruent	Block2	incongruent/STIM_011.jpg
1447.683	1.044	1	incongruent	Block2	incongruent/STIM_011.jpg
1452.631	1.056	1	incongruent	Block2	incongruent/STIM_011.jpg
1456.465	1.477	1	incongruent	Block2	incongruent/STIM_012.jpg
1461.185	0.762	1	incongruent	Block2	incongruent/STIM_012.jpg
1464.913	1.352	0	incongruent	Block2	incongruent/STIM_012.jpg
1469.206	1.073	1	incongruent	Block2	incongruent/STIM_012.jpg
1473.719	0.824	1	incongruent	Block2	incongruent/STIM_012.jpg
1477.278	1.577	1	incongruent	Block2	incongruent/STIM_013.jpg
1482.69	0.988	1	incongruent	Block2	incongruent/STIM_013.jpg
1486.792	0.978	1	incongruent	Block2	incongruent/STIM_013.jpg
1489.953	0.661	1	incongruent	Block2	incongruent/STIM_013.jpg
1493.876	0.916	1	incongruent	Block2	incongruent/STIM_013.jpg
1498.487	1.104	1	incongruent	Block2	incongruent/STIM_014.jpg
1503.243	0.894	1	incongruent	Block2	incongruent/STIM_014.jpg
1507.821	1.063	1	incongruent	Block2	incongruent/STIM_014.jpg
1510.984	0.769	1	incongruent	Block2	incongruent/STIM_014.jpg
1514.271	0.788	1	incongruent	Block2	incongruent/STIM_014.jpg
1517.6	1.45	1	incongruent	Block2	incongruent/STIM_015.jpg
1521.735	0.724	1	incongruent	Block2	incongruent/STIM_015.jpg
1524.823	0.91	0	incongruent	Block2	incongruent/STIM_015.jpg
1528.853	0.706	0	incongruent	Block2	incongruent/STIM_015.jpg
1532.889	0.722	0	incongruent	Block2	incongruent/STIM_015.jpg
1536.557	1.335	1	incongruent	Block2	incongruent/STIM_016.jpg
1541.474	0.991	1	incongruent	Block2	incongruent/STIM_016.jpg
1545.021	0.718	0	incongruent	Block2	incongruent/STIM_016.jpg
1549.438	0.785	1	incongruent	Block2	incongruent/STIM_016.jpg
1552.606	1.103	1	incongruent	Block2	incongruent/STIM_016.jpg
1556.356	1.579	1	incongruent	Block2	incongruent/STIM_017.jpg
1561.226	1.069	0	incongruent	Block2	incongruent/STIM_017.jpg
1565.79	1.254	1	incongruent	Block2	incongruent/STIM_017.jpg
1569.253	0.967	1	incongruent	Block2	incongruent/STIM_017.jpg
1573.907	1.301	1	incongruent	Block2	incongruent/STIM_017.jpg
1578.792	1.225	1	incongruent	Block2	incongruent/STIM_018.jpg
1583.442	1.459	1	incongruent	Block2	incongruent/STIM_018.jpg
1587.457	1.173	1	incongruent	Block2	incongruent/STIM_018.jpg
1590.81	1.044	1	incongruent	Block2	incongruent/STIM_018.jpg
1595.251	1.25	1	incongruent	Block2	incongruent/STIM_018.jpg
1600.14	1.337	1	incongruent	Block2	incongruent/STIM_019.jpg
1603.629	0.998	1	incongruent	Block2	incongruent/STIM_019.jpg
1608.17	0.97	0	incongruent	Block2	incongruent/STIM_019.jpg
1612.918	0.91	1	incongruent	Block2	incongruent/STIM_019.jpg
1616.234	0.707	1	incongruent	Block2	incongruent/STIM_019.jpg
1619.69	0.745	1	incongruent	Block2	incongruent/STIM_020.jpg
1623.723	0.749	1	incongruent	Block2	incongruent/STIM_020.jpg
1627.283	1.35	1	incongruent	Block2	incongruent/STIM_020.jpg
1630.857	0.972	1	incongruent	Block2	incongruent/STIM_020.jpg
1635.734	1.026	1	incongruent	Block2	incongruent/STIM_020.jpg
1640.037	0.83	1	incongruent	Block2	incongruent/STIM_021.jpg
1644.458	0.985	0	incongruent	Block2	incongruent/STIM_021.jpg
1649.428	0.871	1	incongruent	Block2	incongruent/STIM_021.jpg
1654.009	0.773	1	incongruent	Block2	incongruent/STIM_021.jpg
1657.819	1.062	1	incongruent	Block2	incongruent/STIM_021.jpg
1661.928	0.775	1	incongruent	Block2	incongruent/STIM_022.jpg
1666.25	0.823	1	incongruent	Block2	incongruent/STIM_022.jpg
1669.737	0.958	1	incongruent	Block2	incongruent/STIM_022.jpg
1674.529	1.26	1	incongruent	Block2	incongruent/STIM_022.jpg
1678.75	0.795	1	incongruent	Block2	incongruent/STIM_022.jpg
1682.519	1.471	0	incongruent	Block2	incongruent/STIM_023.jpg
1686.268	1.436	1	incongruent	Block2	incongruent/STIM_023.jpg
1691.137	0.708	1	incongruent	Block2	incongruent/STIM_023.jpg
1695.201	1.164	1	incongruent	Block2	incongruent/STIM_023.jpg
1699.845	0.701	1	incongruent	Block2	incongruent/STIM_023.jpg
1703.534	1.18	1	incongruent	Block2	incongruent/STIM_024.jpg
1706.909	1.346	1	incongruent	Block2	incongruent/STIM_024.jpg
1712.151	0.902	0	incongruent	Block2	incongruent/STIM_024.jpg
1716.858	0.828	1	incongruent	Block2	incongruent/STIM_024.jpg
1721.479	0.73	1	incongruent	Block2	incongruent/STIM_024.jpg
1725.825	0.859	0	incongruent	Block2	incongruent/STIM_025.jpg
1729.753	0.965	1	incongruent	Block2	incongruent/STIM_025.jpg
1734.646	0.784	1	incongruent	Block2	incongruent/STIM_025.jpg
1737.903	1.303	1	incongruent	Block2	incongruent/STIM_025.jpg
1742.381	0.998	1	incongruent	Block2	incongruent/STIM_025.jpg
1746.724	0.76	1	incongruent	Block2	incongruent/STIM_026.jpg
1749.67	0.91	1	incongruent	Block2	incongruent/STIM_026.jpg
1752.701	1.276	1	incongruent	Block2	incongruent/STIM_026.jpg
1757.774	0.876	1	incongruent	Block2	incongruent/STIM_026.jpg
1762.608	1.296	1	incongruent	Block2	incongruent/STIM_026.jpg
1767.058	1.332	1	incongruent	Block2	incongruent/STIM_027.jpg
1770.506	0.968	1	incongruent	Block2	incongruent/STIM_027.jpg
1774.91	0.767	1	incongruent	Block2	incongruent/STIM_027.jpg
1778.436	1.028	1	incongruent	Block2	incongruent/STIM_027.jpg
1783.386	0.627	0	incongruent	Block2	incongruent/STIM_027.jpg
1786.798	1.273	1	incongruent	Block2	incongruent/STIM_028.jpg
1791.877	1.313	1	incongruent	Block2	incongruent/STIM_028.jpg
1795.76	0.711	1	incongruent	Block2	incongruent/STIM_028.jpg
1800.466	0.848	1	incongruent	Block2	incongruent/STIM_028.jpg
1804.975	0.694	1	incongruent	Block2	incongruent/STIM_028.jpg
1808.678	1.419	0	incongruent	Block2	incongruent/STIM_029.jpg
1812.77	0.838	1	incongruent	Block2	incongruent/STIM_029.jpg
1817.442	1.018	1	incongruent	Block2	incongruent/STIM_029.jpg
1821.414	1.246	1	incongruent	Block2	incongruent/STIM_029.jpg
1825.555	0.846	1	incongruent	Block2	incongruent/STIM_029.jpg
1829.063	0.86	1	congruent	Block2	congruent/STIM_000.jpg
1833.344	0.971	1	congruent	Block2	congruent/STIM_000.jpg
1836.454	1.04	1	congruent	Block2	congruent/STIM_000.jpg
1841.188	0.945	1	congruent	Block2	congruent/STIM_000.jpg
1845.508	0.668	0	congruent	Block2	congruent/STIM_000.jpg
1848.463	0.856	0	congruent	Block2	congruent/STIM_001.jpg
1853.287	0.72	1	congruent	Block2	congruent/STIM_001.jpg
1856.937	1.026	1	congruent	Block2	congruent/STIM_001.jpg
1861.24	1.085	1	congruent	Block2	congruent/STIM_001.jpg
1865.611	0.756	1	congruent	Block2	congruent/STIM_001.jpg
1868.415	0.64	1	congruent	Block2	congruent/STIM_002.jpg
1871.59	1.069	1	congruent	Block2	congruent/STIM_002.jpg
1876.29	0.926	1	congruent	Block2	congruent/STIM_002.jpg
1880.18	0.888	1	congruent	Block2	congruent/STIM_002.jpg
1883.699	0.862	1	congruent	Block2	congruent/STIM_002.jpg
1888.355	1.117	1	congruent	Block2	congruent/STIM_003.jpg
1893.445	0.947	1	congruent	Block2	congruent/STIM_003.jpg
1898.218	0.686	1	congruent	Block2	congruent/STIM_003.jpg
1901.16	0.888	1	congruent	Block2	congruent/STIM_003.jpg
1905.874	1.007	1	congruent	Block2	congruent/STIM_003.jpg
1909.989	0.858	1	congruent	Block2	congruent/STIM_004.jpg
1913.272	0.79	1	congruent	Block2	congruent/STIM_004.jpg
1917.002	0.878	1	congruent	Block2	congruent/STIM_004.jpg
1920.46	1.005	1	congruent	Block2	congruent/STIM_004.jpg
1925.132	1.092	0	congruent	Block2	congruent/STIM_004.jpg
1930.213	0.884	1	congruent	Block2	congruent/STIM_005.jpg
1933.104	1.073	1	congruent	Block2	congruent/STIM_005.jpg
1937.7	0.8	1	congruent	Block2	congruent/STIM_005.jpg
1941.632	0.93	1	congruent	Block2	congruent/STIM_005.jpg
1946.375	0.884	1	congruent	Block2	congruent/STIM_005.jpg
1950.445	1.084	0	congruent	Block2	congruent/STIM_006.jpg
1953.712	0.995	1	congruent	Block2	congruent/STIM_006.jpg
1957.809	0.99	1	congruent	Block2	congruent/STIM_006.jpg
1960.953	0.871	1	congruent	Block2	congruent/STIM_006.jpg
1965.502	0.991	0	congruent	Block2	congruent/STIM_006.jpg
1970.442	0.802	1	congruent	Block2	congruent/STIM_007.jpg
1974.107	0.881	0	congruent	Block2	congruent/STIM_007.jpg
1977.46	0.81	1	congruent	Block2	congruent/STIM_007.jpg
1982.214	0.915	1	congruent	Block2	congruent/STIM_007.jpg
1985.568	0.957	1	congruent	Block2	congruent/STIM_007.jpg
1989.399	0.893	1	congruent	Block2	congruent/STIM_008.jpg
1994.269	0.732	1	congruent	Block2	congruent/STIM_008.jpg
1998.334	0.844	1	congruent	Block2	congruent/STIM_008.jpg
2002.834	0.974	1	congruent	Block2	congruent/STIM_008.jpg
2007.657	0.867	1	congruent	Block2	congruent/STIM_008.jpg
2012.445	0.73	0	congruent	Block2	congruent/STIM_009.jpg
2016.692	0.716	1	congruent	Block2	congruent/STIM_009.jpg
2020.087	0.752	1	congruent	Block2	congruent/STIM_009.jpg
2023.894	1.076	0	congruent	Block2	congruent/STIM_009.jpg
2028.555	1.038	0	congruent	Block2	congruent/STIM_009.jpg
2032.448	0.931	1	congruent	Block2	congruent/STIM_010.jpg
2037.122	0.638	1	congruent	Block2	congruent/STIM_010.jpg
2040.475	0.98	1	congruent	Block2	congruent/STIM_010.jpg
2043.847	0.959	1	congruent	Block2	congruent/STIM_010.jpg
2048.633	0.684	0	congruent	Block2	congruent/STIM_010.jpg
2051.723	1.058	1	congruent	Block2	congruent/STIM_011.jpg
2056.415	1.084	1	congruent	Block2	congruent/STIM_011.jpg
2060.623	1.028	1	congruent	Block2	congruent/STIM_011.jpg
2064.744	1.068	1	congruent	Block2	congruent/STIM_011.jpg
2069.752	0.745	0	congruent	Block2	congruent/STIM_011.jpg
2074.038	0.679	1	congruent	Block2	congruent/STIM_012.jpg
2077.146	0.782	1	congruent	Block2	congruent/STIM_012.jpg
2081.523	0.679	1	congruent	Block2	congruent/STIM_012.jpg
2085.127	0.766	1	congruent	Block2	congruent/STIM_012.jpg
2089.279	0.957	1	congruent	Block2	congruent/STIM_012.jpg
2092.465	0.927	1	congruent	Block2	congruent/STIM_013.jpg
2096.135	1.023	1	congruent	Block2	congruent/STIM_013.jpg
2099.196	0.965	1	congruent	Block2	congruent/STIM_013.jpg
2103.42	0.699	1	congruent	Block2	congruent/STIM_013.jpg
2107.529	0.666	1	congruent	Block2	congruent/STIM_013.jpg
2111.693	1.001	1	congruent	Block2	congruent/STIM_014.jpg
2115.54	0.973	1	congruent	Block2	congruent/STIM_014.jpg
2119.674	0.963	1	congruent	Block2	congruent/STIM_014.jpg
2124.039	1.032	0	congruent	Block2	congruent/STIM_014.jpg
2128.495	0.962	0	congruent	Block2	congruent/STIM_014.jpg
2131.696	0.694	1	congruent	Block2	congruent/STIM_015.jpg
2134.801	0.91	1	congruent	Block2	congruent/STIM_015.jpg
2138.178	1.044	1	congruent	Block2	congruent/STIM_015.jpg
2142.775	1.086	0	congruent	Block2	congruent/STIM_015.jpg
2146.087	0.897	1	congruent	Block2	congruent/STIM_015.jpg
2150.519	0.817	1	congruent	Block2	congruent/STIM_016.jpg
2154.326	1.085	1	congruent	Block2	congruent/STIM_016.jpg
2157.854	1.101	1	congruent	Block2	congruent/STIM_016.jpg
2162.722	0.83	0	congruent	Block2	congruent/STIM_016.jpg
2166.201	0.912	0	congruent	Block2	congruent/STIM_016.jpg
2170.836	0.758	1	congruent	Block2	congruent/STIM_017.jpg
2175.328	1.022	1	congruent	Block2	congruent/STIM_017.jpg
2179.971	0.702	1	congruent	Block2	congruent/STIM_017.jpg
2184.093	0.736	0	congruent	Block2	congruent/STIM_017.jpg
2188.369	1.011	1	congruent	Block2	congruent/STIM_017.jpg
2192.835	0.788	1	congruent	Block2	congruent/STIM_018.jpg
2196.151	0.788	0	congruent	Block2	congruent/STIM_018.jpg
2200.711	1.024	0	congruent	Block2	congruent/STIM_018.jpg
2205.056	1.012	0	congruent	Block2	congruent/STIM_018.jpg
2208.27	0.923	0	congruent	Block2	congruent/STIM_018.jpg
2212.463	0.627	1	congruent	Block2	congruent/STIM_019.jpg
2216.496	1.014	1	congruent	Block2	congruent/STIM_019.jpg
2220.421	0.902	1	congruent	Block2	congruent/STIM_019.jpg
2224.618	1.112	1	congruent	Block2	congruent/STIM_019.jpg
2228.81	0.69	1	congruent	Block2	congruent/STIM_019.jpg
2232.044	0.861	1	congruent	Block2	congruent/STIM_020.jpg
2236.121	0.823	1	congruent	Block2	congruent/STIM_020.jpg
2240.37	0.898	1	congruent	Block2	congruent/STIM_020.jpg
2244.882	0.772	0	congruent	Block2	congruent/STIM_020.jpg
2248.13	0.703	1	congruent	Block2	congruent/STIM_020.jpg
2251.669	0.898	1	congruent	Block2	congruent/STIM_021.jpg
2255.652	0.735	1	congruent	Block2	congruent/STIM_021.jpg
2258.767	1.047	1	congruent	Block2	congruent/STIM_021.jpg
2263.649	0.726	1	congruent	Block2	congruent/STIM_021.jpg
2267.914	0.829	1	congruent	Block2	congruent/STIM_021.jpg
2271.248	0.881	1	congruent	Block2	congruent/STIM_022.jpg
2274.262	0.713	1	congruent	Block2	congruent/STIM_022.jpg
2277.975	0.654	1	congruent	Block2	congruent/STIM_022.jpg
2281.232	0.718	1	congruent	Block2	congruent/STIM_022.jpg
2284.432	0.979	1	congruent	Block2	congruent/STIM_022.jpg
2287.884	1.053	0	congruent	Block2	congruent/STIM_023.jpg
2291.715	0.888	1	congruent	Block2	congruent/STIM_023.jpg
2296.046	1.118	1	congruent	Block2	congruent/STIM_023.jpg
2299.183	0.747	1	congruent	Block2	congruent/STIM_023.jpg
2303.792	0.721	1	congruent	Block2	congruent/STIM_023.jpg
2308.301	0.759	1	congruent	Block2	congruent/STIM_024.jpg
2312.889	0.941	1	congruent	Block2	congruent/STIM_024.jpg
2316.535	1.028	1	congruent	Block2	congruent/STIM_024.jpg
2320.356	0.907	1	congruent	Block2	congruent/STIM_024.jpg
2323.572	0.951	1	congruent	Block2	congruent/STIM_024.jpg
2326.827	0.944	1	congruent	Block2	congruent/STIM_025.jpg
2331.399	0.791	1	congruent	Block2	congruent/STIM_025.jpg
2335.128	1.021	1	congruent	Block2	congruent/STIM_025.jpg
2338.468	1.034	1	congruent	Block2	congruent/STIM_025.jpg
2342.983	0.987	1	congruent	Block2	congruent/STIM_025.jpg
2347.745	0.636	1	congruent	Block2	congruent/STIM_026.jpg
2350.702	0.762	0	congruent	Block2	congruent/STIM_026.jpg
2354.424	0.756	1	congruent	Block2	congruent/STIM_026.jpg
2358.979	0.658	1	congruent	Block2	congruent/STIM_026.jpg
2362.831	0.853	1	congruent	Block2	congruent/STIM_026.jpg
2366.233	0.95	1	congruent	Block2	congruent/STIM_027.jpg
2370.296	0.661	1	congruent	Block2	congruent/STIM_027.jpg
2373.304	0.709	1	congruent	Block2	congruent/STIM_027.jpg
2377.218	0.942	1	congruent	Block2	congruent/STIM_027.jpg
2380.474	1.021	1	congruent	Block2	congruent/STIM_027.jpg
2385.285	0.674	1	congruent	Block2	congruent/STIM_028.jpg
2387.968	0.992	0	congruent	Block2	congruent/STIM_028.jpg
2391.848	0.766	1	congruent	Block2	congruent/STIM_028.jpg
2394.878	0.708	1	congruent	Block2	congruent/STIM_028.jpg
2398.275	0.954	1	congruent	Block2	congruent/STIM_028.jpg
2401.903	1.053	1	congruent	Block2	congruent/STIM_029.jpg
2406.387	0.906	1	congruent	Block2	congruent/STIM_029.jpg
2410.529	0.837	1	congruent	Block2	congruent/STIM_029.jpg
2414.45	0.884	1	congruent	Block2	congruent/STIM_029.jpg
2417.963	1.015	1	congruent	Block2	congruent/STIM_029.jpg
2422.279	0.973	1	incongruent	Block3	incongruent/STIM_000.jpg
2426.691	1.136	0	incongruent	Block3	incongruent/STIM_000.jpg
2430.008	0.868	1	incongruent	Block3	incongruent/STIM_000.jpg
2433.692	1.277	1	incongruent	Block3	incongruent/STIM_000.jpg
2438.308	0.697	1	incongruent	Block3	incongruent/STIM_000.jpg
2441.922	1.247	0	incongruent	Block3	incongruent/STIM_001.jpg
2445.212	1.212	1	incongruent	Block3	incongruent/STIM_001.jpg
2449.127	0.738	1	incongruent	Block3	incongruent/STIM_001.jpg
2453.767	1.137	1	incongruent	Block3	incongruent/STIM_001.jpg
2458.439	1.25	1	incongruent	Block3	incongruent/STIM_001.jpg
2462.618	0.892	1	incongruent	Block3	incongruent/STIM_002.jpg
2466.616	0.989	1	incongruent	Block3	incongruent/STIM_002.jpg
2471.026	0.934	1	incongruent	Block3	incongruent/STIM_002.jpg
2475.093	0.963	1	incongruent	Block3	incongruent/STIM_002.jpg
2478.247	0.862	1	incongruent	Block3	incongruent/STIM_002.jpg
2481.422	1.123	1	incongruent	Block3	incongruent/STIM_003.jpg
2484.591	0.626	1	incongruent	Block3	incongruent/STIM_003.jpg
2487.359	0.7	1	incongruent	Block3	incongruent/STIM_003.jpg
2491.785	0.887	1	incongruent	Block3	incongruent/STIM_003.jpg
2495.256	0.934	1	incongruent	Block3	incongruent/STIM_003.jpg
2499.214	1.272	1	incongruent	Block3	incongruent/STIM_004.jpg
2503.18	0.851	1	incongruent	Block3	incongruent/STIM_004.jpg
2507.281	0.951	1	incongruent	Block3	incongruent/STIM_004.jpg
2512.039	1.122	1	incongruent	Block3	incongruent/STIM_004.jpg
2516.244	1.293	1	incongruent	Block3	incongruent/STIM_004.jpg
2519.936	0.995	0	incongruent	Block3	incongruent/STIM_005.jpg
2523.95	1.24	1	incongruent	Block3	incongruent/STIM_005.jpg
2528.384	0.858	1	incongruent	Block3	incongruent/STIM_005.jpg
2531.666	0.837	1	incongruent	Block3	incongruent/STIM_005.jpg
2536.161	0.831	1	incongruent	Block3	incongruent/STIM_005.jpg
2539.257	0.813	1	incongruent	Block3	incongruent/STIM_006.jpg
2543.045	0.897	1	incongruent	Block3	incongruent/STIM_006.jpg
2547.064	0.991	1	incongruent	Block3	incongruent/STIM_006.jpg
2550.581	1.149	1	incongruent	Block3	incongruent/STIM_006.jpg
2553.791	0.766	1	incongruent	Block3	incongruent/STIM_006.jpg
2557.158	0.916	1	incongruent	Block3	incongruent/STIM_007.jpg
2560.85	1.185	1	incongruent	Block3	incongruent/STIM_007.jpg
2565.019	1.088	1	incongruent	Block3	incongruent/STIM_007.jpg
2569.939	1.137	1	incongruent	Block3	incongruent/STIM_007.jpg
2573.447	1.145	1	incongruent	Block3	incongruent/STIM_007.jpg
2578.488	1.13	0	incongruent	Block3	incongruent/STIM_008.jpg
2583.552	1.282	0	incongruent	Block3	incongruent/STIM_008.jpg
2587.262	1.16	1	incongruent	Block3	incongruent/STIM_008.jpg
2591.739	1.038	0	incongruent	Block3	incongruent/STIM_008.jpg
2595.311	0.709	0	incongruent	Block3	incongruent/STIM_008.jpg
2599.086	1.009	1	incongruent	Block3	incongruent/STIM_009.jpg
2603.213	1.04	1	incongruent	Block3	incongruent/STIM_009.jpg
2606.363	1.001	1	incongruent	Block3	incongruent/STIM_009.jpg
2610.456	0.92	1	incongruent	Block3	incongruent/STIM_009.jpg
2614.233	1.247	1	incongruent	Block3	incongruent/STIM_009.jpg
2619.356	0.781	1	incongruent	Block3	incongruent/STIM_010.jpg
2623.993	1.259	1	incongruent	Block3	incongruent/STIM_010.jpg
2628.141	1.036	1	incongruent	Block3	incongruent/STIM_010.jpg
2631.866	0.715	1	incongruent	Block3	incongruent/STIM_010.jpg
2635.903	0.718	1	incongruent	Block3	incongruent/STIM_010.jpg
2640.08	0.629	1	incongruent	Block3	incongruent/STIM_011.jpg
2643.961	1.214	1	incongruent	Block3	incongruent/STIM_011.jpg
2647.195	1.288	1	incongruent	Block3	incongruent/STIM_011.jpg
2650.576	0.896	1	incongruent	Block3	incongruent/STIM_011.jpg
2655.178	0.964	1	incongruent	Block3	incongruent/STIM_011.jpg
2659.654	0.619	1	incongruent	Block3	incongruent/STIM_012.jpg
2662.602	1.173	1	incongruent	Block3	incongruent/STIM_012.jpg
2666.97	0.686	1	incongruent	Block3	incongruent/STIM_012.jpg
2671.453	0.927	1	incongruent	Block3	incongruent/STIM_012.jpg
2674.58	0.627	1	incongruent	Block3	incongruent/STIM_012.jpg
2677.911	0.676	1	incongruent	Block3	incongruent/STIM_013.jpg
2681.628	1.135	1	incongruent	Block3	incongruent/STIM_013.jpg
2685.509	1.009	1	incongruent	Block3	incongruent/STIM_013.jpg
2688.958	0.673	0	incongruent	Block3	incongruent/STIM_013.jpg
2691.775	0.66	1	incongruent	Block3	incongruent/STIM_013.jpg
2694.472	1.153	1	incongruent	Block3	incongruent/STIM_014.jpg
2698.803	0.668	1	incongruent	Block3	incongruent/STIM_014.jpg
2701.921	0.785	1	incongruent	Block3	incongruent/STIM_014.jpg
2706.631	1.173	1	incongruent	Block3	incongruent/STIM_014.jpg
2711.174	0.809	1	incongruent	Block3	incongruent/STIM_014.jpg
2715.925	0.989	1	incongruent	Block3	incongruent/STIM_015.jpg
2719.554	0.753	0	incongruent	Block3	incongruent/STIM_015.jpg
2722.466	1.275	1	incongruent	Block3	incongruent/STIM_015.jpg
2726.411	1.103	1	incongruent	Block3	incongruent/STIM_015.jpg
2730.662	1.118	1	incongruent	Block3	incongruent/STIM_015.jpg
2734.567	1.274	1	incongruent	Block3	incongruent/STIM_016.jpg
2739.424	0.998	1	incongruent	Block3	incongruent/STIM_016.jpg
2742.557	0.915	1	incongruent	Block3	incongruent/STIM_016.jpg
2746.52	0.664	1	incongruent	Block3	incongruent/STIM_016.jpg
2750.265	0.746	1	incongruent	Block3	incongruent/STIM_016.jpg
2754.368	0.809	0	incongruent	Block3	incongruent/STIM_017.jpg
2757.301	1.122	1	incongruent	Block3	incongruent/STIM_017.jpg
2761.449	1.081	1	incongruent	Block3	incongruent/STIM_017.jpg
2765.343	1.132	1	incongruent	Block3	incongruent/STIM_017.jpg
2768.587	1.279	1	incongruent	Block3	incongruent/STIM_017.jpg
2772.24	0.631	1	incongruent	Block3	incongruent/STIM_018.jpg
2776.769	0.768	0	incongruent	Block3	incongruent/STIM_018.jpg
2780.793	1.255	1	incongruent	Block3	incongruent/STIM_018.jpg
2785.988	0.813	1	incongruent	Block3	incongruent/STIM_018.jpg
2790.234	1.08	0	incongruent	Block3	incongruent/STIM_018.jpg
2793.43	1.286	1	incongruent	Block3	incongruent/STIM_019.jpg
2797.052	0.629	1	incongruent	Block3	incongruent/STIM_019.jpg
2800.476	1.018	1	incongruent	Block3	incongruent/STIM_019.jpg
2804.006	0.744	1	incongruent	Block3	incongruent/STIM_019.jpg
2807.712	0.78	1	incongruent	Block3	incongruent/STIM_019.jpg
2811.198	1.18	1	incongruent	Block3	incongruent/STIM_020.jpg
2815.927	1.136	1	incongruent	Block3	incongruent/STIM_020.jpg
2820.802	0.984	1	incongruent	Block3	incongruent/STIM_020.jpg
2825.678	0.8	1	incongruent	Block3	incongruent/STIM_020.jpg
2828.936	1.124	1	incongruent	Block3	incongruent/STIM_020.jpg
2833.113	1.183	1	incongruent	Block3	incongruent/STIM_021.jpg
2837.723	0.768	1	incongruent	Block3	incongruent/STIM_021.jpg
2841.544	1.075	0	incongruent	Block3	incongruent/STIM_021.jpg
2846.11	0.898	1	incongruent	Block3	incongruent/STIM_021.jpg
2850.524	0.921	1	incongruent	Block3	incongruent/STIM_021.jpg
2854.832	1.031	0	incongruent	Block3	incongruent/STIM_022.jpg
2858.997	1.091	1	incongruent	Block3	incongruent/STIM_022.jpg
2862.327	0.925	1	incongruent	Block3	incongruent/STIM_022.jpg
2866.361	1.172	0	incongruent	Block3	incongruent/STIM_022.jpg
2871.419	0.722	1	incongruent	Block3	incongruent/STIM_022.jpg
2875.966	0.978	1	incongruent	Block3	incongruent/STIM_023.jpg
2879.913	0.687	1	incongruent	Block3	incongruent/STIM_023.jpg
2884.406	0.664	0	incongruent	Block3	incongruent/STIM_023.jpg
2887.88	0.724	1	incongruent	Block3	incongruent/STIM_023.jpg
2891.46	0.872	1	incongruent	Block3	incongruent/STIM_023.jpg
2895.601	1.043	1	incongruent	Block3	incongruent/STIM_024.jpg
2899.561	1.199	1	incongruent	Block3	incongruent/STIM_024.jpg
2904.379	1.147	1	incongruent	Block3	incongruent/STIM_024.jpg
2908.445	0.676	1	incongruent	Block3	incongruent/STIM_024.jpg
2913.006	0.66	0	incongruent	Block3	incongruent/STIM_024.jpg
2916.548	0.704	1	incongruent	Block3	incongruent/STIM_025.jpg
2919.752	0.96	0	incongruent	Block3	incongruent/STIM_025.jpg
2924.104	1.268	1	incongruent	Block3	incongruent/STIM_025.jpg
2927.694	0.794	1	incongruent	Block3	incongruent/STIM_025.jpg
2931.403	1.185	1	incongruent	Block3	incongruent/STIM_025.jpg
2935.471	1.029	1	incongruent	Block3	incongruent/STIM_026.jpg
2939.674	1.107	1	incongruent	Block3	incongruent/STIM_026.jpg
2943.217	1.224	1	incongruent	Block3	incongruent/STIM_026.jpg
2946.714	1.164	1	incongruent	Block3	incongruent/STIM_026.jpg
2951.758	1.248	1	incongruent	Block3	incongruent/STIM_026.jpg
2955.68	0.9	1	incongruent	Block3	incongruent/STIM_027.jpg
2960.081	1.281	1	incongruent	Block3	incongruent/STIM_027.jpg
2965.286	1.13	1	incongruent	Block3	incongruent/STIM_027.jpg
2969.508	0.838	1	incongruent	Block3	incongruent/STIM_027.jpg
2973.736	0.91	1	incongruent	Block3	incongruent/STIM_027.jpg
2977.624	0.932	1	incongruent	Block3	incongruent/STIM_028.jpg
2981.631	0.858	0	incongruent	Block3	incongruent/STIM_028.jpg
2984.568	1.16	1	incongruent	Block3	incongruent/STIM_028.jpg
2987.779	0.903	1	incongruent	Block3	incongruent/STIM_028.jpg
2991.275	1.147	1	incongruent	Block3	incongruent/STIM_028.jpg
2994.64	1.26	0	incongruent	Block3	incongruent/STIM_029.jpg
2999.761	1.059	1	incongruent	Block3	incongruent/STIM_029.jpg
3004.757	1.051	1	incongruent	Block3	incongruent/STIM_029.jpg
3008.038	1.303	1	incongruent	Block3	incongruent/STIM_029.jpg
3012.734	1.054	1	incongruent	Block3	incongruent/STIM_029.jpg
3017.051	0.899	1	congruent	Block3	congruent/STIM_000.jpg
3020.128	0.926	1	congruent	Block3	congruent/STIM_000.jpg
3023.552	0.83	1	congruent	Block3	congruent/STIM_000.jpg
3027.645	1.046	0	congruent	Block3	congruent/STIM_000.jpg
3032.197	0.91	1	congruent	Block3	congruent/STIM_000.jpg
3035.448	0.959	1	congruent	Block3	congruent/STIM_001.jpg
3039.235	0.964	1	congruent	Block3	congruent/STIM_001.jpg
3043.922	0.719	1	congruent	Block3	congruent/STIM_001.jpg
3048.352	0.828	1	congruent	Block3	congruent/STIM_001.jpg
3052.165	0.716	0	congruent	Block3	congruent/STIM_001.jpg
3055.251	0.676	1	congruent	Block3	congruent/STIM_002.jpg
3058.524	1.104	1	congruent	Block3	congruent/STIM_002.jpg
3062.835	1.102	0	congruent	Block3	congruent/STIM_002.jpg
3066.554	0.814	0	congruent	Block3	congruent/STIM_002.jpg
3070.698	0.679	0	congruent	Block3	congruent/STIM_002.jpg
3074.663	1.101	1	congruent	Block3	congruent/STIM_003.jpg
3079.663	1.077	1	congruent	Block3	congruent/STIM_003.jpg
3084.269	0.826	1	congruent	Block3	congruent/STIM_003.jpg
3088.931	0.622	1	congruent	Block3	congruent/STIM_003.jpg
3092.357	0.639	1	congruent	Block3	congruent/STIM_003.jpg
3096.568	0.662	1	congruent	Block3	congruent/STIM_004.jpg
3100.155	0.856	1	congruent	Block3	congruent/STIM_004.jpg
3103.17	0.947	0	congruent	Block3	congruent/STIM_004.jpg
3107.802	1.074	1	congruent	Block3	congruent/STIM_004.jpg
3112.652	1.038	1	congruent	Block3	congruent/STIM_004.jpg
3116.794	0.755	1	congruent	Block3	congruent/STIM_005.jpg
3120.344	0.967	1	congruent	Block3	congruent/STIM_005.jpg
3124.649	0.706	1	congruent	Block3	congruent/STIM_005.jpg
3127.384	0.796	1	congruent	Block3	congruent/STIM_005.jpg
3130.723	1.104	0	congruent	Block3	congruent/STIM_005.jpg
3134.915	0.934	1	congruent	Block3	congruent/STIM_006.jpg
3138.468	0.774	1	congruent	Block3	congruent/STIM_006.jpg
3141.879	1.115	1	congruent	Block3	congruent/STIM_006.jpg
3145.597	0.629	1	congruent	Block3	congruent/STIM_006.jpg
3148.453	0.9	1	congruent	Block3	congruent/STIM_006.jpg
3152.491	0.644	1	congruent	Block3	congruent/STIM_007.jpg
3156.569	0.787	1	congruent	Block3	congruent/STIM_007.jpg
3161.025	0.887	1	congruent	Block3	congruent/STIM_007.jpg
3165.165	0.776	1	congruent	Block3	congruent/STIM_007.jpg
3168.683	0.679	1	congruent	Block3	congruent/STIM_007.jpg
3172.765	0.762	0	congruent	Block3	congruent/STIM_008.jpg
3177.119	0.759	1	congruent	Block3	congruent/STIM_008.jpg
3180.443	1.084	1	congruent	Block3	congruent/STIM_008.jpg
3184.263	1.072	1	congruent	Block3	congruent/STIM_008.jpg
3188.35	1.027	1	congruent	Block3	congruent/STIM_008.jpg
3191.719	1.11	1	congruent	Block3	congruent/STIM_009.jpg
3195.548	0.952	1	congruent	Block3	congruent/STIM_009.jpg
3198.617	1.001	1	congruent	Block3	congruent/STIM_009.jpg
3201.696	0.757	1	congruent	Block3	congruent/STIM_009.jpg
3205.633	0.705	1	congruent	Block3	congruent/STIM_009.jpg
3209.277	0.892	0	congruent	Block3	congruent/STIM_010.jpg
3213.652	0.794	1	congruent	Block3	congruent/STIM_010.jpg
3217.543	0.656	1	congruent	Block3	congruent/STIM_010.jpg
3220.677	0.706	0	congruent	Block3	congruent/STIM_010.jpg
3224.28	1.075	0	congruent	Block3	congruent/STIM_010.jpg
3227.767	0.866	1	congruent	Block3	congruent/STIM_011.jpg
3231.838	1.089	1	congruent	Block3	congruent/STIM_011.jpg
3236.01	0.89	1	congruent	Block3	congruent/STIM_011.jpg
3240.456	0.967	0	congruent	Block3	congruent/STIM_011.jpg
3244.614	1.117	1	congruent	Block3	congruent/STIM_011.jpg
3249.72	0.749	1	congruent	Block3	congruent/STIM_012.jpg
3252.662	1.107	1	congruent	Block3	congruent/STIM_012.jpg
3257.422	0.654	1	congruent	Block3	congruent/STIM_012.jpg
3260.463	0.896	0	congruent	Block3	congruent/STIM_012.jpg
3263.938	0.678	1	congruent	Block3	congruent/STIM_012.jpg
3267.577	0.673	1	congruent	Block3	congruent/STIM_013.jpg
3271.964	0.926	1	congruent	Block3	congruent/STIM_013.jpg
3276.019	0.959	1	congruent	Block3	congruent/STIM_013.jpg
3280.033	0.732	1	congruent	Block3	congruent/STIM_013.jpg
3283.752	0.706	1	congruent	Block3	congruent/STIM_013.jpg
3287.554	1.1	1	congruent	Block3	congruent/STIM_014.jpg
3292.413	0.814	1	congruent	Block3	congruent/STIM_014.jpg
3295.561	0.812	0	congruent	Block3	congruent/STIM_014.jpg
3299.034	0.876	1	congruent	Block3	congruent/STIM_014.jpg
3302.592	0.829	1	congruent	Block3	congruent/STIM_014.jpg
3305.963	0.649	1	congruent	Block3	congruent/STIM_015.jpg
3309.22	0.917	1	congruent	Block3	congruent/STIM_015.jpg
3312.566	1.052	1	congruent	Block3	congruent/STIM_015.jpg
3316.807	1.056	1	congruent	Block3	congruent/STIM_015.jpg
3321.517	0.991	1	congruent	Block3	congruent/STIM_015.jpg
3326.118	0.8	1	congruent	Block3	congruent/STIM_016.jpg
3329.5	0.676	1	congruent	Block3	congruent/STIM_016.jpg
3332.668	1.045	1	congruent	Block3	congruent/STIM_016.jpg
3337.645	0.78	0	congruent	Block3	congruent/STIM_016.jpg
3341.783	1.003	1	congruent	Block3	congruent/STIM_016.jpg
3345.9	0.78	0	congruent	Block3	congruent/STIM_017.jpg
3349.057	0.991	1	congruent	Block3	congruent/STIM_017.jpg
3353.359	0.9	1	congruent	Block3	congruent/STIM_017.jpg
3356.463	1.102	1	congruent	Block3	congruent/STIM_017.jpg
3359.808	0.776	0	congruent	Block3	congruent/STIM_017.jpg
3363.983	0.951	0	congruent	Block3	congruent/STIM_018.jpg
3366.937	0.946	0	congruent	Block3	congruent/STIM_018.jpg
3370.844	0.654	0	congruent	Block3	congruent/STIM_018.jpg
3374.342	1.035	1	congruent	Block3	congruent/STIM_018.jpg
3379.025	0.71	1	congruent	Block3	congruent/STIM_018.jpg
3382.9	0.752	1	congruent	Block3	congruent/STIM_019.jpg
3387.172	0.946	1	congruent	Block3	congruent/STIM_019.jpg
3390.413	0.897	1	congruent	Block3	congruent/STIM_019.jpg
3393.84	0.877	1	congruent	Block3	congruent/STIM_019.jpg
3397.096	1.056	1	congruent	Block3	congruent/STIM_019.jpg
3400.182	0.832	1	congruent	Block3	congruent/STIM_020.jpg
3404.845	0.814	1	congruent	Block3	congruent/STIM_020.jpg
3408.388	0.734	1	congruent	Block3	congruent/STIM_020.jpg
3412.085	0.625	1	congruent	Block3	congruent/STIM_020.jpg
3414.827	0.977	1	congruent	Block3	congruent/STIM_020.jpg
3419.705	0.74	0	congruent	Block3	congruent/STIM_021.jpg
3422.964	1.114	0	congruent	Block3	congruent/STIM_021.jpg
3427.778	1.108	0	congruent	Block3	congruent/STIM_021.jpg
3431.658	0.736	0	congruent	Block3	congruent/STIM_021.jpg
3436.365	1.041	1	congruent	Block3	congruent/STIM_021.jpg
3440.337	0.656	0	congruent	Block3	congruent/STIM_022.jpg
3444.258	0.783	1	congruent	Block3	congruent/STIM_022.jpg
3448.509	0.685	1	congruent	Block3	congruent/STIM_022.jpg
3451.348	0.934	1	congruent	Block3	congruent/STIM_022.jpg
3455.24	0.731	1	congruent	Block3	congruent/STIM_022.jpg
3459.291	0.795	1	congruent	Block3	congruent/STIM_023.jpg
3463.056	0.793	1	congruent	Block3	congruent/STIM_023.jpg
3466.612	0.713	0	congruent	Block3	congruent/STIM_023.jpg
3471.185	1.079	1	congruent	Block3	congruent/STIM_023.jpg
3475.406	0.71	1	congruent	Block3	congruent/STIM_023.jpg
3478.825	0.624	0	congruent	Block3	congruent/STIM_024.jpg
3483.133	1.059	1	congruent	Block3	congruent/STIM_024.jpg
3487.26	0.653	1	congruent	Block3	congruent/STIM_024.jpg
3490.481	0.825	0	congruent	Block3	congruent/STIM_024.jpg
3495.062	1.045	1	congruent	Block3	congruent/STIM_024.jpg
3498.952	1.034	1	congruent	Block3	congruent/STIM_025.jpg
3503.687	0.957	1	congruent	Block3	congruent/STIM_025.jpg
3508.228	1.011	1	congruent	Block3	congruent/STIM_025.jpg
3512.008	1.007	1	congruent	Block3	congruent/STIM_025.jpg
3515.633	0.818	1	congruent	Block3	congruent/STIM_025.jpg
3520.357	0.653	0	congruent	Block3	congruent/STIM_026.jpg
3523.523	0.979	1	congruent	Block3	congruent/STIM_026.jpg
3527.62	0.939	1	congruent	Block3	congruent/STIM_026.jpg
3530.956	1.014	1	congruent	Block3	congruent/STIM_026.jpg
3535.308	1.008	1	congruent	Block3	congruent/STIM_026.jpg
3540.007	0.945	1	congruent	Block3	congruent/STIM_027.jpg
3543.133	0.823	1	congruent	Block3	congruent/STIM_027.jpg
3547.466	1.03	1	congruent	Block3	congruent/STIM_027.jpg
3551.952	0.666	1	congruent	Block3	congruent/STIM_027.jpg
3556.59	0.882	0	congruent	Block3	congruent/STIM_027.jpg
3560.796	1.0	0	congruent	Block3	congruent/STIM_028.jpg
3564.418	0.76	1	congruent	Block3	congruent/STIM_028.jpg
3567.433	1.115	1	congruent	Block3	congruent/STIM_028.jpg
3571.093	0.786	0	congruent	Block3	congruent/STIM_028.jpg
3574.893	1.036	1	congruent	Block3	congruent/STIM_028.jpg
3579.851	1.056	1	congruent	Block3	congruent/STIM_029.jpg
3583.941	0.671	0	congruent	Block3	congruent/STIM_029.jpg
3588.053	0.914	1	congruent	Block3	congruent/STIM_029.jpg
3591.955	0.775	1	congruent	Block3	congruent/STIM_029.jpg
3595.838	0.944	1	congruent	Block3	congruent/STIM_029.jpg
