onset	duration	accuracy_binary	trial_type	learning_stage	stimulus
0.0	1.08	1	incongruent	Block1	incongruent/STIM_000.jpg
4.418	0.802	1	incongruent	Block1	incongruent/STIM_000.jpg
8.551	0.822	1	incongruent	Block1	incongruent/STIM_000.jpg
11.933	0.614	1	incongruent	Block1	incongruent/STIM_000.jpg
15.586	1.151	1	incongruent	Block1	incongruent/STIM_000.jpg
20.468	1.183	1	incongruent	Block1	incongruent/STIM_001.jpg
24.003	1.316	1	incongruent	Block1	incongruent/STIM_001.jpg
27.694	1.03	1	incongruent	Block1	incongruent/STIM_001.jpg
31.221	0.618	1	incongruent	Block1	incongruent/STIM_001.jpg
35.1	0.616	1	incongruent	Block1	incongruent/STIM_001.jpg
39.651	0.888	1	incongruent	Block1	incongruent/STIM_002.jpg
42.95	0.697	1	incongruent	Block1	incongruent/STIM_002.jpg
47.254	0.989	1	incongruent	Block1	incongruent/STIM_002.jpg
50.948	1.103	1	incongruent	Block1	incongruent/STIM_002.jpg
55.959	0.926	1	incongruent	Block1	incongruent/STIM_002.jpg
59.881	1.331	1	incongruent	Block1	incongruent/STIM_003.jpg
63.88	1.126	0	incongruent	Block1	incongruent/STIM_003.jpg
67.322	0.77	1	incongruent	Block1	incongruent/STIM_003.jpg
70.844	0.795	1	incongruent	Block1	incongruent/STIM_003.jpg
73.737	0.741	1	incongruent	Block1	incongruent/STIM_003.jpg
76.807	0.663	1	incongruent	Block1	incongruent/STIM_004.jpg
79.758	1.107	1	incongruent	Block1	incongruent/STIM_004.jpg
84.117	0.998	1	incongruent	Block1	incongruent/STIM_004.jpg
88.433	0.564	1	incongruent	Block1	incongruent/STIM_004.jpg
92.027	0.506	1	incongruent	Block1	incongruent/STIM_004.jpg
96.481	1.094	0	incongruent	Block1	incongruent/STIM_005.jpg
99.828	0.828	1	incongruent	Block1	incongruent/STIM_005.jpg
102.818	0.802	0	incongruent	Block1	incongruent/STIM_005.jpg
106.084	0.539	1	incongruent	Block1	incongruent/STIM_005.jpg
110.353	1.086	1	incongruent	Block1	incongruent/STIM_005.jpg
113.825	0.931	1	incongruent	Block1	incongruent/STIM_006.jpg
117.918	1.221	1	incongruent	Block1	incongruent/STIM_006.jpg
122.984	0.953	1	incongruent	Block1	incongruent/STIM_006.jpg
126.01	0.935	1	incongruent	Block1	incongruent/STIM_006.jpg
129.735	0.787	0	incongruent	Block1	incongruent/STIM_006.jpg
132.901	0.759	0	incongruent	Block1	incongruent/STIM_007.jpg
137.198	1.021	1	incongruent	Block1	incongruent/STIM_007.jpg
141.136	1.102	1	incongruent	Block1	incongruent/STIM_007.jpg
145.481	0.521	1	incongruent	Block1	incongruent/STIM_007.jpg
148.423	0.896	1	incongruent	Block1	incongruent/STIM_007.jpg
152.564	0.855	1	incongruent	Block1	incongruent/STIM_008.jpg
156.217	1.334	1	incongruent	Block1	incongruent/STIM_008.jpg
160.722	1.01	1	incongruent	Block1	incongruent/STIM_008.jpg
164.295	0.871	1	incongruent	Block1	incongruent/STIM_008.jpg
168.352	0.908	1	incongruent	Block1	incongruent/STIM_008.jpg
172.607	0.734	1	incongruent	Block1	incongruent/STIM_009.jpg
175.844	1.086	1	incongruent	Block1	incongruent/STIM_009.jpg
180.752	0.654	1	incongruent	Block1	incongruent/STIM_009.jpg
184.86	0.647	1	incongruent	Block1	incongruent/STIM_009.jpg
188.931	0.849	1	incongruent	Block1	incongruent/STIM_009.jpg
193.461	0.813	1	incongruent	Block1	incongruent/STIM_010.jpg
198.251	0.835	0	incongruent	Block1	incongruent/STIM_010.jpg
201.603	1.285	1	incongruent	Block1	incongruent/STIM_010.jpg
205.889	0.529	0	incongruent	Block1	incongruent/STIM_010.jpg
210.333	1.056	1	incongruent	Block1	incongruent/STIM_010.jpg
214.92	0.793	1	incongruent	Block1	incongruent/STIM_011.jpg
219.068	0.826	1	incongruent	Block1	incongruent/STIM_011.jpg
222.624	1.153	1	incongruent	Block1	incongruent/STIM_011.jpg
226.855	0.67	1	incongruent	Block1	incongruent/STIM_011.jpg
229.787	1.098	1	incongruent	Block1	incongruent/STIM_011.jpg
233.795	1.005	1	incongruent	Block1	incongruent/STIM_012.jpg
237.017	0.978	0	incongruent	Block1	incongruent/STIM_012.jpg
240.106	0.746	1	incongruent	Block1	incongruent/STIM_012.jpg
243.782	0.739	1	incongruent	Block1	incongruent/STIM_012.jpg
246.702	0.833	1	incongruent	Block1	incongruent/STIM_012.jpg
251.286	0.949	1	incongruent	Block1	incongruent/STIM_013.jpg
255.175	0.84	0	incongruent	Block1	incongruent/STIM_013.jpg
259.549	1.104	0	incongruent	Block1	incongruent/STIM_013.jpg
264.35	0.863	1	incongruent	Block1	incongruent/STIM_013.jpg
267.516	0.908	0	incongruent	Block1	incongruent/STIM_013.jpg
272.152	1.163	1	incongruent	Block1	incongruent/STIM_014.jpg
277.088	0.851	1	incongruent	Block1	incongruent/STIM_014.jpg
281.846	0.932	1	incongruent	Block1	incongruent/STIM_014.jpg
286.186	0.752	1	incongruent	Block1	incongruent/STIM_014.jpg
290.334	0.508	1	incongruent	Block1	incongruent/STIM_014.jpg
293.34	1.112	1	incongruent	Block1	incongruent/STIM_015.jpg
298.142	1.219	1	incongruent	Block1	incongruent/STIM_015.jpg
302.237	1.114	1	incongruent	Block1	incongruent/STIM_015.jpg
305.381	1.217	1	incongruent	Block1	incongruent/STIM_015.jpg
309.612	1.141	0	incongruent	Block1	incongruent/STIM_015.jpg
313.599	0.74	1	incongruent	Block1	incongruent/STIM_016.jpg
316.443	1.183	1	incongruent	Block1	incongruent/STIM_016.jpg
319.716	1.272	1	incongruent	Block1	incongruent/STIM_016.jpg
323.182	0.752	1	incongruent	Block1	incongruent/STIM_016.jpg
327.886	0.781	1	incongruent	Block1	incongruent/STIM_016.jpg
331.23	1.134	1	incongruent	Block1	incongruent/STIM_017.jpg
335.838	1.325	1	incongruent	Block1	incongruent/STIM_017.jpg
340.113	1.162	1	incongruent	Block1	incongruent/STIM_017.jpg
345.001	0.949	1	incongruent	Block1	incongruent/STIM_017.jpg
348.954	0.979	1	incongruent	Block1	incongruent/STIM_017.jpg
352.574	0.868	1	incongruent	Block1	incongruent/STIM_018.jpg
356.533	1.32	1	incongruent	Block1	incongruent/STIM_018.jpg
360.951	0.755	1	incongruent	Block1	incongruent/STIM_018.jpg
363.842	0.945	0	incongruent	Block1	incongruent/STIM_018.jpg
368.45	0.618	1	incongruent	Block1	incongruent/STIM_018.jpg
371.716	1.361	0	incongruent	Block1	incongruent/STIM_019.jpg
376.122	1.211	1	incongruent	Block1	incongruent/STIM_019.jpg
380.752	1.206	1	incongruent	Block1	incongruent/STIM_019.jpg
385.432	1.107	0	incongruent	Block1	incongruent/STIM_019.jpg
389.307	0.662	0	incongruent	Block1	incongruent/STIM_019.jpg
393.718	1.159	1	incongruent	Block1	incongruent/STIM_020.jpg
398.148	0.828	1	incongruent	Block1	incongruent/STIM_020.jpg
402.795	0.775	1	incongruent	Block1	incongruent/STIM_020.jpg
406.957	0.912	1	incongruent	Block1	incongruent/STIM_020.jpg
410.462	0.666	1	incongruent	Block1	incongruent/STIM_020.jpg
415.16	1.268	1	incongruent	Block1	incongruent/STIM_021.jpg
420.592	1.308	1	incongruent	Block1	incongruent/STIM_021.jpg
425.724	1.136	1	incongruent	Block1	incongruent/STIM_021.jpg
428.883	1.262	1	incongruent	Block1	incongruent/STIM_021.jpg
432.314	1.104	1	incongruent	Block1	incongruent/STIM_021.jpg
436.746	1.228	1	incongruent	Block1	incongruent/STIM_022.jpg
440.46	0.89	1	incongruent	Block1	incongruent/STIM_022.jpg
444.409	0.782	1	incongruent	Block1	incongruent/STIM_022.jpg
448.643	1.107	0	incongruent	Block1	incongruent/STIM_022.jpg
453.436	0.544	0	incongruent	Block1	incongruent/STIM_022.jpg
456.641	0.574	1	incongruent	Block1	incongruent/STIM_023.jpg
459.516	0.961	0	incongruent	Block1	incongruent/STIM_023.jpg
464.188	1.042	1	incongruent	Block1	incongruent/STIM_023.jpg
467.409	1.0	1	incongruent	Block1	incongruent/STIM_023.jpg
472.353	0.76	1	incongruent	Block1	incongruent/STIM_023.jpg
475.795	1.285	1	incongruent	Block1	incongruent/STIM_024.jpg
479.492	0.926	1	incongruent	Block1	incongruent/STIM_024.jpg
484.063	1.04	1	incongruent	Block1	incongruent/STIM_024.jpg
488.47	1.039	1	incongruent	Block1	incongruent/STIM_024.jpg
492.721	0.963	1	incongruent	Block1	incongruent/STIM_024.jpg
496.119	0.816	1	incongruent	Block1	incongruent/STIM_025.jpg
500.176	0.863	1	incongruent	Block1	incongruent/STIM_025.jpg
504.745	1.273	1	incongruent	Block1	incongruent/STIM_025.jpg
508.735	0.712	1	incongruent	Block1	incongruent/STIM_025.jpg
512.965	0.754	1	incongruent	Block1	incongruent/STIM_025.jpg
516.566	0.863	0	incongruent	Block1	incongruent/STIM_026.jpg
519.529	0.927	1	incongruent	Block1	incongruent/STIM_026.jpg
523.907	0.745	1	incongruent	Block1	incongruent/STIM_026.jpg
527.499	0.78	0	incongruent	Block1	incongruent/STIM_026.jpg
531.623	0.887	1	incongruent	Block1	incongruent/STIM_026.jpg
535.496	1.124	1	incongruent	Block1	incongruent/STIM_027.jpg
538.798	0.742	1	incongruent	Block1	incongruent/STIM_027.jpg
542.371	1.066	0	incongruent	Block1	incongruent/STIM_027.jpg
546.123	1.145	1	incongruent	Block1	incongruent/STIM_027.jpg
550.977	0.716	1	incongruent	Block1	incongruent/STIM_027.jpg
554.143	1.239	1	incongruent	Block1	incongruent/STIM_028.jpg
558.011	0.639	1	incongruent	Block1	incongruent/STIM_028.jpg
561.009	0.613	0	incongruent	Block1	incongruent/STIM_028.jpg
565.363	0.712	1	incongruent	Block1	incongruent/STIM_028.jpg
569.987	0.74	1	incongruent	Block1	incongruent/STIM_028.jpg
573.148	0.793	1	incongruent	Block1	incongruent/STIM_029.jpg
577.083	0.749	1	incongruent	Block1	incongruent/STIM_029.jpg
581.717	1.199	1	incongruent	Block1	incongruent/STIM_029.jpg
585.479	1.006	1	incongruent	Block1	incongruent/STIM_029.jpg
588.628	1.153	1	incongruent	Block1	incongruent/STIM_029.jpg
591.911	0.568	1	congruent	Block1	congruent/STIM_000.jpg
595.623	0.715	1	congruent	Block1	congruent/STIM_000.jpg
599.381	0.69	1	congruent	Block1	congruent/STIM_000.jpg
602.258	0.545	1	congruent	Block1	congruent/STIM_000.jpg
605.992	0.515	1	congruent	Block1	congruent/STIM_000.jpg
608.826	0.625	1	congruent	Block1	congruent/STIM_001.jpg
613.375	0.526	1	congruent	Block1	congruent/STIM_001.jpg
616.779	0.69	1	congruent	Block1	congruent/STIM_001.jpg
620.395	0.496	1	congruent	Block1	congruent/STIM_001.jpg
623.156	0.842	1	congruent	Block1	congruent/STIM_001.jpg
627.445	0.722	1	congruent	Block1	congruent/STIM_002.jpg
631.995	0.681	1	congruent	Block1	congruent/STIM_002.jpg
635.437	0.667	1	congruent	Block1	congruent/STIM_002.jpg
638.651	0.38	1	congruent	Block1	congruent/STIM_002.jpg
642.056	0.535	1	congruent	Block1	congruent/STIM_002.jpg
645.412	0.823	1	congruent	Block1	congruent/STIM_003.jpg
649.821	0.514	1	congruent	Block1	congruent/STIM_003.jpg
654.351	0.494	1	congruent	Block1	congruent/STIM_003.jpg
658.291	0.713	1	congruent	Block1	congruent/STIM_003.jpg
661.066	0.476	1	congruent	Block1	congruent/STIM_003.jpg
664.077	0.707	1	congruent	Block1	congruent/STIM_004.jpg
668.169	0.53	1	congruent	Block1	congruent/STIM_004.jpg
671.681	0.579	1	congruent	Block1	congruent/STIM_004.jpg
675.869	0.514	1	congruent	Block1	congruent/STIM_004.jpg
680.001	0.791	1	congruent	Block1	congruent/STIM_004.jpg
683.583	0.734	1	congruent	Block1	congruent/STIM_005.jpg
686.411	0.708	1	congruent	Block1	congruent/STIM_005.jpg
690.841	0.616	1	congruent	Block1	congruent/STIM_005.jpg
695.102	0.7	1	congruent	Block1	congruent/STIM_005.jpg
698.093	0.714	1	congruent	Block1	congruent/STIM_005.jpg
701.062	0.822	1	congruent	Block1	congruent/STIM_006.jpg
704.68	0.953	1	congruent	Block1	congruent/STIM_006.jpg
708.987	0.576	1	congruent	Block1	congruent/STIM_006.jpg
713.614	0.57	1	congruent	Block1	congruent/STIM_006.jpg
716.337	0.59	1	congruent	Block1	congruent/STIM_006.jpg
719.573	0.782	1	congruent	Block1	congruent/STIM_007.jpg
723.849	0.611	1	congruent	Block1	congruent/STIM_007.jpg
726.726	0.567	1	congruent	Block1	congruent/STIM_007.jpg
729.489	0.549	1	congruent	Block1	congruent/STIM_007.jpg
733.02	0.561	1	congruent	Block1	congruent/STIM_007.jpg
735.921	0.796	0	congruent	Block1	congruent/STIM_008.jpg
739.392	0.56	1	congruent	Block1	congruent/STIM_008.jpg
742.327	0.541	1	congruent	Block1	congruent/STIM_008.jpg
745.741	0.669	1	congruent	Block1	congruent/STIM_008.jpg
749.596	0.83	1	congruent	Block1	congruent/STIM_008.jpg
753.732	0.761	1	congruent	Block1	congruent/STIM_009.jpg
757.657	0.616	1	congruent	Block1	congruent/STIM_009.jpg
761.058	0.652	1	congruent	Block1	congruent/STIM_009.jpg
764.402	0.585	1	congruent	Block1	congruent/STIM_009.jpg
769.011	0.756	1	congruent	Block1	congruent/STIM_009.jpg
773.845	0.67	1	congruent	Block1	congruent/STIM_010.jpg
777.26	0.695	1	congruent	Block1	congruent/STIM_010.jpg
780.803	0.904	1	congruent	Block1	congruent/STIM_010.jpg
784.485	0.688	1	congruent	Block1	congruent/STIM_010.jpg
787.638	0.574	1	congruent	Block1	congruent/STIM_010.jpg
791.134	0.446	1	congruent	Block1	congruent/STIM_011.jpg
794.854	0.577	1	congruent	Block1	congruent/STIM_011.jpg
798.457	0.538	1	congruent	Block1	congruent/STIM_011.jpg
801.49	0.699	1	congruent	Block1	congruent/STIM_011.jpg
805.725	0.788	1	congruent	Block1	congruent/STIM_011.jpg
809.573	0.563	1	congruent	Block1	congruent/STIM_012.jpg
812.559	0.7	1	congruent	Block1	congruent/STIM_012.jpg
816.415	0.824	1	congruent	Block1	congruent/STIM_012.jpg
820.74	0.69	1	congruent	Block1	congruent/STIM_012.jpg
825.305	0.749	1	congruent	Block1	congruent/STIM_012.jpg
829.232	0.5	1	congruent	Block1	congruent/STIM_013.jpg
832.801	0.618	1	congruent	Block1	congruent/STIM_013.jpg
837.181	0.682	1	congruent	Block1	congruent/STIM_013.jpg
840.723	0.717	1	congruent	Block1	congruent/STIM_013.jpg
845.204	0.845	1	congruent	Block1	congruent/STIM_013.jpg
848.26	0.989	1	congruent	Block1	congruent/STIM_014.jpg
851.859	0.823	1	congruent	Block1	congruent/STIM_014.jpg
856.739	0.646	1	congruent	Block1	congruent/STIM_014.jpg
859.457	0.778	1	congruent	Block1	congruent/STIM_014.jpg
863.41	0.503	1	congruent	Block1	congruent/STIM_014.jpg
866.609	0.813	1	congruent	Block1	congruent/STIM_015.jpg
869.959	0.552	1	congruent	Block1	congruent/STIM_015.jpg
873.86	0.635	1	congruent	Block1	congruent/STIM_015.jpg
877.256	0.894	1	congruent	Block1	congruent/STIM_015.jpg
881.352	0.689	1	congruent	Block1	congruent/STIM_015.jpg
885.613	0.806	1	congruent	Block1	congruent/STIM_016.jpg
889.641	0.843	1	congruent	Block1	congruent/STIM_016.jpg
893.665	0.676	1	congruent	Block1	congruent/STIM_016.jpg
898.394	0.751	1	congruent	Block1	congruent/STIM_016.jpg
901.408	0.687	1	congruent	Block1	congruent/STIM_016.jpg
905.265	0.742	1	congruent	Block1	congruent/STIM_017.jpg
909.877	0.686	1	congruent	Block1	congruent/STIM_017.jpg
914.469	0.727	1	congruent	Block1	congruent/STIM_017.jpg
918.358	0.578	1	congruent	Block1	congruent/STIM_017.jpg
921.776	0.607	1	congruent	Block1	congruent/STIM_017.jpg
926.0	0.706	1	congruent	Block1	congruent/STIM_018.jpg
929.116	0.753	1	congruent	Block1	congruent/STIM_018.jpg
932.967	0.73	1	congruent	Block1	congruent/STIM_018.jpg
937.243	0.641	1	congruent	Block1	congruent/STIM_018.jpg
941.076	0.46	1	congruent	Block1	congruent/STIM_018.jpg
944.886	0.823	1	congruent	Block1	congruent/STIM_019.jpg
949.566	0.397	1	congruent	Block1	congruent/STIM_019.jpg
952.271	0.686	1	congruent	Block1	congruent/STIM_019.jpg
955.984	0.634	1	congruent	Block1	congruent/STIM_019.jpg
959.739	0.802	1	congruent	Block1	congruent/STIM_019.jpg
962.936	0.708	1	congruent	Block1	congruent/STIM_020.jpg
966.171	0.644	1	congruent	Block1	congruent/STIM_020.jpg
970.072	0.77	1	congruent	Block1	congruent/STIM_020.jpg
973.351	0.724	1	congruent	Block1	congruent/STIM_020.jpg
976.502	0.408	1	congruent	Block1	congruent/STIM_020.jpg
980.533	0.941	1	congruent	Block1	congruent/STIM_021.jpg
983.489	0.612	1	congruent	Block1	congruent/STIM_021.jpg
986.783	0.7	1	congruent	Block1	congruent/STIM_021.jpg
989.707	0.554	1	congruent	Block1	congruent/STIM_021.jpg
992.801	0.618	1	congruent	Block1	congruent/STIM_021.jpg
995.861	0.835	1	congruent	Block1	congruent/STIM_022.jpg
998.786	0.806	1	congruent	Block1	congruent/STIM_022.jpg
1002.651	0.83	1	congruent	Block1	congruent/STIM_022.jpg
1005.597	0.537	1	congruent	Block1	congruent/STIM_022.jpg
1009.289	0.698	1	congruent	Block1	congruent/STIM_022.jpg
1012.155	0.799	1	congruent	Block1	congruent/STIM_023.jpg
1015.266	0.674	1	congruent	Block1	congruent/STIM_023.jpg
1019.551	0.855	1	congruent	Block1	congruent/STIM_023.jpg
1023.737	0.534	1	congruent	Block1	congruent/STIM_023.jpg
1026.615	0.711	1	congruent	Block1	congruent/STIM_023.jpg
1029.495	0.476	1	congruent	Block1	congruent/STIM_024.jpg
1032.217	0.521	1	congruent	Block1	congruent/STIM_024.jpg
1035.373	0.82	1	congruent	Block1	congruent/STIM_024.jpg
1039.486	0.659	1	congruent	Block1	congruent/STIM_024.jpg
1042.567	0.854	1	congruent	Block1	congruent/STIM_024.jpg
1046.328	0.656	1	congruent	Block1	congruent/STIM_025.jpg
1049.686	0.549	1	congruent	Block1	congruent/STIM_025.jpg
1053.355	0.59	1	congruent	Block1	congruent/STIM_025.jpg
1056.377	0.457	1	congruent	Block1	congruent/STIM_025.jpg
1059.108	0.576	1	congruent	Block1	congruent/STIM_025.jpg
1062.933	0.587	1	congruent	Block1	congruent/STIM_026.jpg
1066.972	0.778	1	congruent	Block1	congruent/STIM_026.jpg
1069.913	0.411	1	congruent	Block1	congruent/STIM_026.jpg
1073.108	0.425	1	congruent	Block1	congruent/STIM_026.jpg
1077.416	0.663	1	congruent	Block1	congruent/STIM_026.jpg
1082.028	0.507	1	congruent	Block1	congruent/STIM_027.jpg
1085.134	0.719	1	congruent	Block1	congruent/STIM_027.jpg
1089.797	0.447	1	congruent	Block1	congruent/STIM_027.jpg
1093.068	0.686	1	congruent	Block1	congruent/STIM_027.jpg
1097.218	0.819	1	congruent	Block1	congruent/STIM_027.jpg
1101.005	0.71	1	congruent	Block1	congruent/STIM_028.jpg
1105.111	0.751	1	congruent	Block1	congruent/STIM_028.jpg
1108.434	0.675	1	congruent	Block1	congruent/STIM_028.jpg
1111.691	0.707	1	congruent	Block1	congruent/STIM_028.jpg
1114.848	0.619	1	congruent	Block1	congruent/STIM_028.jpg
1118.133	0.708	1	congruent	Block1	congruent/STIM_029.jpg
1122.637	0.746	1	congruent	Block1	congruent/STIM_029.jpg
1126.008	0.588	1	congruent	Block1	congruent/STIM_029.jpg
1130.362	0.753	1	congruent	Block1	congruent/STIM_029.jpg
1133.217	0.616	1	congruent	Block1	congruent/STIM_029.jpg
1136.407	1.263	1	incongruent	Block2	incongruent/STIM_000.jpg
1141.191	1.167	1	incongruent	Block2	incongruent/STIM_000.jpg
1146.126	0.717	1	incongruent	Block2	incongruent/STIM_000.jpg
1149.069	1.046	1	incongruent	Block2	incongruent/STIM_000.jpg
1152.46	0.53	1	incongruent	Block2	incongruent/STIM_000.jpg
1156.633	0.973	1	incongruent	Block2	incongruent/STIM_001.jpg
1160.313	1.017	1	incongruent	Block2	incongruent/STIM_001.jpg
1165.068	0.515	1	incongruent	Block2	incongruent/STIM_001.jpg
1168.228	0.623	1	incongruent	Block2	incongruent/STIM_001.jpg
1171.857	0.833	1	incongruent	Block2	incongruent/STIM_001.jpg
1175.054	1.14	1	incongruent	Block2	incongruent/STIM_002.jpg
1179.273	0.675	0	incongruent	Block2	incongruent/STIM_002.jpg
1183.258	1.071	0	incongruent	Block2	incongruent/STIM_002.jpg
1187.607	0.633	1	incongruent	Block2	incongruent/STIM_002.jpg
1191.324	0.623	1	incongruent	Block2	incongruent/STIM_002.jpg
1194.488	0.856	1	incongruent	Block2	incongruent/STIM_003.jpg
1197.444	0.474	1	incongruent	Block2	incongruent/STIM_003.jpg
1200.951	0.681	1	incongruent	Block2	incongruent/STIM_003.jpg
1204.622	0.806	1	incongruent	Block2	incongruent/STIM_003.jpg
1209.245	0.744	1	incongruent	Block2	incongruent/STIM_003.jpg
1212.067	1.056	1	incongruent	Block2	incongruent/STIM_004.jpg
1215.755	1.176	0	incongruent	Block2	incongruent/STIM_004.jpg
1219.132	1.068	1	incongruent	Block2	incongruent/STIM_004.jpg
1223.421	0.476	1	incongruent	Block2	incongruent/STIM_004.jpg
1226.628	0.704	1	incongruent	Block2	incongruent/STIM_004.jpg
1229.64	0.698	1	incongruent	Block2	incongruent/STIM_005.jpg
1232.874	0.582	1	incongruent	Block2	incongruent/STIM_005.jpg
1237.345	0.513	1	incongruent	Block2	incongruent/STIM_005.jpg
1241.589	0.658	1	incongruent	Block2	incongruent/STIM_005.jpg
1245.499	0.698	1	incongruent	Block2	incongruent/STIM_005.jpg
1249.623	0.588	1	incongruent	Block2	incongruent/STIM_006.jpg
1252.814	0.838	1	incongruent	Block2	incongruent/STIM_006.jpg
1256.845	0.564	1	incongruent	Block2	incongruent/STIM_006.jpg
1261.445	0.478	1	incongruent	Block2	incongruent/STIM_006.jpg
1264.291	0.83	1	incongruent	Block2	incongruent/STIM_006.jpg
1268.244	0.768	1	incongruent	Block2	incongruent/STIM_007.jpg
1271.122	0.953	1	incongruent	Block2	incongruent/STIM_007.jpg
1274.949	1.076	1	incongruent	Block2	incongruent/STIM_007.jpg
1279.255	0.481	1	incongruent	Block2	incongruent/STIM_007.jpg
1282.706	0.655	1	incongruent	Block2	incongruent/STIM_007.jpg
1286.658	0.631	1	incongruent	Block2	incongruent/STIM_008.jpg
1290.16	1.125	0	incongruent	Block2	incongruent/STIM_008.jpg
1294.362	0.637	1	incongruent	Block2	incongruent/STIM_008.jpg
1298.516	0.918	1	incongruent	Block2	incongruent/STIM_008.jpg
1301.617	0.88	1	incongruent	Block2	incongruent/STIM_008.jpg
1305.336	1.14	1	incongruent	Block2	incongruent/STIM_009.jpg
1309.248	1.14	1	incongruent	Block2	incongruent/STIM_009.jpg
1313.647	0.989	1	incongruent	Block2	incongruent/STIM_009.jpg
1318.413	0.701	1	incongruent	Block2	incongruent/STIM_009.jpg
1322.679	0.519	1	incongruent	Block2	incongruent/STIM_009.jpg
1327.154	0.956	1	incongruent	Block2	incongruent/STIM_010.jpg
1332.027	1.067	1	incongruent	Block2	incongruent/STIM_010.jpg
1335.926	0.445	1	incongruent	Block2	incongruent/STIM_010.jpg
1339.385	0.584	1	incongruent	Block2	incongruent/STIM_010.jpg
1343.646	0.751	1	incongruent	Block2	incongruent/STIM_010.jpg
1347.609	0.654	1	incongruent	Block2	incongruent/STIM_011.jpg
1351.086	0.885	1	incongruent	Block2	incongruent/STIM_011.jpg
1354.633	0.905	1	incongruent	Block2	incongruent/STIM_011.jpg
1357.858	0.528	1	incongruent	Block2	incongruent/STIM_011.jpg
1361.226	0.779	1	incongruent	Block2	incongruent/STIM_011.jpg
1364.927	0.846	1	incongruent	Block2	incongruent/STIM_012.jpg
1368.405	0.735	1	incongruent	Block2	incongruent/STIM_012.jpg
1371.178	0.621	1	incongruent	Block2	incongruent/STIM_012.jpg
1375.162	0.778	1	incongruent	Block2	incongruent/STIM_012.jpg
1379.106	0.871	1	incongruent	Block2	incongruent/STIM_012.jpg
1382.862	0.832	1	incongruent	Block2	incongruent/STIM_013.jpg
1386.457	0.781	1	incongruent	Block2	incongruent/STIM_013.jpg
1389.615	0.65	1	incongruent	Block2	incongruent/STIM_013.jpg
1394.275	0.514	1	incongruent	Block2	incongruent/STIM_013.jpg
1397.135	0.902	1	incongruent	Block2	incongruent/STIM_013.jpg
1400.125	0.76	1	incongruent	Block2	incongruent/STIM_014.jpg
1402.861	0.591	1	incongruent	Block2	incongruent/STIM_014.jpg
1406.704	0.762	1	incongruent	Block2	incongruent/STIM_014.jpg
1411.411	0.652	1	incongruent	Block2	incongruent/STIM_014.jpg
1415.93	0.89	1	incongruent	Block2	incongruent/STIM_014.jpg
1419.466	0.904	1	incongruent	Block2	incongruent/STIM_015.jpg
1423.686	0.752	1	incongruent	Block2	incongruent/STIM_015.jpg
1426.954	0.701	1	incongruent	Block2	incongruent/STIM_015.jpg
1430.662	0.572	0	incongruent	Block2	incongruent/STIM_015.jpg
1435.351	0.979	1	incongruent	Block2	incongruent/STIM_015.jpg
1438.407	0.71	1	incongruent	Block2	incongruent/STIM_016.jpg
1442.409	1.002	1	incongruent	Block2	incongruent/STIM_016.jpg
1446.523	0.93	1	incongruent	Block2	incongruent/STIM_016.jpg
1450.112	0.666	1	incongruent	Block2	incongruent/STIM_016.jpg
1453.417	1.045	1	incongruent	Block2	incongruent/STIM_016.jpg
1457.283	1.04	1	incongruent	Block2	incongruent/STIM_017.jpg
1461.796	0.646	1	incongruent	Block2	incongruent/STIM_017.jpg
1464.979	0.67	1	incongruent	Block2	incongruent/STIM_017.jpg
1469.52	0.627	1	incongruent	Block2	incongruent/STIM_017.jpg
1474.107	0.579	1	incongruent	Block2	incongruent/STIM_017.jpg
1477.333	0.656	1	incongruent	Block2	incongruent/STIM_018.jpg
1480.856	0.865	1	incongruent	Block2	incongruent/STIM_018.jpg
1485.366	0.549	1	incongruent	Block2	incongruent/STIM_018.jpg
1488.946	0.419	1	incongruent	Block2	incongruent/STIM_018.jpg
1492.259	0.566	1	incongruent	Block2	incongruent/STIM_018.jpg
1495.79	0.818	1	incongruent	Block2	incongruent/STIM_019.jpg
1499.831	0.618	1	incongruent	Block2	incongruent/STIM_019.jpg
1503.78	0.976	1	incongruent	Block2	incongruent/STIM_019.jpg
1507.482	0.782	1	incongruent	Block2	incongruent/STIM_019.jpg
1511.35	0.768	1	incongruent	Block2	incongruent/STIM_019.jpg
1516.083	0.773	1	incongruent	Block2	incongruent/STIM_020.jpg
1520.42	1.095	1	incongruent	Block2	incongruent/STIM_020.jpg
1524.659	0.668	1	incongruent	Block2	incongruent/STIM_020.jpg
1527.651	0.696	1	incongruent	Block2	incongruent/STIM_020.jpg
1530.788	1.038	1	incongruent	Block2	incongruent/STIM_020.jpg
1534.684	0.595	1	incongruent	Block2	incongruent/STIM_021.jpg
1539.154	0.655	1	incongruent	Block2	incongruent/STIM_021.jpg
1542.601	0.858	1	incongruent	Block2	incongruent/STIM_021.jpg
1545.516	0.576	1	incongruent	Block2	incongruent/STIM_021.jpg
1548.559	1.015	1	incongruent	Block2	incongruent/STIM_021.jpg
1552.234	1.254	1	incongruent	Block2	incongruent/STIM_022.jpg
1557.202	1.157	1	incongruent	Block2	incongruent/STIM_022.jpg
1562.053	0.632	1	incongruent	Block2	incongruent/STIM_022.jpg
1564.895	0.769	1	incongruent	Block2	incongruent/STIM_022.jpg
1568.883	0.81	1	incongruent	Block2	incongruent/STIM_022.jpg
1571.833	0.871	1	incongruent	Block2	incongruent/STIM_023.jpg
1575.132	1.118	1	incongruent	Block2	incongruent/STIM_023.jpg
1579.657	0.893	1	incongruent	Block2	incongruent/STIM_023.jpg
1583.873	0.784	1	incongruent	Block2	incongruent/STIM_023.jpg
1588.675	0.704	1	incongruent	Block2	incongruent/STIM_023.jpg
1591.841	0.968	1	incongruent	Block2	incongruent/STIM_024.jpg
1596.565	0.902	1	incongruent	Block2	incongruent/STIM_024.jpg
1600.137	0.482	1	incongruent	Block2	incongruent/STIM_024.jpg
1604.408	0.843	1	incongruent	Block2	incongruent/STIM_024.jpg
1607.974	0.484	1	incongruent	Block2	incongruent/STIM_024.jpg
1610.702	1.255	1	incongruent	Block2	incongruent/STIM_025.jpg
1615.042	0.891	1	incongruent	Block2	incongruent/STIM_025.jpg
1618.867	0.62	1	incongruent	Block2	incongruent/STIM_025.jpg
1623.229	0.643	1	incongruent	Block2	incongruent/STIM_025.jpg
1626.598	0.513	1	incongruent	Block2	incongruent/STIM_025.jpg
1629.906	1.137	1	incongruent	Block2	incongruent/STIM_026.jpg
1634.722	0.681	1	incongruent	Block2	incongruent/STIM_026.jpg
1637.611	1.051	1	incongruent	Block2	incongruent/STIM_026.jpg
1642.143	0.529	1	incongruent	Block2	incongruent/STIM_026.jpg
1646.103	0.509	1	incongruent	Block2	incongruent/STIM_026.jpg
1650.245	0.794	1	incongruent	Block2	incongruent/STIM_027.jpg
1654.318	0.801	1	incongruent	Block2	incongruent/STIM_027.jpg
1658.296	0.792	1	incongruent	Block2	incongruent/STIM_027.jpg
1662.585	0.601	1	incongruent	Block2	incongruent/STIM_027.jpg
1665.107	0.941	1	incongruent	Block2	incongruent/STIM_027.jpg
1668.445	1.145	1	incongruent	Block2	incongruent/STIM_028.jpg
1672.661	0.929	1	incongruent	Block2	incongruent/STIM_028.jpg
1677.248	0.5	1	incongruent	Block2	incongruent/STIM_028.jpg
1680.765	0.465	1	incongruent	Block2	incongruent/STIM_028.jpg
1684.764	0.511	1	incongruent	Block2	incongruent/STIM_028.jpg
1688.71	1.002	1	incongruent	Block2	incongruent/STIM_029.jpg
1693.415	0.815	1	incongruent	Block2	incongruent/STIM_029.jpg
1697.697	0.419	1	incongruent	Block2	incongruent/STIM_029.jpg
1702.08	0.594	1	incongruent	Block2	incongruent/STIM_029.jpg
1706.386	0.716	1	incongruent	Block2	incongruent/STIM_029.jpg
1710.044	0.739	1	congruent	Block2	congruent/STIM_000.jpg
1713.752	0.75	1	congruent	Block2	congruent/STIM_000.jpg
1717.429	0.822	1	congruent	Block2	congruent/STIM_000.jpg
1721.39	0.729	1	congruent	Block2	congruent/STIM_000.jpg
1724.835	0.89	0	congruent	Block2	congruent/STIM_000.jpg
1728.774	0.797	1	congruent	Block2	congruent/STIM_001.jpg
1733.294	0.587	1	congruent	Block2	congruent/STIM_001.jpg
1737.137	0.651	1	congruent	Block2	congruent/STIM_001.jpg
1741.064	0.717	1	congruent	Block2	congruent/STIM_001.jpg
1744.173	0.553	1	congruent	Block2	congruent/STIM_001.jpg
1746.968	0.589	1	congruent	Block2	congruent/STIM_002.jpg
1751.209	0.723	1	congruent	Block2	congruent/STIM_002.jpg
1754.269	0.408	1	congruent	Block2	congruent/STIM_002.jpg
1758.042	0.679	1	congruent	Block2	congruent/STIM_002.jpg
1761.179	0.613	1	congruent	Block2	congruent/STIM_002.jpg
1765.671	0.558	1	congruent	Block2	congruent/STIM_003.jpg
1769.491	0.817	1	congruent	Block2	congruent/STIM_003.jpg
1772.834	0.682	1	congruent	Block2	congruent/STIM_003.jpg
1776.286	0.548	1	congruent	Block2	congruent/STIM_003.jpg
1779.662	0.558	1	congruent	Block2	congruent/STIM_003.jpg
1782.332	0.762	1	congruent	Block2	congruent/STIM_004.jpg
1786.565	0.69	1	congruent	Block2	congruent/STIM_004.jpg
1790.662	0.581	1	congruent	Block2	congruent/STIM_004.jpg
1794.533	0.618	1	congruent	Block2	congruent/STIM_004.jpg
1797.355	0.616	1	congruent	Block2	congruent/STIM_004.jpg
1800.164	0.748	1	congruent	Block2	congruent/STIM_005.jpg
1803.96	0.639	1	congruent	Block2	congruent/STIM_005.jpg
1807.422	0.691	1	congruent	Block2	congruent/STIM_005.jpg
1811.481	0.721	1	congruent	Block2	congruent/STIM_005.jpg
1814.478	0.918	1	congruent	Block2	congruent/STIM_005.jpg
1819.287	0.542	1	congruent	Block2	congruent/STIM_006.jpg
1822.136	0.604	1	congruent	Block2	congruent/STIM_006.jpg
1826.613	0.477	1	congruent	Block2	congruent/STIM_006.jpg
1831.109	0.718	1	congruent	Block2	congruent/STIM_006.jpg
1834.665	0.642	0	congruent	Block2	congruent/STIM_006.jpg
1839.008	0.444	1	congruent	Block2	congruent/STIM_007.jpg
1843.359	0.729	1	congruent	Block2	congruent/STIM_007.jpg
1846.709	0.541	1	congruent	Block2	congruent/STIM_007.jpg
1849.859	0.633	1	congruent	Block2	congruent/STIM_007.jpg
1852.88	0.697	1	congruent	Block2	congruent/STIM_007.jpg
1857.435	0.68	1	congruent	Block2	congruent/STIM_008.jpg
1860.246	0.487	1	congruent	Block2	congruent/STIM_008.jpg
1863.827	0.629	1	congruent	Block2	congruent/STIM_008.jpg
1868.0	0.716	1	congruent	Block2	congruent/STIM_008.jpg
1872.653	0.616	1	congruent	Block2	congruent/STIM_008.jpg
1875.889	0.535	1	congruent	Block2	congruent/STIM_009.jpg
1878.657	0.801	1	congruent	Block2	congruent/STIM_009.jpg
1882.462	0.473	1	congruent	Block2	congruent/STIM_009.jpg
1885.476	0.537	1	congruent	Block2	congruent/STIM_009.jpg
1890.008	0.712	1	congruent	Block2	congruent/STIM_009.jpg
1892.897	0.682	1	congruent	Block2	congruent/STIM_010.jpg
1896.158	0.792	1	congruent	Block2	congruent/STIM_010.jpg
1900.592	0.748	1	congruent	Block2	congruent/STIM_010.jpg
1904.521	0.788	1	congruent	Block2	congruent/STIM_010.jpg
1907.879	0.501	1	congruent	Block2	congruent/STIM_010.jpg
1910.919	0.543	1	congruent	Block2	congruent/STIM_011.jpg
1914.79	0.548	1	congruent	Block2	congruent/STIM_011.jpg
1918.342	0.73	1	congruent	Block2	congruent/STIM_011.jpg
1921.856	0.614	1	congruent	Block2	congruent/STIM_011.jpg
1925.283	0.58	1	congruent	Block2	congruent/STIM_011.jpg
1928.15	0.583	1	congruent	Block2	congruent/STIM_012.jpg
1932.125	0.632	1	congruent	Block2	congruent/STIM_012.jpg
1935.106	0.742	1	congruent	Block2	congruent/STIM_012.jpg
1939.608	0.45	1	congruent	Block2	congruent/STIM_012.jpg
1943.194	0.646	1	congruent	Block2	congruent/STIM_012.jpg
1946.792	0.666	1	congruent	Block2	congruent/STIM_013.jpg
1949.98	0.75	1	congruent	Block2	congruent/STIM_013.jpg
1953.037	0.59	1	congruent	Block2	congruent/STIM_013.jpg
1957.077	0.851	1	congruent	Block2	congruent/STIM_013.jpg
1960.667	0.65	1	congruent	Block2	congruent/STIM_013.jpg
1963.293	0.604	1	congruent	Block2	congruent/STIM_014.jpg
1966.772	0.782	1	congruent	Block2	congruent/STIM_014.jpg
1970.282	0.893	1	congruent	Block2	congruent/STIM_014.jpg
1974.181	0.758	1	congruent	Block2	congruent/STIM_014.jpg
1977.214	0.427	1	congruent	Block2	congruent/STIM_014.jpg
1980.093	0.802	1	congruent	Block2	congruent/STIM_015.jpg
1983.527	0.545	1	congruent	Block2	congruent/STIM_015.jpg
1987.739	0.617	1	congruent	Block2	congruent/STIM_015.jpg
1990.708	0.573	1	congruent	Block2	congruent/STIM_015.jpg
1994.124	0.661	1	congruent	Block2	congruent/STIM_015.jpg
1997.424	0.591	1	congruent	Block2	congruent/STIM_016.jpg
2000.41	0.723	1	congruent	Block2	congruent/STIM_016.jpg
2004.939	0.783	1	congruent	Block2	congruent/STIM_016.jpg
2007.903	0.887	1	congruent	Block2	congruent/STIM_016.jpg
2011.66	0.723	1	congruent	Block2	congruent/STIM_016.jpg
2015.493	0.662	1	congruent	Block2	congruent/STIM_017.jpg
2018.979	0.781	1	congruent	Block2	congruent/STIM_017.jpg
2021.892	0.564	1	congruent	Block2	congruent/STIM_017.jpg
2025.516	0.573	1	congruent	Block2	congruent/STIM_017.jpg
2029.253	0.843	1	congruent	Block2	congruent/STIM_017.jpg
2033.603	0.561	1	congruent	Block2	congruent/STIM_018.jpg
2036.182	0.515	1	congruent	Block2	congruent/STIM_018.jpg
2040.312	0.765	1	congruent	Block2	congruent/STIM_018.jpg
2044.194	0.469	1	congruent	Block2	congruent/STIM_018.jpg
2047.089	0.784	0	congruent	Block2	congruent/STIM_018.jpg
2051.083	0.731	1	congruent	Block2	congruent/STIM_019.jpg
2054.186	0.523	1	congruent	Block2	congruent/STIM_019.jpg
2057.137	0.59	1	congruent	Block2	congruent/STIM_019.jpg
2061.291	0.746	1	congruent	Block2	congruent/STIM_019.jpg
2064.332	0.771	1	congruent	Block2	congruent/STIM_019.jpg
2067.982	0.568	1	congruent	Block2	congruent/STIM_020.jpg
2071.835	0.637	1	congruent	Block2	congruent/STIM_020.jpg
2076.241	0.568	1	congruent	Block2	congruent/STIM_020.jpg
2079.799	0.852	1	congruent	Block2	congruent/STIM_020.jpg
2082.789	0.753	1	congruent	Block2	congruent/STIM_020.jpg
2086.936	0.678	1	congruent	Block2	congruent/STIM_021.jpg
2091.318	0.514	1	congruent	Block2	congruent/STIM_021.jpg
2094.128	0.763	1	congruent	Block2	congruent/STIM_021.jpg
2098.835	0.796	1	congruent	Block2	congruent/STIM_021.jpg
2101.913	0.588	1	congruent	Block2	congruent/STIM_021.jpg
2105.147	0.799	1	congruent	Block2	congruent/STIM_022.jpg
2108.187	0.856	1	congruent	Block2	congruent/STIM_022.jpg
2111.172	0.662	1	congruent	Block2	congruent/STIM_022.jpg
2115.539	0.734	1	congruent	Block2	congruent/STIM_022.jpg
2119.086	0.685	1	congruent	Block2	congruent/STIM_022.jpg
2123.077	0.525	1	congruent	Block2	congruent/STIM_023.jpg
2127.65	0.681	1	congruent	Block2	congruent/STIM_023.jpg
2130.975	0.661	1	congruent	Block2	congruent/STIM_023.jpg
2135.207	0.804	1	congruent	Block2	congruent/STIM_023.jpg
2138.329	0.608	1	congruent	Block2	congruent/STIM_023.jpg
2141.613	0.63	1	congruent	Block2	congruent/STIM_024.jpg
2145.871	0.657	1	congruent	Block2	congruent/STIM_024.jpg
2149.348	0.663	1	congruent	Block2	congruent/STIM_024.jpg
2153.571	0.593	1	congruent	Block2	congruent/STIM_024.jpg
2157.923	0.748	1	congruent	Block2	congruent/STIM_024.jpg
2162.331	0.56	1	congruent	Block2	congruent/STIM_025.jpg
2165.499	0.576	1	congruent	Block2	congruent/STIM_025.jpg
2168.833	0.595	1	congruent	Block2	congruent/STIM_025.jpg
2172.988	0.813	1	congruent	Block2	congruent/STIM_025.jpg
2176.943	0.585	1	congruent	Block2	congruent/STIM_025.jpg
2179.91	0.477	1	congruent	Block2	congruent/STIM_026.jpg
2182.497	0.608	1	congruent	Block2	congruent/STIM_026.jpg
2186.186	0.481	1	congruent	Block2	congruent/STIM_026.jpg
2188.96	0.813	1	congruent	Block2	congruent/STIM_026.jpg
2191.85	0.892	1	congruent	Block2	congruent/STIM_026.jpg
2196.428	0.773	1	congruent	Block2	congruent/STIM_027.jpg
2200.822	0.74	1	congruent	Block2	congruent/STIM_027.jpg
2205.177	0.865	1	congruent	Block2	congruent/STIM_027.jpg
2208.755	0.748	1	congruent	Block2	congruent/STIM_027.jpg
2213.27	0.542	1	congruent	Block2	congruent/STIM_027.jpg
2216.26	0.532	1	congruent	Block2	congruent/STIM_028.jpg
2219.862	0.725	1	congruent	Block2	congruent/STIM_028.jpg
2223.732	0.698	1	congruent	Block2	congruent/STIM_028.jpg
2227.42	0.499	1	congruent	Block2	congruent/STIM_028.jpg
2231.351	0.44	1	congruent	Block2	congruent/STIM_028.jpg
2235.111	0.6	1	congruent	Block2	congruent/STIM_029.jpg
2239.583	0.691	1	congruent	Block2	congruent/STIM_029.jpg
2243.105	0.55	1	congruent	Block2	congruent/STIM_029.jpg
2246.762	0.826	1	congruent	Block2	congruent/STIM_029.jpg
2251.273	0.699	1	congruent	Block2	congruent/STIM_029.jpg
2255.449	0.955	1	incongruent	Block3	incongruent/STIM_000.jpg
2259.986	0.72	1	incongruent	Block3	incongruent/STIM_000.jpg
2263.658	0.593	1	incongruent	Block3	incongruent/STIM_000.jpg
2266.919	0.613	1	incongruent	Block3	incongruent/STIM_000.jpg
2269.612	0.632	1	incongruent	Block3	incongruent/STIM_000.jpg
2273.35	0.862	1	incongruent	Block3	incongruent/STIM_001.jpg
2277.803	0.577	1	incongruent	Block3	incongruent/STIM_001.jpg
2282.384	0.466	1	incongruent	Block3	incongruent/STIM_001.jpg
2285.001	0.86	1	incongruent	Block3	incongruent/STIM_001.jpg
2289.784	0.9	1	incongruent	Block3	incongruent/STIM_001.jpg
2292.743	0.65	1	incongruent	Block3	incongruent/STIM_002.jpg
2296.661	0.857	1	incongruent	Block3	incongruent/STIM_002.jpg
2300.835	0.789	1	incongruent	Block3	incongruent/STIM_002.jpg
2304.856	0.946	1	incongruent	Block3	incongruent/STIM_002.jpg
2308.043	0.716	1	incongruent	Block3	incongruent/STIM_002.jpg
2311.331	0.493	1	incongruent	Block3	incongruent/STIM_003.jpg
2314.337	0.617	1	incongruent	Block3	incongruent/STIM_003.jpg
2317.411	0.607	1	incongruent	Block3	incongruent/STIM_003.jpg
2321.156	0.596	1	incongruent	Block3	incongruent/STIM_003.jpg
2323.805	0.526	1	incongruent	Block3	incongruent/STIM_003.jpg
2327.571	0.844	1	incongruent	Block3	incongruent/STIM_004.jpg
2330.786	0.731	1	incongruent	Block3	incongruent/STIM_004.jpg
2333.867	0.957	1	incongruent	Block3	incongruent/STIM_004.jpg
2338.176	0.727	1	incongruent	Block3	incongruent/STIM_004.jpg
2341.199	0.614	1	incongruent	Block3	incongruent/STIM_004.jpg
2345.065	0.979	1	incongruent	Block3	incongruent/STIM_005.jpg
2349.32	0.585	1	incongruent	Block3	incongruent/STIM_005.jpg
2352.9	0.699	1	incongruent	Block3	incongruent/STIM_005.jpg
2357.495	0.622	1	incongruent	Block3	incongruent/STIM_005.jpg
2361.676	0.685	1	incongruent	Block3	incongruent/STIM_005.jpg
2365.613	0.776	1	incongruent	Block3	incongruent/STIM_006.jpg
2368.407	0.629	1	incongruent	Block3	incongruent/STIM_006.jpg
2372.231	0.704	1	incongruent	Block3	incongruent/STIM_006.jpg
2375.802	0.505	1	incongruent	Block3	incongruent/STIM_006.jpg
2379.227	0.877	1	incongruent	Block3	incongruent/STIM_006.jpg
2383.557	0.953	1	incongruent	Block3	incongruent/STIM_007.jpg
2388.289	0.768	1	incongruent	Block3	incongruent/STIM_007.jpg
2392.269	0.737	1	incongruent	Block3	incongruent/STIM_007.jpg
2395.342	0.692	1	incongruent	Block3	incongruent/STIM_007.jpg
2398.078	0.604	1	incongruent	Block3	incongruent/STIM_007.jpg
2402.444	0.726	1	incongruent	Block3	incongruent/STIM_008.jpg
2407.233	0.958	1	incongruent	Block3	incongruent/STIM_008.jpg
2411.284	0.969	1	incongruent	Block3	incongruent/STIM_008.jpg
2415.284	0.592	1	incongruent	Block3	incongruent/STIM_008.jpg
2419.201	0.734	1	incongruent	Block3	incongruent/STIM_008.jpg
2422.289	0.515	1	incongruent	Block3	incongruent/STIM_009.jpg
2425.7	0.78	1	incongruent	Block3	incongruent/STIM_009.jpg
2429.79	0.542	1	incongruent	Block3	incongruent/STIM_009.jpg
2432.58	0.781	1	incongruent	Block3	incongruent/STIM_009.jpg
2436.411	0.596	1	incongruent	Block3	incongruent/STIM_009.jpg
2439.373	0.824	1	incongruent	Block3	incongruent/STIM_010.jpg
2444.066	0.532	1	incongruent	Block3	incongruent/STIM_010.jpg
2447.054	0.663	1	incongruent	Block3	incongruent/STIM_010.jpg
2451.309	1.067	1	incongruent	Block3	incongruent/STIM_010.jpg
2455.744	0.543	1	incongruent	Block3	incongruent/STIM_010.jpg
2459.459	0.544	1	incongruent	Block3	incongruent/STIM_011.jpg
2463.684	0.546	1	incongruent	Block3	incongruent/STIM_011.jpg
2468.006	0.524	1	incongruent	Block3	incongruent/STIM_011.jpg
2472.078	0.718	1	incongruent	Block3	incongruent/STIM_011.jpg
2474.999	0.554	1	incongruent	Block3	incongruent/STIM_011.jpg
2478.722	0.761	1	incongruent	Block3	incongruent/STIM_012.jpg
2482.823	0.517	1	incongruent	Block3	incongruent/STIM_012.jpg
2485.847	0.73	1	incongruent	Block3	incongruent/STIM_012.jpg
2489.984	0.765	1	incongruent	Block3	incongruent/STIM_012.jpg
2493.381	0.905	1	incongruent	Block3	incongruent/STIM_012.jpg
2497.9	1.011	1	incongruent	Block3	incongruent/STIM_013.jpg
2501.659	0.711	1	incongruent	Block3	incongruent/STIM_013.jpg
2506.098	0.679	1	incongruent	Block3	incongruent/STIM_013.jpg
2510.72	1.006	1	incongruent	Block3	incongruent/STIM_013.jpg
2513.709	0.576	1	incongruent	Block3	incongruent/STIM_013.jpg
2517.787	0.923	1	incongruent	Block3	incongruent/STIM_014.jpg
2521.77	0.602	1	incongruent	Block3	incongruent/STIM_014.jpg
2525.178	0.591	1	incongruent	Block3	incongruent/STIM_014.jpg
2528.139	0.645	1	incongruent	Block3	incongruent/STIM_014.jpg
2532.691	0.51	1	incongruent	Block3	incongruent/STIM_014.jpg
2537.156	0.94	1	incongruent	Block3	incongruent/STIM_015.jpg
2540.804	1.081	1	incongruent	Block3	incongruent/STIM_015.jpg
2544.54	0.713	1	incongruent	Block3	incongruent/STIM_015.jpg
2548.272	0.508	1	incongruent	Block3	incongruent/STIM_015.jpg
2551.594	0.616	1	incongruent	Block3	incongruent/STIM_015.jpg
2555.757	0.794	1	incongruent	Block3	incongruent/STIM_016.jpg
2560.358	0.728	1	incongruent	Block3	incongruent/STIM_016.jpg
2563.853	0.73	1	incongruent	Block3	incongruent/STIM_016.jpg
2566.883	0.822	1	incongruent	Block3	incongruent/STIM_016.jpg
2571.267	0.924	1	incongruent	Block3	incongruent/STIM_016.jpg
2574.354	0.679	1	incongruent	Block3	incongruent/STIM_017.jpg
2578.435	0.612	1	incongruent	Block3	incongruent/STIM_017.jpg
2582.347	0.726	1	incongruent	Block3	incongruent/STIM_017.jpg
2586.366	0.927	1	incongruent	Block3	incongruent/STIM_017.jpg
2590.483	0.51	1	incongruent	Block3	incongruent/STIM_017.jpg
2593.496	0.448	1	incongruent	Block3	incongruent/STIM_018.jpg
2596.611	0.515	1	incongruent	Block3	incongruent/STIM_018.jpg
2600.716	0.823	1	incongruent	Block3	incongruent/STIM_018.jpg
2603.719	0.699	1	incongruent	Block3	incongruent/STIM_018.jpg
2607.762	0.946	1	incongruent	Block3	incongruent/STIM_018.jpg
2610.791	0.881	1	incongruent	Block3	incongruent/STIM_019.jpg
2613.825	0.896	1	incongruent	Block3	incongruent/STIM_019.jpg
2618.438	0.724	1	incongruent	Block3	incongruent/STIM_019.jpg
2621.651	0.536	1	incongruent	Block3	incongruent/STIM_019.jpg
2625.94	0.946	1	incongruent	Block3	incongruent/STIM_019.jpg
2628.988	1.064	1	incongruent	Block3	incongruent/STIM_020.jpg
2632.553	0.753	1	incongruent	Block3	incongruent/STIM_020.jpg
2636.342	0.97	1	incongruent	Block3	incongruent/STIM_020.jpg
2640.654	0.861	1	incongruent	Block3	incongruent/STIM_020.jpg
2644.222	0.584	1	incongruent	Block3	incongruent/STIM_020.jpg
2647.886	0.715	1	incongruent	Block3	incongruent/STIM_021.jpg
2651.149	0.747	1	incongruent	Block3	incongruent/STIM_021.jpg
2654.432	0.822	1	incongruent	Block3	incongruent/STIM_021.jpg
2657.672	0.894	1	incongruent	Block3	incongruent/STIM_021.jpg
2661.395	0.604	1	incongruent	Block3	incongruent/STIM_021.jpg
2665.778	0.656	1	incongruent	Block3	incongruent/STIM_022.jpg
2670.212	0.724	1	incongruent	Block3	incongruent/STIM_022.jpg
2674.306	0.844	1	incongruent	Block3	incongruent/STIM_022.jpg
2678.107	0.932	1	incongruent	Block3	incongruent/STIM_022.jpg
2682.984	0.572	1	incongruent	Block3	incongruent/STIM_022.jpg
2686.508	0.993	1	incongruent	Block3	incongruent/STIM_023.jpg
2690.275	0.964	1	incongruent	Block3	incongruent/STIM_023.jpg
2693.592	0.532	0	incongruent	Block3	incongruent/STIM_023.jpg
2696.362	0.825	1	incongruent	Block3	incongruent/STIM_023.jpg
2700.527	0.654	1	incongruent	Block3	incongruent/STIM_023.jpg
2703.189	0.58	1	incongruent	Block3	incongruent/STIM_024.jpg
2705.893	0.882	1	incongruent	Block3	incongruent/STIM_024.jpg
2709.504	0.927	1	incongruent	Block3	incongruent/STIM_024.jpg
2712.67	0.781	1	incongruent	Block3	incongruent/STIM_024.jpg
2716.531	0.769	1	incongruent	Block3	incongruent/STIM_024.jpg
2719.662	0.792	1	incongruent	Block3	incongruent/STIM_025.jpg
2723.279	0.997	0	incongruent	Block3	incongruent/STIM_025.jpg
2726.614	0.507	1	incongruent	Block3	incongruent/STIM_025.jpg
2729.354	0.77	1	incongruent	Block3	incongruent/STIM_025.jpg
2733.987	0.729	1	incongruent	Block3	incongruent/STIM_025.jpg
2737.732	0.652	1	incongruent	Block3	incongruent/STIM_026.jpg
2742.363	1.001	1	incongruent	Block3	incongruent/STIM_026.jpg
2746.337	0.658	1	incongruent	Block3	incongruent/STIM_026.jpg
2750.066	1.017	1	incongruent	Block3	incongruent/STIM_026.jpg
2753.719	0.907	1	incongruent	Block3	incongruent/STIM_026.jpg
2756.875	0.608	1	incongruent	Block3	incongruent/STIM_027.jpg
2760.337	0.583	1	incongruent	Block3	incongruent/STIM_027.jpg
2763.138	0.677	1	incongruent	Block3	incongruent/STIM_027.jpg
2767.148	0.928	1	incongruent	Block3	incongruent/STIM_027.jpg
2771.277	0.804	1	incongruent	Block3	incongruent/STIM_027.jpg
2774.31	0.909	1	incongruent	Block3	incongruent/STIM_028.jpg
2778.411	0.433	1	incongruent	Block3	incongruent/STIM_028.jpg
2782.916	0.522	1	incongruent	Block3	incongruent/STIM_028.jpg
2786.064	0.661	1	incongruent	Block3	incongruent/STIM_028.jpg
2789.095	0.889	1	incongruent	Block3	incongruent/STIM_028.jpg
2792.322	0.662	1	incongruent	Block3	incongruent/STIM_029.jpg
2795.644	0.77	1	incongruent	Block3	incongruent/STIM_029.jpg
2799.346	0.504	1	incongruent	Block3	incongruent/STIM_029.jpg
2803.32	0.53	1	incongruent	Block3	incongruent/STIM_029.jpg
2806.854	0.831	1	incongruent	Block3	incongruent/STIM_029.jpg
2810.734	0.606	1	congruent	Block3	congruent/STIM_000.jpg
2815.094	0.797	1	congruent	Block3	congruent/STIM_000.jpg
2819.483	0.594	1	congruent	Block3	congruent/STIM_000.jpg
2823.123	0.546	1	congruent	Block3	congruent/STIM_000.jpg
2827.166	0.578	1	congruent	Block3	congruent/STIM_000.jpg
2830.694	0.796	1	congruent	Block3	congruent/STIM_001.jpg
2834.611	0.84	1	congruent	Block3	congruent/STIM_001.jpg
2839.179	0.652	1	congruent	Block3	congruent/STIM_001.jpg
2842.344	0.462	1	congruent	Block3	congruent/STIM_001.jpg
2845.254	0.821	1	congruent	Block3	congruent/STIM_001.jpg
2848.471	0.756	1	congruent	Block3	congruent/STIM_002.jpg
2852.707	0.731	1	congruent	Block3	congruent/STIM_002.jpg
2857.17	0.7	1	congruent	Block3	congruent/STIM_002.jpg
2861.36	0.438	0	congruent	Block3	congruent/STIM_002.jpg
2865.417	0.723	1	congruent	Block3	congruent/STIM_002.jpg
2869.727	0.518	1	congruent	Block3	congruent/STIM_003.jpg
2873.426	0.674	1	congruent	Block3	congruent/STIM_003.jpg
2877.902	0.443	1	congruent	Block3	congruent/STIM_003.jpg
2880.784	0.781	1	congruent	Block3	congruent/STIM_003.jpg
2885.1	0.741	1	congruent	Block3	congruent/STIM_003.jpg
2889.583	0.478	1	congruent	Block3	congruent/STIM_004.jpg
2893.089	0.646	1	congruent	Block3	congruent/STIM_004.jpg
2896.275	0.662	0	congruent	Block3	congruent/STIM_004.jpg
2900.962	0.718	1	congruent	Block3	congruent/STIM_004.jpg
2904.272	0.631	1	congruent	Block3	congruent/STIM_004.jpg
2908.469	0.808	1	congruent	Block3	congruent/STIM_005.jpg
2911.879	0.818	1	congruent	Block3	congruent/STIM_005.jpg
2916.457	0.613	1	congruent	Block3	congruent/STIM_005.jpg
2919.346	0.605	1	congruent	Block3	congruent/STIM_005.jpg
2922.06	0.856	1	congruent	Block3	congruent/STIM_005.jpg
2926.809	0.693	1	congruent	Block3	congruent/STIM_006.jpg
2930.747	0.676	1	congruent	Block3	congruent/STIM_006.jpg
2934.144	0.826	1	congruent	Block3	congruent/STIM_006.jpg
2937.628	0.697	1	congruent	Block3	congruent/STIM_006.jpg
2941.868	0.601	1	congruent	Block3	congruent/STIM_006.jpg
2946.391	0.654	1	congruent	Block3	congruent/STIM_007.jpg
2949.283	0.534	1	congruent	Block3	congruent/STIM_007.jpg
2953.54	0.5	1	congruent	Block3	congruent/STIM_007.jpg
2956.89	0.852	1	congruent	Block3	congruent/STIM_007.jpg
2961.302	0.679	1	congruent	Block3	congruent/STIM_007.jpg
2964.857	0.874	1	congruent	Block3	congruent/STIM_008.jpg
2968.083	0.699	1	congruent	Block3	congruent/STIM_008.jpg
2971.544	0.548	1	congruent	Block3	congruent/STIM_008.jpg
2975.792	0.77	1	congruent	Block3	congruent/STIM_008.jpg
2979.921	0.583	1	congruent	Block3	congruent/STIM_008.jpg
2982.744	0.793	1	congruent	Block3	congruent/STIM_009.jpg
2986.337	0.796	1	congruent	Block3	congruent/STIM_009.jpg
2990.437	0.735	1	congruent	Block3	congruent/STIM_009.jpg
2994.511	0.789	1	congruent	Block3	congruent/STIM_009.jpg
2998.372	0.818	1	congruent	Block3	congruent/STIM_009.jpg
3001.909	0.581	1	congruent	Block3	congruent/STIM_010.jpg
3005.417	0.615	1	congruent	Block3	congruent/STIM_010.jpg
3009.107	0.456	1	congruent	Block3	congruent/STIM_010.jpg
3012.937	0.738	1	congruent	Block3	congruent/STIM_010.jpg
3017.184	0.699	1	congruent	Block3	congruent/STIM_010.jpg
3021.52	0.894	1	congruent	Block3	congruent/STIM_011.jpg
3025.745	0.604	1	congruent	Block3	congruent/STIM_011.jpg
3028.675	0.661	1	congruent	Block3	congruent/STIM_011.jpg
3032.366	0.638	1	congruent	Block3	congruent/STIM_011.jpg
3035.348	0.719	1	congruent	Block3	congruent/STIM_011.jpg
3038.79	0.527	1	congruent	Block3	congruent/STIM_012.jpg
3042.658	0.555	1	congruent	Block3	congruent/STIM_012.jpg
3045.404	0.434	1	congruent	Block3	congruent/STIM_012.jpg
3049.731	0.746	0	congruent	Block3	congruent/STIM_012.jpg
3053.165	0.544	1	congruent	Block3	congruent/STIM_012.jpg
3057.474	0.821	1	congruent	Block3	congruent/STIM_013.jpg
3061.475	0.788	1	congruent	Block3	congruent/STIM_013.jpg
3065.048	0.928	1	congruent	Block3	congruent/STIM_013.jpg
3069.446	0.709	1	congruent	Block3	congruent/STIM_013.jpg
3074.209	0.512	1	congruent	Block3	congruent/STIM_013.jpg
3078.255	0.523	1	congruent	Block3	congruent/STIM_014.jpg
3081.736	0.482	1	congruent	Block3	congruent/STIM_014.jpg
3084.809	0.564	1	congruent	Block3	congruent/STIM_014.jpg
3088.897	0.656	1	congruent	Block3	congruent/STIM_014.jpg
3092.802	0.523	1	congruent	Block3	congruent/STIM_014.jpg
3096.408	0.776	1	congruent	Block3	congruent/STIM_015.jpg
3100.563	0.522	1	congruent	Block3	congruent/STIM_015.jpg
3103.807	0.71	1	congruent	Block3	congruent/STIM_015.jpg
3106.823	0.643	1	congruent	Block3	congruent/STIM_015.jpg
3109.808	0.708	1	congruent	Block3	congruent/STIM_015.jpg
3113.581	0.755	1	congruent	Block3	congruent/STIM_016.jpg
3117.94	0.637	1	congruent	Block3	congruent/STIM_016.jpg
3121.873	0.718	1	congruent	Block3	congruent/STIM_016.jpg
3126.42	0.61	1	congruent	Block3	congruent/STIM_016.jpg
3129.398	0.499	1	congruent	Block3	congruent/STIM_016.jpg
3131.986	0.678	1	congruent	Block3	congruent/STIM_017.jpg
3135.852	0.811	1	congruent	Block3	congruent/STIM_017.jpg
3140.125	0.644	1	congruent	Block3	congruent/STIM_017.jpg
3144.126	0.599	1	congruent	Block3	congruent/STIM_017.jpg
3148.501	0.503	1	congruent	Block3	congruent/STIM_017.jpg
3152.159	0.715	1	congruent	Block3	congruent/STIM_018.jpg
3155.39	0.586	0	congruent	Block3	congruent/STIM_018.jpg
3158.942	0.558	1	congruent	Block3	congruent/STIM_018.jpg
3162.417	0.634	1	congruent	Block3	congruent/STIM_018.jpg
3166.593	0.866	1	congruent	Block3	congruent/STIM_018.jpg
3169.78	0.68	1	congruent	Block3	congruent/STIM_019.jpg
3173.72	0.549	1	congruent	Block3	congruent/STIM_019.jpg
3178.346	0.755	1	congruent	Block3	congruent/STIM_019.jpg
3181.577	0.648	1	congruent	Block3	congruent/STIM_019.jpg
3185.058	0.505	1	congruent	Block3	congruent/STIM_019.jpg
3187.61	0.612	1	congruent	Block3	congruent/STIM_020.jpg
3191.716	0.675	1	congruent	Block3	congruent/STIM_020.jpg
3194.835	0.463	1	congruent	Block3	congruent/STIM_020.jpg
3199.246	0.493	1	congruent	Block3	congruent/STIM_020.jpg
3203.239	0.572	1	congruent	Block3	congruent/STIM_020.jpg
3206.936	0.678	0	congruent	Block3	congruent/STIM_021.jpg
3211.623	0.555	1	congruent	Block3	congruent/STIM_021.jpg
3215.93	0.548	0	congruent	Block3	congruent/STIM_021.jpg
3218.608	0.507	1	congruent	Block3	congruent/STIM_021.jpg
3222.224	0.615	1	congruent	Block3	congruent/STIM_021.jpg
3226.67	0.781	1	congruent	Block3	congruent/STIM_022.jpg
3230.469	0.557	1	congruent	Block3	congruent/STIM_022.jpg
3233.804	0.58	1	congruent	Block3	congruent/STIM_022.jpg
3236.679	0.874	1	congruent	Block3	congruent/STIM_022.jpg
3241.456	0.564	1	congruent	Block3	congruent/STIM_022.jpg
3244.474	0.503	1	congruent	Block3	congruent/STIM_023.jpg
3248.844	0.477	1	congruent	Block3	congruent/STIM_023.jpg
3251.727	0.499	1	congruent	Block3	congruent/STIM_023.jpg
3254.92	0.583	1	congruent	Block3	congruent/STIM_023.jpg
3257.674	0.723	1	congruent	Block3	congruent/STIM_023.jpg
3262.022	0.769	0	congruent	Block3	congruent/STIM_024.jpg
3266.162	0.645	1	congruent	Block3	congruent/STIM_024.jpg
3269.647	0.508	1	congruent	Block3	congruent/STIM_024.jpg
3273.98	0.823	1	congruent	Block3	congruent/STIM_024.jpg
3277.648	0.549	1	congruent	Block3	congruent/STIM_024.jpg
3281.104	0.556	1	congruent	Block3	congruent/STIM_025.jpg
3284.278	0.645	1	congruent	Block3	congruent/STIM_025.jpg
3288.125	0.74	1	congruent	Block3	congruent/STIM_025.jpg
3292.396	0.523	1	congruent	Block3	congruent/STIM_025.jpg
3295.311	0.743	1	congruent	Block3	congruent/STIM_025.jpg
3299.515	0.587	1	congruent	Block3	congruent/STIM_026.jpg
3303.137	0.472	1	congruent	Block3	congruent/STIM_026.jpg
3306.25	0.506	1	congruent	Block3	congruent/STIM_026.jpg
3309.648	0.427	1	congruent	Block3	congruent/STIM_026.jpg
3312.95	0.769	1	congruent	Block3	congruent/STIM_026.jpg
3317.051	0.726	1	congruent	Block3	congruent/STIM_027.jpg
3320.576	0.538	1	congruent	Block3	congruent/STIM_027.jpg
3323.805	0.48	1	congruent	Block3	congruent/STIM_027.jpg
3326.455	0.714	1	congruent	Block3	congruent/STIM_027.jpg
3329.858	0.557	0	congruent	Block3	congruent/STIM_027.jpg
3333.226	0.57	1	congruent	Block3	congruent/STIM_028.jpg
3335.908	0.575	1	congruent	Block3	congruent/STIM_028.jpg
3339.632	0.608	1	congruent	Block3	congruent/STIM_028.jpg
3343.409	0.566	1	congruent	Block3	congruent/STIM_028.jpg
3347.667	0.63	1	congruent	Block3	congruent/STIM_028.jpg
3351.11	0.865	1	congruent	Block3	congruent/STIM_029.jpg
3354.889	0.688	0	congruent	Block3	congruent/STIM_029.jpg
3358.261	0.71	1	congruent	Block3	congruent/STIM_029.jpg
3362.714	0.504	1	congruent	Block3	congruent/STIM_029.jpg
3366.862	0.848	1	congruent	Block3	congruent/STIM_029.jpg
