onset	duration	response_time_ms	trial_type	learning_stage	stimulus	response_port
0.0	1.363	1363.3	incongruent	Block1	incongruent/STIM_000.jpg	99
5.342	0.876	876.4	incongruent	Block1	incongruent/STIM_000.jpg	99
9.599	1.668	1668.2	incongruent	Block1	incongruent/STIM_000.jpg	99
15.058	1.438	1438.5	incongruent	Block1	incongruent/STIM_000.jpg	100
18.545	1.298	1298.4	incongruent	Block1	incongruent/STIM_000.jpg	99
23.818	1.224	1224.2	incongruent	Block1	incongruent/STIM_001.jpg	100
27.096	1.679	1679.2	incongruent	Block1	incongruent/STIM_001.jpg	100
30.83	1.299	1299.3	incongruent	Block1	incongruent/STIM_001.jpg	100
35.223	0.989	988.6	incongruent	Block1	incongruent/STIM_001.jpg	100
39.771	0.921	920.9	incongruent	Block1	incongruent/STIM_001.jpg	99
44.293	1.854	1854.4	incongruent	Block1	incongruent/STIM_002.jpg	99
48.416	1.37	1369.9	incongruent	Block1	incongruent/STIM_002.jpg	99
52.474	1.231	1231.2	incongruent	Block1	incongruent/STIM_002.jpg	99
57.027	0.768	767.6	incongruent	Block1	incongruent/STIM_002.jpg	99
60.983	0.7	700.0	incongruent	Block1	incongruent/STIM_002.jpg	100
64.803	0.87	870.5	incongruent	Block1	incongruent/STIM_003.jpg	100
69.023	1.394	1393.7	incongruent	Block1	incongruent/STIM_003.jpg	99
72.826	1.262	1262.5	incongruent	Block1	incongruent/STIM_003.jpg	100
76.177	1.187	1187.2	incongruent	Block1	incongruent/STIM_003.jpg	99
79.389	0.782	782.1	incongruent	Block1	incongruent/STIM_003.jpg	99
84.081	1.091	1091.3	incongruent	Block1	incongruent/STIM_004.jpg	100
88.458	1.628	1628.4	incongruent	Block1	incongruent/STIM_004.jpg	100
92.753	1.574	1573.9	incongruent	Block1	incongruent/STIM_004.jpg	99
97.663	0.978	978.5	incongruent	Block1	incongruent/STIM_004.jpg	99
101.352	1.352	1352.3	incongruent	Block1	incongruent/STIM_004.jpg	99
104.769	1.575	1575.0	incongruent	Block1	incongruent/STIM_005.jpg	99
109.895	1.736	1736.5	incongruent	Block1	incongruent/STIM_005.jpg	99
114.917	1.058	1058.4	incongruent	Block1	incongruent/STIM_005.jpg	100
119.818	0.805	804.9	incongruent	Block1	incongruent/STIM_005.jpg	99
123.913	1.251	1250.6	incongruent	Block1	incongruent/STIM_005.jpg	100
127.194	1.528	1528.4	incongruent	Block1	incongruent/STIM_006.jpg	100
131.462	1.165	1164.6	incongruent	Block1	incongruent/STIM_006.jpg	100
135.23	1.664	1664.1	incongruent	Block1	incongruent/STIM_006.jpg	100
140.535	1.495	1494.7	incongruent	Block1	incongruent/STIM_006.jpg	99
145.224	1.306	1305.8	incongruent	Block1	incongruent/STIM_006.jpg	100
149.577	1.056	1055.8	incongruent	Block1	incongruent/STIM_007.jpg	100
154.587	1.344	1344.1	incongruent	Block1	incongruent/STIM_007.jpg	99
159.499	1.317	1316.8	incongruent	Block1	incongruent/STIM_007.jpg	99
163.556	1.357	1357.1	incongruent	Block1	incongruent/STIM_007.jpg	99
168.16	0.99	990.2	incongruent	Block1	incongruent/STIM_007.jpg	99
171.167	1.049	1048.8	incongruent	Block1	incongruent/STIM_008.jpg	100
174.999	1.628	1627.8	incongruent	Block1	incongruent/STIM_008.jpg	99
180.251	1.637	1636.6	incongruent	Block1	incongruent/STIM_008.jpg	100
185.348	1.106	1106.5	incongruent	Block1	incongruent/STIM_008.jpg	100
189.596	1.291	1291.1	incongruent	Block1	incongruent/STIM_008.jpg	100
194.617	1.694	1693.9	incongruent	Block1	incongruent/STIM_009.jpg	99
199.314	1.513	1513.0	incongruent	Block1	incongruent/STIM_009.jpg	99
203.069	1.058	1058.0	incongruent	Block1	incongruent/STIM_009.jpg	100
207.711	1.436	1435.9	incongruent	Block1	incongruent/STIM_009.jpg	100
212.837	1.248	1248.1	incongruent	Block1	incongruent/STIM_009.jpg	99
216.126	1.839	1839.3	incongruent	Block1	incongruent/STIM_010.jpg	100
220.754	1.716	1716.3	incongruent	Block1	incongruent/STIM_010.jpg	100
225.837	0.903	902.7	incongruent	Block1	incongruent/STIM_010.jpg	99
229.009	0.916	915.9	incongruent	Block1	incongruent/STIM_010.jpg	100
232.025	0.724	723.6	incongruent	Block1	incongruent/STIM_010.jpg	99
236.214	1.351	1351.2	incongruent	Block1	incongruent/STIM_011.jpg	100
240.889	1.54	1539.6	incongruent	Block1	incongruent/STIM_011.jpg	100
246.053	1.626	1626.5	incongruent	Block1	incongruent/STIM_011.jpg	99
250.715	0.905	904.6	incongruent	Block1	incongruent/STIM_011.jpg	99
254.526	0.764	764.4	incongruent	Block1	incongruent/STIM_011.jpg	99
258.597	1.003	1003.4	incongruent	Block1	incongruent/STIM_012.jpg	99
263.371	1.531	1530.7	incongruent	Block1	incongruent/STIM_012.jpg	100
268.241	1.035	1034.8	incongruent	Block1	incongruent/STIM_012.jpg	99
272.745	1.204	1204.0	incongruent	Block1	incongruent/STIM_012.jpg	99
277.806	0.987	987.2	incongruent	Block1	incongruent/STIM_012.jpg	99
282.569	1.096	1096.3	incongruent	Block1	incongruent/STIM_013.jpg	100
287.611	0.86	860.2	incongruent	Block1	incongruent/STIM_013.jpg	99
291.262	0.802	801.9	incongruent	Block1	incongruent/STIM_013.jpg	99
295.434	0.807	806.6	incongruent	Block1	incongruent/STIM_013.jpg	99
298.704	0.93	929.9	incongruent	Block1	incongruent/STIM_013.jpg	100
303.351	1.647	1647.1	incongruent	Block1	incongruent/STIM_014.jpg	99
308.189	1.232	1232.4	incongruent	Block1	incongruent/STIM_014.jpg	99
313.072	1.2	1199.8	incongruent	Block1	incongruent/STIM_014.jpg	100
317.002	1.147	1146.8	incongruent	Block1	incongruent/STIM_014.jpg	100
321.084	0.774	773.8	incongruent	Block1	incongruent/STIM_014.jpg	100
325.289	1.0	1000.2	incongruent	Block1	incongruent/STIM_015.jpg	99
329.568	1.058	1058.5	incongruent	Block1	incongruent/STIM_015.jpg	100
334.318	1.263	1262.8	incongruent	Block1	incongruent/STIM_015.jpg	100
338.982	0.832	832.5	incongruent	Block1	incongruent/STIM_015.jpg	100
343.082	1.315	1314.7	incongruent	Block1	incongruent/STIM_015.jpg	100
347.585	1.296	1296.0	incongruent	Block1	incongruent/STIM_016.jpg	100
351.905	1.39	1389.7	incongruent	Block1	incongruent/STIM_016.jpg	100
355.578	1.502	1502.2	incongruent	Block1	incongruent/STIM_016.jpg	100
359.29	0.798	798.0	incongruent	Block1	incongruent/STIM_016.jpg	99
362.197	0.934	934.0	incongruent	Block1	incongruent/STIM_016.jpg	100
365.71	1.483	1482.7	incongruent	Block1	incongruent/STIM_017.jpg	100
369.592	1.571	1571.0	incongruent	Block1	incongruent/STIM_017.jpg	99
373.998	1.397	1397.0	incongruent	Block1	incongruent/STIM_017.jpg	99
377.451	1.182	1182.5	incongruent	Block1	incongruent/STIM_017.jpg	100
382.1	1.303	1303.0	incongruent	Block1	incongruent/STIM_017.jpg	100
386.728	1.509	1509.2	incongruent	Block1	incongruent/STIM_018.jpg	100
391.402	1.486	1486.0	incongruent	Block1	incongruent/STIM_018.jpg	100
396.212	1.507	1507.3	incongruent	Block1	incongruent/STIM_018.jpg	99
400.518	1.114	1113.8	incongruent	Block1	incongruent/STIM_018.jpg	99
404.708	0.947	946.8	incongruent	Block1	incongruent/STIM_018.jpg	100
407.878	1.465	1465.3	incongruent	Block1	incongruent/STIM_019.jpg	100
411.842	0.977	976.9	incongruent	Block1	incongruent/STIM_019.jpg	99
414.936	0.953	953.2	incongruent	Block1	incongruent/STIM_019.jpg	100
418.541	0.8	800.4	incongruent	Block1	incongruent/STIM_019.jpg	100
421.842	1.429	1429.1	incongruent	Block1	incongruent/STIM_019.jpg	100
425.596	1.156	1155.5	incongruent	Block1	incongruent/STIM_020.jpg	99
429.858	1.624	1624.5	incongruent	Block1	incongruent/STIM_020.jpg	100
434.696	1.022	1022.3	incongruent	Block1	incongruent/STIM_020.jpg	99
439.091	0.755	754.8	incongruent	Block1	incongruent/STIM_020.jpg	99
443.833	1.45	1450.5	incongruent	Block1	incongruent/STIM_020.jpg	100
449.06	1.265	1264.8	incongruent	Block1	incongruent/STIM_021.jpg	100
453.151	1.52	1519.6	incongruent	Block1	incongruent/STIM_021.jpg	100
458.421	1.492	1492.5	incongruent	Block1	incongruent/STIM_021.jpg	100
462.106	1.181	1180.8	incongruent	Block1	incongruent/STIM_021.jpg	99
466.046	0.757	756.7	incongruent	Block1	incongruent/STIM_021.jpg	100
470.3	1.668	1667.7	incongruent	Block1	incongruent/STIM_022.jpg	99
474.505	1.554	1553.5	incongruent	Block1	incongruent/STIM_022.jpg	100
478.169	0.941	941.2	incongruent	Block1	incongruent/STIM_022.jpg	100
482.062	0.882	882.2	incongruent	Block1	incongruent/STIM_022.jpg	99
485.624	1.172	1171.6	incongruent	Block1	incongruent/STIM_022.jpg	99
490.703	1.266	1265.5	incongruent	Block1	incongruent/STIM_023.jpg	99
494.968	1.567	1566.9	incongruent	Block1	incongruent/STIM_023.jpg	99
499.151	1.268	1267.8	incongruent	Block1	incongruent/STIM_023.jpg	100
503.395	1.044	1043.5	incongruent	Block1	incongruent/STIM_023.jpg	99
506.793	0.734	734.4	incongruent	Block1	incongruent/STIM_023.jpg	100
510.952	1.316	1316.2	incongruent	Block1	incongruent/STIM_024.jpg	99
515.784	0.928	927.5	incongruent	Block1	incongruent/STIM_024.jpg	99
519.254	1.618	1618.2	incongruent	Block1	incongruent/STIM_024.jpg	99
524.223	1.489	1488.7	incongruent	Block1	incongruent/STIM_024.jpg	100
528.259	1.059	1059.0	incongruent	Block1	incongruent/STIM_024.jpg	99
533.277	1.533	1533.1	incongruent	Block1	incongruent/STIM_025.jpg	99
538.539	1.492	1492.3	incongruent	Block1	incongruent/STIM_025.jpg	99
543.742	1.247	1246.9	incongruent	Block1	incongruent/STIM_025.jpg	99
548.613	0.742	741.6	incongruent	Block1	incongruent/STIM_025.jpg	99
552.129	0.776	776.0	incongruent	Block1	incongruent/STIM_025.jpg	100
556.324	1.828	1828.1	incongruent	Block1	incongruent/STIM_026.jpg	99
560.364	1.726	1726.2	incongruent	Block1	incongruent/STIM_026.jpg	99
565.484	1.075	1074.6	incongruent	Block1	incongruent/STIM_026.jpg	100
570.29	1.104	1103.5	incongruent	Block1	incongruent/STIM_026.jpg	99
573.524	1.312	1312.1	incongruent	Block1	incongruent/STIM_026.jpg	99
578.791	1.418	1417.9	incongruent	Block1	incongruent/STIM_027.jpg	100
583.995	1.535	1534.6	incongruent	Block1	incongruent/STIM_027.jpg	99
588.957	1.199	1199.3	incongruent	Block1	incongruent/STIM_027.jpg	99
593.768	1.005	1004.8	incongruent	Block1	incongruent/STIM_027.jpg	100
598.682	1.122	1122.3	incongruent	Block1	incongruent/STIM_027.jpg	99
603.746	1.183	1183.0	incongruent	Block1	incongruent/STIM_028.jpg	99
608.108	0.846	845.5	incongruent	Block1	incongruent/STIM_028.jpg	100
611.66	1.468	1468.1	incongruent	Block1	incongruent/STIM_028.jpg	99
616.204	1.467	1466.8	incongruent	Block1	incongruent/STIM_028.jpg	100
620.506	1.022	1021.8	incongruent	Block1	incongruent/STIM_028.jpg	100
623.829	1.279	1278.9	incongruent	Block1	incongruent/STIM_029.jpg	100
628.61	1.378	1377.9	incongruent	Block1	incongruent/STIM_029.jpg	99
633.646	1.361	1360.8	incongruent	Block1	incongruent/STIM_029.jpg	100
638.493	1.349	1348.9	incongruent	Block1	incongruent/STIM_029.jpg	100
642.188	0.848	848.0	incongruent	Block1	incongruent/STIM_029.jpg	100
645.094	1.052	1052.3	congruent	Block1	congruent/STIM_000.jpg	99
648.166	0.747	747.0	congruent	Block1	congruent/STIM_000.jpg	100
651.213	1.04	1039.6	congruent	Block1	congruent/STIM_000.jpg	99
655.657	1.103	1103.2	congruent	Block1	congruent/STIM_000.jpg	100
659.093	0.74	740.5	congruent	Block1	congruent/STIM_000.jpg	99
662.839	0.771	771.0	congruent	Block1	congruent/STIM_001.jpg	99
667.383	1.072	1072.2	congruent	Block1	congruent/STIM_001.jpg	100
671.472	0.85	849.7	congruent	Block1	congruent/STIM_001.jpg	99
674.715	1.04	1040.1	congruent	Block1	congruent/STIM_001.jpg	100
679.717	0.897	896.9	congruent	Block1	congruent/STIM_001.jpg	99
684.602	0.773	773.0	congruent	Block1	congruent/STIM_002.jpg	100
689.314	0.817	816.6	congruent	Block1	congruent/STIM_002.jpg	99
693.784	1.065	1065.2	congruent	Block1	congruent/STIM_002.jpg	99
698.112	0.815	815.0	congruent	Block1	congruent/STIM_002.jpg	99
701.659	1.07	1069.5	congruent	Block1	congruent/STIM_002.jpg	99
705.012	0.716	715.8	congruent	Block1	congruent/STIM_003.jpg	99
708.44	0.698	698.0	congruent	Block1	congruent/STIM_003.jpg	99
712.506	0.938	937.6	congruent	Block1	congruent/STIM_003.jpg	100
716.147	0.661	660.8	congruent	Block1	congruent/STIM_003.jpg	99
719.286	0.839	838.8	congruent	Block1	congruent/STIM_003.jpg	100
723.69	1.042	1042.2	congruent	Block1	congruent/STIM_004.jpg	99
727.306	0.81	809.9	congruent	Block1	congruent/STIM_004.jpg	99
731.073	0.664	664.5	congruent	Block1	congruent/STIM_004.jpg	99
734.121	0.89	890.4	congruent	Block1	congruent/STIM_004.jpg	99
737.444	0.661	661.1	congruent	Block1	congruent/STIM_004.jpg	100
741.37	0.63	630.2	congruent	Block1	congruent/STIM_005.jpg	99
744.425	0.688	687.8	congruent	Block1	congruent/STIM_005.jpg	100
747.428	0.696	695.9	congruent	Block1	congruent/STIM_005.jpg	99
751.354	0.717	716.7	congruent	Block1	congruent/STIM_005.jpg	100
754.321	1.075	1075.2	congruent	Block1	congruent/STIM_005.jpg	99
757.667	0.702	701.5	congruent	Block1	congruent/STIM_006.jpg	99
761.018	0.744	744.0	congruent	Block1	congruent/STIM_006.jpg	99
764.769	0.94	940.1	congruent	Block1	congruent/STIM_006.jpg	99
768.425	0.65	650.3	congruent	Block1	congruent/STIM_006.jpg	100
773.055	1.072	1072.2	congruent	Block1	congruent/STIM_006.jpg	100
776.275	0.83	829.6	congruent	Block1	congruent/STIM_007.jpg	100
780.333	1.083	1082.9	congruent	Block1	congruent/STIM_007.jpg	99
785.357	0.834	834.2	congruent	Block1	congruent/STIM_007.jpg	100
789.165	1.061	1060.9	congruent	Block1	congruent/STIM_007.jpg	99
793.735	1.09	1089.6	congruent	Block1	congruent/STIM_007.jpg	100
797.546	0.676	676.1	congruent	Block1	congruent/STIM_008.jpg	100
800.623	0.711	710.7	congruent	Block1	congruent/STIM_008.jpg	99
805.311	0.826	825.5	congruent	Block1	congruent/STIM_008.jpg	100
809.858	0.842	841.8	congruent	Block1	congruent/STIM_008.jpg	100
812.802	0.788	787.6	congruent	Block1	congruent/STIM_008.jpg	100
816.002	0.66	660.3	congruent	Block1	congruent/STIM_009.jpg	100
819.737	0.884	883.8	congruent	Block1	congruent/STIM_009.jpg	99
823.411	1.007	1007.0	congruent	Block1	congruent/STIM_009.jpg	99
827.417	1.013	1012.7	congruent	Block1	congruent/STIM_009.jpg	99
830.585	0.864	863.7	congruent	Block1	congruent/STIM_009.jpg	100
834.696	1.056	1055.9	congruent	Block1	congruent/STIM_010.jpg	99
839.714	0.978	978.5	congruent	Block1	congruent/STIM_010.jpg	100
843.443	0.758	758.0	congruent	Block1	congruent/STIM_010.jpg	99
846.645	0.842	842.0	congruent	Block1	congruent/STIM_010.jpg	100
851.379	0.638	637.9	congruent	Block1	congruent/STIM_010.jpg	100
854.706	0.724	724.2	congruent	Block1	congruent/STIM_011.jpg	99
858.198	0.651	650.7	congruent	Block1	congruent/STIM_011.jpg	99
862.134	1.054	1053.6	congruent	Block1	congruent/STIM_011.jpg	100
866.489	1.104	1103.6	congruent	Block1	congruent/STIM_011.jpg	100
870.388	0.632	632.5	congruent	Block1	congruent/STIM_011.jpg	99
874.114	1.062	1061.5	congruent	Block1	congruent/STIM_012.jpg	100
878.537	0.861	860.6	congruent	Block1	congruent/STIM_012.jpg	100
882.056	0.954	953.5	congruent	Block1	congruent/STIM_012.jpg	99
885.48	1.049	1049.4	congruent	Block1	congruent/STIM_012.jpg	100
889.082	1.1	1099.7	congruent	Block1	congruent/STIM_012.jpg	100
893.773	1.078	1077.6	congruent	Block1	congruent/STIM_013.jpg	100
897.004	0.678	678.2	congruent	Block1	congruent/STIM_013.jpg	100
900.422	1.109	1109.3	congruent	Block1	congruent/STIM_013.jpg	100
903.92	0.872	871.8	congruent	Block1	congruent/STIM_013.jpg	100
907.216	0.957	956.8	congruent	Block1	congruent/STIM_013.jpg	99
911.453	0.954	953.8	congruent	Block1	congruent/STIM_014.jpg	99
914.53	1.073	1072.7	congruent	Block1	congruent/STIM_014.jpg	99
917.82	0.963	962.9	congruent	Block1	congruent/STIM_014.jpg	99
921.161	0.902	901.6	congruent	Block1	congruent/STIM_014.jpg	100
924.226	0.728	728.5	congruent	Block1	congruent/STIM_014.jpg	99
927.024	0.902	902.5	congruent	Block1	congruent/STIM_015.jpg	99
931.11	0.945	945.3	congruent	Block1	congruent/STIM_015.jpg	99
935.176	0.88	880.4	congruent	Block1	congruent/STIM_015.jpg	99
939.044	1.022	1021.5	congruent	Block1	congruent/STIM_015.jpg	100
943.777	0.638	638.2	congruent	Block1	congruent/STIM_015.jpg	100
948.103	0.685	685.1	congruent	Block1	congruent/STIM_016.jpg	100
951.649	0.867	867.0	congruent	Block1	congruent/STIM_016.jpg	100
955.995	0.875	875.0	congruent	Block1	congruent/STIM_016.jpg	99
960.042	0.648	648.4	congruent	Block1	congruent/STIM_016.jpg	100
964.132	0.963	962.6	congruent	Block1	congruent/STIM_016.jpg	99
968.484	1.046	1045.5	congruent	Block1	congruent/STIM_017.jpg	100
972.938	0.912	912.0	congruent	Block1	congruent/STIM_017.jpg	99
976.896	0.773	772.7	congruent	Block1	congruent/STIM_017.jpg	99
979.849	1.079	1079.1	congruent	Block1	congruent/STIM_017.jpg	99
983.104	0.878	877.8	congruent	Block1	congruent/STIM_017.jpg	99
986.256	0.873	873.3	congruent	Block1	congruent/STIM_018.jpg	100
989.71	0.88	880.2	congruent	Block1	congruent/STIM_018.jpg	100
993.422	0.986	986.1	congruent	Block1	congruent/STIM_018.jpg	100
997.179	0.853	853.1	congruent	Block1	congruent/STIM_018.jpg	99
1000.641	0.673	672.9	congruent	Block1	congruent/STIM_018.jpg	100
1004.694	0.681	680.6	congruent	Block1	congruent/STIM_019.jpg	100
1008.509	1.092	1092.0	congruent	Block1	congruent/STIM_019.jpg	99
1013.033	0.642	642.2	congruent	Block1	congruent/STIM_019.jpg	99
1017.044	0.907	906.8	congruent	Block1	congruent/STIM_019.jpg	100
1020.574	0.89	889.6	congruent	Block1	congruent/STIM_019.jpg	99
1025.23	1.084	1083.7	congruent	Block1	congruent/STIM_020.jpg	100
1028.586	0.86	860.4	congruent	Block1	congruent/STIM_020.jpg	100
1031.678	0.63	630.4	congruent	Block1	congruent/STIM_020.jpg	99
1035.229	0.978	978.0	congruent	Block1	congruent/STIM_020.jpg	99
1039.22	0.994	994.5	congruent	Block1	congruent/STIM_020.jpg	99
1043.54	0.776	775.8	congruent	Block1	congruent/STIM_021.jpg	100
1048.051	1.087	1086.7	congruent	Block1	congruent/STIM_021.jpg	99
1051.247	0.814	813.7	congruent	Block1	congruent/STIM_021.jpg	100
1055.461	0.715	715.3	congruent	Block1	congruent/STIM_021.jpg	99
1058.287	0.933	932.9	congruent	Block1	congruent/STIM_021.jpg	99
1062.33	1.039	1039.4	congruent	Block1	congruent/STIM_022.jpg	100
1066.562	0.989	988.7	congruent	Block1	congruent/STIM_022.jpg	99
1069.581	1.028	1028.0	congruent	Block1	congruent/STIM_022.jpg	99
1073.282	1.076	1076.0	congruent	Block1	congruent/STIM_022.jpg	99
1077.944	1.038	1038.1	congruent	Block1	congruent/STIM_022.jpg	100
1082.573	0.802	801.5	congruent	Block1	congruent/STIM_023.jpg	99
1085.522	0.963	962.7	congruent	Block1	congruent/STIM_023.jpg	100
1090.307	0.744	743.8	congruent	Block1	congruent/STIM_023.jpg	100
1093.292	0.958	958.1	congruent	Block1	congruent/STIM_023.jpg	99
1096.957	0.872	871.8	congruent	Block1	congruent/STIM_023.jpg	100
1101.687	0.702	702.4	congruent	Block1	congruent/STIM_024.jpg	99
1105.473	1.027	1026.7	congruent	Block1	congruent/STIM_024.jpg	100
1109.172	0.998	997.8	congruent	Block1	congruent/STIM_024.jpg	100
1113.336	0.994	994.3	congruent	Block1	congruent/STIM_024.jpg	99
1116.935	0.923	922.9	congruent	Block1	congruent/STIM_024.jpg	100
1120.694	0.951	951.4	congruent	Block1	congruent/STIM_025.jpg	100
1124.351	1.085	1085.3	congruent	Block1	congruent/STIM_025.jpg	99
1129.086	1.117	1116.7	congruent	Block1	congruent/STIM_025.jpg	99
1133.273	0.877	877.1	congruent	Block1	congruent/STIM_025.jpg	99
1136.169	0.816	816.2	congruent	Block1	congruent/STIM_025.jpg	99
1140.682	0.653	653.2	congruent	Block1	congruent/STIM_026.jpg	100
1144.005	0.72	720.0	congruent	Block1	congruent/STIM_026.jpg	100
1146.921	0.69	690.0	congruent	Block1	congruent/STIM_026.jpg	100
1150.907	0.738	738.1	congruent	Block1	congruent/STIM_026.jpg	99
1155.347	1.08	1079.8	congruent	Block1	congruent/STIM_026.jpg	99
1160.375	0.973	972.7	congruent	Block1	congruent/STIM_027.jpg	99
1163.989	0.854	853.7	congruent	Block1	congruent/STIM_027.jpg	99
1167.865	0.738	738.0	congruent	Block1	congruent/STIM_027.jpg	99
1171.597	0.833	832.7	congruent	Block1	congruent/STIM_027.jpg	99
1175.037	0.851	850.8	congruent	Block1	congruent/STIM_027.jpg	99
1179.673	0.949	948.9	congruent	Block1	congruent/STIM_028.jpg	100
1183.957	1.004	1004.0	congruent	Block1	congruent/STIM_028.jpg	99
1188.747	0.95	950.3	congruent	Block1	congruent/STIM_028.jpg	100
1193.456	0.915	914.7	congruent	Block1	congruent/STIM_028.jpg	100
1197.652	0.805	805.1	congruent	Block1	congruent/STIM_028.jpg	99
1202.131	1.072	1072.2	congruent	Block1	congruent/STIM_029.jpg	100
1206.879	0.689	689.4	congruent	Block1	congruent/STIM_029.jpg	100
1211.306	0.897	896.8	congruent	Block1	congruent/STIM_029.jpg	99
1215.669	0.88	880.1	congruent	Block1	congruent/STIM_029.jpg	99
1219.09	1.044	1044.5	congruent	Block1	congruent/STIM_029.jpg	99
1222.781	0.871	870.7	incongruent	Block2	incongruent/STIM_000.jpg	100
1226.684	0.886	885.5	incongruent	Block2	incongruent/STIM_000.jpg	100
1230.793	0.725	725.4	incongruent	Block2	incongruent/STIM_000.jpg	99
1234.249	0.727	727.0	incongruent	Block2	incongruent/STIM_000.jpg	100
1237.415	0.95	950.1	incongruent	Block2	incongruent/STIM_000.jpg	100
1240.876	1.272	1271.5	incongruent	Block2	incongruent/STIM_001.jpg	100
1244.684	1.412	1411.5	incongruent	Block2	incongruent/STIM_001.jpg	100
1249.578	1.191	1190.8	incongruent	Block2	incongruent/STIM_001.jpg	99
1254.526	1.199	1199.4	incongruent	Block2	incongruent/STIM_001.jpg	99
1259.472	1.181	1180.7	incongruent	Block2	incongruent/STIM_001.jpg	100
1264.47	0.836	835.7	incongruent	Block2	incongruent/STIM_002.jpg	99
1267.791	1.386	1386.0	incongruent	Block2	incongruent/STIM_002.jpg	99
1272.032	1.026	1026.5	incongruent	Block2	incongruent/STIM_002.jpg	99
1275.41	0.614	613.5	incongruent	Block2	incongruent/STIM_002.jpg	100
1278.092	1.255	1254.6	incongruent	Block2	incongruent/STIM_002.jpg	99
1282.003	1.136	1136.4	incongruent	Block2	incongruent/STIM_003.jpg	99
1285.623	1.274	1273.5	incongruent	Block2	incongruent/STIM_003.jpg	100
1290.208	0.802	801.8	incongruent	Block2	incongruent/STIM_003.jpg	99
1293.356	1.007	1007.3	incongruent	Block2	incongruent/STIM_003.jpg	100
1296.656	1.241	1241.2	incongruent	Block2	incongruent/STIM_003.jpg	99
1300.142	0.934	933.5	incongruent	Block2	incongruent/STIM_004.jpg	100
1305.018	1.35	1349.5	incongruent	Block2	incongruent/STIM_004.jpg	100
1308.991	0.938	937.5	incongruent	Block2	incongruent/STIM_004.jpg	100
1312.806	1.044	1043.8	incongruent	Block2	incongruent/STIM_004.jpg	99
1316.155	1.208	1208.2	incongruent	Block2	incongruent/STIM_004.jpg	100
1320.573	1.197	1197.0	incongruent	Block2	incongruent/STIM_005.jpg	100
1323.973	0.992	991.8	incongruent	Block2	incongruent/STIM_005.jpg	99
1327.065	1.13	1129.8	incongruent	Block2	incongruent/STIM_005.jpg	99
1330.401	0.679	679.3	incongruent	Block2	incongruent/STIM_005.jpg	99
1334.058	1.219	1219.1	incongruent	Block2	incongruent/STIM_005.jpg	100
1337.938	0.767	767.0	incongruent	Block2	incongruent/STIM_006.jpg	99
1341.39	0.857	857.1	incongruent	Block2	incongruent/STIM_006.jpg	100
1345.827	1.153	1153.1	incongruent	Block2	incongruent/STIM_006.jpg	100
1349.094	0.67	670.3	incongruent	Block2	incongruent/STIM_006.jpg	99
1352.761	0.84	839.7	incongruent	Block2	incongruent/STIM_006.jpg	100
1356.498	1.303	1303.3	incongruent	Block2	incongruent/STIM_007.jpg	99
1361.792	0.973	973.4	incongruent	Block2	incongruent/STIM_007.jpg	100
1366.373	0.886	886.3	incongruent	Block2	incongruent/STIM_007.jpg	100
1370.57	0.724	723.6	incongruent	Block2	incongruent/STIM_007.jpg	100
1373.415	0.684	684.2	incongruent	Block2	incongruent/STIM_007.jpg	99
1377.66	0.947	947.3	incongruent	Block2	incongruent/STIM_008.jpg	100
1380.764	1.242	1241.8	incongruent	Block2	incongruent/STIM_008.jpg	100
1384.222	0.737	737.3	incongruent	Block2	incongruent/STIM_008.jpg	99
1387.606	0.671	670.8	incongruent	Block2	incongruent/STIM_008.jpg	99
1390.847	0.927	926.7	incongruent	Block2	incongruent/STIM_008.jpg	100
1394.602	1.226	1225.7	incongruent	Block2	incongruent/STIM_009.jpg	99
1399.476	1.186	1186.5	incongruent	Block2	incongruent/STIM_009.jpg	100
1404.349	1.138	1137.8	incongruent	Block2	incongruent/STIM_009.jpg	100
1408.579	0.726	725.7	incongruent	Block2	incongruent/STIM_009.jpg	99
1411.484	0.759	758.8	incongruent	Block2	incongruent/STIM_009.jpg	100
1414.325	1.006	1005.8	incongruent	Block2	incongruent/STIM_010.jpg	100
1419.046	0.909	908.6	incongruent	Block2	incongruent/STIM_010.jpg	99
1423.919	1.367	1367.4	incongruent	Block2	incongruent/STIM_010.jpg	100
1428.853	1.27	1270.2	incongruent	Block2	incongruent/STIM_010.jpg	100
1432.885	1.246	1246.1	incongruent	Block2	incongruent/STIM_010.jpg	100
1436.262	1.088	1087.9	incongruent	Block2	incongruent/STIM_011.jpg	99
1439.877	1.2	1200.1	incongruent	Block2	incongruent/STIM_011.jpg	100
1443.377	0.803	803.1	incongruent	Block2	incongruent/STIM_011.jpg	99
1447.683	1.044	1044.0	incongruent	Block2	incongruent/STIM_011.jpg	99
1452.631	1.056	1056.1	incongruent	Block2	incongruent/STIM_011.jpg	99
1456.465	1.477	1476.7	incongruent	Block2	incongruent/STIM_012.jpg	100
1461.185	0.762	761.7	incongruent	Block2	incongruent/STIM_012.jpg	99
1464.913	1.352	1352.5	incongruent	Block2	incongruent/STIM_012.jpg	99
1469.206	1.073	1073.2	incongruent	Block2	incongruent/STIM_012.jpg	100
1473.719	0.824	823.5	incongruent	Block2	incongruent/STIM_012.jpg	99
1477.278	1.577	1576.6	incongruent	Block2	incongruent/STIM_013.jpg	100
1482.69	0.988	987.7	incongruent	Block2	incongruent/STIM_013.jpg	99
1486.792	0.978	978.2	incongruent	Block2	incongruent/STIM_013.jpg	99
1489.953	0.661	660.8	incongruent	Block2	incongruent/STIM_013.jpg	100
1493.876	0.916	916.4	incongruent	Block2	incongruent/STIM_013.jpg	99
1498.487	1.104	1104.2	incongruent	Block2	incongruent/STIM_014.jpg	100
1503.243	0.894	894.4	incongruent	Block2	incongruent/STIM_014.jpg	100
1507.821	1.063	1062.8	incongruent	Block2	incongruent/STIM_014.jpg	100
1510.984	0.769	769.2	incongruent	Block2	incongruent/STIM_014.jpg	99
1514.271	0.788	788.1	incongruent	Block2	incongruent/STIM_014.jpg	100
1517.6	1.45	1450.5	incongruent	Block2	incongruent/STIM_015.jpg	99
1521.735	0.724	724.5	incongruent	Block2	incongruent/STIM_015.jpg	100
1524.823	0.91	910.0	incongruent	Block2	incongruent/STIM_015.jpg	100
1528.853	0.706	705.5	incongruent	Block2	incongruent/STIM_015.jpg	100
1532.889	0.722	722.4	incongruent	Block2	incongruent/STIM_015.jpg	100
1536.557	1.335	1334.6	incongruent	Block2	incongruent/STIM_016.jpg	100
1541.474	0.991	990.6	incongruent	Block2	incongruent/STIM_016.jpg	99
1545.021	0.718	718.0	incongruent	Block2	incongruent/STIM_016.jpg	99
1549.438	0.785	785.0	incongruent	Block2	incongruent/STIM_016.jpg	99
1552.606	1.103	1102.6	incongruent	Block2	incongruent/STIM_016.jpg	100
1556.356	1.579	1579.1	incongruent	Block2	incongruent/STIM_017.jpg	99
1561.226	1.069	1069.4	incongruent	Block2	incongruent/STIM_017.jpg	100
1565.79	1.254	1254.4	incongruent	Block2	incongruent/STIM_017.jpg	100
1569.253	0.967	966.6	incongruent	Block2	incongruent/STIM_017.jpg	100
1573.907	1.301	1301.3	incongruent	Block2	incongruent/STIM_017.jpg	99
1578.792	1.225	1224.9	incongruent	Block2	incongruent/STIM_018.jpg	99
1583.442	1.459	1458.9	incongruent	Block2	incongruent/STIM_018.jpg	100
1587.457	1.173	1173.3	incongruent	Block2	incongruent/STIM_018.jpg	99
1590.81	1.044	1043.9	incongruent	Block2	incongruent/STIM_018.jpg	99
1595.251	1.25	1250.2	incongruent	Block2	incongruent/STIM_018.jpg	100
1600.14	1.337	1337.2	incongruent	Block2	incongruent/STIM_019.jpg	100
1603.629	0.998	998.1	incongruent	Block2	incongruent/STIM_019.jpg	100
1608.17	0.97	970.2	incongruent	Block2	incongruent/STIM_019.jpg	99
1612.918	0.91	910.1	incongruent	Block2	incongruent/STIM_019.jpg	99
1616.234	0.707	706.9	incongruent	Block2	incongruent/STIM_019.jpg	99
1619.69	0.745	745.4	incongruent	Block2	incongruent/STIM_020.jpg	99
1623.723	0.749	748.7	incongruent	Block2	incongruent/STIM_020.jpg	100
1627.283	1.35	1349.8	incongruent	Block2	incongruent/STIM_020.jpg	100
1630.857	0.972	971.5	incongruent	Block2	incongruent/STIM_020.jpg	99
1635.734	1.026	1026.0	incongruent	Block2	incongruent/STIM_020.jpg	99
1640.037	0.83	830.1	incongruent	Block2	incongruent/STIM_021.jpg	99
1644.458	0.985	985.1	incongruent	Block2	incongruent/STIM_021.jpg	99
1649.428	0.871	871.1	incongruent	Block2	incongruent/STIM_021.jpg	100
1654.009	0.773	773.2	incongruent	Block2	incongruent/STIM_021.jpg	99
1657.819	1.062	1062.1	incongruent	Block2	incongruent/STIM_021.jpg	99
1661.928	0.775	775.4	incongruent	Block2	incongruent/STIM_022.jpg	99
1666.25	0.823	823.1	incongruent	Block2	incongruent/STIM_022.jpg	99
1669.737	0.958	957.7	incongruent	Block2	incongruent/STIM_022.jpg	100
1674.529	1.26	1260.0	incongruent	Block2	incongruent/STIM_022.jpg	99
1678.75	0.795	795.0	incongruent	Block2	incongruent/STIM_022.jpg	100
1682.519	1.471	1471.4	incongruent	Block2	incongruent/STIM_023.jpg	99
1686.268	1.436	1435.7	incongruent	Block2	incongruent/STIM_023.jpg	100
1691.137	0.708	708.3	incongruent	Block2	incongruent/STIM_023.jpg	100
1695.201	1.164	1163.8	incongruent	Block2	incongruent/STIM_023.jpg	99
1699.845	0.701	700.6	incongruent	Block2	incongruent/STIM_023.jpg	100
1703.534	1.18	1180.1	incongruent	Block2	incongruent/STIM_024.jpg	100
1706.909	1.346	1345.9	incongruent	Block2	incongruent/STIM_024.jpg	100
1712.151	0.902	901.8	incongruent	Block2	incongruent/STIM_024.jpg	99
1716.858	0.828	827.9	incongruent	Block2	incongruent/STIM_024.jpg	100
1721.479	0.73	730.5	incongruent	Block2	incongruent/STIM_024.jpg	100
1725.825	0.859	859.1	incongruent	Block2	incongruent/STIM_025.jpg	100
1729.753	0.965	965.3	incongruent	Block2	incongruent/STIM_025.jpg	99
1734.646	0.784	784.3	incongruent	Block2	incongruent/STIM_025.jpg	99
1737.903	1.303	1303.0	incongruent	Block2	incongruent/STIM_025.jpg	99
1742.381	0.998	997.5	incongruent	Block2	incongruent/STIM_025.jpg	99
1746.724	0.76	760.4	incongruent	Block2	incongruent/STIM_026.jpg	99
1749.67	0.91	910.0	incongruent	Block2	incongruent/STIM_026.jpg	99
1752.701	1.276	1276.1	incongruent	Block2	incongruent/STIM_026.jpg	100
1757.774	0.876	876.0	incongruent	Block2	incongruent/STIM_026.jpg	99
1762.608	1.296	1295.5	incongruent	Block2	incongruent/STIM_026.jpg	99
1767.058	1.332	1331.7	incongruent	Block2	incongruent/STIM_027.jpg	99
1770.506	0.968	967.7	incongruent	Block2	incongruent/STIM_027.jpg	100
1774.91	0.767	766.6	incongruent	Block2	incongruent/STIM_027.jpg	99
1778.436	1.028	1028.5	incongruent	Block2	incongruent/STIM_027.jpg	100
1783.386	0.627	626.6	incongruent	Block2	incongruent/STIM_027.jpg	99
1786.798	1.273	1273.1	incongruent	Block2	incongruent/STIM_028.jpg	99
1791.877	1.313	1313.2	incongruent	Block2	incongruent/STIM_028.jpg	99
1795.76	0.711	711.3	incongruent	Block2	incongruent/STIM_028.jpg	99
1800.466	0.848	848.3	incongruent	Block2	incongruent/STIM_028.jpg	99
1804.975	0.694	694.2	incongruent	Block2	incongruent/STIM_028.jpg	100
1808.678	1.419	1419.2	incongruent	Block2	incongruent/STIM_029.jpg	100
1812.77	0.838	837.7	incongruent	Block2	incongruent/STIM_029.jpg	100
1817.442	1.018	1017.6	incongruent	Block2	incongruent/STIM_029.jpg	100
1821.414	1.246	1245.5	incongruent	Block2	incongruent/STIM_029.jpg	99
1825.555	0.846	846.4	incongruent	Block2	incongruent/STIM_029.jpg	99
1829.063	0.86	859.7	congruent	Block2	congruent/STIM_000.jpg	99
1833.344	0.971	970.8	congruent	Block2	congruent/STIM_000.jpg	100
1836.454	1.04	1039.7	congruent	Block2	congruent/STIM_000.jpg	100
1841.188	0.945	944.9	congruent	Block2	congruent/STIM_000.jpg	100
1845.508	0.668	667.5	congruent	Block2	congruent/STIM_000.jpg	100
1848.463	0.856	855.9	congruent	Block2	congruent/STIM_001.jpg	100
1853.287	0.72	720.0	congruent	Block2	congruent/STIM_001.jpg	99
1856.937	1.026	1026.4	congruent	Block2	congruent/STIM_001.jpg	99
1861.24	1.085	1084.7	congruent	Block2	congruent/STIM_001.jpg	99
1865.611	0.756	756.5	congruent	Block2	congruent/STIM_001.jpg	100
1868.415	0.64	639.7	congruent	Block2	congruent/STIM_002.jpg	99
1871.59	1.069	1068.8	congruent	Block2	congruent/STIM_002.jpg	100
1876.29	0.926	925.9	congruent	Block2	congruent/STIM_002.jpg	100
1880.18	0.888	888.2	congruent	Block2	congruent/STIM_002.jpg	100
1883.699	0.862	862.0	congruent	Block2	congruent/STIM_002.jpg	99
1888.355	1.117	1116.7	congruent	Block2	congruent/STIM_003.jpg	100
1893.445	0.947	947.0	congruent	Block2	congruent/STIM_003.jpg	100
1898.218	0.686	686.5	congruent	Block2	congruent/STIM_003.jpg	100
1901.16	0.888	888.3	congruent	Block2	congruent/STIM_003.jpg	99
1905.874	1.007	1006.6	congruent	Block2	congruent/STIM_003.jpg	99
1909.989	0.858	858.3	congruent	Block2	congruent/STIM_004.jpg	100
1913.272	0.79	790.4	congruent	Block2	congruent/STIM_004.jpg	99
1917.002	0.878	878.1	congruent	Block2	congruent/STIM_004.jpg	100
1920.46	1.005	1004.8	congruent	Block2	congruent/STIM_004.jpg	100
1925.132	1.092	1091.8	congruent	Block2	congruent/STIM_004.jpg	100
1930.213	0.884	883.8	congruent	Block2	congruent/STIM_005.jpg	100
1933.104	1.073	1073.3	congruent	Block2	congruent/STIM_005.jpg	100
1937.7	0.8	799.9	congruent	Block2	congruent/STIM_005.jpg	100
1941.632	0.93	929.7	congruent	Block2	congruent/STIM_005.jpg	99
1946.375	0.884	883.5	congruent	Block2	congruent/STIM_005.jpg	100
1950.445	1.084	1084.3	congruent	Block2	congruent/STIM_006.jpg	100
1953.712	0.995	995.2	congruent	Block2	congruent/STIM_006.jpg	99
1957.809	0.99	990.1	congruent	Block2	congruent/STIM_006.jpg	100
1960.953	0.871	871.0	congruent	Block2	congruent/STIM_006.jpg	99
1965.502	0.991	991.1	congruent	Block2	congruent/STIM_006.jpg	100
1970.442	0.802	801.5	congruent	Block2	congruent/STIM_007.jpg	100
1974.107	0.881	881.4	congruent	Block2	congruent/STIM_007.jpg	99
1977.46	0.81	809.8	congruent	Block2	congruent/STIM_007.jpg	99
1982.214	0.915	915.0	congruent	Block2	congruent/STIM_007.jpg	99
1985.568	0.957	956.7	congruent	Block2	congruent/STIM_007.jpg	99
1989.399	0.893	893.3	congruent	Block2	congruent/STIM_008.jpg	99
1994.269	0.732	732.0	congruent	Block2	congruent/STIM_008.jpg	99
1998.334	0.844	843.7	congruent	Block2	congruent/STIM_008.jpg	100
2002.834	0.974	973.7	congruent	Block2	congruent/STIM_008.jpg	100
2007.657	0.867	867.4	congruent	Block2	congruent/STIM_008.jpg	100
2012.445	0.73	729.6	congruent	Block2	congruent/STIM_009.jpg	100
2016.692	0.716	715.8	congruent	Block2	congruent/STIM_009.jpg	99
2020.087	0.752	752.5	congruent	Block2	congruent/STIM_009.jpg	100
2023.894	1.076	1076.3	congruent	Block2	congruent/STIM_009.jpg	99
2028.555	1.038	1037.8	congruent	Block2	congruent/STIM_009.jpg	99
2032.448	0.931	931.4	congruent	Block2	congruent/STIM_010.jpg	100
2037.122	0.638	637.9	congruent	Block2	congruent/STIM_010.jpg	99
2040.475	0.98	979.7	congruent	Block2	congruent/STIM_010.jpg	99
2043.847	0.959	958.8	congruent	Block2	congruent/STIM_010.jpg	100
2048.633	0.684	684.4	congruent	Block2	congruent/STIM_010.jpg	100
2051.723	1.058	1057.8	congruent	Block2	congruent/STIM_011.jpg	100
2056.415	1.084	1084.4	congruent	Block2	congruent/STIM_011.jpg	100
2060.623	1.028	1028.3	congruent	Block2	congruent/STIM_011.jpg	99
2064.744	1.068	1067.9	congruent	Block2	congruent/STIM_011.jpg	100
2069.752	0.745	745.2	congruent	Block2	congruent/STIM_011.jpg	99
2074.038	0.679	678.6	congruent	Block2	congruent/STIM_012.jpg	100
2077.146	0.782	782.1	congruent	Block2	congruent/STIM_012.jpg	99
2081.523	0.679	679.3	congruent	Block2	congruent/STIM_012.jpg	99
2085.127	0.766	766.4	congruent	Block2	congruent/STIM_012.jpg	99
2089.279	0.957	956.7	congruent	Block2	congruent/STIM_012.jpg	99
2092.465	0.927	927.0	congruent	Block2	congruent/STIM_013.jpg	99
2096.135	1.023	1022.9	congruent	Block2	congruent/STIM_013.jpg	100
2099.196	0.965	965.2	congruent	Block2	congruent/STIM_013.jpg	100
2103.42	0.699	698.6	congruent	Block2	congruent/STIM_013.jpg	100
2107.529	0.666	666.5	congruent	Block2	congruent/STIM_013.jpg	99
2111.693	1.001	1000.8	congruent	Block2	congruent/STIM_014.jpg	100
2115.54	0.973	973.3	congruent	Block2	congruent/STIM_014.jpg	100
2119.674	0.963	962.8	congruent	Block2	congruent/STIM_014.jpg	100
2124.039	1.032	1031.8	congruent	Block2	congruent/STIM_014.jpg	99
2128.495	0.962	961.9	congruent	Block2	congruent/STIM_014.jpg	100
2131.696	0.694	694.3	congruent	Block2	congruent/STIM_015.jpg	99
2134.801	0.91	909.6	congruent	Block2	congruent/STIM_015.jpg	100
2138.178	1.044	1043.7	congruent	Block2	congruent/STIM_015.jpg	99
2142.775	1.086	1085.6	congruent	Block2	congruent/STIM_015.jpg	100
2146.087	0.897	896.8	congruent	Block2	congruent/STIM_015.jpg	99
2150.519	0.817	816.6	congruent	Block2	congruent/STIM_016.jpg	99
2154.326	1.085	1084.7	congruent	Block2	congruent/STIM_016.jpg	99
2157.854	1.101	1101.4	congruent	Block2	congruent/STIM_016.jpg	99
2162.722	0.83	830.3	congruent	Block2	congruent/STIM_016.jpg	100
2166.201	0.912	912.4	congruent	Block2	congruent/STIM_016.jpg	99
2170.836	0.758	757.8	congruent	Block2	congruent/STIM_017.jpg	99
2175.328	1.022	1021.7	congruent	Block2	congruent/STIM_017.jpg	100
2179.971	0.702	701.7	congruent	Block2	congruent/STIM_017.jpg	100
2184.093	0.736	736.4	congruent	Block2	congruent/STIM_017.jpg	99
2188.369	1.011	1011.0	congruent	Block2	congruent/STIM_017.jpg	99
2192.835	0.788	787.6	congruent	Block2	congruent/STIM_018.jpg	100
2196.151	0.788	787.5	congruent	Block2	congruent/STIM_018.jpg	100
2200.711	1.024	1023.6	congruent	Block2	congruent/STIM_018.jpg	100
2205.056	1.012	1011.8	congruent	Block2	congruent/STIM_018.jpg	100
2208.27	0.923	923.3	congruent	Block2	congruent/STIM_018.jpg	99
2212.463	0.627	627.3	congruent	Block2	congruent/STIM_019.jpg	99
2216.496	1.014	1014.4	congruent	Block2	congruent/STIM_019.jpg	99
2220.421	0.902	901.5	congruent	Block2	congruent/STIM_019.jpg	100
2224.618	1.112	1112.4	congruent	Block2	congruent/STIM_019.jpg	100
2228.81	0.69	689.5	congruent	Block2	congruent/STIM_019.jpg	100
2232.044	0.861	860.7	congruent	Block2	congruent/STIM_020.jpg	100
2236.121	0.823	823.4	congruent	Block2	congruent/STIM_020.jpg	100
2240.37	0.898	897.9	congruent	Block2	congruent/STIM_020.jpg	100
2244.882	0.772	771.9	congruent	Block2	congruent/STIM_020.jpg	100
2248.13	0.703	703.4	congruent	Block2	congruent/STIM_020.jpg	100
2251.669	0.898	898.0	congruent	Block2	congruent/STIM_021.jpg	100
2255.652	0.735	734.9	congruent	Block2	congruent/STIM_021.jpg	100
2258.767	1.047	1046.6	congruent	Block2	congruent/STIM_021.jpg	99
2263.649	0.726	726.5	congruent	Block2	congruent/STIM_021.jpg	99
2267.914	0.829	828.6	congruent	Block2	congruent/STIM_021.jpg	99
2271.248	0.881	880.8	congruent	Block2	congruent/STIM_022.jpg	99
2274.262	0.713	712.7	congruent	Block2	congruent/STIM_022.jpg	99
2277.975	0.654	653.6	congruent	Block2	congruent/STIM_022.jpg	100
2281.232	0.718	717.8	congruent	Block2	congruent/STIM_022.jpg	100
2284.432	0.979	979.4	congruent	Block2	congruent/STIM_022.jpg	100
2287.884	1.053	1052.6	congruent	Block2	congruent/STIM_023.jpg	100
2291.715	0.888	887.6	congruent	Block2	congruent/STIM_023.jpg	100
2296.046	1.118	1117.6	congruent	Block2	congruent/STIM_023.jpg	100
2299.183	0.747	747.4	congruent	Block2	congruent/STIM_023.jpg	100
2303.792	0.721	720.8	congruent	Block2	congruent/STIM_023.jpg	100
2308.301	0.759	758.6	congruent	Block2	congruent/STIM_024.jpg	99
2312.889	0.941	940.8	congruent	Block2	congruent/STIM_024.jpg	100
2316.535	1.028	1028.3	congruent	Block2	congruent/STIM_024.jpg	100
2320.356	0.907	906.8	congruent	Block2	congruent/STIM_024.jpg	99
2323.572	0.951	951.3	congruent	Block2	congruent/STIM_024.jpg	100
2326.827	0.944	943.9	congruent	Block2	congruent/STIM_025.jpg	100
2331.399	0.791	791.1	congruent	Block2	congruent/STIM_025.jpg	100
2335.128	1.021	1020.9	congruent	Block2	congruent/STIM_025.jpg	99
2338.468	1.034	1034.0	congruent	Block2	congruent/STIM_025.jpg	100
2342.983	0.987	986.8	congruent	Block2	congruent/STIM_025.jpg	100
2347.745	0.636	635.7	congruent	Block2	congruent/STIM_026.jpg	100
2350.702	0.762	761.6	congruent	Block2	congruent/STIM_026.jpg	99
2354.424	0.756	755.5	congruent	Block2	congruent/STIM_026.jpg	99
2358.979	0.658	658.3	congruent	Block2	congruent/STIM_026.jpg	99
2362.831	0.853	852.7	congruent	Block2	congruent/STIM_026.jpg	99
2366.233	0.95	949.9	congruent	Block2	congruent/STIM_027.jpg	100
2370.296	0.661	660.7	congruent	Block2	congruent/STIM_027.jpg	100
2373.304	0.709	709.2	congruent	Block2	congruent/STIM_027.jpg	99
2377.218	0.942	942.1	congruent	Block2	congruent/STIM_027.jpg	99
2380.474	1.021	1020.7	congruent	Block2	congruent/STIM_027.jpg	99
2385.285	0.674	673.9	congruent	Block2	congruent/STIM_028.jpg	99
2387.968	0.992	992.2	congruent	Block2	congruent/STIM_028.jpg	99
2391.848	0.766	766.1	congruent	Block2	congruent/STIM_028.jpg	100
2394.878	0.708	708.5	congruent	Block2	congruent/STIM_028.jpg	100
2398.275	0.954	954.5	congruent	Block2	congruent/STIM_028.jpg	99
2401.903	1.053	1053.2	congruent	Block2	congruent/STIM_029.jpg	100
2406.387	0.906	905.7	congruent	Block2	congruent/STIM_029.jpg	99
2410.529	0.837	837.4	congruent	Block2	congruent/STIM_029.jpg	100
2414.45	0.884	884.3	congruent	Block2	congruent/STIM_029.jpg	99
2417.963	1.015	1015.0	congruent	Block2	congruent/STIM_029.jpg	99
2422.279	0.973	972.7	incongruent	Block3	incongruent/STIM_000.jpg	100
2426.691	1.136	1135.5	incongruent	Block3	incongruent/STIM_000.jpg	100
2430.008	0.868	867.5	incongruent	Block3	incongruent/STIM_000.jpg	99
2433.692	1.277	1277.2	incongruent	Block3	incongruent/STIM_000.jpg	99
2438.308	0.697	696.9	incongruent	Block3	incongruent/STIM_000.jpg	100
2441.922	1.247	1246.7	incongruent	Block3	incongruent/STIM_001.jpg	99
2445.212	1.212	1212.0	incongruent	Block3	incongruent/STIM_001.jpg	100
2449.127	0.738	737.9	incongruent	Block3	incongruent/STIM_001.jpg	99
2453.767	1.137	1136.9	incongruent	Block3	incongruent/STIM_001.jpg	100
2458.439	1.25	1249.8	incongruent	Block3	incongruent/STIM_001.jpg	100
2462.618	0.892	891.7	incongruent	Block3	incongruent/STIM_002.jpg	99
2466.616	0.989	988.7	incongruent	Block3	incongruent/STIM_002.jpg	100
2471.026	0.934	933.8	incongruent	Block3	incongruent/STIM_002.jpg	100
2475.093	0.963	963.3	incongruent	Block3	incongruent/STIM_002.jpg	100
2478.247	0.862	861.6	incongruent	Block3	incongruent/STIM_002.jpg	100
2481.422	1.123	1123.2	incongruent	Block3	incongruent/STIM_003.jpg	100
2484.591	0.626	625.7	incongruent	Block3	incongruent/STIM_003.jpg	100
2487.359	0.7	699.8	incongruent	Block3	incongruent/STIM_003.jpg	100
2491.785	0.887	886.9	incongruent	Block3	incongruent/STIM_003.jpg	100
2495.256	0.934	934.1	incongruent	Block3	incongruent/STIM_003.jpg	100
2499.214	1.272	1271.7	incongruent	Block3	incongruent/STIM_004.jpg	99
2503.18	0.851	851.3	incongruent	Block3	incongruent/STIM_004.jpg	99
2507.281	0.951	950.8	incongruent	Block3	incongruent/STIM_004.jpg	100
2512.039	1.122	1121.7	incongruent	Block3	incongruent/STIM_004.jpg	100
2516.244	1.293	1293.2	incongruent	Block3	incongruent/STIM_004.jpg	100
2519.936	0.995	994.7	incongruent	Block3	incongruent/STIM_005.jpg	99
2523.95	1.24	1239.5	incongruent	Block3	incongruent/STIM_005.jpg	99
2528.384	0.858	857.7	incongruent	Block3	incongruent/STIM_005.jpg	99
2531.666	0.837	837.3	incongruent	Block3	incongruent/STIM_005.jpg	99
2536.161	0.831	830.8	incongruent	Block3	incongruent/STIM_005.jpg	100
2539.257	0.813	813.0	incongruent	Block3	incongruent/STIM_006.jpg	99
2543.045	0.897	897.1	incongruent	Block3	incongruent/STIM_006.jpg	100
2547.064	0.991	990.9	incongruent	Block3	incongruent/STIM_006.jpg	100
2550.581	1.149	1149.1	incongruent	Block3	incongruent/STIM_006.jpg	100
2553.791	0.766	766.3	incongruent	Block3	incongruent/STIM_006.jpg	100
2557.158	0.916	916.2	incongruent	Block3	incongruent/STIM_007.jpg	99
2560.85	1.185	1184.8	incongruent	Block3	incongruent/STIM_007.jpg	100
2565.019	1.088	1088.3	incongruent	Block3	incongruent/STIM_007.jpg	100
2569.939	1.137	1136.9	incongruent	Block3	incongruent/STIM_007.jpg	100
2573.447	1.145	1144.8	incongruent	Block3	incongruent/STIM_007.jpg	99
2578.488	1.13	1129.7	incongruent	Block3	incongruent/STIM_008.jpg	100
2583.552	1.282	1282.3	incongruent	Block3	incongruent/STIM_008.jpg	100
2587.262	1.16	1160.4	incongruent	Block3	incongruent/STIM_008.jpg	100
2591.739	1.038	1038.0	incongruent	Block3	incongruent/STIM_008.jpg	100
2595.311	0.709	709.0	incongruent	Block3	incongruent/STIM_008.jpg	100
2599.086	1.009	1008.6	incongruent	Block3	incongruent/STIM_009.jpg	100
2603.213	1.04	1039.5	incongruent	Block3	incongruent/STIM_009.jpg	99
2606.363	1.001	1000.8	incongruent	Block3	incongruent/STIM_009.jpg	99
2610.456	0.92	920.0	incongruent	Block3	incongruent/STIM_009.jpg	99
2614.233	1.247	1247.0	incongruent	Block3	incongruent/STIM_009.jpg	100
2619.356	0.781	781.0	incongruent	Block3	incongruent/STIM_010.jpg	99
2623.993	1.259	1258.7	incongruent	Block3	incongruent/STIM_010.jpg	100
2628.141	1.036	1035.8	incongruent	Block3	incongruent/STIM_010.jpg	99
2631.866	0.715	715.0	incongruent	Block3	incongruent/STIM_010.jpg	99
2635.903	0.718	717.8	incongruent	Block3	incongruent/STIM_010.jpg	100
2640.08	0.629	629.3	incongruent	Block3	incongruent/STIM_011.jpg	100
2643.961	1.214	1214.1	incongruent	Block3	incongruent/STIM_011.jpg	99
2647.195	1.288	1287.6	incongruent	Block3	incongruent/STIM_011.jpg	99
2650.576	0.896	895.6	incongruent	Block3	incongruent/STIM_011.jpg	99
2655.178	0.964	963.5	incongruent	Block3	incongruent/STIM_011.jpg	100
2659.654	0.619	619.2	incongruent	Block3	incongruent/STIM_012.jpg	100
2662.602	1.173	1172.8	incongruent	Block3	incongruent/STIM_012.jpg	100
2666.97	0.686	686.4	incongruent	Block3	incongruent/STIM_012.jpg	100
2671.453	0.927	927.1	incongruent	Block3	incongruent/STIM_012.jpg	100
2674.58	0.627	627.3	incongruent	Block3	incongruent/STIM_012.jpg	99
2677.911	0.676	675.5	incongruent	Block3	incongruent/STIM_013.jpg	99
2681.628	1.135	1135.4	incongruent	Block3	incongruent/STIM_013.jpg	99
2685.509	1.009	1009.1	incongruent	Block3	incongruent/STIM_013.jpg	100
2688.958	0.673	672.7	incongruent	Block3	incongruent/STIM_013.jpg	99
2691.775	0.66	659.5	incongruent	Block3	incongruent/STIM_013.jpg	99
2694.472	1.153	1152.9	incongruent	Block3	incongruent/STIM_014.jpg	100
2698.803	0.668	667.8	incongruent	Block3	incongruent/STIM_014.jpg	99
2701.921	0.785	785.1	incongruent	Block3	incongruent/STIM_014.jpg	99
2706.631	1.173	1173.4	incongruent	Block3	incongruent/STIM_014.jpg	99
2711.174	0.809	809.4	incongruent	Block3	incongruent/STIM_014.jpg	99
2715.925	0.989	988.6	incongruent	Block3	incongruent/STIM_015.jpg	99
2719.554	0.753	753.0	incongruent	Block3	incongruent/STIM_015.jpg	100
2722.466	1.275	1274.7	incongruent	Block3	incongruent/STIM_015.jpg	99
2726.411	1.103	1102.7	incongruent	Block3	incongruent/STIM_015.jpg	99
2730.662	1.118	1118.0	incongruent	Block3	incongruent/STIM_015.jpg	100
2734.567	1.274	1273.8	incongruent	Block3	incongruent/STIM_016.jpg	100
2739.424	0.998	998.3	incongruent	Block3	incongruent/STIM_016.jpg	99
2742.557	0.915	915.4	incongruent	Block3	incongruent/STIM_016.jpg	100
2746.52	0.664	664.5	incongruent	Block3	incongruent/STIM_016.jpg	100
2750.265	0.746	746.0	incongruent	Block3	incongruent/STIM_016.jpg	99
2754.368	0.809	809.2	incongruent	Block3	incongruent/STIM_017.jpg	99
2757.301	1.122	1122.3	incongruent	Block3	incongruent/STIM_017.jpg	100
2761.449	1.081	1081.4	incongruent	Block3	incongruent/STIM_017.jpg	99
2765.343	1.132	1131.5	incongruent	Block3	incongruent/STIM_017.jpg	99
2768.587	1.279	1279.2	incongruent	Block3	incongruent/STIM_017.jpg	100
2772.24	0.631	631.0	incongruent	Block3	incongruent/STIM_018.jpg	99
2776.769	0.768	768.2	incongruent	Block3	incongruent/STIM_018.jpg	99
2780.793	1.255	1255.3	incongruent	Block3	incongruent/STIM_018.jpg	99
2785.988	0.813	813.2	incongruent	Block3	incongruent/STIM_018.jpg	99
2790.234	1.08	1079.6	incongruent	Block3	incongruent/STIM_018.jpg	100
2793.43	1.286	1285.7	incongruent	Block3	incongruent/STIM_019.jpg	100
2797.052	0.629	629.1	incongruent	Block3	incongruent/STIM_019.jpg	99
2800.476	1.018	1018.0	incongruent	Block3	incongruent/STIM_019.jpg	99
2804.006	0.744	743.6	incongruent	Block3	incongruent/STIM_019.jpg	100
2807.712	0.78	780.2	incongruent	Block3	incongruent/STIM_019.jpg	100
2811.198	1.18	1180.3	incongruent	Block3	incongruent/STIM_020.jpg	99
2815.927	1.136	1135.9	incongruent	Block3	incongruent/STIM_020.jpg	100
2820.802	0.984	983.7	incongruent	Block3	incongruent/STIM_020.jpg	100
2825.678	0.8	800.3	incongruent	Block3	incongruent/STIM_020.jpg	100
2828.936	1.124	1124.1	incongruent	Block3	incongruent/STIM_020.jpg	99
2833.113	1.183	1182.7	incongruent	Block3	incongruent/STIM_021.jpg	99
2837.723	0.768	768.5	incongruent	Block3	incongruent/STIM_021.jpg	99
2841.544	1.075	1075.2	incongruent	Block3	incongruent/STIM_021.jpg	100
2846.11	0.898	898.4	incongruent	Block3	incongruent/STIM_021.jpg	100
2850.524	0.921	921.2	incongruent	Block3	incongruent/STIM_021.jpg	99
2854.832	1.031	1030.8	incongruent	Block3	incongruent/STIM_022.jpg	99
2858.997	1.091	1091.4	incongruent	Block3	incongruent/STIM_022.jpg	100
2862.327	0.925	925.4	incongruent	Block3	incongruent/STIM_022.jpg	99
2866.361	1.172	1172.2	incongruent	Block3	incongruent/STIM_022.jpg	99
2871.419	0.722	721.8	incongruent	Block3	incongruent/STIM_022.jpg	100
2875.966	0.978	978.0	incongruent	Block3	incongruent/STIM_023.jpg	100
2879.913	0.687	687.0	incongruent	Block3	incongruent/STIM_023.jpg	100
2884.406	0.664	663.7	incongruent	Block3	incongruent/STIM_023.jpg	100
2887.88	0.724	723.6	incongruent	Block3	incongruent/STIM_023.jpg	100
2891.46	0.872	872.1	incongruent	Block3	incongruent/STIM_023.jpg	100
2895.601	1.043	1043.2	incongruent	Block3	incongruent/STIM_024.jpg	99
2899.561	1.199	1199.3	incongruent	Block3	incongruent/STIM_024.jpg	99
2904.379	1.147	1146.7	incongruent	Block3	incongruent/STIM_024.jpg	100
2908.445	0.676	676.2	incongruent	Block3	incongruent/STIM_024.jpg	100
2913.006	0.66	660.5	incongruent	Block3	incongruent/STIM_024.jpg	100
2916.548	0.704	703.5	incongruent	Block3	incongruent/STIM_025.jpg	99
2919.752	0.96	959.5	incongruent	Block3	incongruent/STIM_025.jpg	100
2924.104	1.268	1267.6	incongruent	Block3	incongruent/STIM_025.jpg	99
2927.694	0.794	793.7	incongruent	Block3	incongruent/STIM_025.jpg	100
2931.403	1.185	1184.8	incongruent	Block3	incongruent/STIM_025.jpg	99
2935.471	1.029	1029.1	incongruent	Block3	incongruent/STIM_026.jpg	99
2939.674	1.107	1107.2	incongruent	Block3	incongruent/STIM_026.jpg	100
2943.217	1.224	1223.5	incongruent	Block3	incongruent/STIM_026.jpg	99
2946.714	1.164	1163.6	incongruent	Block3	incongruent/STIM_026.jpg	99
2951.758	1.248	1248.4	incongruent	Block3	incongruent/STIM_026.jpg	99
2955.68	0.9	899.7	incongruent	Block3	incongruent/STIM_027.jpg	100
2960.081	1.281	1281.2	incongruent	Block3	incongruent/STIM_027.jpg	100
2965.286	1.13	1130.5	incongruent	Block3	incongruent/STIM_027.jpg	99
2969.508	0.838	838.0	incongruent	Block3	incongruent/STIM_027.jpg	99
2973.736	0.91	910.1	incongruent	Block3	incongruent/STIM_027.jpg	99
2977.624	0.932	931.7	incongruent	Block3	incongruent/STIM_028.jpg	99
2981.631	0.858	857.7	incongruent	Block3	incongruent/STIM_028.jpg	100
2984.568	1.16	1159.7	incongruent	Block3	incongruent/STIM_028.jpg	100
2987.779	0.903	902.8	incongruent	Block3	incongruent/STIM_028.jpg	100
2991.275	1.147	1146.6	incongruent	Block3	incongruent/STIM_028.jpg	99
2994.64	1.26	1260.3	incongruent	Block3	incongruent/STIM_029.jpg	99
2999.761	1.059	1059.3	incongruent	Block3	incongruent/STIM_029.jpg	100
3004.757	1.051	1050.8	incongruent	Block3	incongruent/STIM_029.jpg	99
3008.038	1.303	1303.2	incongruent	Block3	incongruent/STIM_029.jpg	99
3012.734	1.054	1053.9	incongruent	Block3	incongruent/STIM_029.jpg	100
3017.051	0.899	899.0	congruent	Block3	congruent/STIM_000.jpg	99
3020.128	0.926	925.6	congruent	Block3	congruent/STIM_000.jpg	100
3023.552	0.83	829.6	congruent	Block3	congruent/STIM_000.jpg	99
3027.645	1.046	1046.1	congruent	Block3	congruent/STIM_000.jpg	100
3032.197	0.91	909.5	congruent	Block3	congruent/STIM_000.jpg	100
3035.448	0.959	959.2	congruent	Block3	congruent/STIM_001.jpg	99
3039.235	0.964	964.3	congruent	Block3	congruent/STIM_001.jpg	100
3043.922	0.719	719.0	congruent	Block3	congruent/STIM_001.jpg	100
3048.352	0.828	828.5	congruent	Block3	congruent/STIM_001.jpg	99
3052.165	0.716	716.0	congruent	Block3	congruent/STIM_001.jpg	100
3055.251	0.676	676.3	congruent	Block3	congruent/STIM_002.jpg	100
3058.524	1.104	1104.5	congruent	Block3	congruent/STIM_002.jpg	99
3062.835	1.102	1102.0	congruent	Block3	congruent/STIM_002.jpg	99
3066.554	0.814	813.6	congruent	Block3	congruent/STIM_002.jpg	99
3070.698	0.679	679.0	congruent	Block3	congruent/STIM_002.jpg	100
3074.663	1.101	1101.4	congruent	Block3	congruent/STIM_003.jpg	99
3079.663	1.077	1077.4	congruent	Block3	congruent/STIM_003.jpg	99
3084.269	0.826	825.9	congruent	Block3	congruent/STIM_003.jpg	99
3088.931	0.622	622.1	congruent	Block3	congruent/STIM_003.jpg	100
3092.357	0.639	638.7	congruent	Block3	congruent/STIM_003.jpg	99
3096.568	0.662	662.0	congruent	Block3	congruent/STIM_004.jpg	100
3100.155	0.856	856.3	congruent	Block3	congruent/STIM_004.jpg	99
3103.17	0.947	947.0	congruent	Block3	congruent/STIM_004.jpg	100
3107.802	1.074	1074.1	congruent	Block3	congruent/STIM_004.jpg	99
3112.652	1.038	1038.1	congruent	Block3	congruent/STIM_004.jpg	99
3116.794	0.755	755.3	congruent	Block3	congruent/STIM_005.jpg	100
3120.344	0.967	967.2	congruent	Block3	congruent/STIM_005.jpg	99
3124.649	0.706	706.5	congruent	Block3	congruent/STIM_005.jpg	100
3127.384	0.796	796.3	congruent	Block3	congruent/STIM_005.jpg	100
3130.723	1.104	1103.8	congruent	Block3	congruent/STIM_005.jpg	100
3134.915	0.934	934.3	congruent	Block3	congruent/STIM_006.jpg	100
3138.468	0.774	774.3	congruent	Block3	congruent/STIM_006.jpg	99
3141.879	1.115	1115.3	congruent	Block3	congruent/STIM_006.jpg	99
3145.597	0.629	629.3	congruent	Block3	congruent/STIM_006.jpg	100
3148.453	0.9	899.9	congruent	Block3	congruent/STIM_006.jpg	100
3152.491	0.644	644.3	congruent	Block3	congruent/STIM_007.jpg	99
3156.569	0.787	787.3	congruent	Block3	congruent/STIM_007.jpg	99
3161.025	0.887	887.3	congruent	Block3	congruent/STIM_007.jpg	100
3165.165	0.776	776.2	congruent	Block3	congruent/STIM_007.jpg	100
3168.683	0.679	678.9	congruent	Block3	congruent/STIM_007.jpg	100
3172.765	0.762	762.5	congruent	Block3	congruent/STIM_008.jpg	99
3177.119	0.759	758.6	congruent	Block3	congruent/STIM_008.jpg	100
3180.443	1.084	1084.1	congruent	Block3	congruent/STIM_008.jpg	99
3184.263	1.072	1071.5	congruent	Block3	congruent/STIM_008.jpg	99
3188.35	1.027	1026.6	congruent	Block3	congruent/STIM_008.jpg	99
3191.719	1.11	1110.2	congruent	Block3	congruent/STIM_009.jpg	100
3195.548	0.952	952.3	congruent	Block3	congruent/STIM_009.jpg	99
3198.617	1.001	1001.0	congruent	Block3	congruent/STIM_009.jpg	99
3201.696	0.757	756.6	congruent	Block3	congruent/STIM_009.jpg	100
3205.633	0.705	704.7	congruent	Block3	congruent/STIM_009.jpg	99
3209.277	0.892	891.7	congruent	Block3	congruent/STIM_010.jpg	99
3213.652	0.794	793.5	congruent	Block3	congruent/STIM_010.jpg	100
3217.543	0.656	656.1	congruent	Block3	congruent/STIM_010.jpg	99
3220.677	0.706	706.0	congruent	Block3	congruent/STIM_010.jpg	100
3224.28	1.075	1075.1	congruent	Block3	congruent/STIM_010.jpg	99
3227.767	0.866	865.6	congruent	Block3	congruent/STIM_011.jpg	99
3231.838	1.089	1089.2	congruent	Block3	congruent/STIM_011.jpg	99
3236.01	0.89	889.5	congruent	Block3	congruent/STIM_011.jpg	100
3240.456	0.967	967.1	congruent	Block3	congruent/STIM_011.jpg	99
3244.614	1.117	1117.4	congruent	Block3	congruent/STIM_011.jpg	100
3249.72	0.749	749.0	congruent	Block3	congruent/STIM_012.jpg	100
3252.662	1.107	1106.8	congruent	Block3	congruent/STIM_012.jpg	100
3257.422	0.654	654.1	congruent	Block3	congruent/STIM_012.jpg	100
3260.463	0.896	896.4	congruent	Block3	congruent/STIM_012.jpg	99
3263.938	0.678	678.4	congruent	Block3	congruent/STIM_012.jpg	100
3267.577	0.673	672.6	congruent	Block3	congruent/STIM_013.jpg	100
3271.964	0.926	926.5	congruent	Block3	congruent/STIM_013.jpg	100
3276.019	0.959	959.4	congruent	Block3	congruent/STIM_013.jpg	99
3280.033	0.732	732.5	congruent	Block3	congruent/STIM_013.jpg	99
3283.752	0.706	705.6	congruent	Block3	congruent/STIM_013.jpg	99
3287.554	1.1	1099.8	congruent	Block3	congruent/STIM_014.jpg	99
3292.413	0.814	814.5	congruent	Block3	congruent/STIM_014.jpg	100
3295.561	0.812	812.3	congruent	Block3	congruent/STIM_014.jpg	100
3299.034	0.876	876.4	congruent	Block3	congruent/STIM_014.jpg	100
3302.592	0.829	828.9	congruent	Block3	congruent/STIM_014.jpg	100
3305.963	0.649	648.7	congruent	Block3	congruent/STIM_015.jpg	99
3309.22	0.917	916.9	congruent	Block3	congruent/STIM_015.jpg	100
3312.566	1.052	1051.6	congruent	Block3	congruent/STIM_015.jpg	100
3316.807	1.056	1056.0	congruent	Block3	congruent/STIM_015.jpg	100
3321.517	0.991	991.4	congruent	Block3	congruent/STIM_015.jpg	100
3326.118	0.8	799.6	congruent	Block3	congruent/STIM_016.jpg	99
3329.5	0.676	675.8	congruent	Block3	congruent/STIM_016.jpg	99
3332.668	1.045	1045.2	congruent	Block3	congruent/STIM_016.jpg	99
3337.645	0.78	779.7	congruent	Block3	congruent/STIM_016.jpg	100
3341.783	1.003	1003.2	congruent	Block3	congruent/STIM_016.jpg	99
3345.9	0.78	780.1	congruent	Block3	congruent/STIM_017.jpg	99
3349.057	0.991	990.8	congruent	Block3	congruent/STIM_017.jpg	99
3353.359	0.9	900.2	congruent	Block3	congruent/STIM_017.jpg	99
3356.463	1.102	1102.2	congruent	Block3	congruent/STIM_017.jpg	100
3359.808	0.776	775.7	congruent	Block3	congruent/STIM_017.jpg	100
3363.983	0.951	951.0	congruent	Block3	congruent/STIM_018.jpg	100
3366.937	0.946	946.1	congruent	Block3	congruent/STIM_018.jpg	100
3370.844	0.654	654.0	congruent	Block3	congruent/STIM_018.jpg	99
3374.342	1.035	1035.4	congruent	Block3	congruent/STIM_018.jpg	100
3379.025	0.71	709.8	congruent	Block3	congruent/STIM_018.jpg	100
3382.9	0.752	751.6	congruent	Block3	congruent/STIM_019.jpg	99
3387.172	0.946	946.4	congruent	Block3	congruent/STIM_019.jpg	99
3390.413	0.897	897.2	congruent	Block3	congruent/STIM_019.jpg	100
3393.84	0.877	877.2	congruent	Block3	congruent/STIM_019.jpg	100
3397.096	1.056	1056.3	congruent	Block3	congruent/STIM_019.jpg	100
3400.182	0.832	832.5	congruent	Block3	congruent/STIM_020.jpg	99
3404.845	0.814	813.6	congruent	Block3	congruent/STIM_020.jpg	99
3408.388	0.734	734.5	congruent	Block3	congruent/STIM_020.jpg	100
3412.085	0.625	625.4	congruent	Block3	congruent/STIM_020.jpg	99
3414.827	0.977	976.9	congruent	Block3	congruent/STIM_020.jpg	99
3419.705	0.74	740.1	congruent	Block3	congruent/STIM_021.jpg	100
3422.964	1.114	1114.5	congruent	Block3	congruent/STIM_021.jpg	100
3427.778	1.108	1107.8	congruent	Block3	congruent/STIM_021.jpg	100
3431.658	0.736	736.0	congruent	Block3	congruent/STIM_021.jpg	99
3436.365	1.041	1041.2	congruent	Block3	congruent/STIM_021.jpg	99
3440.337	0.656	656.0	congruent	Block3	congruent/STIM_022.jpg	100
3444.258	0.783	782.6	congruent	Block3	congruent/STIM_022.jpg	100
3448.509	0.685	684.8	congruent	Block3	congruent/STIM_022.jpg	99
3451.348	0.934	934.4	congruent	Block3	congruent/STIM_022.jpg	100
3455.24	0.731	731.2	congruent	Block3	congruent/STIM_022.jpg	100
3459.291	0.795	794.8	congruent	Block3	congruent/STIM_023.jpg	99
3463.056	0.793	793.4	congruent	Block3	congruent/STIM_023.jpg	100
3466.612	0.713	712.9	congruent	Block3	congruent/STIM_023.jpg	99
3471.185	1.079	1079.3	congruent	Block3	congruent/STIM_023.jpg	100
3475.406	0.71	710.5	congruent	Block3	congruent/STIM_023.jpg	99
3478.825	0.624	624.4	congruent	Block3	congruent/STIM_024.jpg	100
3483.133	1.059	1059.1	congruent	Block3	congruent/STIM_024.jpg	99
3487.26	0.653	653.4	congruent	Block3	congruent/STIM_024.jpg	100
3490.481	0.825	824.8	congruent	Block3	congruent/STIM_024.jpg	99
3495.062	1.045	1044.9	congruent	Block3	congruent/STIM_024.jpg	99
3498.952	1.034	1034.0	congruent	Block3	congruent/STIM_025.jpg	99
3503.687	0.957	957.3	congruent	Block3	congruent/STIM_025.jpg	99
3508.228	1.011	1011.2	congruent	Block3	congruent/STIM_025.jpg	99
3512.008	1.007	1007.3	congruent	Block3	congruent/STIM_025.jpg	99
3515.633	0.818	817.9	congruent	Block3	congruent/STIM_025.jpg	100
3520.357	0.653	652.6	congruent	Block3	congruent/STIM_026.jpg	100
3523.523	0.979	978.7	congruent	Block3	congruent/STIM_026.jpg	100
3527.62	0.939	938.9	congruent	Block3	congruent/STIM_026.jpg	99
3530.956	1.014	1014.1	congruent	Block3	congruent/STIM_026.jpg	99
3535.308	1.008	1007.8	congruent	Block3	congruent/STIM_026.jpg	99
3540.007	0.945	945.3	congruent	Block3	congruent/STIM_027.jpg	100
3543.133	0.823	823.2	congruent	Block3	congruent/STIM_027.jpg	100
3547.466	1.03	1029.6	congruent	Block3	congruent/STIM_027.jpg	99
3551.952	0.666	665.5	congruent	Block3	congruent/STIM_027.jpg	100
3556.59	0.882	882.4	congruent	Block3	congruent/STIM_027.jpg	99
3560.796	1.0	999.5	congruent	Block3	congruent/STIM_028.jpg	99
3564.418	0.76	759.6	congruent	Block3	congruent/STIM_028.jpg	99
3567.433	1.115	1115.2	congruent	Block3	congruent/STIM_028.jpg	99
3571.093	0.786	786.3	congruent	Block3	congruent/STIM_028.jpg	100
3574.893	1.036	1036.4	congruent	Block3	congruent/STIM_028.jpg	99
3579.851	1.056	1055.8	congruent	Block3	congruent/STIM_029.jpg	99
3583.941	0.671	671.3	congruent	Block3	congruent/STIM_029.jpg	99
3588.053	0.914	913.5	congruent	Block3	congruent/STIM_029.jpg	100
3591.955	0.775	775.2	congruent	Block3	congruent/STIM_029.jpg	100
3595.838	0.944	943.9	congruent	Block3	congruent/STIM_029.jpg	100
