onset	duration	accuracy_binary	trial_type	learning_stage	stimulus
0.0	0.874	1	study	Phase1	study/STIM_000.jpg
3.239	0.802	1	study	Phase1	study/STIM_000.jpg
7.994	0.939	1	study	Phase1	study/STIM_000.jpg
11.344	1.78	1	study	Phase1	study/STIM_001.jpg
15.35	1.349	1	study	Phase1	study/STIM_001.jpg
19.465	1.147	1	study	Phase1	study/STIM_001.jpg
23.941	1.612	1	study	Phase1	study/STIM_002.jpg
29.402	1.698	1	study	Phase1	study/STIM_002.jpg
33.129	1.133	1	study	Phase1	study/STIM_002.jpg
36.818	1.089	1	study	Phase1	study/STIM_003.jpg
41.11	0.944	1	study	Phase1	study/STIM_003.jpg
45.415	1.076	1	study	Phase1	study/STIM_003.jpg
48.716	1.304	1	study	Phase1	study/STIM_004.jpg
52.102	1.112	1	study	Phase1	study/STIM_004.jpg
56.481	1.364	1	study	Phase1	study/STIM_004.jpg
59.893	1.637	1	study	Phase1	study/STIM_005.jpg
64.218	1.264	1	study	Phase1	study/STIM_005.jpg
69.16	1.411	1	study	Phase1	study/STIM_005.jpg
74.011	1.076	1	study	Phase1	study/STIM_006.jpg
78.181	1.444	1	study	Phase1	study/STIM_006.jpg
81.745	1.466	1	study	Phase1	study/STIM_006.jpg
86.419	1.263	1	study	Phase1	study/STIM_007.jpg
91.14	1.347	1	study	Phase1	study/STIM_007.jpg
94.883	1.127	1	study	Phase1	study/STIM_007.jpg
98.689	1.352	1	study	Phase1	study/STIM_008.jpg
103.654	0.923	0	study	Phase1	study/STIM_008.jpg
108.069	1.189	1	study	Phase1	study/STIM_008.jpg
112.207	1.695	1	study	Phase1	study/STIM_009.jpg
117.164	1.556	1	study	Phase1	study/STIM_009.jpg
122.481	1.623	1	study	Phase1	study/STIM_009.jpg
127.611	1.349	1	study	Phase1	study/STIM_010.jpg
132.665	1.364	1	study	Phase1	study/STIM_010.jpg
137.347	1.532	1	study	Phase1	study/STIM_010.jpg
141.301	1.302	1	study	Phase1	study/STIM_011.jpg
145.713	1.697	1	study	Phase1	study/STIM_011.jpg
150.742	1.063	1	study	Phase1	study/STIM_011.jpg
155.092	1.267	1	study	Phase1	study/STIM_012.jpg
159.88	1.086	1	study	Phase1	study/STIM_012.jpg
163.955	1.039	1	study	Phase1	study/STIM_012.jpg
168.785	1.192	1	study	Phase1	study/STIM_013.jpg
172.68	0.991	1	study	Phase1	study/STIM_013.jpg
175.966	1.496	1	study	Phase1	study/STIM_013.jpg
180.658	0.951	1	study	Phase1	study/STIM_014.jpg
184.518	1.584	1	study	Phase1	study/STIM_014.jpg
189.53	1.505	1	study	Phase1	study/STIM_014.jpg
194.392	1.096	1	study	Phase1	study/STIM_015.jpg
199.401	1.662	1	study	Phase1	study/STIM_015.jpg
203.802	1.077	1	study	Phase1	study/STIM_015.jpg
207.075	1.218	1	study	Phase1	study/STIM_016.jpg
211.431	1.388	1	study	Phase1	study/STIM_016.jpg
216.144	1.625	1	study	Phase1	study/STIM_016.jpg
219.899	1.329	1	study	Phase1	study/STIM_017.jpg
224.003	1.361	1	study	Phase1	study/STIM_017.jpg
227.646	1.549	1	study	Phase1	study/STIM_017.jpg
231.807	1.22	1	study	Phase1	study/STIM_018.jpg
235.196	1.581	1	study	Phase1	study/STIM_018.jpg
240.475	1.658	1	study	Phase1	study/STIM_018.jpg
244.391	0.971	1	study	Phase1	study/STIM_019.jpg
247.652	1.036	1	study	Phase1	study/STIM_019.jpg
251.399	0.809	1	study	Phase1	study/STIM_019.jpg
255.928	1.247	1	study	Phase1	study/STIM_020.jpg
260.459	1.513	1	study	Phase1	study/STIM_020.jpg
264.992	1.324	1	study	Phase1	study/STIM_020.jpg
269.01	1.162	1	study	Phase1	study/STIM_021.jpg
273.269	1.133	1	study	Phase1	study/STIM_021.jpg
277.214	1.514	1	study	Phase1	study/STIM_021.jpg
281.872	1.414	1	study	Phase1	study/STIM_022.jpg
286.128	1.562	1	study	Phase1	study/STIM_022.jpg
291.434	1.569	1	study	Phase1	study/STIM_022.jpg
296.549	1.452	1	study	Phase1	study/STIM_023.jpg
301.934	1.057	1	study	Phase1	study/STIM_023.jpg
305.567	1.309	1	study	Phase1	study/STIM_023.jpg
310.693	1.245	1	study	Phase1	study/STIM_024.jpg
314.436	1.087	1	study	Phase1	study/STIM_024.jpg
318.039	1.194	1	study	Phase1	study/STIM_024.jpg
322.01	1.48	1	study	Phase1	study/STIM_025.jpg
325.584	1.273	1	study	Phase1	study/STIM_025.jpg
330.624	1.437	1	study	Phase1	study/STIM_025.jpg
335.341	0.937	1	study	Phase1	study/STIM_026.jpg
339.924	1.584	1	study	Phase1	study/STIM_026.jpg
344.035	1.222	1	study	Phase1	study/STIM_026.jpg
349.098	1.192	1	study	Phase1	study/STIM_027.jpg
354.133	1.036	1	study	Phase1	study/STIM_027.jpg
357.705	1.058	1	study	Phase1	study/STIM_027.jpg
361.776	1.689	1	study	Phase1	study/STIM_028.jpg
365.712	1.027	1	study	Phase1	study/STIM_028.jpg
369.906	1.274	1	study	Phase1	study/STIM_028.jpg
374.687	1.757	1	study	Phase1	study/STIM_029.jpg
379.882	1.674	1	study	Phase1	study/STIM_029.jpg
384.904	1.407	1	study	Phase1	study/STIM_029.jpg
389.477	1.223	1	test	Phase1	test/STIM_000.jpg
394.494	1.063	1	test	Phase1	test/STIM_000.jpg
398.803	0.906	1	test	Phase1	test/STIM_000.jpg
402.674	1.265	1	test	Phase1	test/STIM_001.jpg
407.26	1.335	1	test	Phase1	test/STIM_001.jpg
412.068	0.717	1	test	Phase1	test/STIM_001.jpg
415.977	1.292	1	test	Phase1	test/STIM_002.jpg
419.419	0.716	1	test	Phase1	test/STIM_002.jpg
423.171	0.738	1	test	Phase1	test/STIM_002.jpg
427.037	0.652	1	test	Phase1	test/STIM_003.jpg
431.303	1.182	1	test	Phase1	test/STIM_003.jpg
434.58	1.012	1	test	Phase1	test/STIM_003.jpg
438.277	0.864	1	test	Phase1	test/STIM_004.jpg
442.49	1.082	1	test	Phase1	test/STIM_004.jpg
446.507	1.097	1	test	Phase1	test/STIM_004.jpg
450.953	1.204	1	test	Phase1	test/STIM_005.jpg
455.389	1.231	1	test	Phase1	test/STIM_005.jpg
459.397	0.741	1	test	Phase1	test/STIM_005.jpg
462.566	1.285	1	test	Phase1	test/STIM_006.jpg
467.694	1.041	1	test	Phase1	test/STIM_006.jpg
471.532	1.33	1	test	Phase1	test/STIM_006.jpg
475.391	0.654	1	test	Phase1	test/STIM_007.jpg
478.956	1.102	1	test	Phase1	test/STIM_007.jpg
483.808	1.095	1	test	Phase1	test/STIM_007.jpg
488.323	1.157	1	test	Phase1	test/STIM_008.jpg
491.7	0.671	1	test	Phase1	test/STIM_008.jpg
495.366	1.06	1	test	Phase1	test/STIM_008.jpg
499.088	1.164	1	test	Phase1	test/STIM_009.jpg
502.692	1.059	1	test	Phase1	test/STIM_009.jpg
506.0	0.982	1	test	Phase1	test/STIM_009.jpg
509.624	1.063	1	test	Phase1	test/STIM_010.jpg
514.148	0.95	1	test	Phase1	test/STIM_010.jpg
517.703	1.159	1	test	Phase1	test/STIM_010.jpg
522.66	1.19	1	test	Phase1	test/STIM_011.jpg
526.279	1.098	1	test	Phase1	test/STIM_011.jpg
530.861	0.979	0	test	Phase1	test/STIM_011.jpg
534.363	0.849	1	test	Phase1	test/STIM_012.jpg
538.894	0.692	0	test	Phase1	test/STIM_012.jpg
541.951	0.915	1	test	Phase1	test/STIM_012.jpg
546.587	1.156	1	test	Phase1	test/STIM_013.jpg
551.106	0.749	1	test	Phase1	test/STIM_013.jpg
554.61	0.788	1	test	Phase1	test/STIM_013.jpg
558.756	0.818	1	test	Phase1	test/STIM_014.jpg
561.61	0.866	1	test	Phase1	test/STIM_014.jpg
565.031	1.121	1	test	Phase1	test/STIM_014.jpg
568.785	1.292	1	test	Phase1	test/STIM_015.jpg
572.873	0.892	1	test	Phase1	test/STIM_015.jpg
576.2	0.834	1	test	Phase1	test/STIM_015.jpg
580.569	1.107	1	test	Phase1	test/STIM_016.jpg
584.691	0.809	1	test	Phase1	test/STIM_016.jpg
588.162	0.973	1	test	Phase1	test/STIM_016.jpg
591.312	0.806	1	test	Phase1	test/STIM_017.jpg
594.904	0.702	1	test	Phase1	test/STIM_017.jpg
598.129	0.665	1	test	Phase1	test/STIM_017.jpg
600.939	1.123	1	test	Phase1	test/STIM_018.jpg
604.715	0.708	1	test	Phase1	test/STIM_018.jpg
607.888	1.326	1	test	Phase1	test/STIM_018.jpg
611.245	1.06	1	test	Phase1	test/STIM_019.jpg
614.514	1.124	1	test	Phase1	test/STIM_019.jpg
618.526	1.072	1	test	Phase1	test/STIM_019.jpg
623.553	1.182	1	test	Phase1	test/STIM_020.jpg
627.446	0.623	1	test	Phase1	test/STIM_020.jpg
632.068	0.909	1	test	Phase1	test/STIM_020.jpg
635.26	0.83	1	test	Phase1	test/STIM_021.jpg
639.041	1.19	1	test	Phase1	test/STIM_021.jpg
644.043	1.009	1	test	Phase1	test/STIM_021.jpg
648.626	0.69	1	test	Phase1	test/STIM_022.jpg
651.802	0.819	1	test	Phase1	test/STIM_022.jpg
656.424	1.033	1	test	Phase1	test/STIM_022.jpg
661.01	0.803	1	test	Phase1	test/STIM_023.jpg
664.65	0.743	1	test	Phase1	test/STIM_023.jpg
667.885	0.781	1	test	Phase1	test/STIM_023.jpg
671.028	1.097	1	test	Phase1	test/STIM_024.jpg
675.422	0.864	1	test	Phase1	test/STIM_024.jpg
678.545	1.028	1	test	Phase1	test/STIM_024.jpg
682.628	0.85	1	test	Phase1	test/STIM_025.jpg
687.26	1.151	1	test	Phase1	test/STIM_025.jpg
690.961	1.278	1	test	Phase1	test/STIM_025.jpg
696.122	0.899	1	test	Phase1	test/STIM_026.jpg
700.872	1.092	1	test	Phase1	test/STIM_026.jpg
704.765	1.272	1	test	Phase1	test/STIM_026.jpg
708.412	0.904	1	test	Phase1	test/STIM_027.jpg
712.472	1.226	1	test	Phase1	test/STIM_027.jpg
717.513	0.701	1	test	Phase1	test/STIM_027.jpg
720.38	1.29	1	test	Phase1	test/STIM_028.jpg
723.798	0.848	1	test	Phase1	test/STIM_028.jpg
728.265	1.146	1	test	Phase1	test/STIM_028.jpg
731.455	1.272	1	test	Phase1	test/STIM_029.jpg
735.985	0.661	1	test	Phase1	test/STIM_029.jpg
738.665	1.024	1	test	Phase1	test/STIM_029.jpg
741.79	0.953	1	study	Phase2	study/STIM_000.jpg
744.945	0.836	1	study	Phase2	study/STIM_000.jpg
749.466	0.813	1	study	Phase2	study/STIM_000.jpg
752.99	1.037	1	study	Phase2	study/STIM_001.jpg
757.387	0.858	1	study	Phase2	study/STIM_001.jpg
760.691	0.916	1	study	Phase2	study/STIM_001.jpg
765.085	0.834	1	study	Phase2	study/STIM_002.jpg
769.176	0.732	1	study	Phase2	study/STIM_002.jpg
772.429	0.977	1	study	Phase2	study/STIM_002.jpg
775.723	0.807	1	study	Phase2	study/STIM_003.jpg
780.434	1.273	1	study	Phase2	study/STIM_003.jpg
784.509	0.815	1	study	Phase2	study/STIM_003.jpg
788.243	1.542	1	study	Phase2	study/STIM_004.jpg
792.96	1.234	1	study	Phase2	study/STIM_004.jpg
797.007	1.146	1	study	Phase2	study/STIM_004.jpg
801.025	1.481	1	study	Phase2	study/STIM_005.jpg
805.944	0.966	1	study	Phase2	study/STIM_005.jpg
808.961	0.696	1	study	Phase2	study/STIM_005.jpg
812.24	1.53	1	study	Phase2	study/STIM_006.jpg
816.628	1.215	1	study	Phase2	study/STIM_006.jpg
820.795	0.782	1	study	Phase2	study/STIM_006.jpg
824.217	0.852	1	study	Phase2	study/STIM_007.jpg
827.25	1.457	1	study	Phase2	study/STIM_007.jpg
832.679	0.878	1	study	Phase2	study/STIM_007.jpg
835.848	0.734	1	study	Phase2	study/STIM_008.jpg
839.512	0.726	1	study	Phase2	study/STIM_008.jpg
842.893	0.876	1	study	Phase2	study/STIM_008.jpg
846.095	1.369	1	study	Phase2	study/STIM_009.jpg
851.293	0.958	1	study	Phase2	study/STIM_009.jpg
855.403	1.367	1	study	Phase2	study/STIM_009.jpg
860.226	1.412	0	study	Phase2	study/STIM_010.jpg
864.796	1.317	1	study	Phase2	study/STIM_010.jpg
868.241	1.151	1	study	Phase2	study/STIM_010.jpg
873.027	0.736	1	study	Phase2	study/STIM_011.jpg
876.314	1.179	1	study	Phase2	study/STIM_011.jpg
879.728	0.727	1	study	Phase2	study/STIM_011.jpg
884.128	1.107	1	study	Phase2	study/STIM_012.jpg
888.357	0.872	1	study	Phase2	study/STIM_012.jpg
891.894	1.237	1	study	Phase2	study/STIM_012.jpg
896.65	1.083	1	study	Phase2	study/STIM_013.jpg
899.983	1.272	1	study	Phase2	study/STIM_013.jpg
905.06	0.771	1	study	Phase2	study/STIM_013.jpg
909.2	0.931	1	study	Phase2	study/STIM_014.jpg
913.98	1.413	1	study	Phase2	study/STIM_014.jpg
917.49	1.289	1	study	Phase2	study/STIM_014.jpg
921.4	0.862	1	study	Phase2	study/STIM_015.jpg
924.363	1.278	1	study	Phase2	study/STIM_015.jpg
927.689	0.923	1	study	Phase2	study/STIM_015.jpg
930.951	0.737	0	study	Phase2	study/STIM_016.jpg
935.046	0.726	1	study	Phase2	study/STIM_016.jpg
938.064	0.768	1	study	Phase2	study/STIM_016.jpg
941.034	0.85	1	study	Phase2	study/STIM_017.jpg
944.543	1.274	1	study	Phase2	study/STIM_017.jpg
949.538	1.246	1	study	Phase2	study/STIM_017.jpg
953.403	1.418	1	study	Phase2	study/STIM_018.jpg
957.07	0.695	1	study	Phase2	study/STIM_018.jpg
960.38	1.324	1	study	Phase2	study/STIM_018.jpg
965.52	1.489	1	study	Phase2	study/STIM_019.jpg
970.001	1.37	1	study	Phase2	study/STIM_019.jpg
974.02	0.94	1	study	Phase2	study/STIM_019.jpg
977.56	1.358	1	study	Phase2	study/STIM_020.jpg
981.965	0.758	1	study	Phase2	study/STIM_020.jpg
985.24	1.264	1	study	Phase2	study/STIM_020.jpg
990.121	1.393	1	study	Phase2	study/STIM_021.jpg
993.981	0.844	1	study	Phase2	study/STIM_021.jpg
996.843	1.026	1	study	Phase2	study/STIM_021.jpg
1000.179	1.2	1	study	Phase2	study/STIM_022.jpg
1005.1	1.357	1	study	Phase2	study/STIM_022.jpg
1009.075	1.303	1	study	Phase2	study/STIM_022.jpg
1013.37	1.009	0	study	Phase2	study/STIM_023.jpg
1017.047	0.832	1	study	Phase2	study/STIM_023.jpg
1021.005	0.973	1	study	Phase2	study/STIM_023.jpg
1025.572	0.852	1	study	Phase2	study/STIM_024.jpg
1029.67	0.986	1	study	Phase2	study/STIM_024.jpg
1033.366	1.212	1	study	Phase2	study/STIM_024.jpg
1037.304	0.866	1	study	Phase2	study/STIM_025.jpg
1041.945	1.189	1	study	Phase2	study/STIM_025.jpg
1046.178	1.17	1	study	Phase2	study/STIM_025.jpg
1050.894	1.494	1	study	Phase2	study/STIM_026.jpg
1056.197	1.169	1	study	Phase2	study/STIM_026.jpg
1059.444	1.124	1	study	Phase2	study/STIM_026.jpg
1062.916	1.277	1	study	Phase2	study/STIM_027.jpg
1066.77	0.991	1	study	Phase2	study/STIM_027.jpg
1070.799	0.647	1	study	Phase2	study/STIM_027.jpg
1073.647	0.928	1	study	Phase2	study/STIM_028.jpg
1078.059	1.129	1	study	Phase2	study/STIM_028.jpg
1081.328	0.991	1	study	Phase2	study/STIM_028.jpg
1086.019	1.317	1	study	Phase2	study/STIM_029.jpg
1089.429	1.251	1	study	Phase2	study/STIM_029.jpg
1094.329	1.008	1	study	Phase2	study/STIM_029.jpg
1097.441	1.098	1	test	Phase2	test/STIM_000.jpg
1100.578	0.664	1	test	Phase2	test/STIM_000.jpg
1103.934	1.241	1	test	Phase2	test/STIM_000.jpg
1109.062	1.251	1	test	Phase2	test/STIM_001.jpg
1112.891	0.726	1	test	Phase2	test/STIM_001.jpg
1116.593	0.688	1	test	Phase2	test/STIM_001.jpg
1120.407	1.238	1	test	Phase2	test/STIM_002.jpg
1124.792	0.934	1	test	Phase2	test/STIM_002.jpg
1129.635	0.716	1	test	Phase2	test/STIM_002.jpg
1133.663	0.928	1	test	Phase2	test/STIM_003.jpg
1137.166	0.785	1	test	Phase2	test/STIM_003.jpg
1141.694	0.98	1	test	Phase2	test/STIM_003.jpg
1145.443	0.693	1	test	Phase2	test/STIM_004.jpg
1148.953	1.322	1	test	Phase2	test/STIM_004.jpg
1153.947	0.801	1	test	Phase2	test/STIM_004.jpg
1156.812	1.053	1	test	Phase2	test/STIM_005.jpg
1160.752	1.206	1	test	Phase2	test/STIM_005.jpg
1164.575	1.225	1	test	Phase2	test/STIM_005.jpg
1169.455	0.886	1	test	Phase2	test/STIM_006.jpg
1172.676	1.276	1	test	Phase2	test/STIM_006.jpg
1177.92	0.906	1	test	Phase2	test/STIM_006.jpg
1181.656	0.944	1	test	Phase2	test/STIM_007.jpg
1184.955	0.775	1	test	Phase2	test/STIM_007.jpg
1189.306	0.885	1	test	Phase2	test/STIM_007.jpg
1194.189	0.893	1	test	Phase2	test/STIM_008.jpg
1198.328	1.194	1	test	Phase2	test/STIM_008.jpg
1202.76	0.642	1	test	Phase2	test/STIM_008.jpg
1205.916	0.837	1	test	Phase2	test/STIM_009.jpg
1210.608	1.128	1	test	Phase2	test/STIM_009.jpg
1215.056	0.622	1	test	Phase2	test/STIM_009.jpg
1219.489	1.08	1	test	Phase2	test/STIM_010.jpg
1222.881	0.83	1	test	Phase2	test/STIM_010.jpg
1226.364	0.798	1	test	Phase2	test/STIM_010.jpg
1230.447	0.841	1	test	Phase2	test/STIM_011.jpg
1234.704	0.947	1	test	Phase2	test/STIM_011.jpg
1238.562	1.257	1	test	Phase2	test/STIM_011.jpg
1243.666	0.984	1	test	Phase2	test/STIM_012.jpg
1247.361	0.992	1	test	Phase2	test/STIM_012.jpg
1251.728	0.778	1	test	Phase2	test/STIM_012.jpg
1256.063	1.104	1	test	Phase2	test/STIM_013.jpg
1261.15	0.908	1	test	Phase2	test/STIM_013.jpg
1265.701	0.769	1	test	Phase2	test/STIM_013.jpg
1268.829	0.629	1	test	Phase2	test/STIM_014.jpg
1272.212	0.693	1	test	Phase2	test/STIM_014.jpg
1276.434	1.171	1	test	Phase2	test/STIM_014.jpg
1281.287	0.919	1	test	Phase2	test/STIM_015.jpg
1285.258	0.955	1	test	Phase2	test/STIM_015.jpg
1288.641	1.185	1	test	Phase2	test/STIM_015.jpg
1292.081	0.703	1	test	Phase2	test/STIM_016.jpg
1296.564	1.33	1	test	Phase2	test/STIM_016.jpg
1300.478	0.774	1	test	Phase2	test/STIM_016.jpg
1303.671	1.282	1	test	Phase2	test/STIM_017.jpg
1308.747	1.015	1	test	Phase2	test/STIM_017.jpg
1313.001	1.215	1	test	Phase2	test/STIM_017.jpg
1317.395	1.072	1	test	Phase2	test/STIM_018.jpg
1322.327	1.095	1	test	Phase2	test/STIM_018.jpg
1325.63	1.234	0	test	Phase2	test/STIM_018.jpg
1329.291	0.783	1	test	Phase2	test/STIM_019.jpg
1333.227	0.825	1	test	Phase2	test/STIM_019.jpg
1337.581	1.29	1	test	Phase2	test/STIM_019.jpg
1341.137	1.079	1	test	Phase2	test/STIM_020.jpg
1345.799	1.134	1	test	Phase2	test/STIM_020.jpg
1349.368	0.694	1	test	Phase2	test/STIM_020.jpg
1353.706	1.036	1	test	Phase2	test/STIM_021.jpg
1358.333	1.121	1	test	Phase2	test/STIM_021.jpg
1361.669	1.181	1	test	Phase2	test/STIM_021.jpg
1364.908	1.272	1	test	Phase2	test/STIM_022.jpg
1368.617	1.178	1	test	Phase2	test/STIM_022.jpg
1372.366	1.066	1	test	Phase2	test/STIM_022.jpg
1375.452	0.851	1	test	Phase2	test/STIM_023.jpg
1380.301	1.1	1	test	Phase2	test/STIM_023.jpg
1383.552	1.048	1	test	Phase2	test/STIM_023.jpg
1388.232	0.824	1	test	Phase2	test/STIM_024.jpg
1391.935	0.83	1	test	Phase2	test/STIM_024.jpg
1395.804	1.291	1	test	Phase2	test/STIM_024.jpg
1400.249	0.734	1	test	Phase2	test/STIM_025.jpg
1403.987	1.141	1	test	Phase2	test/STIM_025.jpg
1407.58	0.689	1	test	Phase2	test/STIM_025.jpg
1412.105	1.009	1	test	Phase2	test/STIM_026.jpg
1415.762	0.712	1	test	Phase2	test/STIM_026.jpg
1420.056	1.314	1	test	Phase2	test/STIM_026.jpg
1423.704	1.108	1	test	Phase2	test/STIM_027.jpg
1426.956	1.228	1	test	Phase2	test/STIM_027.jpg
1431.129	1.02	1	test	Phase2	test/STIM_027.jpg
1435.503	0.629	1	test	Phase2	test/STIM_028.jpg
1438.456	1.16	1	test	Phase2	test/STIM_028.jpg
1442.708	1.173	1	test	Phase2	test/STIM_028.jpg
1447.378	0.935	1	test	Phase2	test/STIM_029.jpg
1450.979	1.311	1	test	Phase2	test/STIM_029.jpg
1454.331	1.306	1	test	Phase2	test/STIM_029.jpg
1457.935	0.63	1	study	Phase3	study/STIM_000.jpg
1461.814	1.019	1	study	Phase3	study/STIM_000.jpg
1465.724	0.728	1	study	Phase3	study/STIM_000.jpg
1469.486	0.825	1	study	Phase3	study/STIM_001.jpg
1474.204	0.679	1	study	Phase3	study/STIM_001.jpg
1477.037	0.908	1	study	Phase3	study/STIM_001.jpg
1481.107	0.932	1	study	Phase3	study/STIM_002.jpg
1484.659	0.846	1	study	Phase3	study/STIM_002.jpg
1487.84	1.131	1	study	Phase3	study/STIM_002.jpg
1491.509	0.936	1	study	Phase3	study/STIM_003.jpg
1494.487	0.719	1	study	Phase3	study/STIM_003.jpg
1498.483	0.728	1	study	Phase3	study/STIM_003.jpg
1502.496	1.207	1	study	Phase3	study/STIM_004.jpg
1507.361	0.848	1	study	Phase3	study/STIM_004.jpg
1512.032	0.642	1	study	Phase3	study/STIM_004.jpg
1515.591	1.29	1	study	Phase3	study/STIM_005.jpg
1520.396	0.581	1	study	Phase3	study/STIM_005.jpg
1524.451	1.139	1	study	Phase3	study/STIM_005.jpg
1528.428	0.877	1	study	Phase3	study/STIM_006.jpg
1532.191	1.156	1	study	Phase3	study/STIM_006.jpg
1536.213	1.267	1	study	Phase3	study/STIM_006.jpg
1540.663	1.11	1	study	Phase3	study/STIM_007.jpg
1545.205	1.098	1	study	Phase3	study/STIM_007.jpg
1549.372	1.139	1	study	Phase3	study/STIM_007.jpg
1552.535	1.162	0	study	Phase3	study/STIM_008.jpg
1556.521	1.252	1	study	Phase3	study/STIM_008.jpg
1561.709	1.244	1	study	Phase3	study/STIM_008.jpg
1566.463	1.057	1	study	Phase3	study/STIM_009.jpg
1571.095	0.686	1	study	Phase3	study/STIM_009.jpg
1574.312	1.164	1	study	Phase3	study/STIM_009.jpg
1578.468	0.994	1	study	Phase3	study/STIM_010.jpg
1582.086	0.612	1	study	Phase3	study/STIM_010.jpg
1586.525	1.144	1	study	Phase3	study/STIM_010.jpg
1589.799	1.034	1	study	Phase3	study/STIM_011.jpg
1594.163	0.882	1	study	Phase3	study/STIM_011.jpg
1598.866	0.774	1	study	Phase3	study/STIM_011.jpg
1603.272	1.282	1	study	Phase3	study/STIM_012.jpg
1607.803	0.805	1	study	Phase3	study/STIM_012.jpg
1610.992	0.996	1	study	Phase3	study/STIM_012.jpg
1615.756	0.711	1	study	Phase3	study/STIM_013.jpg
1619.491	1.01	1	study	Phase3	study/STIM_013.jpg
1624.248	0.895	1	study	Phase3	study/STIM_013.jpg
1628.416	0.66	1	study	Phase3	study/STIM_014.jpg
1632.177	1.222	1	study	Phase3	study/STIM_014.jpg
1635.701	0.634	1	study	Phase3	study/STIM_014.jpg
1640.309	0.591	1	study	Phase3	study/STIM_015.jpg
1644.117	1.041	1	study	Phase3	study/STIM_015.jpg
1647.611	0.886	1	study	Phase3	study/STIM_015.jpg
1650.646	0.639	1	study	Phase3	study/STIM_016.jpg
1654.08	0.787	1	study	Phase3	study/STIM_016.jpg
1657.282	0.872	1	study	Phase3	study/STIM_016.jpg
1661.549	0.665	1	study	Phase3	study/STIM_017.jpg
1664.394	1.254	1	study	Phase3	study/STIM_017.jpg
1669.01	1.232	1	study	Phase3	study/STIM_017.jpg
1672.594	0.757	1	study	Phase3	study/STIM_018.jpg
1675.973	0.99	1	study	Phase3	study/STIM_018.jpg
1679.727	0.753	1	study	Phase3	study/STIM_018.jpg
1684.451	0.948	1	study	Phase3	study/STIM_019.jpg
1688.135	1.14	1	study	Phase3	study/STIM_019.jpg
1693.195	0.876	1	study	Phase3	study/STIM_019.jpg
1698.02	1.249	1	study	Phase3	study/STIM_020.jpg
1701.306	1.114	1	study	Phase3	study/STIM_020.jpg
1705.196	0.69	1	study	Phase3	study/STIM_020.jpg
1709.375	0.772	1	study	Phase3	study/STIM_021.jpg
1712.537	0.623	1	study	Phase3	study/STIM_021.jpg
1716.859	1.261	1	study	Phase3	study/STIM_021.jpg
1720.519	1.279	1	study	Phase3	study/STIM_022.jpg
1724.125	0.978	1	study	Phase3	study/STIM_022.jpg
1727.987	1.284	1	study	Phase3	study/STIM_022.jpg
1732.526	0.723	1	study	Phase3	study/STIM_023.jpg
1736.808	0.753	1	study	Phase3	study/STIM_023.jpg
1741.463	1.124	1	study	Phase3	study/STIM_023.jpg
1745.031	0.882	1	study	Phase3	study/STIM_024.jpg
1749.553	0.752	1	study	Phase3	study/STIM_024.jpg
1752.495	0.592	1	study	Phase3	study/STIM_024.jpg
1755.536	0.632	1	study	Phase3	study/STIM_025.jpg
1759.164	1.148	1	study	Phase3	study/STIM_025.jpg
1763.772	0.797	1	study	Phase3	study/STIM_025.jpg
1767.771	0.72	1	study	Phase3	study/STIM_026.jpg
1771.536	0.739	1	study	Phase3	study/STIM_026.jpg
1776.165	0.635	1	study	Phase3	study/STIM_026.jpg
1780.488	0.654	1	study	Phase3	study/STIM_027.jpg
1783.838	0.911	1	study	Phase3	study/STIM_027.jpg
1787.764	1.233	1	study	Phase3	study/STIM_027.jpg
1792.964	0.918	1	study	Phase3	study/STIM_028.jpg
1797.794	0.579	1	study	Phase3	study/STIM_028.jpg
1800.435	1.123	1	study	Phase3	study/STIM_028.jpg
1804.337	0.749	1	study	Phase3	study/STIM_029.jpg
1808.069	0.699	1	study	Phase3	study/STIM_029.jpg
1811.504	0.808	1	study	Phase3	study/STIM_029.jpg
1815.398	0.719	1	test	Phase3	test/STIM_000.jpg
1819.882	0.817	1	test	Phase3	test/STIM_000.jpg
1824.22	0.749	1	test	Phase3	test/STIM_000.jpg
1828.207	0.789	1	test	Phase3	test/STIM_001.jpg
1832.96	0.827	1	test	Phase3	test/STIM_001.jpg
1836.143	1.206	1	test	Phase3	test/STIM_001.jpg
1839.506	1.145	1	test	Phase3	test/STIM_002.jpg
1842.977	1.139	1	test	Phase3	test/STIM_002.jpg
1847.623	1.13	1	test	Phase3	test/STIM_002.jpg
1851.111	0.956	1	test	Phase3	test/STIM_003.jpg
1854.751	1.069	1	test	Phase3	test/STIM_003.jpg
1859.242	1.051	1	test	Phase3	test/STIM_003.jpg
1864.102	0.722	1	test	Phase3	test/STIM_004.jpg
1868.816	0.729	1	test	Phase3	test/STIM_004.jpg
1872.995	1.108	1	test	Phase3	test/STIM_004.jpg
1876.534	1.096	1	test	Phase3	test/STIM_005.jpg
1880.953	0.971	1	test	Phase3	test/STIM_005.jpg
1884.525	1.298	1	test	Phase3	test/STIM_005.jpg
1888.946	1.3	1	test	Phase3	test/STIM_006.jpg
1894.161	0.693	1	test	Phase3	test/STIM_006.jpg
1897.525	1.2	1	test	Phase3	test/STIM_006.jpg
1901.268	0.911	1	test	Phase3	test/STIM_007.jpg
1904.377	1.16	1	test	Phase3	test/STIM_007.jpg
1909.366	0.816	1	test	Phase3	test/STIM_007.jpg
1912.416	0.811	1	test	Phase3	test/STIM_008.jpg
1916.201	0.617	1	test	Phase3	test/STIM_008.jpg
1918.833	1.173	1	test	Phase3	test/STIM_008.jpg
1923.054	0.767	1	test	Phase3	test/STIM_009.jpg
1926.895	0.735	1	test	Phase3	test/STIM_009.jpg
1929.764	0.664	1	test	Phase3	test/STIM_009.jpg
1932.869	1.106	1	test	Phase3	test/STIM_010.jpg
1936.66	0.712	1	test	Phase3	test/STIM_010.jpg
1940.056	1.103	1	test	Phase3	test/STIM_010.jpg
1944.329	0.815	1	test	Phase3	test/STIM_011.jpg
1947.648	1.266	1	test	Phase3	test/STIM_011.jpg
1951.901	1.311	0	test	Phase3	test/STIM_011.jpg
1955.869	0.685	1	test	Phase3	test/STIM_012.jpg
1960.275	1.24	1	test	Phase3	test/STIM_012.jpg
1964.303	1.085	1	test	Phase3	test/STIM_012.jpg
1968.21	0.959	1	test	Phase3	test/STIM_013.jpg
1972.923	1.186	1	test	Phase3	test/STIM_013.jpg
1976.358	1.23	1	test	Phase3	test/STIM_013.jpg
1980.366	1.037	1	test	Phase3	test/STIM_014.jpg
1985.226	1.18	1	test	Phase3	test/STIM_014.jpg
1989.867	0.69	1	test	Phase3	test/STIM_014.jpg
1992.854	1.093	1	test	Phase3	test/STIM_015.jpg
1997.501	1.014	1	test	Phase3	test/STIM_015.jpg
2001.927	0.892	1	test	Phase3	test/STIM_015.jpg
2006.802	1.042	1	test	Phase3	test/STIM_016.jpg
2010.897	1.171	1	test	Phase3	test/STIM_016.jpg
2015.382	1.335	1	test	Phase3	test/STIM_016.jpg
2020.129	1.191	1	test	Phase3	test/STIM_017.jpg
2024.234	1.314	1	test	Phase3	test/STIM_017.jpg
2028.218	0.967	1	test	Phase3	test/STIM_017.jpg
2032.983	0.823	1	test	Phase3	test/STIM_018.jpg
2037.446	0.817	1	test	Phase3	test/STIM_018.jpg
2041.906	1.187	1	test	Phase3	test/STIM_018.jpg
2045.27	0.674	1	test	Phase3	test/STIM_019.jpg
2048.016	0.977	1	test	Phase3	test/STIM_019.jpg
2052.107	0.832	1	test	Phase3	test/STIM_019.jpg
2055.608	0.757	1	test	Phase3	test/STIM_020.jpg
2059.713	1.213	1	test	Phase3	test/STIM_020.jpg
2064.335	1.111	1	test	Phase3	test/STIM_020.jpg
2067.666	1.201	1	test	Phase3	test/STIM_021.jpg
2071.578	0.721	1	test	Phase3	test/STIM_021.jpg
2075.85	0.805	1	test	Phase3	test/STIM_021.jpg
2078.959	1.104	1	test	Phase3	test/STIM_022.jpg
2082.787	1.181	1	test	Phase3	test/STIM_022.jpg
2087.352	1.142	1	test	Phase3	test/STIM_022.jpg
2090.958	0.684	1	test	Phase3	test/STIM_023.jpg
2093.888	0.739	1	test	Phase3	test/STIM_023.jpg
2097.455	1.267	1	test	Phase3	test/STIM_023.jpg
2102.666	1.2	1	test	Phase3	test/STIM_024.jpg
2107.724	1.159	1	test	Phase3	test/STIM_024.jpg
2111.758	0.984	1	test	Phase3	test/STIM_024.jpg
2115.499	0.647	1	test	Phase3	test/STIM_025.jpg
2119.292	1.203	1	test	Phase3	test/STIM_025.jpg
2123.738	0.795	1	test	Phase3	test/STIM_025.jpg
2126.752	1.223	1	test	Phase3	test/STIM_026.jpg
2130.026	0.786	1	test	Phase3	test/STIM_026.jpg
2134.065	0.712	1	test	Phase3	test/STIM_026.jpg
2137.185	1.232	1	test	Phase3	test/STIM_027.jpg
2141.129	1.071	1	test	Phase3	test/STIM_027.jpg
2145.936	1.261	1	test	Phase3	test/STIM_027.jpg
2150.878	1.178	1	test	Phase3	test/STIM_028.jpg
2154.68	1.273	1	test	Phase3	test/STIM_028.jpg
2159.22	0.922	1	test	Phase3	test/STIM_028.jpg
2163.236	0.873	1	test	Phase3	test/STIM_029.jpg
2167.376	1.113	1	test	Phase3	test/STIM_029.jpg
2172.428	1.092	1	test	Phase3	test/STIM_029.jpg
