onset	duration	response_time_ms	trial_type	learning_stage	stimulus	response_port
0.0	0.947	947.0	incongruent	Block1	incongruent/STIM_000.jpg	100
4.183	0.835	835.2	incongruent	Block1	incongruent/STIM_000.jpg	99
7.089	0.812	812.1	incongruent	Block1	incongruent/STIM_000.jpg	99
11.698	1.223	1223.2	incongruent	Block1	incongruent/STIM_000.jpg	99
16.117	0.846	845.6	incongruent	Block1	incongruent/STIM_000.jpg	99
19.693	1.243	1243.3	incongruent	Block1	incongruent/STIM_001.jpg	100
23.407	1.309	1309.0	incongruent	Block1	incongruent/STIM_001.jpg	99
27.364	0.972	972.5	incongruent	Block1	incongruent/STIM_001.jpg	100
30.606	1.327	1327.1	incongruent	Block1	incongruent/STIM_001.jpg	99
34.816	0.627	627.3	incongruent	Block1	incongruent/STIM_001.jpg	100
38.332	1.258	1258.4	incongruent	Block1	incongruent/STIM_002.jpg	100
42.361	1.11	1110.1	incongruent	Block1	incongruent/STIM_002.jpg	100
46.914	1.277	1276.9	incongruent	Block1	incongruent/STIM_002.jpg	100
51.3	1.32	1320.1	incongruent	Block1	incongruent/STIM_002.jpg	100
55.037	0.62	620.3	incongruent	Block1	incongruent/STIM_002.jpg	100
59.615	0.81	809.9	incongruent	Block1	incongruent/STIM_003.jpg	99
63.442	0.715	715.4	incongruent	Block1	incongruent/STIM_003.jpg	100
66.644	0.728	727.8	incongruent	Block1	incongruent/STIM_003.jpg	99
70.269	1.281	1280.9	incongruent	Block1	incongruent/STIM_003.jpg	100
73.765	1.108	1108.0	incongruent	Block1	incongruent/STIM_003.jpg	99
76.995	1.092	1091.8	incongruent	Block1	incongruent/STIM_004.jpg	99
80.662	0.813	813.2	incongruent	Block1	incongruent/STIM_004.jpg	99
84.517	0.729	729.2	incongruent	Block1	incongruent/STIM_004.jpg	100
88.642	0.75	749.6	incongruent	Block1	incongruent/STIM_004.jpg	99
91.474	1.129	1128.8	incongruent	Block1	incongruent/STIM_004.jpg	100
95.309	0.746	745.9	incongruent	Block1	incongruent/STIM_005.jpg	100
99.644	1.029	1029.0	incongruent	Block1	incongruent/STIM_005.jpg	100
104.422	1.261	1260.9	incongruent	Block1	incongruent/STIM_005.jpg	99
108.187	0.685	685.2	incongruent	Block1	incongruent/STIM_005.jpg	99
112.794	1.035	1034.8	incongruent	Block1	incongruent/STIM_005.jpg	99
116.25	1.248	1247.8	incongruent	Block1	incongruent/STIM_006.jpg	99
121.353	0.793	793.1	incongruent	Block1	incongruent/STIM_006.jpg	99
124.69	0.696	695.7	incongruent	Block1	incongruent/STIM_006.jpg	100
129.327	1.083	1082.8	incongruent	Block1	incongruent/STIM_006.jpg	100
133.976	0.861	861.4	incongruent	Block1	incongruent/STIM_006.jpg	99
137.829	1.555	1554.7	incongruent	Block1	incongruent/STIM_007.jpg	100
142.551	1.43	1430.3	incongruent	Block1	incongruent/STIM_007.jpg	100
146.673	1.379	1379.0	incongruent	Block1	incongruent/STIM_007.jpg	99
151.123	1.139	1139.0	incongruent	Block1	incongruent/STIM_007.jpg	99
155.426	1.0	999.9	incongruent	Block1	incongruent/STIM_007.jpg	99
159.991	1.291	1291.1	incongruent	Block1	incongruent/STIM_008.jpg	100
165.208	1.433	1433.0	incongruent	Block1	incongruent/STIM_008.jpg	100
169.563	0.839	839.1	incongruent	Block1	incongruent/STIM_008.jpg	100
174.283	0.734	733.6	incongruent	Block1	incongruent/STIM_008.jpg	99
177.873	0.756	756.0	incongruent	Block1	incongruent/STIM_008.jpg	99
182.228	1.084	1083.7	incongruent	Block1	incongruent/STIM_009.jpg	100
186.107	1.43	1430.4	incongruent	Block1	incongruent/STIM_009.jpg	100
189.749	1.136	1136.4	incongruent	Block1	incongruent/STIM_009.jpg	100
193.012	0.789	789.4	incongruent	Block1	incongruent/STIM_009.jpg	100
195.837	0.782	781.6	incongruent	Block1	incongruent/STIM_009.jpg	99
199.335	1.484	1483.8	incongruent	Block1	incongruent/STIM_010.jpg	100
203.254	1.118	1117.9	incongruent	Block1	incongruent/STIM_010.jpg	100
206.958	1.33	1329.8	incongruent	Block1	incongruent/STIM_010.jpg	99
211.221	1.118	1117.5	incongruent	Block1	incongruent/STIM_010.jpg	99
216.201	0.808	807.6	incongruent	Block1	incongruent/STIM_010.jpg	100
219.374	1.142	1141.8	incongruent	Block1	incongruent/STIM_011.jpg	99
222.641	1.348	1347.8	incongruent	Block1	incongruent/STIM_011.jpg	100
227.176	0.677	676.9	incongruent	Block1	incongruent/STIM_011.jpg	99
230.747	0.632	631.6	incongruent	Block1	incongruent/STIM_011.jpg	100
234.418	0.712	712.2	incongruent	Block1	incongruent/STIM_011.jpg	100
238.794	1.141	1140.7	incongruent	Block1	incongruent/STIM_012.jpg	100
243.166	1.342	1342.0	incongruent	Block1	incongruent/STIM_012.jpg	100
247.426	1.137	1137.4	incongruent	Block1	incongruent/STIM_012.jpg	99
251.603	1.018	1017.7	incongruent	Block1	incongruent/STIM_012.jpg	100
256.277	0.952	952.4	incongruent	Block1	incongruent/STIM_012.jpg	99
260.374	0.92	920.1	incongruent	Block1	incongruent/STIM_013.jpg	99
263.316	1.327	1327.2	incongruent	Block1	incongruent/STIM_013.jpg	100
268.252	0.96	960.4	incongruent	Block1	incongruent/STIM_013.jpg	100
272.558	0.959	959.2	incongruent	Block1	incongruent/STIM_013.jpg	99
276.229	0.761	760.9	incongruent	Block1	incongruent/STIM_013.jpg	99
280.939	1.242	1241.5	incongruent	Block1	incongruent/STIM_014.jpg	100
285.751	1.463	1463.3	incongruent	Block1	incongruent/STIM_014.jpg	100
289.819	1.292	1291.5	incongruent	Block1	incongruent/STIM_014.jpg	100
293.981	1.037	1036.9	incongruent	Block1	incongruent/STIM_014.jpg	100
297.108	0.737	737.1	incongruent	Block1	incongruent/STIM_014.jpg	99
300.088	1.362	1362.5	incongruent	Block1	incongruent/STIM_015.jpg	100
305.284	0.976	976.0	incongruent	Block1	incongruent/STIM_015.jpg	99
308.758	1.246	1246.2	incongruent	Block1	incongruent/STIM_015.jpg	100
312.797	0.832	831.5	incongruent	Block1	incongruent/STIM_015.jpg	100
316.988	0.75	750.1	incongruent	Block1	incongruent/STIM_015.jpg	100
319.993	1.089	1089.4	incongruent	Block1	incongruent/STIM_016.jpg	99
323.255	1.459	1459.1	incongruent	Block1	incongruent/STIM_016.jpg	100
326.832	0.872	872.2	incongruent	Block1	incongruent/STIM_016.jpg	99
331.286	0.734	734.1	incongruent	Block1	incongruent/STIM_016.jpg	100
334.112	0.898	897.9	incongruent	Block1	incongruent/STIM_016.jpg	99
338.284	1.137	1137.3	incongruent	Block1	incongruent/STIM_017.jpg	99
342.707	1.055	1054.8	incongruent	Block1	incongruent/STIM_017.jpg	99
346.008	1.335	1335.4	incongruent	Block1	incongruent/STIM_017.jpg	99
349.462	1.251	1250.6	incongruent	Block1	incongruent/STIM_017.jpg	99
353.129	0.988	987.6	incongruent	Block1	incongruent/STIM_017.jpg	99
356.889	1.26	1259.7	incongruent	Block1	incongruent/STIM_018.jpg	99
361.371	1.448	1447.8	incongruent	Block1	incongruent/STIM_018.jpg	99
365.677	1.057	1057.0	incongruent	Block1	incongruent/STIM_018.jpg	100
369.931	1.047	1047.2	incongruent	Block1	incongruent/STIM_018.jpg	100
374.052	0.651	651.3	incongruent	Block1	incongruent/STIM_018.jpg	99
378.427	1.377	1377.3	incongruent	Block1	incongruent/STIM_019.jpg	100
382.2	0.847	846.7	incongruent	Block1	incongruent/STIM_019.jpg	100
385.335	0.835	834.7	incongruent	Block1	incongruent/STIM_019.jpg	99
388.481	1.251	1251.3	incongruent	Block1	incongruent/STIM_019.jpg	100
393.518	1.141	1141.2	incongruent	Block1	incongruent/STIM_019.jpg	99
398.424	1.464	1463.8	incongruent	Block1	incongruent/STIM_020.jpg	100
402.731	0.824	823.5	incongruent	Block1	incongruent/STIM_020.jpg	100
407.212	1.175	1175.1	incongruent	Block1	incongruent/STIM_020.jpg	99
411.405	0.816	815.8	incongruent	Block1	incongruent/STIM_020.jpg	100
415.32	1.027	1026.9	incongruent	Block1	incongruent/STIM_020.jpg	100
418.902	1.024	1023.5	incongruent	Block1	incongruent/STIM_021.jpg	100
422.811	1.074	1074.5	incongruent	Block1	incongruent/STIM_021.jpg	100
426.454	0.734	734.4	incongruent	Block1	incongruent/STIM_021.jpg	100
430.784	1.209	1209.3	incongruent	Block1	incongruent/STIM_021.jpg	99
435.188	0.635	635.1	incongruent	Block1	incongruent/STIM_021.jpg	100
439.275	1.223	1222.7	incongruent	Block1	incongruent/STIM_022.jpg	100
442.492	1.188	1187.9	incongruent	Block1	incongruent/STIM_022.jpg	99
446.726	0.893	892.9	incongruent	Block1	incongruent/STIM_022.jpg	100
450.006	0.99	990.3	incongruent	Block1	incongruent/STIM_022.jpg	100
453.887	0.882	882.3	incongruent	Block1	incongruent/STIM_022.jpg	99
458.188	1.276	1275.8	incongruent	Block1	incongruent/STIM_023.jpg	100
462.168	0.913	913.4	incongruent	Block1	incongruent/STIM_023.jpg	100
465.989	1.083	1083.1	incongruent	Block1	incongruent/STIM_023.jpg	100
470.365	0.647	646.8	incongruent	Block1	incongruent/STIM_023.jpg	99
474.066	1.228	1228.1	incongruent	Block1	incongruent/STIM_023.jpg	100
478.349	0.853	853.2	incongruent	Block1	incongruent/STIM_024.jpg	99
482.418	0.818	817.5	incongruent	Block1	incongruent/STIM_024.jpg	100
486.118	0.885	884.9	incongruent	Block1	incongruent/STIM_024.jpg	100
490.505	0.952	951.9	incongruent	Block1	incongruent/STIM_024.jpg	100
494.651	0.904	904.1	incongruent	Block1	incongruent/STIM_024.jpg	99
498.194	1.278	1277.8	incongruent	Block1	incongruent/STIM_025.jpg	99
502.324	0.735	735.1	incongruent	Block1	incongruent/STIM_025.jpg	99
505.076	1.128	1128.3	incongruent	Block1	incongruent/STIM_025.jpg	99
509.958	0.99	990.0	incongruent	Block1	incongruent/STIM_025.jpg	100
514.137	1.021	1021.3	incongruent	Block1	incongruent/STIM_025.jpg	99
517.688	1.121	1120.9	incongruent	Block1	incongruent/STIM_026.jpg	100
520.877	1.48	1479.8	incongruent	Block1	incongruent/STIM_026.jpg	99
525.118	0.836	835.6	incongruent	Block1	incongruent/STIM_026.jpg	100
528.534	0.786	785.8	incongruent	Block1	incongruent/STIM_026.jpg	100
531.665	1.014	1013.8	incongruent	Block1	incongruent/STIM_026.jpg	100
535.252	1.422	1422.2	incongruent	Block1	incongruent/STIM_027.jpg	100
539.574	0.771	770.6	incongruent	Block1	incongruent/STIM_027.jpg	100
543.581	1.272	1272.3	incongruent	Block1	incongruent/STIM_027.jpg	100
548.303	1.296	1296.2	incongruent	Block1	incongruent/STIM_027.jpg	100
553.136	0.987	987.1	incongruent	Block1	incongruent/STIM_027.jpg	99
556.453	0.967	966.8	incongruent	Block1	incongruent/STIM_028.jpg	100
561.059	0.812	811.5	incongruent	Block1	incongruent/STIM_028.jpg	100
565.045	0.807	806.8	incongruent	Block1	incongruent/STIM_028.jpg	100
568.048	0.843	842.8	incongruent	Block1	incongruent/STIM_028.jpg	99
572.691	1.227	1227.3	incongruent	Block1	incongruent/STIM_028.jpg	99
576.757	0.857	856.8	incongruent	Block1	incongruent/STIM_029.jpg	100
580.858	1.392	1392.3	incongruent	Block1	incongruent/STIM_029.jpg	100
584.702	0.733	732.6	incongruent	Block1	incongruent/STIM_029.jpg	100
588.031	1.129	1129.3	incongruent	Block1	incongruent/STIM_029.jpg	100
592.15	0.802	801.8	incongruent	Block1	incongruent/STIM_029.jpg	100
595.011	0.73	730.5	congruent	Block1	congruent/STIM_000.jpg	100
598.89	0.584	583.6	congruent	Block1	congruent/STIM_000.jpg	100
601.941	0.622	622.4	congruent	Block1	congruent/STIM_000.jpg	100
605.813	0.644	643.6	congruent	Block1	congruent/STIM_000.jpg	99
609.362	0.805	804.9	congruent	Block1	congruent/STIM_000.jpg	100
612.583	0.642	642.3	congruent	Block1	congruent/STIM_001.jpg	100
616.951	0.626	626.1	congruent	Block1	congruent/STIM_001.jpg	100
621.491	0.832	832.4	congruent	Block1	congruent/STIM_001.jpg	99
624.442	0.544	543.8	congruent	Block1	congruent/STIM_001.jpg	100
628.89	0.941	941.3	congruent	Block1	congruent/STIM_001.jpg	100
632.575	0.772	771.7	congruent	Block1	congruent/STIM_002.jpg	99
635.647	0.579	579.2	congruent	Block1	congruent/STIM_002.jpg	100
639.773	0.569	569.4	congruent	Block1	congruent/STIM_002.jpg	99
643.409	0.633	633.2	congruent	Block1	congruent/STIM_002.jpg	100
647.615	0.668	668.5	congruent	Block1	congruent/STIM_002.jpg	100
651.424	0.642	641.6	congruent	Block1	congruent/STIM_003.jpg	100
655.553	0.662	662.5	congruent	Block1	congruent/STIM_003.jpg	99
658.655	0.567	566.7	congruent	Block1	congruent/STIM_003.jpg	100
662.668	0.647	647.1	congruent	Block1	congruent/STIM_003.jpg	100
665.815	0.611	610.8	congruent	Block1	congruent/STIM_003.jpg	99
668.861	0.773	773.2	congruent	Block1	congruent/STIM_004.jpg	100
672.377	0.619	619.2	congruent	Block1	congruent/STIM_004.jpg	99
675.591	0.918	918.1	congruent	Block1	congruent/STIM_004.jpg	100
679.098	0.571	571.2	congruent	Block1	congruent/STIM_004.jpg	99
683.54	0.535	535.2	congruent	Block1	congruent/STIM_004.jpg	100
686.381	0.68	680.2	congruent	Block1	congruent/STIM_005.jpg	100
689.991	0.766	765.8	congruent	Block1	congruent/STIM_005.jpg	100
693.983	0.854	854.3	congruent	Block1	congruent/STIM_005.jpg	99
698.006	0.693	692.6	congruent	Block1	congruent/STIM_005.jpg	100
701.513	0.906	906.5	congruent	Block1	congruent/STIM_005.jpg	100
705.59	0.869	869.1	congruent	Block1	congruent/STIM_006.jpg	100
710.139	0.535	534.9	congruent	Block1	congruent/STIM_006.jpg	99
713.684	0.611	611.1	congruent	Block1	congruent/STIM_006.jpg	99
717.848	0.902	902.1	congruent	Block1	congruent/STIM_006.jpg	100
722.549	0.601	601.2	congruent	Block1	congruent/STIM_006.jpg	99
725.288	0.614	613.8	congruent	Block1	congruent/STIM_007.jpg	100
728.431	0.897	896.7	congruent	Block1	congruent/STIM_007.jpg	100
732.107	0.936	936.5	congruent	Block1	congruent/STIM_007.jpg	99
736.135	0.824	824.0	congruent	Block1	congruent/STIM_007.jpg	100
740.369	0.6	600.2	congruent	Block1	congruent/STIM_007.jpg	99
743.702	0.827	827.3	congruent	Block1	congruent/STIM_008.jpg	99
746.782	0.878	878.4	congruent	Block1	congruent/STIM_008.jpg	99
751.376	0.636	635.9	congruent	Block1	congruent/STIM_008.jpg	99
755.982	0.552	551.5	congruent	Block1	congruent/STIM_008.jpg	100
759.62	0.855	854.9	congruent	Block1	congruent/STIM_008.jpg	99
762.673	0.575	575.3	congruent	Block1	congruent/STIM_009.jpg	100
766.043	0.86	859.5	congruent	Block1	congruent/STIM_009.jpg	99
769.089	0.746	746.0	congruent	Block1	congruent/STIM_009.jpg	99
772.172	0.625	625.3	congruent	Block1	congruent/STIM_009.jpg	100
775.044	0.682	682.1	congruent	Block1	congruent/STIM_009.jpg	99
779.299	0.652	652.2	congruent	Block1	congruent/STIM_010.jpg	99
783.386	0.899	899.2	congruent	Block1	congruent/STIM_010.jpg	100
786.35	0.893	893.4	congruent	Block1	congruent/STIM_010.jpg	100
789.407	0.538	538.0	congruent	Block1	congruent/STIM_010.jpg	100
792.249	0.551	551.0	congruent	Block1	congruent/STIM_010.jpg	99
795.121	0.848	848.4	congruent	Block1	congruent/STIM_011.jpg	99
798.723	0.836	835.6	congruent	Block1	congruent/STIM_011.jpg	99
802.285	0.788	788.5	congruent	Block1	congruent/STIM_011.jpg	99
805.867	0.595	594.8	congruent	Block1	congruent/STIM_011.jpg	100
810.08	0.587	586.7	congruent	Block1	congruent/STIM_011.jpg	100
813.258	0.873	873.1	congruent	Block1	congruent/STIM_012.jpg	99
816.974	0.662	662.0	congruent	Block1	congruent/STIM_012.jpg	99
820.316	0.818	818.2	congruent	Block1	congruent/STIM_012.jpg	99
823.886	0.728	727.5	congruent	Block1	congruent/STIM_012.jpg	99
828.05	0.66	660.0	congruent	Block1	congruent/STIM_012.jpg	100
831.963	0.804	804.1	congruent	Block1	congruent/STIM_013.jpg	99
836.7	0.693	693.0	congruent	Block1	congruent/STIM_013.jpg	99
840.281	0.687	686.7	congruent	Block1	congruent/STIM_013.jpg	99
844.452	0.669	668.7	congruent	Block1	congruent/STIM_013.jpg	99
848.21	0.923	923.1	congruent	Block1	congruent/STIM_013.jpg	99
851.144	0.862	862.4	congruent	Block1	congruent/STIM_014.jpg	100
854.138	0.6	599.8	congruent	Block1	congruent/STIM_014.jpg	100
857.881	0.82	819.8	congruent	Block1	congruent/STIM_014.jpg	99
862.551	0.579	579.2	congruent	Block1	congruent/STIM_014.jpg	99
866.117	0.548	547.6	congruent	Block1	congruent/STIM_014.jpg	99
869.667	0.665	665.1	congruent	Block1	congruent/STIM_015.jpg	99
872.84	0.525	525.3	congruent	Block1	congruent/STIM_015.jpg	99
875.921	0.654	654.1	congruent	Block1	congruent/STIM_015.jpg	99
878.938	0.878	878.3	congruent	Block1	congruent/STIM_015.jpg	100
881.958	0.743	743.2	congruent	Block1	congruent/STIM_015.jpg	100
885.722	0.634	633.6	congruent	Block1	congruent/STIM_016.jpg	100
889.393	0.791	791.2	congruent	Block1	congruent/STIM_016.jpg	99
893.126	0.565	564.8	congruent	Block1	congruent/STIM_016.jpg	100
895.704	0.902	901.6	congruent	Block1	congruent/STIM_016.jpg	100
899.932	0.785	784.7	congruent	Block1	congruent/STIM_016.jpg	99
904.143	0.81	810.4	congruent	Block1	congruent/STIM_017.jpg	99
908.868	0.62	619.7	congruent	Block1	congruent/STIM_017.jpg	100
912.969	0.846	845.8	congruent	Block1	congruent/STIM_017.jpg	99
917.376	0.735	735.1	congruent	Block1	congruent/STIM_017.jpg	99
920.09	0.524	524.1	congruent	Block1	congruent/STIM_017.jpg	100
923.388	0.79	789.6	congruent	Block1	congruent/STIM_018.jpg	99
926.807	0.698	698.0	congruent	Block1	congruent/STIM_018.jpg	99
931.123	0.712	712.4	congruent	Block1	congruent/STIM_018.jpg	99
935.785	0.78	779.5	congruent	Block1	congruent/STIM_018.jpg	99
940.287	0.748	748.5	congruent	Block1	congruent/STIM_018.jpg	100
943.653	0.744	744.4	congruent	Block1	congruent/STIM_019.jpg	99
946.425	0.671	671.1	congruent	Block1	congruent/STIM_019.jpg	100
949.638	0.782	782.5	congruent	Block1	congruent/STIM_019.jpg	99
953.434	0.929	929.3	congruent	Block1	congruent/STIM_019.jpg	100
957.674	0.793	793.3	congruent	Block1	congruent/STIM_019.jpg	99
962.3	0.72	720.0	congruent	Block1	congruent/STIM_020.jpg	100
965.349	0.525	525.1	congruent	Block1	congruent/STIM_020.jpg	99
969.738	0.614	613.6	congruent	Block1	congruent/STIM_020.jpg	100
972.923	0.564	564.2	congruent	Block1	congruent/STIM_020.jpg	99
975.965	0.528	527.5	congruent	Block1	congruent/STIM_020.jpg	100
979.227	0.89	889.5	congruent	Block1	congruent/STIM_021.jpg	99
982.96	0.711	710.6	congruent	Block1	congruent/STIM_021.jpg	99
986.071	0.668	667.9	congruent	Block1	congruent/STIM_021.jpg	99
989.908	0.746	746.1	congruent	Block1	congruent/STIM_021.jpg	100
993.244	0.627	627.0	congruent	Block1	congruent/STIM_021.jpg	99
997.444	0.939	938.6	congruent	Block1	congruent/STIM_022.jpg	100
1000.729	0.93	929.5	congruent	Block1	congruent/STIM_022.jpg	100
1003.642	0.714	713.5	congruent	Block1	congruent/STIM_022.jpg	99
1006.943	0.596	595.6	congruent	Block1	congruent/STIM_022.jpg	100
1011.423	0.923	923.1	congruent	Block1	congruent/STIM_022.jpg	100
1014.61	0.769	768.6	congruent	Block1	congruent/STIM_023.jpg	99
1017.608	0.769	769.3	congruent	Block1	congruent/STIM_023.jpg	99
1020.892	0.906	905.5	congruent	Block1	congruent/STIM_023.jpg	100
1025.375	0.663	663.2	congruent	Block1	congruent/STIM_023.jpg	100
1028.513	0.556	556.2	congruent	Block1	congruent/STIM_023.jpg	100
1031.068	0.589	589.1	congruent	Block1	congruent/STIM_024.jpg	100
1034.005	0.576	576.4	congruent	Block1	congruent/STIM_024.jpg	99
1037.295	0.759	758.9	congruent	Block1	congruent/STIM_024.jpg	99
1040.067	0.815	815.4	congruent	Block1	congruent/STIM_024.jpg	99
1044.778	0.918	918.1	congruent	Block1	congruent/STIM_024.jpg	99
1048.702	0.736	735.5	congruent	Block1	congruent/STIM_025.jpg	99
1051.554	0.654	653.8	congruent	Block1	congruent/STIM_025.jpg	100
1054.987	0.84	840.0	congruent	Block1	congruent/STIM_025.jpg	100
1058.48	0.606	605.9	congruent	Block1	congruent/STIM_025.jpg	100
1062.52	0.525	525.1	congruent	Block1	congruent/STIM_025.jpg	99
1065.883	0.863	863.0	congruent	Block1	congruent/STIM_026.jpg	100
1069.532	0.872	872.4	congruent	Block1	congruent/STIM_026.jpg	100
1073.453	0.847	847.0	congruent	Block1	congruent/STIM_026.jpg	99
1078.066	0.764	763.5	congruent	Block1	congruent/STIM_026.jpg	99
1082.608	0.864	863.9	congruent	Block1	congruent/STIM_026.jpg	100
1087.268	0.532	532.3	congruent	Block1	congruent/STIM_027.jpg	99
1091.123	0.866	865.8	congruent	Block1	congruent/STIM_027.jpg	100
1094.072	0.841	841.2	congruent	Block1	congruent/STIM_027.jpg	100
1097.617	0.562	562.0	congruent	Block1	congruent/STIM_027.jpg	99
1101.233	0.599	599.4	congruent	Block1	congruent/STIM_027.jpg	99
1104.372	0.8	799.6	congruent	Block1	congruent/STIM_028.jpg	100
1107.738	0.922	921.6	congruent	Block1	congruent/STIM_028.jpg	99
1111.813	0.568	567.8	congruent	Block1	congruent/STIM_028.jpg	99
1114.604	0.684	684.3	congruent	Block1	congruent/STIM_028.jpg	100
1117.54	0.887	887.0	congruent	Block1	congruent/STIM_028.jpg	100
1121.235	0.709	708.9	congruent	Block1	congruent/STIM_029.jpg	99
1125.474	0.793	793.0	congruent	Block1	congruent/STIM_029.jpg	99
1128.311	0.808	807.7	congruent	Block1	congruent/STIM_029.jpg	100
1131.179	0.849	849.1	congruent	Block1	congruent/STIM_029.jpg	100
1135.64	0.921	920.8	congruent	Block1	congruent/STIM_029.jpg	99
1138.626	1.297	1297.3	incongruent	Block2	incongruent/STIM_000.jpg	99
1141.892	1.066	1065.6	incongruent	Block2	incongruent/STIM_000.jpg	100
1145.242	1.026	1026.3	incongruent	Block2	incongruent/STIM_000.jpg	99
1149.22	1.049	1049.0	incongruent	Block2	incongruent/STIM_000.jpg	99
1153.939	0.557	556.7	incongruent	Block2	incongruent/STIM_000.jpg	100
1157.549	1.038	1038.0	incongruent	Block2	incongruent/STIM_001.jpg	100
1161.972	0.84	840.1	incongruent	Block2	incongruent/STIM_001.jpg	100
1165.886	0.667	666.6	incongruent	Block2	incongruent/STIM_001.jpg	100
1168.921	1.068	1067.6	incongruent	Block2	incongruent/STIM_001.jpg	99
1173.477	0.861	861.0	incongruent	Block2	incongruent/STIM_001.jpg	100
1176.363	1.181	1180.7	incongruent	Block2	incongruent/STIM_002.jpg	100
1179.767	1.084	1084.5	incongruent	Block2	incongruent/STIM_002.jpg	99
1184.316	0.612	612.1	incongruent	Block2	incongruent/STIM_002.jpg	100
1187.869	0.87	869.6	incongruent	Block2	incongruent/STIM_002.jpg	100
1192.606	0.59	590.3	incongruent	Block2	incongruent/STIM_002.jpg	99
1196.066	1.248	1248.4	incongruent	Block2	incongruent/STIM_003.jpg	99
1200.626	1.125	1124.7	incongruent	Block2	incongruent/STIM_003.jpg	100
1203.99	1.069	1069.4	incongruent	Block2	incongruent/STIM_003.jpg	99
1208.997	0.955	954.7	incongruent	Block2	incongruent/STIM_003.jpg	100
1212.674	1.013	1012.8	incongruent	Block2	incongruent/STIM_003.jpg	99
1217.264	0.776	776.4	incongruent	Block2	incongruent/STIM_004.jpg	99
1221.126	0.892	891.5	incongruent	Block2	incongruent/STIM_004.jpg	99
1225.759	1.067	1067.4	incongruent	Block2	incongruent/STIM_004.jpg	99
1229.123	0.876	875.9	incongruent	Block2	incongruent/STIM_004.jpg	99
1232.265	1.047	1046.8	incongruent	Block2	incongruent/STIM_004.jpg	99
1235.857	1.179	1178.6	incongruent	Block2	incongruent/STIM_005.jpg	100
1239.194	1.125	1125.2	incongruent	Block2	incongruent/STIM_005.jpg	100
1242.378	1.063	1063.1	incongruent	Block2	incongruent/STIM_005.jpg	100
1247.171	1.0	999.6	incongruent	Block2	incongruent/STIM_005.jpg	100
1252.07	0.621	621.0	incongruent	Block2	incongruent/STIM_005.jpg	100
1255.231	0.974	974.3	incongruent	Block2	incongruent/STIM_006.jpg	100
1259.667	1.204	1203.7	incongruent	Block2	incongruent/STIM_006.jpg	99
1264.525	0.582	582.1	incongruent	Block2	incongruent/STIM_006.jpg	99
1268.046	0.89	889.8	incongruent	Block2	incongruent/STIM_006.jpg	100
1272.664	0.528	527.6	incongruent	Block2	incongruent/STIM_006.jpg	100
1276.486	1.038	1038.4	incongruent	Block2	incongruent/STIM_007.jpg	100
1280.402	1.077	1077.3	incongruent	Block2	incongruent/STIM_007.jpg	100
1283.72	1.098	1098.5	incongruent	Block2	incongruent/STIM_007.jpg	100
1288.076	0.84	839.6	incongruent	Block2	incongruent/STIM_007.jpg	100
1292.077	0.626	625.8	incongruent	Block2	incongruent/STIM_007.jpg	100
1295.907	1.183	1183.1	incongruent	Block2	incongruent/STIM_008.jpg	99
1299.114	1.153	1152.9	incongruent	Block2	incongruent/STIM_008.jpg	100
1302.732	1.106	1105.9	incongruent	Block2	incongruent/STIM_008.jpg	100
1306.805	0.964	963.8	incongruent	Block2	incongruent/STIM_008.jpg	99
1311.295	0.712	712.0	incongruent	Block2	incongruent/STIM_008.jpg	99
1314.018	0.906	905.5	incongruent	Block2	incongruent/STIM_009.jpg	99
1317.454	0.603	602.9	incongruent	Block2	incongruent/STIM_009.jpg	100
1320.949	1.152	1152.4	incongruent	Block2	incongruent/STIM_009.jpg	99
1324.743	0.549	549.1	incongruent	Block2	incongruent/STIM_009.jpg	100
1327.718	0.756	756.5	incongruent	Block2	incongruent/STIM_009.jpg	100
1331.441	0.875	875.3	incongruent	Block2	incongruent/STIM_010.jpg	99
1334.794	1.104	1103.9	incongruent	Block2	incongruent/STIM_010.jpg	100
1339.029	1.174	1174.4	incongruent	Block2	incongruent/STIM_010.jpg	100
1343.513	0.956	956.5	incongruent	Block2	incongruent/STIM_010.jpg	99
1346.487	0.599	599.4	incongruent	Block2	incongruent/STIM_010.jpg	100
1349.458	0.8	800.4	incongruent	Block2	incongruent/STIM_011.jpg	99
1353.557	1.01	1010.3	incongruent	Block2	incongruent/STIM_011.jpg	99
1356.746	0.856	855.6	incongruent	Block2	incongruent/STIM_011.jpg	100
1360.218	0.666	666.1	incongruent	Block2	incongruent/STIM_011.jpg	99
1363.093	0.536	536.4	incongruent	Block2	incongruent/STIM_011.jpg	100
1366.997	1.091	1091.3	incongruent	Block2	incongruent/STIM_012.jpg	99
1370.53	1.157	1157.2	incongruent	Block2	incongruent/STIM_012.jpg	99
1373.99	0.574	574.1	incongruent	Block2	incongruent/STIM_012.jpg	100
1377.882	0.954	954.3	incongruent	Block2	incongruent/STIM_012.jpg	100
1382.685	0.866	865.9	incongruent	Block2	incongruent/STIM_012.jpg	99
1386.338	1.238	1237.6	incongruent	Block2	incongruent/STIM_013.jpg	100
1390.125	1.17	1170.0	incongruent	Block2	incongruent/STIM_013.jpg	99
1394.747	0.671	671.2	incongruent	Block2	incongruent/STIM_013.jpg	99
1398.478	1.002	1002.2	incongruent	Block2	incongruent/STIM_013.jpg	100
1403.378	0.592	592.4	incongruent	Block2	incongruent/STIM_013.jpg	100
1407.544	1.134	1134.0	incongruent	Block2	incongruent/STIM_014.jpg	99
1411.642	1.018	1018.0	incongruent	Block2	incongruent/STIM_014.jpg	99
1416.101	1.069	1069.2	incongruent	Block2	incongruent/STIM_014.jpg	100
1421.02	0.688	687.5	incongruent	Block2	incongruent/STIM_014.jpg	100
1425.487	0.938	937.9	incongruent	Block2	incongruent/STIM_014.jpg	99
1430.214	0.739	739.4	incongruent	Block2	incongruent/STIM_015.jpg	99
1433.682	0.981	980.6	incongruent	Block2	incongruent/STIM_015.jpg	99
1436.924	0.637	637.0	incongruent	Block2	incongruent/STIM_015.jpg	100
1439.782	0.726	726.3	incongruent	Block2	incongruent/STIM_015.jpg	100
1442.869	1.089	1089.1	incongruent	Block2	incongruent/STIM_015.jpg	100
1447.519	1.084	1084.4	incongruent	Block2	incongruent/STIM_016.jpg	99
1451.636	0.883	882.9	incongruent	Block2	incongruent/STIM_016.jpg	99
1456.438	0.574	574.3	incongruent	Block2	incongruent/STIM_016.jpg	99
1460.449	0.544	543.6	incongruent	Block2	incongruent/STIM_016.jpg	100
1463.976	0.52	520.5	incongruent	Block2	incongruent/STIM_016.jpg	100
1467.184	1.241	1240.9	incongruent	Block2	incongruent/STIM_017.jpg	100
1470.398	0.673	673.4	incongruent	Block2	incongruent/STIM_017.jpg	100
1473.936	0.695	695.0	incongruent	Block2	incongruent/STIM_017.jpg	100
1478.498	0.764	763.9	incongruent	Block2	incongruent/STIM_017.jpg	100
1481.241	0.727	727.2	incongruent	Block2	incongruent/STIM_017.jpg	99
1484.787	1.131	1130.7	incongruent	Block2	incongruent/STIM_018.jpg	99
1489.532	0.918	917.9	incongruent	Block2	incongruent/STIM_018.jpg	99
1493.431	0.572	571.9	incongruent	Block2	incongruent/STIM_018.jpg	99
1497.13	1.0	999.7	incongruent	Block2	incongruent/STIM_018.jpg	100
1501.71	1.034	1034.0	incongruent	Block2	incongruent/STIM_018.jpg	99
1506.037	1.045	1044.6	incongruent	Block2	incongruent/STIM_019.jpg	100
1510.09	1.229	1228.9	incongruent	Block2	incongruent/STIM_019.jpg	100
1515.0	0.63	629.8	incongruent	Block2	incongruent/STIM_019.jpg	99
1518.515	0.683	682.8	incongruent	Block2	incongruent/STIM_019.jpg	100
1522.253	0.821	821.2	incongruent	Block2	incongruent/STIM_019.jpg	99
1525.43	0.735	735.4	incongruent	Block2	incongruent/STIM_020.jpg	100
1528.764	1.256	1256.2	incongruent	Block2	incongruent/STIM_020.jpg	99
1533.954	0.648	647.5	incongruent	Block2	incongruent/STIM_020.jpg	99
1536.688	0.814	814.4	incongruent	Block2	incongruent/STIM_020.jpg	100
1540.47	0.867	866.6	incongruent	Block2	incongruent/STIM_020.jpg	100
1544.709	1.275	1275.3	incongruent	Block2	incongruent/STIM_021.jpg	100
1549.483	0.852	852.5	incongruent	Block2	incongruent/STIM_021.jpg	100
1553.022	0.884	883.9	incongruent	Block2	incongruent/STIM_021.jpg	100
1555.957	0.899	899.1	incongruent	Block2	incongruent/STIM_021.jpg	100
1559.549	0.962	962.5	incongruent	Block2	incongruent/STIM_021.jpg	100
1563.584	0.942	942.5	incongruent	Block2	incongruent/STIM_022.jpg	100
1566.51	0.999	998.6	incongruent	Block2	incongruent/STIM_022.jpg	100
1571.278	0.71	710.1	incongruent	Block2	incongruent/STIM_022.jpg	100
1574.271	0.573	573.3	incongruent	Block2	incongruent/STIM_022.jpg	99
1578.673	0.958	957.6	incongruent	Block2	incongruent/STIM_022.jpg	99
1581.847	0.857	856.6	incongruent	Block2	incongruent/STIM_023.jpg	99
1586.43	0.881	881.2	incongruent	Block2	incongruent/STIM_023.jpg	99
1589.283	0.879	879.1	incongruent	Block2	incongruent/STIM_023.jpg	100
1594.024	0.814	813.7	incongruent	Block2	incongruent/STIM_023.jpg	99
1598.725	0.778	778.2	incongruent	Block2	incongruent/STIM_023.jpg	100
1603.396	0.659	659.2	incongruent	Block2	incongruent/STIM_024.jpg	100
1607.511	1.232	1232.0	incongruent	Block2	incongruent/STIM_024.jpg	99
1611.423	0.681	681.1	incongruent	Block2	incongruent/STIM_024.jpg	99
1614.462	0.531	530.6	incongruent	Block2	incongruent/STIM_024.jpg	99
1618.099	1.06	1059.8	incongruent	Block2	incongruent/STIM_024.jpg	99
1621.434	1.172	1171.8	incongruent	Block2	incongruent/STIM_025.jpg	99
1625.982	1.235	1235.3	incongruent	Block2	incongruent/STIM_025.jpg	99
1630.209	0.652	652.0	incongruent	Block2	incongruent/STIM_025.jpg	99
1633.304	0.714	713.7	incongruent	Block2	incongruent/STIM_025.jpg	99
1637.601	0.592	592.1	incongruent	Block2	incongruent/STIM_025.jpg	100
1641.344	1.246	1245.8	incongruent	Block2	incongruent/STIM_026.jpg	100
1646.1	1.129	1129.3	incongruent	Block2	incongruent/STIM_026.jpg	100
1650.968	0.819	819.3	incongruent	Block2	incongruent/STIM_026.jpg	100
1653.854	0.981	981.2	incongruent	Block2	incongruent/STIM_026.jpg	99
1658.434	0.991	991.1	incongruent	Block2	incongruent/STIM_026.jpg	99
1661.997	1.006	1006.4	incongruent	Block2	incongruent/STIM_027.jpg	100
1665.429	0.716	716.3	incongruent	Block2	incongruent/STIM_027.jpg	99
1668.34	0.742	742.5	incongruent	Block2	incongruent/STIM_027.jpg	99
1672.928	0.713	712.8	incongruent	Block2	incongruent/STIM_027.jpg	100
1675.687	0.685	685.1	incongruent	Block2	incongruent/STIM_027.jpg	100
1680.155	0.955	955.3	incongruent	Block2	incongruent/STIM_028.jpg	99
1683.867	1.026	1025.9	incongruent	Block2	incongruent/STIM_028.jpg	100
1687.528	0.863	862.8	incongruent	Block2	incongruent/STIM_028.jpg	99
1692.246	0.583	583.0	incongruent	Block2	incongruent/STIM_028.jpg	100
1695.748	0.805	804.8	incongruent	Block2	incongruent/STIM_028.jpg	100
1699.933	1.097	1097.4	incongruent	Block2	incongruent/STIM_029.jpg	99
1703.502	1.214	1214.0	incongruent	Block2	incongruent/STIM_029.jpg	100
1707.659	1.17	1170.0	incongruent	Block2	incongruent/STIM_029.jpg	100
1711.251	0.697	697.1	incongruent	Block2	incongruent/STIM_029.jpg	100
1714.764	0.792	792.1	incongruent	Block2	incongruent/STIM_029.jpg	99
1719.178	0.755	755.4	congruent	Block2	congruent/STIM_000.jpg	99
1722.072	0.926	926.0	congruent	Block2	congruent/STIM_000.jpg	100
1725.113	0.864	864.1	congruent	Block2	congruent/STIM_000.jpg	100
1729.737	0.829	828.9	congruent	Block2	congruent/STIM_000.jpg	100
1732.635	0.928	927.6	congruent	Block2	congruent/STIM_000.jpg	100
1736.723	0.798	798.5	congruent	Block2	congruent/STIM_001.jpg	99
1740.011	0.555	555.1	congruent	Block2	congruent/STIM_001.jpg	99
1742.746	0.839	838.7	congruent	Block2	congruent/STIM_001.jpg	99
1746.989	0.704	703.8	congruent	Block2	congruent/STIM_001.jpg	99
1750.935	0.899	899.4	congruent	Block2	congruent/STIM_001.jpg	100
1754.188	0.672	672.2	congruent	Block2	congruent/STIM_002.jpg	99
1758.128	0.595	595.2	congruent	Block2	congruent/STIM_002.jpg	100
1761.53	0.916	916.1	congruent	Block2	congruent/STIM_002.jpg	99
1766.336	0.666	666.0	congruent	Block2	congruent/STIM_002.jpg	99
1770.811	0.922	922.5	congruent	Block2	congruent/STIM_002.jpg	99
1774.697	0.618	618.5	congruent	Block2	congruent/STIM_003.jpg	99
1777.444	0.527	527.1	congruent	Block2	congruent/STIM_003.jpg	99
1781.058	0.65	650.2	congruent	Block2	congruent/STIM_003.jpg	99
1785.523	0.832	832.5	congruent	Block2	congruent/STIM_003.jpg	100
1789.907	0.825	825.2	congruent	Block2	congruent/STIM_003.jpg	99
1793.014	0.813	813.4	congruent	Block2	congruent/STIM_004.jpg	99
1796.217	0.671	670.9	congruent	Block2	congruent/STIM_004.jpg	100
1800.628	0.886	886.5	congruent	Block2	congruent/STIM_004.jpg	99
1804.424	0.766	765.8	congruent	Block2	congruent/STIM_004.jpg	100
1808.102	0.724	724.5	congruent	Block2	congruent/STIM_004.jpg	99
1812.55	0.89	889.7	congruent	Block2	congruent/STIM_005.jpg	99
1816.735	0.894	893.8	congruent	Block2	congruent/STIM_005.jpg	99
1820.811	0.675	674.8	congruent	Block2	congruent/STIM_005.jpg	100
1823.672	0.795	794.7	congruent	Block2	congruent/STIM_005.jpg	99
1828.371	0.899	899.2	congruent	Block2	congruent/STIM_005.jpg	99
1832.965	0.914	913.5	congruent	Block2	congruent/STIM_006.jpg	100
1837.094	0.619	618.8	congruent	Block2	congruent/STIM_006.jpg	99
1841.585	0.601	601.1	congruent	Block2	congruent/STIM_006.jpg	99
1844.27	0.913	912.8	congruent	Block2	congruent/STIM_006.jpg	100
1848.201	0.644	644.3	congruent	Block2	congruent/STIM_006.jpg	99
1852.547	0.721	720.8	congruent	Block2	congruent/STIM_007.jpg	99
1857.188	0.606	605.6	congruent	Block2	congruent/STIM_007.jpg	99
1861.072	0.533	533.0	congruent	Block2	congruent/STIM_007.jpg	99
1863.777	0.717	717.1	congruent	Block2	congruent/STIM_007.jpg	99
1866.792	0.797	797.4	congruent	Block2	congruent/STIM_007.jpg	99
1870.924	0.66	659.5	congruent	Block2	congruent/STIM_008.jpg	100
1874.597	0.787	787.0	congruent	Block2	congruent/STIM_008.jpg	99
1877.353	0.737	737.3	congruent	Block2	congruent/STIM_008.jpg	99
1880.231	0.694	693.5	congruent	Block2	congruent/STIM_008.jpg	99
1883.185	0.637	637.2	congruent	Block2	congruent/STIM_008.jpg	100
1887.041	0.737	736.7	congruent	Block2	congruent/STIM_009.jpg	100
1891.103	0.868	867.5	congruent	Block2	congruent/STIM_009.jpg	100
1895.411	0.759	759.0	congruent	Block2	congruent/STIM_009.jpg	99
1898.296	0.613	613.3	congruent	Block2	congruent/STIM_009.jpg	100
1901.907	0.694	694.4	congruent	Block2	congruent/STIM_009.jpg	100
1905.195	0.669	668.8	congruent	Block2	congruent/STIM_010.jpg	100
1908.92	0.91	910.0	congruent	Block2	congruent/STIM_010.jpg	100
1913.601	0.619	619.3	congruent	Block2	congruent/STIM_010.jpg	100
1916.647	0.579	578.7	congruent	Block2	congruent/STIM_010.jpg	99
1920.388	0.784	783.7	congruent	Block2	congruent/STIM_010.jpg	99
1923.765	0.685	684.6	congruent	Block2	congruent/STIM_011.jpg	99
1927.547	0.791	791.2	congruent	Block2	congruent/STIM_011.jpg	99
1931.512	0.532	532.2	congruent	Block2	congruent/STIM_011.jpg	100
1934.056	0.631	631.1	congruent	Block2	congruent/STIM_011.jpg	100
1937.561	0.891	891.3	congruent	Block2	congruent/STIM_011.jpg	99
1940.424	0.678	677.9	congruent	Block2	congruent/STIM_012.jpg	100
1943.471	0.624	623.5	congruent	Block2	congruent/STIM_012.jpg	99
1947.938	0.797	797.2	congruent	Block2	congruent/STIM_012.jpg	100
1951.615	0.635	634.7	congruent	Block2	congruent/STIM_012.jpg	100
1954.431	0.709	708.7	congruent	Block2	congruent/STIM_012.jpg	100
1958.968	0.825	825.1	congruent	Block2	congruent/STIM_013.jpg	100
1963.285	0.56	560.4	congruent	Block2	congruent/STIM_013.jpg	100
1967.727	0.532	531.8	congruent	Block2	congruent/STIM_013.jpg	100
1971.391	0.794	793.6	congruent	Block2	congruent/STIM_013.jpg	99
1974.373	0.63	629.8	congruent	Block2	congruent/STIM_013.jpg	100
1978.438	0.847	847.0	congruent	Block2	congruent/STIM_014.jpg	100
1982.24	0.782	782.1	congruent	Block2	congruent/STIM_014.jpg	100
1986.663	0.54	540.5	congruent	Block2	congruent/STIM_014.jpg	100
1989.535	0.857	856.9	congruent	Block2	congruent/STIM_014.jpg	99
1994.148	0.812	811.8	congruent	Block2	congruent/STIM_014.jpg	100
1997.18	0.863	863.2	congruent	Block2	congruent/STIM_015.jpg	100
2001.903	0.848	848.4	congruent	Block2	congruent/STIM_015.jpg	100
2005.371	0.84	839.8	congruent	Block2	congruent/STIM_015.jpg	100
2009.448	0.811	811.3	congruent	Block2	congruent/STIM_015.jpg	100
2013.448	0.869	869.3	congruent	Block2	congruent/STIM_015.jpg	100
2016.908	0.941	941.1	congruent	Block2	congruent/STIM_016.jpg	100
2021.478	0.72	719.6	congruent	Block2	congruent/STIM_016.jpg	100
2025.902	0.637	637.2	congruent	Block2	congruent/STIM_016.jpg	99
2029.534	0.862	862.2	congruent	Block2	congruent/STIM_016.jpg	100
2033.237	0.597	597.4	congruent	Block2	congruent/STIM_016.jpg	99
2037.759	0.726	726.0	congruent	Block2	congruent/STIM_017.jpg	99
2041.875	0.713	712.6	congruent	Block2	congruent/STIM_017.jpg	99
2044.592	0.702	701.5	congruent	Block2	congruent/STIM_017.jpg	99
2048.493	0.631	631.4	congruent	Block2	congruent/STIM_017.jpg	100
2052.564	0.586	586.3	congruent	Block2	congruent/STIM_017.jpg	100
2055.216	0.62	619.9	congruent	Block2	congruent/STIM_018.jpg	99
2059.12	0.722	721.5	congruent	Block2	congruent/STIM_018.jpg	100
2062.417	0.613	612.8	congruent	Block2	congruent/STIM_018.jpg	100
2066.275	0.56	559.5	congruent	Block2	congruent/STIM_018.jpg	100
2070.306	0.54	539.6	congruent	Block2	congruent/STIM_018.jpg	99
2073.77	0.67	669.7	congruent	Block2	congruent/STIM_019.jpg	100
2077.933	0.873	873.4	congruent	Block2	congruent/STIM_019.jpg	100
2081.22	0.78	780.2	congruent	Block2	congruent/STIM_019.jpg	100
2084.376	0.711	710.7	congruent	Block2	congruent/STIM_019.jpg	100
2087.741	0.881	881.1	congruent	Block2	congruent/STIM_019.jpg	100
2092.007	0.866	866.1	congruent	Block2	congruent/STIM_020.jpg	100
2096.396	0.654	654.3	congruent	Block2	congruent/STIM_020.jpg	99
2100.418	0.746	746.0	congruent	Block2	congruent/STIM_020.jpg	100
2104.668	0.746	745.9	congruent	Block2	congruent/STIM_020.jpg	100
2107.382	0.634	633.5	congruent	Block2	congruent/STIM_020.jpg	100
2111.145	0.557	556.8	congruent	Block2	congruent/STIM_021.jpg	100
2113.824	0.712	711.5	congruent	Block2	congruent/STIM_021.jpg	100
2117.114	0.923	922.8	congruent	Block2	congruent/STIM_021.jpg	100
2121.423	0.658	658.0	congruent	Block2	congruent/STIM_021.jpg	100
2124.678	0.56	559.6	congruent	Block2	congruent/STIM_021.jpg	99
2128.124	0.823	822.9	congruent	Block2	congruent/STIM_022.jpg	100
2131.971	0.686	685.9	congruent	Block2	congruent/STIM_022.jpg	99
2134.913	0.666	666.3	congruent	Block2	congruent/STIM_022.jpg	99
2138.651	0.584	583.7	congruent	Block2	congruent/STIM_022.jpg	100
2142.232	0.843	843.1	congruent	Block2	congruent/STIM_022.jpg	99
2145.442	0.568	568.3	congruent	Block2	congruent/STIM_023.jpg	100
2149.296	0.644	643.5	congruent	Block2	congruent/STIM_023.jpg	99
2153.595	0.832	831.6	congruent	Block2	congruent/STIM_023.jpg	99
2158.382	0.759	759.4	congruent	Block2	congruent/STIM_023.jpg	99
2162.217	0.677	677.4	congruent	Block2	congruent/STIM_023.jpg	100
2165.965	0.774	774.4	congruent	Block2	congruent/STIM_024.jpg	99
2170.17	0.804	804.3	congruent	Block2	congruent/STIM_024.jpg	100
2173.296	0.834	833.8	congruent	Block2	congruent/STIM_024.jpg	100
2178.016	0.563	562.6	congruent	Block2	congruent/STIM_024.jpg	100
2182.057	0.733	733.1	congruent	Block2	congruent/STIM_024.jpg	100
2186.175	0.816	816.1	congruent	Block2	congruent/STIM_025.jpg	99
2189.561	0.608	607.7	congruent	Block2	congruent/STIM_025.jpg	99
2193.875	0.869	868.6	congruent	Block2	congruent/STIM_025.jpg	100
2198.173	0.603	603.0	congruent	Block2	congruent/STIM_025.jpg	100
2202.118	0.84	840.4	congruent	Block2	congruent/STIM_025.jpg	99
2205.019	0.932	931.9	congruent	Block2	congruent/STIM_026.jpg	99
2207.928	0.695	695.0	congruent	Block2	congruent/STIM_026.jpg	99
2211.766	0.746	746.4	congruent	Block2	congruent/STIM_026.jpg	99
2215.18	0.533	532.7	congruent	Block2	congruent/STIM_026.jpg	100
2218.909	0.666	666.3	congruent	Block2	congruent/STIM_026.jpg	99
2222.225	0.626	626.0	congruent	Block2	congruent/STIM_027.jpg	99
2226.298	0.653	653.2	congruent	Block2	congruent/STIM_027.jpg	99
2229.299	0.916	915.7	congruent	Block2	congruent/STIM_027.jpg	99
2233.728	0.546	545.5	congruent	Block2	congruent/STIM_027.jpg	99
2237.361	0.853	853.4	congruent	Block2	congruent/STIM_027.jpg	100
2241.435	0.761	761.4	congruent	Block2	congruent/STIM_028.jpg	100
2245.544	0.607	607.4	congruent	Block2	congruent/STIM_028.jpg	99
2250.124	0.784	783.7	congruent	Block2	congruent/STIM_028.jpg	100
2254.195	0.575	575.2	congruent	Block2	congruent/STIM_028.jpg	99
2257.385	0.894	893.6	congruent	Block2	congruent/STIM_028.jpg	99
2261.853	0.758	757.6	congruent	Block2	congruent/STIM_029.jpg	99
2265.644	0.654	654.2	congruent	Block2	congruent/STIM_029.jpg	99
2269.205	0.633	633.0	congruent	Block2	congruent/STIM_029.jpg	100
2273.202	0.862	862.0	congruent	Block2	congruent/STIM_029.jpg	99
2276.222	0.559	558.8	congruent	Block2	congruent/STIM_029.jpg	100
2278.986	0.699	699.1	incongruent	Block3	incongruent/STIM_000.jpg	99
2282.565	0.733	732.8	incongruent	Block3	incongruent/STIM_000.jpg	99
2286.8	1.08	1080.3	incongruent	Block3	incongruent/STIM_000.jpg	100
2289.888	1.024	1023.7	incongruent	Block3	incongruent/STIM_000.jpg	99
2293.458	0.853	852.6	incongruent	Block3	incongruent/STIM_000.jpg	99
2297.528	0.911	911.4	incongruent	Block3	incongruent/STIM_001.jpg	99
2300.813	0.708	707.6	incongruent	Block3	incongruent/STIM_001.jpg	100
2303.546	0.802	802.1	incongruent	Block3	incongruent/STIM_001.jpg	100
2307.506	0.705	704.7	incongruent	Block3	incongruent/STIM_001.jpg	100
2310.584	0.742	741.7	incongruent	Block3	incongruent/STIM_001.jpg	100
2313.322	0.863	862.9	incongruent	Block3	incongruent/STIM_002.jpg	99
2317.202	1.076	1075.6	incongruent	Block3	incongruent/STIM_002.jpg	99
2321.16	0.723	722.9	incongruent	Block3	incongruent/STIM_002.jpg	99
2324.539	0.68	680.1	incongruent	Block3	incongruent/STIM_002.jpg	100
2327.537	0.764	763.7	incongruent	Block3	incongruent/STIM_002.jpg	100
2332.126	0.933	932.9	incongruent	Block3	incongruent/STIM_003.jpg	99
2335.198	0.748	748.0	incongruent	Block3	incongruent/STIM_003.jpg	100
2339.05	0.635	635.4	incongruent	Block3	incongruent/STIM_003.jpg	99
2342.395	0.934	934.1	incongruent	Block3	incongruent/STIM_003.jpg	99
2346.65	0.767	767.1	incongruent	Block3	incongruent/STIM_003.jpg	100
2349.426	0.523	523.1	incongruent	Block3	incongruent/STIM_004.jpg	100
2352.952	0.665	665.2	incongruent	Block3	incongruent/STIM_004.jpg	100
2356.829	0.872	872.0	incongruent	Block3	incongruent/STIM_004.jpg	99
2360.952	0.994	993.5	incongruent	Block3	incongruent/STIM_004.jpg	99
2364.777	0.918	918.2	incongruent	Block3	incongruent/STIM_004.jpg	99
2369.02	1.022	1022.5	incongruent	Block3	incongruent/STIM_005.jpg	100
2373.886	0.848	847.7	incongruent	Block3	incongruent/STIM_005.jpg	100
2378.615	1.052	1052.2	incongruent	Block3	incongruent/STIM_005.jpg	100
2382.213	1.036	1036.0	incongruent	Block3	incongruent/STIM_005.jpg	100
2386.037	0.85	849.9	incongruent	Block3	incongruent/STIM_005.jpg	99
2390.114	0.598	598.3	incongruent	Block3	incongruent/STIM_006.jpg	100
2393.102	0.598	598.3	incongruent	Block3	incongruent/STIM_006.jpg	99
2396.922	0.918	917.7	incongruent	Block3	incongruent/STIM_006.jpg	100
2400.543	0.814	814.5	incongruent	Block3	incongruent/STIM_006.jpg	100
2404.123	0.999	999.0	incongruent	Block3	incongruent/STIM_006.jpg	99
2408.755	1.045	1045.3	incongruent	Block3	incongruent/STIM_007.jpg	100
2413.655	0.698	698.4	incongruent	Block3	incongruent/STIM_007.jpg	99
2417.318	1.096	1095.6	incongruent	Block3	incongruent/STIM_007.jpg	99
2420.657	0.713	713.2	incongruent	Block3	incongruent/STIM_007.jpg	99
2424.413	0.953	953.2	incongruent	Block3	incongruent/STIM_007.jpg	100
2427.969	0.952	952.2	incongruent	Block3	incongruent/STIM_008.jpg	100
2431.733	0.795	795.3	incongruent	Block3	incongruent/STIM_008.jpg	100
2435.913	0.942	942.4	incongruent	Block3	incongruent/STIM_008.jpg	100
2439.713	0.915	915.1	incongruent	Block3	incongruent/STIM_008.jpg	100
2443.136	0.936	935.8	incongruent	Block3	incongruent/STIM_008.jpg	100
2447.452	0.7	700.3	incongruent	Block3	incongruent/STIM_009.jpg	100
2450.424	0.978	978.0	incongruent	Block3	incongruent/STIM_009.jpg	100
2454.208	0.655	655.2	incongruent	Block3	incongruent/STIM_009.jpg	100
2457.642	0.882	882.5	incongruent	Block3	incongruent/STIM_009.jpg	99
2461.226	0.722	721.7	incongruent	Block3	incongruent/STIM_009.jpg	100
2465.202	0.991	990.9	incongruent	Block3	incongruent/STIM_010.jpg	99
2468.996	1.074	1074.3	incongruent	Block3	incongruent/STIM_010.jpg	99
2473.295	0.762	762.2	incongruent	Block3	incongruent/STIM_010.jpg	100
2476.629	0.794	794.4	incongruent	Block3	incongruent/STIM_010.jpg	99
2480.466	0.586	586.4	incongruent	Block3	incongruent/STIM_010.jpg	100
2483.039	0.735	735.1	incongruent	Block3	incongruent/STIM_011.jpg	100
2486.008	0.894	893.8	incongruent	Block3	incongruent/STIM_011.jpg	100
2489.149	0.754	754.4	incongruent	Block3	incongruent/STIM_011.jpg	100
2493.533	0.69	690.3	incongruent	Block3	incongruent/STIM_011.jpg	99
2496.657	0.732	731.6	incongruent	Block3	incongruent/STIM_011.jpg	99
2500.397	1.088	1087.7	incongruent	Block3	incongruent/STIM_012.jpg	99
2503.64	0.955	955.0	incongruent	Block3	incongruent/STIM_012.jpg	99
2507.76	0.549	548.7	incongruent	Block3	incongruent/STIM_012.jpg	100
2511.95	0.614	613.6	incongruent	Block3	incongruent/STIM_012.jpg	100
2515.784	1.092	1092.5	incongruent	Block3	incongruent/STIM_012.jpg	99
2520.493	0.608	607.6	incongruent	Block3	incongruent/STIM_013.jpg	100
2524.678	1.088	1087.7	incongruent	Block3	incongruent/STIM_013.jpg	100
2529.318	0.549	549.3	incongruent	Block3	incongruent/STIM_013.jpg	99
2532.577	0.833	833.3	incongruent	Block3	incongruent/STIM_013.jpg	99
2536.196	0.816	815.9	incongruent	Block3	incongruent/STIM_013.jpg	100
2539.808	1.072	1072.2	incongruent	Block3	incongruent/STIM_014.jpg	99
2543.091	1.042	1042.4	incongruent	Block3	incongruent/STIM_014.jpg	100
2547.663	0.566	566.1	incongruent	Block3	incongruent/STIM_014.jpg	99
2551.507	0.754	753.7	incongruent	Block3	incongruent/STIM_014.jpg	99
2555.101	0.917	916.7	incongruent	Block3	incongruent/STIM_014.jpg	100
2558.26	0.993	993.4	incongruent	Block3	incongruent/STIM_015.jpg	99
2562.83	0.866	865.6	incongruent	Block3	incongruent/STIM_015.jpg	100
2566.674	0.695	695.2	incongruent	Block3	incongruent/STIM_015.jpg	99
2569.585	0.848	848.1	incongruent	Block3	incongruent/STIM_015.jpg	100
2573.397	0.762	762.0	incongruent	Block3	incongruent/STIM_015.jpg	99
2576.588	0.608	607.9	incongruent	Block3	incongruent/STIM_016.jpg	100
2579.403	0.89	889.9	incongruent	Block3	incongruent/STIM_016.jpg	99
2583.33	1.012	1011.6	incongruent	Block3	incongruent/STIM_016.jpg	100
2586.745	0.537	536.8	incongruent	Block3	incongruent/STIM_016.jpg	99
2589.716	0.951	950.6	incongruent	Block3	incongruent/STIM_016.jpg	99
2594.305	1.098	1097.5	incongruent	Block3	incongruent/STIM_017.jpg	99
2598.192	0.846	846.3	incongruent	Block3	incongruent/STIM_017.jpg	99
2601.959	0.937	936.9	incongruent	Block3	incongruent/STIM_017.jpg	100
2604.98	0.955	955.4	incongruent	Block3	incongruent/STIM_017.jpg	100
2609.673	0.8	800.5	incongruent	Block3	incongruent/STIM_017.jpg	99
2612.536	1.098	1098.4	incongruent	Block3	incongruent/STIM_018.jpg	100
2616.908	0.609	609.4	incongruent	Block3	incongruent/STIM_018.jpg	100
2621.025	0.529	529.1	incongruent	Block3	incongruent/STIM_018.jpg	99
2625.489	1.032	1032.5	incongruent	Block3	incongruent/STIM_018.jpg	99
2628.845	0.553	553.4	incongruent	Block3	incongruent/STIM_018.jpg	99
2632.109	1.082	1081.9	incongruent	Block3	incongruent/STIM_019.jpg	99
2636.883	0.882	881.8	incongruent	Block3	incongruent/STIM_019.jpg	99
2639.769	0.892	892.4	incongruent	Block3	incongruent/STIM_019.jpg	99
2642.629	0.996	995.8	incongruent	Block3	incongruent/STIM_019.jpg	99
2645.867	1.088	1088.5	incongruent	Block3	incongruent/STIM_019.jpg	100
2649.798	0.749	748.6	incongruent	Block3	incongruent/STIM_020.jpg	99
2653.909	0.924	924.1	incongruent	Block3	incongruent/STIM_020.jpg	100
2657.809	0.52	519.5	incongruent	Block3	incongruent/STIM_020.jpg	100
2660.375	0.871	870.6	incongruent	Block3	incongruent/STIM_020.jpg	100
2665.103	0.725	724.8	incongruent	Block3	incongruent/STIM_020.jpg	100
2667.994	0.932	931.9	incongruent	Block3	incongruent/STIM_021.jpg	99
2671.545	0.938	938.1	incongruent	Block3	incongruent/STIM_021.jpg	99
2676.3	0.986	985.8	incongruent	Block3	incongruent/STIM_021.jpg	100
2679.997	0.709	708.6	incongruent	Block3	incongruent/STIM_021.jpg	99
2683.568	0.772	771.5	incongruent	Block3	incongruent/STIM_021.jpg	99
2686.45	0.735	735.0	incongruent	Block3	incongruent/STIM_022.jpg	99
2689.553	0.787	786.7	incongruent	Block3	incongruent/STIM_022.jpg	99
2693.74	0.875	875.1	incongruent	Block3	incongruent/STIM_022.jpg	99
2698.538	0.937	936.6	incongruent	Block3	incongruent/STIM_022.jpg	100
2703.339	0.934	934.3	incongruent	Block3	incongruent/STIM_022.jpg	100
2707.023	0.557	557.0	incongruent	Block3	incongruent/STIM_023.jpg	99
2709.937	0.833	832.8	incongruent	Block3	incongruent/STIM_023.jpg	100
2713.926	1.06	1060.2	incongruent	Block3	incongruent/STIM_023.jpg	99
2718.602	0.977	976.8	incongruent	Block3	incongruent/STIM_023.jpg	99
2722.945	0.701	701.4	incongruent	Block3	incongruent/STIM_023.jpg	100
2727.038	0.862	861.8	incongruent	Block3	incongruent/STIM_024.jpg	100
2731.506	0.69	689.8	incongruent	Block3	incongruent/STIM_024.jpg	100
2734.175	0.75	749.6	incongruent	Block3	incongruent/STIM_024.jpg	99
2738.268	0.519	519.0	incongruent	Block3	incongruent/STIM_024.jpg	100
2741.951	0.96	960.0	incongruent	Block3	incongruent/STIM_024.jpg	99
2746.292	1.036	1035.8	incongruent	Block3	incongruent/STIM_025.jpg	100
2750.681	0.862	862.1	incongruent	Block3	incongruent/STIM_025.jpg	99
2754.78	0.582	582.5	incongruent	Block3	incongruent/STIM_025.jpg	99
2758.629	0.68	680.4	incongruent	Block3	incongruent/STIM_025.jpg	100
2762.735	0.792	792.4	incongruent	Block3	incongruent/STIM_025.jpg	99
2767.004	0.564	564.4	incongruent	Block3	incongruent/STIM_026.jpg	99
2770.858	0.859	859.1	incongruent	Block3	incongruent/STIM_026.jpg	99
2774.039	0.726	726.5	incongruent	Block3	incongruent/STIM_026.jpg	99
2776.983	0.624	623.6	incongruent	Block3	incongruent/STIM_026.jpg	100
2781.304	0.975	974.6	incongruent	Block3	incongruent/STIM_026.jpg	100
2785.317	0.646	646.5	incongruent	Block3	incongruent/STIM_027.jpg	99
2788.964	1.028	1028.5	incongruent	Block3	incongruent/STIM_027.jpg	100
2793.663	0.521	520.8	incongruent	Block3	incongruent/STIM_027.jpg	100
2796.845	0.83	829.6	incongruent	Block3	incongruent/STIM_027.jpg	99
2800.998	0.556	556.0	incongruent	Block3	incongruent/STIM_027.jpg	100
2803.609	0.725	725.4	incongruent	Block3	incongruent/STIM_028.jpg	99
2807.596	0.951	950.8	incongruent	Block3	incongruent/STIM_028.jpg	100
2810.973	0.902	901.7	incongruent	Block3	incongruent/STIM_028.jpg	100
2815.109	0.624	623.7	incongruent	Block3	incongruent/STIM_028.jpg	100
2818.078	0.761	760.7	incongruent	Block3	incongruent/STIM_028.jpg	99
2822.602	0.752	751.5	incongruent	Block3	incongruent/STIM_029.jpg	100
2827.165	1.05	1050.0	incongruent	Block3	incongruent/STIM_029.jpg	99
2830.351	1.008	1008.3	incongruent	Block3	incongruent/STIM_029.jpg	100
2834.132	0.722	721.5	incongruent	Block3	incongruent/STIM_029.jpg	100
2837.383	0.725	725.1	incongruent	Block3	incongruent/STIM_029.jpg	99
2840.885	0.867	866.9	congruent	Block3	congruent/STIM_000.jpg	99
2845.509	0.546	546.0	congruent	Block3	congruent/STIM_000.jpg	99
2848.422	0.804	803.5	congruent	Block3	congruent/STIM_000.jpg	99
2851.251	0.534	533.7	congruent	Block3	congruent/STIM_000.jpg	99
2855.041	0.831	831.1	congruent	Block3	congruent/STIM_000.jpg	99
2858.041	0.713	713.0	congruent	Block3	congruent/STIM_001.jpg	100
2861.51	0.656	655.5	congruent	Block3	congruent/STIM_001.jpg	100
2865.762	0.579	578.9	congruent	Block3	congruent/STIM_001.jpg	100
2870.194	0.533	532.7	congruent	Block3	congruent/STIM_001.jpg	100
2873.963	0.907	907.4	congruent	Block3	congruent/STIM_001.jpg	100
2878.789	0.575	574.9	congruent	Block3	congruent/STIM_002.jpg	99
2882.178	0.529	529.3	congruent	Block3	congruent/STIM_002.jpg	99
2886.062	0.71	709.5	congruent	Block3	congruent/STIM_002.jpg	99
2888.925	0.932	931.6	congruent	Block3	congruent/STIM_002.jpg	100
2891.831	0.744	743.6	congruent	Block3	congruent/STIM_002.jpg	100
2896.469	0.622	621.8	congruent	Block3	congruent/STIM_003.jpg	99
2899.412	0.63	629.6	congruent	Block3	congruent/STIM_003.jpg	99
2903.088	0.59	590.1	congruent	Block3	congruent/STIM_003.jpg	99
2906.292	0.942	941.5	congruent	Block3	congruent/STIM_003.jpg	100
2911.142	0.852	851.6	congruent	Block3	congruent/STIM_003.jpg	99
2914.036	0.646	646.1	congruent	Block3	congruent/STIM_004.jpg	99
2917.584	0.596	595.6	congruent	Block3	congruent/STIM_004.jpg	100
2920.731	0.894	894.4	congruent	Block3	congruent/STIM_004.jpg	99
2925.232	0.739	738.7	congruent	Block3	congruent/STIM_004.jpg	100
2929.627	0.923	922.9	congruent	Block3	congruent/STIM_004.jpg	99
2933.932	0.752	751.5	congruent	Block3	congruent/STIM_005.jpg	100
2938.287	0.75	749.7	congruent	Block3	congruent/STIM_005.jpg	99
2941.353	0.566	566.4	congruent	Block3	congruent/STIM_005.jpg	99
2945.165	0.819	818.6	congruent	Block3	congruent/STIM_005.jpg	100
2948.841	0.744	744.2	congruent	Block3	congruent/STIM_005.jpg	99
2952.792	0.764	763.6	congruent	Block3	congruent/STIM_006.jpg	100
2955.625	0.794	794.1	congruent	Block3	congruent/STIM_006.jpg	100
2960.164	0.728	728.1	congruent	Block3	congruent/STIM_006.jpg	100
2963.901	0.744	743.9	congruent	Block3	congruent/STIM_006.jpg	100
2967.188	0.754	753.5	congruent	Block3	congruent/STIM_006.jpg	100
2970.213	0.64	640.2	congruent	Block3	congruent/STIM_007.jpg	100
2973.281	0.761	760.9	congruent	Block3	congruent/STIM_007.jpg	99
2976.151	0.714	714.4	congruent	Block3	congruent/STIM_007.jpg	100
2980.801	0.856	856.4	congruent	Block3	congruent/STIM_007.jpg	99
2984.383	0.758	757.8	congruent	Block3	congruent/STIM_007.jpg	100
2987.319	0.9	899.7	congruent	Block3	congruent/STIM_008.jpg	100
2990.907	0.804	804.4	congruent	Block3	congruent/STIM_008.jpg	99
2995.456	0.735	735.3	congruent	Block3	congruent/STIM_008.jpg	99
2999.857	0.77	770.4	congruent	Block3	congruent/STIM_008.jpg	100
3002.901	0.759	759.4	congruent	Block3	congruent/STIM_008.jpg	100
3007.432	0.577	576.7	congruent	Block3	congruent/STIM_009.jpg	99
3011.806	0.547	546.8	congruent	Block3	congruent/STIM_009.jpg	100
3016.081	0.696	696.0	congruent	Block3	congruent/STIM_009.jpg	99
3019.817	0.76	760.3	congruent	Block3	congruent/STIM_009.jpg	100
3024.411	0.619	619.3	congruent	Block3	congruent/STIM_009.jpg	99
3027.724	0.778	778.1	congruent	Block3	congruent/STIM_010.jpg	100
3031.758	0.791	791.2	congruent	Block3	congruent/STIM_010.jpg	99
3035.588	0.939	939.1	congruent	Block3	congruent/STIM_010.jpg	100
3039.899	0.744	743.9	congruent	Block3	congruent/STIM_010.jpg	100
3044.51	0.528	527.6	congruent	Block3	congruent/STIM_010.jpg	99
3048.351	0.712	712.4	congruent	Block3	congruent/STIM_011.jpg	99
3051.358	0.644	643.5	congruent	Block3	congruent/STIM_011.jpg	100
3054.595	0.821	820.7	congruent	Block3	congruent/STIM_011.jpg	99
3057.887	0.549	548.9	congruent	Block3	congruent/STIM_011.jpg	99
3061.666	0.659	658.8	congruent	Block3	congruent/STIM_011.jpg	99
3064.936	0.93	930.1	congruent	Block3	congruent/STIM_012.jpg	99
3068.176	0.726	725.6	congruent	Block3	congruent/STIM_012.jpg	100
3071.463	0.935	934.9	congruent	Block3	congruent/STIM_012.jpg	99
3075.121	0.878	877.5	congruent	Block3	congruent/STIM_012.jpg	100
3079.161	0.606	605.5	congruent	Block3	congruent/STIM_012.jpg	100
3082.277	0.81	810.4	congruent	Block3	congruent/STIM_013.jpg	99
3086.795	0.806	806.4	congruent	Block3	congruent/STIM_013.jpg	99
3090.533	0.778	778.3	congruent	Block3	congruent/STIM_013.jpg	99
3094.444	0.631	631.3	congruent	Block3	congruent/STIM_013.jpg	99
3098.267	0.911	910.7	congruent	Block3	congruent/STIM_013.jpg	99
3102.212	0.58	580.0	congruent	Block3	congruent/STIM_014.jpg	99
3106.054	0.938	937.6	congruent	Block3	congruent/STIM_014.jpg	100
3109.997	0.845	844.6	congruent	Block3	congruent/STIM_014.jpg	100
3113.775	0.768	767.8	congruent	Block3	congruent/STIM_014.jpg	99
3117.701	0.748	748.4	congruent	Block3	congruent/STIM_014.jpg	99
3120.907	0.605	605.4	congruent	Block3	congruent/STIM_015.jpg	100
3123.986	0.652	651.7	congruent	Block3	congruent/STIM_015.jpg	100
3128.179	0.869	868.7	congruent	Block3	congruent/STIM_015.jpg	100
3132.025	0.562	562.0	congruent	Block3	congruent/STIM_015.jpg	99
3135.104	0.698	698.0	congruent	Block3	congruent/STIM_015.jpg	100
3138.304	0.568	568.5	congruent	Block3	congruent/STIM_016.jpg	100
3141.584	0.915	914.9	congruent	Block3	congruent/STIM_016.jpg	99
3146.209	0.831	831.1	congruent	Block3	congruent/STIM_016.jpg	100
3149.335	0.875	875.2	congruent	Block3	congruent/STIM_016.jpg	100
3153.103	0.774	774.4	congruent	Block3	congruent/STIM_016.jpg	99
3156.921	0.544	543.5	congruent	Block3	congruent/STIM_017.jpg	100
3160.259	0.623	623.4	congruent	Block3	congruent/STIM_017.jpg	99
3163.957	0.871	870.7	congruent	Block3	congruent/STIM_017.jpg	100
3167.957	0.714	713.9	congruent	Block3	congruent/STIM_017.jpg	100
3171.733	0.887	886.9	congruent	Block3	congruent/STIM_017.jpg	99
3176.374	0.73	730.0	congruent	Block3	congruent/STIM_018.jpg	99
3180.253	0.692	691.6	congruent	Block3	congruent/STIM_018.jpg	99
3183.892	0.627	627.3	congruent	Block3	congruent/STIM_018.jpg	100
3186.741	0.532	531.5	congruent	Block3	congruent/STIM_018.jpg	99
3189.373	0.773	773.4	congruent	Block3	congruent/STIM_018.jpg	99
3192.16	0.641	641.4	congruent	Block3	congruent/STIM_019.jpg	100
3195.221	0.637	636.9	congruent	Block3	congruent/STIM_019.jpg	99
3198.426	0.791	791.0	congruent	Block3	congruent/STIM_019.jpg	100
3201.261	0.793	793.2	congruent	Block3	congruent/STIM_019.jpg	100
3204.545	0.754	753.5	congruent	Block3	congruent/STIM_019.jpg	99
3207.662	0.726	726.0	congruent	Block3	congruent/STIM_020.jpg	99
3211.959	0.581	581.3	congruent	Block3	congruent/STIM_020.jpg	100
3216.045	0.61	609.5	congruent	Block3	congruent/STIM_020.jpg	100
3220.21	0.524	524.4	congruent	Block3	congruent/STIM_020.jpg	100
3222.795	0.94	939.7	congruent	Block3	congruent/STIM_020.jpg	100
3226.234	0.939	938.9	congruent	Block3	congruent/STIM_021.jpg	100
3230.072	0.599	599.3	congruent	Block3	congruent/STIM_021.jpg	100
3234.14	0.917	917.2	congruent	Block3	congruent/STIM_021.jpg	99
3238.594	0.544	543.8	congruent	Block3	congruent/STIM_021.jpg	99
3241.661	0.576	575.6	congruent	Block3	congruent/STIM_021.jpg	99
3245.482	0.664	663.8	congruent	Block3	congruent/STIM_022.jpg	100
3248.217	0.626	625.7	congruent	Block3	congruent/STIM_022.jpg	99
3251.769	0.878	878.5	congruent	Block3	congruent/STIM_022.jpg	99
3255.719	0.768	767.7	congruent	Block3	congruent/STIM_022.jpg	99
3260.215	0.763	762.8	congruent	Block3	congruent/STIM_022.jpg	100
3263.083	0.546	545.9	congruent	Block3	congruent/STIM_023.jpg	100
3265.839	0.645	644.9	congruent	Block3	congruent/STIM_023.jpg	99
3270.287	0.616	616.3	congruent	Block3	congruent/STIM_023.jpg	99
3273.715	0.733	733.4	congruent	Block3	congruent/STIM_023.jpg	100
3277.2	0.574	574.2	congruent	Block3	congruent/STIM_023.jpg	99
3280.676	0.537	537.3	congruent	Block3	congruent/STIM_024.jpg	99
3284.821	0.828	828.2	congruent	Block3	congruent/STIM_024.jpg	100
3288.795	0.62	619.8	congruent	Block3	congruent/STIM_024.jpg	100
3292.1	0.634	633.7	congruent	Block3	congruent/STIM_024.jpg	100
3295.794	0.919	918.9	congruent	Block3	congruent/STIM_024.jpg	99
3298.955	0.637	636.8	congruent	Block3	congruent/STIM_025.jpg	100
3302.745	0.791	791.4	congruent	Block3	congruent/STIM_025.jpg	99
3306.381	0.54	539.8	congruent	Block3	congruent/STIM_025.jpg	99
3309.237	0.88	880.0	congruent	Block3	congruent/STIM_025.jpg	99
3312.819	0.897	897.0	congruent	Block3	congruent/STIM_025.jpg	99
3315.928	0.837	836.8	congruent	Block3	congruent/STIM_026.jpg	99
3320.137	0.55	550.4	congruent	Block3	congruent/STIM_026.jpg	100
3322.723	0.842	841.6	congruent	Block3	congruent/STIM_026.jpg	100
3325.735	0.555	555.2	congruent	Block3	congruent/STIM_026.jpg	100
3329.159	0.569	569.2	congruent	Block3	congruent/STIM_026.jpg	99
3333.009	0.766	765.6	congruent	Block3	congruent/STIM_027.jpg	99
3335.745	0.595	595.2	congruent	Block3	congruent/STIM_027.jpg	99
3339.274	0.861	860.9	congruent	Block3	congruent/STIM_027.jpg	100
3343.568	0.549	549.0	congruent	Block3	congruent/STIM_027.jpg	99
3347.464	0.852	852.2	congruent	Block3	congruent/STIM_027.jpg	100
3352.017	0.82	819.7	congruent	Block3	congruent/STIM_028.jpg	100
3354.965	0.775	774.9	congruent	Block3	congruent/STIM_028.jpg	100
3357.881	0.902	902.1	congruent	Block3	congruent/STIM_028.jpg	99
3361.016	0.828	828.1	congruent	Block3	congruent/STIM_028.jpg	99
3364.361	0.543	542.6	congruent	Block3	congruent/STIM_028.jpg	99
3368.234	0.922	922.3	congruent	Block3	congruent/STIM_029.jpg	100
3372.871	0.554	553.9	congruent	Block3	congruent/STIM_029.jpg	100
3376.465	0.564	563.9	congruent	Block3	congruent/STIM_029.jpg	100
3380.222	0.599	599.0	congruent	Block3	congruent/STIM_029.jpg	99
3383.964	0.758	758.3	congruent	Block3	congruent/STIM_029.jpg	100
