onset	duration	accuracy_binary	trial_type	learning_stage	stimulus
0.0	1.422	1	incongruent	Block1	incongruent/STIM_000.jpg
4.876	1.076	0	incongruent	Block1	incongruent/STIM_000.jpg
9.645	0.725	1	incongruent	Block1	incongruent/STIM_000.jpg
13.328	0.696	1	incongruent	Block1	incongruent/STIM_000.jpg
16.28	0.65	1	incongruent	Block1	incongruent/STIM_000.jpg
20.464	1.213	1	incongruent	Block1	incongruent/STIM_001.jpg
24.424	0.869	1	incongruent	Block1	incongruent/STIM_001.jpg
29.146	1.027	1	incongruent	Block1	incongruent/STIM_001.jpg
32.786	1.032	1	incongruent	Block1	incongruent/STIM_001.jpg
36.547	0.622	1	incongruent	Block1	incongruent/STIM_001.jpg
40.677	0.78	1	incongruent	Block1	incongruent/STIM_002.jpg
43.997	0.762	1	incongruent	Block1	incongruent/STIM_002.jpg
46.763	0.991	1	incongruent	Block1	incongruent/STIM_002.jpg
51.746	0.816	1	incongruent	Block1	incongruent/STIM_002.jpg
56.159	0.67	1	incongruent	Block1	incongruent/STIM_002.jpg
59.383	1.094	0	incongruent	Block1	incongruent/STIM_003.jpg
62.887	1.47	1	incongruent	Block1	incongruent/STIM_003.jpg
66.871	0.947	1	incongruent	Block1	incongruent/STIM_003.jpg
71.797	1.295	1	incongruent	Block1	incongruent/STIM_003.jpg
76.092	0.877	1	incongruent	Block1	incongruent/STIM_003.jpg
79.109	1.563	1	incongruent	Block1	incongruent/STIM_004.jpg
82.8	1.334	1	incongruent	Block1	incongruent/STIM_004.jpg
86.148	1.376	1	incongruent	Block1	incongruent/STIM_004.jpg
89.547	0.963	1	incongruent	Block1	incongruent/STIM_004.jpg
93.032	1.195	0	incongruent	Block1	incongruent/STIM_004.jpg
96.533	1.176	1	incongruent	Block1	incongruent/STIM_005.jpg
101.648	0.719	1	incongruent	Block1	incongruent/STIM_005.jpg
105.422	0.843	1	incongruent	Block1	incongruent/STIM_005.jpg
110.115	1.121	1	incongruent	Block1	incongruent/STIM_005.jpg
114.472	1.103	1	incongruent	Block1	incongruent/STIM_005.jpg
119.167	0.874	1	incongruent	Block1	incongruent/STIM_006.jpg
122.162	1.243	1	incongruent	Block1	incongruent/STIM_006.jpg
127.255	0.887	1	incongruent	Block1	incongruent/STIM_006.jpg
131.415	1.253	1	incongruent	Block1	incongruent/STIM_006.jpg
135.574	0.938	1	incongruent	Block1	incongruent/STIM_006.jpg
138.739	1.534	0	incongruent	Block1	incongruent/STIM_007.jpg
142.958	1.315	1	incongruent	Block1	incongruent/STIM_007.jpg
146.928	0.7	1	incongruent	Block1	incongruent/STIM_007.jpg
150.47	0.986	1	incongruent	Block1	incongruent/STIM_007.jpg
154.937	1.108	1	incongruent	Block1	incongruent/STIM_007.jpg
159.415	0.875	0	incongruent	Block1	incongruent/STIM_008.jpg
163.096	1.073	1	incongruent	Block1	incongruent/STIM_008.jpg
167.172	1.07	1	incongruent	Block1	incongruent/STIM_008.jpg
171.208	1.271	1	incongruent	Block1	incongruent/STIM_008.jpg
175.84	0.877	1	incongruent	Block1	incongruent/STIM_008.jpg
179.401	1.326	1	incongruent	Block1	incongruent/STIM_009.jpg
183.075	1.035	1	incongruent	Block1	incongruent/STIM_009.jpg
187.509	0.667	1	incongruent	Block1	incongruent/STIM_009.jpg
190.681	1.227	1	incongruent	Block1	incongruent/STIM_009.jpg
195.129	0.627	1	incongruent	Block1	incongruent/STIM_009.jpg
199.273	0.792	0	incongruent	Block1	incongruent/STIM_010.jpg
203.012	0.805	1	incongruent	Block1	incongruent/STIM_010.jpg
206.163	0.915	1	incongruent	Block1	incongruent/STIM_010.jpg
210.884	0.949	1	incongruent	Block1	incongruent/STIM_010.jpg
214.038	1.029	1	incongruent	Block1	incongruent/STIM_010.jpg
218.252	1.023	1	incongruent	Block1	incongruent/STIM_011.jpg
222.104	0.988	1	incongruent	Block1	incongruent/STIM_011.jpg
225.286	1.385	0	incongruent	Block1	incongruent/STIM_011.jpg
230.34	1.22	1	incongruent	Block1	incongruent/STIM_011.jpg
234.492	1.254	1	incongruent	Block1	incongruent/STIM_011.jpg
237.758	1.104	1	incongruent	Block1	incongruent/STIM_012.jpg
242.273	1.094	1	incongruent	Block1	incongruent/STIM_012.jpg
245.507	1.104	1	incongruent	Block1	incongruent/STIM_012.jpg
249.043	1.31	1	incongruent	Block1	incongruent/STIM_012.jpg
253.898	0.778	1	incongruent	Block1	incongruent/STIM_012.jpg
258.357	1.493	0	incongruent	Block1	incongruent/STIM_013.jpg
262.449	1.073	1	incongruent	Block1	incongruent/STIM_013.jpg
265.987	0.711	1	incongruent	Block1	incongruent/STIM_013.jpg
270.143	0.797	1	incongruent	Block1	incongruent/STIM_013.jpg
274.603	0.839	0	incongruent	Block1	incongruent/STIM_013.jpg
279.087	0.935	1	incongruent	Block1	incongruent/STIM_014.jpg
282.066	0.83	1	incongruent	Block1	incongruent/STIM_014.jpg
285.903	0.989	0	incongruent	Block1	incongruent/STIM_014.jpg
290.458	1.163	1	incongruent	Block1	incongruent/STIM_014.jpg
295.097	0.793	1	incongruent	Block1	incongruent/STIM_014.jpg
298.673	1.304	1	incongruent	Block1	incongruent/STIM_015.jpg
302.507	0.846	1	incongruent	Block1	incongruent/STIM_015.jpg
305.497	0.711	1	incongruent	Block1	incongruent/STIM_015.jpg
308.335	0.854	1	incongruent	Block1	incongruent/STIM_015.jpg
311.726	1.003	1	incongruent	Block1	incongruent/STIM_015.jpg
315.227	1.115	1	incongruent	Block1	incongruent/STIM_016.jpg
319.069	1.298	0	incongruent	Block1	incongruent/STIM_016.jpg
324.159	1.03	1	incongruent	Block1	incongruent/STIM_016.jpg
328.158	1.254	1	incongruent	Block1	incongruent/STIM_016.jpg
332.351	0.72	1	incongruent	Block1	incongruent/STIM_016.jpg
335.167	0.848	0	incongruent	Block1	incongruent/STIM_017.jpg
338.132	1.4	1	incongruent	Block1	incongruent/STIM_017.jpg
343.376	1.163	1	incongruent	Block1	incongruent/STIM_017.jpg
346.585	1.024	1	incongruent	Block1	incongruent/STIM_017.jpg
350.351	1.075	0	incongruent	Block1	incongruent/STIM_017.jpg
354.263	1.058	0	incongruent	Block1	incongruent/STIM_018.jpg
358.353	0.878	1	incongruent	Block1	incongruent/STIM_018.jpg
362.497	0.807	1	incongruent	Block1	incongruent/STIM_018.jpg
367.164	0.666	1	incongruent	Block1	incongruent/STIM_018.jpg
370.654	0.937	1	incongruent	Block1	incongruent/STIM_018.jpg
374.652	1.434	1	incongruent	Block1	incongruent/STIM_019.jpg
379.895	1.055	1	incongruent	Block1	incongruent/STIM_019.jpg
383.3	0.683	1	incongruent	Block1	incongruent/STIM_019.jpg
386.757	0.843	1	incongruent	Block1	incongruent/STIM_019.jpg
391.386	1.046	1	incongruent	Block1	incongruent/STIM_019.jpg
394.633	0.899	1	incongruent	Block1	incongruent/STIM_020.jpg
399.421	0.714	1	incongruent	Block1	incongruent/STIM_020.jpg
402.5	1.409	1	incongruent	Block1	incongruent/STIM_020.jpg
407.776	0.788	1	incongruent	Block1	incongruent/STIM_020.jpg
411.289	0.895	1	incongruent	Block1	incongruent/STIM_020.jpg
415.487	1.021	1	incongruent	Block1	incongruent/STIM_021.jpg
419.099	1.393	1	incongruent	Block1	incongruent/STIM_021.jpg
422.991	1.401	1	incongruent	Block1	incongruent/STIM_021.jpg
426.589	0.951	1	incongruent	Block1	incongruent/STIM_021.jpg
430.288	0.862	1	incongruent	Block1	incongruent/STIM_021.jpg
434.536	0.982	1	incongruent	Block1	incongruent/STIM_022.jpg
439.18	0.971	0	incongruent	Block1	incongruent/STIM_022.jpg
444.086	1.341	1	incongruent	Block1	incongruent/STIM_022.jpg
449.115	0.941	1	incongruent	Block1	incongruent/STIM_022.jpg
454.008	0.827	1	incongruent	Block1	incongruent/STIM_022.jpg
457.372	1.048	1	incongruent	Block1	incongruent/STIM_023.jpg
460.758	1.278	1	incongruent	Block1	incongruent/STIM_023.jpg
465.6	1.396	0	incongruent	Block1	incongruent/STIM_023.jpg
469.432	1.074	1	incongruent	Block1	incongruent/STIM_023.jpg
474.329	1.075	1	incongruent	Block1	incongruent/STIM_023.jpg
478.569	1.08	0	incongruent	Block1	incongruent/STIM_024.jpg
483.556	1.469	1	incongruent	Block1	incongruent/STIM_024.jpg
487.535	0.87	1	incongruent	Block1	incongruent/STIM_024.jpg
490.617	1.277	1	incongruent	Block1	incongruent/STIM_024.jpg
493.969	0.806	1	incongruent	Block1	incongruent/STIM_024.jpg
496.953	1.279	1	incongruent	Block1	incongruent/STIM_025.jpg
501.486	0.718	1	incongruent	Block1	incongruent/STIM_025.jpg
504.718	0.74	1	incongruent	Block1	incongruent/STIM_025.jpg
507.716	1.136	0	incongruent	Block1	incongruent/STIM_025.jpg
511.179	1.162	1	incongruent	Block1	incongruent/STIM_025.jpg
514.676	1.391	1	incongruent	Block1	incongruent/STIM_026.jpg
519.407	0.94	1	incongruent	Block1	incongruent/STIM_026.jpg
523.381	0.987	1	incongruent	Block1	incongruent/STIM_026.jpg
527.795	1.114	1	incongruent	Block1	incongruent/STIM_026.jpg
531.671	1.201	1	incongruent	Block1	incongruent/STIM_026.jpg
536.037	1.431	0	incongruent	Block1	incongruent/STIM_027.jpg
541.193	1.336	1	incongruent	Block1	incongruent/STIM_027.jpg
545.898	0.983	1	incongruent	Block1	incongruent/STIM_027.jpg
549.574	1.217	0	incongruent	Block1	incongruent/STIM_027.jpg
553.639	1.008	1	incongruent	Block1	incongruent/STIM_027.jpg
558.186	1.355	0	incongruent	Block1	incongruent/STIM_028.jpg
562.312	1.263	1	incongruent	Block1	incongruent/STIM_028.jpg
567.057	1.308	1	incongruent	Block1	incongruent/STIM_028.jpg
571.69	0.749	1	incongruent	Block1	incongruent/STIM_028.jpg
575.414	1.236	1	incongruent	Block1	incongruent/STIM_028.jpg
580.4	0.81	1	incongruent	Block1	incongruent/STIM_029.jpg
584.445	0.989	1	incongruent	Block1	incongruent/STIM_029.jpg
588.671	0.953	1	incongruent	Block1	incongruent/STIM_029.jpg
592.542	1.176	0	incongruent	Block1	incongruent/STIM_029.jpg
595.912	0.947	1	incongruent	Block1	incongruent/STIM_029.jpg
599.11	0.776	1	congruent	Block1	congruent/STIM_000.jpg
603.426	0.853	1	congruent	Block1	congruent/STIM_000.jpg
607.759	0.886	1	congruent	Block1	congruent/STIM_000.jpg
611.4	0.644	1	congruent	Block1	congruent/STIM_000.jpg
614.537	0.825	1	congruent	Block1	congruent/STIM_000.jpg
619.189	0.904	1	congruent	Block1	congruent/STIM_001.jpg
623.259	0.666	1	congruent	Block1	congruent/STIM_001.jpg
626.367	0.839	1	congruent	Block1	congruent/STIM_001.jpg
630.026	0.632	1	congruent	Block1	congruent/STIM_001.jpg
632.662	0.529	1	congruent	Block1	congruent/STIM_001.jpg
635.351	0.619	1	congruent	Block1	congruent/STIM_002.jpg
638.089	0.819	1	congruent	Block1	congruent/STIM_002.jpg
641.177	0.767	1	congruent	Block1	congruent/STIM_002.jpg
644.91	0.544	1	congruent	Block1	congruent/STIM_002.jpg
648.242	0.646	1	congruent	Block1	congruent/STIM_002.jpg
651.177	0.548	1	congruent	Block1	congruent/STIM_003.jpg
654.527	0.61	1	congruent	Block1	congruent/STIM_003.jpg
658.869	0.774	1	congruent	Block1	congruent/STIM_003.jpg
663.062	0.858	1	congruent	Block1	congruent/STIM_003.jpg
666.681	0.592	1	congruent	Block1	congruent/STIM_003.jpg
669.506	0.912	1	congruent	Block1	congruent/STIM_004.jpg
673.423	0.709	1	congruent	Block1	congruent/STIM_004.jpg
676.725	0.703	1	congruent	Block1	congruent/STIM_004.jpg
681.311	0.643	1	congruent	Block1	congruent/STIM_004.jpg
684.594	0.921	1	congruent	Block1	congruent/STIM_004.jpg
688.695	0.896	1	congruent	Block1	congruent/STIM_005.jpg
692.725	0.814	1	congruent	Block1	congruent/STIM_005.jpg
697.208	0.59	1	congruent	Block1	congruent/STIM_005.jpg
700.84	0.626	1	congruent	Block1	congruent/STIM_005.jpg
703.593	0.624	1	congruent	Block1	congruent/STIM_005.jpg
707.061	0.635	1	congruent	Block1	congruent/STIM_006.jpg
711.582	0.727	1	congruent	Block1	congruent/STIM_006.jpg
715.496	0.816	1	congruent	Block1	congruent/STIM_006.jpg
718.628	0.915	1	congruent	Block1	congruent/STIM_006.jpg
722.885	0.608	1	congruent	Block1	congruent/STIM_006.jpg
725.734	0.659	1	congruent	Block1	congruent/STIM_007.jpg
729.927	0.73	1	congruent	Block1	congruent/STIM_007.jpg
733.851	0.773	1	congruent	Block1	congruent/STIM_007.jpg
737.85	0.864	1	congruent	Block1	congruent/STIM_007.jpg
742.505	0.64	1	congruent	Block1	congruent/STIM_007.jpg
745.883	0.602	1	congruent	Block1	congruent/STIM_008.jpg
750.043	0.733	0	congruent	Block1	congruent/STIM_008.jpg
753.405	0.89	1	congruent	Block1	congruent/STIM_008.jpg
757.066	0.648	1	congruent	Block1	congruent/STIM_008.jpg
761.677	0.857	1	congruent	Block1	congruent/STIM_008.jpg
765.099	0.628	1	congruent	Block1	congruent/STIM_009.jpg
769.534	0.63	1	congruent	Block1	congruent/STIM_009.jpg
773.018	0.603	1	congruent	Block1	congruent/STIM_009.jpg
777.443	0.847	1	congruent	Block1	congruent/STIM_009.jpg
782.183	0.917	1	congruent	Block1	congruent/STIM_009.jpg
786.608	0.528	1	congruent	Block1	congruent/STIM_010.jpg
789.869	0.592	1	congruent	Block1	congruent/STIM_010.jpg
794.415	0.91	1	congruent	Block1	congruent/STIM_010.jpg
797.463	0.834	1	congruent	Block1	congruent/STIM_010.jpg
800.955	0.859	0	congruent	Block1	congruent/STIM_010.jpg
804.8	0.769	1	congruent	Block1	congruent/STIM_011.jpg
809.059	0.878	1	congruent	Block1	congruent/STIM_011.jpg
813.376	0.93	0	congruent	Block1	congruent/STIM_011.jpg
817.651	0.534	1	congruent	Block1	congruent/STIM_011.jpg
821.413	0.662	1	congruent	Block1	congruent/STIM_011.jpg
825.291	0.787	1	congruent	Block1	congruent/STIM_012.jpg
829.132	0.575	0	congruent	Block1	congruent/STIM_012.jpg
832.15	0.75	1	congruent	Block1	congruent/STIM_012.jpg
836.043	0.787	1	congruent	Block1	congruent/STIM_012.jpg
838.942	0.571	1	congruent	Block1	congruent/STIM_012.jpg
842.109	0.652	1	congruent	Block1	congruent/STIM_013.jpg
846.757	0.754	1	congruent	Block1	congruent/STIM_013.jpg
849.804	0.898	1	congruent	Block1	congruent/STIM_013.jpg
854.585	0.92	1	congruent	Block1	congruent/STIM_013.jpg
859.15	0.814	1	congruent	Block1	congruent/STIM_013.jpg
863.702	0.859	1	congruent	Block1	congruent/STIM_014.jpg
867.207	0.735	1	congruent	Block1	congruent/STIM_014.jpg
870.262	0.579	1	congruent	Block1	congruent/STIM_014.jpg
872.888	0.56	1	congruent	Block1	congruent/STIM_014.jpg
876.075	0.652	1	congruent	Block1	congruent/STIM_014.jpg
879.29	0.553	1	congruent	Block1	congruent/STIM_015.jpg
881.977	0.644	1	congruent	Block1	congruent/STIM_015.jpg
885.527	0.765	1	congruent	Block1	congruent/STIM_015.jpg
889.076	0.896	1	congruent	Block1	congruent/STIM_015.jpg
892.188	0.795	1	congruent	Block1	congruent/STIM_015.jpg
895.98	0.81	1	congruent	Block1	congruent/STIM_016.jpg
900.46	0.889	1	congruent	Block1	congruent/STIM_016.jpg
905.331	0.646	1	congruent	Block1	congruent/STIM_016.jpg
909.944	0.804	1	congruent	Block1	congruent/STIM_016.jpg
913.288	0.694	1	congruent	Block1	congruent/STIM_016.jpg
916.622	0.917	1	congruent	Block1	congruent/STIM_017.jpg
919.721	0.678	1	congruent	Block1	congruent/STIM_017.jpg
923.506	0.704	1	congruent	Block1	congruent/STIM_017.jpg
927.04	0.606	1	congruent	Block1	congruent/STIM_017.jpg
931.609	0.821	0	congruent	Block1	congruent/STIM_017.jpg
935.701	0.807	1	congruent	Block1	congruent/STIM_018.jpg
939.624	0.798	1	congruent	Block1	congruent/STIM_018.jpg
944.35	0.565	1	congruent	Block1	congruent/STIM_018.jpg
948.166	0.897	1	congruent	Block1	congruent/STIM_018.jpg
952.505	0.637	1	congruent	Block1	congruent/STIM_018.jpg
955.427	0.826	1	congruent	Block1	congruent/STIM_019.jpg
958.617	0.616	1	congruent	Block1	congruent/STIM_019.jpg
962.723	0.669	1	congruent	Block1	congruent/STIM_019.jpg
965.546	0.845	1	congruent	Block1	congruent/STIM_019.jpg
968.526	0.678	0	congruent	Block1	congruent/STIM_019.jpg
971.94	0.624	1	congruent	Block1	congruent/STIM_020.jpg
975.145	0.62	1	congruent	Block1	congruent/STIM_020.jpg
979.237	0.896	1	congruent	Block1	congruent/STIM_020.jpg
982.741	0.907	1	congruent	Block1	congruent/STIM_020.jpg
987.63	0.725	1	congruent	Block1	congruent/STIM_020.jpg
990.914	0.75	1	congruent	Block1	congruent/STIM_021.jpg
993.826	0.912	1	congruent	Block1	congruent/STIM_021.jpg
996.939	0.734	1	congruent	Block1	congruent/STIM_021.jpg
1000.142	0.66	1	congruent	Block1	congruent/STIM_021.jpg
1004.613	0.533	1	congruent	Block1	congruent/STIM_021.jpg
1009.011	0.671	1	congruent	Block1	congruent/STIM_022.jpg
1012.637	0.641	1	congruent	Block1	congruent/STIM_022.jpg
1015.92	0.921	1	congruent	Block1	congruent/STIM_022.jpg
1020.62	0.532	1	congruent	Block1	congruent/STIM_022.jpg
1024.734	0.886	1	congruent	Block1	congruent/STIM_022.jpg
1029.093	0.767	1	congruent	Block1	congruent/STIM_023.jpg
1032.805	0.753	1	congruent	Block1	congruent/STIM_023.jpg
1036.706	0.622	1	congruent	Block1	congruent/STIM_023.jpg
1040.149	0.533	1	congruent	Block1	congruent/STIM_023.jpg
1043.092	0.812	1	congruent	Block1	congruent/STIM_023.jpg
1047.023	0.611	1	congruent	Block1	congruent/STIM_024.jpg
1050.336	0.707	1	congruent	Block1	congruent/STIM_024.jpg
1054.818	0.767	0	congruent	Block1	congruent/STIM_024.jpg
1058.211	0.736	1	congruent	Block1	congruent/STIM_024.jpg
1061.608	0.912	1	congruent	Block1	congruent/STIM_024.jpg
1065.441	0.7	1	congruent	Block1	congruent/STIM_025.jpg
1069.643	0.642	1	congruent	Block1	congruent/STIM_025.jpg
1074.084	0.943	1	congruent	Block1	congruent/STIM_025.jpg
1078.882	0.817	1	congruent	Block1	congruent/STIM_025.jpg
1081.795	0.869	1	congruent	Block1	congruent/STIM_025.jpg
1086.363	0.559	1	congruent	Block1	congruent/STIM_026.jpg
1090.011	0.826	1	congruent	Block1	congruent/STIM_026.jpg
1094.642	0.85	1	congruent	Block1	congruent/STIM_026.jpg
1097.792	0.925	1	congruent	Block1	congruent/STIM_026.jpg
1102.297	0.62	0	congruent	Block1	congruent/STIM_026.jpg
1105.223	0.566	1	congruent	Block1	congruent/STIM_027.jpg
1108.154	0.775	1	congruent	Block1	congruent/STIM_027.jpg
1112.318	0.917	1	congruent	Block1	congruent/STIM_027.jpg
1116.879	0.74	1	congruent	Block1	congruent/STIM_027.jpg
1121.059	0.876	1	congruent	Block1	congruent/STIM_027.jpg
1124.563	0.787	1	congruent	Block1	congruent/STIM_028.jpg
1129.194	0.655	0	congruent	Block1	congruent/STIM_028.jpg
1133.044	0.718	1	congruent	Block1	congruent/STIM_028.jpg
1136.779	0.739	1	congruent	Block1	congruent/STIM_028.jpg
1140.49	0.724	1	congruent	Block1	congruent/STIM_028.jpg
1144.074	0.545	1	congruent	Block1	congruent/STIM_029.jpg
1146.823	0.778	1	congruent	Block1	congruent/STIM_029.jpg
1150.887	0.919	1	congruent	Block1	congruent/STIM_029.jpg
1154.812	0.556	1	congruent	Block1	congruent/STIM_029.jpg
1158.383	0.651	1	congruent	Block1	congruent/STIM_029.jpg
1162.281	0.752	1	incongruent	Block2	incongruent/STIM_000.jpg
1166.23	1.211	1	incongruent	Block2	incongruent/STIM_000.jpg
1169.987	0.873	1	incongruent	Block2	incongruent/STIM_000.jpg
1173.903	0.612	1	incongruent	Block2	incongruent/STIM_000.jpg
1178.157	0.777	1	incongruent	Block2	incongruent/STIM_000.jpg
1181.587	1.312	1	incongruent	Block2	incongruent/STIM_001.jpg
1185.376	1.166	1	incongruent	Block2	incongruent/STIM_001.jpg
1189.265	1.119	1	incongruent	Block2	incongruent/STIM_001.jpg
1193.947	0.949	1	incongruent	Block2	incongruent/STIM_001.jpg
1197.695	0.682	1	incongruent	Block2	incongruent/STIM_001.jpg
1200.454	0.91	1	incongruent	Block2	incongruent/STIM_002.jpg
1204.146	0.94	1	incongruent	Block2	incongruent/STIM_002.jpg
1208.146	0.942	1	incongruent	Block2	incongruent/STIM_002.jpg
1211.701	0.668	1	incongruent	Block2	incongruent/STIM_002.jpg
1215.982	1.027	1	incongruent	Block2	incongruent/STIM_002.jpg
1220.599	1.065	1	incongruent	Block2	incongruent/STIM_003.jpg
1225.535	1.069	1	incongruent	Block2	incongruent/STIM_003.jpg
1229.885	0.595	1	incongruent	Block2	incongruent/STIM_003.jpg
1233.704	0.762	1	incongruent	Block2	incongruent/STIM_003.jpg
1237.501	0.518	1	incongruent	Block2	incongruent/STIM_003.jpg
1241.224	0.844	1	incongruent	Block2	incongruent/STIM_004.jpg
1245.733	1.201	1	incongruent	Block2	incongruent/STIM_004.jpg
1249.19	0.944	1	incongruent	Block2	incongruent/STIM_004.jpg
1252.413	0.52	1	incongruent	Block2	incongruent/STIM_004.jpg
1254.978	0.717	1	incongruent	Block2	incongruent/STIM_004.jpg
1258.6	0.845	1	incongruent	Block2	incongruent/STIM_005.jpg
1261.995	0.903	1	incongruent	Block2	incongruent/STIM_005.jpg
1265.018	1.02	1	incongruent	Block2	incongruent/STIM_005.jpg
1269.139	0.692	1	incongruent	Block2	incongruent/STIM_005.jpg
1272.149	0.996	0	incongruent	Block2	incongruent/STIM_005.jpg
1275.192	0.861	1	incongruent	Block2	incongruent/STIM_006.jpg
1279.105	0.916	1	incongruent	Block2	incongruent/STIM_006.jpg
1282.739	0.578	1	incongruent	Block2	incongruent/STIM_006.jpg
1285.821	0.87	1	incongruent	Block2	incongruent/STIM_006.jpg
1290.181	0.975	1	incongruent	Block2	incongruent/STIM_006.jpg
1295.086	0.994	1	incongruent	Block2	incongruent/STIM_007.jpg
1298.741	0.791	1	incongruent	Block2	incongruent/STIM_007.jpg
1302.636	0.973	1	incongruent	Block2	incongruent/STIM_007.jpg
1306.785	1.04	1	incongruent	Block2	incongruent/STIM_007.jpg
1311.799	0.554	1	incongruent	Block2	incongruent/STIM_007.jpg
1315.872	1.142	1	incongruent	Block2	incongruent/STIM_008.jpg
1319.053	1.115	1	incongruent	Block2	incongruent/STIM_008.jpg
1323.482	0.562	1	incongruent	Block2	incongruent/STIM_008.jpg
1326.9	0.57	1	incongruent	Block2	incongruent/STIM_008.jpg
1329.952	0.813	1	incongruent	Block2	incongruent/STIM_008.jpg
1332.967	0.902	1	incongruent	Block2	incongruent/STIM_009.jpg
1336.512	0.963	1	incongruent	Block2	incongruent/STIM_009.jpg
1340.613	0.747	1	incongruent	Block2	incongruent/STIM_009.jpg
1344.831	0.551	0	incongruent	Block2	incongruent/STIM_009.jpg
1349.256	1.049	1	incongruent	Block2	incongruent/STIM_009.jpg
1353.157	0.771	1	incongruent	Block2	incongruent/STIM_010.jpg
1356.382	1.061	1	incongruent	Block2	incongruent/STIM_010.jpg
1361.178	0.727	1	incongruent	Block2	incongruent/STIM_010.jpg
1364.35	0.715	1	incongruent	Block2	incongruent/STIM_010.jpg
1367.087	0.82	1	incongruent	Block2	incongruent/STIM_010.jpg
1371.724	1.054	1	incongruent	Block2	incongruent/STIM_011.jpg
1375.324	0.592	1	incongruent	Block2	incongruent/STIM_011.jpg
1378.026	0.726	1	incongruent	Block2	incongruent/STIM_011.jpg
1382.309	1.1	1	incongruent	Block2	incongruent/STIM_011.jpg
1386.51	0.601	1	incongruent	Block2	incongruent/STIM_011.jpg
1390.744	1.069	1	incongruent	Block2	incongruent/STIM_012.jpg
1394.854	0.712	1	incongruent	Block2	incongruent/STIM_012.jpg
1398.872	1.072	1	incongruent	Block2	incongruent/STIM_012.jpg
1403.802	0.52	1	incongruent	Block2	incongruent/STIM_012.jpg
1406.716	0.578	1	incongruent	Block2	incongruent/STIM_012.jpg
1409.443	1.272	1	incongruent	Block2	incongruent/STIM_013.jpg
1414.254	0.608	1	incongruent	Block2	incongruent/STIM_013.jpg
1417.262	0.796	1	incongruent	Block2	incongruent/STIM_013.jpg
1421.854	0.562	1	incongruent	Block2	incongruent/STIM_013.jpg
1426.072	0.762	1	incongruent	Block2	incongruent/STIM_013.jpg
1429.19	0.673	1	incongruent	Block2	incongruent/STIM_014.jpg
1433.05	0.859	1	incongruent	Block2	incongruent/STIM_014.jpg
1436.149	0.86	1	incongruent	Block2	incongruent/STIM_014.jpg
1440.171	0.597	1	incongruent	Block2	incongruent/STIM_014.jpg
1443.306	0.53	1	incongruent	Block2	incongruent/STIM_014.jpg
1446.92	1.045	1	incongruent	Block2	incongruent/STIM_015.jpg
1451.042	0.649	1	incongruent	Block2	incongruent/STIM_015.jpg
1454.458	0.944	1	incongruent	Block2	incongruent/STIM_015.jpg
1459.065	0.719	1	incongruent	Block2	incongruent/STIM_015.jpg
1462.08	0.908	1	incongruent	Block2	incongruent/STIM_015.jpg
1465.47	1.202	1	incongruent	Block2	incongruent/STIM_016.jpg
1469.558	0.889	1	incongruent	Block2	incongruent/STIM_016.jpg
1473.36	0.622	1	incongruent	Block2	incongruent/STIM_016.jpg
1476.145	0.769	1	incongruent	Block2	incongruent/STIM_016.jpg
1479.528	1.069	1	incongruent	Block2	incongruent/STIM_016.jpg
1483.464	1.125	1	incongruent	Block2	incongruent/STIM_017.jpg
1488.464	0.812	1	incongruent	Block2	incongruent/STIM_017.jpg
1493.0	0.711	1	incongruent	Block2	incongruent/STIM_017.jpg
1496.131	1.009	1	incongruent	Block2	incongruent/STIM_017.jpg
1500.018	0.542	1	incongruent	Block2	incongruent/STIM_017.jpg
1504.323	0.81	1	incongruent	Block2	incongruent/STIM_018.jpg
1507.158	1.078	1	incongruent	Block2	incongruent/STIM_018.jpg
1511.143	0.843	1	incongruent	Block2	incongruent/STIM_018.jpg
1515.356	0.674	1	incongruent	Block2	incongruent/STIM_018.jpg
1518.095	1.084	1	incongruent	Block2	incongruent/STIM_018.jpg
1521.594	0.717	1	incongruent	Block2	incongruent/STIM_019.jpg
1525.173	0.71	1	incongruent	Block2	incongruent/STIM_019.jpg
1529.852	0.836	1	incongruent	Block2	incongruent/STIM_019.jpg
1534.284	1.036	1	incongruent	Block2	incongruent/STIM_019.jpg
1537.338	0.834	1	incongruent	Block2	incongruent/STIM_019.jpg
1541.503	1.124	1	incongruent	Block2	incongruent/STIM_020.jpg
1545.66	1.172	1	incongruent	Block2	incongruent/STIM_020.jpg
1549.944	1.135	1	incongruent	Block2	incongruent/STIM_020.jpg
1553.534	0.949	1	incongruent	Block2	incongruent/STIM_020.jpg
1558.45	0.895	1	incongruent	Block2	incongruent/STIM_020.jpg
1563.055	0.965	1	incongruent	Block2	incongruent/STIM_021.jpg
1566.55	1.021	0	incongruent	Block2	incongruent/STIM_021.jpg
1569.754	1.022	1	incongruent	Block2	incongruent/STIM_021.jpg
1574.434	0.773	1	incongruent	Block2	incongruent/STIM_021.jpg
1578.994	0.755	1	incongruent	Block2	incongruent/STIM_021.jpg
1583.366	1.215	1	incongruent	Block2	incongruent/STIM_022.jpg
1588.226	1.16	1	incongruent	Block2	incongruent/STIM_022.jpg
1592.58	0.778	1	incongruent	Block2	incongruent/STIM_022.jpg
1596.1	0.986	1	incongruent	Block2	incongruent/STIM_022.jpg
1599.805	0.902	1	incongruent	Block2	incongruent/STIM_022.jpg
1603.702	1.101	1	incongruent	Block2	incongruent/STIM_023.jpg
1608.702	0.626	1	incongruent	Block2	incongruent/STIM_023.jpg
1612.891	0.65	1	incongruent	Block2	incongruent/STIM_023.jpg
1616.401	0.649	1	incongruent	Block2	incongruent/STIM_023.jpg
1619.577	0.916	1	incongruent	Block2	incongruent/STIM_023.jpg
1623.232	1.321	1	incongruent	Block2	incongruent/STIM_024.jpg
1626.846	0.953	1	incongruent	Block2	incongruent/STIM_024.jpg
1630.575	1.101	1	incongruent	Block2	incongruent/STIM_024.jpg
1635.044	0.675	1	incongruent	Block2	incongruent/STIM_024.jpg
1639.701	0.743	0	incongruent	Block2	incongruent/STIM_024.jpg
1643.384	0.699	1	incongruent	Block2	incongruent/STIM_025.jpg
1647.562	1.154	1	incongruent	Block2	incongruent/STIM_025.jpg
1650.966	1.131	0	incongruent	Block2	incongruent/STIM_025.jpg
1654.322	0.662	1	incongruent	Block2	incongruent/STIM_025.jpg
1658.744	0.557	1	incongruent	Block2	incongruent/STIM_025.jpg
1662.258	0.867	1	incongruent	Block2	incongruent/STIM_026.jpg
1666.511	0.782	1	incongruent	Block2	incongruent/STIM_026.jpg
1669.54	0.581	1	incongruent	Block2	incongruent/STIM_026.jpg
1672.967	1.019	1	incongruent	Block2	incongruent/STIM_026.jpg
1676.353	0.571	1	incongruent	Block2	incongruent/STIM_026.jpg
1680.139	1.166	1	incongruent	Block2	incongruent/STIM_027.jpg
1684.259	1.021	1	incongruent	Block2	incongruent/STIM_027.jpg
1687.552	0.662	1	incongruent	Block2	incongruent/STIM_027.jpg
1690.24	1.071	1	incongruent	Block2	incongruent/STIM_027.jpg
1695.218	0.832	1	incongruent	Block2	incongruent/STIM_027.jpg
1698.137	0.668	1	incongruent	Block2	incongruent/STIM_028.jpg
1701.525	1.255	1	incongruent	Block2	incongruent/STIM_028.jpg
1706.304	0.699	1	incongruent	Block2	incongruent/STIM_028.jpg
1709.305	0.683	1	incongruent	Block2	incongruent/STIM_028.jpg
1713.794	0.692	1	incongruent	Block2	incongruent/STIM_028.jpg
1717.606	1.067	1	incongruent	Block2	incongruent/STIM_029.jpg
1720.99	0.913	1	incongruent	Block2	incongruent/STIM_029.jpg
1724.183	0.734	1	incongruent	Block2	incongruent/STIM_029.jpg
1728.853	0.537	1	incongruent	Block2	incongruent/STIM_029.jpg
1732.071	0.947	1	incongruent	Block2	incongruent/STIM_029.jpg
1736.686	0.589	1	congruent	Block2	congruent/STIM_000.jpg
1739.398	0.769	1	congruent	Block2	congruent/STIM_000.jpg
1743.967	0.756	1	congruent	Block2	congruent/STIM_000.jpg
1747.045	0.912	1	congruent	Block2	congruent/STIM_000.jpg
1750.144	0.896	1	congruent	Block2	congruent/STIM_000.jpg
1754.163	0.713	1	congruent	Block2	congruent/STIM_001.jpg
1757.834	0.648	1	congruent	Block2	congruent/STIM_001.jpg
1760.787	0.87	0	congruent	Block2	congruent/STIM_001.jpg
1764.8	0.595	1	congruent	Block2	congruent/STIM_001.jpg
1768.829	0.895	1	congruent	Block2	congruent/STIM_001.jpg
1773.659	0.807	1	congruent	Block2	congruent/STIM_002.jpg
1778.241	0.904	1	congruent	Block2	congruent/STIM_002.jpg
1782.751	0.665	1	congruent	Block2	congruent/STIM_002.jpg
1787.133	0.77	0	congruent	Block2	congruent/STIM_002.jpg
1790.79	0.648	1	congruent	Block2	congruent/STIM_002.jpg
1794.71	0.835	1	congruent	Block2	congruent/STIM_003.jpg
1799.183	0.94	1	congruent	Block2	congruent/STIM_003.jpg
1803.652	0.714	1	congruent	Block2	congruent/STIM_003.jpg
1806.397	0.816	1	congruent	Block2	congruent/STIM_003.jpg
1811.109	0.597	1	congruent	Block2	congruent/STIM_003.jpg
1813.732	0.701	1	congruent	Block2	congruent/STIM_004.jpg
1817.427	0.659	1	congruent	Block2	congruent/STIM_004.jpg
1820.556	0.76	1	congruent	Block2	congruent/STIM_004.jpg
1824.013	0.725	1	congruent	Block2	congruent/STIM_004.jpg
1827.571	0.581	1	congruent	Block2	congruent/STIM_004.jpg
1831.042	0.684	1	congruent	Block2	congruent/STIM_005.jpg
1833.961	0.694	1	congruent	Block2	congruent/STIM_005.jpg
1837.665	0.545	0	congruent	Block2	congruent/STIM_005.jpg
1841.319	0.819	0	congruent	Block2	congruent/STIM_005.jpg
1845.683	0.821	0	congruent	Block2	congruent/STIM_005.jpg
1849.989	0.634	1	congruent	Block2	congruent/STIM_006.jpg
1853.068	0.844	1	congruent	Block2	congruent/STIM_006.jpg
1856.258	0.804	1	congruent	Block2	congruent/STIM_006.jpg
1860.705	0.625	1	congruent	Block2	congruent/STIM_006.jpg
1864.653	0.758	1	congruent	Block2	congruent/STIM_006.jpg
1868.529	0.567	1	congruent	Block2	congruent/STIM_007.jpg
1872.095	0.629	1	congruent	Block2	congruent/STIM_007.jpg
1875.668	0.755	1	congruent	Block2	congruent/STIM_007.jpg
1880.207	0.584	1	congruent	Block2	congruent/STIM_007.jpg
1884.444	0.557	1	congruent	Block2	congruent/STIM_007.jpg
1887.883	0.808	0	congruent	Block2	congruent/STIM_008.jpg
1891.087	0.575	1	congruent	Block2	congruent/STIM_008.jpg
1894.239	0.887	1	congruent	Block2	congruent/STIM_008.jpg
1898.383	0.823	1	congruent	Block2	congruent/STIM_008.jpg
1902.287	0.572	1	congruent	Block2	congruent/STIM_008.jpg
1904.933	0.683	0	congruent	Block2	congruent/STIM_009.jpg
1909.316	0.586	1	congruent	Block2	congruent/STIM_009.jpg
1912.438	0.783	1	congruent	Block2	congruent/STIM_009.jpg
1916.191	0.642	1	congruent	Block2	congruent/STIM_009.jpg
1920.585	0.79	1	congruent	Block2	congruent/STIM_009.jpg
1923.709	0.715	1	congruent	Block2	congruent/STIM_010.jpg
1927.263	0.744	1	congruent	Block2	congruent/STIM_010.jpg
1931.124	0.595	1	congruent	Block2	congruent/STIM_010.jpg
1934.666	0.755	1	congruent	Block2	congruent/STIM_010.jpg
1938.484	0.874	1	congruent	Block2	congruent/STIM_010.jpg
1941.692	0.846	1	congruent	Block2	congruent/STIM_011.jpg
1944.916	0.578	1	congruent	Block2	congruent/STIM_011.jpg
1949.167	0.832	1	congruent	Block2	congruent/STIM_011.jpg
1953.805	0.775	1	congruent	Block2	congruent/STIM_011.jpg
1958.469	0.679	1	congruent	Block2	congruent/STIM_011.jpg
1961.833	0.802	1	congruent	Block2	congruent/STIM_012.jpg
1966.254	0.852	1	congruent	Block2	congruent/STIM_012.jpg
1969.349	0.902	1	congruent	Block2	congruent/STIM_012.jpg
1974.225	0.746	1	congruent	Block2	congruent/STIM_012.jpg
1977.14	0.793	1	congruent	Block2	congruent/STIM_012.jpg
1981.546	0.636	1	congruent	Block2	congruent/STIM_013.jpg
1985.126	0.62	1	congruent	Block2	congruent/STIM_013.jpg
1988.22	0.731	1	congruent	Block2	congruent/STIM_013.jpg
1991.402	0.67	1	congruent	Block2	congruent/STIM_013.jpg
1995.26	0.773	1	congruent	Block2	congruent/STIM_013.jpg
1998.417	0.54	1	congruent	Block2	congruent/STIM_014.jpg
2002.86	0.544	1	congruent	Block2	congruent/STIM_014.jpg
2006.191	0.619	1	congruent	Block2	congruent/STIM_014.jpg
2009.317	0.944	1	congruent	Block2	congruent/STIM_014.jpg
2014.098	0.94	1	congruent	Block2	congruent/STIM_014.jpg
2017.129	0.663	1	congruent	Block2	congruent/STIM_015.jpg
2021.252	0.538	1	congruent	Block2	congruent/STIM_015.jpg
2025.271	0.645	1	congruent	Block2	congruent/STIM_015.jpg
2029.742	0.793	1	congruent	Block2	congruent/STIM_015.jpg
2033.988	0.726	1	congruent	Block2	congruent/STIM_015.jpg
2037.777	0.606	1	congruent	Block2	congruent/STIM_016.jpg
2040.997	0.712	1	congruent	Block2	congruent/STIM_016.jpg
2044.712	0.757	1	congruent	Block2	congruent/STIM_016.jpg
2048.197	0.943	1	congruent	Block2	congruent/STIM_016.jpg
2052.104	0.757	1	congruent	Block2	congruent/STIM_016.jpg
2056.227	0.599	1	congruent	Block2	congruent/STIM_017.jpg
2060.755	0.529	1	congruent	Block2	congruent/STIM_017.jpg
2065.038	0.843	1	congruent	Block2	congruent/STIM_017.jpg
2069.341	0.943	0	congruent	Block2	congruent/STIM_017.jpg
2072.567	0.885	1	congruent	Block2	congruent/STIM_017.jpg
2075.953	0.622	1	congruent	Block2	congruent/STIM_018.jpg
2079.252	0.92	1	congruent	Block2	congruent/STIM_018.jpg
2084.133	0.53	1	congruent	Block2	congruent/STIM_018.jpg
2087.755	0.527	1	congruent	Block2	congruent/STIM_018.jpg
2091.923	0.897	1	congruent	Block2	congruent/STIM_018.jpg
2096.45	0.581	1	congruent	Block2	congruent/STIM_019.jpg
2100.36	0.581	1	congruent	Block2	congruent/STIM_019.jpg
2103.146	0.777	1	congruent	Block2	congruent/STIM_019.jpg
2106.52	0.629	1	congruent	Block2	congruent/STIM_019.jpg
2110.179	0.591	1	congruent	Block2	congruent/STIM_019.jpg
2112.971	0.734	1	congruent	Block2	congruent/STIM_020.jpg
2117.259	0.638	1	congruent	Block2	congruent/STIM_020.jpg
2121.217	0.662	1	congruent	Block2	congruent/STIM_020.jpg
2124.214	0.632	1	congruent	Block2	congruent/STIM_020.jpg
2127.677	0.756	1	congruent	Block2	congruent/STIM_020.jpg
2132.386	0.691	1	congruent	Block2	congruent/STIM_021.jpg
2136.241	0.676	1	congruent	Block2	congruent/STIM_021.jpg
2139.92	0.709	1	congruent	Block2	congruent/STIM_021.jpg
2144.275	0.805	1	congruent	Block2	congruent/STIM_021.jpg
2147.789	0.713	1	congruent	Block2	congruent/STIM_021.jpg
2150.834	0.685	1	congruent	Block2	congruent/STIM_022.jpg
2153.563	0.81	1	congruent	Block2	congruent/STIM_022.jpg
2157.103	0.732	1	congruent	Block2	congruent/STIM_022.jpg
2160.248	0.864	1	congruent	Block2	congruent/STIM_022.jpg
2164.265	0.752	1	congruent	Block2	congruent/STIM_022.jpg
2167.195	0.931	1	congruent	Block2	congruent/STIM_023.jpg
2170.565	0.578	1	congruent	Block2	congruent/STIM_023.jpg
2173.675	0.769	1	congruent	Block2	congruent/STIM_023.jpg
2177.397	0.896	1	congruent	Block2	congruent/STIM_023.jpg
2180.963	0.578	1	congruent	Block2	congruent/STIM_023.jpg
2185.375	0.908	1	congruent	Block2	congruent/STIM_024.jpg
2189.153	0.635	1	congruent	Block2	congruent/STIM_024.jpg
2192.351	0.574	1	congruent	Block2	congruent/STIM_024.jpg
2195.726	0.532	1	congruent	Block2	congruent/STIM_024.jpg
2200.199	0.819	1	congruent	Block2	congruent/STIM_024.jpg
2203.629	0.558	1	congruent	Block2	congruent/STIM_025.jpg
2206.727	0.708	1	congruent	Block2	congruent/STIM_025.jpg
2210.124	0.737	1	congruent	Block2	congruent/STIM_025.jpg
2213.54	0.659	1	congruent	Block2	congruent/STIM_025.jpg
2216.441	0.595	1	congruent	Block2	congruent/STIM_025.jpg
2220.896	0.82	1	congruent	Block2	congruent/STIM_026.jpg
2225.603	0.564	1	congruent	Block2	congruent/STIM_026.jpg
2228.841	0.807	1	congruent	Block2	congruent/STIM_026.jpg
2233.602	0.924	1	congruent	Block2	congruent/STIM_026.jpg
2237.906	0.912	1	congruent	Block2	congruent/STIM_026.jpg
2241.611	0.788	1	congruent	Block2	congruent/STIM_027.jpg
2245.767	0.545	1	congruent	Block2	congruent/STIM_027.jpg
2250.254	0.78	1	congruent	Block2	congruent/STIM_027.jpg
2254.379	0.646	1	congruent	Block2	congruent/STIM_027.jpg
2258.594	0.686	1	congruent	Block2	congruent/STIM_027.jpg
2261.905	0.879	1	congruent	Block2	congruent/STIM_028.jpg
2266.032	0.741	1	congruent	Block2	congruent/STIM_028.jpg
2270.06	0.814	1	congruent	Block2	congruent/STIM_028.jpg
2273.165	0.667	1	congruent	Block2	congruent/STIM_028.jpg
2276.671	0.809	0	congruent	Block2	congruent/STIM_028.jpg
2281.31	0.909	1	congruent	Block2	congruent/STIM_029.jpg
2284.422	0.742	1	congruent	Block2	congruent/STIM_029.jpg
2287.605	0.845	0	congruent	Block2	congruent/STIM_029.jpg
2291.739	0.564	1	congruent	Block2	congruent/STIM_029.jpg
2294.627	0.917	1	congruent	Block2	congruent/STIM_029.jpg
2299.511	0.809	1	incongruent	Block3	incongruent/STIM_000.jpg
2302.386	1.039	1	incongruent	Block3	incongruent/STIM_000.jpg
2306.473	0.975	1	incongruent	Block3	incongruent/STIM_000.jpg
2311.046	0.939	1	incongruent	Block3	incongruent/STIM_000.jpg
2315.709	0.654	1	incongruent	Block3	incongruent/STIM_000.jpg
2318.871	0.65	1	incongruent	Block3	incongruent/STIM_001.jpg
2322.273	0.699	1	incongruent	Block3	incongruent/STIM_001.jpg
2325.942	1.019	1	incongruent	Block3	incongruent/STIM_001.jpg
2329.537	0.881	1	incongruent	Block3	incongruent/STIM_001.jpg
2333.558	0.814	1	incongruent	Block3	incongruent/STIM_001.jpg
2338.105	0.744	1	incongruent	Block3	incongruent/STIM_002.jpg
2341.163	0.944	1	incongruent	Block3	incongruent/STIM_002.jpg
2344.924	0.822	1	incongruent	Block3	incongruent/STIM_002.jpg
2348.399	0.626	1	incongruent	Block3	incongruent/STIM_002.jpg
2352.148	0.97	1	incongruent	Block3	incongruent/STIM_002.jpg
2356.69	0.966	1	incongruent	Block3	incongruent/STIM_003.jpg
2359.791	0.916	1	incongruent	Block3	incongruent/STIM_003.jpg
2362.845	0.906	1	incongruent	Block3	incongruent/STIM_003.jpg
2366.583	1.06	1	incongruent	Block3	incongruent/STIM_003.jpg
2370.436	0.62	1	incongruent	Block3	incongruent/STIM_003.jpg
2373.52	0.694	1	incongruent	Block3	incongruent/STIM_004.jpg
2377.031	0.777	1	incongruent	Block3	incongruent/STIM_004.jpg
2380.979	1.071	1	incongruent	Block3	incongruent/STIM_004.jpg
2384.629	1.006	1	incongruent	Block3	incongruent/STIM_004.jpg
2388.9	0.606	1	incongruent	Block3	incongruent/STIM_004.jpg
2391.796	0.614	1	incongruent	Block3	incongruent/STIM_005.jpg
2395.791	0.99	1	incongruent	Block3	incongruent/STIM_005.jpg
2400.434	0.858	1	incongruent	Block3	incongruent/STIM_005.jpg
2404.991	0.955	1	incongruent	Block3	incongruent/STIM_005.jpg
2409.329	0.931	0	incongruent	Block3	incongruent/STIM_005.jpg
2413.847	0.783	1	incongruent	Block3	incongruent/STIM_006.jpg
2416.711	0.828	1	incongruent	Block3	incongruent/STIM_006.jpg
2421.481	0.777	1	incongruent	Block3	incongruent/STIM_006.jpg
2425.206	0.665	1	incongruent	Block3	incongruent/STIM_006.jpg
2429.55	1.1	1	incongruent	Block3	incongruent/STIM_006.jpg
2432.921	0.813	1	incongruent	Block3	incongruent/STIM_007.jpg
2436.036	1.02	1	incongruent	Block3	incongruent/STIM_007.jpg
2440.638	0.687	1	incongruent	Block3	incongruent/STIM_007.jpg
2443.38	1.045	1	incongruent	Block3	incongruent/STIM_007.jpg
2448.237	0.762	1	incongruent	Block3	incongruent/STIM_007.jpg
2452.282	0.621	1	incongruent	Block3	incongruent/STIM_008.jpg
2454.914	0.592	1	incongruent	Block3	incongruent/STIM_008.jpg
2459.12	0.724	1	incongruent	Block3	incongruent/STIM_008.jpg
2463.671	0.794	1	incongruent	Block3	incongruent/STIM_008.jpg
2467.189	1.018	1	incongruent	Block3	incongruent/STIM_008.jpg
2471.966	0.624	1	incongruent	Block3	incongruent/STIM_009.jpg
2474.594	0.961	1	incongruent	Block3	incongruent/STIM_009.jpg
2478.782	1.076	1	incongruent	Block3	incongruent/STIM_009.jpg
2483.736	0.541	1	incongruent	Block3	incongruent/STIM_009.jpg
2487.41	1.015	1	incongruent	Block3	incongruent/STIM_009.jpg
2492.389	0.622	1	incongruent	Block3	incongruent/STIM_010.jpg
2496.816	0.984	1	incongruent	Block3	incongruent/STIM_010.jpg
2500.222	0.858	1	incongruent	Block3	incongruent/STIM_010.jpg
2503.364	0.728	1	incongruent	Block3	incongruent/STIM_010.jpg
2507.008	0.579	1	incongruent	Block3	incongruent/STIM_010.jpg
2510.06	0.564	1	incongruent	Block3	incongruent/STIM_011.jpg
2513.606	0.628	1	incongruent	Block3	incongruent/STIM_011.jpg
2517.668	0.804	1	incongruent	Block3	incongruent/STIM_011.jpg
2521.808	1.028	1	incongruent	Block3	incongruent/STIM_011.jpg
2526.264	0.906	1	incongruent	Block3	incongruent/STIM_011.jpg
2530.799	0.6	0	incongruent	Block3	incongruent/STIM_012.jpg
2533.813	0.564	1	incongruent	Block3	incongruent/STIM_012.jpg
2536.838	0.981	1	incongruent	Block3	incongruent/STIM_012.jpg
2540.179	0.616	1	incongruent	Block3	incongruent/STIM_012.jpg
2543.155	0.744	0	incongruent	Block3	incongruent/STIM_012.jpg
2546.162	0.674	1	incongruent	Block3	incongruent/STIM_013.jpg
2549.766	0.803	1	incongruent	Block3	incongruent/STIM_013.jpg
2552.67	1.055	1	incongruent	Block3	incongruent/STIM_013.jpg
2556.15	0.864	1	incongruent	Block3	incongruent/STIM_013.jpg
2559.873	0.855	1	incongruent	Block3	incongruent/STIM_013.jpg
2563.985	0.829	1	incongruent	Block3	incongruent/STIM_014.jpg
2567.736	0.848	1	incongruent	Block3	incongruent/STIM_014.jpg
2571.302	0.937	1	incongruent	Block3	incongruent/STIM_014.jpg
2574.447	0.906	1	incongruent	Block3	incongruent/STIM_014.jpg
2577.977	0.814	1	incongruent	Block3	incongruent/STIM_014.jpg
2582.254	0.905	1	incongruent	Block3	incongruent/STIM_015.jpg
2586.649	0.764	1	incongruent	Block3	incongruent/STIM_015.jpg
2591.141	0.979	1	incongruent	Block3	incongruent/STIM_015.jpg
2594.185	0.927	1	incongruent	Block3	incongruent/STIM_015.jpg
2599.09	0.76	0	incongruent	Block3	incongruent/STIM_015.jpg
2602.809	0.708	1	incongruent	Block3	incongruent/STIM_016.jpg
2606.41	0.616	1	incongruent	Block3	incongruent/STIM_016.jpg
2610.124	0.527	1	incongruent	Block3	incongruent/STIM_016.jpg
2614.087	0.95	1	incongruent	Block3	incongruent/STIM_016.jpg
2617.301	1.016	1	incongruent	Block3	incongruent/STIM_016.jpg
2621.145	0.919	1	incongruent	Block3	incongruent/STIM_017.jpg
2625.988	0.827	1	incongruent	Block3	incongruent/STIM_017.jpg
2629.625	0.658	1	incongruent	Block3	incongruent/STIM_017.jpg
2634.047	0.536	1	incongruent	Block3	incongruent/STIM_017.jpg
2637.911	0.578	1	incongruent	Block3	incongruent/STIM_017.jpg
2641.785	0.625	1	incongruent	Block3	incongruent/STIM_018.jpg
2644.89	0.873	1	incongruent	Block3	incongruent/STIM_018.jpg
2648.699	0.795	1	incongruent	Block3	incongruent/STIM_018.jpg
2653.045	0.514	1	incongruent	Block3	incongruent/STIM_018.jpg
2657.044	0.831	1	incongruent	Block3	incongruent/STIM_018.jpg
2659.956	0.618	1	incongruent	Block3	incongruent/STIM_019.jpg
2662.876	0.64	1	incongruent	Block3	incongruent/STIM_019.jpg
2667.439	0.848	1	incongruent	Block3	incongruent/STIM_019.jpg
2670.694	0.583	1	incongruent	Block3	incongruent/STIM_019.jpg
2674.302	0.8	1	incongruent	Block3	incongruent/STIM_019.jpg
2678.906	0.749	1	incongruent	Block3	incongruent/STIM_020.jpg
2682.484	1.071	1	incongruent	Block3	incongruent/STIM_020.jpg
2685.772	0.812	1	incongruent	Block3	incongruent/STIM_020.jpg
2690.193	0.526	1	incongruent	Block3	incongruent/STIM_020.jpg
2694.041	0.877	1	incongruent	Block3	incongruent/STIM_020.jpg
2698.186	0.847	1	incongruent	Block3	incongruent/STIM_021.jpg
2701.842	0.814	1	incongruent	Block3	incongruent/STIM_021.jpg
2705.569	0.871	1	incongruent	Block3	incongruent/STIM_021.jpg
2709.761	0.664	1	incongruent	Block3	incongruent/STIM_021.jpg
2713.669	0.958	1	incongruent	Block3	incongruent/STIM_021.jpg
2716.913	0.88	1	incongruent	Block3	incongruent/STIM_022.jpg
2720.707	0.879	1	incongruent	Block3	incongruent/STIM_022.jpg
2725.098	0.928	1	incongruent	Block3	incongruent/STIM_022.jpg
2728.366	0.783	1	incongruent	Block3	incongruent/STIM_022.jpg
2731.508	0.667	1	incongruent	Block3	incongruent/STIM_022.jpg
2735.908	1.077	1	incongruent	Block3	incongruent/STIM_023.jpg
2740.331	0.991	1	incongruent	Block3	incongruent/STIM_023.jpg
2745.276	0.842	1	incongruent	Block3	incongruent/STIM_023.jpg
2748.501	0.58	1	incongruent	Block3	incongruent/STIM_023.jpg
2752.105	0.659	1	incongruent	Block3	incongruent/STIM_023.jpg
2755.871	0.558	1	incongruent	Block3	incongruent/STIM_024.jpg
2759.928	0.946	1	incongruent	Block3	incongruent/STIM_024.jpg
2763.328	1.066	1	incongruent	Block3	incongruent/STIM_024.jpg
2767.959	0.856	1	incongruent	Block3	incongruent/STIM_024.jpg
2771.788	0.716	1	incongruent	Block3	incongruent/STIM_024.jpg
2775.55	0.988	1	incongruent	Block3	incongruent/STIM_025.jpg
2779.127	0.602	1	incongruent	Block3	incongruent/STIM_025.jpg
2782.872	0.608	1	incongruent	Block3	incongruent/STIM_025.jpg
2787.29	0.986	1	incongruent	Block3	incongruent/STIM_025.jpg
2791.767	0.712	1	incongruent	Block3	incongruent/STIM_025.jpg
2794.746	0.942	1	incongruent	Block3	incongruent/STIM_026.jpg
2798.283	0.897	1	incongruent	Block3	incongruent/STIM_026.jpg
2801.455	0.568	1	incongruent	Block3	incongruent/STIM_026.jpg
2804.753	0.695	1	incongruent	Block3	incongruent/STIM_026.jpg
2809.363	0.97	1	incongruent	Block3	incongruent/STIM_026.jpg
2814.104	0.713	1	incongruent	Block3	incongruent/STIM_027.jpg
2817.82	0.916	1	incongruent	Block3	incongruent/STIM_027.jpg
2822.367	0.648	1	incongruent	Block3	incongruent/STIM_027.jpg
2825.427	1.036	1	incongruent	Block3	incongruent/STIM_027.jpg
2829.454	0.952	1	incongruent	Block3	incongruent/STIM_027.jpg
2833.382	0.97	1	incongruent	Block3	incongruent/STIM_028.jpg
2837.539	0.682	1	incongruent	Block3	incongruent/STIM_028.jpg
2841.858	0.889	1	incongruent	Block3	incongruent/STIM_028.jpg
2844.97	0.595	1	incongruent	Block3	incongruent/STIM_028.jpg
2849.453	0.538	1	incongruent	Block3	incongruent/STIM_028.jpg
2852.908	0.769	1	incongruent	Block3	incongruent/STIM_029.jpg
2857.011	0.892	0	incongruent	Block3	incongruent/STIM_029.jpg
2860.404	0.726	1	incongruent	Block3	incongruent/STIM_029.jpg
2863.292	0.745	1	incongruent	Block3	incongruent/STIM_029.jpg
2867.848	0.755	1	incongruent	Block3	incongruent/STIM_029.jpg
2870.69	0.883	0	congruent	Block3	congruent/STIM_000.jpg
2874.626	0.668	1	congruent	Block3	congruent/STIM_000.jpg
2877.97	0.555	1	congruent	Block3	congruent/STIM_000.jpg
2881.162	0.844	1	congruent	Block3	congruent/STIM_000.jpg
2885.513	0.599	1	congruent	Block3	congruent/STIM_000.jpg
2889.224	0.794	1	congruent	Block3	congruent/STIM_001.jpg
2892.716	0.875	1	congruent	Block3	congruent/STIM_001.jpg
2895.849	0.6	1	congruent	Block3	congruent/STIM_001.jpg
2900.433	0.647	1	congruent	Block3	congruent/STIM_001.jpg
2903.653	0.618	1	congruent	Block3	congruent/STIM_001.jpg
2907.51	0.826	1	congruent	Block3	congruent/STIM_002.jpg
2910.602	0.529	1	congruent	Block3	congruent/STIM_002.jpg
2913.624	0.616	1	congruent	Block3	congruent/STIM_002.jpg
2917.524	0.944	1	congruent	Block3	congruent/STIM_002.jpg
2921.677	0.785	1	congruent	Block3	congruent/STIM_002.jpg
2924.807	0.672	1	congruent	Block3	congruent/STIM_003.jpg
2928.015	0.728	1	congruent	Block3	congruent/STIM_003.jpg
2930.754	0.918	1	congruent	Block3	congruent/STIM_003.jpg
2934.042	0.909	1	congruent	Block3	congruent/STIM_003.jpg
2938.136	0.742	1	congruent	Block3	congruent/STIM_003.jpg
2941.131	0.526	1	congruent	Block3	congruent/STIM_004.jpg
2944.309	0.586	1	congruent	Block3	congruent/STIM_004.jpg
2947.227	0.59	1	congruent	Block3	congruent/STIM_004.jpg
2950.291	0.55	1	congruent	Block3	congruent/STIM_004.jpg
2954.502	0.755	1	congruent	Block3	congruent/STIM_004.jpg
2958.055	0.772	1	congruent	Block3	congruent/STIM_005.jpg
2961.578	0.734	1	congruent	Block3	congruent/STIM_005.jpg
2965.968	0.607	1	congruent	Block3	congruent/STIM_005.jpg
2969.432	0.871	1	congruent	Block3	congruent/STIM_005.jpg
2972.43	0.828	1	congruent	Block3	congruent/STIM_005.jpg
2976.238	0.54	0	congruent	Block3	congruent/STIM_006.jpg
2979.549	0.777	1	congruent	Block3	congruent/STIM_006.jpg
2983.017	0.716	1	congruent	Block3	congruent/STIM_006.jpg
2987.563	0.543	1	congruent	Block3	congruent/STIM_006.jpg
2991.037	0.797	1	congruent	Block3	congruent/STIM_006.jpg
2994.136	0.556	1	congruent	Block3	congruent/STIM_007.jpg
2997.625	0.685	1	congruent	Block3	congruent/STIM_007.jpg
3001.933	0.74	1	congruent	Block3	congruent/STIM_007.jpg
3005.466	0.594	1	congruent	Block3	congruent/STIM_007.jpg
3008.772	0.826	1	congruent	Block3	congruent/STIM_007.jpg
3011.713	0.578	1	congruent	Block3	congruent/STIM_008.jpg
3016.093	0.763	1	congruent	Block3	congruent/STIM_008.jpg
3019.316	0.659	1	congruent	Block3	congruent/STIM_008.jpg
3023.442	0.547	1	congruent	Block3	congruent/STIM_008.jpg
3027.698	0.839	1	congruent	Block3	congruent/STIM_008.jpg
3031.272	0.879	1	congruent	Block3	congruent/STIM_009.jpg
3034.549	0.742	1	congruent	Block3	congruent/STIM_009.jpg
3037.458	0.752	1	congruent	Block3	congruent/STIM_009.jpg
3042.115	0.53	1	congruent	Block3	congruent/STIM_009.jpg
3045.598	0.768	1	congruent	Block3	congruent/STIM_009.jpg
3049.106	0.558	1	congruent	Block3	congruent/STIM_010.jpg
3051.739	0.801	1	congruent	Block3	congruent/STIM_010.jpg
3055.734	0.615	1	congruent	Block3	congruent/STIM_010.jpg
3058.53	0.599	1	congruent	Block3	congruent/STIM_010.jpg
3061.339	0.873	1	congruent	Block3	congruent/STIM_010.jpg
3065.054	0.828	1	congruent	Block3	congruent/STIM_011.jpg
3068.133	0.668	1	congruent	Block3	congruent/STIM_011.jpg
3071.0	0.636	1	congruent	Block3	congruent/STIM_011.jpg
3073.926	0.846	1	congruent	Block3	congruent/STIM_011.jpg
3078.067	0.691	1	congruent	Block3	congruent/STIM_011.jpg
3081.058	0.886	1	congruent	Block3	congruent/STIM_012.jpg
3084.332	0.561	1	congruent	Block3	congruent/STIM_012.jpg
3087.538	0.611	1	congruent	Block3	congruent/STIM_012.jpg
3091.146	0.622	1	congruent	Block3	congruent/STIM_012.jpg
3094.586	0.639	1	congruent	Block3	congruent/STIM_012.jpg
3098.63	0.774	1	congruent	Block3	congruent/STIM_013.jpg
3102.368	0.748	1	congruent	Block3	congruent/STIM_013.jpg
3105.609	0.634	1	congruent	Block3	congruent/STIM_013.jpg
3109.875	0.61	1	congruent	Block3	congruent/STIM_013.jpg
3113.499	0.942	1	congruent	Block3	congruent/STIM_013.jpg
3116.886	0.525	1	congruent	Block3	congruent/STIM_014.jpg
3121.18	0.741	0	congruent	Block3	congruent/STIM_014.jpg
3124.934	0.828	1	congruent	Block3	congruent/STIM_014.jpg
3128.369	0.558	1	congruent	Block3	congruent/STIM_014.jpg
3132.345	0.559	1	congruent	Block3	congruent/STIM_014.jpg
3135.826	0.579	1	congruent	Block3	congruent/STIM_015.jpg
3139.474	0.847	1	congruent	Block3	congruent/STIM_015.jpg
3143.377	0.803	1	congruent	Block3	congruent/STIM_015.jpg
3146.803	0.554	1	congruent	Block3	congruent/STIM_015.jpg
3150.711	0.809	1	congruent	Block3	congruent/STIM_015.jpg
3153.915	0.68	1	congruent	Block3	congruent/STIM_016.jpg
3156.875	0.675	1	congruent	Block3	congruent/STIM_016.jpg
3160.274	0.613	1	congruent	Block3	congruent/STIM_016.jpg
3163.359	0.6	1	congruent	Block3	congruent/STIM_016.jpg
3167.095	0.9	1	congruent	Block3	congruent/STIM_016.jpg
3171.282	0.787	1	congruent	Block3	congruent/STIM_017.jpg
3175.426	0.565	1	congruent	Block3	congruent/STIM_017.jpg
3177.996	0.692	1	congruent	Block3	congruent/STIM_017.jpg
3182.31	0.865	1	congruent	Block3	congruent/STIM_017.jpg
3186.75	0.844	1	congruent	Block3	congruent/STIM_017.jpg
3190.196	0.809	1	congruent	Block3	congruent/STIM_018.jpg
3194.524	0.542	1	congruent	Block3	congruent/STIM_018.jpg
3198.669	0.598	1	congruent	Block3	congruent/STIM_018.jpg
3202.509	0.711	1	congruent	Block3	congruent/STIM_018.jpg
3206.944	0.855	1	congruent	Block3	congruent/STIM_018.jpg
3210.544	0.679	1	congruent	Block3	congruent/STIM_019.jpg
3213.873	0.899	1	congruent	Block3	congruent/STIM_019.jpg
3218.624	0.702	1	congruent	Block3	congruent/STIM_019.jpg
3221.569	0.79	1	congruent	Block3	congruent/STIM_019.jpg
3225.016	0.735	1	congruent	Block3	congruent/STIM_019.jpg
3228.663	0.7	1	congruent	Block3	congruent/STIM_020.jpg
3231.452	0.619	1	congruent	Block3	congruent/STIM_020.jpg
3234.739	0.868	1	congruent	Block3	congruent/STIM_020.jpg
3238.992	0.686	1	congruent	Block3	congruent/STIM_020.jpg
3242.87	0.925	1	congruent	Block3	congruent/STIM_020.jpg
3247.09	0.898	1	congruent	Block3	congruent/STIM_021.jpg
3250.957	0.753	1	congruent	Block3	congruent/STIM_021.jpg
3255.269	0.742	1	congruent	Block3	congruent/STIM_021.jpg
3258.618	0.572	0	congruent	Block3	congruent/STIM_021.jpg
3263.116	0.594	1	congruent	Block3	congruent/STIM_021.jpg
3266.211	0.746	1	congruent	Block3	congruent/STIM_022.jpg
3269.791	0.539	1	congruent	Block3	congruent/STIM_022.jpg
3274.026	0.71	1	congruent	Block3	congruent/STIM_022.jpg
3278.594	0.545	1	congruent	Block3	congruent/STIM_022.jpg
3281.901	0.936	1	congruent	Block3	congruent/STIM_022.jpg
3284.839	0.912	1	congruent	Block3	congruent/STIM_023.jpg
3288.009	0.618	1	congruent	Block3	congruent/STIM_023.jpg
3291.643	0.528	1	congruent	Block3	congruent/STIM_023.jpg
3295.927	0.552	1	congruent	Block3	congruent/STIM_023.jpg
3298.655	0.781	1	congruent	Block3	congruent/STIM_023.jpg
3302.719	0.73	1	congruent	Block3	congruent/STIM_024.jpg
3306.566	0.802	1	congruent	Block3	congruent/STIM_024.jpg
3309.828	0.712	1	congruent	Block3	congruent/STIM_024.jpg
3312.923	0.687	1	congruent	Block3	congruent/STIM_024.jpg
3317.476	0.916	1	congruent	Block3	congruent/STIM_024.jpg
3321.794	0.907	1	congruent	Block3	congruent/STIM_025.jpg
3325.23	0.826	1	congruent	Block3	congruent/STIM_025.jpg
3328.449	0.708	1	congruent	Block3	congruent/STIM_025.jpg
3332.948	0.676	1	congruent	Block3	congruent/STIM_025.jpg
3336.804	0.545	1	congruent	Block3	congruent/STIM_025.jpg
3340.48	0.825	1	congruent	Block3	congruent/STIM_026.jpg
3344.582	0.773	1	congruent	Block3	congruent/STIM_026.jpg
3348.906	0.868	1	congruent	Block3	congruent/STIM_026.jpg
3352.125	0.849	0	congruent	Block3	congruent/STIM_026.jpg
3356.506	0.831	1	congruent	Block3	congruent/STIM_026.jpg
3360.566	0.776	1	congruent	Block3	congruent/STIM_027.jpg
3364.066	0.858	1	congruent	Block3	congruent/STIM_027.jpg
3367.899	0.751	1	congruent	Block3	congruent/STIM_027.jpg
3371.98	0.56	1	congruent	Block3	congruent/STIM_027.jpg
3375.674	0.63	1	congruent	Block3	congruent/STIM_027.jpg
3379.873	0.826	1	congruent	Block3	congruent/STIM_028.jpg
3384.538	0.805	1	congruent	Block3	congruent/STIM_028.jpg
3389.106	0.672	1	congruent	Block3	congruent/STIM_028.jpg
3392.862	0.793	1	congruent	Block3	congruent/STIM_028.jpg
3397.216	0.83	1	congruent	Block3	congruent/STIM_028.jpg
3400.062	0.675	1	congruent	Block3	congruent/STIM_029.jpg
3403.914	0.937	1	congruent	Block3	congruent/STIM_029.jpg
3406.981	0.651	1	congruent	Block3	congruent/STIM_029.jpg
3411.484	0.728	1	congruent	Block3	congruent/STIM_029.jpg
3415.492	0.57	1	congruent	Block3	congruent/STIM_029.jpg
