onset	duration	response_time_ms	trial_type	learning_stage	stimulus	response_port
0.0	1.422	1421.8	incongruent	Block1	incongruent/STIM_000.jpg	100
4.876	1.076	1075.7	incongruent	Block1	incongruent/STIM_000.jpg	99
9.645	0.725	725.4	incongruent	Block1	incongruent/STIM_000.jpg	99
13.328	0.696	696.4	incongruent	Block1	incongruent/STIM_000.jpg	99
16.28	0.65	650.1	incongruent	Block1	incongruent/STIM_000.jpg	99
20.464	1.213	1213.0	incongruent	Block1	incongruent/STIM_001.jpg	100
24.424	0.869	868.7	incongruent	Block1	incongruent/STIM_001.jpg	99
29.146	1.027	1026.8	incongruent	Block1	incongruent/STIM_001.jpg	100
32.786	1.032	1032.5	incongruent	Block1	incongruent/STIM_001.jpg	99
36.547	0.622	622.1	incongruent	Block1	incongruent/STIM_001.jpg	100
40.677	0.78	780.3	incongruent	Block1	incongruent/STIM_002.jpg	100
43.997	0.762	762.0	incongruent	Block1	incongruent/STIM_002.jpg	100
46.763	0.991	990.6	incongruent	Block1	incongruent/STIM_002.jpg	100
51.746	0.816	815.8	incongruent	Block1	incongruent/STIM_002.jpg	100
56.159	0.67	670.2	incongruent	Block1	incongruent/STIM_002.jpg	100
59.383	1.094	1093.9	incongruent	Block1	incongruent/STIM_003.jpg	99
62.887	1.47	1470.1	incongruent	Block1	incongruent/STIM_003.jpg	100
66.871	0.947	946.6	incongruent	Block1	incongruent/STIM_003.jpg	99
71.797	1.295	1294.6	incongruent	Block1	incongruent/STIM_003.jpg	100
76.092	0.877	877.4	incongruent	Block1	incongruent/STIM_003.jpg	99
79.109	1.563	1563.3	incongruent	Block1	incongruent/STIM_004.jpg	99
82.8	1.334	1334.5	incongruent	Block1	incongruent/STIM_004.jpg	99
86.148	1.376	1376.4	incongruent	Block1	incongruent/STIM_004.jpg	100
89.547	0.963	962.8	incongruent	Block1	incongruent/STIM_004.jpg	99
93.032	1.195	1194.6	incongruent	Block1	incongruent/STIM_004.jpg	100
96.533	1.176	1176.2	incongruent	Block1	incongruent/STIM_005.jpg	100
101.648	0.719	718.8	incongruent	Block1	incongruent/STIM_005.jpg	100
105.422	0.843	843.2	incongruent	Block1	incongruent/STIM_005.jpg	99
110.115	1.121	1121.1	incongruent	Block1	incongruent/STIM_005.jpg	99
114.472	1.103	1103.4	incongruent	Block1	incongruent/STIM_005.jpg	99
119.167	0.874	874.1	incongruent	Block1	incongruent/STIM_006.jpg	99
122.162	1.243	1243.1	incongruent	Block1	incongruent/STIM_006.jpg	99
127.255	0.887	886.9	incongruent	Block1	incongruent/STIM_006.jpg	100
131.415	1.253	1253.1	incongruent	Block1	incongruent/STIM_006.jpg	100
135.574	0.938	938.3	incongruent	Block1	incongruent/STIM_006.jpg	99
138.739	1.534	1533.5	incongruent	Block1	incongruent/STIM_007.jpg	100
142.958	1.315	1315.2	incongruent	Block1	incongruent/STIM_007.jpg	100
146.928	0.7	700.5	incongruent	Block1	incongruent/STIM_007.jpg	99
150.47	0.986	985.5	incongruent	Block1	incongruent/STIM_007.jpg	99
154.937	1.108	1107.6	incongruent	Block1	incongruent/STIM_007.jpg	99
159.415	0.875	875.0	incongruent	Block1	incongruent/STIM_008.jpg	100
163.096	1.073	1073.4	incongruent	Block1	incongruent/STIM_008.jpg	100
167.172	1.07	1070.4	incongruent	Block1	incongruent/STIM_008.jpg	100
171.208	1.271	1271.3	incongruent	Block1	incongruent/STIM_008.jpg	99
175.84	0.877	877.4	incongruent	Block1	incongruent/STIM_008.jpg	99
179.401	1.326	1326.0	incongruent	Block1	incongruent/STIM_009.jpg	100
183.075	1.035	1035.1	incongruent	Block1	incongruent/STIM_009.jpg	100
187.509	0.667	667.2	incongruent	Block1	incongruent/STIM_009.jpg	100
190.681	1.227	1226.7	incongruent	Block1	incongruent/STIM_009.jpg	100
195.129	0.627	626.7	incongruent	Block1	incongruent/STIM_009.jpg	99
199.273	0.792	792.3	incongruent	Block1	incongruent/STIM_010.jpg	100
203.012	0.805	805.3	incongruent	Block1	incongruent/STIM_010.jpg	100
206.163	0.915	914.7	incongruent	Block1	incongruent/STIM_010.jpg	99
210.884	0.949	949.2	incongruent	Block1	incongruent/STIM_010.jpg	99
214.038	1.029	1029.1	incongruent	Block1	incongruent/STIM_010.jpg	100
218.252	1.023	1023.0	incongruent	Block1	incongruent/STIM_011.jpg	99
222.104	0.988	988.5	incongruent	Block1	incongruent/STIM_011.jpg	100
225.286	1.385	1384.8	incongruent	Block1	incongruent/STIM_011.jpg	99
230.34	1.22	1220.0	incongruent	Block1	incongruent/STIM_011.jpg	100
234.492	1.254	1253.9	incongruent	Block1	incongruent/STIM_011.jpg	100
237.758	1.104	1104.5	incongruent	Block1	incongruent/STIM_012.jpg	100
242.273	1.094	1094.5	incongruent	Block1	incongruent/STIM_012.jpg	100
245.507	1.104	1104.3	incongruent	Block1	incongruent/STIM_012.jpg	99
249.043	1.31	1310.1	incongruent	Block1	incongruent/STIM_012.jpg	100
253.898	0.778	777.8	incongruent	Block1	incongruent/STIM_012.jpg	99
258.357	1.493	1492.9	incongruent	Block1	incongruent/STIM_013.jpg	99
262.449	1.073	1072.7	incongruent	Block1	incongruent/STIM_013.jpg	100
265.987	0.711	710.7	incongruent	Block1	incongruent/STIM_013.jpg	100
270.143	0.797	797.1	incongruent	Block1	incongruent/STIM_013.jpg	99
274.603	0.839	839.2	incongruent	Block1	incongruent/STIM_013.jpg	99
279.087	0.935	935.2	incongruent	Block1	incongruent/STIM_014.jpg	100
282.066	0.83	829.6	incongruent	Block1	incongruent/STIM_014.jpg	100
285.903	0.989	989.4	incongruent	Block1	incongruent/STIM_014.jpg	100
290.458	1.163	1163.0	incongruent	Block1	incongruent/STIM_014.jpg	100
295.097	0.793	793.0	incongruent	Block1	incongruent/STIM_014.jpg	99
298.673	1.304	1303.6	incongruent	Block1	incongruent/STIM_015.jpg	100
302.507	0.846	845.7	incongruent	Block1	incongruent/STIM_015.jpg	99
305.497	0.711	710.8	incongruent	Block1	incongruent/STIM_015.jpg	100
308.335	0.854	854.4	incongruent	Block1	incongruent/STIM_015.jpg	100
311.726	1.003	1002.8	incongruent	Block1	incongruent/STIM_015.jpg	100
315.227	1.115	1114.8	incongruent	Block1	incongruent/STIM_016.jpg	99
319.069	1.298	1298.2	incongruent	Block1	incongruent/STIM_016.jpg	100
324.159	1.03	1030.1	incongruent	Block1	incongruent/STIM_016.jpg	99
328.158	1.254	1253.7	incongruent	Block1	incongruent/STIM_016.jpg	100
332.351	0.72	719.7	incongruent	Block1	incongruent/STIM_016.jpg	99
335.167	0.848	847.5	incongruent	Block1	incongruent/STIM_017.jpg	99
338.132	1.4	1399.8	incongruent	Block1	incongruent/STIM_017.jpg	99
343.376	1.163	1163.2	incongruent	Block1	incongruent/STIM_017.jpg	99
346.585	1.024	1024.2	incongruent	Block1	incongruent/STIM_017.jpg	99
350.351	1.075	1075.4	incongruent	Block1	incongruent/STIM_017.jpg	99
354.263	1.058	1057.7	incongruent	Block1	incongruent/STIM_018.jpg	99
358.353	0.878	877.9	incongruent	Block1	incongruent/STIM_018.jpg	99
362.497	0.807	807.3	incongruent	Block1	incongruent/STIM_018.jpg	100
367.164	0.666	666.5	incongruent	Block1	incongruent/STIM_018.jpg	100
370.654	0.937	937.0	incongruent	Block1	incongruent/STIM_018.jpg	99
374.652	1.434	1433.6	incongruent	Block1	incongruent/STIM_019.jpg	100
379.895	1.055	1054.7	incongruent	Block1	incongruent/STIM_019.jpg	100
383.3	0.683	682.7	incongruent	Block1	incongruent/STIM_019.jpg	99
386.757	0.843	842.9	incongruent	Block1	incongruent/STIM_019.jpg	100
391.386	1.046	1045.6	incongruent	Block1	incongruent/STIM_019.jpg	99
394.633	0.899	898.8	incongruent	Block1	incongruent/STIM_020.jpg	100
399.421	0.714	714.5	incongruent	Block1	incongruent/STIM_020.jpg	100
402.5	1.409	1408.7	incongruent	Block1	incongruent/STIM_020.jpg	99
407.776	0.788	787.6	incongruent	Block1	incongruent/STIM_020.jpg	100
411.289	0.895	895.2	incongruent	Block1	incongruent/STIM_020.jpg	100
415.487	1.021	1020.6	incongruent	Block1	incongruent/STIM_021.jpg	100
419.099	1.393	1393.3	incongruent	Block1	incongruent/STIM_021.jpg	100
422.991	1.401	1400.9	incongruent	Block1	incongruent/STIM_021.jpg	100
426.589	0.951	950.9	incongruent	Block1	incongruent/STIM_021.jpg	99
430.288	0.862	862.1	incongruent	Block1	incongruent/STIM_021.jpg	100
434.536	0.982	982.4	incongruent	Block1	incongruent/STIM_022.jpg	100
439.18	0.971	970.7	incongruent	Block1	incongruent/STIM_022.jpg	99
444.086	1.341	1341.2	incongruent	Block1	incongruent/STIM_022.jpg	100
449.115	0.941	941.1	incongruent	Block1	incongruent/STIM_022.jpg	100
454.008	0.827	826.6	incongruent	Block1	incongruent/STIM_022.jpg	99
457.372	1.048	1047.9	incongruent	Block1	incongruent/STIM_023.jpg	100
460.758	1.278	1277.7	incongruent	Block1	incongruent/STIM_023.jpg	100
465.6	1.396	1396.1	incongruent	Block1	incongruent/STIM_023.jpg	100
469.432	1.074	1073.8	incongruent	Block1	incongruent/STIM_023.jpg	99
474.329	1.075	1075.4	incongruent	Block1	incongruent/STIM_023.jpg	100
478.569	1.08	1079.9	incongruent	Block1	incongruent/STIM_024.jpg	99
483.556	1.469	1468.9	incongruent	Block1	incongruent/STIM_024.jpg	100
487.535	0.87	870.1	incongruent	Block1	incongruent/STIM_024.jpg	100
490.617	1.277	1277.2	incongruent	Block1	incongruent/STIM_024.jpg	100
493.969	0.806	806.5	incongruent	Block1	incongruent/STIM_024.jpg	99
496.953	1.279	1279.3	incongruent	Block1	incongruent/STIM_025.jpg	99
501.486	0.718	718.4	incongruent	Block1	incongruent/STIM_025.jpg	99
504.718	0.74	740.5	incongruent	Block1	incongruent/STIM_025.jpg	99
507.716	1.136	1135.9	incongruent	Block1	incongruent/STIM_025.jpg	100
511.179	1.162	1162.5	incongruent	Block1	incongruent/STIM_025.jpg	99
514.676	1.391	1391.2	incongruent	Block1	incongruent/STIM_026.jpg	100
519.407	0.94	939.6	incongruent	Block1	incongruent/STIM_026.jpg	99
523.381	0.987	986.7	incongruent	Block1	incongruent/STIM_026.jpg	100
527.795	1.114	1113.7	incongruent	Block1	incongruent/STIM_026.jpg	100
531.671	1.201	1200.6	incongruent	Block1	incongruent/STIM_026.jpg	100
536.037	1.431	1431.0	incongruent	Block1	incongruent/STIM_027.jpg	100
541.193	1.336	1336.1	incongruent	Block1	incongruent/STIM_027.jpg	100
545.898	0.983	983.1	incongruent	Block1	incongruent/STIM_027.jpg	100
549.574	1.217	1217.3	incongruent	Block1	incongruent/STIM_027.jpg	100
553.639	1.008	1008.1	incongruent	Block1	incongruent/STIM_027.jpg	99
558.186	1.355	1354.6	incongruent	Block1	incongruent/STIM_028.jpg	100
562.312	1.263	1263.1	incongruent	Block1	incongruent/STIM_028.jpg	100
567.057	1.308	1308.4	incongruent	Block1	incongruent/STIM_028.jpg	100
571.69	0.749	749.1	incongruent	Block1	incongruent/STIM_028.jpg	99
575.414	1.236	1236.5	incongruent	Block1	incongruent/STIM_028.jpg	99
580.4	0.81	810.2	incongruent	Block1	incongruent/STIM_029.jpg	100
584.445	0.989	989.3	incongruent	Block1	incongruent/STIM_029.jpg	100
588.671	0.953	953.2	incongruent	Block1	incongruent/STIM_029.jpg	100
592.542	1.176	1175.7	incongruent	Block1	incongruent/STIM_029.jpg	100
595.912	0.947	946.6	incongruent	Block1	incongruent/STIM_029.jpg	100
599.11	0.776	775.8	congruent	Block1	congruent/STIM_000.jpg	100
603.426	0.853	853.1	congruent	Block1	congruent/STIM_000.jpg	100
607.759	0.886	886.0	congruent	Block1	congruent/STIM_000.jpg	100
611.4	0.644	644.1	congruent	Block1	congruent/STIM_000.jpg	99
614.537	0.825	825.0	congruent	Block1	congruent/STIM_000.jpg	100
619.189	0.904	903.9	congruent	Block1	congruent/STIM_001.jpg	100
623.259	0.666	666.5	congruent	Block1	congruent/STIM_001.jpg	100
626.367	0.839	839.2	congruent	Block1	congruent/STIM_001.jpg	99
630.026	0.632	632.2	congruent	Block1	congruent/STIM_001.jpg	100
632.662	0.529	528.8	congruent	Block1	congruent/STIM_001.jpg	100
635.351	0.619	618.7	congruent	Block1	congruent/STIM_002.jpg	99
638.089	0.819	819.3	congruent	Block1	congruent/STIM_002.jpg	100
641.177	0.767	767.2	congruent	Block1	congruent/STIM_002.jpg	99
644.91	0.544	543.9	congruent	Block1	congruent/STIM_002.jpg	100
648.242	0.646	645.5	congruent	Block1	congruent/STIM_002.jpg	100
651.177	0.548	548.4	congruent	Block1	congruent/STIM_003.jpg	100
654.527	0.61	610.4	congruent	Block1	congruent/STIM_003.jpg	99
658.869	0.774	773.6	congruent	Block1	congruent/STIM_003.jpg	100
663.062	0.858	857.5	congruent	Block1	congruent/STIM_003.jpg	100
666.681	0.592	591.7	congruent	Block1	congruent/STIM_003.jpg	99
669.506	0.912	912.5	congruent	Block1	congruent/STIM_004.jpg	100
673.423	0.709	709.3	congruent	Block1	congruent/STIM_004.jpg	99
676.725	0.703	703.0	congruent	Block1	congruent/STIM_004.jpg	100
681.311	0.643	643.3	congruent	Block1	congruent/STIM_004.jpg	99
684.594	0.921	921.0	congruent	Block1	congruent/STIM_004.jpg	100
688.695	0.896	896.5	congruent	Block1	congruent/STIM_005.jpg	100
692.725	0.814	814.5	congruent	Block1	congruent/STIM_005.jpg	100
697.208	0.59	590.2	congruent	Block1	congruent/STIM_005.jpg	99
700.84	0.626	625.8	congruent	Block1	congruent/STIM_005.jpg	100
703.593	0.624	623.6	congruent	Block1	congruent/STIM_005.jpg	100
707.061	0.635	634.6	congruent	Block1	congruent/STIM_006.jpg	100
711.582	0.727	726.8	congruent	Block1	congruent/STIM_006.jpg	99
715.496	0.816	816.3	congruent	Block1	congruent/STIM_006.jpg	99
718.628	0.915	915.3	congruent	Block1	congruent/STIM_006.jpg	100
722.885	0.608	608.1	congruent	Block1	congruent/STIM_006.jpg	99
725.734	0.659	658.9	congruent	Block1	congruent/STIM_007.jpg	100
729.927	0.73	729.7	congruent	Block1	congruent/STIM_007.jpg	100
733.851	0.773	773.3	congruent	Block1	congruent/STIM_007.jpg	99
737.85	0.864	864.0	congruent	Block1	congruent/STIM_007.jpg	100
742.505	0.64	640.4	congruent	Block1	congruent/STIM_007.jpg	99
745.883	0.602	601.9	congruent	Block1	congruent/STIM_008.jpg	99
750.043	0.733	733.1	congruent	Block1	congruent/STIM_008.jpg	99
753.405	0.89	889.7	congruent	Block1	congruent/STIM_008.jpg	99
757.066	0.648	648.4	congruent	Block1	congruent/STIM_008.jpg	100
761.677	0.857	857.0	congruent	Block1	congruent/STIM_008.jpg	99
765.099	0.628	628.3	congruent	Block1	congruent/STIM_009.jpg	100
769.534	0.63	630.5	congruent	Block1	congruent/STIM_009.jpg	99
773.018	0.603	602.6	congruent	Block1	congruent/STIM_009.jpg	99
777.443	0.847	846.8	congruent	Block1	congruent/STIM_009.jpg	100
782.183	0.917	917.3	congruent	Block1	congruent/STIM_009.jpg	99
786.608	0.528	528.2	congruent	Block1	congruent/STIM_010.jpg	99
789.869	0.592	591.9	congruent	Block1	congruent/STIM_010.jpg	100
794.415	0.91	910.0	congruent	Block1	congruent/STIM_010.jpg	100
797.463	0.834	834.1	congruent	Block1	congruent/STIM_010.jpg	100
800.955	0.859	859.1	congruent	Block1	congruent/STIM_010.jpg	99
804.8	0.769	769.3	congruent	Block1	congruent/STIM_011.jpg	99
809.059	0.878	878.2	congruent	Block1	congruent/STIM_011.jpg	99
813.376	0.93	930.0	congruent	Block1	congruent/STIM_011.jpg	99
817.651	0.534	534.5	congruent	Block1	congruent/STIM_011.jpg	100
821.413	0.662	661.7	congruent	Block1	congruent/STIM_011.jpg	100
825.291	0.787	786.9	congruent	Block1	congruent/STIM_012.jpg	99
829.132	0.575	574.9	congruent	Block1	congruent/STIM_012.jpg	99
832.15	0.75	750.1	congruent	Block1	congruent/STIM_012.jpg	99
836.043	0.787	787.3	congruent	Block1	congruent/STIM_012.jpg	99
838.942	0.571	570.7	congruent	Block1	congruent/STIM_012.jpg	100
842.109	0.652	652.1	congruent	Block1	congruent/STIM_013.jpg	99
846.757	0.754	753.6	congruent	Block1	congruent/STIM_013.jpg	99
849.804	0.898	898.4	congruent	Block1	congruent/STIM_013.jpg	99
854.585	0.92	920.5	congruent	Block1	congruent/STIM_013.jpg	99
859.15	0.814	814.1	congruent	Block1	congruent/STIM_013.jpg	99
863.702	0.859	859.0	congruent	Block1	congruent/STIM_014.jpg	100
867.207	0.735	734.7	congruent	Block1	congruent/STIM_014.jpg	100
870.262	0.579	578.7	congruent	Block1	congruent/STIM_014.jpg	99
872.888	0.56	559.7	congruent	Block1	congruent/STIM_014.jpg	99
876.075	0.652	651.8	congruent	Block1	congruent/STIM_014.jpg	99
879.29	0.553	553.0	congruent	Block1	congruent/STIM_015.jpg	99
881.977	0.644	644.1	congruent	Block1	congruent/STIM_015.jpg	99
885.527	0.765	764.6	congruent	Block1	congruent/STIM_015.jpg	99
889.076	0.896	896.1	congruent	Block1	congruent/STIM_015.jpg	100
892.188	0.795	795.1	congruent	Block1	congruent/STIM_015.jpg	100
895.98	0.81	809.8	congruent	Block1	congruent/STIM_016.jpg	100
900.46	0.889	889.3	congruent	Block1	congruent/STIM_016.jpg	99
905.331	0.646	646.1	congruent	Block1	congruent/STIM_016.jpg	100
909.944	0.804	804.1	congruent	Block1	congruent/STIM_016.jpg	100
913.288	0.694	694.0	congruent	Block1	congruent/STIM_016.jpg	99
916.622	0.917	917.3	congruent	Block1	congruent/STIM_017.jpg	99
919.721	0.678	677.8	congruent	Block1	congruent/STIM_017.jpg	100
923.506	0.704	703.8	congruent	Block1	congruent/STIM_017.jpg	99
927.04	0.606	605.8	congruent	Block1	congruent/STIM_017.jpg	99
931.609	0.821	820.6	congruent	Block1	congruent/STIM_017.jpg	100
935.701	0.807	807.3	congruent	Block1	congruent/STIM_018.jpg	99
939.624	0.798	797.5	congruent	Block1	congruent/STIM_018.jpg	99
944.35	0.565	564.6	congruent	Block1	congruent/STIM_018.jpg	99
948.166	0.897	896.8	congruent	Block1	congruent/STIM_018.jpg	99
952.505	0.637	637.3	congruent	Block1	congruent/STIM_018.jpg	100
955.427	0.826	826.0	congruent	Block1	congruent/STIM_019.jpg	99
958.617	0.616	616.4	congruent	Block1	congruent/STIM_019.jpg	100
962.723	0.669	669.0	congruent	Block1	congruent/STIM_019.jpg	99
965.546	0.845	845.3	congruent	Block1	congruent/STIM_019.jpg	100
968.526	0.678	677.5	congruent	Block1	congruent/STIM_019.jpg	99
971.94	0.624	623.9	congruent	Block1	congruent/STIM_020.jpg	100
975.145	0.62	620.1	congruent	Block1	congruent/STIM_020.jpg	99
979.237	0.896	896.2	congruent	Block1	congruent/STIM_020.jpg	100
982.741	0.907	906.9	congruent	Block1	congruent/STIM_020.jpg	99
987.63	0.725	724.9	congruent	Block1	congruent/STIM_020.jpg	100
990.914	0.75	750.2	congruent	Block1	congruent/STIM_021.jpg	99
993.826	0.912	912.4	congruent	Block1	congruent/STIM_021.jpg	99
996.939	0.734	734.2	congruent	Block1	congruent/STIM_021.jpg	99
1000.142	0.66	659.6	congruent	Block1	congruent/STIM_021.jpg	100
1004.613	0.533	533.2	congruent	Block1	congruent/STIM_021.jpg	99
1009.011	0.671	671.4	congruent	Block1	congruent/STIM_022.jpg	100
1012.637	0.641	641.4	congruent	Block1	congruent/STIM_022.jpg	100
1015.92	0.921	920.8	congruent	Block1	congruent/STIM_022.jpg	99
1020.62	0.532	532.0	congruent	Block1	congruent/STIM_022.jpg	100
1024.734	0.886	886.5	congruent	Block1	congruent/STIM_022.jpg	100
1029.093	0.767	766.9	congruent	Block1	congruent/STIM_023.jpg	99
1032.805	0.753	752.6	congruent	Block1	congruent/STIM_023.jpg	99
1036.706	0.622	621.8	congruent	Block1	congruent/STIM_023.jpg	100
1040.149	0.533	533.1	congruent	Block1	congruent/STIM_023.jpg	100
1043.092	0.812	812.2	congruent	Block1	congruent/STIM_023.jpg	100
1047.023	0.611	610.7	congruent	Block1	congruent/STIM_024.jpg	100
1050.336	0.707	707.3	congruent	Block1	congruent/STIM_024.jpg	99
1054.818	0.767	766.8	congruent	Block1	congruent/STIM_024.jpg	99
1058.211	0.736	736.0	congruent	Block1	congruent/STIM_024.jpg	99
1061.608	0.912	912.2	congruent	Block1	congruent/STIM_024.jpg	99
1065.441	0.7	699.6	congruent	Block1	congruent/STIM_025.jpg	99
1069.643	0.642	642.5	congruent	Block1	congruent/STIM_025.jpg	100
1074.084	0.943	943.3	congruent	Block1	congruent/STIM_025.jpg	100
1078.882	0.817	816.7	congruent	Block1	congruent/STIM_025.jpg	100
1081.795	0.869	868.8	congruent	Block1	congruent/STIM_025.jpg	99
1086.363	0.559	558.7	congruent	Block1	congruent/STIM_026.jpg	100
1090.011	0.826	825.8	congruent	Block1	congruent/STIM_026.jpg	100
1094.642	0.85	850.1	congruent	Block1	congruent/STIM_026.jpg	99
1097.792	0.925	925.1	congruent	Block1	congruent/STIM_026.jpg	99
1102.297	0.62	620.1	congruent	Block1	congruent/STIM_026.jpg	100
1105.223	0.566	566.3	congruent	Block1	congruent/STIM_027.jpg	99
1108.154	0.775	775.0	congruent	Block1	congruent/STIM_027.jpg	100
1112.318	0.917	917.3	congruent	Block1	congruent/STIM_027.jpg	100
1116.879	0.74	739.9	congruent	Block1	congruent/STIM_027.jpg	99
1121.059	0.876	876.4	congruent	Block1	congruent/STIM_027.jpg	99
1124.563	0.787	787.1	congruent	Block1	congruent/STIM_028.jpg	100
1129.194	0.655	655.1	congruent	Block1	congruent/STIM_028.jpg	99
1133.044	0.718	717.9	congruent	Block1	congruent/STIM_028.jpg	99
1136.779	0.739	738.9	congruent	Block1	congruent/STIM_028.jpg	100
1140.49	0.724	723.9	congruent	Block1	congruent/STIM_028.jpg	100
1144.074	0.545	545.0	congruent	Block1	congruent/STIM_029.jpg	99
1146.823	0.778	777.7	congruent	Block1	congruent/STIM_029.jpg	99
1150.887	0.919	919.3	congruent	Block1	congruent/STIM_029.jpg	100
1154.812	0.556	555.5	congruent	Block1	congruent/STIM_029.jpg	100
1158.383	0.651	650.9	congruent	Block1	congruent/STIM_029.jpg	99
1162.281	0.752	752.4	incongruent	Block2	incongruent/STIM_000.jpg	99
1166.23	1.211	1210.8	incongruent	Block2	incongruent/STIM_000.jpg	100
1169.987	0.873	872.7	incongruent	Block2	incongruent/STIM_000.jpg	99
1173.903	0.612	611.9	incongruent	Block2	incongruent/STIM_000.jpg	99
1178.157	0.777	776.9	incongruent	Block2	incongruent/STIM_000.jpg	100
1181.587	1.312	1312.4	incongruent	Block2	incongruent/STIM_001.jpg	100
1185.376	1.166	1165.9	incongruent	Block2	incongruent/STIM_001.jpg	100
1189.265	1.119	1118.6	incongruent	Block2	incongruent/STIM_001.jpg	100
1193.947	0.949	948.9	incongruent	Block2	incongruent/STIM_001.jpg	99
1197.695	0.682	681.9	incongruent	Block2	incongruent/STIM_001.jpg	100
1200.454	0.91	909.7	incongruent	Block2	incongruent/STIM_002.jpg	100
1204.146	0.94	940.1	incongruent	Block2	incongruent/STIM_002.jpg	99
1208.146	0.942	941.7	incongruent	Block2	incongruent/STIM_002.jpg	100
1211.701	0.668	668.2	incongruent	Block2	incongruent/STIM_002.jpg	100
1215.982	1.027	1027.0	incongruent	Block2	incongruent/STIM_002.jpg	99
1220.599	1.065	1064.7	incongruent	Block2	incongruent/STIM_003.jpg	99
1225.535	1.069	1068.6	incongruent	Block2	incongruent/STIM_003.jpg	100
1229.885	0.595	594.6	incongruent	Block2	incongruent/STIM_003.jpg	99
1233.704	0.762	761.8	incongruent	Block2	incongruent/STIM_003.jpg	100
1237.501	0.518	517.5	incongruent	Block2	incongruent/STIM_003.jpg	99
1241.224	0.844	844.2	incongruent	Block2	incongruent/STIM_004.jpg	99
1245.733	1.201	1201.4	incongruent	Block2	incongruent/STIM_004.jpg	99
1249.19	0.944	944.4	incongruent	Block2	incongruent/STIM_004.jpg	99
1252.413	0.52	520.4	incongruent	Block2	incongruent/STIM_004.jpg	99
1254.978	0.717	716.6	incongruent	Block2	incongruent/STIM_004.jpg	99
1258.6	0.845	844.7	incongruent	Block2	incongruent/STIM_005.jpg	100
1261.995	0.903	902.6	incongruent	Block2	incongruent/STIM_005.jpg	100
1265.018	1.02	1019.7	incongruent	Block2	incongruent/STIM_005.jpg	100
1269.139	0.692	691.9	incongruent	Block2	incongruent/STIM_005.jpg	100
1272.149	0.996	996.3	incongruent	Block2	incongruent/STIM_005.jpg	100
1275.192	0.861	860.9	incongruent	Block2	incongruent/STIM_006.jpg	100
1279.105	0.916	916.3	incongruent	Block2	incongruent/STIM_006.jpg	99
1282.739	0.578	578.0	incongruent	Block2	incongruent/STIM_006.jpg	99
1285.821	0.87	869.9	incongruent	Block2	incongruent/STIM_006.jpg	100
1290.181	0.975	974.9	incongruent	Block2	incongruent/STIM_006.jpg	100
1295.086	0.994	994.4	incongruent	Block2	incongruent/STIM_007.jpg	100
1298.741	0.791	790.8	incongruent	Block2	incongruent/STIM_007.jpg	100
1302.636	0.973	972.7	incongruent	Block2	incongruent/STIM_007.jpg	100
1306.785	1.04	1039.8	incongruent	Block2	incongruent/STIM_007.jpg	100
1311.799	0.554	553.9	incongruent	Block2	incongruent/STIM_007.jpg	100
1315.872	1.142	1141.6	incongruent	Block2	incongruent/STIM_008.jpg	99
1319.053	1.115	1115.3	incongruent	Block2	incongruent/STIM_008.jpg	100
1323.482	0.562	562.0	incongruent	Block2	incongruent/STIM_008.jpg	100
1326.9	0.57	569.8	incongruent	Block2	incongruent/STIM_008.jpg	99
1329.952	0.813	812.8	incongruent	Block2	incongruent/STIM_008.jpg	99
1332.967	0.902	901.7	incongruent	Block2	incongruent/STIM_009.jpg	99
1336.512	0.963	963.4	incongruent	Block2	incongruent/STIM_009.jpg	100
1340.613	0.747	747.2	incongruent	Block2	incongruent/STIM_009.jpg	99
1344.831	0.551	550.8	incongruent	Block2	incongruent/STIM_009.jpg	100
1349.256	1.049	1049.4	incongruent	Block2	incongruent/STIM_009.jpg	100
1353.157	0.771	771.2	incongruent	Block2	incongruent/STIM_010.jpg	99
1356.382	1.061	1060.7	incongruent	Block2	incongruent/STIM_010.jpg	100
1361.178	0.727	726.6	incongruent	Block2	incongruent/STIM_010.jpg	100
1364.35	0.715	714.6	incongruent	Block2	incongruent/STIM_010.jpg	99
1367.087	0.82	820.3	incongruent	Block2	incongruent/STIM_010.jpg	100
1371.724	1.054	1054.2	incongruent	Block2	incongruent/STIM_011.jpg	99
1375.324	0.592	591.6	incongruent	Block2	incongruent/STIM_011.jpg	99
1378.026	0.726	725.6	incongruent	Block2	incongruent/STIM_011.jpg	100
1382.309	1.1	1099.8	incongruent	Block2	incongruent/STIM_011.jpg	99
1386.51	0.601	600.9	incongruent	Block2	incongruent/STIM_011.jpg	100
1390.744	1.069	1069.0	incongruent	Block2	incongruent/STIM_012.jpg	99
1394.854	0.712	711.8	incongruent	Block2	incongruent/STIM_012.jpg	99
1398.872	1.072	1071.7	incongruent	Block2	incongruent/STIM_012.jpg	100
1403.802	0.52	520.2	incongruent	Block2	incongruent/STIM_012.jpg	100
1406.716	0.578	577.5	incongruent	Block2	incongruent/STIM_012.jpg	99
1409.443	1.272	1271.8	incongruent	Block2	incongruent/STIM_013.jpg	100
1414.254	0.608	608.2	incongruent	Block2	incongruent/STIM_013.jpg	99
1417.262	0.796	795.6	incongruent	Block2	incongruent/STIM_013.jpg	99
1421.854	0.562	561.7	incongruent	Block2	incongruent/STIM_013.jpg	100
1426.072	0.762	761.7	incongruent	Block2	incongruent/STIM_013.jpg	100
1429.19	0.673	672.8	incongruent	Block2	incongruent/STIM_014.jpg	99
1433.05	0.859	858.9	incongruent	Block2	incongruent/STIM_014.jpg	99
1436.149	0.86	860.1	incongruent	Block2	incongruent/STIM_014.jpg	100
1440.171	0.597	597.0	incongruent	Block2	incongruent/STIM_014.jpg	100
1443.306	0.53	529.9	incongruent	Block2	incongruent/STIM_014.jpg	99
1446.92	1.045	1044.7	incongruent	Block2	incongruent/STIM_015.jpg	99
1451.042	0.649	649.4	incongruent	Block2	incongruent/STIM_015.jpg	99
1454.458	0.944	944.3	incongruent	Block2	incongruent/STIM_015.jpg	100
1459.065	0.719	718.6	incongruent	Block2	incongruent/STIM_015.jpg	100
1462.08	0.908	908.0	incongruent	Block2	incongruent/STIM_015.jpg	100
1465.47	1.202	1202.2	incongruent	Block2	incongruent/STIM_016.jpg	99
1469.558	0.889	889.3	incongruent	Block2	incongruent/STIM_016.jpg	99
1473.36	0.622	622.4	incongruent	Block2	incongruent/STIM_016.jpg	99
1476.145	0.769	769.4	incongruent	Block2	incongruent/STIM_016.jpg	100
1479.528	1.069	1069.2	incongruent	Block2	incongruent/STIM_016.jpg	100
1483.464	1.125	1124.9	incongruent	Block2	incongruent/STIM_017.jpg	100
1488.464	0.812	811.7	incongruent	Block2	incongruent/STIM_017.jpg	100
1493.0	0.711	711.2	incongruent	Block2	incongruent/STIM_017.jpg	100
1496.131	1.009	1008.7	incongruent	Block2	incongruent/STIM_017.jpg	100
1500.018	0.542	542.2	incongruent	Block2	incongruent/STIM_017.jpg	99
1504.323	0.81	810.1	incongruent	Block2	incongruent/STIM_018.jpg	99
1507.158	1.078	1078.3	incongruent	Block2	incongruent/STIM_018.jpg	99
1511.143	0.843	842.7	incongruent	Block2	incongruent/STIM_018.jpg	99
1515.356	0.674	674.3	incongruent	Block2	incongruent/STIM_018.jpg	100
1518.095	1.084	1084.1	incongruent	Block2	incongruent/STIM_018.jpg	99
1521.594	0.717	717.4	incongruent	Block2	incongruent/STIM_019.jpg	100
1525.173	0.71	709.9	incongruent	Block2	incongruent/STIM_019.jpg	100
1529.852	0.836	835.9	incongruent	Block2	incongruent/STIM_019.jpg	99
1534.284	1.036	1036.3	incongruent	Block2	incongruent/STIM_019.jpg	100
1537.338	0.834	833.9	incongruent	Block2	incongruent/STIM_019.jpg	99
1541.503	1.124	1124.2	incongruent	Block2	incongruent/STIM_020.jpg	100
1545.66	1.172	1172.3	incongruent	Block2	incongruent/STIM_020.jpg	99
1549.944	1.135	1135.2	incongruent	Block2	incongruent/STIM_020.jpg	99
1553.534	0.949	949.3	incongruent	Block2	incongruent/STIM_020.jpg	100
1558.45	0.895	895.3	incongruent	Block2	incongruent/STIM_020.jpg	100
1563.055	0.965	965.2	incongruent	Block2	incongruent/STIM_021.jpg	100
1566.55	1.021	1020.9	incongruent	Block2	incongruent/STIM_021.jpg	100
1569.754	1.022	1021.9	incongruent	Block2	incongruent/STIM_021.jpg	100
1574.434	0.773	773.0	incongruent	Block2	incongruent/STIM_021.jpg	100
1578.994	0.755	754.6	incongruent	Block2	incongruent/STIM_021.jpg	100
1583.366	1.215	1215.3	incongruent	Block2	incongruent/STIM_022.jpg	100
1588.226	1.16	1160.4	incongruent	Block2	incongruent/STIM_022.jpg	100
1592.58	0.778	777.8	incongruent	Block2	incongruent/STIM_022.jpg	100
1596.1	0.986	985.5	incongruent	Block2	incongruent/STIM_022.jpg	99
1599.805	0.902	902.5	incongruent	Block2	incongruent/STIM_022.jpg	99
1603.702	1.101	1101.3	incongruent	Block2	incongruent/STIM_023.jpg	99
1608.702	0.626	626.4	incongruent	Block2	incongruent/STIM_023.jpg	99
1612.891	0.65	650.3	incongruent	Block2	incongruent/STIM_023.jpg	100
1616.401	0.649	648.6	incongruent	Block2	incongruent/STIM_023.jpg	99
1619.577	0.916	916.5	incongruent	Block2	incongruent/STIM_023.jpg	100
1623.232	1.321	1320.8	incongruent	Block2	incongruent/STIM_024.jpg	100
1626.846	0.953	953.1	incongruent	Block2	incongruent/STIM_024.jpg	99
1630.575	1.101	1101.0	incongruent	Block2	incongruent/STIM_024.jpg	99
1635.044	0.675	674.6	incongruent	Block2	incongruent/STIM_024.jpg	99
1639.701	0.743	742.6	incongruent	Block2	incongruent/STIM_024.jpg	99
1643.384	0.699	698.8	incongruent	Block2	incongruent/STIM_025.jpg	99
1647.562	1.154	1154.1	incongruent	Block2	incongruent/STIM_025.jpg	99
1650.966	1.131	1131.1	incongruent	Block2	incongruent/STIM_025.jpg	99
1654.322	0.662	661.7	incongruent	Block2	incongruent/STIM_025.jpg	99
1658.744	0.557	557.3	incongruent	Block2	incongruent/STIM_025.jpg	100
1662.258	0.867	866.7	incongruent	Block2	incongruent/STIM_026.jpg	100
1666.511	0.782	781.8	incongruent	Block2	incongruent/STIM_026.jpg	100
1669.54	0.581	580.7	incongruent	Block2	incongruent/STIM_026.jpg	100
1672.967	1.019	1018.6	incongruent	Block2	incongruent/STIM_026.jpg	99
1676.353	0.571	571.1	incongruent	Block2	incongruent/STIM_026.jpg	99
1680.139	1.166	1165.8	incongruent	Block2	incongruent/STIM_027.jpg	100
1684.259	1.021	1020.6	incongruent	Block2	incongruent/STIM_027.jpg	99
1687.552	0.662	662.4	incongruent	Block2	incongruent/STIM_027.jpg	99
1690.24	1.071	1071.4	incongruent	Block2	incongruent/STIM_027.jpg	100
1695.218	0.832	831.7	incongruent	Block2	incongruent/STIM_027.jpg	100
1698.137	0.668	667.5	incongruent	Block2	incongruent/STIM_028.jpg	99
1701.525	1.255	1254.6	incongruent	Block2	incongruent/STIM_028.jpg	100
1706.304	0.699	698.7	incongruent	Block2	incongruent/STIM_028.jpg	99
1709.305	0.683	682.6	incongruent	Block2	incongruent/STIM_028.jpg	100
1713.794	0.692	692.5	incongruent	Block2	incongruent/STIM_028.jpg	100
1717.606	1.067	1067.3	incongruent	Block2	incongruent/STIM_029.jpg	99
1720.99	0.913	912.6	incongruent	Block2	incongruent/STIM_029.jpg	100
1724.183	0.734	734.2	incongruent	Block2	incongruent/STIM_029.jpg	100
1728.853	0.537	536.7	incongruent	Block2	incongruent/STIM_029.jpg	100
1732.071	0.947	947.2	incongruent	Block2	incongruent/STIM_029.jpg	99
1736.686	0.589	588.9	congruent	Block2	congruent/STIM_000.jpg	99
1739.398	0.769	769.0	congruent	Block2	congruent/STIM_000.jpg	100
1743.967	0.756	755.7	congruent	Block2	congruent/STIM_000.jpg	100
1747.045	0.912	912.1	congruent	Block2	congruent/STIM_000.jpg	100
1750.144	0.896	895.9	congruent	Block2	congruent/STIM_000.jpg	100
1754.163	0.713	713.2	congruent	Block2	congruent/STIM_001.jpg	99
1757.834	0.648	648.3	congruent	Block2	congruent/STIM_001.jpg	99
1760.787	0.87	869.7	congruent	Block2	congruent/STIM_001.jpg	99
1764.8	0.595	595.0	congruent	Block2	congruent/STIM_001.jpg	99
1768.829	0.895	895.4	congruent	Block2	congruent/STIM_001.jpg	100
1773.659	0.807	807.3	congruent	Block2	congruent/STIM_002.jpg	99
1778.241	0.904	904.3	congruent	Block2	congruent/STIM_002.jpg	100
1782.751	0.665	664.8	congruent	Block2	congruent/STIM_002.jpg	99
1787.133	0.77	769.9	congruent	Block2	congruent/STIM_002.jpg	99
1790.79	0.648	647.5	congruent	Block2	congruent/STIM_002.jpg	99
1794.71	0.835	834.6	congruent	Block2	congruent/STIM_003.jpg	99
1799.183	0.94	939.9	congruent	Block2	congruent/STIM_003.jpg	99
1803.652	0.714	713.6	congruent	Block2	congruent/STIM_003.jpg	99
1806.397	0.816	816.4	congruent	Block2	congruent/STIM_003.jpg	100
1811.109	0.597	597.2	congruent	Block2	congruent/STIM_003.jpg	99
1813.732	0.701	700.9	congruent	Block2	congruent/STIM_004.jpg	99
1817.427	0.659	659.3	congruent	Block2	congruent/STIM_004.jpg	100
1820.556	0.76	759.5	congruent	Block2	congruent/STIM_004.jpg	99
1824.013	0.725	725.2	congruent	Block2	congruent/STIM_004.jpg	100
1827.571	0.581	581.4	congruent	Block2	congruent/STIM_004.jpg	99
1831.042	0.684	683.6	congruent	Block2	congruent/STIM_005.jpg	99
1833.961	0.694	694.3	congruent	Block2	congruent/STIM_005.jpg	99
1837.665	0.545	545.2	congruent	Block2	congruent/STIM_005.jpg	100
1841.319	0.819	818.8	congruent	Block2	congruent/STIM_005.jpg	99
1845.683	0.821	821.0	congruent	Block2	congruent/STIM_005.jpg	99
1849.989	0.634	633.5	congruent	Block2	congruent/STIM_006.jpg	100
1853.068	0.844	843.8	congruent	Block2	congruent/STIM_006.jpg	99
1856.258	0.804	804.5	congruent	Block2	congruent/STIM_006.jpg	99
1860.705	0.625	625.1	congruent	Block2	congruent/STIM_006.jpg	100
1864.653	0.758	757.5	congruent	Block2	congruent/STIM_006.jpg	99
1868.529	0.567	567.4	congruent	Block2	congruent/STIM_007.jpg	99
1872.095	0.629	629.1	congruent	Block2	congruent/STIM_007.jpg	99
1875.668	0.755	754.8	congruent	Block2	congruent/STIM_007.jpg	99
1880.207	0.584	584.3	congruent	Block2	congruent/STIM_007.jpg	99
1884.444	0.557	556.9	congruent	Block2	congruent/STIM_007.jpg	99
1887.883	0.808	807.8	congruent	Block2	congruent/STIM_008.jpg	100
1891.087	0.575	574.7	congruent	Block2	congruent/STIM_008.jpg	99
1894.239	0.887	887.1	congruent	Block2	congruent/STIM_008.jpg	99
1898.383	0.823	823.1	congruent	Block2	congruent/STIM_008.jpg	99
1902.287	0.572	572.4	congruent	Block2	congruent/STIM_008.jpg	100
1904.933	0.683	683.0	congruent	Block2	congruent/STIM_009.jpg	100
1909.316	0.586	586.1	congruent	Block2	congruent/STIM_009.jpg	100
1912.438	0.783	782.7	congruent	Block2	congruent/STIM_009.jpg	99
1916.191	0.642	642.0	congruent	Block2	congruent/STIM_009.jpg	100
1920.585	0.79	789.8	congruent	Block2	congruent/STIM_009.jpg	100
1923.709	0.715	715.3	congruent	Block2	congruent/STIM_010.jpg	100
1927.263	0.744	743.8	congruent	Block2	congruent/STIM_010.jpg	100
1931.124	0.595	594.7	congruent	Block2	congruent/STIM_010.jpg	100
1934.666	0.755	754.8	congruent	Block2	congruent/STIM_010.jpg	99
1938.484	0.874	874.3	congruent	Block2	congruent/STIM_010.jpg	99
1941.692	0.846	846.2	congruent	Block2	congruent/STIM_011.jpg	99
1944.916	0.578	577.6	congruent	Block2	congruent/STIM_011.jpg	99
1949.167	0.832	832.4	congruent	Block2	congruent/STIM_011.jpg	100
1953.805	0.775	775.2	congruent	Block2	congruent/STIM_011.jpg	100
1958.469	0.679	678.8	congruent	Block2	congruent/STIM_011.jpg	99
1961.833	0.802	802.2	congruent	Block2	congruent/STIM_012.jpg	100
1966.254	0.852	851.7	congruent	Block2	congruent/STIM_012.jpg	99
1969.349	0.902	901.8	congruent	Block2	congruent/STIM_012.jpg	100
1974.225	0.746	746.3	congruent	Block2	congruent/STIM_012.jpg	100
1977.14	0.793	793.0	congruent	Block2	congruent/STIM_012.jpg	100
1981.546	0.636	635.6	congruent	Block2	congruent/STIM_013.jpg	100
1985.126	0.62	619.5	congruent	Block2	congruent/STIM_013.jpg	100
1988.22	0.731	731.2	congruent	Block2	congruent/STIM_013.jpg	100
1991.402	0.67	670.1	congruent	Block2	congruent/STIM_013.jpg	99
1995.26	0.773	773.2	congruent	Block2	congruent/STIM_013.jpg	100
1998.417	0.54	540.1	congruent	Block2	congruent/STIM_014.jpg	100
2002.86	0.544	543.7	congruent	Block2	congruent/STIM_014.jpg	100
2006.191	0.619	618.6	congruent	Block2	congruent/STIM_014.jpg	100
2009.317	0.944	944.0	congruent	Block2	congruent/STIM_014.jpg	99
2014.098	0.94	940.0	congruent	Block2	congruent/STIM_014.jpg	100
2017.129	0.663	663.4	congruent	Block2	congruent/STIM_015.jpg	100
2021.252	0.538	538.1	congruent	Block2	congruent/STIM_015.jpg	100
2025.271	0.645	645.4	congruent	Block2	congruent/STIM_015.jpg	100
2029.742	0.793	793.1	congruent	Block2	congruent/STIM_015.jpg	100
2033.988	0.726	726.3	congruent	Block2	congruent/STIM_015.jpg	100
2037.777	0.606	605.6	congruent	Block2	congruent/STIM_016.jpg	100
2040.997	0.712	711.8	congruent	Block2	congruent/STIM_016.jpg	100
2044.712	0.757	756.7	congruent	Block2	congruent/STIM_016.jpg	99
2048.197	0.943	943.4	congruent	Block2	congruent/STIM_016.jpg	100
2052.104	0.757	756.9	congruent	Block2	congruent/STIM_016.jpg	99
2056.227	0.599	599.2	congruent	Block2	congruent/STIM_017.jpg	99
2060.755	0.529	529.2	congruent	Block2	congruent/STIM_017.jpg	99
2065.038	0.843	843.2	congruent	Block2	congruent/STIM_017.jpg	99
2069.341	0.943	943.1	congruent	Block2	congruent/STIM_017.jpg	100
2072.567	0.885	885.2	congruent	Block2	congruent/STIM_017.jpg	100
2075.953	0.622	622.2	congruent	Block2	congruent/STIM_018.jpg	99
2079.252	0.92	919.9	congruent	Block2	congruent/STIM_018.jpg	100
2084.133	0.53	529.5	congruent	Block2	congruent/STIM_018.jpg	100
2087.755	0.527	526.6	congruent	Block2	congruent/STIM_018.jpg	100
2091.923	0.897	897.0	congruent	Block2	congruent/STIM_018.jpg	99
2096.45	0.581	581.3	congruent	Block2	congruent/STIM_019.jpg	100
2100.36	0.581	580.8	congruent	Block2	congruent/STIM_019.jpg	100
2103.146	0.777	777.3	congruent	Block2	congruent/STIM_019.jpg	100
2106.52	0.629	628.7	congruent	Block2	congruent/STIM_019.jpg	100
2110.179	0.591	591.0	congruent	Block2	congruent/STIM_019.jpg	100
2112.971	0.734	733.9	congruent	Block2	congruent/STIM_020.jpg	100
2117.259	0.638	638.4	congruent	Block2	congruent/STIM_020.jpg	99
2121.217	0.662	662.5	congruent	Block2	congruent/STIM_020.jpg	100
2124.214	0.632	631.5	congruent	Block2	congruent/STIM_020.jpg	100
2127.677	0.756	755.5	congruent	Block2	congruent/STIM_020.jpg	100
2132.386	0.691	690.9	congruent	Block2	congruent/STIM_021.jpg	100
2136.241	0.676	676.4	congruent	Block2	congruent/STIM_021.jpg	100
2139.92	0.709	709.1	congruent	Block2	congruent/STIM_021.jpg	100
2144.275	0.805	805.1	congruent	Block2	congruent/STIM_021.jpg	100
2147.789	0.713	713.4	congruent	Block2	congruent/STIM_021.jpg	99
2150.834	0.685	685.4	congruent	Block2	congruent/STIM_022.jpg	100
2153.563	0.81	810.3	congruent	Block2	congruent/STIM_022.jpg	99
2157.103	0.732	732.0	congruent	Block2	congruent/STIM_022.jpg	99
2160.248	0.864	863.9	congruent	Block2	congruent/STIM_022.jpg	100
2164.265	0.752	752.0	congruent	Block2	congruent/STIM_022.jpg	99
2167.195	0.931	931.4	congruent	Block2	congruent/STIM_023.jpg	100
2170.565	0.578	578.3	congruent	Block2	congruent/STIM_023.jpg	99
2173.675	0.769	769.4	congruent	Block2	congruent/STIM_023.jpg	99
2177.397	0.896	896.4	congruent	Block2	congruent/STIM_023.jpg	99
2180.963	0.578	577.9	congruent	Block2	congruent/STIM_023.jpg	100
2185.375	0.908	908.3	congruent	Block2	congruent/STIM_024.jpg	99
2189.153	0.635	635.3	congruent	Block2	congruent/STIM_024.jpg	100
2192.351	0.574	573.8	congruent	Block2	congruent/STIM_024.jpg	100
2195.726	0.532	531.5	congruent	Block2	congruent/STIM_024.jpg	100
2200.199	0.819	819.1	congruent	Block2	congruent/STIM_024.jpg	100
2203.629	0.558	557.8	congruent	Block2	congruent/STIM_025.jpg	99
2206.727	0.708	708.1	congruent	Block2	congruent/STIM_025.jpg	99
2210.124	0.737	737.2	congruent	Block2	congruent/STIM_025.jpg	100
2213.54	0.659	659.3	congruent	Block2	congruent/STIM_025.jpg	100
2216.441	0.595	595.3	congruent	Block2	congruent/STIM_025.jpg	99
2220.896	0.82	820.2	congruent	Block2	congruent/STIM_026.jpg	99
2225.603	0.564	563.5	congruent	Block2	congruent/STIM_026.jpg	99
2228.841	0.807	806.8	congruent	Block2	congruent/STIM_026.jpg	99
2233.602	0.924	923.8	congruent	Block2	congruent/STIM_026.jpg	100
2237.906	0.912	911.6	congruent	Block2	congruent/STIM_026.jpg	99
2241.611	0.788	787.7	congruent	Block2	congruent/STIM_027.jpg	99
2245.767	0.545	544.7	congruent	Block2	congruent/STIM_027.jpg	99
2250.254	0.78	780.5	congruent	Block2	congruent/STIM_027.jpg	99
2254.379	0.646	645.9	congruent	Block2	congruent/STIM_027.jpg	99
2258.594	0.686	686.1	congruent	Block2	congruent/STIM_027.jpg	100
2261.905	0.879	878.6	congruent	Block2	congruent/STIM_028.jpg	100
2266.032	0.741	741.1	congruent	Block2	congruent/STIM_028.jpg	99
2270.06	0.814	813.6	congruent	Block2	congruent/STIM_028.jpg	100
2273.165	0.667	666.7	congruent	Block2	congruent/STIM_028.jpg	99
2276.671	0.809	808.7	congruent	Block2	congruent/STIM_028.jpg	99
2281.31	0.909	908.8	congruent	Block2	congruent/STIM_029.jpg	99
2284.422	0.742	741.5	congruent	Block2	congruent/STIM_029.jpg	99
2287.605	0.845	844.9	congruent	Block2	congruent/STIM_029.jpg	100
2291.739	0.564	564.4	congruent	Block2	congruent/STIM_029.jpg	99
2294.627	0.917	917.3	congruent	Block2	congruent/STIM_029.jpg	100
2299.511	0.809	809.4	incongruent	Block3	incongruent/STIM_000.jpg	99
2302.386	1.039	1039.1	incongruent	Block3	incongruent/STIM_000.jpg	99
2306.473	0.975	975.2	incongruent	Block3	incongruent/STIM_000.jpg	100
2311.046	0.939	939.4	incongruent	Block3	incongruent/STIM_000.jpg	99
2315.709	0.654	654.3	incongruent	Block3	incongruent/STIM_000.jpg	99
2318.871	0.65	650.1	incongruent	Block3	incongruent/STIM_001.jpg	99
2322.273	0.699	699.4	incongruent	Block3	incongruent/STIM_001.jpg	100
2325.942	1.019	1018.7	incongruent	Block3	incongruent/STIM_001.jpg	100
2329.537	0.881	881.4	incongruent	Block3	incongruent/STIM_001.jpg	100
2333.558	0.814	814.2	incongruent	Block3	incongruent/STIM_001.jpg	100
2338.105	0.744	744.1	incongruent	Block3	incongruent/STIM_002.jpg	99
2341.163	0.944	944.3	incongruent	Block3	incongruent/STIM_002.jpg	99
2344.924	0.822	822.5	incongruent	Block3	incongruent/STIM_002.jpg	99
2348.399	0.626	626.4	incongruent	Block3	incongruent/STIM_002.jpg	100
2352.148	0.97	969.7	incongruent	Block3	incongruent/STIM_002.jpg	100
2356.69	0.966	965.5	incongruent	Block3	incongruent/STIM_003.jpg	99
2359.791	0.916	916.1	incongruent	Block3	incongruent/STIM_003.jpg	100
2362.845	0.906	906.2	incongruent	Block3	incongruent/STIM_003.jpg	99
2366.583	1.06	1060.5	incongruent	Block3	incongruent/STIM_003.jpg	99
2370.436	0.62	620.5	incongruent	Block3	incongruent/STIM_003.jpg	100
2373.52	0.694	694.5	incongruent	Block3	incongruent/STIM_004.jpg	100
2377.031	0.777	776.6	incongruent	Block3	incongruent/STIM_004.jpg	100
2380.979	1.071	1070.9	incongruent	Block3	incongruent/STIM_004.jpg	99
2384.629	1.006	1005.8	incongruent	Block3	incongruent/STIM_004.jpg	99
2388.9	0.606	605.8	incongruent	Block3	incongruent/STIM_004.jpg	99
2391.796	0.614	613.9	incongruent	Block3	incongruent/STIM_005.jpg	100
2395.791	0.99	990.4	incongruent	Block3	incongruent/STIM_005.jpg	100
2400.434	0.858	858.1	incongruent	Block3	incongruent/STIM_005.jpg	100
2404.991	0.955	955.3	incongruent	Block3	incongruent/STIM_005.jpg	100
2409.329	0.931	931.0	incongruent	Block3	incongruent/STIM_005.jpg	99
2413.847	0.783	783.3	incongruent	Block3	incongruent/STIM_006.jpg	100
2416.711	0.828	828.5	incongruent	Block3	incongruent/STIM_006.jpg	99
2421.481	0.777	776.6	incongruent	Block3	incongruent/STIM_006.jpg	100
2425.206	0.665	664.7	incongruent	Block3	incongruent/STIM_006.jpg	100
2429.55	1.1	1099.5	incongruent	Block3	incongruent/STIM_006.jpg	99
2432.921	0.813	812.9	incongruent	Block3	incongruent/STIM_007.jpg	100
2436.036	1.02	1020.5	incongruent	Block3	incongruent/STIM_007.jpg	99
2440.638	0.687	687.4	incongruent	Block3	incongruent/STIM_007.jpg	99
2443.38	1.045	1045.4	incongruent	Block3	incongruent/STIM_007.jpg	99
2448.237	0.762	762.3	incongruent	Block3	incongruent/STIM_007.jpg	100
2452.282	0.621	621.0	incongruent	Block3	incongruent/STIM_008.jpg	100
2454.914	0.592	592.2	incongruent	Block3	incongruent/STIM_008.jpg	100
2459.12	0.724	723.8	incongruent	Block3	incongruent/STIM_008.jpg	100
2463.671	0.794	794.0	incongruent	Block3	incongruent/STIM_008.jpg	100
2467.189	1.018	1018.0	incongruent	Block3	incongruent/STIM_008.jpg	100
2471.966	0.624	623.7	incongruent	Block3	incongruent/STIM_009.jpg	100
2474.594	0.961	961.1	incongruent	Block3	incongruent/STIM_009.jpg	100
2478.782	1.076	1075.6	incongruent	Block3	incongruent/STIM_009.jpg	100
2483.736	0.541	541.2	incongruent	Block3	incongruent/STIM_009.jpg	99
2487.41	1.015	1015.4	incongruent	Block3	incongruent/STIM_009.jpg	100
2492.389	0.622	622.2	incongruent	Block3	incongruent/STIM_010.jpg	99
2496.816	0.984	984.4	incongruent	Block3	incongruent/STIM_010.jpg	99
2500.222	0.858	858.0	incongruent	Block3	incongruent/STIM_010.jpg	100
2503.364	0.728	727.8	incongruent	Block3	incongruent/STIM_010.jpg	99
2507.008	0.579	578.6	incongruent	Block3	incongruent/STIM_010.jpg	100
2510.06	0.564	564.2	incongruent	Block3	incongruent/STIM_011.jpg	100
2513.606	0.628	627.5	incongruent	Block3	incongruent/STIM_011.jpg	100
2517.668	0.804	803.6	incongruent	Block3	incongruent/STIM_011.jpg	100
2521.808	1.028	1027.5	incongruent	Block3	incongruent/STIM_011.jpg	99
2526.264	0.906	905.6	incongruent	Block3	incongruent/STIM_011.jpg	99
2530.799	0.6	600.5	incongruent	Block3	incongruent/STIM_012.jpg	99
2533.813	0.564	564.3	incongruent	Block3	incongruent/STIM_012.jpg	99
2536.838	0.981	981.0	incongruent	Block3	incongruent/STIM_012.jpg	100
2540.179	0.616	616.3	incongruent	Block3	incongruent/STIM_012.jpg	100
2543.155	0.744	743.8	incongruent	Block3	incongruent/STIM_012.jpg	99
2546.162	0.674	674.0	incongruent	Block3	incongruent/STIM_013.jpg	100
2549.766	0.803	803.0	incongruent	Block3	incongruent/STIM_013.jpg	100
2552.67	1.055	1055.1	incongruent	Block3	incongruent/STIM_013.jpg	99
2556.15	0.864	863.5	incongruent	Block3	incongruent/STIM_013.jpg	99
2559.873	0.855	855.3	incongruent	Block3	incongruent/STIM_013.jpg	100
2563.985	0.829	828.7	incongruent	Block3	incongruent/STIM_014.jpg	99
2567.736	0.848	847.8	incongruent	Block3	incongruent/STIM_014.jpg	100
2571.302	0.937	936.7	incongruent	Block3	incongruent/STIM_014.jpg	99
2574.447	0.906	906.4	incongruent	Block3	incongruent/STIM_014.jpg	99
2577.977	0.814	814.2	incongruent	Block3	incongruent/STIM_014.jpg	100
2582.254	0.905	904.9	incongruent	Block3	incongruent/STIM_015.jpg	99
2586.649	0.764	764.1	incongruent	Block3	incongruent/STIM_015.jpg	100
2591.141	0.979	979.4	incongruent	Block3	incongruent/STIM_015.jpg	99
2594.185	0.927	927.2	incongruent	Block3	incongruent/STIM_015.jpg	100
2599.09	0.76	759.7	incongruent	Block3	incongruent/STIM_015.jpg	99
2602.809	0.708	708.4	incongruent	Block3	incongruent/STIM_016.jpg	100
2606.41	0.616	616.4	incongruent	Block3	incongruent/STIM_016.jpg	99
2610.124	0.527	527.3	incongruent	Block3	incongruent/STIM_016.jpg	100
2614.087	0.95	950.5	incongruent	Block3	incongruent/STIM_016.jpg	99
2617.301	1.016	1016.1	incongruent	Block3	incongruent/STIM_016.jpg	99
2621.145	0.919	918.8	incongruent	Block3	incongruent/STIM_017.jpg	99
2625.988	0.827	826.7	incongruent	Block3	incongruent/STIM_017.jpg	99
2629.625	0.658	658.5	incongruent	Block3	incongruent/STIM_017.jpg	100
2634.047	0.536	535.5	incongruent	Block3	incongruent/STIM_017.jpg	100
2637.911	0.578	577.7	incongruent	Block3	incongruent/STIM_017.jpg	99
2641.785	0.625	625.3	incongruent	Block3	incongruent/STIM_018.jpg	100
2644.89	0.873	872.7	incongruent	Block3	incongruent/STIM_018.jpg	100
2648.699	0.795	795.4	incongruent	Block3	incongruent/STIM_018.jpg	99
2653.045	0.514	514.5	incongruent	Block3	incongruent/STIM_018.jpg	99
2657.044	0.831	831.4	incongruent	Block3	incongruent/STIM_018.jpg	99
2659.956	0.618	617.8	incongruent	Block3	incongruent/STIM_019.jpg	99
2662.876	0.64	639.9	incongruent	Block3	incongruent/STIM_019.jpg	99
2667.439	0.848	847.7	incongruent	Block3	incongruent/STIM_019.jpg	99
2670.694	0.583	583.3	incongruent	Block3	incongruent/STIM_019.jpg	99
2674.302	0.8	800.1	incongruent	Block3	incongruent/STIM_019.jpg	100
2678.906	0.749	748.6	incongruent	Block3	incongruent/STIM_020.jpg	99
2682.484	1.071	1070.9	incongruent	Block3	incongruent/STIM_020.jpg	100
2685.772	0.812	811.6	incongruent	Block3	incongruent/STIM_020.jpg	100
2690.193	0.526	525.8	incongruent	Block3	incongruent/STIM_020.jpg	100
2694.041	0.877	876.9	incongruent	Block3	incongruent/STIM_020.jpg	100
2698.186	0.847	847.3	incongruent	Block3	incongruent/STIM_021.jpg	99
2701.842	0.814	814.5	incongruent	Block3	incongruent/STIM_021.jpg	99
2705.569	0.871	871.4	incongruent	Block3	incongruent/STIM_021.jpg	100
2709.761	0.664	663.9	incongruent	Block3	incongruent/STIM_021.jpg	99
2713.669	0.958	958.2	incongruent	Block3	incongruent/STIM_021.jpg	99
2716.913	0.88	880.5	incongruent	Block3	incongruent/STIM_022.jpg	99
2720.707	0.879	879.0	incongruent	Block3	incongruent/STIM_022.jpg	99
2725.098	0.928	928.2	incongruent	Block3	incongruent/STIM_022.jpg	99
2728.366	0.783	783.2	incongruent	Block3	incongruent/STIM_022.jpg	100
2731.508	0.667	667.3	incongruent	Block3	incongruent/STIM_022.jpg	100
2735.908	1.077	1077.4	incongruent	Block3	incongruent/STIM_023.jpg	99
2740.331	0.991	991.4	incongruent	Block3	incongruent/STIM_023.jpg	100
2745.276	0.842	841.5	incongruent	Block3	incongruent/STIM_023.jpg	99
2748.501	0.58	579.5	incongruent	Block3	incongruent/STIM_023.jpg	99
2752.105	0.659	658.9	incongruent	Block3	incongruent/STIM_023.jpg	100
2755.871	0.558	557.7	incongruent	Block3	incongruent/STIM_024.jpg	100
2759.928	0.946	946.1	incongruent	Block3	incongruent/STIM_024.jpg	100
2763.328	1.066	1066.1	incongruent	Block3	incongruent/STIM_024.jpg	99
2767.959	0.856	855.7	incongruent	Block3	incongruent/STIM_024.jpg	100
2771.788	0.716	716.3	incongruent	Block3	incongruent/STIM_024.jpg	99
2775.55	0.988	988.4	incongruent	Block3	incongruent/STIM_025.jpg	100
2779.127	0.602	601.9	incongruent	Block3	incongruent/STIM_025.jpg	99
2782.872	0.608	607.6	incongruent	Block3	incongruent/STIM_025.jpg	99
2787.29	0.986	986.1	incongruent	Block3	incongruent/STIM_025.jpg	100
2791.767	0.712	712.4	incongruent	Block3	incongruent/STIM_025.jpg	99
2794.746	0.942	942.4	incongruent	Block3	incongruent/STIM_026.jpg	99
2798.283	0.897	897.2	incongruent	Block3	incongruent/STIM_026.jpg	99
2801.455	0.568	568.3	incongruent	Block3	incongruent/STIM_026.jpg	99
2804.753	0.695	695.0	incongruent	Block3	incongruent/STIM_026.jpg	100
2809.363	0.97	970.4	incongruent	Block3	incongruent/STIM_026.jpg	100
2814.104	0.713	713.1	incongruent	Block3	incongruent/STIM_027.jpg	99
2817.82	0.916	916.5	incongruent	Block3	incongruent/STIM_027.jpg	100
2822.367	0.648	648.1	incongruent	Block3	incongruent/STIM_027.jpg	100
2825.427	1.036	1036.3	incongruent	Block3	incongruent/STIM_027.jpg	99
2829.454	0.952	952.2	incongruent	Block3	incongruent/STIM_027.jpg	100
2833.382	0.97	969.7	incongruent	Block3	incongruent/STIM_028.jpg	99
2837.539	0.682	681.9	incongruent	Block3	incongruent/STIM_028.jpg	100
2841.858	0.889	889.1	incongruent	Block3	incongruent/STIM_028.jpg	100
2844.97	0.595	595.4	incongruent	Block3	incongruent/STIM_028.jpg	100
2849.453	0.538	537.7	incongruent	Block3	incongruent/STIM_028.jpg	99
2852.908	0.769	768.6	incongruent	Block3	incongruent/STIM_029.jpg	100
2857.011	0.892	892.0	incongruent	Block3	incongruent/STIM_029.jpg	99
2860.404	0.726	725.7	incongruent	Block3	incongruent/STIM_029.jpg	100
2863.292	0.745	744.7	incongruent	Block3	incongruent/STIM_029.jpg	100
2867.848	0.755	755.3	incongruent	Block3	incongruent/STIM_029.jpg	99
2870.69	0.883	883.0	congruent	Block3	congruent/STIM_000.jpg	99
2874.626	0.668	668.5	congruent	Block3	congruent/STIM_000.jpg	99
2877.97	0.555	554.6	congruent	Block3	congruent/STIM_000.jpg	99
2881.162	0.844	844.4	congruent	Block3	congruent/STIM_000.jpg	99
2885.513	0.599	599.1	congruent	Block3	congruent/STIM_000.jpg	99
2889.224	0.794	793.9	congruent	Block3	congruent/STIM_001.jpg	100
2892.716	0.875	875.1	congruent	Block3	congruent/STIM_001.jpg	100
2895.849	0.6	600.4	congruent	Block3	congruent/STIM_001.jpg	100
2900.433	0.647	646.7	congruent	Block3	congruent/STIM_001.jpg	100
2903.653	0.618	618.2	congruent	Block3	congruent/STIM_001.jpg	100
2907.51	0.826	826.4	congruent	Block3	congruent/STIM_002.jpg	99
2910.602	0.529	528.8	congruent	Block3	congruent/STIM_002.jpg	99
2913.624	0.616	616.3	congruent	Block3	congruent/STIM_002.jpg	99
2917.524	0.944	943.5	congruent	Block3	congruent/STIM_002.jpg	100
2921.677	0.785	785.1	congruent	Block3	congruent/STIM_002.jpg	100
2924.807	0.672	672.3	congruent	Block3	congruent/STIM_003.jpg	99
2928.015	0.728	728.2	congruent	Block3	congruent/STIM_003.jpg	99
2930.754	0.918	917.5	congruent	Block3	congruent/STIM_003.jpg	99
2934.042	0.909	908.9	congruent	Block3	congruent/STIM_003.jpg	100
2938.136	0.742	742.2	congruent	Block3	congruent/STIM_003.jpg	99
2941.131	0.526	525.7	congruent	Block3	congruent/STIM_004.jpg	99
2944.309	0.586	585.7	congruent	Block3	congruent/STIM_004.jpg	100
2947.227	0.59	590.1	congruent	Block3	congruent/STIM_004.jpg	99
2950.291	0.55	549.9	congruent	Block3	congruent/STIM_004.jpg	100
2954.502	0.755	755.2	congruent	Block3	congruent/STIM_004.jpg	99
2958.055	0.772	771.7	congruent	Block3	congruent/STIM_005.jpg	100
2961.578	0.734	734.3	congruent	Block3	congruent/STIM_005.jpg	99
2965.968	0.607	607.4	congruent	Block3	congruent/STIM_005.jpg	99
2969.432	0.871	871.1	congruent	Block3	congruent/STIM_005.jpg	100
2972.43	0.828	828.1	congruent	Block3	congruent/STIM_005.jpg	99
2976.238	0.54	539.8	congruent	Block3	congruent/STIM_006.jpg	100
2979.549	0.777	777.2	congruent	Block3	congruent/STIM_006.jpg	100
2983.017	0.716	716.0	congruent	Block3	congruent/STIM_006.jpg	100
2987.563	0.543	543.2	congruent	Block3	congruent/STIM_006.jpg	100
2991.037	0.797	796.8	congruent	Block3	congruent/STIM_006.jpg	100
2994.136	0.556	556.5	congruent	Block3	congruent/STIM_007.jpg	100
2997.625	0.685	684.6	congruent	Block3	congruent/STIM_007.jpg	99
3001.933	0.74	740.0	congruent	Block3	congruent/STIM_007.jpg	100
3005.466	0.594	593.6	congruent	Block3	congruent/STIM_007.jpg	99
3008.772	0.826	826.5	congruent	Block3	congruent/STIM_007.jpg	100
3011.713	0.578	578.0	congruent	Block3	congruent/STIM_008.jpg	100
3016.093	0.763	763.4	congruent	Block3	congruent/STIM_008.jpg	99
3019.316	0.659	659.0	congruent	Block3	congruent/STIM_008.jpg	99
3023.442	0.547	547.2	congruent	Block3	congruent/STIM_008.jpg	100
3027.698	0.839	839.2	congruent	Block3	congruent/STIM_008.jpg	100
3031.272	0.879	879.3	congruent	Block3	congruent/STIM_009.jpg	99
3034.549	0.742	741.6	congruent	Block3	congruent/STIM_009.jpg	100
3037.458	0.752	751.9	congruent	Block3	congruent/STIM_009.jpg	99
3042.115	0.53	529.9	congruent	Block3	congruent/STIM_009.jpg	100
3045.598	0.768	767.9	congruent	Block3	congruent/STIM_009.jpg	99
3049.106	0.558	558.5	congruent	Block3	congruent/STIM_010.jpg	100
3051.739	0.801	801.4	congruent	Block3	congruent/STIM_010.jpg	99
3055.734	0.615	615.0	congruent	Block3	congruent/STIM_010.jpg	100
3058.53	0.599	599.0	congruent	Block3	congruent/STIM_010.jpg	100
3061.339	0.873	872.9	congruent	Block3	congruent/STIM_010.jpg	99
3065.054	0.828	828.4	congruent	Block3	congruent/STIM_011.jpg	99
3068.133	0.668	668.1	congruent	Block3	congruent/STIM_011.jpg	100
3071.0	0.636	635.6	congruent	Block3	congruent/STIM_011.jpg	99
3073.926	0.846	845.6	congruent	Block3	congruent/STIM_011.jpg	99
3078.067	0.691	690.8	congruent	Block3	congruent/STIM_011.jpg	99
3081.058	0.886	885.6	congruent	Block3	congruent/STIM_012.jpg	99
3084.332	0.561	561.2	congruent	Block3	congruent/STIM_012.jpg	100
3087.538	0.611	611.2	congruent	Block3	congruent/STIM_012.jpg	99
3091.146	0.622	621.8	congruent	Block3	congruent/STIM_012.jpg	100
3094.586	0.639	638.7	congruent	Block3	congruent/STIM_012.jpg	100
3098.63	0.774	774.3	congruent	Block3	congruent/STIM_013.jpg	99
3102.368	0.748	747.6	congruent	Block3	congruent/STIM_013.jpg	99
3105.609	0.634	634.2	congruent	Block3	congruent/STIM_013.jpg	99
3109.875	0.61	609.5	congruent	Block3	congruent/STIM_013.jpg	99
3113.499	0.942	942.0	congruent	Block3	congruent/STIM_013.jpg	99
3116.886	0.525	525.1	congruent	Block3	congruent/STIM_014.jpg	99
3121.18	0.741	740.6	congruent	Block3	congruent/STIM_014.jpg	100
3124.934	0.828	828.5	congruent	Block3	congruent/STIM_014.jpg	100
3128.369	0.558	557.6	congruent	Block3	congruent/STIM_014.jpg	99
3132.345	0.559	558.6	congruent	Block3	congruent/STIM_014.jpg	99
3135.826	0.579	579.2	congruent	Block3	congruent/STIM_015.jpg	100
3139.474	0.847	847.4	congruent	Block3	congruent/STIM_015.jpg	100
3143.377	0.803	803.1	congruent	Block3	congruent/STIM_015.jpg	100
3146.803	0.554	553.6	congruent	Block3	congruent/STIM_015.jpg	99
3150.711	0.809	808.9	congruent	Block3	congruent/STIM_015.jpg	100
3153.915	0.68	680.2	congruent	Block3	congruent/STIM_016.jpg	100
3156.875	0.675	674.8	congruent	Block3	congruent/STIM_016.jpg	99
3160.274	0.613	612.6	congruent	Block3	congruent/STIM_016.jpg	100
3163.359	0.6	599.9	congruent	Block3	congruent/STIM_016.jpg	100
3167.095	0.9	899.6	congruent	Block3	congruent/STIM_016.jpg	99
3171.282	0.787	786.7	congruent	Block3	congruent/STIM_017.jpg	100
3175.426	0.565	565.4	congruent	Block3	congruent/STIM_017.jpg	99
3177.996	0.692	691.5	congruent	Block3	congruent/STIM_017.jpg	100
3182.31	0.865	865.1	congruent	Block3	congruent/STIM_017.jpg	100
3186.75	0.844	844.5	congruent	Block3	congruent/STIM_017.jpg	99
3190.196	0.809	808.7	congruent	Block3	congruent/STIM_018.jpg	99
3194.524	0.542	541.9	congruent	Block3	congruent/STIM_018.jpg	99
3198.669	0.598	597.8	congruent	Block3	congruent/STIM_018.jpg	100
3202.509	0.711	711.3	congruent	Block3	congruent/STIM_018.jpg	99
3206.944	0.855	855.3	congruent	Block3	congruent/STIM_018.jpg	99
3210.544	0.679	679.1	congruent	Block3	congruent/STIM_019.jpg	100
3213.873	0.899	899.0	congruent	Block3	congruent/STIM_019.jpg	99
3218.624	0.702	701.9	congruent	Block3	congruent/STIM_019.jpg	100
3221.569	0.79	790.3	congruent	Block3	congruent/STIM_019.jpg	100
3225.016	0.735	735.0	congruent	Block3	congruent/STIM_019.jpg	99
3228.663	0.7	700.1	congruent	Block3	congruent/STIM_020.jpg	99
3231.452	0.619	619.3	congruent	Block3	congruent/STIM_020.jpg	100
3234.739	0.868	867.5	congruent	Block3	congruent/STIM_020.jpg	100
3238.992	0.686	686.1	congruent	Block3	congruent/STIM_020.jpg	100
3242.87	0.925	925.4	congruent	Block3	congruent/STIM_020.jpg	100
3247.09	0.898	898.3	congruent	Block3	congruent/STIM_021.jpg	100
3250.957	0.753	752.6	congruent	Block3	congruent/STIM_021.jpg	100
3255.269	0.742	741.9	congruent	Block3	congruent/STIM_021.jpg	99
3258.618	0.572	572.5	congruent	Block3	congruent/STIM_021.jpg	99
3263.116	0.594	594.5	congruent	Block3	congruent/STIM_021.jpg	99
3266.211	0.746	746.0	congruent	Block3	congruent/STIM_022.jpg	100
3269.791	0.539	539.1	congruent	Block3	congruent/STIM_022.jpg	99
3274.026	0.71	710.3	congruent	Block3	congruent/STIM_022.jpg	99
3278.594	0.545	545.2	congruent	Block3	congruent/STIM_022.jpg	99
3281.901	0.936	936.0	congruent	Block3	congruent/STIM_022.jpg	100
3284.839	0.912	911.7	congruent	Block3	congruent/STIM_023.jpg	100
3288.009	0.618	618.0	congruent	Block3	congruent/STIM_023.jpg	99
3291.643	0.528	527.6	congruent	Block3	congruent/STIM_023.jpg	99
3295.927	0.552	552.3	congruent	Block3	congruent/STIM_023.jpg	100
3298.655	0.781	781.4	congruent	Block3	congruent/STIM_023.jpg	99
3302.719	0.73	730.2	congruent	Block3	congruent/STIM_024.jpg	99
3306.566	0.802	801.8	congruent	Block3	congruent/STIM_024.jpg	100
3309.828	0.712	712.4	congruent	Block3	congruent/STIM_024.jpg	100
3312.923	0.687	686.6	congruent	Block3	congruent/STIM_024.jpg	100
3317.476	0.916	915.9	congruent	Block3	congruent/STIM_024.jpg	99
3321.794	0.907	906.7	congruent	Block3	congruent/STIM_025.jpg	100
3325.23	0.826	826.1	congruent	Block3	congruent/STIM_025.jpg	99
3328.449	0.708	707.6	congruent	Block3	congruent/STIM_025.jpg	99
3332.948	0.676	676.0	congruent	Block3	congruent/STIM_025.jpg	99
3336.804	0.545	545.2	congruent	Block3	congruent/STIM_025.jpg	99
3340.48	0.825	824.7	congruent	Block3	congruent/STIM_026.jpg	99
3344.582	0.773	773.4	congruent	Block3	congruent/STIM_026.jpg	100
3348.906	0.868	867.9	congruent	Block3	congruent/STIM_026.jpg	100
3352.125	0.849	849.1	congruent	Block3	congruent/STIM_026.jpg	100
3356.506	0.831	830.8	congruent	Block3	congruent/STIM_026.jpg	99
3360.566	0.776	776.5	congruent	Block3	congruent/STIM_027.jpg	99
3364.066	0.858	858.4	congruent	Block3	congruent/STIM_027.jpg	99
3367.899	0.751	750.8	congruent	Block3	congruent/STIM_027.jpg	100
3371.98	0.56	560.1	congruent	Block3	congruent/STIM_027.jpg	99
3375.674	0.63	630.5	congruent	Block3	congruent/STIM_027.jpg	100
3379.873	0.826	825.5	congruent	Block3	congruent/STIM_028.jpg	100
3384.538	0.805	805.3	congruent	Block3	congruent/STIM_028.jpg	100
3389.106	0.672	672.4	congruent	Block3	congruent/STIM_028.jpg	99
3392.862	0.793	793.0	congruent	Block3	congruent/STIM_028.jpg	99
3397.216	0.83	830.2	congruent	Block3	congruent/STIM_028.jpg	99
3400.062	0.675	675.1	congruent	Block3	congruent/STIM_029.jpg	100
3403.914	0.937	936.6	congruent	Block3	congruent/STIM_029.jpg	100
3406.981	0.651	651.4	congruent	Block3	congruent/STIM_029.jpg	100
3411.484	0.728	727.5	congruent	Block3	congruent/STIM_029.jpg	99
3415.492	0.57	570.1	congruent	Block3	congruent/STIM_029.jpg	100
