onset	duration	accuracy	trial_type	learning_stage	stimulus
0.0	0.947	correct	incongruent	Block1	incongruent/STIM_000.jpg
4.183	0.835	correct	incongruent	Block1	incongruent/STIM_000.jpg
7.089	0.812	correct	incongruent	Block1	incongruent/STIM_000.jpg
11.698	1.223	correct	incongruent	Block1	incongruent/STIM_000.jpg
16.117	0.846	correct	incongruent	Block1	incongruent/STIM_000.jpg
19.693	1.243	correct	incongruent	Block1	incongruent/STIM_001.jpg
23.407	1.309	correct	incongruent	Block1	incongruent/STIM_001.jpg
27.364	0.972	correct	incongruent	Block1	incongruent/STIM_001.jpg
30.606	1.327	correct	incongruent	Block1	incongruent/STIM_001.jpg
34.816	0.627	correct	incongruent	Block1	incongruent/STIM_001.jpg
38.332	1.258	correct	incongruent	Block1	incongruent/STIM_002.jpg
42.361	1.11	correct	incongruent	Block1	incongruent/STIM_002.jpg
46.914	1.277	correct	incongruent	Block1	incongruent/STIM_002.jpg
51.3	1.32	correct	incongruent	Block1	incongruent/STIM_002.jpg
55.037	0.62	incorrect	incongruent	Block1	incongruent/STIM_002.jpg
59.615	0.81	incorrect	incongruent	Block1	incongruent/STIM_003.jpg
63.442	0.715	correct	incongruent	Block1	incongruent/STIM_003.jpg
66.644	0.728	correct	incongruent	Block1	incongruent/STIM_003.jpg
70.269	1.281	correct	incongruent	Block1	incongruent/STIM_003.jpg
73.765	1.108	correct	incongruent	Block1	incongruent/STIM_003.jpg
76.995	1.092	correct	incongruent	Block1	incongruent/STIM_004.jpg
80.662	0.813	correct	incongruent	Block1	incongruent/STIM_004.jpg
84.517	0.729	correct	incongruent	Block1	incongruent/STIM_004.jpg
88.642	0.75	correct	incongruent	Block1	incongruent/STIM_004.jpg
91.474	1.129	incorrect	incongruent	Block1	incongruent/STIM_004.jpg
95.309	0.746	correct	incongruent	Block1	incongruent/STIM_005.jpg
99.644	1.029	correct	incongruent	Block1	incongruent/STIM_005.jpg
104.422	1.261	incorrect	incongruent	Block1	incongruent/STIM_005.jpg
108.187	0.685	correct	incongruent	Block1	incongruent/STIM_005.jpg
112.794	1.035	correct	incongruent	Block1	incongruent/STIM_005.jpg
116.25	1.248	correct	incongruent	Block1	incongruent/STIM_006.jpg
121.353	0.793	correct	incongruent	Block1	incongruent/STIM_006.jpg
124.69	0.696	correct	incongruent	Block1	incongruent/STIM_006.jpg
129.327	1.083	correct	incongruent	Block1	incongruent/STIM_006.jpg
133.976	0.861	correct	incongruent	Block1	incongruent/STIM_006.jpg
137.829	1.555	incorrect	incongruent	Block1	incongruent/STIM_007.jpg
142.551	1.43	correct	incongruent	Block1	incongruent/STIM_007.jpg
146.673	1.379	correct	incongruent	Block1	incongruent/STIM_007.jpg
151.123	1.139	correct	incongruent	Block1	incongruent/STIM_007.jpg
155.426	1.0	correct	incongruent	Block1	incongruent/STIM_007.jpg
159.991	1.291	incorrect	incongruent	Block1	incongruent/STIM_008.jpg
165.208	1.433	correct	incongruent	Block1	incongruent/STIM_008.jpg
169.563	0.839	correct	incongruent	Block1	incongruent/STIM_008.jpg
174.283	0.734	correct	incongruent	Block1	incongruent/STIM_008.jpg
177.873	0.756	correct	incongruent	Block1	incongruent/STIM_008.jpg
182.228	1.084	correct	incongruent	Block1	incongruent/STIM_009.jpg
186.107	1.43	correct	incongruent	Block1	incongruent/STIM_009.jpg
189.749	1.136	correct	incongruent	Block1	incongruent/STIM_009.jpg
193.012	0.789	correct	incongruent	Block1	incongruent/STIM_009.jpg
195.837	0.782	correct	incongruent	Block1	incongruent/STIM_009.jpg
199.335	1.484	incorrect	incongruent	Block1	incongruent/STIM_010.jpg
203.254	1.118	correct	incongruent	Block1	incongruent/STIM_010.jpg
206.958	1.33	correct	incongruent	Block1	incongruent/STIM_010.jpg
211.221	1.118	correct	incongruent	Block1	incongruent/STIM_010.jpg
216.201	0.808	correct	incongruent	Block1	incongruent/STIM_010.jpg
219.374	1.142	correct	incongruent	Block1	incongruent/STIM_011.jpg
222.641	1.348	correct	incongruent	Block1	incongruent/STIM_011.jpg
227.176	0.677	incorrect	incongruent	Block1	incongruent/STIM_011.jpg
230.747	0.632	correct	incongruent	Block1	incongruent/STIM_011.jpg
234.418	0.712	correct	incongruent	Block1	incongruent/STIM_011.jpg
238.794	1.141	correct	incongruent	Block1	incongruent/STIM_012.jpg
243.166	1.342	correct	incongruent	Block1	incongruent/STIM_012.jpg
247.426	1.137	correct	incongruent	Block1	incongruent/STIM_012.jpg
251.603	1.018	correct	incongruent	Block1	incongruent/STIM_012.jpg
256.277	0.952	incorrect	incongruent	Block1	incongruent/STIM_012.jpg
260.374	0.92	incorrect	incongruent	Block1	incongruent/STIM_013.jpg
263.316	1.327	correct	incongruent	Block1	incongruent/STIM_013.jpg
268.252	0.96	incorrect	incongruent	Block1	incongruent/STIM_013.jpg
272.558	0.959	correct	incongruent	Block1	incongruent/STIM_013.jpg
276.229	0.761	correct	incongruent	Block1	incongruent/STIM_013.jpg
280.939	1.242	correct	incongruent	Block1	incongruent/STIM_014.jpg
285.751	1.463	correct	incongruent	Block1	incongruent/STIM_014.jpg
289.819	1.292	incorrect	incongruent	Block1	incongruent/STIM_014.jpg
293.981	1.037	correct	incongruent	Block1	incongruent/STIM_014.jpg
297.108	0.737	correct	incongruent	Block1	incongruent/STIM_014.jpg
300.088	1.362	incorrect	incongruent	Block1	incongruent/STIM_015.jpg
305.284	0.976	correct	incongruent	Block1	incongruent/STIM_015.jpg
308.758	1.246	correct	incongruent	Block1	incongruent/STIM_015.jpg
312.797	0.832	correct	incongruent	Block1	incongruent/STIM_015.jpg
316.988	0.75	correct	incongruent	Block1	incongruent/STIM_015.jpg
319.993	1.089	correct	incongruent	Block1	incongruent/STIM_016.jpg
323.255	1.459	incorrect	incongruent	Block1	incongruent/STIM_016.jpg
326.832	0.872	correct	incongruent	Block1	incongruent/STIM_016.jpg
331.286	0.734	correct	incongruent	Block1	incongruent/STIM_016.jpg
334.112	0.898	correct	incongruent	Block1	incongruent/STIM_016.jpg
338.284	1.137	incorrect	incongruent	Block1	incongruent/STIM_017.jpg
342.707	1.055	correct	incongruent	Block1	incongruent/STIM_017.jpg
346.008	1.335	correct	incongruent	Block1	incongruent/STIM_017.jpg
349.462	1.251	correct	incongruent	Block1	incongruent/STIM_017.jpg
353.129	0.988	incorrect	incongruent	Block1	incongruent/STIM_017.jpg
356.889	1.26	incorrect	incongruent	Block1	incongruent/STIM_018.jpg
361.371	1.448	correct	incongruent	Block1	incongruent/STIM_018.jpg
365.677	1.057	correct	incongruent	Block1	incongruent/STIM_018.jpg
369.931	1.047	correct	incongruent	Block1	incongruent/STIM_018.jpg
374.052	0.651	correct	incongruent	Block1	incongruent/STIM_018.jpg
378.427	1.377	correct	incongruent	Block1	incongruent/STIM_019.jpg
382.2	0.847	correct	incongruent	Block1	incongruent/STIM_019.jpg
385.335	0.835	correct	incongruent	Block1	incongruent/STIM_019.jpg
388.481	1.251	correct	incongruent	Block1	incongruent/STIM_019.jpg
393.518	1.141	correct	incongruent	Block1	incongruent/STIM_019.jpg
398.424	1.464	correct	incongruent	Block1	incongruent/STIM_020.jpg
402.731	0.824	correct	incongruent	Block1	incongruent/STIM_020.jpg
407.212	1.175	correct	incongruent	Block1	incongruent/STIM_020.jpg
411.405	0.816	correct	incongruent	Block1	incongruent/STIM_020.jpg
415.32	1.027	incorrect	incongruent	Block1	incongruent/STIM_020.jpg
418.902	1.024	correct	incongruent	Block1	incongruent/STIM_021.jpg
422.811	1.074	correct	incongruent	Block1	incongruent/STIM_021.jpg
426.454	0.734	correct	incongruent	Block1	incongruent/STIM_021.jpg
430.784	1.209	correct	incongruent	Block1	incongruent/STIM_021.jpg
435.188	0.635	correct	incongruent	Block1	incongruent/STIM_021.jpg
439.275	1.223	correct	incongruent	Block1	incongruent/STIM_022.jpg
442.492	1.188	incorrect	incongruent	Block1	incongruent/STIM_022.jpg
446.726	0.893	correct	incongruent	Block1	incongruent/STIM_022.jpg
450.006	0.99	correct	incongruent	Block1	incongruent/STIM_022.jpg
453.887	0.882	correct	incongruent	Block1	incongruent/STIM_022.jpg
458.188	1.276	correct	incongruent	Block1	incongruent/STIM_023.jpg
462.168	0.913	correct	incongruent	Block1	incongruent/STIM_023.jpg
465.989	1.083	incorrect	incongruent	Block1	incongruent/STIM_023.jpg
470.365	0.647	correct	incongruent	Block1	incongruent/STIM_023.jpg
474.066	1.228	correct	incongruent	Block1	incongruent/STIM_023.jpg
478.349	0.853	incorrect	incongruent	Block1	incongruent/STIM_024.jpg
482.418	0.818	incorrect	incongruent	Block1	incongruent/STIM_024.jpg
486.118	0.885	correct	incongruent	Block1	incongruent/STIM_024.jpg
490.505	0.952	correct	incongruent	Block1	incongruent/STIM_024.jpg
494.651	0.904	correct	incongruent	Block1	incongruent/STIM_024.jpg
498.194	1.278	correct	incongruent	Block1	incongruent/STIM_025.jpg
502.324	0.735	correct	incongruent	Block1	incongruent/STIM_025.jpg
505.076	1.128	correct	incongruent	Block1	incongruent/STIM_025.jpg
509.958	0.99	correct	incongruent	Block1	incongruent/STIM_025.jpg
514.137	1.021	correct	incongruent	Block1	incongruent/STIM_025.jpg
517.688	1.121	correct	incongruent	Block1	incongruent/STIM_026.jpg
520.877	1.48	correct	incongruent	Block1	incongruent/STIM_026.jpg
525.118	0.836	correct	incongruent	Block1	incongruent/STIM_026.jpg
528.534	0.786	correct	incongruent	Block1	incongruent/STIM_026.jpg
531.665	1.014	correct	incongruent	Block1	incongruent/STIM_026.jpg
535.252	1.422	incorrect	incongruent	Block1	incongruent/STIM_027.jpg
539.574	0.771	correct	incongruent	Block1	incongruent/STIM_027.jpg
543.581	1.272	correct	incongruent	Block1	incongruent/STIM_027.jpg
548.303	1.296	incorrect	incongruent	Block1	incongruent/STIM_027.jpg
553.136	0.987	correct	incongruent	Block1	incongruent/STIM_027.jpg
556.453	0.967	incorrect	incongruent	Block1	incongruent/STIM_028.jpg
561.059	0.812	correct	incongruent	Block1	incongruent/STIM_028.jpg
565.045	0.807	correct	incongruent	Block1	incongruent/STIM_028.jpg
568.048	0.843	correct	incongruent	Block1	incongruent/STIM_028.jpg
572.691	1.227	correct	incongruent	Block1	incongruent/STIM_028.jpg
576.757	0.857	correct	incongruent	Block1	incongruent/STIM_029.jpg
580.858	1.392	correct	incongruent	Block1	incongruent/STIM_029.jpg
584.702	0.733	correct	incongruent	Block1	incongruent/STIM_029.jpg
588.031	1.129	incorrect	incongruent	Block1	incongruent/STIM_029.jpg
592.15	0.802	correct	incongruent	Block1	incongruent/STIM_029.jpg
595.011	0.73	incorrect	congruent	Block1	congruent/STIM_000.jpg
598.89	0.584	correct	congruent	Block1	congruent/STIM_000.jpg
601.941	0.622	correct	congruent	Block1	congruent/STIM_000.jpg
605.813	0.644	correct	congruent	Block1	congruent/STIM_000.jpg
609.362	0.805	correct	congruent	Block1	congruent/STIM_000.jpg
612.583	0.642	correct	congruent	Block1	congruent/STIM_001.jpg
616.951	0.626	correct	congruent	Block1	congruent/STIM_001.jpg
621.491	0.832	correct	congruent	Block1	congruent/STIM_001.jpg
624.442	0.544	correct	congruent	Block1	congruent/STIM_001.jpg
628.89	0.941	correct	congruent	Block1	congruent/STIM_001.jpg
632.575	0.772	correct	congruent	Block1	congruent/STIM_002.jpg
635.647	0.579	correct	congruent	Block1	congruent/STIM_002.jpg
639.773	0.569	correct	congruent	Block1	congruent/STIM_002.jpg
643.409	0.633	correct	congruent	Block1	congruent/STIM_002.jpg
647.615	0.668	correct	congruent	Block1	congruent/STIM_002.jpg
651.424	0.642	correct	congruent	Block1	congruent/STIM_003.jpg
655.553	0.662	correct	congruent	Block1	congruent/STIM_003.jpg
658.655	0.567	correct	congruent	Block1	congruent/STIM_003.jpg
662.668	0.647	correct	congruent	Block1	congruent/STIM_003.jpg
665.815	0.611	correct	congruent	Block1	congruent/STIM_003.jpg
668.861	0.773	correct	congruent	Block1	congruent/STIM_004.jpg
672.377	0.619	correct	congruent	Block1	congruent/STIM_004.jpg
675.591	0.918	correct	congruent	Block1	congruent/STIM_004.jpg
679.098	0.571	correct	congruent	Block1	congruent/STIM_004.jpg
683.54	0.535	correct	congruent	Block1	congruent/STIM_004.jpg
686.381	0.68	correct	congruent	Block1	congruent/STIM_005.jpg
689.991	0.766	correct	congruent	Block1	congruent/STIM_005.jpg
693.983	0.854	correct	congruent	Block1	congruent/STIM_005.jpg
698.006	0.693	correct	congruent	Block1	congruent/STIM_005.jpg
701.513	0.906	correct	congruent	Block1	congruent/STIM_005.jpg
705.59	0.869	correct	congruent	Block1	congruent/STIM_006.jpg
710.139	0.535	correct	congruent	Block1	congruent/STIM_006.jpg
713.684	0.611	correct	congruent	Block1	congruent/STIM_006.jpg
717.848	0.902	correct	congruent	Block1	congruent/STIM_006.jpg
722.549	0.601	correct	congruent	Block1	congruent/STIM_006.jpg
725.288	0.614	correct	congruent	Block1	congruent/STIM_007.jpg
728.431	0.897	correct	congruent	Block1	congruent/STIM_007.jpg
732.107	0.936	correct	congruent	Block1	congruent/STIM_007.jpg
736.135	0.824	correct	congruent	Block1	congruent/STIM_007.jpg
740.369	0.6	correct	congruent	Block1	congruent/STIM_007.jpg
743.702	0.827	correct	congruent	Block1	congruent/STIM_008.jpg
746.782	0.878	incorrect	congruent	Block1	congruent/STIM_008.jpg
751.376	0.636	correct	congruent	Block1	congruent/STIM_008.jpg
755.982	0.552	correct	congruent	Block1	congruent/STIM_008.jpg
759.62	0.855	correct	congruent	Block1	congruent/STIM_008.jpg
762.673	0.575	correct	congruent	Block1	congruent/STIM_009.jpg
766.043	0.86	correct	congruent	Block1	congruent/STIM_009.jpg
769.089	0.746	correct	congruent	Block1	congruent/STIM_009.jpg
772.172	0.625	correct	congruent	Block1	congruent/STIM_009.jpg
775.044	0.682	correct	congruent	Block1	congruent/STIM_009.jpg
779.299	0.652	correct	congruent	Block1	congruent/STIM_010.jpg
783.386	0.899	correct	congruent	Block1	congruent/STIM_010.jpg
786.35	0.893	correct	congruent	Block1	congruent/STIM_010.jpg
789.407	0.538	correct	congruent	Block1	congruent/STIM_010.jpg
792.249	0.551	incorrect	congruent	Block1	congruent/STIM_010.jpg
795.121	0.848	correct	congruent	Block1	congruent/STIM_011.jpg
798.723	0.836	correct	congruent	Block1	congruent/STIM_011.jpg
802.285	0.788	incorrect	congruent	Block1	congruent/STIM_011.jpg
805.867	0.595	correct	congruent	Block1	congruent/STIM_011.jpg
810.08	0.587	correct	congruent	Block1	congruent/STIM_011.jpg
813.258	0.873	correct	congruent	Block1	congruent/STIM_012.jpg
816.974	0.662	incorrect	congruent	Block1	congruent/STIM_012.jpg
820.316	0.818	correct	congruent	Block1	congruent/STIM_012.jpg
823.886	0.728	correct	congruent	Block1	congruent/STIM_012.jpg
828.05	0.66	correct	congruent	Block1	congruent/STIM_012.jpg
831.963	0.804	correct	congruent	Block1	congruent/STIM_013.jpg
836.7	0.693	correct	congruent	Block1	congruent/STIM_013.jpg
840.281	0.687	correct	congruent	Block1	congruent/STIM_013.jpg
844.452	0.669	correct	congruent	Block1	congruent/STIM_013.jpg
848.21	0.923	correct	congruent	Block1	congruent/STIM_013.jpg
851.144	0.862	correct	congruent	Block1	congruent/STIM_014.jpg
854.138	0.6	correct	congruent	Block1	congruent/STIM_014.jpg
857.881	0.82	correct	congruent	Block1	congruent/STIM_014.jpg
862.551	0.579	correct	congruent	Block1	congruent/STIM_014.jpg
866.117	0.548	correct	congruent	Block1	congruent/STIM_014.jpg
869.667	0.665	correct	congruent	Block1	congruent/STIM_015.jpg
872.84	0.525	correct	congruent	Block1	congruent/STIM_015.jpg
875.921	0.654	correct	congruent	Block1	congruent/STIM_015.jpg
878.938	0.878	correct	congruent	Block1	congruent/STIM_015.jpg
881.958	0.743	correct	congruent	Block1	congruent/STIM_015.jpg
885.722	0.634	correct	congruent	Block1	congruent/STIM_016.jpg
889.393	0.791	correct	congruent	Block1	congruent/STIM_016.jpg
893.126	0.565	correct	congruent	Block1	congruent/STIM_016.jpg
895.704	0.902	correct	congruent	Block1	congruent/STIM_016.jpg
899.932	0.785	correct	congruent	Block1	congruent/STIM_016.jpg
904.143	0.81	correct	congruent	Block1	congruent/STIM_017.jpg
908.868	0.62	correct	congruent	Block1	congruent/STIM_017.jpg
912.969	0.846	correct	congruent	Block1	congruent/STIM_017.jpg
917.376	0.735	correct	congruent	Block1	congruent/STIM_017.jpg
920.09	0.524	incorrect	congruent	Block1	congruent/STIM_017.jpg
923.388	0.79	correct	congruent	Block1	congruent/STIM_018.jpg
926.807	0.698	correct	congruent	Block1	congruent/STIM_018.jpg
931.123	0.712	correct	congruent	Block1	congruent/STIM_018.jpg
935.785	0.78	correct	congruent	Block1	congruent/STIM_018.jpg
940.287	0.748	correct	congruent	Block1	congruent/STIM_018.jpg
943.653	0.744	incorrect	congruent	Block1	congruent/STIM_019.jpg
946.425	0.671	correct	congruent	Block1	congruent/STIM_019.jpg
949.638	0.782	correct	congruent	Block1	congruent/STIM_019.jpg
953.434	0.929	correct	congruent	Block1	congruent/STIM_019.jpg
957.674	0.793	incorrect	congruent	Block1	congruent/STIM_019.jpg
962.3	0.72	correct	congruent	Block1	congruent/STIM_020.jpg
965.349	0.525	correct	congruent	Block1	congruent/STIM_020.jpg
969.738	0.614	correct	congruent	Block1	congruent/STIM_020.jpg
972.923	0.564	correct	congruent	Block1	congruent/STIM_020.jpg
975.965	0.528	incorrect	congruent	Block1	congruent/STIM_020.jpg
979.227	0.89	correct	congruent	Block1	congruent/STIM_021.jpg
982.96	0.711	correct	congruent	Block1	congruent/STIM_021.jpg
986.071	0.668	correct	congruent	Block1	congruent/STIM_021.jpg
989.908	0.746	correct	congruent	Block1	congruent/STIM_021.jpg
993.244	0.627	correct	congruent	Block1	congruent/STIM_021.jpg
997.444	0.939	correct	congruent	Block1	congruent/STIM_022.jpg
1000.729	0.93	correct	congruent	Block1	congruent/STIM_022.jpg
1003.642	0.714	correct	congruent	Block1	congruent/STIM_022.jpg
1006.943	0.596	correct	congruent	Block1	congruent/STIM_022.jpg
1011.423	0.923	correct	congruent	Block1	congruent/STIM_022.jpg
1014.61	0.769	correct	congruent	Block1	congruent/STIM_023.jpg
1017.608	0.769	correct	congruent	Block1	congruent/STIM_023.jpg
1020.892	0.906	correct	congruent	Block1	congruent/STIM_023.jpg
1025.375	0.663	correct	congruent	Block1	congruent/STIM_023.jpg
1028.513	0.556	correct	congruent	Block1	congruent/STIM_023.jpg
1031.068	0.589	correct	congruent	Block1	congruent/STIM_024.jpg
1034.005	0.576	correct	congruent	Block1	congruent/STIM_024.jpg
1037.295	0.759	incorrect	congruent	Block1	congruent/STIM_024.jpg
1040.067	0.815	correct	congruent	Block1	congruent/STIM_024.jpg
1044.778	0.918	correct	congruent	Block1	congruent/STIM_024.jpg
1048.702	0.736	correct	congruent	Block1	congruent/STIM_025.jpg
1051.554	0.654	correct	congruent	Block1	congruent/STIM_025.jpg
1054.987	0.84	correct	congruent	Block1	congruent/STIM_025.jpg
1058.48	0.606	correct	congruent	Block1	congruent/STIM_025.jpg
1062.52	0.525	correct	congruent	Block1	congruent/STIM_025.jpg
1065.883	0.863	correct	congruent	Block1	congruent/STIM_026.jpg
1069.532	0.872	correct	congruent	Block1	congruent/STIM_026.jpg
1073.453	0.847	correct	congruent	Block1	congruent/STIM_026.jpg
1078.066	0.764	correct	congruent	Block1	congruent/STIM_026.jpg
1082.608	0.864	incorrect	congruent	Block1	congruent/STIM_026.jpg
1087.268	0.532	correct	congruent	Block1	congruent/STIM_027.jpg
1091.123	0.866	correct	congruent	Block1	congruent/STIM_027.jpg
1094.072	0.841	correct	congruent	Block1	congruent/STIM_027.jpg
1097.617	0.562	correct	congruent	Block1	congruent/STIM_027.jpg
1101.233	0.599	correct	congruent	Block1	congruent/STIM_027.jpg
1104.372	0.8	correct	congruent	Block1	congruent/STIM_028.jpg
1107.738	0.922	correct	congruent	Block1	congruent/STIM_028.jpg
1111.813	0.568	correct	congruent	Block1	congruent/STIM_028.jpg
1114.604	0.684	correct	congruent	Block1	congruent/STIM_028.jpg
1117.54	0.887	correct	congruent	Block1	congruent/STIM_028.jpg
1121.235	0.709	correct	congruent	Block1	congruent/STIM_029.jpg
1125.474	0.793	correct	congruent	Block1	congruent/STIM_029.jpg
1128.311	0.808	correct	congruent	Block1	congruent/STIM_029.jpg
1131.179	0.849	correct	congruent	Block1	congruent/STIM_029.jpg
1135.64	0.921	correct	congruent	Block1	congruent/STIM_029.jpg
1138.626	1.297	correct	incongruent	Block2	incongruent/STIM_000.jpg
1141.892	1.066	correct	incongruent	Block2	incongruent/STIM_000.jpg
1145.242	1.026	correct	incongruent	Block2	incongruent/STIM_000.jpg
1149.22	1.049	correct	incongruent	Block2	incongruent/STIM_000.jpg
1153.939	0.557	correct	incongruent	Block2	incongruent/STIM_000.jpg
1157.549	1.038	correct	incongruent	Block2	incongruent/STIM_001.jpg
1161.972	0.84	correct	incongruent	Block2	incongruent/STIM_001.jpg
1165.886	0.667	correct	incongruent	Block2	incongruent/STIM_001.jpg
1168.921	1.068	correct	incongruent	Block2	incongruent/STIM_001.jpg
1173.477	0.861	correct	incongruent	Block2	incongruent/STIM_001.jpg
1176.363	1.181	correct	incongruent	Block2	incongruent/STIM_002.jpg
1179.767	1.084	correct	incongruent	Block2	incongruent/STIM_002.jpg
1184.316	0.612	correct	incongruent	Block2	incongruent/STIM_002.jpg
1187.869	0.87	correct	incongruent	Block2	incongruent/STIM_002.jpg
1192.606	0.59	correct	incongruent	Block2	incongruent/STIM_002.jpg
1196.066	1.248	correct	incongruent	Block2	incongruent/STIM_003.jpg
1200.626	1.125	incorrect	incongruent	Block2	incongruent/STIM_003.jpg
1203.99	1.069	correct	incongruent	Block2	incongruent/STIM_003.jpg
1208.997	0.955	correct	incongruent	Block2	incongruent/STIM_003.jpg
1212.674	1.013	correct	incongruent	Block2	incongruent/STIM_003.jpg
1217.264	0.776	correct	incongruent	Block2	incongruent/STIM_004.jpg
1221.126	0.892	correct	incongruent	Block2	incongruent/STIM_004.jpg
1225.759	1.067	correct	incongruent	Block2	incongruent/STIM_004.jpg
1229.123	0.876	correct	incongruent	Block2	incongruent/STIM_004.jpg
1232.265	1.047	correct	incongruent	Block2	incongruent/STIM_004.jpg
1235.857	1.179	correct	incongruent	Block2	incongruent/STIM_005.jpg
1239.194	1.125	correct	incongruent	Block2	incongruent/STIM_005.jpg
1242.378	1.063	correct	incongruent	Block2	incongruent/STIM_005.jpg
1247.171	1.0	correct	incongruent	Block2	incongruent/STIM_005.jpg
1252.07	0.621	incorrect	incongruent	Block2	incongruent/STIM_005.jpg
1255.231	0.974	correct	incongruent	Block2	incongruent/STIM_006.jpg
1259.667	1.204	correct	incongruent	Block2	incongruent/STIM_006.jpg
1264.525	0.582	correct	incongruent	Block2	incongruent/STIM_006.jpg
1268.046	0.89	correct	incongruent	Block2	incongruent/STIM_006.jpg
1272.664	0.528	correct	incongruent	Block2	incongruent/STIM_006.jpg
1276.486	1.038	correct	incongruent	Block2	incongruent/STIM_007.jpg
1280.402	1.077	correct	incongruent	Block2	incongruent/STIM_007.jpg
1283.72	1.098	correct	incongruent	Block2	incongruent/STIM_007.jpg
1288.076	0.84	correct	incongruent	Block2	incongruent/STIM_007.jpg
1292.077	0.626	correct	incongruent	Block2	incongruent/STIM_007.jpg
1295.907	1.183	correct	incongruent	Block2	incongruent/STIM_008.jpg
1299.114	1.153	correct	incongruent	Block2	incongruent/STIM_008.jpg
1302.732	1.106	correct	incongruent	Block2	incongruent/STIM_008.jpg
1306.805	0.964	correct	incongruent	Block2	incongruent/STIM_008.jpg
1311.295	0.712	correct	incongruent	Block2	incongruent/STIM_008.jpg
1314.018	0.906	correct	incongruent	Block2	incongruent/STIM_009.jpg
1317.454	0.603	correct	incongruent	Block2	incongruent/STIM_009.jpg
1320.949	1.152	correct	incongruent	Block2	incongruent/STIM_009.jpg
1324.743	0.549	correct	incongruent	Block2	incongruent/STIM_009.jpg
1327.718	0.756	correct	incongruent	Block2	incongruent/STIM_009.jpg
1331.441	0.875	correct	incongruent	Block2	incongruent/STIM_010.jpg
1334.794	1.104	correct	incongruent	Block2	incongruent/STIM_010.jpg
1339.029	1.174	correct	incongruent	Block2	incongruent/STIM_010.jpg
1343.513	0.956	correct	incongruent	Block2	incongruent/STIM_010.jpg
1346.487	0.599	correct	incongruent	Block2	incongruent/STIM_010.jpg
1349.458	0.8	correct	incongruent	Block2	incongruent/STIM_011.jpg
1353.557	1.01	correct	incongruent	Block2	incongruent/STIM_011.jpg
1356.746	0.856	correct	incongruent	Block2	incongruent/STIM_011.jpg
1360.218	0.666	correct	incongruent	Block2	incongruent/STIM_011.jpg
1363.093	0.536	correct	incongruent	Block2	incongruent/STIM_011.jpg
1366.997	1.091	correct	incongruent	Block2	incongruent/STIM_012.jpg
1370.53	1.157	correct	incongruent	Block2	incongruent/STIM_012.jpg
1373.99	0.574	correct	incongruent	Block2	incongruent/STIM_012.jpg
1377.882	0.954	correct	incongruent	Block2	incongruent/STIM_012.jpg
1382.685	0.866	correct	incongruent	Block2	incongruent/STIM_012.jpg
1386.338	1.238	correct	incongruent	Block2	incongruent/STIM_013.jpg
1390.125	1.17	correct	incongruent	Block2	incongruent/STIM_013.jpg
1394.747	0.671	correct	incongruent	Block2	incongruent/STIM_013.jpg
1398.478	1.002	correct	incongruent	Block2	incongruent/STIM_013.jpg
1403.378	0.592	correct	incongruent	Block2	incongruent/STIM_013.jpg
1407.544	1.134	correct	incongruent	Block2	incongruent/STIM_014.jpg
1411.642	1.018	correct	incongruent	Block2	incongruent/STIM_014.jpg
1416.101	1.069	correct	incongruent	Block2	incongruent/STIM_014.jpg
1421.02	0.688	correct	incongruent	Block2	incongruent/STIM_014.jpg
1425.487	0.938	correct	incongruent	Block2	incongruent/STIM_014.jpg
1430.214	0.739	correct	incongruent	Block2	incongruent/STIM_015.jpg
1433.682	0.981	correct	incongruent	Block2	incongruent/STIM_015.jpg
1436.924	0.637	correct	incongruent	Block2	incongruent/STIM_015.jpg
1439.782	0.726	correct	incongruent	Block2	incongruent/STIM_015.jpg
1442.869	1.089	correct	incongruent	Block2	incongruent/STIM_015.jpg
1447.519	1.084	correct	incongruent	Block2	incongruent/STIM_016.jpg
1451.636	0.883	correct	incongruent	Block2	incongruent/STIM_016.jpg
1456.438	0.574	correct	incongruent	Block2	incongruent/STIM_016.jpg
1460.449	0.544	correct	incongruent	Block2	incongruent/STIM_016.jpg
1463.976	0.52	correct	incongruent	Block2	incongruent/STIM_016.jpg
1467.184	1.241	correct	incongruent	Block2	incongruent/STIM_017.jpg
1470.398	0.673	correct	incongruent	Block2	incongruent/STIM_017.jpg
1473.936	0.695	correct	incongruent	Block2	incongruent/STIM_017.jpg
1478.498	0.764	correct	incongruent	Block2	incongruent/STIM_017.jpg
1481.241	0.727	correct	incongruent	Block2	incongruent/STIM_017.jpg
1484.787	1.131	correct	incongruent	Block2	incongruent/STIM_018.jpg
1489.532	0.918	correct	incongruent	Block2	incongruent/STIM_018.jpg
1493.431	0.572	correct	incongruent	Block2	incongruent/STIM_018.jpg
1497.13	1.0	correct	incongruent	Block2	incongruent/STIM_018.jpg
1501.71	1.034	correct	incongruent	Block2	incongruent/STIM_018.jpg
1506.037	1.045	correct	incongruent	Block2	incongruent/STIM_019.jpg
1510.09	1.229	correct	incongruent	Block2	incongruent/STIM_019.jpg
1515.0	0.63	correct	incongruent	Block2	incongruent/STIM_019.jpg
1518.515	0.683	correct	incongruent	Block2	incongruent/STIM_019.jpg
1522.253	0.821	correct	incongruent	Block2	incongruent/STIM_019.jpg
1525.43	0.735	incorrect	incongruent	Block2	incongruent/STIM_020.jpg
1528.764	1.256	correct	incongruent	Block2	incongruent/STIM_020.jpg
1533.954	0.648	correct	incongruent	Block2	incongruent/STIM_020.jpg
1536.688	0.814	correct	incongruent	Block2	incongruent/STIM_020.jpg
1540.47	0.867	correct	incongruent	Block2	incongruent/STIM_020.jpg
1544.709	1.275	correct	incongruent	Block2	incongruent/STIM_021.jpg
1549.483	0.852	correct	incongruent	Block2	incongruent/STIM_021.jpg
1553.022	0.884	correct	incongruent	Block2	incongruent/STIM_021.jpg
1555.957	0.899	correct	incongruent	Block2	incongruent/STIM_021.jpg
1559.549	0.962	correct	incongruent	Block2	incongruent/STIM_021.jpg
1563.584	0.942	correct	incongruent	Block2	incongruent/STIM_022.jpg
1566.51	0.999	correct	incongruent	Block2	incongruent/STIM_022.jpg
1571.278	0.71	correct	incongruent	Block2	incongruent/STIM_022.jpg
1574.271	0.573	correct	incongruent	Block2	incongruent/STIM_022.jpg
1578.673	0.958	correct	incongruent	Block2	incongruent/STIM_022.jpg
1581.847	0.857	correct	incongruent	Block2	incongruent/STIM_023.jpg
1586.43	0.881	correct	incongruent	Block2	incongruent/STIM_023.jpg
1589.283	0.879	correct	incongruent	Block2	incongruent/STIM_023.jpg
1594.024	0.814	correct	incongruent	Block2	incongruent/STIM_023.jpg
1598.725	0.778	correct	incongruent	Block2	incongruent/STIM_023.jpg
1603.396	0.659	correct	incongruent	Block2	incongruent/STIM_024.jpg
1607.511	1.232	correct	incongruent	Block2	incongruent/STIM_024.jpg
1611.423	0.681	correct	incongruent	Block2	incongruent/STIM_024.jpg
1614.462	0.531	correct	incongruent	Block2	incongruent/STIM_024.jpg
1618.099	1.06	incorrect	incongruent	Block2	incongruent/STIM_024.jpg
1621.434	1.172	correct	incongruent	Block2	incongruent/STIM_025.jpg
1625.982	1.235	correct	incongruent	Block2	incongruent/STIM_025.jpg
1630.209	0.652	incorrect	incongruent	Block2	incongruent/STIM_025.jpg
1633.304	0.714	correct	incongruent	Block2	incongruent/STIM_025.jpg
1637.601	0.592	correct	incongruent	Block2	incongruent/STIM_025.jpg
1641.344	1.246	correct	incongruent	Block2	incongruent/STIM_026.jpg
1646.1	1.129	correct	incongruent	Block2	incongruent/STIM_026.jpg
1650.968	0.819	correct	incongruent	Block2	incongruent/STIM_026.jpg
1653.854	0.981	correct	incongruent	Block2	incongruent/STIM_026.jpg
1658.434	0.991	correct	incongruent	Block2	incongruent/STIM_026.jpg
1661.997	1.006	correct	incongruent	Block2	incongruent/STIM_027.jpg
1665.429	0.716	correct	incongruent	Block2	incongruent/STIM_027.jpg
1668.34	0.742	correct	incongruent	Block2	incongruent/STIM_027.jpg
1672.928	0.713	correct	incongruent	Block2	incongruent/STIM_027.jpg
1675.687	0.685	correct	incongruent	Block2	incongruent/STIM_027.jpg
1680.155	0.955	correct	incongruent	Block2	incongruent/STIM_028.jpg
1683.867	1.026	correct	incongruent	Block2	incongruent/STIM_028.jpg
1687.528	0.863	correct	incongruent	Block2	incongruent/STIM_028.jpg
1692.246	0.583	correct	incongruent	Block2	incongruent/STIM_028.jpg
1695.748	0.805	correct	incongruent	Block2	incongruent/STIM_028.jpg
1699.933	1.097	correct	incongruent	Block2	incongruent/STIM_029.jpg
1703.502	1.214	incorrect	incongruent	Block2	incongruent/STIM_029.jpg
1707.659	1.17	correct	incongruent	Block2	incongruent/STIM_029.jpg
1711.251	0.697	correct	incongruent	Block2	incongruent/STIM_029.jpg
1714.764	0.792	correct	incongruent	Block2	incongruent/STIM_029.jpg
1719.178	0.755	correct	congruent	Block2	congruent/STIM_000.jpg
1722.072	0.926	correct	congruent	Block2	congruent/STIM_000.jpg
1725.113	0.864	correct	congruent	Block2	congruent/STIM_000.jpg
1729.737	0.829	correct	congruent	Block2	congruent/STIM_000.jpg
1732.635	0.928	correct	congruent	Block2	congruent/STIM_000.jpg
1736.723	0.798	correct	congruent	Block2	congruent/STIM_001.jpg
1740.011	0.555	correct	congruent	Block2	congruent/STIM_001.jpg
1742.746	0.839	incorrect	congruent	Block2	congruent/STIM_001.jpg
1746.989	0.704	correct	congruent	Block2	congruent/STIM_001.jpg
1750.935	0.899	correct	congruent	Block2	congruent/STIM_001.jpg
1754.188	0.672	correct	congruent	Block2	congruent/STIM_002.jpg
1758.128	0.595	correct	congruent	Block2	congruent/STIM_002.jpg
1761.53	0.916	correct	congruent	Block2	congruent/STIM_002.jpg
1766.336	0.666	incorrect	congruent	Block2	congruent/STIM_002.jpg
1770.811	0.922	correct	congruent	Block2	congruent/STIM_002.jpg
1774.697	0.618	correct	congruent	Block2	congruent/STIM_003.jpg
1777.444	0.527	correct	congruent	Block2	congruent/STIM_003.jpg
1781.058	0.65	correct	congruent	Block2	congruent/STIM_003.jpg
1785.523	0.832	correct	congruent	Block2	congruent/STIM_003.jpg
1789.907	0.825	correct	congruent	Block2	congruent/STIM_003.jpg
1793.014	0.813	correct	congruent	Block2	congruent/STIM_004.jpg
1796.217	0.671	correct	congruent	Block2	congruent/STIM_004.jpg
1800.628	0.886	correct	congruent	Block2	congruent/STIM_004.jpg
1804.424	0.766	correct	congruent	Block2	congruent/STIM_004.jpg
1808.102	0.724	correct	congruent	Block2	congruent/STIM_004.jpg
1812.55	0.89	correct	congruent	Block2	congruent/STIM_005.jpg
1816.735	0.894	correct	congruent	Block2	congruent/STIM_005.jpg
1820.811	0.675	correct	congruent	Block2	congruent/STIM_005.jpg
1823.672	0.795	incorrect	congruent	Block2	congruent/STIM_005.jpg
1828.371	0.899	correct	congruent	Block2	congruent/STIM_005.jpg
1832.965	0.914	correct	congruent	Block2	congruent/STIM_006.jpg
1837.094	0.619	correct	congruent	Block2	congruent/STIM_006.jpg
1841.585	0.601	correct	congruent	Block2	congruent/STIM_006.jpg
1844.27	0.913	correct	congruent	Block2	congruent/STIM_006.jpg
1848.201	0.644	correct	congruent	Block2	congruent/STIM_006.jpg
1852.547	0.721	correct	congruent	Block2	congruent/STIM_007.jpg
1857.188	0.606	correct	congruent	Block2	congruent/STIM_007.jpg
1861.072	0.533	correct	congruent	Block2	congruent/STIM_007.jpg
1863.777	0.717	correct	congruent	Block2	congruent/STIM_007.jpg
1866.792	0.797	correct	congruent	Block2	congruent/STIM_007.jpg
1870.924	0.66	correct	congruent	Block2	congruent/STIM_008.jpg
1874.597	0.787	correct	congruent	Block2	congruent/STIM_008.jpg
1877.353	0.737	incorrect	congruent	Block2	congruent/STIM_008.jpg
1880.231	0.694	correct	congruent	Block2	congruent/STIM_008.jpg
1883.185	0.637	incorrect	congruent	Block2	congruent/STIM_008.jpg
1887.041	0.737	incorrect	congruent	Block2	congruent/STIM_009.jpg
1891.103	0.868	correct	congruent	Block2	congruent/STIM_009.jpg
1895.411	0.759	correct	congruent	Block2	congruent/STIM_009.jpg
1898.296	0.613	incorrect	congruent	Block2	congruent/STIM_009.jpg
1901.907	0.694	correct	congruent	Block2	congruent/STIM_009.jpg
1905.195	0.669	correct	congruent	Block2	congruent/STIM_010.jpg
1908.92	0.91	correct	congruent	Block2	congruent/STIM_010.jpg
1913.601	0.619	correct	congruent	Block2	congruent/STIM_010.jpg
1916.647	0.579	correct	congruent	Block2	congruent/STIM_010.jpg
1920.388	0.784	correct	congruent	Block2	congruent/STIM_010.jpg
1923.765	0.685	correct	congruent	Block2	congruent/STIM_011.jpg
1927.547	0.791	correct	congruent	Block2	congruent/STIM_011.jpg
1931.512	0.532	correct	congruent	Block2	congruent/STIM_011.jpg
1934.056	0.631	correct	congruent	Block2	congruent/STIM_011.jpg
1937.561	0.891	correct	congruent	Block2	congruent/STIM_011.jpg
1940.424	0.678	correct	congruent	Block2	congruent/STIM_012.jpg
1943.471	0.624	correct	congruent	Block2	congruent/STIM_012.jpg
1947.938	0.797	correct	congruent	Block2	congruent/STIM_012.jpg
1951.615	0.635	correct	congruent	Block2	congruent/STIM_012.jpg
1954.431	0.709	correct	congruent	Block2	congruent/STIM_012.jpg
1958.968	0.825	correct	congruent	Block2	congruent/STIM_013.jpg
1963.285	0.56	correct	congruent	Block2	congruent/STIM_013.jpg
1967.727	0.532	correct	congruent	Block2	congruent/STIM_013.jpg
1971.391	0.794	correct	congruent	Block2	congruent/STIM_013.jpg
1974.373	0.63	correct	congruent	Block2	congruent/STIM_013.jpg
1978.438	0.847	correct	congruent	Block2	congruent/STIM_014.jpg
1982.24	0.782	correct	congruent	Block2	congruent/STIM_014.jpg
1986.663	0.54	correct	congruent	Block2	congruent/STIM_014.jpg
1989.535	0.857	correct	congruent	Block2	congruent/STIM_014.jpg
1994.148	0.812	correct	congruent	Block2	congruent/STIM_014.jpg
1997.18	0.863	correct	congruent	Block2	congruent/STIM_015.jpg
2001.903	0.848	correct	congruent	Block2	congruent/STIM_015.jpg
2005.371	0.84	correct	congruent	Block2	congruent/STIM_015.jpg
2009.448	0.811	correct	congruent	Block2	congruent/STIM_015.jpg
2013.448	0.869	correct	congruent	Block2	congruent/STIM_015.jpg
2016.908	0.941	correct	congruent	Block2	congruent/STIM_016.jpg
2021.478	0.72	correct	congruent	Block2	congruent/STIM_016.jpg
2025.902	0.637	correct	congruent	Block2	congruent/STIM_016.jpg
2029.534	0.862	correct	congruent	Block2	congruent/STIM_016.jpg
2033.237	0.597	correct	congruent	Block2	congruent/STIM_016.jpg
2037.759	0.726	correct	congruent	Block2	congruent/STIM_017.jpg
2041.875	0.713	correct	congruent	Block2	congruent/STIM_017.jpg
2044.592	0.702	correct	congruent	Block2	congruent/STIM_017.jpg
2048.493	0.631	incorrect	congruent	Block2	congruent/STIM_017.jpg
2052.564	0.586	correct	congruent	Block2	congruent/STIM_017.jpg
2055.216	0.62	correct	congruent	Block2	congruent/STIM_018.jpg
2059.12	0.722	correct	congruent	Block2	congruent/STIM_018.jpg
2062.417	0.613	correct	congruent	Block2	congruent/STIM_018.jpg
2066.275	0.56	correct	congruent	Block2	congruent/STIM_018.jpg
2070.306	0.54	correct	congruent	Block2	congruent/STIM_018.jpg
2073.77	0.67	correct	congruent	Block2	congruent/STIM_019.jpg
2077.933	0.873	correct	congruent	Block2	congruent/STIM_019.jpg
2081.22	0.78	correct	congruent	Block2	congruent/STIM_019.jpg
2084.376	0.711	correct	congruent	Block2	congruent/STIM_019.jpg
2087.741	0.881	correct	congruent	Block2	congruent/STIM_019.jpg
2092.007	0.866	correct	congruent	Block2	congruent/STIM_020.jpg
2096.396	0.654	correct	congruent	Block2	congruent/STIM_020.jpg
2100.418	0.746	correct	congruent	Block2	congruent/STIM_020.jpg
2104.668	0.746	correct	congruent	Block2	congruent/STIM_020.jpg
2107.382	0.634	correct	congruent	Block2	congruent/STIM_020.jpg
2111.145	0.557	correct	congruent	Block2	congruent/STIM_021.jpg
2113.824	0.712	correct	congruent	Block2	congruent/STIM_021.jpg
2117.114	0.923	correct	congruent	Block2	congruent/STIM_021.jpg
2121.423	0.658	correct	congruent	Block2	congruent/STIM_021.jpg
2124.678	0.56	correct	congruent	Block2	congruent/STIM_021.jpg
2128.124	0.823	correct	congruent	Block2	congruent/STIM_022.jpg
2131.971	0.686	correct	congruent	Block2	congruent/STIM_022.jpg
2134.913	0.666	correct	congruent	Block2	congruent/STIM_022.jpg
2138.651	0.584	correct	congruent	Block2	congruent/STIM_022.jpg
2142.232	0.843	correct	congruent	Block2	congruent/STIM_022.jpg
2145.442	0.568	correct	congruent	Block2	congruent/STIM_023.jpg
2149.296	0.644	correct	congruent	Block2	congruent/STIM_023.jpg
2153.595	0.832	correct	congruent	Block2	congruent/STIM_023.jpg
2158.382	0.759	correct	congruent	Block2	congruent/STIM_023.jpg
2162.217	0.677	correct	congruent	Block2	congruent/STIM_023.jpg
2165.965	0.774	correct	congruent	Block2	congruent/STIM_024.jpg
2170.17	0.804	correct	congruent	Block2	congruent/STIM_024.jpg
2173.296	0.834	correct	congruent	Block2	congruent/STIM_024.jpg
2178.016	0.563	correct	congruent	Block2	congruent/STIM_024.jpg
2182.057	0.733	correct	congruent	Block2	congruent/STIM_024.jpg
2186.175	0.816	correct	congruent	Block2	congruent/STIM_025.jpg
2189.561	0.608	correct	congruent	Block2	congruent/STIM_025.jpg
2193.875	0.869	correct	congruent	Block2	congruent/STIM_025.jpg
2198.173	0.603	correct	congruent	Block2	congruent/STIM_025.jpg
2202.118	0.84	correct	congruent	Block2	congruent/STIM_025.jpg
2205.019	0.932	correct	congruent	Block2	congruent/STIM_026.jpg
2207.928	0.695	correct	congruent	Block2	congruent/STIM_026.jpg
2211.766	0.746	correct	congruent	Block2	congruent/STIM_026.jpg
2215.18	0.533	correct	congruent	Block2	congruent/STIM_026.jpg
2218.909	0.666	correct	congruent	Block2	congruent/STIM_026.jpg
2222.225	0.626	correct	congruent	Block2	congruent/STIM_027.jpg
2226.298	0.653	correct	congruent	Block2	congruent/STIM_027.jpg
2229.299	0.916	correct	congruent	Block2	congruent/STIM_027.jpg
2233.728	0.546	correct	congruent	Block2	congruent/STIM_027.jpg
2237.361	0.853	correct	congruent	Block2	congruent/STIM_027.jpg
2241.435	0.761	correct	congruent	Block2	congruent/STIM_028.jpg
2245.544	0.607	correct	congruent	Block2	congruent/STIM_028.jpg
2250.124	0.784	correct	congruent	Block2	congruent/STIM_028.jpg
2254.195	0.575	correct	congruent	Block2	congruent/STIM_028.jpg
2257.385	0.894	incorrect	congruent	Block2	congruent/STIM_028.jpg
2261.853	0.758	correct	congruent	Block2	congruent/STIM_029.jpg
2265.644	0.654	correct	congruent	Block2	congruent/STIM_029.jpg
2269.205	0.633	incorrect	congruent	Block2	congruent/STIM_029.jpg
2273.202	0.862	correct	congruent	Block2	congruent/STIM_029.jpg
2276.222	0.559	correct	congruent	Block2	congruent/STIM_029.jpg
2278.986	0.699	correct	incongruent	Block3	incongruent/STIM_000.jpg
2282.565	0.733	correct	incongruent	Block3	incongruent/STIM_000.jpg
2286.8	1.08	correct	incongruent	Block3	incongruent/STIM_000.jpg
2289.888	1.024	correct	incongruent	Block3	incongruent/STIM_000.jpg
2293.458	0.853	correct	incongruent	Block3	incongruent/STIM_000.jpg
2297.528	0.911	correct	incongruent	Block3	incongruent/STIM_001.jpg
2300.813	0.708	correct	incongruent	Block3	incongruent/STIM_001.jpg
2303.546	0.802	correct	incongruent	Block3	incongruent/STIM_001.jpg
2307.506	0.705	correct	incongruent	Block3	incongruent/STIM_001.jpg
2310.584	0.742	correct	incongruent	Block3	incongruent/STIM_001.jpg
2313.322	0.863	correct	incongruent	Block3	incongruent/STIM_002.jpg
2317.202	1.076	correct	incongruent	Block3	incongruent/STIM_002.jpg
2321.16	0.723	correct	incongruent	Block3	incongruent/STIM_002.jpg
2324.539	0.68	correct	incongruent	Block3	incongruent/STIM_002.jpg
2327.537	0.764	correct	incongruent	Block3	incongruent/STIM_002.jpg
2332.126	0.933	correct	incongruent	Block3	incongruent/STIM_003.jpg
2335.198	0.748	correct	incongruent	Block3	incongruent/STIM_003.jpg
2339.05	0.635	correct	incongruent	Block3	incongruent/STIM_003.jpg
2342.395	0.934	correct	incongruent	Block3	incongruent/STIM_003.jpg
2346.65	0.767	correct	incongruent	Block3	incongruent/STIM_003.jpg
2349.426	0.523	incorrect	incongruent	Block3	incongruent/STIM_004.jpg
2352.952	0.665	correct	incongruent	Block3	incongruent/STIM_004.jpg
2356.829	0.872	correct	incongruent	Block3	incongruent/STIM_004.jpg
2360.952	0.994	correct	incongruent	Block3	incongruent/STIM_004.jpg
2364.777	0.918	correct	incongruent	Block3	incongruent/STIM_004.jpg
2369.02	1.022	correct	incongruent	Block3	incongruent/STIM_005.jpg
2373.886	0.848	correct	incongruent	Block3	incongruent/STIM_005.jpg
2378.615	1.052	correct	incongruent	Block3	incongruent/STIM_005.jpg
2382.213	1.036	correct	incongruent	Block3	incongruent/STIM_005.jpg
2386.037	0.85	incorrect	incongruent	Block3	incongruent/STIM_005.jpg
2390.114	0.598	correct	incongruent	Block3	incongruent/STIM_006.jpg
2393.102	0.598	correct	incongruent	Block3	incongruent/STIM_006.jpg
2396.922	0.918	correct	incongruent	Block3	incongruent/STIM_006.jpg
2400.543	0.814	correct	incongruent	Block3	incongruent/STIM_006.jpg
2404.123	0.999	correct	incongruent	Block3	incongruent/STIM_006.jpg
2408.755	1.045	correct	incongruent	Block3	incongruent/STIM_007.jpg
2413.655	0.698	correct	incongruent	Block3	incongruent/STIM_007.jpg
2417.318	1.096	correct	incongruent	Block3	incongruent/STIM_007.jpg
2420.657	0.713	correct	incongruent	Block3	incongruent/STIM_007.jpg
2424.413	0.953	correct	incongruent	Block3	incongruent/STIM_007.jpg
2427.969	0.952	correct	incongruent	Block3	incongruent/STIM_008.jpg
2431.733	0.795	correct	incongruent	Block3	incongruent/STIM_008.jpg
2435.913	0.942	correct	incongruent	Block3	incongruent/STIM_008.jpg
2439.713	0.915	correct	incongruent	Block3	incongruent/STIM_008.jpg
2443.136	0.936	correct	incongruent	Block3	incongruent/STIM_008.jpg
2447.452	0.7	correct	incongruent	Block3	incongruent/STIM_009.jpg
2450.424	0.978	correct	incongruent	Block3	incongruent/STIM_009.jpg
2454.208	0.655	correct	incongruent	Block3	incongruent/STIM_009.jpg
2457.642	0.882	correct	incongruent	Block3	incongruent/STIM_009.jpg
2461.226	0.722	correct	incongruent	Block3	incongruent/STIM_009.jpg
2465.202	0.991	correct	incongruent	Block3	incongruent/STIM_010.jpg
2468.996	1.074	correct	incongruent	Block3	incongruent/STIM_010.jpg
2473.295	0.762	correct	incongruent	Block3	incongruent/STIM_010.jpg
2476.629	0.794	correct	incongruent	Block3	incongruent/STIM_010.jpg
2480.466	0.586	correct	incongruent	Block3	incongruent/STIM_010.jpg
2483.039	0.735	correct	incongruent	Block3	incongruent/STIM_011.jpg
2486.008	0.894	correct	incongruent	Block3	incongruent/STIM_011.jpg
2489.149	0.754	correct	incongruent	Block3	incongruent/STIM_011.jpg
2493.533	0.69	correct	incongruent	Block3	incongruent/STIM_011.jpg
2496.657	0.732	correct	incongruent	Block3	incongruent/STIM_011.jpg
2500.397	1.088	correct	incongruent	Block3	incongruent/STIM_012.jpg
2503.64	0.955	correct	incongruent	Block3	incongruent/STIM_012.jpg
2507.76	0.549	correct	incongruent	Block3	incongruent/STIM_012.jpg
2511.95	0.614	correct	incongruent	Block3	incongruent/STIM_012.jpg
2515.784	1.092	incorrect	incongruent	Block3	incongruent/STIM_012.jpg
2520.493	0.608	correct	incongruent	Block3	incongruent/STIM_013.jpg
2524.678	1.088	correct	incongruent	Block3	incongruent/STIM_013.jpg
2529.318	0.549	correct	incongruent	Block3	incongruent/STIM_013.jpg
2532.577	0.833	correct	incongruent	Block3	incongruent/STIM_013.jpg
2536.196	0.816	correct	incongruent	Block3	incongruent/STIM_013.jpg
2539.808	1.072	correct	incongruent	Block3	incongruent/STIM_014.jpg
2543.091	1.042	correct	incongruent	Block3	incongruent/STIM_014.jpg
2547.663	0.566	correct	incongruent	Block3	incongruent/STIM_014.jpg
2551.507	0.754	correct	incongruent	Block3	incongruent/STIM_014.jpg
2555.101	0.917	correct	incongruent	Block3	incongruent/STIM_014.jpg
2558.26	0.993	correct	incongruent	Block3	incongruent/STIM_015.jpg
2562.83	0.866	correct	incongruent	Block3	incongruent/STIM_015.jpg
2566.674	0.695	correct	incongruent	Block3	incongruent/STIM_015.jpg
2569.585	0.848	correct	incongruent	Block3	incongruent/STIM_015.jpg
2573.397	0.762	incorrect	incongruent	Block3	incongruent/STIM_015.jpg
2576.588	0.608	correct	incongruent	Block3	incongruent/STIM_016.jpg
2579.403	0.89	correct	incongruent	Block3	incongruent/STIM_016.jpg
2583.33	1.012	correct	incongruent	Block3	incongruent/STIM_016.jpg
2586.745	0.537	correct	incongruent	Block3	incongruent/STIM_016.jpg
2589.716	0.951	correct	incongruent	Block3	incongruent/STIM_016.jpg
2594.305	1.098	correct	incongruent	Block3	incongruent/STIM_017.jpg
2598.192	0.846	correct	incongruent	Block3	incongruent/STIM_017.jpg
2601.959	0.937	correct	incongruent	Block3	incongruent/STIM_017.jpg
2604.98	0.955	correct	incongruent	Block3	incongruent/STIM_017.jpg
2609.673	0.8	correct	incongruent	Block3	incongruent/STIM_017.jpg
2612.536	1.098	correct	incongruent	Block3	incongruent/STIM_018.jpg
2616.908	0.609	correct	incongruent	Block3	incongruent/STIM_018.jpg
2621.025	0.529	correct	incongruent	Block3	incongruent/STIM_018.jpg
2625.489	1.032	correct	incongruent	Block3	incongruent/STIM_018.jpg
2628.845	0.553	correct	incongruent	Block3	incongruent/STIM_018.jpg
2632.109	1.082	correct	incongruent	Block3	incongruent/STIM_019.jpg
2636.883	0.882	correct	incongruent	Block3	incongruent/STIM_019.jpg
2639.769	0.892	correct	incongruent	Block3	incongruent/STIM_019.jpg
2642.629	0.996	correct	incongruent	Block3	incongruent/STIM_019.jpg
2645.867	1.088	correct	incongruent	Block3	incongruent/STIM_019.jpg
2649.798	0.749	correct	incongruent	Block3	incongruent/STIM_020.jpg
2653.909	0.924	correct	incongruent	Block3	incongruent/STIM_020.jpg
2657.809	0.52	correct	incongruent	Block3	incongruent/STIM_020.jpg
2660.375	0.871	correct	incongruent	Block3	incongruent/STIM_020.jpg
2665.103	0.725	correct	incongruent	Block3	incongruent/STIM_020.jpg
2667.994	0.932	correct	incongruent	Block3	incongruent/STIM_021.jpg
2671.545	0.938	correct	incongruent	Block3	incongruent/STIM_021.jpg
2676.3	0.986	correct	incongruent	Block3	incongruent/STIM_021.jpg
2679.997	0.709	correct	incongruent	Block3	incongruent/STIM_021.jpg
2683.568	0.772	correct	incongruent	Block3	incongruent/STIM_021.jpg
2686.45	0.735	correct	incongruent	Block3	incongruent/STIM_022.jpg
2689.553	0.787	correct	incongruent	Block3	incongruent/STIM_022.jpg
2693.74	0.875	correct	incongruent	Block3	incongruent/STIM_022.jpg
2698.538	0.937	correct	incongruent	Block3	incongruent/STIM_022.jpg
2703.339	0.934	correct	incongruent	Block3	incongruent/STIM_022.jpg
2707.023	0.557	correct	incongruent	Block3	incongruent/STIM_023.jpg
2709.937	0.833	correct	incongruent	Block3	incongruent/STIM_023.jpg
2713.926	1.06	correct	incongruent	Block3	incongruent/STIM_023.jpg
2718.602	0.977	correct	incongruent	Block3	incongruent/STIM_023.jpg
2722.945	0.701	correct	incongruent	Block3	incongruent/STIM_023.jpg
2727.038	0.862	correct	incongruent	Block3	incongruent/STIM_024.jpg
2731.506	0.69	correct	incongruent	Block3	incongruent/STIM_024.jpg
2734.175	0.75	correct	incongruent	Block3	incongruent/STIM_024.jpg
2738.268	0.519	correct	incongruent	Block3	incongruent/STIM_024.jpg
2741.951	0.96	correct	incongruent	Block3	incongruent/STIM_024.jpg
2746.292	1.036	correct	incongruent	Block3	incongruent/STIM_025.jpg
2750.681	0.862	correct	incongruent	Block3	incongruent/STIM_025.jpg
2754.78	0.582	correct	incongruent	Block3	incongruent/STIM_025.jpg
2758.629	0.68	correct	incongruent	Block3	incongruent/STIM_025.jpg
2762.735	0.792	correct	incongruent	Block3	incongruent/STIM_025.jpg
2767.004	0.564	correct	incongruent	Block3	incongruent/STIM_026.jpg
2770.858	0.859	correct	incongruent	Block3	incongruent/STIM_026.jpg
2774.039	0.726	correct	incongruent	Block3	incongruent/STIM_026.jpg
2776.983	0.624	correct	incongruent	Block3	incongruent/STIM_026.jpg
2781.304	0.975	correct	incongruent	Block3	incongruent/STIM_026.jpg
2785.317	0.646	correct	incongruent	Block3	incongruent/STIM_027.jpg
2788.964	1.028	correct	incongruent	Block3	incongruent/STIM_027.jpg
2793.663	0.521	correct	incongruent	Block3	incongruent/STIM_027.jpg
2796.845	0.83	correct	incongruent	Block3	incongruent/STIM_027.jpg
2800.998	0.556	correct	incongruent	Block3	incongruent/STIM_027.jpg
2803.609	0.725	correct	incongruent	Block3	incongruent/STIM_028.jpg
2807.596	0.951	correct	incongruent	Block3	incongruent/STIM_028.jpg
2810.973	0.902	correct	incongruent	Block3	incongruent/STIM_028.jpg
2815.109	0.624	correct	incongruent	Block3	incongruent/STIM_028.jpg
2818.078	0.761	correct	incongruent	Block3	incongruent/STIM_028.jpg
2822.602	0.752	correct	incongruent	Block3	incongruent/STIM_029.jpg
2827.165	1.05	incorrect	incongruent	Block3	incongruent/STIM_029.jpg
2830.351	1.008	correct	incongruent	Block3	incongruent/STIM_029.jpg
2834.132	0.722	correct	incongruent	Block3	incongruent/STIM_029.jpg
2837.383	0.725	correct	incongruent	Block3	incongruent/STIM_029.jpg
2840.885	0.867	correct	congruent	Block3	congruent/STIM_000.jpg
2845.509	0.546	correct	congruent	Block3	congruent/STIM_000.jpg
2848.422	0.804	correct	congruent	Block3	congruent/STIM_000.jpg
2851.251	0.534	correct	congruent	Block3	congruent/STIM_000.jpg
2855.041	0.831	correct	congruent	Block3	congruent/STIM_000.jpg
2858.041	0.713	correct	congruent	Block3	congruent/STIM_001.jpg
2861.51	0.656	correct	congruent	Block3	congruent/STIM_001.jpg
2865.762	0.579	correct	congruent	Block3	congruent/STIM_001.jpg
2870.194	0.533	correct	congruent	Block3	congruent/STIM_001.jpg
2873.963	0.907	correct	congruent	Block3	congruent/STIM_001.jpg
2878.789	0.575	correct	congruent	Block3	congruent/STIM_002.jpg
2882.178	0.529	correct	congruent	Block3	congruent/STIM_002.jpg
2886.062	0.71	correct	congruent	Block3	congruent/STIM_002.jpg
2888.925	0.932	correct	congruent	Block3	congruent/STIM_002.jpg
2891.831	0.744	correct	congruent	Block3	congruent/STIM_002.jpg
2896.469	0.622	correct	congruent	Block3	congruent/STIM_003.jpg
2899.412	0.63	correct	congruent	Block3	congruent/STIM_003.jpg
2903.088	0.59	correct	congruent	Block3	congruent/STIM_003.jpg
2906.292	0.942	correct	congruent	Block3	congruent/STIM_003.jpg
2911.142	0.852	correct	congruent	Block3	congruent/STIM_003.jpg
2914.036	0.646	correct	congruent	Block3	congruent/STIM_004.jpg
2917.584	0.596	correct	congruent	Block3	congruent/STIM_004.jpg
2920.731	0.894	correct	congruent	Block3	congruent/STIM_004.jpg
2925.232	0.739	correct	congruent	Block3	congruent/STIM_004.jpg
2929.627	0.923	correct	congruent	Block3	congruent/STIM_004.jpg
2933.932	0.752	correct	congruent	Block3	congruent/STIM_005.jpg
2938.287	0.75	correct	congruent	Block3	congruent/STIM_005.jpg
2941.353	0.566	correct	congruent	Block3	congruent/STIM_005.jpg
2945.165	0.819	correct	congruent	Block3	congruent/STIM_005.jpg
2948.841	0.744	correct	congruent	Block3	congruent/STIM_005.jpg
2952.792	0.764	incorrect	congruent	Block3	congruent/STIM_006.jpg
2955.625	0.794	correct	congruent	Block3	congruent/STIM_006.jpg
2960.164	0.728	correct	congruent	Block3	congruent/STIM_006.jpg
2963.901	0.744	correct	congruent	Block3	congruent/STIM_006.jpg
2967.188	0.754	incorrect	congruent	Block3	congruent/STIM_006.jpg
2970.213	0.64	correct	congruent	Block3	congruent/STIM_007.jpg
2973.281	0.761	correct	congruent	Block3	congruent/STIM_007.jpg
2976.151	0.714	correct	congruent	Block3	congruent/STIM_007.jpg
2980.801	0.856	correct	congruent	Block3	congruent/STIM_007.jpg
2984.383	0.758	correct	congruent	Block3	congruent/STIM_007.jpg
2987.319	0.9	correct	congruent	Block3	congruent/STIM_008.jpg
2990.907	0.804	correct	congruent	Block3	congruent/STIM_008.jpg
2995.456	0.735	incorrect	congruent	Block3	congruent/STIM_008.jpg
2999.857	0.77	correct	congruent	Block3	congruent/STIM_008.jpg
3002.901	0.759	correct	congruent	Block3	congruent/STIM_008.jpg
3007.432	0.577	correct	congruent	Block3	congruent/STIM_009.jpg
3011.806	0.547	correct	congruent	Block3	congruent/STIM_009.jpg
3016.081	0.696	correct	congruent	Block3	congruent/STIM_009.jpg
3019.817	0.76	correct	congruent	Block3	congruent/STIM_009.jpg
3024.411	0.619	correct	congruent	Block3	congruent/STIM_009.jpg
3027.724	0.778	correct	congruent	Block3	congruent/STIM_010.jpg
3031.758	0.791	correct	congruent	Block3	congruent/STIM_010.jpg
3035.588	0.939	correct	congruent	Block3	congruent/STIM_010.jpg
3039.899	0.744	correct	congruent	Block3	congruent/STIM_010.jpg
3044.51	0.528	incorrect	congruent	Block3	congruent/STIM_010.jpg
3048.351	0.712	correct	congruent	Block3	congruent/STIM_011.jpg
3051.358	0.644	correct	congruent	Block3	congruent/STIM_011.jpg
3054.595	0.821	correct	congruent	Block3	congruent/STIM_011.jpg
3057.887	0.549	correct	congruent	Block3	congruent/STIM_011.jpg
3061.666	0.659	correct	congruent	Block3	congruent/STIM_011.jpg
3064.936	0.93	correct	congruent	Block3	congruent/STIM_012.jpg
3068.176	0.726	correct	congruent	Block3	congruent/STIM_012.jpg
3071.463	0.935	correct	congruent	Block3	congruent/STIM_012.jpg
3075.121	0.878	correct	congruent	Block3	congruent/STIM_012.jpg
3079.161	0.606	correct	congruent	Block3	congruent/STIM_012.jpg
3082.277	0.81	correct	congruent	Block3	congruent/STIM_013.jpg
3086.795	0.806	correct	congruent	Block3	congruent/STIM_013.jpg
3090.533	0.778	correct	congruent	Block3	congruent/STIM_013.jpg
3094.444	0.631	correct	congruent	Block3	congruent/STIM_013.jpg
3098.267	0.911	correct	congruent	Block3	congruent/STIM_013.jpg
3102.212	0.58	correct	congruent	Block3	congruent/STIM_014.jpg
3106.054	0.938	incorrect	congruent	Block3	congruent/STIM_014.jpg
3109.997	0.845	correct	congruent	Block3	congruent/STIM_014.jpg
3113.775	0.768	correct	congruent	Block3	congruent/STIM_014.jpg
3117.701	0.748	correct	congruent	Block3	congruent/STIM_014.jpg
3120.907	0.605	correct	congruent	Block3	congruent/STIM_015.jpg
3123.986	0.652	correct	congruent	Block3	congruent/STIM_015.jpg
3128.179	0.869	correct	congruent	Block3	congruent/STIM_015.jpg
3132.025	0.562	correct	congruent	Block3	congruent/STIM_015.jpg
3135.104	0.698	correct	congruent	Block3	congruent/STIM_015.jpg
3138.304	0.568	correct	congruent	Block3	congruent/STIM_016.jpg
3141.584	0.915	correct	congruent	Block3	congruent/STIM_016.jpg
3146.209	0.831	correct	congruent	Block3	congruent/STIM_016.jpg
3149.335	0.875	correct	congruent	Block3	congruent/STIM_016.jpg
3153.103	0.774	correct	congruent	Block3	congruent/STIM_016.jpg
3156.921	0.544	correct	congruent	Block3	congruent/STIM_017.jpg
3160.259	0.623	correct	congruent	Block3	congruent/STIM_017.jpg
3163.957	0.871	correct	congruent	Block3	congruent/STIM_017.jpg
3167.957	0.714	correct	congruent	Block3	congruent/STIM_017.jpg
3171.733	0.887	correct	congruent	Block3	congruent/STIM_017.jpg
3176.374	0.73	correct	congruent	Block3	congruent/STIM_018.jpg
3180.253	0.692	correct	congruent	Block3	congruent/STIM_018.jpg
3183.892	0.627	correct	congruent	Block3	congruent/STIM_018.jpg
3186.741	0.532	correct	congruent	Block3	congruent/STIM_018.jpg
3189.373	0.773	correct	congruent	Block3	congruent/STIM_018.jpg
3192.16	0.641	correct	congruent	Block3	congruent/STIM_019.jpg
3195.221	0.637	correct	congruent	Block3	congruent/STIM_019.jpg
3198.426	0.791	correct	congruent	Block3	congruent/STIM_019.jpg
3201.261	0.793	correct	congruent	Block3	congruent/STIM_019.jpg
3204.545	0.754	correct	congruent	Block3	congruent/STIM_019.jpg
3207.662	0.726	correct	congruent	Block3	congruent/STIM_020.jpg
3211.959	0.581	correct	congruent	Block3	congruent/STIM_020.jpg
3216.045	0.61	correct	congruent	Block3	congruent/STIM_020.jpg
3220.21	0.524	correct	congruent	Block3	congruent/STIM_020.jpg
3222.795	0.94	correct	congruent	Block3	congruent/STIM_020.jpg
3226.234	0.939	correct	congruent	Block3	congruent/STIM_021.jpg
3230.072	0.599	correct	congruent	Block3	congruent/STIM_021.jpg
3234.14	0.917	correct	congruent	Block3	congruent/STIM_021.jpg
3238.594	0.544	incorrect	congruent	Block3	congruent/STIM_021.jpg
3241.661	0.576	correct	congruent	Block3	congruent/STIM_021.jpg
3245.482	0.664	correct	congruent	Block3	congruent/STIM_022.jpg
3248.217	0.626	correct	congruent	Block3	congruent/STIM_022.jpg
3251.769	0.878	correct	congruent	Block3	congruent/STIM_022.jpg
3255.719	0.768	correct	congruent	Block3	congruent/STIM_022.jpg
3260.215	0.763	correct	congruent	Block3	congruent/STIM_022.jpg
3263.083	0.546	correct	congruent	Block3	congruent/STIM_023.jpg
3265.839	0.645	correct	congruent	Block3	congruent/STIM_023.jpg
3270.287	0.616	correct	congruent	Block3	congruent/STIM_023.jpg
3273.715	0.733	correct	congruent	Block3	congruent/STIM_023.jpg
3277.2	0.574	correct	congruent	Block3	congruent/STIM_023.jpg
3280.676	0.537	correct	congruent	Block3	congruent/STIM_024.jpg
3284.821	0.828	correct	congruent	Block3	congruent/STIM_024.jpg
3288.795	0.62	correct	congruent	Block3	congruent/STIM_024.jpg
3292.1	0.634	correct	congruent	Block3	congruent/STIM_024.jpg
3295.794	0.919	correct	congruent	Block3	congruent/STIM_024.jpg
3298.955	0.637	correct	congruent	Block3	congruent/STIM_025.jpg
3302.745	0.791	correct	congruent	Block3	congruent/STIM_025.jpg
3306.381	0.54	correct	congruent	Block3	congruent/STIM_025.jpg
3309.237	0.88	correct	congruent	Block3	congruent/STIM_025.jpg
3312.819	0.897	correct	congruent	Block3	congruent/STIM_025.jpg
3315.928	0.837	correct	congruent	Block3	congruent/STIM_026.jpg
3320.137	0.55	correct	congruent	Block3	congruent/STIM_026.jpg
3322.723	0.842	correct	congruent	Block3	congruent/STIM_026.jpg
3325.735	0.555	incorrect	congruent	Block3	congruent/STIM_026.jpg
3329.159	0.569	correct	congruent	Block3	congruent/STIM_026.jpg
3333.009	0.766	correct	congruent	Block3	congruent/STIM_027.jpg
3335.745	0.595	correct	congruent	Block3	congruent/STIM_027.jpg
3339.274	0.861	correct	congruent	Block3	congruent/STIM_027.jpg
3343.568	0.549	correct	congruent	Block3	congruent/STIM_027.jpg
3347.464	0.852	correct	congruent	Block3	congruent/STIM_027.jpg
3352.017	0.82	correct	congruent	Block3	congruent/STIM_028.jpg
3354.965	0.775	correct	congruent	Block3	congruent/STIM_028.jpg
3357.881	0.902	correct	congruent	Block3	congruent/STIM_028.jpg
3361.016	0.828	correct	congruent	Block3	congruent/STIM_028.jpg
3364.361	0.543	correct	congruent	Block3	congruent/STIM_028.jpg
3368.234	0.922	correct	congruent	Block3	congruent/STIM_029.jpg
3372.871	0.554	correct	congruent	Block3	congruent/STIM_029.jpg
3376.465	0.564	correct	congruent	Block3	congruent/STIM_029.jpg
3380.222	0.599	correct	congruent	Block3	congruent/STIM_029.jpg
3383.964	0.758	correct	congruent	Block3	congruent/STIM_029.jpg
