onset	duration	accuracy_binary	trial_type	learning_stage	stimulus
0.0	0.66	0	2back	Block1	2back/STIM_000.jpg
4.402	0.603	1	2back	Block1	2back/STIM_000.jpg
8.509	0.926	0	2back	Block1	2back/STIM_000.jpg
12.384	1.035	1	2back	Block1	2back/STIM_001.jpg
16.28	1.281	1	2back	Block1	2back/STIM_001.jpg
21.547	0.989	1	2back	Block1	2back/STIM_001.jpg
24.719	1.186	1	2back	Block1	2back/STIM_002.jpg
28.136	0.711	1	2back	Block1	2back/STIM_002.jpg
31.693	0.925	1	2back	Block1	2back/STIM_002.jpg
36.347	1.137	0	2back	Block1	2back/STIM_003.jpg
39.822	0.9	1	2back	Block1	2back/STIM_003.jpg
43.243	1.028	1	2back	Block1	2back/STIM_003.jpg
47.264	0.771	1	2back	Block1	2back/STIM_004.jpg
51.437	0.694	1	2back	Block1	2back/STIM_004.jpg
54.139	1.062	1	2back	Block1	2back/STIM_004.jpg
57.894	1.176	1	2back	Block1	2back/STIM_005.jpg
61.592	0.802	1	2back	Block1	2back/STIM_005.jpg
65.813	0.911	1	2back	Block1	2back/STIM_005.jpg
70.762	0.818	1	2back	Block1	2back/STIM_006.jpg
74.929	0.748	1	2back	Block1	2back/STIM_006.jpg
79.092	1.287	1	2back	Block1	2back/STIM_006.jpg
82.521	0.525	1	2back	Block1	2back/STIM_007.jpg
85.232	1.034	1	2back	Block1	2back/STIM_007.jpg
89.894	0.948	1	2back	Block1	2back/STIM_007.jpg
93.784	0.949	1	2back	Block1	2back/STIM_008.jpg
97.253	1.095	1	2back	Block1	2back/STIM_008.jpg
101.902	0.454	1	2back	Block1	2back/STIM_008.jpg
104.981	1.071	1	2back	Block1	2back/STIM_009.jpg
108.39	0.997	1	2back	Block1	2back/STIM_009.jpg
111.454	1.147	1	2back	Block1	2back/STIM_009.jpg
116.161	1.099	1	2back	Block1	2back/STIM_010.jpg
119.531	0.711	1	2back	Block1	2back/STIM_010.jpg
123.603	1.018	0	2back	Block1	2back/STIM_010.jpg
127.243	1.256	1	2back	Block1	2back/STIM_011.jpg
130.745	1.243	1	2back	Block1	2back/STIM_011.jpg
134.071	0.738	1	2back	Block1	2back/STIM_011.jpg
138.249	1.344	0	2back	Block1	2back/STIM_012.jpg
142.123	0.857	1	2back	Block1	2back/STIM_012.jpg
145.652	1.091	1	2back	Block1	2back/STIM_012.jpg
149.279	1.014	1	2back	Block1	2back/STIM_013.jpg
152.925	0.696	1	2back	Block1	2back/STIM_013.jpg
155.824	1.028	1	2back	Block1	2back/STIM_013.jpg
160.522	0.61	1	2back	Block1	2back/STIM_014.jpg
164.499	1.244	1	2back	Block1	2back/STIM_014.jpg
169.669	0.795	1	2back	Block1	2back/STIM_014.jpg
174.366	0.913	1	2back	Block1	2back/STIM_015.jpg
177.792	0.994	0	2back	Block1	2back/STIM_015.jpg
181.093	0.93	0	2back	Block1	2back/STIM_015.jpg
184.704	1.305	1	2back	Block1	2back/STIM_016.jpg
189.086	1.085	0	2back	Block1	2back/STIM_016.jpg
192.445	0.898	1	2back	Block1	2back/STIM_016.jpg
196.658	0.829	0	2back	Block1	2back/STIM_017.jpg
199.929	1.001	0	2back	Block1	2back/STIM_017.jpg
203.646	1.023	1	2back	Block1	2back/STIM_017.jpg
207.405	0.783	1	2back	Block1	2back/STIM_018.jpg
210.92	1.258	1	2back	Block1	2back/STIM_018.jpg
214.453	0.564	1	2back	Block1	2back/STIM_018.jpg
217.128	1.103	1	2back	Block1	2back/STIM_019.jpg
220.92	0.937	1	2back	Block1	2back/STIM_019.jpg
225.513	1.166	1	2back	Block1	2back/STIM_019.jpg
228.883	0.691	0	2back	Block1	2back/STIM_020.jpg
231.776	1.057	1	2back	Block1	2back/STIM_020.jpg
236.109	0.589	1	2back	Block1	2back/STIM_020.jpg
239.514	0.934	1	2back	Block1	2back/STIM_021.jpg
242.623	0.834	1	2back	Block1	2back/STIM_021.jpg
246.686	0.994	1	2back	Block1	2back/STIM_021.jpg
251.313	0.896	0	2back	Block1	2back/STIM_022.jpg
256.105	1.135	0	2back	Block1	2back/STIM_022.jpg
259.406	1.206	1	2back	Block1	2back/STIM_022.jpg
263.185	1.427	1	2back	Block1	2back/STIM_023.jpg
266.99	0.951	1	2back	Block1	2back/STIM_023.jpg
270.285	0.622	1	2back	Block1	2back/STIM_023.jpg
274.199	1.03	1	2back	Block1	2back/STIM_024.jpg
277.803	0.806	0	2back	Block1	2back/STIM_024.jpg
280.823	0.587	1	2back	Block1	2back/STIM_024.jpg
284.452	0.759	1	2back	Block1	2back/STIM_025.jpg
288.434	0.596	1	2back	Block1	2back/STIM_025.jpg
291.851	1.219	1	2back	Block1	2back/STIM_025.jpg
296.699	1.155	1	2back	Block1	2back/STIM_026.jpg
301.583	1.224	1	2back	Block1	2back/STIM_026.jpg
306.532	0.86	1	2back	Block1	2back/STIM_026.jpg
311.033	0.937	1	2back	Block1	2back/STIM_027.jpg
314.869	0.885	1	2back	Block1	2back/STIM_027.jpg
318.091	1.19	1	2back	Block1	2back/STIM_027.jpg
321.877	0.819	1	2back	Block1	2back/STIM_028.jpg
326.254	0.752	1	2back	Block1	2back/STIM_028.jpg
330.929	1.101	1	2back	Block1	2back/STIM_028.jpg
334.626	0.597	1	2back	Block1	2back/STIM_029.jpg
338.142	0.846	1	2back	Block1	2back/STIM_029.jpg
341.785	0.874	1	2back	Block1	2back/STIM_029.jpg
345.007	0.728	1	2back	Block1	2back/STIM_030.jpg
348.515	0.833	1	2back	Block1	2back/STIM_030.jpg
352.294	1.251	1	2back	Block1	2back/STIM_030.jpg
356.242	0.676	1	2back	Block1	2back/STIM_031.jpg
360.275	0.947	0	2back	Block1	2back/STIM_031.jpg
364.136	1.176	1	2back	Block1	2back/STIM_031.jpg
368.93	0.784	1	2back	Block1	2back/STIM_032.jpg
372.683	0.572	0	2back	Block1	2back/STIM_032.jpg
375.936	1.22	0	2back	Block1	2back/STIM_032.jpg
379.232	1.334	1	2back	Block1	2back/STIM_033.jpg
383.458	1.097	1	2back	Block1	2back/STIM_033.jpg
387.544	0.576	1	2back	Block1	2back/STIM_033.jpg
391.476	0.962	1	2back	Block1	2back/STIM_034.jpg
395.88	0.692	1	2back	Block1	2back/STIM_034.jpg
398.847	1.214	0	2back	Block1	2back/STIM_034.jpg
403.753	1.181	0	2back	Block1	2back/STIM_035.jpg
407.789	0.958	1	2back	Block1	2back/STIM_035.jpg
412.321	0.993	1	2back	Block1	2back/STIM_035.jpg
416.61	1.059	0	2back	Block1	2back/STIM_036.jpg
420.272	0.626	1	2back	Block1	2back/STIM_036.jpg
423.518	1.205	1	2back	Block1	2back/STIM_036.jpg
426.778	1.07	1	2back	Block1	2back/STIM_037.jpg
429.966	0.676	1	2back	Block1	2back/STIM_037.jpg
433.987	0.598	1	2back	Block1	2back/STIM_037.jpg
438.514	1.293	1	2back	Block1	2back/STIM_038.jpg
442.208	0.957	1	2back	Block1	2back/STIM_038.jpg
445.671	0.479	0	2back	Block1	2back/STIM_038.jpg
449.095	0.801	1	2back	Block1	2back/STIM_039.jpg
453.3	0.853	1	2back	Block1	2back/STIM_039.jpg
456.7	0.918	1	2back	Block1	2back/STIM_039.jpg
461.459	0.514	1	0back	Block1	0back/STIM_000.jpg
465.173	0.559	1	0back	Block1	0back/STIM_000.jpg
468.174	0.404	1	0back	Block1	0back/STIM_000.jpg
471.106	0.523	1	0back	Block1	0back/STIM_001.jpg
474.479	0.576	1	0back	Block1	0back/STIM_001.jpg
477.471	0.681	1	0back	Block1	0back/STIM_001.jpg
481.577	0.488	1	0back	Block1	0back/STIM_002.jpg
486.035	0.432	1	0back	Block1	0back/STIM_002.jpg
489.02	0.392	1	0back	Block1	0back/STIM_002.jpg
493.093	0.826	0	0back	Block1	0back/STIM_003.jpg
497.359	0.598	1	0back	Block1	0back/STIM_003.jpg
500.887	0.599	1	0back	Block1	0back/STIM_003.jpg
503.643	0.544	0	0back	Block1	0back/STIM_004.jpg
507.272	0.471	1	0back	Block1	0back/STIM_004.jpg
510.493	0.519	1	0back	Block1	0back/STIM_004.jpg
513.041	0.396	1	0back	Block1	0back/STIM_005.jpg
516.329	0.393	1	0back	Block1	0back/STIM_005.jpg
519.911	0.576	1	0back	Block1	0back/STIM_005.jpg
523.332	0.838	1	0back	Block1	0back/STIM_006.jpg
526.644	0.464	1	0back	Block1	0back/STIM_006.jpg
530.385	0.534	1	0back	Block1	0back/STIM_006.jpg
534.669	0.503	1	0back	Block1	0back/STIM_007.jpg
537.469	0.719	1	0back	Block1	0back/STIM_007.jpg
541.718	0.565	1	0back	Block1	0back/STIM_007.jpg
545.403	0.488	0	0back	Block1	0back/STIM_008.jpg
549.389	0.627	1	0back	Block1	0back/STIM_008.jpg
553.0	0.61	1	0back	Block1	0back/STIM_008.jpg
555.618	0.715	1	0back	Block1	0back/STIM_009.jpg
559.412	0.578	1	0back	Block1	0back/STIM_009.jpg
563.438	0.638	1	0back	Block1	0back/STIM_009.jpg
567.714	0.699	1	0back	Block1	0back/STIM_010.jpg
572.096	0.572	1	0back	Block1	0back/STIM_010.jpg
576.396	0.386	1	0back	Block1	0back/STIM_010.jpg
580.628	0.464	1	0back	Block1	0back/STIM_011.jpg
583.609	0.718	1	0back	Block1	0back/STIM_011.jpg
587.291	0.383	1	0back	Block1	0back/STIM_011.jpg
590.708	0.513	1	0back	Block1	0back/STIM_012.jpg
594.664	0.573	1	0back	Block1	0back/STIM_012.jpg
597.294	0.452	1	0back	Block1	0back/STIM_012.jpg
599.802	0.438	1	0back	Block1	0back/STIM_013.jpg
602.43	0.621	1	0back	Block1	0back/STIM_013.jpg
606.558	0.364	1	0back	Block1	0back/STIM_013.jpg
610.168	0.522	1	0back	Block1	0back/STIM_014.jpg
613.159	0.558	1	0back	Block1	0back/STIM_014.jpg
617.48	0.566	1	0back	Block1	0back/STIM_014.jpg
621.297	0.666	1	0back	Block1	0back/STIM_015.jpg
625.561	0.623	1	0back	Block1	0back/STIM_015.jpg
629.352	0.491	0	0back	Block1	0back/STIM_015.jpg
633.695	0.547	1	0back	Block1	0back/STIM_016.jpg
637.162	0.606	1	0back	Block1	0back/STIM_016.jpg
641.457	0.434	0	0back	Block1	0back/STIM_016.jpg
645.623	0.726	1	0back	Block1	0back/STIM_017.jpg
649.455	0.66	1	0back	Block1	0back/STIM_017.jpg
652.511	0.5	1	0back	Block1	0back/STIM_017.jpg
655.808	0.475	1	0back	Block1	0back/STIM_018.jpg
658.853	0.538	1	0back	Block1	0back/STIM_018.jpg
663.169	0.563	1	0back	Block1	0back/STIM_018.jpg
666.597	0.51	1	0back	Block1	0back/STIM_019.jpg
670.158	0.727	1	0back	Block1	0back/STIM_019.jpg
674.576	0.487	1	0back	Block1	0back/STIM_019.jpg
677.883	0.575	1	2back	Block2	2back/STIM_000.jpg
680.508	0.87	1	2back	Block2	2back/STIM_000.jpg
683.789	0.806	1	2back	Block2	2back/STIM_000.jpg
687.384	1.002	1	2back	Block2	2back/STIM_001.jpg
692.042	1.053	0	2back	Block2	2back/STIM_001.jpg
696.284	0.436	1	2back	Block2	2back/STIM_001.jpg
699.205	1.05	1	2back	Block2	2back/STIM_002.jpg
703.554	0.946	1	2back	Block2	2back/STIM_002.jpg
706.819	0.875	1	2back	Block2	2back/STIM_002.jpg
710.868	0.949	1	2back	Block2	2back/STIM_003.jpg
715.529	0.791	1	2back	Block2	2back/STIM_003.jpg
719.795	0.473	1	2back	Block2	2back/STIM_003.jpg
723.518	0.597	1	2back	Block2	2back/STIM_004.jpg
727.536	0.926	1	2back	Block2	2back/STIM_004.jpg
731.112	0.696	1	2back	Block2	2back/STIM_004.jpg
734.967	0.505	1	2back	Block2	2back/STIM_005.jpg
738.801	0.883	1	2back	Block2	2back/STIM_005.jpg
742.132	0.768	1	2back	Block2	2back/STIM_005.jpg
745.46	0.512	1	2back	Block2	2back/STIM_006.jpg
748.583	1.045	1	2back	Block2	2back/STIM_006.jpg
751.902	0.805	1	2back	Block2	2back/STIM_006.jpg
755.692	0.81	1	2back	Block2	2back/STIM_007.jpg
759.853	0.476	1	2back	Block2	2back/STIM_007.jpg
762.918	0.598	1	2back	Block2	2back/STIM_007.jpg
766.147	1.202	1	2back	Block2	2back/STIM_008.jpg
770.334	0.639	1	2back	Block2	2back/STIM_008.jpg
774.38	0.808	1	2back	Block2	2back/STIM_008.jpg
778.851	0.525	1	2back	Block2	2back/STIM_009.jpg
782.632	1.16	1	2back	Block2	2back/STIM_009.jpg
786.064	1.049	1	2back	Block2	2back/STIM_009.jpg
789.264	0.929	1	2back	Block2	2back/STIM_010.jpg
792.783	1.026	0	2back	Block2	2back/STIM_010.jpg
796.394	0.723	1	2back	Block2	2back/STIM_010.jpg
800.657	0.55	1	2back	Block2	2back/STIM_011.jpg
803.962	0.882	1	2back	Block2	2back/STIM_011.jpg
807.379	0.976	1	2back	Block2	2back/STIM_011.jpg
811.624	0.75	1	2back	Block2	2back/STIM_012.jpg
814.705	0.849	1	2back	Block2	2back/STIM_012.jpg
819.211	0.73	1	2back	Block2	2back/STIM_012.jpg
823.857	0.759	1	2back	Block2	2back/STIM_013.jpg
826.898	1.007	1	2back	Block2	2back/STIM_013.jpg
831.305	0.712	0	2back	Block2	2back/STIM_013.jpg
834.591	0.701	1	2back	Block2	2back/STIM_014.jpg
838.151	0.628	1	2back	Block2	2back/STIM_014.jpg
842.211	0.59	0	2back	Block2	2back/STIM_014.jpg
845.766	0.539	1	2back	Block2	2back/STIM_015.jpg
848.569	0.891	1	2back	Block2	2back/STIM_015.jpg
852.861	0.928	1	2back	Block2	2back/STIM_015.jpg
857.764	0.567	1	2back	Block2	2back/STIM_016.jpg
861.81	0.94	1	2back	Block2	2back/STIM_016.jpg
865.088	0.584	1	2back	Block2	2back/STIM_016.jpg
869.211	0.532	1	2back	Block2	2back/STIM_017.jpg
873.212	0.996	1	2back	Block2	2back/STIM_017.jpg
878.032	0.531	1	2back	Block2	2back/STIM_017.jpg
881.778	1.026	1	2back	Block2	2back/STIM_018.jpg
886.441	1.093	1	2back	Block2	2back/STIM_018.jpg
890.186	1.046	1	2back	Block2	2back/STIM_018.jpg
894.417	0.733	0	2back	Block2	2back/STIM_019.jpg
897.371	0.625	1	2back	Block2	2back/STIM_019.jpg
901.898	0.687	1	2back	Block2	2back/STIM_019.jpg
904.928	0.801	1	2back	Block2	2back/STIM_020.jpg
908.317	0.579	1	2back	Block2	2back/STIM_020.jpg
912.543	0.77	1	2back	Block2	2back/STIM_020.jpg
915.523	1.17	1	2back	Block2	2back/STIM_021.jpg
919.278	0.967	1	2back	Block2	2back/STIM_021.jpg
923.868	0.631	1	2back	Block2	2back/STIM_021.jpg
927.183	0.543	1	2back	Block2	2back/STIM_022.jpg
929.764	0.889	1	2back	Block2	2back/STIM_022.jpg
933.101	0.505	1	2back	Block2	2back/STIM_022.jpg
935.819	0.732	1	2back	Block2	2back/STIM_023.jpg
938.811	0.694	1	2back	Block2	2back/STIM_023.jpg
942.102	0.796	1	2back	Block2	2back/STIM_023.jpg
945.748	0.889	1	2back	Block2	2back/STIM_024.jpg
950.479	0.737	1	2back	Block2	2back/STIM_024.jpg
954.988	0.604	1	2back	Block2	2back/STIM_024.jpg
958.668	0.887	1	2back	Block2	2back/STIM_025.jpg
961.782	0.627	1	2back	Block2	2back/STIM_025.jpg
966.205	0.874	1	2back	Block2	2back/STIM_025.jpg
969.739	0.647	1	2back	Block2	2back/STIM_026.jpg
973.633	0.593	1	2back	Block2	2back/STIM_026.jpg
977.616	0.827	1	2back	Block2	2back/STIM_026.jpg
982.207	0.92	1	2back	Block2	2back/STIM_027.jpg
986.343	0.966	1	2back	Block2	2back/STIM_027.jpg
990.915	0.936	0	2back	Block2	2back/STIM_027.jpg
994.83	1.006	1	2back	Block2	2back/STIM_028.jpg
999.834	0.509	1	2back	Block2	2back/STIM_028.jpg
1004.159	0.929	1	2back	Block2	2back/STIM_028.jpg
1007.72	0.884	1	2back	Block2	2back/STIM_029.jpg
1011.389	0.739	1	2back	Block2	2back/STIM_029.jpg
1014.246	0.931	1	2back	Block2	2back/STIM_029.jpg
1017.647	1.213	1	2back	Block2	2back/STIM_030.jpg
1022.446	0.913	1	2back	Block2	2back/STIM_030.jpg
1025.554	0.624	1	2back	Block2	2back/STIM_030.jpg
1029.035	0.831	0	2back	Block2	2back/STIM_031.jpg
1032.78	0.749	1	2back	Block2	2back/STIM_031.jpg
1037.392	0.62	1	2back	Block2	2back/STIM_031.jpg
1040.888	0.856	1	2back	Block2	2back/STIM_032.jpg
1044.127	1.055	1	2back	Block2	2back/STIM_032.jpg
1047.792	0.803	1	2back	Block2	2back/STIM_032.jpg
1050.979	0.831	1	2back	Block2	2back/STIM_033.jpg
1054.24	0.542	1	2back	Block2	2back/STIM_033.jpg
1058.53	0.633	0	2back	Block2	2back/STIM_033.jpg
1061.758	0.95	1	2back	Block2	2back/STIM_034.jpg
1066.544	1.064	1	2back	Block2	2back/STIM_034.jpg
1071.435	0.679	1	2back	Block2	2back/STIM_034.jpg
1074.345	0.922	1	2back	Block2	2back/STIM_035.jpg
1078.45	1.051	1	2back	Block2	2back/STIM_035.jpg
1083.484	1.032	1	2back	Block2	2back/STIM_035.jpg
1086.821	0.881	1	2back	Block2	2back/STIM_036.jpg
1091.371	0.949	1	2back	Block2	2back/STIM_036.jpg
1094.697	0.752	1	2back	Block2	2back/STIM_036.jpg
1099.444	0.733	1	2back	Block2	2back/STIM_037.jpg
1104.173	0.523	1	2back	Block2	2back/STIM_037.jpg
1108.398	0.984	1	2back	Block2	2back/STIM_037.jpg
1112.921	0.613	1	2back	Block2	2back/STIM_038.jpg
1116.213	1.049	1	2back	Block2	2back/STIM_038.jpg
1120.397	0.892	1	2back	Block2	2back/STIM_038.jpg
1124.961	0.82	1	2back	Block2	2back/STIM_039.jpg
1129.549	0.811	1	2back	Block2	2back/STIM_039.jpg
1132.772	0.676	1	2back	Block2	2back/STIM_039.jpg
1135.565	0.421	1	0back	Block2	0back/STIM_000.jpg
1138.891	0.71	1	0back	Block2	0back/STIM_000.jpg
1142.456	0.581	1	0back	Block2	0back/STIM_000.jpg
1145.382	0.667	1	0back	Block2	0back/STIM_001.jpg
1148.741	0.452	1	0back	Block2	0back/STIM_001.jpg
1153.14	0.409	1	0back	Block2	0back/STIM_001.jpg
1155.599	0.753	1	0back	Block2	0back/STIM_002.jpg
1158.457	0.416	1	0back	Block2	0back/STIM_002.jpg
1161.393	0.447	1	0back	Block2	0back/STIM_002.jpg
1165.741	0.49	1	0back	Block2	0back/STIM_003.jpg
1169.391	0.483	1	0back	Block2	0back/STIM_003.jpg
1172.137	0.775	1	0back	Block2	0back/STIM_003.jpg
1175.398	0.759	1	0back	Block2	0back/STIM_004.jpg
1179.132	0.624	1	0back	Block2	0back/STIM_004.jpg
1182.023	0.782	1	0back	Block2	0back/STIM_004.jpg
1185.45	0.795	1	0back	Block2	0back/STIM_005.jpg
1189.217	0.766	1	0back	Block2	0back/STIM_005.jpg
1192.015	0.467	1	0back	Block2	0back/STIM_005.jpg
1196.432	0.571	1	0back	Block2	0back/STIM_006.jpg
1200.67	0.598	1	0back	Block2	0back/STIM_006.jpg
1204.911	0.703	1	0back	Block2	0back/STIM_006.jpg
1207.783	0.793	1	0back	Block2	0back/STIM_007.jpg
1211.149	0.41	1	0back	Block2	0back/STIM_007.jpg
1213.771	0.471	1	0back	Block2	0back/STIM_007.jpg
1217.985	0.436	1	0back	Block2	0back/STIM_008.jpg
1221.427	0.608	1	0back	Block2	0back/STIM_008.jpg
1224.915	0.759	1	0back	Block2	0back/STIM_008.jpg
1228.137	0.455	1	0back	Block2	0back/STIM_009.jpg
1231.74	0.768	1	0back	Block2	0back/STIM_009.jpg
1235.096	0.788	1	0back	Block2	0back/STIM_009.jpg
1239.637	0.771	1	0back	Block2	0back/STIM_010.jpg
1242.344	0.722	1	0back	Block2	0back/STIM_010.jpg
1246.594	0.578	1	0back	Block2	0back/STIM_010.jpg
1251.046	0.584	1	0back	Block2	0back/STIM_011.jpg
1253.596	0.674	1	0back	Block2	0back/STIM_011.jpg
1256.722	0.587	1	0back	Block2	0back/STIM_011.jpg
1260.252	0.459	1	0back	Block2	0back/STIM_012.jpg
1264.519	0.825	1	0back	Block2	0back/STIM_012.jpg
1268.769	0.616	1	0back	Block2	0back/STIM_012.jpg
1272.897	0.673	1	0back	Block2	0back/STIM_013.jpg
1276.492	0.665	1	0back	Block2	0back/STIM_013.jpg
1280.544	0.397	1	0back	Block2	0back/STIM_013.jpg
1283.381	0.586	1	0back	Block2	0back/STIM_014.jpg
1286.43	0.508	1	0back	Block2	0back/STIM_014.jpg
1289.341	0.694	1	0back	Block2	0back/STIM_014.jpg
1292.627	0.569	1	0back	Block2	0back/STIM_015.jpg
1296.497	0.568	1	0back	Block2	0back/STIM_015.jpg
1299.81	0.716	1	0back	Block2	0back/STIM_015.jpg
1303.367	0.784	1	0back	Block2	0back/STIM_016.jpg
1307.938	0.752	1	0back	Block2	0back/STIM_016.jpg
1312.197	0.695	1	0back	Block2	0back/STIM_016.jpg
1315.903	0.585	1	0back	Block2	0back/STIM_017.jpg
1318.831	0.46	1	0back	Block2	0back/STIM_017.jpg
1322.838	0.691	1	0back	Block2	0back/STIM_017.jpg
1326.086	0.428	1	0back	Block2	0back/STIM_018.jpg
1328.799	0.606	1	0back	Block2	0back/STIM_018.jpg
1332.517	0.587	1	0back	Block2	0back/STIM_018.jpg
1336.658	0.684	1	0back	Block2	0back/STIM_019.jpg
1340.264	0.5	1	0back	Block2	0back/STIM_019.jpg
1343.721	0.488	1	0back	Block2	0back/STIM_019.jpg
1346.773	0.621	1	2back	Block3	2back/STIM_000.jpg
1351.048	0.83	1	2back	Block3	2back/STIM_000.jpg
1353.886	0.424	1	2back	Block3	2back/STIM_000.jpg
1356.836	0.382	1	2back	Block3	2back/STIM_001.jpg
1360.422	0.383	1	2back	Block3	2back/STIM_001.jpg
1363.409	0.603	1	2back	Block3	2back/STIM_001.jpg
1366.642	0.716	1	2back	Block3	2back/STIM_002.jpg
1371.199	0.868	1	2back	Block3	2back/STIM_002.jpg
1374.67	0.569	1	2back	Block3	2back/STIM_002.jpg
1378.513	0.55	1	2back	Block3	2back/STIM_003.jpg
1381.887	0.476	1	2back	Block3	2back/STIM_003.jpg
1385.262	0.499	1	2back	Block3	2back/STIM_003.jpg
1387.779	0.583	0	2back	Block3	2back/STIM_004.jpg
1391.858	0.884	1	2back	Block3	2back/STIM_004.jpg
1395.555	0.663	1	2back	Block3	2back/STIM_004.jpg
1398.605	0.66	1	2back	Block3	2back/STIM_005.jpg
1402.454	0.439	1	2back	Block3	2back/STIM_005.jpg
1406.023	0.843	1	2back	Block3	2back/STIM_005.jpg
1410.335	0.53	1	2back	Block3	2back/STIM_006.jpg
1413.775	0.867	1	2back	Block3	2back/STIM_006.jpg
1417.082	0.699	1	2back	Block3	2back/STIM_006.jpg
1420.038	0.576	1	2back	Block3	2back/STIM_007.jpg
1424.389	0.873	1	2back	Block3	2back/STIM_007.jpg
1428.097	0.814	1	2back	Block3	2back/STIM_007.jpg
1431.238	0.767	1	2back	Block3	2back/STIM_008.jpg
1435.349	0.94	1	2back	Block3	2back/STIM_008.jpg
1438.841	0.668	1	2back	Block3	2back/STIM_008.jpg
1443.241	0.744	1	2back	Block3	2back/STIM_009.jpg
1446.25	0.377	1	2back	Block3	2back/STIM_009.jpg
1450.675	0.973	1	2back	Block3	2back/STIM_009.jpg
1454.182	0.694	1	2back	Block3	2back/STIM_010.jpg
1458.125	0.606	1	2back	Block3	2back/STIM_010.jpg
1462.561	0.702	1	2back	Block3	2back/STIM_010.jpg
1466.637	0.58	1	2back	Block3	2back/STIM_011.jpg
1470.401	0.672	1	2back	Block3	2back/STIM_011.jpg
1473.309	0.501	1	2back	Block3	2back/STIM_011.jpg
1477.81	0.54	1	2back	Block3	2back/STIM_012.jpg
1481.406	0.779	1	2back	Block3	2back/STIM_012.jpg
1484.554	0.439	1	2back	Block3	2back/STIM_012.jpg
1487.862	0.692	1	2back	Block3	2back/STIM_013.jpg
1491.552	0.84	1	2back	Block3	2back/STIM_013.jpg
1496.028	0.446	1	2back	Block3	2back/STIM_013.jpg
1498.735	0.51	1	2back	Block3	2back/STIM_014.jpg
1501.811	0.777	1	2back	Block3	2back/STIM_014.jpg
1505.247	0.925	1	2back	Block3	2back/STIM_014.jpg
1509.657	0.964	1	2back	Block3	2back/STIM_015.jpg
1513.006	0.638	1	2back	Block3	2back/STIM_015.jpg
1516.892	0.519	1	2back	Block3	2back/STIM_015.jpg
1521.198	0.459	1	2back	Block3	2back/STIM_016.jpg
1524.38	0.863	0	2back	Block3	2back/STIM_016.jpg
1527.808	0.618	1	2back	Block3	2back/STIM_016.jpg
1531.851	0.707	1	2back	Block3	2back/STIM_017.jpg
1536.314	0.59	1	2back	Block3	2back/STIM_017.jpg
1539.553	0.713	1	2back	Block3	2back/STIM_017.jpg
1542.476	0.851	1	2back	Block3	2back/STIM_018.jpg
1545.698	0.377	1	2back	Block3	2back/STIM_018.jpg
1549.043	0.693	1	2back	Block3	2back/STIM_018.jpg
1553.27	0.871	1	2back	Block3	2back/STIM_019.jpg
1556.543	0.616	1	2back	Block3	2back/STIM_019.jpg
1559.406	0.741	1	2back	Block3	2back/STIM_019.jpg
1563.007	0.608	1	2back	Block3	2back/STIM_020.jpg
1567.2	0.891	0	2back	Block3	2back/STIM_020.jpg
1570.7	0.722	1	2back	Block3	2back/STIM_020.jpg
1574.88	0.596	1	2back	Block3	2back/STIM_021.jpg
1577.766	0.962	1	2back	Block3	2back/STIM_021.jpg
1581.152	0.969	0	2back	Block3	2back/STIM_021.jpg
1584.637	0.527	1	2back	Block3	2back/STIM_022.jpg
1588.28	0.757	1	2back	Block3	2back/STIM_022.jpg
1592.481	0.951	1	2back	Block3	2back/STIM_022.jpg
1597.342	0.868	1	2back	Block3	2back/STIM_023.jpg
1601.995	0.639	1	2back	Block3	2back/STIM_023.jpg
1605.424	0.792	1	2back	Block3	2back/STIM_023.jpg
1609.13	0.976	1	2back	Block3	2back/STIM_024.jpg
1613.154	0.736	1	2back	Block3	2back/STIM_024.jpg
1617.383	0.813	1	2back	Block3	2back/STIM_024.jpg
1621.564	0.456	1	2back	Block3	2back/STIM_025.jpg
1625.463	0.926	1	2back	Block3	2back/STIM_025.jpg
1630.222	0.792	1	2back	Block3	2back/STIM_025.jpg
1633.806	0.783	1	2back	Block3	2back/STIM_026.jpg
1637.986	0.822	1	2back	Block3	2back/STIM_026.jpg
1641.165	0.637	1	2back	Block3	2back/STIM_026.jpg
1644.972	0.913	1	2back	Block3	2back/STIM_027.jpg
1648.766	0.918	0	2back	Block3	2back/STIM_027.jpg
1653.641	0.676	1	2back	Block3	2back/STIM_027.jpg
1656.942	0.89	1	2back	Block3	2back/STIM_028.jpg
1660.853	0.678	1	2back	Block3	2back/STIM_028.jpg
1665.489	0.41	1	2back	Block3	2back/STIM_028.jpg
1668.296	0.713	1	2back	Block3	2back/STIM_029.jpg
1672.93	0.805	1	2back	Block3	2back/STIM_029.jpg
1675.762	0.874	1	2back	Block3	2back/STIM_029.jpg
1680.367	0.975	1	2back	Block3	2back/STIM_030.jpg
1684.509	0.535	1	2back	Block3	2back/STIM_030.jpg
1687.595	0.801	1	2back	Block3	2back/STIM_030.jpg
1691.626	0.684	1	2back	Block3	2back/STIM_031.jpg
1696.364	0.5	1	2back	Block3	2back/STIM_031.jpg
1700.248	0.529	1	2back	Block3	2back/STIM_031.jpg
1704.159	0.426	1	2back	Block3	2back/STIM_032.jpg
1707.307	0.87	1	2back	Block3	2back/STIM_032.jpg
1710.284	0.651	1	2back	Block3	2back/STIM_032.jpg
1714.75	0.948	1	2back	Block3	2back/STIM_033.jpg
1719.419	0.522	1	2back	Block3	2back/STIM_033.jpg
1723.801	0.558	1	2back	Block3	2back/STIM_033.jpg
1727.912	0.524	1	2back	Block3	2back/STIM_034.jpg
1730.547	0.549	1	2back	Block3	2back/STIM_034.jpg
1734.406	0.942	1	2back	Block3	2back/STIM_034.jpg
1737.834	0.708	1	2back	Block3	2back/STIM_035.jpg
1742.279	0.642	1	2back	Block3	2back/STIM_035.jpg
1745.26	0.864	1	2back	Block3	2back/STIM_035.jpg
1748.786	0.872	1	2back	Block3	2back/STIM_036.jpg
1752.807	0.693	1	2back	Block3	2back/STIM_036.jpg
1755.821	0.44	1	2back	Block3	2back/STIM_036.jpg
1758.32	0.47	1	2back	Block3	2back/STIM_037.jpg
1761.337	0.395	1	2back	Block3	2back/STIM_037.jpg
1765.672	0.939	1	2back	Block3	2back/STIM_037.jpg
1770.018	0.357	1	2back	Block3	2back/STIM_038.jpg
1772.448	0.618	1	2back	Block3	2back/STIM_038.jpg
1776.33	0.525	1	2back	Block3	2back/STIM_038.jpg
1779.116	0.692	1	2back	Block3	2back/STIM_039.jpg
1783.045	0.761	1	2back	Block3	2back/STIM_039.jpg
1787.011	0.911	1	2back	Block3	2back/STIM_039.jpg
1791.388	0.594	1	0back	Block3	0back/STIM_000.jpg
1795.745	0.618	1	0back	Block3	0back/STIM_000.jpg
1798.624	0.5	1	0back	Block3	0back/STIM_000.jpg
1801.292	0.504	1	0back	Block3	0back/STIM_001.jpg
1804.931	0.52	1	0back	Block3	0back/STIM_001.jpg
1808.737	0.634	1	0back	Block3	0back/STIM_001.jpg
1811.672	0.677	1	0back	Block3	0back/STIM_002.jpg
1814.89	0.673	1	0back	Block3	0back/STIM_002.jpg
1818.148	0.424	1	0back	Block3	0back/STIM_002.jpg
1821.898	0.454	1	0back	Block3	0back/STIM_003.jpg
1825.654	0.561	1	0back	Block3	0back/STIM_003.jpg
1829.032	0.572	1	0back	Block3	0back/STIM_003.jpg
1831.907	0.498	1	0back	Block3	0back/STIM_004.jpg
1834.698	0.393	1	0back	Block3	0back/STIM_004.jpg
1837.538	0.74	1	0back	Block3	0back/STIM_004.jpg
1841.182	0.681	1	0back	Block3	0back/STIM_005.jpg
1844.975	0.522	1	0back	Block3	0back/STIM_005.jpg
1848.297	0.509	1	0back	Block3	0back/STIM_005.jpg
1852.495	0.771	1	0back	Block3	0back/STIM_006.jpg
1857.154	0.692	1	0back	Block3	0back/STIM_006.jpg
1861.272	0.508	1	0back	Block3	0back/STIM_006.jpg
1864.027	0.676	1	0back	Block3	0back/STIM_007.jpg
1867.419	0.69	1	0back	Block3	0back/STIM_007.jpg
1871.824	0.673	1	0back	Block3	0back/STIM_007.jpg
1874.91	0.47	1	0back	Block3	0back/STIM_008.jpg
1877.471	0.522	1	0back	Block3	0back/STIM_008.jpg
1881.685	0.772	1	0back	Block3	0back/STIM_008.jpg
1885.733	0.478	1	0back	Block3	0back/STIM_009.jpg
1889.844	0.494	1	0back	Block3	0back/STIM_009.jpg
1892.877	0.495	1	0back	Block3	0back/STIM_009.jpg
1896.159	0.574	1	0back	Block3	0back/STIM_010.jpg
1899.008	0.543	1	0back	Block3	0back/STIM_010.jpg
1902.205	0.624	1	0back	Block3	0back/STIM_010.jpg
1906.685	0.749	1	0back	Block3	0back/STIM_011.jpg
1910.416	0.758	1	0back	Block3	0back/STIM_011.jpg
1914.718	0.762	1	0back	Block3	0back/STIM_011.jpg
1918.736	0.855	1	0back	Block3	0back/STIM_012.jpg
1923.449	0.343	1	0back	Block3	0back/STIM_012.jpg
1926.209	0.538	1	0back	Block3	0back/STIM_012.jpg
1929.456	0.491	1	0back	Block3	0back/STIM_013.jpg
1932.597	0.615	1	0back	Block3	0back/STIM_013.jpg
1936.111	0.461	1	0back	Block3	0back/STIM_013.jpg
1939.561	0.535	1	0back	Block3	0back/STIM_014.jpg
1943.089	0.439	1	0back	Block3	0back/STIM_014.jpg
1945.672	0.544	1	0back	Block3	0back/STIM_014.jpg
1949.425	0.522	1	0back	Block3	0back/STIM_015.jpg
1953.091	0.649	1	0back	Block3	0back/STIM_015.jpg
1956.176	0.574	1	0back	Block3	0back/STIM_015.jpg
1959.682	0.565	1	0back	Block3	0back/STIM_016.jpg
1963.008	0.805	1	0back	Block3	0back/STIM_016.jpg
1966.018	0.452	0	0back	Block3	0back/STIM_016.jpg
1969.754	0.849	1	0back	Block3	0back/STIM_017.jpg
1974.418	0.377	1	0back	Block3	0back/STIM_017.jpg
1977.608	0.513	1	0back	Block3	0back/STIM_017.jpg
1980.339	0.668	1	0back	Block3	0back/STIM_018.jpg
1983.759	0.594	1	0back	Block3	0back/STIM_018.jpg
1987.167	0.58	1	0back	Block3	0back/STIM_018.jpg
1991.699	0.748	1	0back	Block3	0back/STIM_019.jpg
1996.295	0.788	1	0back	Block3	0back/STIM_019.jpg
2000.545	0.46	1	0back	Block3	0back/STIM_019.jpg
2004.96	0.677	1	2back	Block4	2back/STIM_000.jpg
2009.253	0.92	1	2back	Block4	2back/STIM_000.jpg
2012.482	0.87	1	2back	Block4	2back/STIM_000.jpg
2016.317	0.861	1	2back	Block4	2back/STIM_001.jpg
2020.288	0.645	1	2back	Block4	2back/STIM_001.jpg
2024.26	0.936	1	2back	Block4	2back/STIM_001.jpg
2027.419	0.954	1	2back	Block4	2back/STIM_002.jpg
2031.059	0.571	1	2back	Block4	2back/STIM_002.jpg
2034.65	0.564	1	2back	Block4	2back/STIM_002.jpg
2039.152	0.707	1	2back	Block4	2back/STIM_003.jpg
2042.58	0.498	1	2back	Block4	2back/STIM_003.jpg
2047.048	0.888	1	2back	Block4	2back/STIM_003.jpg
2051.555	0.454	1	2back	Block4	2back/STIM_004.jpg
2055.015	0.624	0	2back	Block4	2back/STIM_004.jpg
2059.686	0.738	1	2back	Block4	2back/STIM_004.jpg
2064.348	0.494	0	2back	Block4	2back/STIM_005.jpg
2067.249	0.656	1	2back	Block4	2back/STIM_005.jpg
2070.534	0.879	1	2back	Block4	2back/STIM_005.jpg
2075.186	0.441	1	2back	Block4	2back/STIM_006.jpg
2079.243	0.841	1	2back	Block4	2back/STIM_006.jpg
2083.278	0.941	1	2back	Block4	2back/STIM_006.jpg
2087.527	0.514	1	2back	Block4	2back/STIM_007.jpg
2090.889	0.713	1	2back	Block4	2back/STIM_007.jpg
2093.935	0.496	1	2back	Block4	2back/STIM_007.jpg
2096.652	0.828	1	2back	Block4	2back/STIM_008.jpg
2099.757	0.73	1	2back	Block4	2back/STIM_008.jpg
2102.569	0.751	1	2back	Block4	2back/STIM_008.jpg
2105.486	0.8	1	2back	Block4	2back/STIM_009.jpg
2108.965	0.475	1	2back	Block4	2back/STIM_009.jpg
2112.638	0.584	1	2back	Block4	2back/STIM_009.jpg
2116.952	0.677	1	2back	Block4	2back/STIM_010.jpg
2120.866	0.812	1	2back	Block4	2back/STIM_010.jpg
2124.008	1.014	1	2back	Block4	2back/STIM_010.jpg
2127.814	0.96	1	2back	Block4	2back/STIM_011.jpg
2131.266	0.799	1	2back	Block4	2back/STIM_011.jpg
2134.971	0.596	1	2back	Block4	2back/STIM_011.jpg
2138.28	0.773	1	2back	Block4	2back/STIM_012.jpg
2142.783	0.864	1	2back	Block4	2back/STIM_012.jpg
2146.662	0.941	1	2back	Block4	2back/STIM_012.jpg
2150.833	0.708	1	2back	Block4	2back/STIM_013.jpg
2154.294	0.912	1	2back	Block4	2back/STIM_013.jpg
2157.76	0.578	0	2back	Block4	2back/STIM_013.jpg
2161.571	0.411	1	2back	Block4	2back/STIM_014.jpg
2166.001	0.97	1	2back	Block4	2back/STIM_014.jpg
2169.311	0.887	1	2back	Block4	2back/STIM_014.jpg
2173.631	0.777	1	2back	Block4	2back/STIM_015.jpg
2177.661	0.892	1	2back	Block4	2back/STIM_015.jpg
2182.078	0.467	1	2back	Block4	2back/STIM_015.jpg
2186.429	0.69	1	2back	Block4	2back/STIM_016.jpg
2189.296	0.716	1	2back	Block4	2back/STIM_016.jpg
2192.036	0.853	1	2back	Block4	2back/STIM_016.jpg
2196.417	0.941	1	2back	Block4	2back/STIM_017.jpg
2200.106	0.59	1	2back	Block4	2back/STIM_017.jpg
2202.972	0.919	1	2back	Block4	2back/STIM_017.jpg
2206.003	0.51	1	2back	Block4	2back/STIM_018.jpg
2208.701	0.84	1	2back	Block4	2back/STIM_018.jpg
2213.5	0.674	1	2back	Block4	2back/STIM_018.jpg
2216.736	0.49	1	2back	Block4	2back/STIM_019.jpg
2219.589	0.603	1	2back	Block4	2back/STIM_019.jpg
2222.387	0.689	1	2back	Block4	2back/STIM_019.jpg
2225.444	0.677	1	2back	Block4	2back/STIM_020.jpg
2228.363	0.503	1	2back	Block4	2back/STIM_020.jpg
2231.158	0.539	1	2back	Block4	2back/STIM_020.jpg
2234.731	0.65	1	2back	Block4	2back/STIM_021.jpg
2239.13	0.382	1	2back	Block4	2back/STIM_021.jpg
2241.735	0.817	1	2back	Block4	2back/STIM_021.jpg
2244.828	0.943	1	2back	Block4	2back/STIM_022.jpg
2249.075	0.635	1	2back	Block4	2back/STIM_022.jpg
2253.584	0.915	1	2back	Block4	2back/STIM_022.jpg
2257.746	0.521	1	2back	Block4	2back/STIM_023.jpg
2261.187	0.56	1	2back	Block4	2back/STIM_023.jpg
2264.68	0.445	1	2back	Block4	2back/STIM_023.jpg
2268.371	0.693	1	2back	Block4	2back/STIM_024.jpg
2271.392	0.76	1	2back	Block4	2back/STIM_024.jpg
2274.838	0.566	1	2back	Block4	2back/STIM_024.jpg
2279.31	0.835	1	2back	Block4	2back/STIM_025.jpg
2284.113	0.747	1	2back	Block4	2back/STIM_025.jpg
2287.189	0.478	1	2back	Block4	2back/STIM_025.jpg
2290.121	0.72	1	2back	Block4	2back/STIM_026.jpg
2294.633	0.734	1	2back	Block4	2back/STIM_026.jpg
2298.555	0.614	1	2back	Block4	2back/STIM_026.jpg
2301.446	0.476	1	2back	Block4	2back/STIM_027.jpg
2304.76	0.414	1	2back	Block4	2back/STIM_027.jpg
2307.932	0.944	1	2back	Block4	2back/STIM_027.jpg
2311.183	0.627	1	2back	Block4	2back/STIM_028.jpg
2314.542	0.568	1	2back	Block4	2back/STIM_028.jpg
2318.516	0.455	1	2back	Block4	2back/STIM_028.jpg
2321.929	0.84	1	2back	Block4	2back/STIM_029.jpg
2325.015	0.753	1	2back	Block4	2back/STIM_029.jpg
2329.152	0.688	1	2back	Block4	2back/STIM_029.jpg
2331.919	0.798	1	2back	Block4	2back/STIM_030.jpg
2335.22	0.587	1	2back	Block4	2back/STIM_030.jpg
2337.942	0.554	1	2back	Block4	2back/STIM_030.jpg
2341.679	0.834	1	2back	Block4	2back/STIM_031.jpg
2345.694	0.73	1	2back	Block4	2back/STIM_031.jpg
2350.252	0.86	1	2back	Block4	2back/STIM_031.jpg
2354.441	0.79	1	2back	Block4	2back/STIM_032.jpg
2358.265	0.934	1	2back	Block4	2back/STIM_032.jpg
2361.79	0.804	1	2back	Block4	2back/STIM_032.jpg
2366.371	0.8	1	2back	Block4	2back/STIM_033.jpg
2370.199	0.535	1	2back	Block4	2back/STIM_033.jpg
2374.056	0.635	1	2back	Block4	2back/STIM_033.jpg
2377.251	0.779	1	2back	Block4	2back/STIM_034.jpg
2380.323	0.656	1	2back	Block4	2back/STIM_034.jpg
2383.904	0.728	1	2back	Block4	2back/STIM_034.jpg
2387.08	0.73	1	2back	Block4	2back/STIM_035.jpg
2390.229	0.592	1	2back	Block4	2back/STIM_035.jpg
2393.035	0.824	1	2back	Block4	2back/STIM_035.jpg
2396.848	0.67	1	2back	Block4	2back/STIM_036.jpg
2400.405	0.856	1	2back	Block4	2back/STIM_036.jpg
2403.333	0.707	1	2back	Block4	2back/STIM_036.jpg
2406.721	0.974	1	2back	Block4	2back/STIM_037.jpg
2411.056	0.531	1	2back	Block4	2back/STIM_037.jpg
2415.515	0.905	1	2back	Block4	2back/STIM_037.jpg
2418.656	0.71	1	2back	Block4	2back/STIM_038.jpg
2423.011	0.464	1	2back	Block4	2back/STIM_038.jpg
2426.441	0.698	1	2back	Block4	2back/STIM_038.jpg
2430.827	0.504	1	2back	Block4	2back/STIM_039.jpg
2434.458	0.627	1	2back	Block4	2back/STIM_039.jpg
2438.73	0.85	1	2back	Block4	2back/STIM_039.jpg
2442.538	0.413	1	0back	Block4	0back/STIM_000.jpg
2446.025	0.723	1	0back	Block4	0back/STIM_000.jpg
2450.583	0.518	1	0back	Block4	0back/STIM_000.jpg
2454.229	0.764	1	0back	Block4	0back/STIM_001.jpg
2458.026	0.54	1	0back	Block4	0back/STIM_001.jpg
2461.491	0.728	1	0back	Block4	0back/STIM_001.jpg
2464.398	0.696	1	0back	Block4	0back/STIM_002.jpg
2467.677	0.694	1	0back	Block4	0back/STIM_002.jpg
2472.132	0.649	1	0back	Block4	0back/STIM_002.jpg
2476.409	0.428	1	0back	Block4	0back/STIM_003.jpg
2479.989	0.583	1	0back	Block4	0back/STIM_003.jpg
2482.639	0.691	1	0back	Block4	0back/STIM_003.jpg
2485.415	0.707	1	0back	Block4	0back/STIM_004.jpg
2489.287	0.507	1	0back	Block4	0back/STIM_004.jpg
2492.142	0.552	1	0back	Block4	0back/STIM_004.jpg
2496.223	0.416	1	0back	Block4	0back/STIM_005.jpg
2498.995	0.775	1	0back	Block4	0back/STIM_005.jpg
2502.625	0.69	1	0back	Block4	0back/STIM_005.jpg
2506.457	0.73	1	0back	Block4	0back/STIM_006.jpg
2509.294	0.849	1	0back	Block4	0back/STIM_006.jpg
2512.323	0.875	1	0back	Block4	0back/STIM_006.jpg
2515.838	0.602	1	0back	Block4	0back/STIM_007.jpg
2520.088	0.712	1	0back	Block4	0back/STIM_007.jpg
2524.189	0.718	1	0back	Block4	0back/STIM_007.jpg
2526.995	0.4	1	0back	Block4	0back/STIM_008.jpg
2530.95	0.487	1	0back	Block4	0back/STIM_008.jpg
2533.884	0.525	1	0back	Block4	0back/STIM_008.jpg
2537.656	0.427	1	0back	Block4	0back/STIM_009.jpg
2541.821	0.799	1	0back	Block4	0back/STIM_009.jpg
2544.655	0.449	1	0back	Block4	0back/STIM_009.jpg
2548.694	0.486	1	0back	Block4	0back/STIM_010.jpg
2552.977	0.514	1	0back	Block4	0back/STIM_010.jpg
2555.872	0.503	1	0back	Block4	0back/STIM_010.jpg
2559.107	0.65	1	0back	Block4	0back/STIM_011.jpg
2563.157	0.674	1	0back	Block4	0back/STIM_011.jpg
2566.761	0.433	1	0back	Block4	0back/STIM_011.jpg
2570.876	0.693	1	0back	Block4	0back/STIM_012.jpg
2573.728	0.509	1	0back	Block4	0back/STIM_012.jpg
2577.51	0.404	1	0back	Block4	0back/STIM_012.jpg
2580.755	0.565	0	0back	Block4	0back/STIM_013.jpg
2584.997	0.552	0	0back	Block4	0back/STIM_013.jpg
2588.767	0.566	1	0back	Block4	0back/STIM_013.jpg
2592.795	0.478	1	0back	Block4	0back/STIM_014.jpg
2597.342	0.559	1	0back	Block4	0back/STIM_014.jpg
2600.865	0.78	1	0back	Block4	0back/STIM_014.jpg
2605.582	0.401	1	0back	Block4	0back/STIM_015.jpg
2609.172	0.545	1	0back	Block4	0back/STIM_015.jpg
2612.281	0.682	1	0back	Block4	0back/STIM_015.jpg
2615.051	0.644	1	0back	Block4	0back/STIM_016.jpg
2618.033	0.765	1	0back	Block4	0back/STIM_016.jpg
2620.961	0.654	1	0back	Block4	0back/STIM_016.jpg
2623.869	0.678	1	0back	Block4	0back/STIM_017.jpg
2626.95	0.451	1	0back	Block4	0back/STIM_017.jpg
2630.047	0.472	1	0back	Block4	0back/STIM_017.jpg
2634.484	0.503	1	0back	Block4	0back/STIM_018.jpg
2638.62	0.607	1	0back	Block4	0back/STIM_018.jpg
2642.135	0.681	1	0back	Block4	0back/STIM_018.jpg
2646.674	0.563	1	0back	Block4	0back/STIM_019.jpg
2651.166	0.615	1	0back	Block4	0back/STIM_019.jpg
2654.919	0.819	1	0back	Block4	0back/STIM_019.jpg
