onset	duration	response_time_ms	trial_type	learning_stage	stimulus	response_port
0.0	0.76	760.2	2back	Block1	2back/STIM_000.jpg	100
3.243	1.037	1037.2	2back	Block1	2back/STIM_000.jpg	100
6.978	1.171	1170.9	2back	Block1	2back/STIM_000.jpg	100
10.29	0.831	831.4	2back	Block1	2back/STIM_001.jpg	99
14.182	0.614	614.4	2back	Block1	2back/STIM_001.jpg	99
17.096	0.978	977.9	2back	Block1	2back/STIM_001.jpg	100
21.472	1.329	1329.2	2back	Block1	2back/STIM_002.jpg	100
26.61	1.112	1112.2	2back	Block1	2back/STIM_002.jpg	99
29.98	0.716	716.3	2back	Block1	2back/STIM_002.jpg	99
34.655	0.893	893.3	2back	Block1	2back/STIM_003.jpg	99
37.604	1.294	1293.8	2back	Block1	2back/STIM_003.jpg	100
41.609	1.058	1057.8	2back	Block1	2back/STIM_003.jpg	99
45.54	1.231	1230.9	2back	Block1	2back/STIM_004.jpg	100
50.527	0.694	693.5	2back	Block1	2back/STIM_004.jpg	99
54.113	0.82	820.5	2back	Block1	2back/STIM_004.jpg	99
57.078	1.364	1363.6	2back	Block1	2back/STIM_005.jpg	100
62.106	0.592	592.0	2back	Block1	2back/STIM_005.jpg	99
66.608	0.642	641.9	2back	Block1	2back/STIM_005.jpg	100
69.433	0.78	779.9	2back	Block1	2back/STIM_006.jpg	99
73.685	1.233	1232.6	2back	Block1	2back/STIM_006.jpg	99
77.714	1.274	1274.1	2back	Block1	2back/STIM_006.jpg	99
82.825	1.229	1229.2	2back	Block1	2back/STIM_007.jpg	100
87.1	1.091	1090.8	2back	Block1	2back/STIM_007.jpg	99
90.777	1.049	1048.9	2back	Block1	2back/STIM_007.jpg	100
94.552	1.12	1120.1	2back	Block1	2back/STIM_008.jpg	99
98.201	1.072	1071.9	2back	Block1	2back/STIM_008.jpg	99
102.521	1.253	1252.6	2back	Block1	2back/STIM_008.jpg	99
107.745	0.694	694.4	2back	Block1	2back/STIM_009.jpg	100
111.814	0.938	937.8	2back	Block1	2back/STIM_009.jpg	100
115.782	0.952	952.1	2back	Block1	2back/STIM_009.jpg	100
120.157	1.152	1152.1	2back	Block1	2back/STIM_010.jpg	100
125.063	1.221	1221.1	2back	Block1	2back/STIM_010.jpg	99
129.629	1.097	1097.3	2back	Block1	2back/STIM_010.jpg	100
133.08	1.239	1239.0	2back	Block1	2back/STIM_011.jpg	100
137.694	1.172	1172.2	2back	Block1	2back/STIM_011.jpg	100
142.044	0.995	995.3	2back	Block1	2back/STIM_011.jpg	100
146.771	0.697	696.6	2back	Block1	2back/STIM_012.jpg	99
150.259	1.352	1352.2	2back	Block1	2back/STIM_012.jpg	100
155.438	0.752	752.3	2back	Block1	2back/STIM_012.jpg	99
158.517	0.658	657.7	2back	Block1	2back/STIM_013.jpg	99
161.529	1.034	1034.3	2back	Block1	2back/STIM_013.jpg	99
166.161	0.608	607.5	2back	Block1	2back/STIM_013.jpg	99
169.171	1.04	1039.6	2back	Block1	2back/STIM_014.jpg	99
174.063	0.967	967.3	2back	Block1	2back/STIM_014.jpg	99
178.474	0.732	731.6	2back	Block1	2back/STIM_014.jpg	100
182.659	1.293	1293.2	2back	Block1	2back/STIM_015.jpg	99
187.776	0.811	811.4	2back	Block1	2back/STIM_015.jpg	99
191.153	0.635	634.6	2back	Block1	2back/STIM_015.jpg	100
195.108	1.018	1018.1	2back	Block1	2back/STIM_016.jpg	100
199.792	1.143	1143.0	2back	Block1	2back/STIM_016.jpg	100
204.866	0.799	798.8	2back	Block1	2back/STIM_016.jpg	100
209.435	1.21	1209.7	2back	Block1	2back/STIM_017.jpg	100
214.541	0.634	634.5	2back	Block1	2back/STIM_017.jpg	99
218.046	1.019	1019.0	2back	Block1	2back/STIM_017.jpg	100
221.904	0.669	669.3	2back	Block1	2back/STIM_018.jpg	99
225.248	1.193	1193.4	2back	Block1	2back/STIM_018.jpg	100
228.783	0.761	761.0	2back	Block1	2back/STIM_018.jpg	100
232.436	1.408	1408.0	2back	Block1	2back/STIM_019.jpg	100
237.497	0.852	852.3	2back	Block1	2back/STIM_019.jpg	100
241.26	1.128	1128.5	2back	Block1	2back/STIM_019.jpg	99
245.567	1.097	1097.3	2back	Block1	2back/STIM_020.jpg	99
249.212	0.699	699.0	2back	Block1	2back/STIM_020.jpg	99
252.688	0.81	809.7	2back	Block1	2back/STIM_020.jpg	99
255.876	0.861	860.7	2back	Block1	2back/STIM_021.jpg	100
258.87	1.043	1043.4	2back	Block1	2back/STIM_021.jpg	99
261.97	1.23	1229.7	2back	Block1	2back/STIM_021.jpg	100
265.921	1.081	1080.6	2back	Block1	2back/STIM_022.jpg	100
269.522	0.966	965.6	2back	Block1	2back/STIM_022.jpg	100
273.905	1.213	1212.8	2back	Block1	2back/STIM_022.jpg	99
277.997	1.088	1088.0	2back	Block1	2back/STIM_023.jpg	100
282.027	1.211	1210.7	2back	Block1	2back/STIM_023.jpg	99
286.171	0.98	979.8	2back	Block1	2back/STIM_023.jpg	100
289.943	0.907	907.4	2back	Block1	2back/STIM_024.jpg	99
293.212	0.909	909.4	2back	Block1	2back/STIM_024.jpg	99
297.709	0.782	782.2	2back	Block1	2back/STIM_024.jpg	100
300.73	0.975	974.9	2back	Block1	2back/STIM_025.jpg	100
304.767	1.313	1312.8	2back	Block1	2back/STIM_025.jpg	100
308.325	0.834	834.4	2back	Block1	2back/STIM_025.jpg	99
311.984	1.425	1425.2	2back	Block1	2back/STIM_026.jpg	100
315.773	0.929	929.2	2back	Block1	2back/STIM_026.jpg	99
319.3	0.947	947.0	2back	Block1	2back/STIM_026.jpg	100
322.963	1.382	1381.8	2back	Block1	2back/STIM_027.jpg	100
326.705	1.264	1263.9	2back	Block1	2back/STIM_027.jpg	100
330.079	1.06	1059.9	2back	Block1	2back/STIM_027.jpg	99
333.849	1.074	1074.2	2back	Block1	2back/STIM_028.jpg	99
336.955	0.904	903.9	2back	Block1	2back/STIM_028.jpg	100
341.637	0.837	837.4	2back	Block1	2back/STIM_028.jpg	99
346.02	0.942	941.8	2back	Block1	2back/STIM_029.jpg	100
349.613	0.609	609.2	2back	Block1	2back/STIM_029.jpg	99
353.191	1.191	1190.9	2back	Block1	2back/STIM_029.jpg	100
357.568	1.17	1170.5	2back	Block1	2back/STIM_030.jpg	99
362.714	1.341	1340.9	2back	Block1	2back/STIM_030.jpg	100
366.91	0.598	598.1	2back	Block1	2back/STIM_030.jpg	99
371.283	0.993	992.9	2back	Block1	2back/STIM_031.jpg	99
375.594	1.076	1075.8	2back	Block1	2back/STIM_031.jpg	100
380.397	0.77	770.2	2back	Block1	2back/STIM_031.jpg	99
383.348	0.615	614.7	2back	Block1	2back/STIM_032.jpg	99
386.122	0.644	643.5	2back	Block1	2back/STIM_032.jpg	100
389.276	1.091	1090.6	2back	Block1	2back/STIM_032.jpg	99
393.722	1.31	1310.5	2back	Block1	2back/STIM_033.jpg	100
397.373	0.916	915.8	2back	Block1	2back/STIM_033.jpg	99
401.879	1.223	1223.2	2back	Block1	2back/STIM_033.jpg	99
406.374	1.423	1422.9	2back	Block1	2back/STIM_034.jpg	99
409.889	0.591	591.2	2back	Block1	2back/STIM_034.jpg	99
413.94	0.852	852.0	2back	Block1	2back/STIM_034.jpg	100
417.745	1.389	1389.0	2back	Block1	2back/STIM_035.jpg	100
423.088	0.612	612.2	2back	Block1	2back/STIM_035.jpg	100
425.822	0.774	774.2	2back	Block1	2back/STIM_035.jpg	99
429.9	0.836	835.6	2back	Block1	2back/STIM_036.jpg	99
433.58	1.268	1267.8	2back	Block1	2back/STIM_036.jpg	99
438.562	0.601	601.4	2back	Block1	2back/STIM_036.jpg	99
442.824	1.414	1413.9	2back	Block1	2back/STIM_037.jpg	100
447.424	1.12	1120.5	2back	Block1	2back/STIM_037.jpg	99
451.542	0.917	916.7	2back	Block1	2back/STIM_037.jpg	100
456.106	1.29	1290.0	2back	Block1	2back/STIM_038.jpg	100
460.698	1.058	1058.2	2back	Block1	2back/STIM_038.jpg	99
465.567	0.985	985.0	2back	Block1	2back/STIM_038.jpg	99
469.666	0.968	968.1	2back	Block1	2back/STIM_039.jpg	100
474.628	1.17	1169.8	2back	Block1	2back/STIM_039.jpg	100
478.195	0.629	629.0	2back	Block1	2back/STIM_039.jpg	100
481.276	0.587	587.3	0back	Block1	0back/STIM_000.jpg	99
484.628	0.576	576.0	0back	Block1	0back/STIM_000.jpg	99
487.769	0.775	775.3	0back	Block1	0back/STIM_000.jpg	99
490.604	0.674	674.5	0back	Block1	0back/STIM_001.jpg	99
493.681	0.619	619.2	0back	Block1	0back/STIM_001.jpg	100
496.702	0.757	757.2	0back	Block1	0back/STIM_001.jpg	100
499.527	0.463	463.0	0back	Block1	0back/STIM_002.jpg	100
503.377	0.508	508.3	0back	Block1	0back/STIM_002.jpg	99
507.336	0.699	699.2	0back	Block1	0back/STIM_002.jpg	100
510.812	0.642	642.5	0back	Block1	0back/STIM_003.jpg	100
514.833	0.453	453.0	0back	Block1	0back/STIM_003.jpg	100
518.684	0.511	510.7	0back	Block1	0back/STIM_003.jpg	100
521.896	0.623	623.4	0back	Block1	0back/STIM_004.jpg	100
526.25	0.553	553.4	0back	Block1	0back/STIM_004.jpg	100
530.655	0.451	450.9	0back	Block1	0back/STIM_004.jpg	100
534.532	0.597	597.1	0back	Block1	0back/STIM_005.jpg	99
537.241	0.68	680.5	0back	Block1	0back/STIM_005.jpg	99
540.872	0.547	546.7	0back	Block1	0back/STIM_005.jpg	99
544.047	0.602	602.3	0back	Block1	0back/STIM_006.jpg	100
548.151	0.727	727.0	0back	Block1	0back/STIM_006.jpg	99
552.67	0.473	473.4	0back	Block1	0back/STIM_006.jpg	99
556.785	0.765	765.2	0back	Block1	0back/STIM_007.jpg	100
561.328	0.645	644.6	0back	Block1	0back/STIM_007.jpg	100
565.531	0.618	617.9	0back	Block1	0back/STIM_007.jpg	100
569.174	0.756	755.5	0back	Block1	0back/STIM_008.jpg	99
572.262	0.458	457.9	0back	Block1	0back/STIM_008.jpg	100
576.28	0.425	424.8	0back	Block1	0back/STIM_008.jpg	100
579.814	0.522	521.6	0back	Block1	0back/STIM_009.jpg	99
583.996	0.556	556.2	0back	Block1	0back/STIM_009.jpg	100
587.019	0.803	803.0	0back	Block1	0back/STIM_009.jpg	99
590.941	0.552	552.4	0back	Block1	0back/STIM_010.jpg	99
593.738	0.68	679.6	0back	Block1	0back/STIM_010.jpg	99
597.134	0.649	649.3	0back	Block1	0back/STIM_010.jpg	100
600.504	0.446	446.2	0back	Block1	0back/STIM_011.jpg	100
604.473	0.531	530.8	0back	Block1	0back/STIM_011.jpg	99
608.028	0.701	701.4	0back	Block1	0back/STIM_011.jpg	99
612.62	0.736	736.5	0back	Block1	0back/STIM_012.jpg	100
616.184	0.795	794.6	0back	Block1	0back/STIM_012.jpg	100
620.654	0.652	651.6	0back	Block1	0back/STIM_012.jpg	100
624.3	0.614	614.0	0back	Block1	0back/STIM_013.jpg	99
627.355	0.75	750.4	0back	Block1	0back/STIM_013.jpg	99
630.855	0.575	575.0	0back	Block1	0back/STIM_013.jpg	99
634.781	0.78	779.6	0back	Block1	0back/STIM_014.jpg	100
638.467	0.709	708.6	0back	Block1	0back/STIM_014.jpg	99
642.902	0.536	535.8	0back	Block1	0back/STIM_014.jpg	100
646.123	0.473	473.4	0back	Block1	0back/STIM_015.jpg	100
648.648	0.75	749.6	0back	Block1	0back/STIM_015.jpg	99
651.758	0.432	431.8	0back	Block1	0back/STIM_015.jpg	99
654.254	0.443	442.9	0back	Block1	0back/STIM_016.jpg	99
657.716	0.621	620.7	0back	Block1	0back/STIM_016.jpg	99
661.697	0.525	525.0	0back	Block1	0back/STIM_016.jpg	99
665.587	0.724	724.4	0back	Block1	0back/STIM_017.jpg	99
669.958	0.489	489.1	0back	Block1	0back/STIM_017.jpg	100
674.398	0.71	710.2	0back	Block1	0back/STIM_017.jpg	100
678.383	0.625	624.6	0back	Block1	0back/STIM_018.jpg	100
681.971	0.587	587.1	0back	Block1	0back/STIM_018.jpg	100
684.591	0.817	816.9	0back	Block1	0back/STIM_018.jpg	100
688.35	0.718	718.4	0back	Block1	0back/STIM_019.jpg	99
691.51	0.511	511.3	0back	Block1	0back/STIM_019.jpg	100
695.184	0.771	770.9	0back	Block1	0back/STIM_019.jpg	99
698.99	1.013	1013.1	2back	Block2	2back/STIM_000.jpg	99
702.507	0.696	695.8	2back	Block2	2back/STIM_000.jpg	99
706.032	0.654	654.4	2back	Block2	2back/STIM_000.jpg	100
710.391	0.807	807.2	2back	Block2	2back/STIM_001.jpg	99
714.752	0.528	527.7	2back	Block2	2back/STIM_001.jpg	99
719.079	0.706	705.6	2back	Block2	2back/STIM_001.jpg	100
722.007	1.025	1025.1	2back	Block2	2back/STIM_002.jpg	100
726.381	0.669	669.4	2back	Block2	2back/STIM_002.jpg	100
729.227	0.75	750.1	2back	Block2	2back/STIM_002.jpg	99
732.738	0.522	521.8	2back	Block2	2back/STIM_003.jpg	99
736.638	0.984	983.7	2back	Block2	2back/STIM_003.jpg	100
741.234	0.953	952.6	2back	Block2	2back/STIM_003.jpg	100
746.178	0.998	998.5	2back	Block2	2back/STIM_004.jpg	99
750.333	1.115	1114.6	2back	Block2	2back/STIM_004.jpg	100
754.21	0.783	782.6	2back	Block2	2back/STIM_004.jpg	99
758.696	0.888	888.1	2back	Block2	2back/STIM_005.jpg	100
763.247	0.672	672.0	2back	Block2	2back/STIM_005.jpg	99
766.756	0.651	650.9	2back	Block2	2back/STIM_005.jpg	100
770.251	1.104	1103.9	2back	Block2	2back/STIM_006.jpg	100
773.765	1.118	1118.3	2back	Block2	2back/STIM_006.jpg	99
777.68	0.957	957.1	2back	Block2	2back/STIM_006.jpg	100
780.647	0.751	750.7	2back	Block2	2back/STIM_007.jpg	100
785.226	0.723	722.7	2back	Block2	2back/STIM_007.jpg	99
788.42	0.787	787.1	2back	Block2	2back/STIM_007.jpg	100
793.131	0.712	712.1	2back	Block2	2back/STIM_008.jpg	99
797.265	1.062	1062.5	2back	Block2	2back/STIM_008.jpg	100
801.692	0.547	546.8	2back	Block2	2back/STIM_008.jpg	99
804.295	0.929	928.7	2back	Block2	2back/STIM_009.jpg	99
807.926	0.537	536.9	2back	Block2	2back/STIM_009.jpg	100
812.079	0.728	728.4	2back	Block2	2back/STIM_009.jpg	99
816.506	0.605	605.1	2back	Block2	2back/STIM_010.jpg	100
819.819	0.77	769.9	2back	Block2	2back/STIM_010.jpg	99
823.633	0.52	520.1	2back	Block2	2back/STIM_010.jpg	100
827.22	0.558	558.4	2back	Block2	2back/STIM_011.jpg	99
830.401	0.94	940.1	2back	Block2	2back/STIM_011.jpg	99
833.54	0.689	689.2	2back	Block2	2back/STIM_011.jpg	100
836.303	0.552	551.8	2back	Block2	2back/STIM_012.jpg	99
838.981	0.824	824.2	2back	Block2	2back/STIM_012.jpg	100
841.946	0.824	824.0	2back	Block2	2back/STIM_012.jpg	99
846.546	0.905	904.6	2back	Block2	2back/STIM_013.jpg	99
851.388	0.809	808.8	2back	Block2	2back/STIM_013.jpg	99
854.473	0.813	813.4	2back	Block2	2back/STIM_013.jpg	99
858.929	1.041	1040.7	2back	Block2	2back/STIM_014.jpg	100
863.413	0.821	821.3	2back	Block2	2back/STIM_014.jpg	99
867.791	0.608	608.5	2back	Block2	2back/STIM_014.jpg	99
872.036	0.558	557.9	2back	Block2	2back/STIM_015.jpg	99
874.827	0.705	705.1	2back	Block2	2back/STIM_015.jpg	100
879.233	0.884	884.2	2back	Block2	2back/STIM_015.jpg	100
882.168	0.564	563.6	2back	Block2	2back/STIM_016.jpg	100
886.148	0.71	709.8	2back	Block2	2back/STIM_016.jpg	100
890.494	1.012	1011.5	2back	Block2	2back/STIM_016.jpg	100
894.412	0.833	832.7	2back	Block2	2back/STIM_017.jpg	100
898.88	1.142	1141.6	2back	Block2	2back/STIM_017.jpg	100
903.377	0.985	984.8	2back	Block2	2back/STIM_017.jpg	100
906.986	1.173	1173.3	2back	Block2	2back/STIM_018.jpg	99
910.292	1.11	1110.0	2back	Block2	2back/STIM_018.jpg	100
915.143	1.064	1064.5	2back	Block2	2back/STIM_018.jpg	100
919.094	1.062	1062.4	2back	Block2	2back/STIM_019.jpg	100
923.443	1.014	1013.8	2back	Block2	2back/STIM_019.jpg	99
926.523	0.91	910.0	2back	Block2	2back/STIM_019.jpg	100
929.875	0.755	755.0	2back	Block2	2back/STIM_020.jpg	99
933.521	0.528	527.6	2back	Block2	2back/STIM_020.jpg	99
937.806	0.809	809.4	2back	Block2	2back/STIM_020.jpg	99
940.957	0.676	676.4	2back	Block2	2back/STIM_021.jpg	99
945.456	0.818	818.3	2back	Block2	2back/STIM_021.jpg	100
948.275	0.932	931.6	2back	Block2	2back/STIM_021.jpg	100
952.151	0.765	764.8	2back	Block2	2back/STIM_022.jpg	99
956.133	0.985	985.0	2back	Block2	2back/STIM_022.jpg	99
961.11	0.844	844.2	2back	Block2	2back/STIM_022.jpg	99
964.936	0.865	865.3	2back	Block2	2back/STIM_023.jpg	100
968.316	0.955	955.2	2back	Block2	2back/STIM_023.jpg	99
972.342	0.592	591.9	2back	Block2	2back/STIM_023.jpg	100
974.977	0.971	971.0	2back	Block2	2back/STIM_024.jpg	99
979.934	0.742	742.3	2back	Block2	2back/STIM_024.jpg	100
982.87	1.06	1060.0	2back	Block2	2back/STIM_024.jpg	100
986.954	0.665	664.9	2back	Block2	2back/STIM_025.jpg	99
991.095	0.697	696.7	2back	Block2	2back/STIM_025.jpg	100
995.305	0.83	830.0	2back	Block2	2back/STIM_025.jpg	100
999.148	0.986	985.6	2back	Block2	2back/STIM_026.jpg	100
1002.166	1.121	1120.9	2back	Block2	2back/STIM_026.jpg	99
1006.221	0.472	471.5	2back	Block2	2back/STIM_026.jpg	100
1010.648	1.007	1007.1	2back	Block2	2back/STIM_027.jpg	99
1013.977	0.699	698.6	2back	Block2	2back/STIM_027.jpg	100
1017.736	1.002	1001.9	2back	Block2	2back/STIM_027.jpg	99
1022.291	0.944	944.5	2back	Block2	2back/STIM_028.jpg	100
1025.552	1.125	1125.4	2back	Block2	2back/STIM_028.jpg	99
1029.286	0.497	496.7	2back	Block2	2back/STIM_028.jpg	99
1032.384	0.53	530.0	2back	Block2	2back/STIM_029.jpg	100
1036.252	0.509	508.9	2back	Block2	2back/STIM_029.jpg	100
1038.914	0.746	746.1	2back	Block2	2back/STIM_029.jpg	99
1042.532	0.934	934.1	2back	Block2	2back/STIM_030.jpg	99
1047.293	1.031	1031.3	2back	Block2	2back/STIM_030.jpg	99
1051.393	1.024	1023.8	2back	Block2	2back/STIM_030.jpg	99
1055.144	1.164	1164.1	2back	Block2	2back/STIM_031.jpg	100
1060.259	0.77	770.0	2back	Block2	2back/STIM_031.jpg	99
1063.912	0.904	904.3	2back	Block2	2back/STIM_031.jpg	100
1067.668	0.734	733.9	2back	Block2	2back/STIM_032.jpg	100
1071.948	0.777	777.1	2back	Block2	2back/STIM_032.jpg	99
1076.615	0.841	840.9	2back	Block2	2back/STIM_032.jpg	100
1080.408	1.164	1164.0	2back	Block2	2back/STIM_033.jpg	99
1084.765	0.499	499.1	2back	Block2	2back/STIM_033.jpg	99
1088.079	0.712	711.8	2back	Block2	2back/STIM_033.jpg	100
1090.96	1.071	1070.6	2back	Block2	2back/STIM_034.jpg	99
1095.995	0.933	932.7	2back	Block2	2back/STIM_034.jpg	99
1099.15	0.473	472.9	2back	Block2	2back/STIM_034.jpg	99
1101.802	1.122	1122.5	2back	Block2	2back/STIM_035.jpg	100
1106.439	0.893	893.4	2back	Block2	2back/STIM_035.jpg	100
1110.683	1.009	1009.0	2back	Block2	2back/STIM_035.jpg	100
1114.884	0.823	822.7	2back	Block2	2back/STIM_036.jpg	99
1117.71	0.811	810.8	2back	Block2	2back/STIM_036.jpg	99
1122.421	0.839	838.6	2back	Block2	2back/STIM_036.jpg	100
1126.144	1.032	1032.5	2back	Block2	2back/STIM_037.jpg	100
1130.428	0.582	581.7	2back	Block2	2back/STIM_037.jpg	99
1134.656	0.653	652.9	2back	Block2	2back/STIM_037.jpg	99
1138.842	0.884	883.5	2back	Block2	2back/STIM_038.jpg	100
1142.461	0.776	776.2	2back	Block2	2back/STIM_038.jpg	100
1145.574	1.002	1001.6	2back	Block2	2back/STIM_038.jpg	99
1149.311	0.893	892.9	2back	Block2	2back/STIM_039.jpg	100
1153.862	0.946	945.6	2back	Block2	2back/STIM_039.jpg	99
1156.913	0.801	800.6	2back	Block2	2back/STIM_039.jpg	100
1160.673	0.467	467.4	0back	Block2	0back/STIM_000.jpg	99
1163.416	0.675	675.2	0back	Block2	0back/STIM_000.jpg	100
1166.405	0.608	608.3	0back	Block2	0back/STIM_000.jpg	99
1169.925	0.628	628.5	0back	Block2	0back/STIM_001.jpg	100
1173.582	0.539	538.9	0back	Block2	0back/STIM_001.jpg	99
1176.373	0.54	539.6	0back	Block2	0back/STIM_001.jpg	99
1180.372	0.488	487.5	0back	Block2	0back/STIM_002.jpg	99
1183.992	0.583	583.0	0back	Block2	0back/STIM_002.jpg	100
1187.889	0.687	687.1	0back	Block2	0back/STIM_002.jpg	100
1190.95	0.444	443.6	0back	Block2	0back/STIM_003.jpg	99
1195.265	0.507	506.9	0back	Block2	0back/STIM_003.jpg	100
1199.348	0.654	654.2	0back	Block2	0back/STIM_003.jpg	99
1203.941	0.522	521.8	0back	Block2	0back/STIM_004.jpg	99
1207.189	0.568	568.1	0back	Block2	0back/STIM_004.jpg	99
1210.064	0.437	437.1	0back	Block2	0back/STIM_004.jpg	100
1214.007	0.695	694.7	0back	Block2	0back/STIM_005.jpg	99
1218.269	0.748	747.7	0back	Block2	0back/STIM_005.jpg	100
1221.517	0.545	544.9	0back	Block2	0back/STIM_005.jpg	100
1224.701	0.44	440.5	0back	Block2	0back/STIM_006.jpg	100
1228.23	0.491	490.9	0back	Block2	0back/STIM_006.jpg	100
1232.42	0.635	634.7	0back	Block2	0back/STIM_006.jpg	100
1236.097	0.535	534.8	0back	Block2	0back/STIM_007.jpg	99
1239.658	0.796	796.5	0back	Block2	0back/STIM_007.jpg	100
1243.389	0.641	640.9	0back	Block2	0back/STIM_007.jpg	99
1246.195	0.808	808.3	0back	Block2	0back/STIM_008.jpg	100
1249.193	0.748	747.9	0back	Block2	0back/STIM_008.jpg	100
1253.504	0.528	527.7	0back	Block2	0back/STIM_008.jpg	99
1256.6	0.479	478.7	0back	Block2	0back/STIM_009.jpg	99
1259.896	0.605	605.3	0back	Block2	0back/STIM_009.jpg	100
1263.589	0.493	492.9	0back	Block2	0back/STIM_009.jpg	100
1267.993	0.714	713.6	0back	Block2	0back/STIM_010.jpg	99
1271.856	0.54	540.0	0back	Block2	0back/STIM_010.jpg	100
1276.292	0.713	713.4	0back	Block2	0back/STIM_010.jpg	100
1279.601	0.748	748.3	0back	Block2	0back/STIM_011.jpg	100
1282.365	0.816	816.2	0back	Block2	0back/STIM_011.jpg	100
1286.326	0.597	597.2	0back	Block2	0back/STIM_011.jpg	100
1289.578	0.627	627.2	0back	Block2	0back/STIM_012.jpg	99
1294.182	0.706	705.6	0back	Block2	0back/STIM_012.jpg	99
1298.707	0.612	611.9	0back	Block2	0back/STIM_012.jpg	99
1301.748	0.628	628.3	0back	Block2	0back/STIM_013.jpg	99
1305.8	0.466	466.5	0back	Block2	0back/STIM_013.jpg	99
1308.933	0.73	730.3	0back	Block2	0back/STIM_013.jpg	99
1313.196	0.58	579.8	0back	Block2	0back/STIM_014.jpg	99
1317.363	0.513	513.3	0back	Block2	0back/STIM_014.jpg	99
1320.253	0.811	810.8	0back	Block2	0back/STIM_014.jpg	100
1324.023	0.741	741.1	0back	Block2	0back/STIM_015.jpg	100
1328.249	0.758	758.4	0back	Block2	0back/STIM_015.jpg	99
1331.912	0.601	601.3	0back	Block2	0back/STIM_015.jpg	99
1336.512	0.531	531.4	0back	Block2	0back/STIM_016.jpg	100
1340.978	0.743	742.9	0back	Block2	0back/STIM_016.jpg	99
1343.875	0.501	501.5	0back	Block2	0back/STIM_016.jpg	100
1346.403	0.496	495.5	0back	Block2	0back/STIM_017.jpg	99
1349.186	0.817	816.9	0back	Block2	0back/STIM_017.jpg	99
1353.201	0.751	750.9	0back	Block2	0back/STIM_017.jpg	100
1357.811	0.674	674.1	0back	Block2	0back/STIM_018.jpg	99
1362.051	0.429	428.8	0back	Block2	0back/STIM_018.jpg	99
1364.583	0.708	708.2	0back	Block2	0back/STIM_018.jpg	100
1368.609	0.626	626.2	0back	Block2	0back/STIM_019.jpg	100
1372.676	0.525	525.1	0back	Block2	0back/STIM_019.jpg	100
1377.177	0.47	469.6	0back	Block2	0back/STIM_019.jpg	100
1380.367	0.593	592.7	2back	Block3	2back/STIM_000.jpg	99
1384.522	0.818	817.5	2back	Block3	2back/STIM_000.jpg	99
1388.694	0.748	748.1	2back	Block3	2back/STIM_000.jpg	99
1392.04	0.476	475.9	2back	Block3	2back/STIM_001.jpg	99
1395.921	0.821	821.1	2back	Block3	2back/STIM_001.jpg	99
1399.897	0.683	683.1	2back	Block3	2back/STIM_001.jpg	99
1404.47	0.585	584.6	2back	Block3	2back/STIM_002.jpg	99
1407.886	0.7	700.1	2back	Block3	2back/STIM_002.jpg	99
1412.463	0.608	607.5	2back	Block3	2back/STIM_002.jpg	100
1416.204	0.484	483.9	2back	Block3	2back/STIM_003.jpg	100
1419.673	0.447	447.2	2back	Block3	2back/STIM_003.jpg	99
1423.205	0.689	688.7	2back	Block3	2back/STIM_003.jpg	100
1427.699	0.836	835.7	2back	Block3	2back/STIM_004.jpg	99
1431.535	0.431	430.8	2back	Block3	2back/STIM_004.jpg	100
1434.686	0.796	796.3	2back	Block3	2back/STIM_004.jpg	100
1438.097	0.58	579.7	2back	Block3	2back/STIM_005.jpg	100
1440.967	0.993	992.8	2back	Block3	2back/STIM_005.jpg	100
1444.199	0.669	668.6	2back	Block3	2back/STIM_005.jpg	100
1448.481	0.771	770.6	2back	Block3	2back/STIM_006.jpg	99
1452.646	0.482	482.0	2back	Block3	2back/STIM_006.jpg	100
1455.608	0.901	900.8	2back	Block3	2back/STIM_006.jpg	99
1458.636	0.537	536.9	2back	Block3	2back/STIM_007.jpg	99
1461.503	0.697	697.1	2back	Block3	2back/STIM_007.jpg	99
1464.348	0.968	968.5	2back	Block3	2back/STIM_007.jpg	100
1467.342	0.934	933.6	2back	Block3	2back/STIM_008.jpg	100
1471.149	0.719	719.1	2back	Block3	2back/STIM_008.jpg	100
1473.922	0.772	771.7	2back	Block3	2back/STIM_008.jpg	99
1477.714	0.891	891.3	2back	Block3	2back/STIM_009.jpg	100
1482.022	0.503	503.1	2back	Block3	2back/STIM_009.jpg	100
1484.979	0.945	944.6	2back	Block3	2back/STIM_009.jpg	100
1488.527	0.648	648.0	2back	Block3	2back/STIM_010.jpg	100
1491.881	0.66	659.7	2back	Block3	2back/STIM_010.jpg	99
1495.786	0.522	522.3	2back	Block3	2back/STIM_010.jpg	99
1498.599	0.696	696.5	2back	Block3	2back/STIM_011.jpg	99
1502.026	0.663	663.4	2back	Block3	2back/STIM_011.jpg	100
1505.547	0.815	815.0	2back	Block3	2back/STIM_011.jpg	99
1509.422	0.978	978.3	2back	Block3	2back/STIM_012.jpg	100
1512.495	0.595	595.3	2back	Block3	2back/STIM_012.jpg	99
1516.509	0.721	721.0	2back	Block3	2back/STIM_012.jpg	99
1521.001	0.476	476.0	2back	Block3	2back/STIM_013.jpg	100
1523.572	0.497	496.9	2back	Block3	2back/STIM_013.jpg	100
1527.679	0.71	710.4	2back	Block3	2back/STIM_013.jpg	100
1530.895	0.477	477.0	2back	Block3	2back/STIM_014.jpg	99
1533.493	0.497	497.3	2back	Block3	2back/STIM_014.jpg	99
1537.954	0.75	749.9	2back	Block3	2back/STIM_014.jpg	99
1541.411	0.592	591.8	2back	Block3	2back/STIM_015.jpg	100
1545.172	0.971	970.6	2back	Block3	2back/STIM_015.jpg	99
1549.315	0.679	679.4	2back	Block3	2back/STIM_015.jpg	100
1551.996	0.641	640.6	2back	Block3	2back/STIM_016.jpg	100
1555.446	0.912	912.5	2back	Block3	2back/STIM_016.jpg	100
1559.527	0.522	521.5	2back	Block3	2back/STIM_016.jpg	100
1562.301	0.79	789.5	2back	Block3	2back/STIM_017.jpg	99
1566.519	0.701	700.7	2back	Block3	2back/STIM_017.jpg	100
1570.587	0.514	514.5	2back	Block3	2back/STIM_017.jpg	99
1573.445	0.868	867.9	2back	Block3	2back/STIM_018.jpg	99
1576.515	0.984	984.3	2back	Block3	2back/STIM_018.jpg	99
1580.078	0.892	891.5	2back	Block3	2back/STIM_018.jpg	100
1584.842	0.517	516.6	2back	Block3	2back/STIM_019.jpg	100
1588.124	0.45	449.6	2back	Block3	2back/STIM_019.jpg	100
1591.358	0.991	990.6	2back	Block3	2back/STIM_019.jpg	99
1594.995	0.87	870.2	2back	Block3	2back/STIM_020.jpg	99
1598.257	0.482	481.7	2back	Block3	2back/STIM_020.jpg	99
1601.612	0.91	909.5	2back	Block3	2back/STIM_020.jpg	100
1605.163	0.549	548.7	2back	Block3	2back/STIM_021.jpg	100
1609.092	0.475	475.2	2back	Block3	2back/STIM_021.jpg	99
1611.647	0.954	954.3	2back	Block3	2back/STIM_021.jpg	100
1614.662	0.487	487.0	2back	Block3	2back/STIM_022.jpg	99
1619.019	0.447	446.8	2back	Block3	2back/STIM_022.jpg	100
1621.956	0.842	842.2	2back	Block3	2back/STIM_022.jpg	99
1625.212	0.746	746.1	2back	Block3	2back/STIM_023.jpg	100
1628.376	0.721	721.2	2back	Block3	2back/STIM_023.jpg	99
1633.063	0.559	559.4	2back	Block3	2back/STIM_023.jpg	100
1637.416	0.926	925.6	2back	Block3	2back/STIM_024.jpg	99
1641.088	0.734	734.5	2back	Block3	2back/STIM_024.jpg	99
1644.148	0.846	845.8	2back	Block3	2back/STIM_024.jpg	100
1648.404	0.589	588.7	2back	Block3	2back/STIM_025.jpg	99
1651.667	0.61	610.3	2back	Block3	2back/STIM_025.jpg	99
1654.472	0.997	996.6	2back	Block3	2back/STIM_025.jpg	99
1659.097	0.516	516.3	2back	Block3	2back/STIM_026.jpg	100
1662.281	0.521	520.8	2back	Block3	2back/STIM_026.jpg	99
1665.284	0.589	588.6	2back	Block3	2back/STIM_026.jpg	99
1669.098	0.862	861.8	2back	Block3	2back/STIM_027.jpg	100
1673.901	0.923	923.1	2back	Block3	2back/STIM_027.jpg	99
1676.908	0.788	788.2	2back	Block3	2back/STIM_027.jpg	99
1680.087	0.774	773.9	2back	Block3	2back/STIM_028.jpg	99
1684.579	0.633	632.8	2back	Block3	2back/STIM_028.jpg	99
1688.209	0.442	442.5	2back	Block3	2back/STIM_028.jpg	99
1691.379	0.98	980.0	2back	Block3	2back/STIM_029.jpg	99
1694.758	0.957	957.1	2back	Block3	2back/STIM_029.jpg	100
1698.607	0.844	844.2	2back	Block3	2back/STIM_029.jpg	100
1701.736	0.928	928.3	2back	Block3	2back/STIM_030.jpg	100
1705.502	0.66	659.7	2back	Block3	2back/STIM_030.jpg	99
1709.512	0.866	865.6	2back	Block3	2back/STIM_030.jpg	100
1713.379	0.746	745.9	2back	Block3	2back/STIM_031.jpg	100
1718.041	0.821	821.2	2back	Block3	2back/STIM_031.jpg	100
1722.372	0.672	672.2	2back	Block3	2back/STIM_031.jpg	99
1726.899	0.951	950.7	2back	Block3	2back/STIM_032.jpg	100
1730.772	0.501	501.0	2back	Block3	2back/STIM_032.jpg	99
1733.631	0.868	868.5	2back	Block3	2back/STIM_032.jpg	100
1737.714	0.971	970.9	2back	Block3	2back/STIM_033.jpg	99
1741.532	0.687	686.7	2back	Block3	2back/STIM_033.jpg	99
1744.665	0.924	923.5	2back	Block3	2back/STIM_033.jpg	99
1749.588	0.527	527.2	2back	Block3	2back/STIM_034.jpg	100
1752.848	0.444	444.0	2back	Block3	2back/STIM_034.jpg	99
1756.681	0.956	955.9	2back	Block3	2back/STIM_034.jpg	99
1759.692	0.96	960.0	2back	Block3	2back/STIM_035.jpg	99
1762.97	0.454	454.1	2back	Block3	2back/STIM_035.jpg	99
1765.575	0.854	853.9	2back	Block3	2back/STIM_035.jpg	100
1769.689	0.872	871.6	2back	Block3	2back/STIM_036.jpg	99
1774.459	0.861	860.7	2back	Block3	2back/STIM_036.jpg	100
1778.797	0.473	473.1	2back	Block3	2back/STIM_036.jpg	100
1781.996	0.433	433.4	2back	Block3	2back/STIM_037.jpg	100
1785.706	0.866	866.3	2back	Block3	2back/STIM_037.jpg	100
1790.406	0.633	632.9	2back	Block3	2back/STIM_037.jpg	99
1794.93	0.792	791.7	2back	Block3	2back/STIM_038.jpg	99
1798.896	0.967	966.9	2back	Block3	2back/STIM_038.jpg	99
1803.114	0.928	928.0	2back	Block3	2back/STIM_038.jpg	100
1806.842	0.715	715.2	2back	Block3	2back/STIM_039.jpg	100
1810.766	0.719	719.2	2back	Block3	2back/STIM_039.jpg	99
1814.85	0.619	619.2	2back	Block3	2back/STIM_039.jpg	99
1817.511	0.628	627.6	0back	Block3	0back/STIM_000.jpg	100
1820.681	0.488	488.4	0back	Block3	0back/STIM_000.jpg	100
1824.466	0.674	673.5	0back	Block3	0back/STIM_000.jpg	100
1828.157	0.568	568.0	0back	Block3	0back/STIM_001.jpg	100
1832.05	0.672	671.5	0back	Block3	0back/STIM_001.jpg	99
1835.693	0.486	485.8	0back	Block3	0back/STIM_001.jpg	100
1839.502	0.526	526.3	0back	Block3	0back/STIM_002.jpg	99
1842.128	0.718	718.1	0back	Block3	0back/STIM_002.jpg	99
1846.663	0.805	805.3	0back	Block3	0back/STIM_002.jpg	100
1849.679	0.763	762.6	0back	Block3	0back/STIM_003.jpg	100
1854.235	0.666	665.9	0back	Block3	0back/STIM_003.jpg	100
1858.433	0.735	735.3	0back	Block3	0back/STIM_003.jpg	99
1863.047	0.53	530.1	0back	Block3	0back/STIM_004.jpg	100
1865.956	0.558	558.0	0back	Block3	0back/STIM_004.jpg	100
1869.086	0.625	624.6	0back	Block3	0back/STIM_004.jpg	99
1872.526	0.51	510.1	0back	Block3	0back/STIM_005.jpg	100
1875.548	0.682	681.6	0back	Block3	0back/STIM_005.jpg	99
1879.16	0.624	624.1	0back	Block3	0back/STIM_005.jpg	99
1882.751	0.751	751.1	0back	Block3	0back/STIM_006.jpg	99
1886.342	0.693	692.6	0back	Block3	0back/STIM_006.jpg	99
1889.642	0.497	496.8	0back	Block3	0back/STIM_006.jpg	99
1893.853	0.698	697.8	0back	Block3	0back/STIM_007.jpg	99
1896.665	0.639	638.8	0back	Block3	0back/STIM_007.jpg	99
1900.391	0.706	705.5	0back	Block3	0back/STIM_007.jpg	99
1903.787	0.785	785.1	0back	Block3	0back/STIM_008.jpg	100
1907.412	0.663	662.9	0back	Block3	0back/STIM_008.jpg	99
1910.527	0.441	441.3	0back	Block3	0back/STIM_008.jpg	99
1913.987	0.78	780.5	0back	Block3	0back/STIM_009.jpg	100
1917.567	0.648	648.2	0back	Block3	0back/STIM_009.jpg	99
1920.59	0.532	531.9	0back	Block3	0back/STIM_009.jpg	100
1925.003	0.576	575.7	0back	Block3	0back/STIM_010.jpg	99
1928.76	0.678	677.7	0back	Block3	0back/STIM_010.jpg	99
1932.427	0.773	772.8	0back	Block3	0back/STIM_010.jpg	100
1935.636	0.41	410.4	0back	Block3	0back/STIM_011.jpg	99
1938.618	0.616	616.4	0back	Block3	0back/STIM_011.jpg	99
1942.445	0.434	434.0	0back	Block3	0back/STIM_011.jpg	99
1946.14	0.428	428.0	0back	Block3	0back/STIM_012.jpg	100
1948.712	0.812	812.0	0back	Block3	0back/STIM_012.jpg	100
1952.05	0.493	492.8	0back	Block3	0back/STIM_012.jpg	100
1956.272	0.433	433.0	0back	Block3	0back/STIM_013.jpg	100
1959.895	0.515	515.3	0back	Block3	0back/STIM_013.jpg	100
1964.326	0.698	698.3	0back	Block3	0back/STIM_013.jpg	100
1968.489	0.761	761.2	0back	Block3	0back/STIM_014.jpg	100
1972.026	0.811	811.4	0back	Block3	0back/STIM_014.jpg	100
1976.585	0.502	502.2	0back	Block3	0back/STIM_014.jpg	99
1980.885	0.505	504.8	0back	Block3	0back/STIM_015.jpg	99
1983.401	0.612	611.6	0back	Block3	0back/STIM_015.jpg	100
1986.017	0.438	438.2	0back	Block3	0back/STIM_015.jpg	99
1988.674	0.484	484.4	0back	Block3	0back/STIM_016.jpg	100
1992.317	0.812	811.8	0back	Block3	0back/STIM_016.jpg	99
1996.622	0.759	759.0	0back	Block3	0back/STIM_016.jpg	100
1999.669	0.487	487.3	0back	Block3	0back/STIM_017.jpg	100
2002.571	0.773	773.1	0back	Block3	0back/STIM_017.jpg	100
2005.511	0.412	411.6	0back	Block3	0back/STIM_017.jpg	100
2009.441	0.595	595.2	0back	Block3	0back/STIM_018.jpg	100
2013.909	0.605	604.6	0back	Block3	0back/STIM_018.jpg	99
2017.989	0.763	762.7	0back	Block3	0back/STIM_018.jpg	100
2021.302	0.412	412.5	0back	Block3	0back/STIM_019.jpg	99
2024.815	0.472	472.1	0back	Block3	0back/STIM_019.jpg	99
2028.283	0.701	701.0	0back	Block3	0back/STIM_019.jpg	100
2031.435	0.7	699.6	2back	Block4	2back/STIM_000.jpg	100
2035.381	0.702	701.8	2back	Block4	2back/STIM_000.jpg	100
2039.746	0.958	958.5	2back	Block4	2back/STIM_000.jpg	99
2043.627	0.661	660.8	2back	Block4	2back/STIM_001.jpg	100
2046.654	0.782	782.4	2back	Block4	2back/STIM_001.jpg	100
2051.402	0.682	682.0	2back	Block4	2back/STIM_001.jpg	99
2054.551	0.78	780.2	2back	Block4	2back/STIM_002.jpg	100
2058.882	0.899	899.1	2back	Block4	2back/STIM_002.jpg	100
2063.031	0.867	867.1	2back	Block4	2back/STIM_002.jpg	100
2067.16	0.64	639.6	2back	Block4	2back/STIM_003.jpg	100
2070.696	0.884	883.5	2back	Block4	2back/STIM_003.jpg	100
2074.45	0.462	461.6	2back	Block4	2back/STIM_003.jpg	100
2078.066	0.659	658.7	2back	Block4	2back/STIM_004.jpg	100
2082.075	0.65	649.8	2back	Block4	2back/STIM_004.jpg	100
2086.316	0.849	849.3	2back	Block4	2back/STIM_004.jpg	100
2090.323	0.457	456.9	2back	Block4	2back/STIM_005.jpg	99
2092.807	0.718	718.3	2back	Block4	2back/STIM_005.jpg	99
2095.69	0.514	513.8	2back	Block4	2back/STIM_005.jpg	100
2099.766	0.986	986.5	2back	Block4	2back/STIM_006.jpg	99
2104.479	0.725	725.2	2back	Block4	2back/STIM_006.jpg	99
2108.78	0.743	743.2	2back	Block4	2back/STIM_006.jpg	99
2112.073	0.926	925.5	2back	Block4	2back/STIM_007.jpg	100
2116.956	0.878	877.7	2back	Block4	2back/STIM_007.jpg	99
2121.769	0.624	623.9	2back	Block4	2back/STIM_007.jpg	100
2126.164	0.493	493.3	2back	Block4	2back/STIM_008.jpg	99
2129.983	0.585	584.8	2back	Block4	2back/STIM_008.jpg	99
2133.942	0.838	838.5	2back	Block4	2back/STIM_008.jpg	99
2138.454	0.815	814.7	2back	Block4	2back/STIM_009.jpg	100
2142.785	0.997	997.2	2back	Block4	2back/STIM_009.jpg	100
2146.229	0.665	665.2	2back	Block4	2back/STIM_009.jpg	99
2149.072	0.862	861.9	2back	Block4	2back/STIM_010.jpg	100
2152.143	1.0	1000.4	2back	Block4	2back/STIM_010.jpg	99
2155.763	0.551	550.6	2back	Block4	2back/STIM_010.jpg	100
2159.427	0.891	890.6	2back	Block4	2back/STIM_011.jpg	100
2164.174	0.987	987.2	2back	Block4	2back/STIM_011.jpg	99
2167.41	0.602	602.3	2back	Block4	2back/STIM_011.jpg	100
2171.06	0.568	568.5	2back	Block4	2back/STIM_012.jpg	99
2174.516	0.743	742.9	2back	Block4	2back/STIM_012.jpg	100
2178.093	0.906	905.7	2back	Block4	2back/STIM_012.jpg	99
2182.21	0.833	833.1	2back	Block4	2back/STIM_013.jpg	100
2185.948	0.918	918.2	2back	Block4	2back/STIM_013.jpg	99
2189.362	0.927	926.9	2back	Block4	2back/STIM_013.jpg	99
2192.403	0.888	888.1	2back	Block4	2back/STIM_014.jpg	100
2195.705	0.516	515.7	2back	Block4	2back/STIM_014.jpg	99
2198.946	0.791	791.1	2back	Block4	2back/STIM_014.jpg	99
2202.983	0.812	812.3	2back	Block4	2back/STIM_015.jpg	100
2206.517	0.584	583.9	2back	Block4	2back/STIM_015.jpg	99
2209.537	0.964	964.1	2back	Block4	2back/STIM_015.jpg	100
2213.609	0.947	946.6	2back	Block4	2back/STIM_016.jpg	99
2217.054	0.706	706.2	2back	Block4	2back/STIM_016.jpg	100
2220.123	0.805	804.8	2back	Block4	2back/STIM_016.jpg	99
2224.278	0.677	676.8	2back	Block4	2back/STIM_017.jpg	100
2227.873	0.518	518.5	2back	Block4	2back/STIM_017.jpg	100
2232.287	0.448	448.3	2back	Block4	2back/STIM_017.jpg	99
2235.595	0.946	946.4	2back	Block4	2back/STIM_018.jpg	100
2238.991	0.976	975.7	2back	Block4	2back/STIM_018.jpg	99
2242.096	0.984	983.9	2back	Block4	2back/STIM_018.jpg	99
2245.095	0.994	993.9	2back	Block4	2back/STIM_019.jpg	100
2249.203	0.971	971.2	2back	Block4	2back/STIM_019.jpg	100
2252.224	0.431	431.0	2back	Block4	2back/STIM_019.jpg	99
2255.074	0.51	509.9	2back	Block4	2back/STIM_020.jpg	100
2259.032	0.6	600.4	2back	Block4	2back/STIM_020.jpg	100
2262.814	0.854	853.7	2back	Block4	2back/STIM_020.jpg	100
2265.976	0.43	430.5	2back	Block4	2back/STIM_021.jpg	100
2269.704	0.52	519.8	2back	Block4	2back/STIM_021.jpg	100
2272.512	0.547	546.9	2back	Block4	2back/STIM_021.jpg	99
2276.605	0.469	469.3	2back	Block4	2back/STIM_022.jpg	100
2280.555	0.438	437.6	2back	Block4	2back/STIM_022.jpg	99
2284.8	0.955	954.6	2back	Block4	2back/STIM_022.jpg	100
2288.449	0.813	813.2	2back	Block4	2back/STIM_023.jpg	99
2291.69	0.812	812.4	2back	Block4	2back/STIM_023.jpg	100
2296.428	0.713	713.1	2back	Block4	2back/STIM_023.jpg	99
2299.543	0.584	583.6	2back	Block4	2back/STIM_024.jpg	100
2302.328	0.571	571.1	2back	Block4	2back/STIM_024.jpg	99
2306.057	0.575	574.6	2back	Block4	2back/STIM_024.jpg	100
2309.776	0.81	810.1	2back	Block4	2back/STIM_025.jpg	99
2312.807	0.982	981.6	2back	Block4	2back/STIM_025.jpg	99
2317.126	0.488	487.7	2back	Block4	2back/STIM_025.jpg	99
2320.901	0.43	430.4	2back	Block4	2back/STIM_026.jpg	100
2324.535	0.82	820.5	2back	Block4	2back/STIM_026.jpg	99
2327.522	0.678	678.5	2back	Block4	2back/STIM_026.jpg	99
2330.271	0.699	698.6	2back	Block4	2back/STIM_027.jpg	100
2334.219	0.473	472.7	2back	Block4	2back/STIM_027.jpg	99
2337.64	0.654	654.5	2back	Block4	2back/STIM_027.jpg	99
2341.409	0.987	987.4	2back	Block4	2back/STIM_028.jpg	100
2344.878	0.991	990.8	2back	Block4	2back/STIM_028.jpg	100
2348.904	0.486	486.0	2back	Block4	2back/STIM_028.jpg	99
2352.396	0.906	906.3	2back	Block4	2back/STIM_029.jpg	100
2356.72	0.777	777.0	2back	Block4	2back/STIM_029.jpg	100
2360.794	0.932	931.9	2back	Block4	2back/STIM_029.jpg	99
2365.254	0.459	459.1	2back	Block4	2back/STIM_030.jpg	100
2369.171	0.514	513.9	2back	Block4	2back/STIM_030.jpg	99
2372.507	0.839	839.1	2back	Block4	2back/STIM_030.jpg	99
2375.669	0.441	441.3	2back	Block4	2back/STIM_031.jpg	100
2380.054	0.698	698.1	2back	Block4	2back/STIM_031.jpg	99
2383.503	0.496	496.3	2back	Block4	2back/STIM_031.jpg	99
2387.81	0.687	687.0	2back	Block4	2back/STIM_032.jpg	100
2392.012	0.985	985.1	2back	Block4	2back/STIM_032.jpg	100
2395.931	0.492	492.2	2back	Block4	2back/STIM_032.jpg	99
2399.722	0.712	711.6	2back	Block4	2back/STIM_033.jpg	99
2403.187	0.889	888.9	2back	Block4	2back/STIM_033.jpg	100
2406.695	0.904	904.0	2back	Block4	2back/STIM_033.jpg	99
2410.602	0.656	655.8	2back	Block4	2back/STIM_034.jpg	99
2414.436	0.81	810.2	2back	Block4	2back/STIM_034.jpg	100
2417.758	0.539	539.0	2back	Block4	2back/STIM_034.jpg	100
2420.959	0.998	997.8	2back	Block4	2back/STIM_035.jpg	100
2424.022	0.507	507.4	2back	Block4	2back/STIM_035.jpg	100
2427.604	0.912	912.2	2back	Block4	2back/STIM_035.jpg	100
2430.838	0.504	504.0	2back	Block4	2back/STIM_036.jpg	100
2433.675	0.908	907.7	2back	Block4	2back/STIM_036.jpg	99
2438.19	0.546	546.5	2back	Block4	2back/STIM_036.jpg	100
2442.286	0.668	667.5	2back	Block4	2back/STIM_037.jpg	99
2445.76	0.472	471.9	2back	Block4	2back/STIM_037.jpg	100
2449.794	0.861	861.3	2back	Block4	2back/STIM_037.jpg	100
2453.584	0.46	459.9	2back	Block4	2back/STIM_038.jpg	100
2457.293	0.854	853.7	2back	Block4	2back/STIM_038.jpg	100
2461.667	0.699	698.7	2back	Block4	2back/STIM_038.jpg	99
2465.676	0.899	899.2	2back	Block4	2back/STIM_039.jpg	100
2470.082	0.8	800.4	2back	Block4	2back/STIM_039.jpg	99
2473.743	0.734	734.3	2back	Block4	2back/STIM_039.jpg	99
2477.434	0.767	766.9	0back	Block4	0back/STIM_000.jpg	100
2481.487	0.526	525.6	0back	Block4	0back/STIM_000.jpg	99
2484.166	0.663	662.8	0back	Block4	0back/STIM_000.jpg	100
2487.443	0.811	811.0	0back	Block4	0back/STIM_001.jpg	100
2490.908	0.526	525.5	0back	Block4	0back/STIM_001.jpg	99
2494.073	0.702	701.8	0back	Block4	0back/STIM_001.jpg	99
2498.765	0.616	615.9	0back	Block4	0back/STIM_002.jpg	100
2502.927	0.806	805.9	0back	Block4	0back/STIM_002.jpg	100
2507.049	0.497	496.9	0back	Block4	0back/STIM_002.jpg	100
2510.221	0.762	762.0	0back	Block4	0back/STIM_003.jpg	100
2513.905	0.678	678.1	0back	Block4	0back/STIM_003.jpg	100
2518.108	0.464	464.4	0back	Block4	0back/STIM_003.jpg	99
2521.374	0.659	659.0	0back	Block4	0back/STIM_004.jpg	99
2525.818	0.479	478.8	0back	Block4	0back/STIM_004.jpg	100
2529.938	0.514	513.5	0back	Block4	0back/STIM_004.jpg	100
2532.538	0.701	701.0	0back	Block4	0back/STIM_005.jpg	100
2537.181	0.558	558.2	0back	Block4	0back/STIM_005.jpg	99
2541.316	0.743	743.1	0back	Block4	0back/STIM_005.jpg	99
2545.002	0.504	503.6	0back	Block4	0back/STIM_006.jpg	100
2548.406	0.564	563.6	0back	Block4	0back/STIM_006.jpg	99
2551.79	0.585	585.3	0back	Block4	0back/STIM_006.jpg	100
2555.637	0.512	511.9	0back	Block4	0back/STIM_007.jpg	100
2559.528	0.713	713.0	0back	Block4	0back/STIM_007.jpg	100
2564.009	0.542	542.3	0back	Block4	0back/STIM_007.jpg	100
2567.738	0.573	573.1	0back	Block4	0back/STIM_008.jpg	100
2570.747	0.659	658.6	0back	Block4	0back/STIM_008.jpg	100
2574.439	0.478	478.1	0back	Block4	0back/STIM_008.jpg	99
2577.277	0.571	571.3	0back	Block4	0back/STIM_009.jpg	100
2580.078	0.555	555.4	0back	Block4	0back/STIM_009.jpg	100
2582.738	0.745	744.6	0back	Block4	0back/STIM_009.jpg	99
2586.401	0.444	443.6	0back	Block4	0back/STIM_010.jpg	99
2590.741	0.689	689.0	0back	Block4	0back/STIM_010.jpg	99
2594.498	0.547	547.3	0back	Block4	0back/STIM_010.jpg	99
2597.937	0.427	427.3	0back	Block4	0back/STIM_011.jpg	100
2601.406	0.645	644.8	0back	Block4	0back/STIM_011.jpg	100
2605.55	0.501	500.8	0back	Block4	0back/STIM_011.jpg	99
2609.092	0.426	425.9	0back	Block4	0back/STIM_012.jpg	99
2613.472	0.481	480.7	0back	Block4	0back/STIM_012.jpg	100
2617.34	0.811	811.2	0back	Block4	0back/STIM_012.jpg	100
2621.594	0.458	458.2	0back	Block4	0back/STIM_013.jpg	100
2625.692	0.749	748.7	0back	Block4	0back/STIM_013.jpg	99
2629.416	0.626	625.9	0back	Block4	0back/STIM_013.jpg	100
2632.799	0.62	620.3	0back	Block4	0back/STIM_014.jpg	99
2635.941	0.708	707.9	0back	Block4	0back/STIM_014.jpg	100
2640.205	0.732	732.3	0back	Block4	0back/STIM_014.jpg	99
2644.724	0.756	756.0	0back	Block4	0back/STIM_015.jpg	100
2649.203	0.725	725.1	0back	Block4	0back/STIM_015.jpg	100
2652.299	0.688	688.1	0back	Block4	0back/STIM_015.jpg	100
2655.271	0.569	569.3	0back	Block4	0back/STIM_016.jpg	99
2658.61	0.549	548.6	0back	Block4	0back/STIM_016.jpg	100
2662.099	0.64	639.5	0back	Block4	0back/STIM_016.jpg	99
2665.033	0.803	803.2	0back	Block4	0back/STIM_017.jpg	99
2669.757	0.751	751.0	0back	Block4	0back/STIM_017.jpg	100
2673.334	0.639	639.3	0back	Block4	0back/STIM_017.jpg	99
2677.624	0.575	575.1	0back	Block4	0back/STIM_018.jpg	99
2681.021	0.466	466.0	0back	Block4	0back/STIM_018.jpg	100
2683.75	0.47	469.5	0back	Block4	0back/STIM_018.jpg	100
2686.436	0.472	471.9	0back	Block4	0back/STIM_019.jpg	99
2690.08	0.447	447.1	0back	Block4	0back/STIM_019.jpg	99
2693.328	0.644	644.5	0back	Block4	0back/STIM_019.jpg	99
