onset	duration	response_time_ms	trial_type	learning_stage	stimulus	response_port
0.0	0.66	659.8	2back	Block1	2back/STIM_000.jpg	100
4.402	0.603	602.6	2back	Block1	2back/STIM_000.jpg	100
8.509	0.926	926.1	2back	Block1	2back/STIM_000.jpg	100
12.384	1.035	1035.3	2back	Block1	2back/STIM_001.jpg	99
16.28	1.281	1280.9	2back	Block1	2back/STIM_001.jpg	99
21.547	0.989	988.8	2back	Block1	2back/STIM_001.jpg	100
24.719	1.186	1186.2	2back	Block1	2back/STIM_002.jpg	100
28.136	0.711	710.7	2back	Block1	2back/STIM_002.jpg	99
31.693	0.925	925.3	2back	Block1	2back/STIM_002.jpg	99
36.347	1.137	1136.9	2back	Block1	2back/STIM_003.jpg	99
39.822	0.9	899.9	2back	Block1	2back/STIM_003.jpg	100
43.243	1.028	1027.6	2back	Block1	2back/STIM_003.jpg	99
47.264	0.771	771.3	2back	Block1	2back/STIM_004.jpg	100
51.437	0.694	693.6	2back	Block1	2back/STIM_004.jpg	99
54.139	1.062	1062.2	2back	Block1	2back/STIM_004.jpg	99
57.894	1.176	1176.4	2back	Block1	2back/STIM_005.jpg	100
61.592	0.802	801.5	2back	Block1	2back/STIM_005.jpg	99
65.813	0.911	911.2	2back	Block1	2back/STIM_005.jpg	100
70.762	0.818	818.0	2back	Block1	2back/STIM_006.jpg	99
74.929	0.748	747.5	2back	Block1	2back/STIM_006.jpg	99
79.092	1.287	1286.9	2back	Block1	2back/STIM_006.jpg	99
82.521	0.525	525.2	2back	Block1	2back/STIM_007.jpg	100
85.232	1.034	1033.5	2back	Block1	2back/STIM_007.jpg	99
89.894	0.948	948.2	2back	Block1	2back/STIM_007.jpg	100
93.784	0.949	948.7	2back	Block1	2back/STIM_008.jpg	99
97.253	1.095	1095.2	2back	Block1	2back/STIM_008.jpg	99
101.902	0.454	454.5	2back	Block1	2back/STIM_008.jpg	99
104.981	1.071	1070.8	2back	Block1	2back/STIM_009.jpg	100
108.39	0.997	996.6	2back	Block1	2back/STIM_009.jpg	100
111.454	1.147	1146.6	2back	Block1	2back/STIM_009.jpg	100
116.161	1.099	1099.2	2back	Block1	2back/STIM_010.jpg	100
119.531	0.711	711.4	2back	Block1	2back/STIM_010.jpg	99
123.603	1.018	1017.8	2back	Block1	2back/STIM_010.jpg	100
127.243	1.256	1255.6	2back	Block1	2back/STIM_011.jpg	100
130.745	1.243	1243.2	2back	Block1	2back/STIM_011.jpg	100
134.071	0.738	737.9	2back	Block1	2back/STIM_011.jpg	100
138.249	1.344	1343.8	2back	Block1	2back/STIM_012.jpg	99
142.123	0.857	856.7	2back	Block1	2back/STIM_012.jpg	100
145.652	1.091	1090.9	2back	Block1	2back/STIM_012.jpg	99
149.279	1.014	1014.5	2back	Block1	2back/STIM_013.jpg	99
152.925	0.696	695.6	2back	Block1	2back/STIM_013.jpg	99
155.824	1.028	1027.8	2back	Block1	2back/STIM_013.jpg	99
160.522	0.61	610.0	2back	Block1	2back/STIM_014.jpg	99
164.499	1.244	1243.8	2back	Block1	2back/STIM_014.jpg	99
169.669	0.795	795.2	2back	Block1	2back/STIM_014.jpg	100
174.366	0.913	913.3	2back	Block1	2back/STIM_015.jpg	99
177.792	0.994	993.5	2back	Block1	2back/STIM_015.jpg	99
181.093	0.93	930.5	2back	Block1	2back/STIM_015.jpg	100
184.704	1.305	1304.9	2back	Block1	2back/STIM_016.jpg	100
189.086	1.085	1084.6	2back	Block1	2back/STIM_016.jpg	100
192.445	0.898	897.6	2back	Block1	2back/STIM_016.jpg	100
196.658	0.829	829.0	2back	Block1	2back/STIM_017.jpg	100
199.929	1.001	1000.9	2back	Block1	2back/STIM_017.jpg	99
203.646	1.023	1023.2	2back	Block1	2back/STIM_017.jpg	100
207.405	0.783	783.4	2back	Block1	2back/STIM_018.jpg	99
210.92	1.258	1258.5	2back	Block1	2back/STIM_018.jpg	100
214.453	0.564	563.5	2back	Block1	2back/STIM_018.jpg	100
217.128	1.103	1102.6	2back	Block1	2back/STIM_019.jpg	100
220.92	0.937	937.0	2back	Block1	2back/STIM_019.jpg	100
225.513	1.166	1165.5	2back	Block1	2back/STIM_019.jpg	99
228.883	0.691	691.1	2back	Block1	2back/STIM_020.jpg	99
231.776	1.057	1056.7	2back	Block1	2back/STIM_020.jpg	99
236.109	0.589	589.4	2back	Block1	2back/STIM_020.jpg	99
239.514	0.934	934.0	2back	Block1	2back/STIM_021.jpg	100
242.623	0.834	833.6	2back	Block1	2back/STIM_021.jpg	99
246.686	0.994	994.1	2back	Block1	2back/STIM_021.jpg	100
251.313	0.896	896.3	2back	Block1	2back/STIM_022.jpg	100
256.105	1.135	1135.0	2back	Block1	2back/STIM_022.jpg	100
259.406	1.206	1206.1	2back	Block1	2back/STIM_022.jpg	99
263.185	1.427	1427.4	2back	Block1	2back/STIM_023.jpg	100
266.99	0.951	950.8	2back	Block1	2back/STIM_023.jpg	99
270.285	0.622	622.3	2back	Block1	2back/STIM_023.jpg	100
274.199	1.03	1030.0	2back	Block1	2back/STIM_024.jpg	99
277.803	0.806	805.8	2back	Block1	2back/STIM_024.jpg	99
280.823	0.587	587.1	2back	Block1	2back/STIM_024.jpg	100
284.452	0.759	759.4	2back	Block1	2back/STIM_025.jpg	100
288.434	0.596	596.4	2back	Block1	2back/STIM_025.jpg	100
291.851	1.219	1219.4	2back	Block1	2back/STIM_025.jpg	99
296.699	1.155	1154.9	2back	Block1	2back/STIM_026.jpg	100
301.583	1.224	1224.4	2back	Block1	2back/STIM_026.jpg	99
306.532	0.86	859.7	2back	Block1	2back/STIM_026.jpg	100
311.033	0.937	937.1	2back	Block1	2back/STIM_027.jpg	100
314.869	0.885	884.6	2back	Block1	2back/STIM_027.jpg	100
318.091	1.19	1190.0	2back	Block1	2back/STIM_027.jpg	99
321.877	0.819	819.0	2back	Block1	2back/STIM_028.jpg	99
326.254	0.752	751.5	2back	Block1	2back/STIM_028.jpg	100
330.929	1.101	1101.3	2back	Block1	2back/STIM_028.jpg	99
334.626	0.597	597.4	2back	Block1	2back/STIM_029.jpg	100
338.142	0.846	845.5	2back	Block1	2back/STIM_029.jpg	99
341.785	0.874	874.2	2back	Block1	2back/STIM_029.jpg	100
345.007	0.728	728.3	2back	Block1	2back/STIM_030.jpg	99
348.515	0.833	833.0	2back	Block1	2back/STIM_030.jpg	100
352.294	1.251	1251.4	2back	Block1	2back/STIM_030.jpg	99
356.242	0.676	675.6	2back	Block1	2back/STIM_031.jpg	99
360.275	0.947	947.0	2back	Block1	2back/STIM_031.jpg	100
364.136	1.176	1176.1	2back	Block1	2back/STIM_031.jpg	99
368.93	0.784	783.5	2back	Block1	2back/STIM_032.jpg	99
372.683	0.572	572.1	2back	Block1	2back/STIM_032.jpg	100
375.936	1.22	1219.9	2back	Block1	2back/STIM_032.jpg	99
379.232	1.334	1334.1	2back	Block1	2back/STIM_033.jpg	100
383.458	1.097	1097.4	2back	Block1	2back/STIM_033.jpg	99
387.544	0.576	575.7	2back	Block1	2back/STIM_033.jpg	99
391.476	0.962	962.0	2back	Block1	2back/STIM_034.jpg	99
395.88	0.692	691.8	2back	Block1	2back/STIM_034.jpg	99
398.847	1.214	1213.9	2back	Block1	2back/STIM_034.jpg	100
403.753	1.181	1181.1	2back	Block1	2back/STIM_035.jpg	100
407.789	0.958	957.8	2back	Block1	2back/STIM_035.jpg	100
412.321	0.993	992.9	2back	Block1	2back/STIM_035.jpg	99
416.61	1.059	1059.4	2back	Block1	2back/STIM_036.jpg	99
420.272	0.626	625.7	2back	Block1	2back/STIM_036.jpg	99
423.518	1.205	1205.3	2back	Block1	2back/STIM_036.jpg	99
426.778	1.07	1069.5	2back	Block1	2back/STIM_037.jpg	100
429.966	0.676	676.3	2back	Block1	2back/STIM_037.jpg	99
433.987	0.598	598.0	2back	Block1	2back/STIM_037.jpg	100
438.514	1.293	1293.1	2back	Block1	2back/STIM_038.jpg	100
442.208	0.957	956.7	2back	Block1	2back/STIM_038.jpg	99
445.671	0.479	478.7	2back	Block1	2back/STIM_038.jpg	99
449.095	0.801	800.6	2back	Block1	2back/STIM_039.jpg	100
453.3	0.853	852.6	2back	Block1	2back/STIM_039.jpg	100
456.7	0.918	918.0	2back	Block1	2back/STIM_039.jpg	100
461.459	0.514	513.6	0back	Block1	0back/STIM_000.jpg	99
465.173	0.559	559.4	0back	Block1	0back/STIM_000.jpg	99
468.174	0.404	404.0	0back	Block1	0back/STIM_000.jpg	99
471.106	0.523	523.4	0back	Block1	0back/STIM_001.jpg	99
474.479	0.576	575.9	0back	Block1	0back/STIM_001.jpg	100
477.471	0.681	680.9	0back	Block1	0back/STIM_001.jpg	100
481.577	0.488	487.9	0back	Block1	0back/STIM_002.jpg	100
486.035	0.432	431.9	0back	Block1	0back/STIM_002.jpg	99
489.02	0.392	392.2	0back	Block1	0back/STIM_002.jpg	100
493.093	0.826	825.6	0back	Block1	0back/STIM_003.jpg	100
497.359	0.598	598.4	0back	Block1	0back/STIM_003.jpg	100
500.887	0.599	599.1	0back	Block1	0back/STIM_003.jpg	100
503.643	0.544	544.3	0back	Block1	0back/STIM_004.jpg	100
507.272	0.471	471.0	0back	Block1	0back/STIM_004.jpg	100
510.493	0.519	518.6	0back	Block1	0back/STIM_004.jpg	100
513.041	0.396	396.3	0back	Block1	0back/STIM_005.jpg	99
516.329	0.393	393.4	0back	Block1	0back/STIM_005.jpg	99
519.911	0.576	575.8	0back	Block1	0back/STIM_005.jpg	99
523.332	0.838	838.5	0back	Block1	0back/STIM_006.jpg	100
526.644	0.464	463.9	0back	Block1	0back/STIM_006.jpg	99
530.385	0.534	534.1	0back	Block1	0back/STIM_006.jpg	99
534.669	0.503	503.5	0back	Block1	0back/STIM_007.jpg	100
537.469	0.719	719.0	0back	Block1	0back/STIM_007.jpg	100
541.718	0.565	564.7	0back	Block1	0back/STIM_007.jpg	100
545.403	0.488	488.3	0back	Block1	0back/STIM_008.jpg	99
549.389	0.627	626.6	0back	Block1	0back/STIM_008.jpg	100
553.0	0.61	609.6	0back	Block1	0back/STIM_008.jpg	100
555.618	0.715	715.1	0back	Block1	0back/STIM_009.jpg	99
559.412	0.578	578.1	0back	Block1	0back/STIM_009.jpg	100
563.438	0.638	638.1	0back	Block1	0back/STIM_009.jpg	99
567.714	0.699	699.0	0back	Block1	0back/STIM_010.jpg	99
572.096	0.572	571.9	0back	Block1	0back/STIM_010.jpg	99
576.396	0.386	386.2	0back	Block1	0back/STIM_010.jpg	100
580.628	0.464	464.0	0back	Block1	0back/STIM_011.jpg	100
583.609	0.718	718.3	0back	Block1	0back/STIM_011.jpg	99
587.291	0.383	382.9	0back	Block1	0back/STIM_011.jpg	99
590.708	0.513	513.1	0back	Block1	0back/STIM_012.jpg	100
594.664	0.573	572.6	0back	Block1	0back/STIM_012.jpg	100
597.294	0.452	452.0	0back	Block1	0back/STIM_012.jpg	100
599.802	0.438	438.3	0back	Block1	0back/STIM_013.jpg	99
602.43	0.621	621.0	0back	Block1	0back/STIM_013.jpg	99
606.558	0.364	364.3	0back	Block1	0back/STIM_013.jpg	99
610.168	0.522	521.6	0back	Block1	0back/STIM_014.jpg	100
613.159	0.558	558.2	0back	Block1	0back/STIM_014.jpg	99
617.48	0.566	565.8	0back	Block1	0back/STIM_014.jpg	100
621.297	0.666	665.6	0back	Block1	0back/STIM_015.jpg	100
625.561	0.623	622.9	0back	Block1	0back/STIM_015.jpg	99
629.352	0.491	491.1	0back	Block1	0back/STIM_015.jpg	99
633.695	0.547	547.3	0back	Block1	0back/STIM_016.jpg	99
637.162	0.606	605.7	0back	Block1	0back/STIM_016.jpg	99
641.457	0.434	434.2	0back	Block1	0back/STIM_016.jpg	99
645.623	0.726	725.5	0back	Block1	0back/STIM_017.jpg	99
649.455	0.66	660.5	0back	Block1	0back/STIM_017.jpg	100
652.511	0.5	499.9	0back	Block1	0back/STIM_017.jpg	100
655.808	0.475	474.7	0back	Block1	0back/STIM_018.jpg	100
658.853	0.538	538.3	0back	Block1	0back/STIM_018.jpg	100
663.169	0.563	562.6	0back	Block1	0back/STIM_018.jpg	100
666.597	0.51	510.2	0back	Block1	0back/STIM_019.jpg	99
670.158	0.727	727.0	0back	Block1	0back/STIM_019.jpg	100
674.576	0.487	487.1	0back	Block1	0back/STIM_019.jpg	99
677.883	0.575	574.8	2back	Block2	2back/STIM_000.jpg	99
680.508	0.87	870.5	2back	Block2	2back/STIM_000.jpg	99
683.789	0.806	806.5	2back	Block2	2back/STIM_000.jpg	100
687.384	1.002	1002.2	2back	Block2	2back/STIM_001.jpg	99
692.042	1.053	1053.3	2back	Block2	2back/STIM_001.jpg	99
696.284	0.436	435.5	2back	Block2	2back/STIM_001.jpg	100
699.205	1.05	1049.9	2back	Block2	2back/STIM_002.jpg	100
703.554	0.946	946.2	2back	Block2	2back/STIM_002.jpg	100
706.819	0.875	874.7	2back	Block2	2back/STIM_002.jpg	99
710.868	0.949	949.0	2back	Block2	2back/STIM_003.jpg	99
715.529	0.791	790.9	2back	Block2	2back/STIM_003.jpg	100
719.795	0.473	472.9	2back	Block2	2back/STIM_003.jpg	100
723.518	0.597	596.8	2back	Block2	2back/STIM_004.jpg	99
727.536	0.926	926.0	2back	Block2	2back/STIM_004.jpg	100
731.112	0.696	695.8	2back	Block2	2back/STIM_004.jpg	99
734.967	0.505	505.1	2back	Block2	2back/STIM_005.jpg	100
738.801	0.883	882.6	2back	Block2	2back/STIM_005.jpg	99
742.132	0.768	768.1	2back	Block2	2back/STIM_005.jpg	100
745.46	0.512	511.7	2back	Block2	2back/STIM_006.jpg	100
748.583	1.045	1044.7	2back	Block2	2back/STIM_006.jpg	99
751.902	0.805	805.4	2back	Block2	2back/STIM_006.jpg	100
755.692	0.81	809.9	2back	Block2	2back/STIM_007.jpg	100
759.853	0.476	475.5	2back	Block2	2back/STIM_007.jpg	99
762.918	0.598	598.5	2back	Block2	2back/STIM_007.jpg	100
766.147	1.202	1201.5	2back	Block2	2back/STIM_008.jpg	99
770.334	0.639	639.0	2back	Block2	2back/STIM_008.jpg	100
774.38	0.808	808.3	2back	Block2	2back/STIM_008.jpg	99
778.851	0.525	525.0	2back	Block2	2back/STIM_009.jpg	99
782.632	1.16	1160.2	2back	Block2	2back/STIM_009.jpg	100
786.064	1.049	1048.9	2back	Block2	2back/STIM_009.jpg	99
789.264	0.929	929.4	2back	Block2	2back/STIM_010.jpg	100
792.783	1.026	1026.5	2back	Block2	2back/STIM_010.jpg	99
796.394	0.723	723.2	2back	Block2	2back/STIM_010.jpg	100
800.657	0.55	549.9	2back	Block2	2back/STIM_011.jpg	99
803.962	0.882	882.4	2back	Block2	2back/STIM_011.jpg	99
807.379	0.976	976.2	2back	Block2	2back/STIM_011.jpg	100
811.624	0.75	749.8	2back	Block2	2back/STIM_012.jpg	99
814.705	0.849	848.6	2back	Block2	2back/STIM_012.jpg	100
819.211	0.73	730.2	2back	Block2	2back/STIM_012.jpg	99
823.857	0.759	759.3	2back	Block2	2back/STIM_013.jpg	99
826.898	1.007	1006.8	2back	Block2	2back/STIM_013.jpg	99
831.305	0.712	712.5	2back	Block2	2back/STIM_013.jpg	99
834.591	0.701	701.0	2back	Block2	2back/STIM_014.jpg	100
838.151	0.628	628.1	2back	Block2	2back/STIM_014.jpg	99
842.211	0.59	589.6	2back	Block2	2back/STIM_014.jpg	99
845.766	0.539	538.6	2back	Block2	2back/STIM_015.jpg	99
848.569	0.891	891.1	2back	Block2	2back/STIM_015.jpg	100
852.861	0.928	928.3	2back	Block2	2back/STIM_015.jpg	100
857.764	0.567	567.4	2back	Block2	2back/STIM_016.jpg	100
861.81	0.94	939.6	2back	Block2	2back/STIM_016.jpg	100
865.088	0.584	583.5	2back	Block2	2back/STIM_016.jpg	100
869.211	0.532	532.3	2back	Block2	2back/STIM_017.jpg	100
873.212	0.996	995.8	2back	Block2	2back/STIM_017.jpg	100
878.032	0.531	531.1	2back	Block2	2back/STIM_017.jpg	100
881.778	1.026	1026.3	2back	Block2	2back/STIM_018.jpg	99
886.441	1.093	1092.7	2back	Block2	2back/STIM_018.jpg	100
890.186	1.046	1046.3	2back	Block2	2back/STIM_018.jpg	100
894.417	0.733	733.2	2back	Block2	2back/STIM_019.jpg	100
897.371	0.625	624.6	2back	Block2	2back/STIM_019.jpg	99
901.898	0.687	687.2	2back	Block2	2back/STIM_019.jpg	100
904.928	0.801	801.0	2back	Block2	2back/STIM_020.jpg	99
908.317	0.579	579.1	2back	Block2	2back/STIM_020.jpg	99
912.543	0.77	769.6	2back	Block2	2back/STIM_020.jpg	99
915.523	1.17	1170.0	2back	Block2	2back/STIM_021.jpg	99
919.278	0.967	967.1	2back	Block2	2back/STIM_021.jpg	100
923.868	0.631	630.7	2back	Block2	2back/STIM_021.jpg	100
927.183	0.543	542.6	2back	Block2	2back/STIM_022.jpg	99
929.764	0.889	888.7	2back	Block2	2back/STIM_022.jpg	99
933.101	0.505	505.3	2back	Block2	2back/STIM_022.jpg	99
935.819	0.732	732.0	2back	Block2	2back/STIM_023.jpg	100
938.811	0.694	694.2	2back	Block2	2back/STIM_023.jpg	99
942.102	0.796	795.5	2back	Block2	2back/STIM_023.jpg	100
945.748	0.889	888.6	2back	Block2	2back/STIM_024.jpg	99
950.479	0.737	737.4	2back	Block2	2back/STIM_024.jpg	100
954.988	0.604	604.5	2back	Block2	2back/STIM_024.jpg	100
958.668	0.887	886.6	2back	Block2	2back/STIM_025.jpg	99
961.782	0.627	627.4	2back	Block2	2back/STIM_025.jpg	100
966.205	0.874	874.5	2back	Block2	2back/STIM_025.jpg	100
969.739	0.647	646.9	2back	Block2	2back/STIM_026.jpg	100
973.633	0.593	593.1	2back	Block2	2back/STIM_026.jpg	99
977.616	0.827	826.6	2back	Block2	2back/STIM_026.jpg	100
982.207	0.92	920.4	2back	Block2	2back/STIM_027.jpg	99
986.343	0.966	965.5	2back	Block2	2back/STIM_027.jpg	100
990.915	0.936	936.1	2back	Block2	2back/STIM_027.jpg	99
994.83	1.006	1005.8	2back	Block2	2back/STIM_028.jpg	100
999.834	0.509	509.0	2back	Block2	2back/STIM_028.jpg	99
1004.159	0.929	928.6	2back	Block2	2back/STIM_028.jpg	99
1007.72	0.884	884.4	2back	Block2	2back/STIM_029.jpg	100
1011.389	0.739	738.8	2back	Block2	2back/STIM_029.jpg	100
1014.246	0.931	931.0	2back	Block2	2back/STIM_029.jpg	99
1017.647	1.213	1213.4	2back	Block2	2back/STIM_030.jpg	99
1022.446	0.913	912.6	2back	Block2	2back/STIM_030.jpg	99
1025.554	0.624	623.8	2back	Block2	2back/STIM_030.jpg	99
1029.035	0.831	830.8	2back	Block2	2back/STIM_031.jpg	100
1032.78	0.749	748.8	2back	Block2	2back/STIM_031.jpg	99
1037.392	0.62	620.3	2back	Block2	2back/STIM_031.jpg	100
1040.888	0.856	855.9	2back	Block2	2back/STIM_032.jpg	100
1044.127	1.055	1054.7	2back	Block2	2back/STIM_032.jpg	99
1047.792	0.803	803.4	2back	Block2	2back/STIM_032.jpg	100
1050.979	0.831	831.4	2back	Block2	2back/STIM_033.jpg	99
1054.24	0.542	541.6	2back	Block2	2back/STIM_033.jpg	99
1058.53	0.633	633.3	2back	Block2	2back/STIM_033.jpg	100
1061.758	0.95	949.9	2back	Block2	2back/STIM_034.jpg	99
1066.544	1.064	1063.5	2back	Block2	2back/STIM_034.jpg	99
1071.435	0.679	679.0	2back	Block2	2back/STIM_034.jpg	99
1074.345	0.922	921.9	2back	Block2	2back/STIM_035.jpg	100
1078.45	1.051	1050.6	2back	Block2	2back/STIM_035.jpg	100
1083.484	1.032	1031.8	2back	Block2	2back/STIM_035.jpg	100
1086.821	0.881	880.9	2back	Block2	2back/STIM_036.jpg	99
1091.371	0.949	949.2	2back	Block2	2back/STIM_036.jpg	99
1094.697	0.752	751.9	2back	Block2	2back/STIM_036.jpg	100
1099.444	0.733	733.4	2back	Block2	2back/STIM_037.jpg	100
1104.173	0.523	523.0	2back	Block2	2back/STIM_037.jpg	99
1108.398	0.984	983.9	2back	Block2	2back/STIM_037.jpg	99
1112.921	0.613	613.1	2back	Block2	2back/STIM_038.jpg	100
1116.213	1.049	1048.6	2back	Block2	2back/STIM_038.jpg	100
1120.397	0.892	891.7	2back	Block2	2back/STIM_038.jpg	99
1124.961	0.82	820.4	2back	Block2	2back/STIM_039.jpg	100
1129.549	0.811	811.0	2back	Block2	2back/STIM_039.jpg	99
1132.772	0.676	675.7	2back	Block2	2back/STIM_039.jpg	100
1135.565	0.421	421.3	0back	Block2	0back/STIM_000.jpg	99
1138.891	0.71	709.9	0back	Block2	0back/STIM_000.jpg	100
1142.456	0.581	580.8	0back	Block2	0back/STIM_000.jpg	99
1145.382	0.667	667.1	0back	Block2	0back/STIM_001.jpg	100
1148.741	0.452	452.4	0back	Block2	0back/STIM_001.jpg	99
1153.14	0.409	409.0	0back	Block2	0back/STIM_001.jpg	99
1155.599	0.753	753.2	0back	Block2	0back/STIM_002.jpg	99
1158.457	0.416	416.3	0back	Block2	0back/STIM_002.jpg	100
1161.393	0.447	446.7	0back	Block2	0back/STIM_002.jpg	100
1165.741	0.49	490.0	0back	Block2	0back/STIM_003.jpg	99
1169.391	0.483	482.6	0back	Block2	0back/STIM_003.jpg	100
1172.137	0.775	774.6	0back	Block2	0back/STIM_003.jpg	99
1175.398	0.759	759.3	0back	Block2	0back/STIM_004.jpg	99
1179.132	0.624	623.9	0back	Block2	0back/STIM_004.jpg	99
1182.023	0.782	782.5	0back	Block2	0back/STIM_004.jpg	100
1185.45	0.795	795.4	0back	Block2	0back/STIM_005.jpg	99
1189.217	0.766	765.7	0back	Block2	0back/STIM_005.jpg	100
1192.015	0.467	466.9	0back	Block2	0back/STIM_005.jpg	100
1196.432	0.571	570.7	0back	Block2	0back/STIM_006.jpg	100
1200.67	0.598	598.1	0back	Block2	0back/STIM_006.jpg	100
1204.911	0.703	702.6	0back	Block2	0back/STIM_006.jpg	100
1207.783	0.793	793.4	0back	Block2	0back/STIM_007.jpg	99
1211.149	0.41	410.3	0back	Block2	0back/STIM_007.jpg	100
1213.771	0.471	471.3	0back	Block2	0back/STIM_007.jpg	99
1217.985	0.436	435.8	0back	Block2	0back/STIM_008.jpg	100
1221.427	0.608	608.2	0back	Block2	0back/STIM_008.jpg	100
1224.915	0.759	759.4	0back	Block2	0back/STIM_008.jpg	99
1228.137	0.455	454.9	0back	Block2	0back/STIM_009.jpg	99
1231.74	0.768	767.5	0back	Block2	0back/STIM_009.jpg	100
1235.096	0.788	787.9	0back	Block2	0back/STIM_009.jpg	100
1239.637	0.771	771.3	0back	Block2	0back/STIM_010.jpg	99
1242.344	0.722	721.5	0back	Block2	0back/STIM_010.jpg	100
1246.594	0.578	577.5	0back	Block2	0back/STIM_010.jpg	100
1251.046	0.584	583.7	0back	Block2	0back/STIM_011.jpg	100
1253.596	0.674	673.8	0back	Block2	0back/STIM_011.jpg	100
1256.722	0.587	587.0	0back	Block2	0back/STIM_011.jpg	100
1260.252	0.459	459.4	0back	Block2	0back/STIM_012.jpg	99
1264.519	0.825	825.1	0back	Block2	0back/STIM_012.jpg	99
1268.769	0.616	616.5	0back	Block2	0back/STIM_012.jpg	99
1272.897	0.673	673.1	0back	Block2	0back/STIM_013.jpg	99
1276.492	0.665	665.2	0back	Block2	0back/STIM_013.jpg	99
1280.544	0.397	396.8	0back	Block2	0back/STIM_013.jpg	99
1283.381	0.586	585.7	0back	Block2	0back/STIM_014.jpg	99
1286.43	0.508	508.3	0back	Block2	0back/STIM_014.jpg	99
1289.341	0.694	693.6	0back	Block2	0back/STIM_014.jpg	100
1292.627	0.569	568.9	0back	Block2	0back/STIM_015.jpg	100
1296.497	0.568	568.0	0back	Block2	0back/STIM_015.jpg	99
1299.81	0.716	715.7	0back	Block2	0back/STIM_015.jpg	99
1303.367	0.784	784.1	0back	Block2	0back/STIM_016.jpg	100
1307.938	0.752	751.7	0back	Block2	0back/STIM_016.jpg	99
1312.197	0.695	695.2	0back	Block2	0back/STIM_016.jpg	100
1315.903	0.585	585.3	0back	Block2	0back/STIM_017.jpg	99
1318.831	0.46	460.1	0back	Block2	0back/STIM_017.jpg	99
1322.838	0.691	690.8	0back	Block2	0back/STIM_017.jpg	100
1326.086	0.428	427.8	0back	Block2	0back/STIM_018.jpg	99
1328.799	0.606	605.6	0back	Block2	0back/STIM_018.jpg	99
1332.517	0.587	587.3	0back	Block2	0back/STIM_018.jpg	100
1336.658	0.684	684.5	0back	Block2	0back/STIM_019.jpg	100
1340.264	0.5	499.8	0back	Block2	0back/STIM_019.jpg	100
1343.721	0.488	487.8	0back	Block2	0back/STIM_019.jpg	100
1346.773	0.621	621.1	2back	Block3	2back/STIM_000.jpg	99
1351.048	0.83	829.7	2back	Block3	2back/STIM_000.jpg	99
1353.886	0.424	423.8	2back	Block3	2back/STIM_000.jpg	99
1356.836	0.382	381.5	2back	Block3	2back/STIM_001.jpg	99
1360.422	0.383	382.7	2back	Block3	2back/STIM_001.jpg	99
1363.409	0.603	603.4	2back	Block3	2back/STIM_001.jpg	99
1366.642	0.716	715.8	2back	Block3	2back/STIM_002.jpg	99
1371.199	0.868	868.3	2back	Block3	2back/STIM_002.jpg	99
1374.67	0.569	568.9	2back	Block3	2back/STIM_002.jpg	100
1378.513	0.55	549.5	2back	Block3	2back/STIM_003.jpg	100
1381.887	0.476	475.9	2back	Block3	2back/STIM_003.jpg	99
1385.262	0.499	499.4	2back	Block3	2back/STIM_003.jpg	100
1387.779	0.583	582.9	2back	Block3	2back/STIM_004.jpg	99
1391.858	0.884	883.8	2back	Block3	2back/STIM_004.jpg	100
1395.555	0.663	662.9	2back	Block3	2back/STIM_004.jpg	100
1398.605	0.66	660.1	2back	Block3	2back/STIM_005.jpg	100
1402.454	0.439	439.4	2back	Block3	2back/STIM_005.jpg	100
1406.023	0.843	842.9	2back	Block3	2back/STIM_005.jpg	100
1410.335	0.53	530.3	2back	Block3	2back/STIM_006.jpg	99
1413.775	0.867	867.0	2back	Block3	2back/STIM_006.jpg	100
1417.082	0.699	698.7	2back	Block3	2back/STIM_006.jpg	99
1420.038	0.576	576.1	2back	Block3	2back/STIM_007.jpg	99
1424.389	0.873	873.0	2back	Block3	2back/STIM_007.jpg	99
1428.097	0.814	813.5	2back	Block3	2back/STIM_007.jpg	100
1431.238	0.767	767.1	2back	Block3	2back/STIM_008.jpg	100
1435.349	0.94	940.3	2back	Block3	2back/STIM_008.jpg	100
1438.841	0.668	668.1	2back	Block3	2back/STIM_008.jpg	99
1443.241	0.744	744.0	2back	Block3	2back/STIM_009.jpg	100
1446.25	0.377	377.1	2back	Block3	2back/STIM_009.jpg	100
1450.675	0.973	972.8	2back	Block3	2back/STIM_009.jpg	100
1454.182	0.694	694.1	2back	Block3	2back/STIM_010.jpg	100
1458.125	0.606	605.8	2back	Block3	2back/STIM_010.jpg	99
1462.561	0.702	701.5	2back	Block3	2back/STIM_010.jpg	99
1466.637	0.58	579.9	2back	Block3	2back/STIM_011.jpg	99
1470.401	0.672	671.5	2back	Block3	2back/STIM_011.jpg	100
1473.309	0.501	501.3	2back	Block3	2back/STIM_011.jpg	99
1477.81	0.54	540.2	2back	Block3	2back/STIM_012.jpg	100
1481.406	0.779	779.0	2back	Block3	2back/STIM_012.jpg	99
1484.554	0.439	439.0	2back	Block3	2back/STIM_012.jpg	99
1487.862	0.692	691.6	2back	Block3	2back/STIM_013.jpg	100
1491.552	0.84	840.0	2back	Block3	2back/STIM_013.jpg	100
1496.028	0.446	445.9	2back	Block3	2back/STIM_013.jpg	100
1498.735	0.51	509.8	2back	Block3	2back/STIM_014.jpg	99
1501.811	0.777	776.9	2back	Block3	2back/STIM_014.jpg	99
1505.247	0.925	924.7	2back	Block3	2back/STIM_014.jpg	99
1509.657	0.964	964.3	2back	Block3	2back/STIM_015.jpg	100
1513.006	0.638	637.8	2back	Block3	2back/STIM_015.jpg	99
1516.892	0.519	519.0	2back	Block3	2back/STIM_015.jpg	100
1521.198	0.459	459.2	2back	Block3	2back/STIM_016.jpg	100
1524.38	0.863	862.9	2back	Block3	2back/STIM_016.jpg	100
1527.808	0.618	618.2	2back	Block3	2back/STIM_016.jpg	100
1531.851	0.707	707.4	2back	Block3	2back/STIM_017.jpg	99
1536.314	0.59	590.4	2back	Block3	2back/STIM_017.jpg	100
1539.553	0.713	713.4	2back	Block3	2back/STIM_017.jpg	99
1542.476	0.851	850.8	2back	Block3	2back/STIM_018.jpg	99
1545.698	0.377	377.3	2back	Block3	2back/STIM_018.jpg	99
1549.043	0.693	692.6	2back	Block3	2back/STIM_018.jpg	100
1553.27	0.871	870.9	2back	Block3	2back/STIM_019.jpg	100
1556.543	0.616	616.1	2back	Block3	2back/STIM_019.jpg	100
1559.406	0.741	740.6	2back	Block3	2back/STIM_019.jpg	99
1563.007	0.608	608.5	2back	Block3	2back/STIM_020.jpg	99
1567.2	0.891	891.3	2back	Block3	2back/STIM_020.jpg	99
1570.7	0.722	721.7	2back	Block3	2back/STIM_020.jpg	100
1574.88	0.596	596.5	2back	Block3	2back/STIM_021.jpg	100
1577.766	0.962	961.7	2back	Block3	2back/STIM_021.jpg	99
1581.152	0.969	968.9	2back	Block3	2back/STIM_021.jpg	100
1584.637	0.527	527.0	2back	Block3	2back/STIM_022.jpg	99
1588.28	0.757	756.6	2back	Block3	2back/STIM_022.jpg	100
1592.481	0.951	951.4	2back	Block3	2back/STIM_022.jpg	99
1597.342	0.868	867.5	2back	Block3	2back/STIM_023.jpg	100
1601.995	0.639	638.8	2back	Block3	2back/STIM_023.jpg	99
1605.424	0.792	792.3	2back	Block3	2back/STIM_023.jpg	100
1609.13	0.976	975.5	2back	Block3	2back/STIM_024.jpg	99
1613.154	0.736	736.3	2back	Block3	2back/STIM_024.jpg	99
1617.383	0.813	813.0	2back	Block3	2back/STIM_024.jpg	100
1621.564	0.456	456.3	2back	Block3	2back/STIM_025.jpg	99
1625.463	0.926	926.5	2back	Block3	2back/STIM_025.jpg	99
1630.222	0.792	791.8	2back	Block3	2back/STIM_025.jpg	99
1633.806	0.783	782.6	2back	Block3	2back/STIM_026.jpg	100
1637.986	0.822	822.0	2back	Block3	2back/STIM_026.jpg	99
1641.165	0.637	636.8	2back	Block3	2back/STIM_026.jpg	99
1644.972	0.913	912.9	2back	Block3	2back/STIM_027.jpg	100
1648.766	0.918	917.9	2back	Block3	2back/STIM_027.jpg	99
1653.641	0.676	675.9	2back	Block3	2back/STIM_027.jpg	99
1656.942	0.89	889.8	2back	Block3	2back/STIM_028.jpg	99
1660.853	0.678	678.1	2back	Block3	2back/STIM_028.jpg	99
1665.489	0.41	409.7	2back	Block3	2back/STIM_028.jpg	99
1668.296	0.713	713.2	2back	Block3	2back/STIM_029.jpg	99
1672.93	0.805	805.4	2back	Block3	2back/STIM_029.jpg	100
1675.762	0.874	874.1	2back	Block3	2back/STIM_029.jpg	100
1680.367	0.975	974.9	2back	Block3	2back/STIM_030.jpg	100
1684.509	0.535	535.1	2back	Block3	2back/STIM_030.jpg	99
1687.595	0.801	800.9	2back	Block3	2back/STIM_030.jpg	100
1691.626	0.684	684.3	2back	Block3	2back/STIM_031.jpg	100
1696.364	0.5	500.5	2back	Block3	2back/STIM_031.jpg	100
1700.248	0.529	528.6	2back	Block3	2back/STIM_031.jpg	99
1704.159	0.426	426.0	2back	Block3	2back/STIM_032.jpg	100
1707.307	0.87	870.2	2back	Block3	2back/STIM_032.jpg	99
1710.284	0.651	650.6	2back	Block3	2back/STIM_032.jpg	100
1714.75	0.948	948.4	2back	Block3	2back/STIM_033.jpg	99
1719.419	0.522	521.9	2back	Block3	2back/STIM_033.jpg	99
1723.801	0.558	558.0	2back	Block3	2back/STIM_033.jpg	99
1727.912	0.524	523.8	2back	Block3	2back/STIM_034.jpg	100
1730.547	0.549	548.6	2back	Block3	2back/STIM_034.jpg	99
1734.406	0.942	942.3	2back	Block3	2back/STIM_034.jpg	99
1737.834	0.708	707.6	2back	Block3	2back/STIM_035.jpg	99
1742.279	0.642	641.8	2back	Block3	2back/STIM_035.jpg	99
1745.26	0.864	863.8	2back	Block3	2back/STIM_035.jpg	100
1748.786	0.872	872.3	2back	Block3	2back/STIM_036.jpg	99
1752.807	0.693	693.2	2back	Block3	2back/STIM_036.jpg	100
1755.821	0.44	439.6	2back	Block3	2back/STIM_036.jpg	100
1758.32	0.47	470.4	2back	Block3	2back/STIM_037.jpg	100
1761.337	0.395	395.1	2back	Block3	2back/STIM_037.jpg	100
1765.672	0.939	938.8	2back	Block3	2back/STIM_037.jpg	99
1770.018	0.357	356.7	2back	Block3	2back/STIM_038.jpg	99
1772.448	0.618	618.0	2back	Block3	2back/STIM_038.jpg	99
1776.33	0.525	525.2	2back	Block3	2back/STIM_038.jpg	100
1779.116	0.692	692.5	2back	Block3	2back/STIM_039.jpg	100
1783.045	0.761	760.9	2back	Block3	2back/STIM_039.jpg	99
1787.011	0.911	911.0	2back	Block3	2back/STIM_039.jpg	99
1791.388	0.594	594.0	0back	Block3	0back/STIM_000.jpg	100
1795.745	0.618	618.5	0back	Block3	0back/STIM_000.jpg	100
1798.624	0.5	500.4	0back	Block3	0back/STIM_000.jpg	100
1801.292	0.504	504.5	0back	Block3	0back/STIM_001.jpg	100
1804.931	0.52	519.9	0back	Block3	0back/STIM_001.jpg	99
1808.737	0.634	634.4	0back	Block3	0back/STIM_001.jpg	100
1811.672	0.677	676.9	0back	Block3	0back/STIM_002.jpg	99
1814.89	0.673	673.1	0back	Block3	0back/STIM_002.jpg	99
1818.148	0.424	423.5	0back	Block3	0back/STIM_002.jpg	100
1821.898	0.454	453.6	0back	Block3	0back/STIM_003.jpg	100
1825.654	0.561	561.4	0back	Block3	0back/STIM_003.jpg	100
1829.032	0.572	571.9	0back	Block3	0back/STIM_003.jpg	99
1831.907	0.498	497.6	0back	Block3	0back/STIM_004.jpg	100
1834.698	0.393	393.3	0back	Block3	0back/STIM_004.jpg	100
1837.538	0.74	739.9	0back	Block3	0back/STIM_004.jpg	99
1841.182	0.681	681.2	0back	Block3	0back/STIM_005.jpg	100
1844.975	0.522	522.4	0back	Block3	0back/STIM_005.jpg	99
1848.297	0.509	509.0	0back	Block3	0back/STIM_005.jpg	99
1852.495	0.771	771.4	0back	Block3	0back/STIM_006.jpg	99
1857.154	0.692	692.2	0back	Block3	0back/STIM_006.jpg	99
1861.272	0.508	508.0	0back	Block3	0back/STIM_006.jpg	99
1864.027	0.676	675.6	0back	Block3	0back/STIM_007.jpg	99
1867.419	0.69	690.1	0back	Block3	0back/STIM_007.jpg	99
1871.824	0.673	672.8	0back	Block3	0back/STIM_007.jpg	99
1874.91	0.47	470.1	0back	Block3	0back/STIM_008.jpg	100
1877.471	0.522	521.9	0back	Block3	0back/STIM_008.jpg	99
1881.685	0.772	772.4	0back	Block3	0back/STIM_008.jpg	99
1885.733	0.478	478.4	0back	Block3	0back/STIM_009.jpg	100
1889.844	0.494	494.1	0back	Block3	0back/STIM_009.jpg	99
1892.877	0.495	494.8	0back	Block3	0back/STIM_009.jpg	100
1896.159	0.574	573.5	0back	Block3	0back/STIM_010.jpg	99
1899.008	0.543	543.0	0back	Block3	0back/STIM_010.jpg	99
1902.205	0.624	623.7	0back	Block3	0back/STIM_010.jpg	100
1906.685	0.749	749.1	0back	Block3	0back/STIM_011.jpg	99
1910.416	0.758	758.5	0back	Block3	0back/STIM_011.jpg	99
1914.718	0.762	762.5	0back	Block3	0back/STIM_011.jpg	99
1918.736	0.855	855.1	0back	Block3	0back/STIM_012.jpg	100
1923.449	0.343	343.2	0back	Block3	0back/STIM_012.jpg	100
1926.209	0.538	537.9	0back	Block3	0back/STIM_012.jpg	100
1929.456	0.491	490.8	0back	Block3	0back/STIM_013.jpg	100
1932.597	0.615	615.0	0back	Block3	0back/STIM_013.jpg	100
1936.111	0.461	461.2	0back	Block3	0back/STIM_013.jpg	100
1939.561	0.535	535.3	0back	Block3	0back/STIM_014.jpg	100
1943.089	0.439	438.8	0back	Block3	0back/STIM_014.jpg	100
1945.672	0.544	544.5	0back	Block3	0back/STIM_014.jpg	99
1949.425	0.522	521.6	0back	Block3	0back/STIM_015.jpg	99
1953.091	0.649	649.4	0back	Block3	0back/STIM_015.jpg	100
1956.176	0.574	574.4	0back	Block3	0back/STIM_015.jpg	99
1959.682	0.565	564.7	0back	Block3	0back/STIM_016.jpg	100
1963.008	0.805	805.4	0back	Block3	0back/STIM_016.jpg	99
1966.018	0.452	451.7	0back	Block3	0back/STIM_016.jpg	100
1969.754	0.849	849.3	0back	Block3	0back/STIM_017.jpg	100
1974.418	0.377	377.0	0back	Block3	0back/STIM_017.jpg	100
1977.608	0.513	512.9	0back	Block3	0back/STIM_017.jpg	100
1980.339	0.668	668.5	0back	Block3	0back/STIM_018.jpg	100
1983.759	0.594	593.9	0back	Block3	0back/STIM_018.jpg	99
1987.167	0.58	580.2	0back	Block3	0back/STIM_018.jpg	100
1991.699	0.748	748.5	0back	Block3	0back/STIM_019.jpg	99
1996.295	0.788	788.0	0back	Block3	0back/STIM_019.jpg	99
2000.545	0.46	459.8	0back	Block3	0back/STIM_019.jpg	100
2004.96	0.677	677.3	2back	Block4	2back/STIM_000.jpg	100
2009.253	0.92	920.0	2back	Block4	2back/STIM_000.jpg	100
2012.482	0.87	870.5	2back	Block4	2back/STIM_000.jpg	99
2016.317	0.861	861.3	2back	Block4	2back/STIM_001.jpg	100
2020.288	0.645	644.8	2back	Block4	2back/STIM_001.jpg	100
2024.26	0.936	935.6	2back	Block4	2back/STIM_001.jpg	99
2027.419	0.954	953.5	2back	Block4	2back/STIM_002.jpg	100
2031.059	0.571	571.1	2back	Block4	2back/STIM_002.jpg	100
2034.65	0.564	564.5	2back	Block4	2back/STIM_002.jpg	100
2039.152	0.707	706.9	2back	Block4	2back/STIM_003.jpg	100
2042.58	0.498	497.5	2back	Block4	2back/STIM_003.jpg	100
2047.048	0.888	887.5	2back	Block4	2back/STIM_003.jpg	100
2051.555	0.454	453.8	2back	Block4	2back/STIM_004.jpg	100
2055.015	0.624	623.9	2back	Block4	2back/STIM_004.jpg	100
2059.686	0.738	737.5	2back	Block4	2back/STIM_004.jpg	100
2064.348	0.494	494.2	2back	Block4	2back/STIM_005.jpg	99
2067.249	0.656	656.0	2back	Block4	2back/STIM_005.jpg	99
2070.534	0.879	878.6	2back	Block4	2back/STIM_005.jpg	100
2075.186	0.441	440.7	2back	Block4	2back/STIM_006.jpg	99
2079.243	0.841	840.6	2back	Block4	2back/STIM_006.jpg	99
2083.278	0.941	941.2	2back	Block4	2back/STIM_006.jpg	99
2087.527	0.514	513.8	2back	Block4	2back/STIM_007.jpg	100
2090.889	0.713	712.8	2back	Block4	2back/STIM_007.jpg	99
2093.935	0.496	496.2	2back	Block4	2back/STIM_007.jpg	100
2096.652	0.828	828.1	2back	Block4	2back/STIM_008.jpg	99
2099.757	0.73	730.0	2back	Block4	2back/STIM_008.jpg	99
2102.569	0.751	751.0	2back	Block4	2back/STIM_008.jpg	99
2105.486	0.8	799.7	2back	Block4	2back/STIM_009.jpg	100
2108.965	0.475	475.4	2back	Block4	2back/STIM_009.jpg	100
2112.638	0.584	584.5	2back	Block4	2back/STIM_009.jpg	99
2116.952	0.677	677.3	2back	Block4	2back/STIM_010.jpg	100
2120.866	0.812	811.6	2back	Block4	2back/STIM_010.jpg	99
2124.008	1.014	1013.9	2back	Block4	2back/STIM_010.jpg	100
2127.814	0.96	960.3	2back	Block4	2back/STIM_011.jpg	100
2131.266	0.799	798.6	2back	Block4	2back/STIM_011.jpg	99
2134.971	0.596	595.9	2back	Block4	2back/STIM_011.jpg	100
2138.28	0.773	772.8	2back	Block4	2back/STIM_012.jpg	99
2142.783	0.864	863.8	2back	Block4	2back/STIM_012.jpg	100
2146.662	0.941	940.7	2back	Block4	2back/STIM_012.jpg	99
2150.833	0.708	707.8	2back	Block4	2back/STIM_013.jpg	100
2154.294	0.912	911.8	2back	Block4	2back/STIM_013.jpg	99
2157.76	0.578	578.3	2back	Block4	2back/STIM_013.jpg	99
2161.571	0.411	410.9	2back	Block4	2back/STIM_014.jpg	100
2166.001	0.97	970.0	2back	Block4	2back/STIM_014.jpg	99
2169.311	0.887	886.9	2back	Block4	2back/STIM_014.jpg	99
2173.631	0.777	776.6	2back	Block4	2back/STIM_015.jpg	100
2177.661	0.892	892.1	2back	Block4	2back/STIM_015.jpg	99
2182.078	0.467	466.6	2back	Block4	2back/STIM_015.jpg	100
2186.429	0.69	689.8	2back	Block4	2back/STIM_016.jpg	99
2189.296	0.716	716.4	2back	Block4	2back/STIM_016.jpg	100
2192.036	0.853	853.1	2back	Block4	2back/STIM_016.jpg	99
2196.417	0.941	940.6	2back	Block4	2back/STIM_017.jpg	100
2200.106	0.59	589.5	2back	Block4	2back/STIM_017.jpg	100
2202.972	0.919	919.2	2back	Block4	2back/STIM_017.jpg	99
2206.003	0.51	510.1	2back	Block4	2back/STIM_018.jpg	100
2208.701	0.84	839.6	2back	Block4	2back/STIM_018.jpg	99
2213.5	0.674	673.7	2back	Block4	2back/STIM_018.jpg	99
2216.736	0.49	490.4	2back	Block4	2back/STIM_019.jpg	100
2219.589	0.603	603.2	2back	Block4	2back/STIM_019.jpg	100
2222.387	0.689	689.0	2back	Block4	2back/STIM_019.jpg	99
2225.444	0.677	676.6	2back	Block4	2back/STIM_020.jpg	100
2228.363	0.503	502.7	2back	Block4	2back/STIM_020.jpg	100
2231.158	0.539	538.6	2back	Block4	2back/STIM_020.jpg	100
2234.731	0.65	649.6	2back	Block4	2back/STIM_021.jpg	100
2239.13	0.382	382.5	2back	Block4	2back/STIM_021.jpg	100
2241.735	0.817	817.1	2back	Block4	2back/STIM_021.jpg	99
2244.828	0.943	942.6	2back	Block4	2back/STIM_022.jpg	100
2249.075	0.635	634.7	2back	Block4	2back/STIM_022.jpg	99
2253.584	0.915	914.6	2back	Block4	2back/STIM_022.jpg	100
2257.746	0.521	521.4	2back	Block4	2back/STIM_023.jpg	99
2261.187	0.56	559.6	2back	Block4	2back/STIM_023.jpg	100
2264.68	0.445	445.0	2back	Block4	2back/STIM_023.jpg	99
2268.371	0.693	693.1	2back	Block4	2back/STIM_024.jpg	100
2271.392	0.76	759.6	2back	Block4	2back/STIM_024.jpg	99
2274.838	0.566	566.5	2back	Block4	2back/STIM_024.jpg	100
2279.31	0.835	835.2	2back	Block4	2back/STIM_025.jpg	99
2284.113	0.747	747.4	2back	Block4	2back/STIM_025.jpg	99
2287.189	0.478	477.8	2back	Block4	2back/STIM_025.jpg	99
2290.121	0.72	719.9	2back	Block4	2back/STIM_026.jpg	100
2294.633	0.734	733.5	2back	Block4	2back/STIM_026.jpg	99
2298.555	0.614	614.2	2back	Block4	2back/STIM_026.jpg	99
2301.446	0.476	475.8	2back	Block4	2back/STIM_027.jpg	100
2304.76	0.414	413.9	2back	Block4	2back/STIM_027.jpg	99
2307.932	0.944	944.3	2back	Block4	2back/STIM_027.jpg	99
2311.183	0.627	626.6	2back	Block4	2back/STIM_028.jpg	100
2314.542	0.568	568.4	2back	Block4	2back/STIM_028.jpg	100
2318.516	0.455	455.4	2back	Block4	2back/STIM_028.jpg	99
2321.929	0.84	839.6	2back	Block4	2back/STIM_029.jpg	100
2325.015	0.753	752.8	2back	Block4	2back/STIM_029.jpg	100
2329.152	0.688	688.1	2back	Block4	2back/STIM_029.jpg	99
2331.919	0.798	797.6	2back	Block4	2back/STIM_030.jpg	100
2335.22	0.587	586.8	2back	Block4	2back/STIM_030.jpg	99
2337.942	0.554	554.1	2back	Block4	2back/STIM_030.jpg	99
2341.679	0.834	834.2	2back	Block4	2back/STIM_031.jpg	100
2345.694	0.73	730.3	2back	Block4	2back/STIM_031.jpg	99
2350.252	0.86	859.8	2back	Block4	2back/STIM_031.jpg	99
2354.441	0.79	790.5	2back	Block4	2back/STIM_032.jpg	100
2358.265	0.934	933.9	2back	Block4	2back/STIM_032.jpg	100
2361.79	0.804	803.8	2back	Block4	2back/STIM_032.jpg	99
2366.371	0.8	800.1	2back	Block4	2back/STIM_033.jpg	99
2370.199	0.535	534.7	2back	Block4	2back/STIM_033.jpg	100
2374.056	0.635	634.9	2back	Block4	2back/STIM_033.jpg	99
2377.251	0.779	779.3	2back	Block4	2back/STIM_034.jpg	99
2380.323	0.656	655.6	2back	Block4	2back/STIM_034.jpg	100
2383.904	0.728	727.9	2back	Block4	2back/STIM_034.jpg	100
2387.08	0.73	730.3	2back	Block4	2back/STIM_035.jpg	100
2390.229	0.592	591.5	2back	Block4	2back/STIM_035.jpg	100
2393.035	0.824	824.0	2back	Block4	2back/STIM_035.jpg	100
2396.848	0.67	670.1	2back	Block4	2back/STIM_036.jpg	100
2400.405	0.856	855.7	2back	Block4	2back/STIM_036.jpg	99
2403.333	0.707	707.4	2back	Block4	2back/STIM_036.jpg	100
2406.721	0.974	973.9	2back	Block4	2back/STIM_037.jpg	99
2411.056	0.531	531.1	2back	Block4	2back/STIM_037.jpg	100
2415.515	0.905	904.7	2back	Block4	2back/STIM_037.jpg	100
2418.656	0.71	710.1	2back	Block4	2back/STIM_038.jpg	100
2423.011	0.464	463.8	2back	Block4	2back/STIM_038.jpg	100
2426.441	0.698	698.5	2back	Block4	2back/STIM_038.jpg	99
2430.827	0.504	503.9	2back	Block4	2back/STIM_039.jpg	100
2434.458	0.627	626.8	2back	Block4	2back/STIM_039.jpg	99
2438.73	0.85	850.4	2back	Block4	2back/STIM_039.jpg	99
2442.538	0.413	412.7	0back	Block4	0back/STIM_000.jpg	100
2446.025	0.723	722.9	0back	Block4	0back/STIM_000.jpg	99
2450.583	0.518	517.9	0back	Block4	0back/STIM_000.jpg	100
2454.229	0.764	763.6	0back	Block4	0back/STIM_001.jpg	100
2458.026	0.54	539.9	0back	Block4	0back/STIM_001.jpg	99
2461.491	0.728	728.5	0back	Block4	0back/STIM_001.jpg	99
2464.398	0.696	696.1	0back	Block4	0back/STIM_002.jpg	100
2467.677	0.694	693.6	0back	Block4	0back/STIM_002.jpg	100
2472.132	0.649	649.3	0back	Block4	0back/STIM_002.jpg	100
2476.409	0.428	427.6	0back	Block4	0back/STIM_003.jpg	100
2479.989	0.583	583.4	0back	Block4	0back/STIM_003.jpg	100
2482.639	0.691	691.1	0back	Block4	0back/STIM_003.jpg	99
2485.415	0.707	706.7	0back	Block4	0back/STIM_004.jpg	99
2489.287	0.507	506.6	0back	Block4	0back/STIM_004.jpg	100
2492.142	0.552	552.3	0back	Block4	0back/STIM_004.jpg	100
2496.223	0.416	416.0	0back	Block4	0back/STIM_005.jpg	100
2498.995	0.775	775.1	0back	Block4	0back/STIM_005.jpg	99
2502.625	0.69	689.9	0back	Block4	0back/STIM_005.jpg	99
2506.457	0.73	730.0	0back	Block4	0back/STIM_006.jpg	100
2509.294	0.849	848.9	0back	Block4	0back/STIM_006.jpg	99
2512.323	0.875	875.0	0back	Block4	0back/STIM_006.jpg	100
2515.838	0.602	602.5	0back	Block4	0back/STIM_007.jpg	100
2520.088	0.712	712.1	0back	Block4	0back/STIM_007.jpg	100
2524.189	0.718	718.4	0back	Block4	0back/STIM_007.jpg	100
2526.995	0.4	400.5	0back	Block4	0back/STIM_008.jpg	100
2530.95	0.487	487.0	0back	Block4	0back/STIM_008.jpg	100
2533.884	0.525	524.6	0back	Block4	0back/STIM_008.jpg	99
2537.656	0.427	426.6	0back	Block4	0back/STIM_009.jpg	100
2541.821	0.799	799.2	0back	Block4	0back/STIM_009.jpg	100
2544.655	0.449	449.1	0back	Block4	0back/STIM_009.jpg	99
2548.694	0.486	486.1	0back	Block4	0back/STIM_010.jpg	99
2552.977	0.514	514.2	0back	Block4	0back/STIM_010.jpg	99
2555.872	0.503	502.7	0back	Block4	0back/STIM_010.jpg	99
2559.107	0.65	650.0	0back	Block4	0back/STIM_011.jpg	100
2563.157	0.674	673.7	0back	Block4	0back/STIM_011.jpg	100
2566.761	0.433	432.6	0back	Block4	0back/STIM_011.jpg	99
2570.876	0.693	693.3	0back	Block4	0back/STIM_012.jpg	99
2573.728	0.509	509.5	0back	Block4	0back/STIM_012.jpg	100
2577.51	0.404	404.4	0back	Block4	0back/STIM_012.jpg	100
2580.755	0.565	565.1	0back	Block4	0back/STIM_013.jpg	100
2584.997	0.552	552.0	0back	Block4	0back/STIM_013.jpg	99
2588.767	0.566	566.4	0back	Block4	0back/STIM_013.jpg	100
2592.795	0.478	477.9	0back	Block4	0back/STIM_014.jpg	99
2597.342	0.559	559.1	0back	Block4	0back/STIM_014.jpg	100
2600.865	0.78	779.7	0back	Block4	0back/STIM_014.jpg	99
2605.582	0.401	401.2	0back	Block4	0back/STIM_015.jpg	100
2609.172	0.545	544.7	0back	Block4	0back/STIM_015.jpg	100
2612.281	0.682	681.7	0back	Block4	0back/STIM_015.jpg	100
2615.051	0.644	643.8	0back	Block4	0back/STIM_016.jpg	99
2618.033	0.765	765.2	0back	Block4	0back/STIM_016.jpg	100
2620.961	0.654	653.8	0back	Block4	0back/STIM_016.jpg	99
2623.869	0.678	678.4	0back	Block4	0back/STIM_017.jpg	99
2626.95	0.451	450.8	0back	Block4	0back/STIM_017.jpg	100
2630.047	0.472	472.0	0back	Block4	0back/STIM_017.jpg	99
2634.484	0.503	503.1	0back	Block4	0back/STIM_018.jpg	99
2638.62	0.607	606.9	0back	Block4	0back/STIM_018.jpg	100
2642.135	0.681	681.0	0back	Block4	0back/STIM_018.jpg	100
2646.674	0.563	562.8	0back	Block4	0back/STIM_019.jpg	99
2651.166	0.615	614.6	0back	Block4	0back/STIM_019.jpg	99
2654.919	0.819	819.4	0back	Block4	0back/STIM_019.jpg	99
