onset	duration	accuracy	trial_type	learning_stage	stimulus
0.0	2.857	correct	generate	Run1	generate/STIM_000.jpg
6.74	1.525	incorrect	generate	Run1	generate/STIM_000.jpg
11.353	1.552	correct	generate	Run1	generate/STIM_000.jpg
16.747	2.539	correct	generate	Run1	generate/STIM_000.jpg
22.823	1.55	correct	generate	Run1	generate/STIM_000.jpg
27.438	2.244	correct	generate	Run1	generate/STIM_001.jpg
32.375	2.165	correct	generate	Run1	generate/STIM_001.jpg
36.886	1.594	correct	generate	Run1	generate/STIM_001.jpg
41.135	1.321	correct	generate	Run1	generate/STIM_001.jpg
45.38	1.509	correct	generate	Run1	generate/STIM_001.jpg
49.542	1.973	incorrect	generate	Run1	generate/STIM_002.jpg
55.133	1.282	correct	generate	Run1	generate/STIM_002.jpg
58.862	2.575	correct	generate	Run1	generate/STIM_002.jpg
65.308	1.183	correct	generate	Run1	generate/STIM_002.jpg
70.416	1.815	correct	generate	Run1	generate/STIM_002.jpg
74.524	1.618	correct	generate	Run1	generate/STIM_003.jpg
78.396	2.924	correct	generate	Run1	generate/STIM_003.jpg
84.672	2.438	correct	generate	Run1	generate/STIM_003.jpg
89.479	2.119	correct	generate	Run1	generate/STIM_003.jpg
93.796	1.174	correct	generate	Run1	generate/STIM_003.jpg
97.295	2.548	correct	generate	Run1	generate/STIM_004.jpg
103.323	1.25	correct	generate	Run1	generate/STIM_004.jpg
106.842	1.604	correct	generate	Run1	generate/STIM_004.jpg
111.175	1.706	correct	generate	Run1	generate/STIM_004.jpg
115.37	2.422	correct	generate	Run1	generate/STIM_004.jpg
120.468	1.416	correct	generate	Run1	generate/STIM_005.jpg
125.488	2.165	correct	generate	Run1	generate/STIM_005.jpg
130.052	1.396	correct	generate	Run1	generate/STIM_005.jpg
134.699	1.907	correct	generate	Run1	generate/STIM_005.jpg
140.072	2.338	correct	generate	Run1	generate/STIM_005.jpg
145.917	1.334	correct	generate	Run1	generate/STIM_006.jpg
150.015	2.264	correct	generate	Run1	generate/STIM_006.jpg
155.033	2.604	correct	generate	Run1	generate/STIM_006.jpg
159.742	2.35	correct	generate	Run1	generate/STIM_006.jpg
164.907	2.326	correct	generate	Run1	generate/STIM_006.jpg
170.764	2.393	incorrect	generate	Run1	generate/STIM_007.jpg
176.822	1.702	correct	generate	Run1	generate/STIM_007.jpg
180.897	2.568	correct	generate	Run1	generate/STIM_007.jpg
187.192	2.158	correct	generate	Run1	generate/STIM_007.jpg
191.998	2.337	correct	generate	Run1	generate/STIM_007.jpg
197.977	2.781	correct	generate	Run1	generate/STIM_008.jpg
203.073	2.404	correct	generate	Run1	generate/STIM_008.jpg
209.245	1.693	correct	generate	Run1	generate/STIM_008.jpg
213.318	2.633	correct	generate	Run1	generate/STIM_008.jpg
218.744	2.274	correct	generate	Run1	generate/STIM_008.jpg
224.118	1.386	correct	generate	Run1	generate/STIM_009.jpg
229.057	2.942	correct	generate	Run1	generate/STIM_009.jpg
235.877	2.058	correct	generate	Run1	generate/STIM_009.jpg
240.521	2.067	correct	generate	Run1	generate/STIM_009.jpg
244.755	2.438	correct	generate	Run1	generate/STIM_009.jpg
251.018	1.32	correct	generate	Run1	generate/STIM_010.jpg
254.746	1.412	correct	generate	Run1	generate/STIM_010.jpg
259.796	2.551	correct	generate	Run1	generate/STIM_010.jpg
265.767	1.825	correct	generate	Run1	generate/STIM_010.jpg
269.939	1.89	correct	generate	Run1	generate/STIM_010.jpg
275.79	2.402	correct	generate	Run1	generate/STIM_011.jpg
280.898	1.983	correct	generate	Run1	generate/STIM_011.jpg
285.051	2.061	correct	generate	Run1	generate/STIM_011.jpg
289.211	1.578	correct	generate	Run1	generate/STIM_011.jpg
293.201	1.893	correct	generate	Run1	generate/STIM_011.jpg
298.771	2.807	correct	generate	Run1	generate/STIM_012.jpg
304.235	2.518	correct	generate	Run1	generate/STIM_012.jpg
309.782	1.586	correct	generate	Run1	generate/STIM_012.jpg
314.905	1.328	correct	generate	Run1	generate/STIM_012.jpg
318.448	1.562	correct	generate	Run1	generate/STIM_012.jpg
322.167	1.539	correct	generate	Run1	generate/STIM_013.jpg
327.508	2.603	correct	generate	Run1	generate/STIM_013.jpg
332.494	2.56	correct	generate	Run1	generate/STIM_013.jpg
338.542	1.754	correct	generate	Run1	generate/STIM_013.jpg
343.551	1.436	correct	generate	Run1	generate/STIM_013.jpg
348.453	1.886	correct	generate	Run1	generate/STIM_014.jpg
353.917	1.769	correct	generate	Run1	generate/STIM_014.jpg
358.358	2.812	correct	generate	Run1	generate/STIM_014.jpg
364.302	2.463	correct	generate	Run1	generate/STIM_014.jpg
368.861	2.141	correct	generate	Run1	generate/STIM_014.jpg
373.872	2.201	correct	generate	Run1	generate/STIM_015.jpg
379.775	2.719	correct	generate	Run1	generate/STIM_015.jpg
385.46	2.375	correct	generate	Run1	generate/STIM_015.jpg
390.11	2.208	correct	generate	Run1	generate/STIM_015.jpg
394.509	1.134	correct	generate	Run1	generate/STIM_015.jpg
399.622	1.886	correct	generate	Run1	generate/STIM_016.jpg
405.173	1.659	correct	generate	Run1	generate/STIM_016.jpg
408.959	1.974	correct	generate	Run1	generate/STIM_016.jpg
413.26	1.815	correct	generate	Run1	generate/STIM_016.jpg
418.887	2.358	correct	generate	Run1	generate/STIM_016.jpg
423.867	2.221	correct	generate	Run1	generate/STIM_017.jpg
428.363	2.494	correct	generate	Run1	generate/STIM_017.jpg
433.039	2.482	incorrect	generate	Run1	generate/STIM_017.jpg
438.931	2.116	correct	generate	Run1	generate/STIM_017.jpg
444.803	2.439	correct	generate	Run1	generate/STIM_017.jpg
449.382	1.555	correct	generate	Run1	generate/STIM_018.jpg
453.771	2.9	correct	generate	Run1	generate/STIM_018.jpg
458.681	1.202	correct	generate	Run1	generate/STIM_018.jpg
462.936	1.096	correct	generate	Run1	generate/STIM_018.jpg
467.299	1.225	correct	generate	Run1	generate/STIM_018.jpg
471.407	2.187	correct	generate	Run1	generate/STIM_019.jpg
475.601	2.097	correct	generate	Run1	generate/STIM_019.jpg
481.529	1.43	correct	generate	Run1	generate/STIM_019.jpg
485.784	1.9	correct	generate	Run1	generate/STIM_019.jpg
490.526	1.671	correct	generate	Run1	generate/STIM_019.jpg
495.706	2.348	correct	generate	Run1	generate/STIM_020.jpg
500.136	2.677	correct	generate	Run1	generate/STIM_020.jpg
505.44	2.309	correct	generate	Run1	generate/STIM_020.jpg
511.543	2.344	correct	generate	Run1	generate/STIM_020.jpg
517.28	2.108	correct	generate	Run1	generate/STIM_020.jpg
522.866	2.027	correct	generate	Run1	generate/STIM_021.jpg
527.601	2.45	correct	generate	Run1	generate/STIM_021.jpg
533.579	2.512	correct	generate	Run1	generate/STIM_021.jpg
539.519	2.534	correct	generate	Run1	generate/STIM_021.jpg
545.612	1.101	correct	generate	Run1	generate/STIM_021.jpg
549.917	2.456	correct	generate	Run1	generate/STIM_022.jpg
555.86	1.358	correct	generate	Run1	generate/STIM_022.jpg
560.32	2.681	correct	generate	Run1	generate/STIM_022.jpg
566.363	2.394	correct	generate	Run1	generate/STIM_022.jpg
571.342	2.361	correct	generate	Run1	generate/STIM_022.jpg
576.095	1.43	correct	generate	Run1	generate/STIM_023.jpg
581.435	1.815	correct	generate	Run1	generate/STIM_023.jpg
586.269	2.093	correct	generate	Run1	generate/STIM_023.jpg
592.073	2.098	correct	generate	Run1	generate/STIM_023.jpg
597.838	1.788	correct	generate	Run1	generate/STIM_023.jpg
603.238	1.508	correct	generate	Run1	generate/STIM_024.jpg
608.545	1.55	correct	generate	Run1	generate/STIM_024.jpg
613.944	1.804	correct	generate	Run1	generate/STIM_024.jpg
618.522	1.804	correct	generate	Run1	generate/STIM_024.jpg
623.326	2.323	correct	generate	Run1	generate/STIM_024.jpg
628.587	0.962	correct	repeat	Run1	repeat/STIM_000.jpg
632.896	0.897	correct	repeat	Run1	repeat/STIM_000.jpg
637.415	0.92	correct	repeat	Run1	repeat/STIM_000.jpg
641.103	0.633	correct	repeat	Run1	repeat/STIM_000.jpg
644.663	0.593	correct	repeat	Run1	repeat/STIM_000.jpg
648.324	0.764	correct	repeat	Run1	repeat/STIM_001.jpg
652.129	0.937	correct	repeat	Run1	repeat/STIM_001.jpg
655.994	0.634	correct	repeat	Run1	repeat/STIM_001.jpg
659.25	0.64	incorrect	repeat	Run1	repeat/STIM_001.jpg
663.818	0.741	correct	repeat	Run1	repeat/STIM_001.jpg
667.311	0.784	correct	repeat	Run1	repeat/STIM_002.jpg
670.512	0.593	correct	repeat	Run1	repeat/STIM_002.jpg
673.713	0.864	correct	repeat	Run1	repeat/STIM_002.jpg
677.437	0.872	correct	repeat	Run1	repeat/STIM_002.jpg
680.698	0.579	correct	repeat	Run1	repeat/STIM_002.jpg
683.708	0.589	correct	repeat	Run1	repeat/STIM_003.jpg
688.165	0.591	correct	repeat	Run1	repeat/STIM_003.jpg
691.597	0.708	correct	repeat	Run1	repeat/STIM_003.jpg
695.942	0.635	correct	repeat	Run1	repeat/STIM_003.jpg
700.321	0.767	correct	repeat	Run1	repeat/STIM_003.jpg
703.646	0.686	correct	repeat	Run1	repeat/STIM_004.jpg
706.445	0.637	correct	repeat	Run1	repeat/STIM_004.jpg
709.236	1.031	correct	repeat	Run1	repeat/STIM_004.jpg
712.582	0.679	correct	repeat	Run1	repeat/STIM_004.jpg
715.958	1.015	correct	repeat	Run1	repeat/STIM_004.jpg
719.034	0.598	correct	repeat	Run1	repeat/STIM_005.jpg
721.744	0.97	correct	repeat	Run1	repeat/STIM_005.jpg
724.741	0.88	correct	repeat	Run1	repeat/STIM_005.jpg
729.53	0.766	correct	repeat	Run1	repeat/STIM_005.jpg
734.097	0.646	correct	repeat	Run1	repeat/STIM_005.jpg
736.991	1.048	correct	repeat	Run1	repeat/STIM_006.jpg
740.156	0.878	correct	repeat	Run1	repeat/STIM_006.jpg
744.075	0.874	correct	repeat	Run1	repeat/STIM_006.jpg
747.598	0.878	correct	repeat	Run1	repeat/STIM_006.jpg
750.68	0.695	correct	repeat	Run1	repeat/STIM_006.jpg
754.309	0.815	correct	repeat	Run1	repeat/STIM_007.jpg
757.404	0.788	correct	repeat	Run1	repeat/STIM_007.jpg
761.561	0.913	correct	repeat	Run1	repeat/STIM_007.jpg
766.468	0.739	correct	repeat	Run1	repeat/STIM_007.jpg
769.532	1.02	correct	repeat	Run1	repeat/STIM_007.jpg
774.371	0.883	correct	repeat	Run1	repeat/STIM_008.jpg
777.63	0.866	correct	repeat	Run1	repeat/STIM_008.jpg
780.661	0.693	correct	repeat	Run1	repeat/STIM_008.jpg
784.909	0.637	correct	repeat	Run1	repeat/STIM_008.jpg
789.446	0.807	correct	repeat	Run1	repeat/STIM_008.jpg
792.629	0.77	correct	repeat	Run1	repeat/STIM_009.jpg
795.57	0.963	correct	repeat	Run1	repeat/STIM_009.jpg
799.706	1.044	correct	repeat	Run1	repeat/STIM_009.jpg
804.109	0.72	correct	repeat	Run1	repeat/STIM_009.jpg
808.148	0.528	correct	repeat	Run1	repeat/STIM_009.jpg
810.901	0.915	correct	repeat	Run1	repeat/STIM_010.jpg
815.755	0.707	correct	repeat	Run1	repeat/STIM_010.jpg
819.605	0.583	correct	repeat	Run1	repeat/STIM_010.jpg
822.532	1.003	correct	repeat	Run1	repeat/STIM_010.jpg
825.754	0.859	correct	repeat	Run1	repeat/STIM_010.jpg
829.886	0.622	correct	repeat	Run1	repeat/STIM_011.jpg
833.445	0.673	correct	repeat	Run1	repeat/STIM_011.jpg
837.775	0.549	correct	repeat	Run1	repeat/STIM_011.jpg
841.324	0.608	correct	repeat	Run1	repeat/STIM_011.jpg
844.048	0.676	correct	repeat	Run1	repeat/STIM_011.jpg
848.287	0.832	correct	repeat	Run1	repeat/STIM_012.jpg
852.629	0.778	correct	repeat	Run1	repeat/STIM_012.jpg
857.295	0.558	correct	repeat	Run1	repeat/STIM_012.jpg
860.13	0.714	correct	repeat	Run1	repeat/STIM_012.jpg
863.3	0.539	correct	repeat	Run1	repeat/STIM_012.jpg
867.286	0.721	correct	repeat	Run1	repeat/STIM_013.jpg
870.371	1.021	correct	repeat	Run1	repeat/STIM_013.jpg
874.483	0.553	correct	repeat	Run1	repeat/STIM_013.jpg
877.618	0.698	correct	repeat	Run1	repeat/STIM_013.jpg
881.961	0.963	correct	repeat	Run1	repeat/STIM_013.jpg
885.285	0.685	correct	repeat	Run1	repeat/STIM_014.jpg
889.229	0.925	correct	repeat	Run1	repeat/STIM_014.jpg
892.241	0.875	correct	repeat	Run1	repeat/STIM_014.jpg
895.134	0.928	correct	repeat	Run1	repeat/STIM_014.jpg
899.815	0.706	correct	repeat	Run1	repeat/STIM_014.jpg
903.882	1.417	correct	generate	Run2	generate/STIM_000.jpg
909.128	1.241	correct	generate	Run2	generate/STIM_000.jpg
912.478	1.474	correct	generate	Run2	generate/STIM_000.jpg
916.249	1.879	correct	generate	Run2	generate/STIM_000.jpg
921.99	0.954	correct	generate	Run2	generate/STIM_000.jpg
925.528	2.341	correct	generate	Run2	generate/STIM_001.jpg
930.449	1.789	correct	generate	Run2	generate/STIM_001.jpg
935.608	1.066	correct	generate	Run2	generate/STIM_001.jpg
938.768	2.063	correct	generate	Run2	generate/STIM_001.jpg
943.093	1.369	correct	generate	Run2	generate/STIM_001.jpg
947.202	2.607	correct	generate	Run2	generate/STIM_002.jpg
953.509	1.931	correct	generate	Run2	generate/STIM_002.jpg
958.421	1.582	correct	generate	Run2	generate/STIM_002.jpg
963.229	1.215	correct	generate	Run2	generate/STIM_002.jpg
966.943	1.399	correct	generate	Run2	generate/STIM_002.jpg
971.929	2.208	correct	generate	Run2	generate/STIM_003.jpg
976.95	1.314	correct	generate	Run2	generate/STIM_003.jpg
982.241	1.65	correct	generate	Run2	generate/STIM_003.jpg
987.352	1.799	correct	generate	Run2	generate/STIM_003.jpg
992.485	1.909	correct	generate	Run2	generate/STIM_003.jpg
998.286	1.567	correct	generate	Run2	generate/STIM_004.jpg
1003.825	2.21	correct	generate	Run2	generate/STIM_004.jpg
1008.702	1.334	correct	generate	Run2	generate/STIM_004.jpg
1012.718	1.329	correct	generate	Run2	generate/STIM_004.jpg
1017.45	0.999	correct	generate	Run2	generate/STIM_004.jpg
1021.872	2.053	correct	generate	Run2	generate/STIM_005.jpg
1027.536	1.546	correct	generate	Run2	generate/STIM_005.jpg
1031.257	1.07	correct	generate	Run2	generate/STIM_005.jpg
1035.486	1.684	correct	generate	Run2	generate/STIM_005.jpg
1039.38	1.756	correct	generate	Run2	generate/STIM_005.jpg
1044.497	1.149	correct	generate	Run2	generate/STIM_006.jpg
1048.083	1.018	correct	generate	Run2	generate/STIM_006.jpg
1052.762	1.673	correct	generate	Run2	generate/STIM_006.jpg
1057.04	1.295	correct	generate	Run2	generate/STIM_006.jpg
1061.662	0.908	correct	generate	Run2	generate/STIM_006.jpg
1065.344	2.029	correct	generate	Run2	generate/STIM_007.jpg
1070.053	2.485	correct	generate	Run2	generate/STIM_007.jpg
1075.88	1.114	correct	generate	Run2	generate/STIM_007.jpg
1079.253	1.322	correct	generate	Run2	generate/STIM_007.jpg
1084.526	1.082	correct	generate	Run2	generate/STIM_007.jpg
1089.054	1.553	correct	generate	Run2	generate/STIM_008.jpg
1092.821	2.162	correct	generate	Run2	generate/STIM_008.jpg
1098.821	1.569	correct	generate	Run2	generate/STIM_008.jpg
1102.537	1.221	correct	generate	Run2	generate/STIM_008.jpg
1107.474	1.851	correct	generate	Run2	generate/STIM_008.jpg
1112.953	1.706	correct	generate	Run2	generate/STIM_009.jpg
1117.984	2.149	correct	generate	Run2	generate/STIM_009.jpg
1123.17	1.408	correct	generate	Run2	generate/STIM_009.jpg
1128.384	1.526	correct	generate	Run2	generate/STIM_009.jpg
1131.965	1.009	correct	generate	Run2	generate/STIM_009.jpg
1136.731	1.944	correct	generate	Run2	generate/STIM_010.jpg
1140.777	2.44	correct	generate	Run2	generate/STIM_010.jpg
1146.275	1.333	correct	generate	Run2	generate/STIM_010.jpg
1150.226	1.124	correct	generate	Run2	generate/STIM_010.jpg
1153.494	2.097	correct	generate	Run2	generate/STIM_010.jpg
1158.428	1.984	correct	generate	Run2	generate/STIM_011.jpg
1163.703	1.75	correct	generate	Run2	generate/STIM_011.jpg
1167.711	1.66	correct	generate	Run2	generate/STIM_011.jpg
1171.487	1.015	correct	generate	Run2	generate/STIM_011.jpg
1176.473	1.719	correct	generate	Run2	generate/STIM_011.jpg
1181.441	2.574	correct	generate	Run2	generate/STIM_012.jpg
1186.526	2.448	correct	generate	Run2	generate/STIM_012.jpg
1192.362	1.462	correct	generate	Run2	generate/STIM_012.jpg
1197.688	1.219	correct	generate	Run2	generate/STIM_012.jpg
1201.232	2.175	correct	generate	Run2	generate/STIM_012.jpg
1205.931	1.864	correct	generate	Run2	generate/STIM_013.jpg
1211.331	1.652	correct	generate	Run2	generate/STIM_013.jpg
1216.164	1.398	correct	generate	Run2	generate/STIM_013.jpg
1220.215	1.958	correct	generate	Run2	generate/STIM_013.jpg
1224.912	1.95	incorrect	generate	Run2	generate/STIM_013.jpg
1229.501	2.662	correct	generate	Run2	generate/STIM_014.jpg
1235.345	2.345	correct	generate	Run2	generate/STIM_014.jpg
1241.428	1.715	correct	generate	Run2	generate/STIM_014.jpg
1247.046	1.241	correct	generate	Run2	generate/STIM_014.jpg
1251.723	1.755	correct	generate	Run2	generate/STIM_014.jpg
1255.558	1.971	correct	generate	Run2	generate/STIM_015.jpg
1260.995	1.654	correct	generate	Run2	generate/STIM_015.jpg
1265.982	2.0	correct	generate	Run2	generate/STIM_015.jpg
1270.991	1.72	correct	generate	Run2	generate/STIM_015.jpg
1274.915	2.085	correct	generate	Run2	generate/STIM_015.jpg
1279.879	1.365	correct	generate	Run2	generate/STIM_016.jpg
1284.648	1.573	correct	generate	Run2	generate/STIM_016.jpg
1288.329	1.72	correct	generate	Run2	generate/STIM_016.jpg
1293.141	1.338	correct	generate	Run2	generate/STIM_016.jpg
1297.626	0.999	correct	generate	Run2	generate/STIM_016.jpg
1302.075	1.542	correct	generate	Run2	generate/STIM_017.jpg
1306.389	1.381	correct	generate	Run2	generate/STIM_017.jpg
1310.278	1.126	correct	generate	Run2	generate/STIM_017.jpg
1313.792	1.599	correct	generate	Run2	generate/STIM_017.jpg
1317.872	1.052	correct	generate	Run2	generate/STIM_017.jpg
1321.107	2.275	correct	generate	Run2	generate/STIM_018.jpg
1326.271	2.206	correct	generate	Run2	generate/STIM_018.jpg
1331.15	1.732	correct	generate	Run2	generate/STIM_018.jpg
1334.893	1.757	correct	generate	Run2	generate/STIM_018.jpg
1338.867	1.338	correct	generate	Run2	generate/STIM_018.jpg
1342.596	2.586	correct	generate	Run2	generate/STIM_019.jpg
1348.55	1.589	correct	generate	Run2	generate/STIM_019.jpg
1354.074	0.976	correct	generate	Run2	generate/STIM_019.jpg
1357.823	1.966	correct	generate	Run2	generate/STIM_019.jpg
1363.15	2.031	correct	generate	Run2	generate/STIM_019.jpg
1367.744	1.817	correct	generate	Run2	generate/STIM_020.jpg
1372.473	2.042	correct	generate	Run2	generate/STIM_020.jpg
1376.834	1.931	correct	generate	Run2	generate/STIM_020.jpg
1382.326	0.951	correct	generate	Run2	generate/STIM_020.jpg
1386.244	1.196	correct	generate	Run2	generate/STIM_020.jpg
1390.754	2.275	correct	generate	Run2	generate/STIM_021.jpg
1396.578	2.177	correct	generate	Run2	generate/STIM_021.jpg
1402.276	1.839	correct	generate	Run2	generate/STIM_021.jpg
1406.528	1.9	correct	generate	Run2	generate/STIM_021.jpg
1411.676	2.137	correct	generate	Run2	generate/STIM_021.jpg
1417.697	1.809	correct	generate	Run2	generate/STIM_022.jpg
1422.044	2.457	correct	generate	Run2	generate/STIM_022.jpg
1427.177	2.13	correct	generate	Run2	generate/STIM_022.jpg
1431.417	1.839	correct	generate	Run2	generate/STIM_022.jpg
1435.429	1.092	correct	generate	Run2	generate/STIM_022.jpg
1439.572	1.442	correct	generate	Run2	generate/STIM_023.jpg
1444.489	2.16	correct	generate	Run2	generate/STIM_023.jpg
1450.503	1.501	correct	generate	Run2	generate/STIM_023.jpg
1455.769	0.905	correct	generate	Run2	generate/STIM_023.jpg
1460.399	1.243	correct	generate	Run2	generate/STIM_023.jpg
1464.149	1.73	correct	generate	Run2	generate/STIM_024.jpg
1468.917	1.879	correct	generate	Run2	generate/STIM_024.jpg
1473.585	1.95	correct	generate	Run2	generate/STIM_024.jpg
1477.869	1.391	correct	generate	Run2	generate/STIM_024.jpg
1481.614	1.344	correct	generate	Run2	generate/STIM_024.jpg
1485.592	0.537	correct	repeat	Run2	repeat/STIM_000.jpg
1490.127	0.987	correct	repeat	Run2	repeat/STIM_000.jpg
1494.771	1.017	correct	repeat	Run2	repeat/STIM_000.jpg
1499.355	0.78	correct	repeat	Run2	repeat/STIM_000.jpg
1502.535	0.832	correct	repeat	Run2	repeat/STIM_000.jpg
1505.55	0.906	correct	repeat	Run2	repeat/STIM_001.jpg
1509.092	0.785	correct	repeat	Run2	repeat/STIM_001.jpg
1511.977	0.995	correct	repeat	Run2	repeat/STIM_001.jpg
1515.753	0.953	correct	repeat	Run2	repeat/STIM_001.jpg
1519.143	0.596	correct	repeat	Run2	repeat/STIM_001.jpg
1522.508	0.608	correct	repeat	Run2	repeat/STIM_002.jpg
1525.587	0.553	correct	repeat	Run2	repeat/STIM_002.jpg
1529.96	0.95	correct	repeat	Run2	repeat/STIM_002.jpg
1534.627	0.618	correct	repeat	Run2	repeat/STIM_002.jpg
1537.607	0.557	correct	repeat	Run2	repeat/STIM_002.jpg
1541.418	0.984	correct	repeat	Run2	repeat/STIM_003.jpg
1546.081	0.948	correct	repeat	Run2	repeat/STIM_003.jpg
1549.034	1.039	correct	repeat	Run2	repeat/STIM_003.jpg
1552.117	0.627	correct	repeat	Run2	repeat/STIM_003.jpg
1554.9	0.78	correct	repeat	Run2	repeat/STIM_003.jpg
1559.5	0.988	correct	repeat	Run2	repeat/STIM_004.jpg
1563.254	0.963	correct	repeat	Run2	repeat/STIM_004.jpg
1566.543	0.815	correct	repeat	Run2	repeat/STIM_004.jpg
1570.018	0.563	correct	repeat	Run2	repeat/STIM_004.jpg
1574.007	0.532	correct	repeat	Run2	repeat/STIM_004.jpg
1576.826	0.537	correct	repeat	Run2	repeat/STIM_005.jpg
1580.671	0.722	correct	repeat	Run2	repeat/STIM_005.jpg
1585.388	0.917	correct	repeat	Run2	repeat/STIM_005.jpg
1588.768	0.851	correct	repeat	Run2	repeat/STIM_005.jpg
1592.092	0.546	correct	repeat	Run2	repeat/STIM_005.jpg
1595.627	0.698	correct	repeat	Run2	repeat/STIM_006.jpg
1600.178	0.652	correct	repeat	Run2	repeat/STIM_006.jpg
1603.43	0.922	correct	repeat	Run2	repeat/STIM_006.jpg
1606.358	0.988	correct	repeat	Run2	repeat/STIM_006.jpg
1611.096	0.853	correct	repeat	Run2	repeat/STIM_006.jpg
1614.538	1.052	correct	repeat	Run2	repeat/STIM_007.jpg
1619.008	0.794	correct	repeat	Run2	repeat/STIM_007.jpg
1622.149	0.796	correct	repeat	Run2	repeat/STIM_007.jpg
1626.369	0.635	correct	repeat	Run2	repeat/STIM_007.jpg
1629.921	0.668	correct	repeat	Run2	repeat/STIM_007.jpg
1632.688	0.845	correct	repeat	Run2	repeat/STIM_008.jpg
1636.32	0.657	correct	repeat	Run2	repeat/STIM_008.jpg
1640.304	0.679	correct	repeat	Run2	repeat/STIM_008.jpg
1643.05	0.588	correct	repeat	Run2	repeat/STIM_008.jpg
1646.359	1.038	correct	repeat	Run2	repeat/STIM_008.jpg
1649.46	0.995	correct	repeat	Run2	repeat/STIM_009.jpg
1654.116	0.619	correct	repeat	Run2	repeat/STIM_009.jpg
1657.05	1.0	correct	repeat	Run2	repeat/STIM_009.jpg
1660.957	0.709	correct	repeat	Run2	repeat/STIM_009.jpg
1663.885	0.626	correct	repeat	Run2	repeat/STIM_009.jpg
1666.554	0.685	correct	repeat	Run2	repeat/STIM_010.jpg
1669.316	0.664	correct	repeat	Run2	repeat/STIM_010.jpg
1673.434	0.959	correct	repeat	Run2	repeat/STIM_010.jpg
1677.417	0.974	correct	repeat	Run2	repeat/STIM_010.jpg
1681.279	0.964	correct	repeat	Run2	repeat/STIM_010.jpg
1686.134	0.941	correct	repeat	Run2	repeat/STIM_011.jpg
1689.433	0.951	correct	repeat	Run2	repeat/STIM_011.jpg
1693.361	0.569	correct	repeat	Run2	repeat/STIM_011.jpg
1697.667	0.718	correct	repeat	Run2	repeat/STIM_011.jpg
1700.873	1.022	correct	repeat	Run2	repeat/STIM_011.jpg
1704.479	0.622	correct	repeat	Run2	repeat/STIM_012.jpg
1708.521	0.72	correct	repeat	Run2	repeat/STIM_012.jpg
1712.915	0.626	incorrect	repeat	Run2	repeat/STIM_012.jpg
1715.615	0.541	correct	repeat	Run2	repeat/STIM_012.jpg
1718.815	1.015	correct	repeat	Run2	repeat/STIM_012.jpg
1721.947	0.72	correct	repeat	Run2	repeat/STIM_013.jpg
1725.271	0.777	correct	repeat	Run2	repeat/STIM_013.jpg
1729.339	0.895	correct	repeat	Run2	repeat/STIM_013.jpg
1732.765	0.814	correct	repeat	Run2	repeat/STIM_013.jpg
1736.028	0.768	correct	repeat	Run2	repeat/STIM_013.jpg
1740.452	0.874	correct	repeat	Run2	repeat/STIM_014.jpg
1745.092	0.932	correct	repeat	Run2	repeat/STIM_014.jpg
1748.07	0.925	correct	repeat	Run2	repeat/STIM_014.jpg
1752.617	0.983	correct	repeat	Run2	repeat/STIM_014.jpg
1755.752	0.712	correct	repeat	Run2	repeat/STIM_014.jpg
1759.182	2.018	correct	generate	Run3	generate/STIM_000.jpg
1763.43	2.061	correct	generate	Run3	generate/STIM_000.jpg
1767.717	1.226	correct	generate	Run3	generate/STIM_000.jpg
1771.426	1.826	correct	generate	Run3	generate/STIM_000.jpg
1775.632	1.926	correct	generate	Run3	generate/STIM_000.jpg
1780.015	1.799	correct	generate	Run3	generate/STIM_001.jpg
1784.136	0.898	correct	generate	Run3	generate/STIM_001.jpg
1787.439	1.977	correct	generate	Run3	generate/STIM_001.jpg
1791.419	0.966	correct	generate	Run3	generate/STIM_001.jpg
1795.288	1.886	correct	generate	Run3	generate/STIM_001.jpg
1801.056	1.462	correct	generate	Run3	generate/STIM_002.jpg
1805.794	1.479	correct	generate	Run3	generate/STIM_002.jpg
1810.828	0.89	correct	generate	Run3	generate/STIM_002.jpg
1815.008	1.06	correct	generate	Run3	generate/STIM_002.jpg
1819.263	0.932	correct	generate	Run3	generate/STIM_002.jpg
1823.839	1.072	correct	generate	Run3	generate/STIM_003.jpg
1828.182	1.516	correct	generate	Run3	generate/STIM_003.jpg
1833.536	1.785	correct	generate	Run3	generate/STIM_003.jpg
1839.262	0.906	correct	generate	Run3	generate/STIM_003.jpg
1842.348	1.584	correct	generate	Run3	generate/STIM_003.jpg
1847.682	1.877	correct	generate	Run3	generate/STIM_004.jpg
1851.708	2.173	correct	generate	Run3	generate/STIM_004.jpg
1856.826	1.079	correct	generate	Run3	generate/STIM_004.jpg
1860.358	2.077	correct	generate	Run3	generate/STIM_004.jpg
1865.966	2.013	correct	generate	Run3	generate/STIM_004.jpg
1870.589	1.832	correct	generate	Run3	generate/STIM_005.jpg
1874.583	1.668	correct	generate	Run3	generate/STIM_005.jpg
1879.732	1.862	correct	generate	Run3	generate/STIM_005.jpg
1883.847	1.74	correct	generate	Run3	generate/STIM_005.jpg
1889.463	2.112	correct	generate	Run3	generate/STIM_005.jpg
1895.499	0.993	correct	generate	Run3	generate/STIM_006.jpg
1898.583	1.578	correct	generate	Run3	generate/STIM_006.jpg
1903.466	1.386	correct	generate	Run3	generate/STIM_006.jpg
1908.127	1.688	correct	generate	Run3	generate/STIM_006.jpg
1912.081	1.834	correct	generate	Run3	generate/STIM_006.jpg
1915.978	1.172	correct	generate	Run3	generate/STIM_007.jpg
1919.741	1.458	correct	generate	Run3	generate/STIM_007.jpg
1924.872	2.058	correct	generate	Run3	generate/STIM_007.jpg
1930.805	0.99	correct	generate	Run3	generate/STIM_007.jpg
1935.043	1.924	correct	generate	Run3	generate/STIM_007.jpg
1939.52	1.806	correct	generate	Run3	generate/STIM_008.jpg
1944.014	1.578	correct	generate	Run3	generate/STIM_008.jpg
1949.489	1.575	correct	generate	Run3	generate/STIM_008.jpg
1953.518	0.95	correct	generate	Run3	generate/STIM_008.jpg
1957.285	1.418	correct	generate	Run3	generate/STIM_008.jpg
1960.896	1.428	correct	generate	Run3	generate/STIM_009.jpg
1964.949	2.082	correct	generate	Run3	generate/STIM_009.jpg
1970.313	1.605	correct	generate	Run3	generate/STIM_009.jpg
1974.259	1.304	correct	generate	Run3	generate/STIM_009.jpg
1979.406	2.112	correct	generate	Run3	generate/STIM_009.jpg
1983.521	1.204	correct	generate	Run3	generate/STIM_010.jpg
1987.132	1.049	correct	generate	Run3	generate/STIM_010.jpg
1991.969	1.231	correct	generate	Run3	generate/STIM_010.jpg
1996.866	1.68	correct	generate	Run3	generate/STIM_010.jpg
2001.583	1.731	correct	generate	Run3	generate/STIM_010.jpg
2006.648	1.089	correct	generate	Run3	generate/STIM_011.jpg
2009.98	1.838	correct	generate	Run3	generate/STIM_011.jpg
2015.744	1.891	correct	generate	Run3	generate/STIM_011.jpg
2020.824	1.446	correct	generate	Run3	generate/STIM_011.jpg
2024.353	1.916	correct	generate	Run3	generate/STIM_011.jpg
2029.166	1.588	correct	generate	Run3	generate/STIM_012.jpg
2033.692	1.122	correct	generate	Run3	generate/STIM_012.jpg
2037.182	0.975	correct	generate	Run3	generate/STIM_012.jpg
2040.961	1.69	correct	generate	Run3	generate/STIM_012.jpg
2044.782	1.42	correct	generate	Run3	generate/STIM_012.jpg
2049.384	2.042	correct	generate	Run3	generate/STIM_013.jpg
2054.89	1.794	correct	generate	Run3	generate/STIM_013.jpg
2060.439	1.107	correct	generate	Run3	generate/STIM_013.jpg
2064.394	1.153	correct	generate	Run3	generate/STIM_013.jpg
2069.165	1.048	correct	generate	Run3	generate/STIM_013.jpg
2074.083	1.681	correct	generate	Run3	generate/STIM_014.jpg
2078.103	1.173	correct	generate	Run3	generate/STIM_014.jpg
2082.074	2.193	correct	generate	Run3	generate/STIM_014.jpg
2087.376	1.287	correct	generate	Run3	generate/STIM_014.jpg
2090.678	1.324	correct	generate	Run3	generate/STIM_014.jpg
2095.633	0.899	correct	generate	Run3	generate/STIM_015.jpg
2099.538	0.974	correct	generate	Run3	generate/STIM_015.jpg
2103.844	0.931	correct	generate	Run3	generate/STIM_015.jpg
2108.075	1.565	correct	generate	Run3	generate/STIM_015.jpg
2113.557	1.59	correct	generate	Run3	generate/STIM_015.jpg
2118.619	0.909	correct	generate	Run3	generate/STIM_016.jpg
2123.278	1.672	correct	generate	Run3	generate/STIM_016.jpg
2127.607	1.698	correct	generate	Run3	generate/STIM_016.jpg
2131.404	1.48	correct	generate	Run3	generate/STIM_016.jpg
2135.653	2.118	correct	generate	Run3	generate/STIM_016.jpg
2140.63	1.682	correct	generate	Run3	generate/STIM_017.jpg
2145.544	0.899	correct	generate	Run3	generate/STIM_017.jpg
2150.249	0.934	correct	generate	Run3	generate/STIM_017.jpg
2155.103	1.647	correct	generate	Run3	generate/STIM_017.jpg
2160.627	0.942	correct	generate	Run3	generate/STIM_017.jpg
2165.533	1.196	correct	generate	Run3	generate/STIM_018.jpg
2169.413	1.592	correct	generate	Run3	generate/STIM_018.jpg
2174.894	1.281	incorrect	generate	Run3	generate/STIM_018.jpg
2179.306	1.946	correct	generate	Run3	generate/STIM_018.jpg
2184.416	0.982	correct	generate	Run3	generate/STIM_018.jpg
2188.137	1.089	correct	generate	Run3	generate/STIM_019.jpg
2192.847	2.005	correct	generate	Run3	generate/STIM_019.jpg
2197.63	2.16	correct	generate	Run3	generate/STIM_019.jpg
2203.45	2.19	correct	generate	Run3	generate/STIM_019.jpg
2209.209	1.589	correct	generate	Run3	generate/STIM_019.jpg
2213.775	2.09	correct	generate	Run3	generate/STIM_020.jpg
2218.445	2.004	correct	generate	Run3	generate/STIM_020.jpg
2223.36	1.064	correct	generate	Run3	generate/STIM_020.jpg
2227.28	1.951	correct	generate	Run3	generate/STIM_020.jpg
2231.235	1.844	correct	generate	Run3	generate/STIM_020.jpg
2235.833	1.092	correct	generate	Run3	generate/STIM_021.jpg
2239.38	1.29	correct	generate	Run3	generate/STIM_021.jpg
2242.73	1.766	correct	generate	Run3	generate/STIM_021.jpg
2246.874	1.377	correct	generate	Run3	generate/STIM_021.jpg
2251.89	1.57	correct	generate	Run3	generate/STIM_021.jpg
2256.146	1.686	correct	generate	Run3	generate/STIM_022.jpg
2260.971	1.275	correct	generate	Run3	generate/STIM_022.jpg
2265.394	1.496	correct	generate	Run3	generate/STIM_022.jpg
2269.498	2.109	correct	generate	Run3	generate/STIM_022.jpg
2274.625	0.932	correct	generate	Run3	generate/STIM_022.jpg
2279.265	1.419	correct	generate	Run3	generate/STIM_023.jpg
2282.967	1.58	correct	generate	Run3	generate/STIM_023.jpg
2287.516	1.576	correct	generate	Run3	generate/STIM_023.jpg
2291.222	1.814	correct	generate	Run3	generate/STIM_023.jpg
2295.965	1.7	correct	generate	Run3	generate/STIM_023.jpg
2301.508	1.208	incorrect	generate	Run3	generate/STIM_024.jpg
2305.364	2.122	correct	generate	Run3	generate/STIM_024.jpg
2309.497	1.797	correct	generate	Run3	generate/STIM_024.jpg
2313.478	1.744	correct	generate	Run3	generate/STIM_024.jpg
2317.759	1.152	correct	generate	Run3	generate/STIM_024.jpg
2322.407	0.972	correct	repeat	Run3	repeat/STIM_000.jpg
2326.277	0.798	correct	repeat	Run3	repeat/STIM_000.jpg
2330.618	0.681	correct	repeat	Run3	repeat/STIM_000.jpg
2334.115	0.806	correct	repeat	Run3	repeat/STIM_000.jpg
2337.441	0.935	correct	repeat	Run3	repeat/STIM_000.jpg
2342.065	0.617	correct	repeat	Run3	repeat/STIM_001.jpg
2346.543	1.046	correct	repeat	Run3	repeat/STIM_001.jpg
2349.676	0.76	correct	repeat	Run3	repeat/STIM_001.jpg
2352.679	0.891	correct	repeat	Run3	repeat/STIM_001.jpg
2356.61	0.539	correct	repeat	Run3	repeat/STIM_001.jpg
2360.268	1.007	correct	repeat	Run3	repeat/STIM_002.jpg
2363.303	0.691	correct	repeat	Run3	repeat/STIM_002.jpg
2366.755	0.684	correct	repeat	Run3	repeat/STIM_002.jpg
2370.647	0.778	correct	repeat	Run3	repeat/STIM_002.jpg
2374.262	0.981	correct	repeat	Run3	repeat/STIM_002.jpg
2379.052	0.84	correct	repeat	Run3	repeat/STIM_003.jpg
2382.72	0.696	correct	repeat	Run3	repeat/STIM_003.jpg
2386.654	0.916	correct	repeat	Run3	repeat/STIM_003.jpg
2390.212	0.922	correct	repeat	Run3	repeat/STIM_003.jpg
2394.582	0.773	correct	repeat	Run3	repeat/STIM_003.jpg
2398.459	0.684	correct	repeat	Run3	repeat/STIM_004.jpg
2401.756	0.87	correct	repeat	Run3	repeat/STIM_004.jpg
2405.811	0.746	correct	repeat	Run3	repeat/STIM_004.jpg
2410.341	0.602	correct	repeat	Run3	repeat/STIM_004.jpg
2414.058	0.904	correct	repeat	Run3	repeat/STIM_004.jpg
2417.35	0.807	correct	repeat	Run3	repeat/STIM_005.jpg
2420.572	0.6	correct	repeat	Run3	repeat/STIM_005.jpg
2423.587	0.904	correct	repeat	Run3	repeat/STIM_005.jpg
2427.988	0.656	correct	repeat	Run3	repeat/STIM_005.jpg
2431.405	0.742	correct	repeat	Run3	repeat/STIM_005.jpg
2435.645	0.845	correct	repeat	Run3	repeat/STIM_006.jpg
2438.946	0.818	correct	repeat	Run3	repeat/STIM_006.jpg
2443.509	0.577	correct	repeat	Run3	repeat/STIM_006.jpg
2447.527	0.539	correct	repeat	Run3	repeat/STIM_006.jpg
2451.255	0.545	correct	repeat	Run3	repeat/STIM_006.jpg
2455.688	0.683	correct	repeat	Run3	repeat/STIM_007.jpg
2460.138	0.558	correct	repeat	Run3	repeat/STIM_007.jpg
2463.521	0.798	correct	repeat	Run3	repeat/STIM_007.jpg
2467.802	0.7	correct	repeat	Run3	repeat/STIM_007.jpg
2471.768	0.7	correct	repeat	Run3	repeat/STIM_007.jpg
2475.75	0.572	correct	repeat	Run3	repeat/STIM_008.jpg
2480.118	0.734	correct	repeat	Run3	repeat/STIM_008.jpg
2484.771	0.78	correct	repeat	Run3	repeat/STIM_008.jpg
2489.535	0.885	correct	repeat	Run3	repeat/STIM_008.jpg
2493.768	1.039	correct	repeat	Run3	repeat/STIM_008.jpg
2497.743	0.718	correct	repeat	Run3	repeat/STIM_009.jpg
2501.474	0.546	correct	repeat	Run3	repeat/STIM_009.jpg
2504.475	0.919	correct	repeat	Run3	repeat/STIM_009.jpg
2508.603	0.69	correct	repeat	Run3	repeat/STIM_009.jpg
2511.521	0.874	correct	repeat	Run3	repeat/STIM_009.jpg
2514.647	0.688	correct	repeat	Run3	repeat/STIM_010.jpg
2517.738	0.781	correct	repeat	Run3	repeat/STIM_010.jpg
2522.448	0.803	correct	repeat	Run3	repeat/STIM_010.jpg
2526.868	0.604	correct	repeat	Run3	repeat/STIM_010.jpg
2530.982	0.68	incorrect	repeat	Run3	repeat/STIM_010.jpg
2534.309	0.639	correct	repeat	Run3	repeat/STIM_011.jpg
2538.297	0.549	correct	repeat	Run3	repeat/STIM_011.jpg
2541.877	0.737	correct	repeat	Run3	repeat/STIM_011.jpg
2544.894	0.86	correct	repeat	Run3	repeat/STIM_011.jpg
2548.414	0.708	correct	repeat	Run3	repeat/STIM_011.jpg
2552.771	0.606	correct	repeat	Run3	repeat/STIM_012.jpg
2555.754	1.024	correct	repeat	Run3	repeat/STIM_012.jpg
2559.174	0.665	correct	repeat	Run3	repeat/STIM_012.jpg
2563.577	0.977	correct	repeat	Run3	repeat/STIM_012.jpg
2567.678	0.816	correct	repeat	Run3	repeat/STIM_012.jpg
2572.392	0.775	correct	repeat	Run3	repeat/STIM_013.jpg
2576.114	0.876	correct	repeat	Run3	repeat/STIM_013.jpg
2580.594	0.678	correct	repeat	Run3	repeat/STIM_013.jpg
2583.868	0.948	correct	repeat	Run3	repeat/STIM_013.jpg
2588.134	1.035	correct	repeat	Run3	repeat/STIM_013.jpg
2592.531	0.956	correct	repeat	Run3	repeat/STIM_014.jpg
2595.517	0.684	correct	repeat	Run3	repeat/STIM_014.jpg
2598.221	0.814	correct	repeat	Run3	repeat/STIM_014.jpg
2602.858	1.029	correct	repeat	Run3	repeat/STIM_014.jpg
2607.277	0.578	correct	repeat	Run3	repeat/STIM_014.jpg
2611.5	1.172	correct	generate	Run4	generate/STIM_000.jpg
2615.331	1.42	correct	generate	Run4	generate/STIM_000.jpg
2619.059	1.651	correct	generate	Run4	generate/STIM_000.jpg
2624.066	2.164	correct	generate	Run4	generate/STIM_000.jpg
2628.513	1.04	correct	generate	Run4	generate/STIM_000.jpg
2633.008	1.925	correct	generate	Run4	generate/STIM_001.jpg
2637.368	1.891	correct	generate	Run4	generate/STIM_001.jpg
2641.76	2.107	correct	generate	Run4	generate/STIM_001.jpg
2645.922	1.345	incorrect	generate	Run4	generate/STIM_001.jpg
2649.542	1.565	correct	generate	Run4	generate/STIM_001.jpg
2654.835	1.629	correct	generate	Run4	generate/STIM_002.jpg
2659.638	1.99	correct	generate	Run4	generate/STIM_002.jpg
2664.872	1.228	correct	generate	Run4	generate/STIM_002.jpg
2669.686	2.121	correct	generate	Run4	generate/STIM_002.jpg
2675.651	1.798	correct	generate	Run4	generate/STIM_002.jpg
2681.146	1.823	correct	generate	Run4	generate/STIM_003.jpg
2685.218	1.02	correct	generate	Run4	generate/STIM_003.jpg
2689.373	2.202	correct	generate	Run4	generate/STIM_003.jpg
2695.424	1.802	correct	generate	Run4	generate/STIM_003.jpg
2701.042	1.97	correct	generate	Run4	generate/STIM_003.jpg
2706.372	2.038	correct	generate	Run4	generate/STIM_004.jpg
2712.301	2.174	correct	generate	Run4	generate/STIM_004.jpg
2718.095	0.996	correct	generate	Run4	generate/STIM_004.jpg
2722.034	1.151	correct	generate	Run4	generate/STIM_004.jpg
2726.626	2.125	correct	generate	Run4	generate/STIM_004.jpg
2731.732	1.924	correct	generate	Run4	generate/STIM_005.jpg
2736.054	1.756	correct	generate	Run4	generate/STIM_005.jpg
2741.662	1.312	correct	generate	Run4	generate/STIM_005.jpg
2746.323	1.226	correct	generate	Run4	generate/STIM_005.jpg
2751.32	1.235	correct	generate	Run4	generate/STIM_005.jpg
2754.915	1.377	correct	generate	Run4	generate/STIM_006.jpg
2759.559	2.054	correct	generate	Run4	generate/STIM_006.jpg
2764.443	1.47	correct	generate	Run4	generate/STIM_006.jpg
2768.666	1.336	correct	generate	Run4	generate/STIM_006.jpg
2772.648	1.327	correct	generate	Run4	generate/STIM_006.jpg
2777.83	0.979	correct	generate	Run4	generate/STIM_007.jpg
2781.836	2.128	correct	generate	Run4	generate/STIM_007.jpg
2786.209	1.261	correct	generate	Run4	generate/STIM_007.jpg
2789.927	1.965	incorrect	generate	Run4	generate/STIM_007.jpg
2795.534	1.174	correct	generate	Run4	generate/STIM_007.jpg
2799.972	1.959	correct	generate	Run4	generate/STIM_008.jpg
2804.491	1.75	correct	generate	Run4	generate/STIM_008.jpg
2808.478	1.289	correct	generate	Run4	generate/STIM_008.jpg
2812.303	0.94	correct	generate	Run4	generate/STIM_008.jpg
2817.18	1.1	correct	generate	Run4	generate/STIM_008.jpg
2820.628	1.814	correct	generate	Run4	generate/STIM_009.jpg
2825.209	1.75	correct	generate	Run4	generate/STIM_009.jpg
2830.391	1.06	correct	generate	Run4	generate/STIM_009.jpg
2835.289	1.25	correct	generate	Run4	generate/STIM_009.jpg
2839.666	1.172	correct	generate	Run4	generate/STIM_009.jpg
2844.703	1.269	correct	generate	Run4	generate/STIM_010.jpg
2848.945	1.545	correct	generate	Run4	generate/STIM_010.jpg
2854.095	0.909	correct	generate	Run4	generate/STIM_010.jpg
2858.392	1.151	correct	generate	Run4	generate/STIM_010.jpg
2861.612	1.768	correct	generate	Run4	generate/STIM_010.jpg
2865.575	2.059	correct	generate	Run4	generate/STIM_011.jpg
2870.762	1.267	correct	generate	Run4	generate/STIM_011.jpg
2875.092	1.076	correct	generate	Run4	generate/STIM_011.jpg
2879.064	0.958	correct	generate	Run4	generate/STIM_011.jpg
2882.503	1.364	correct	generate	Run4	generate/STIM_011.jpg
2886.549	2.069	correct	generate	Run4	generate/STIM_012.jpg
2892.02	1.703	correct	generate	Run4	generate/STIM_012.jpg
2895.735	1.836	correct	generate	Run4	generate/STIM_012.jpg
2899.663	1.176	correct	generate	Run4	generate/STIM_012.jpg
2903.748	1.759	correct	generate	Run4	generate/STIM_012.jpg
2907.644	1.416	correct	generate	Run4	generate/STIM_013.jpg
2911.776	0.924	correct	generate	Run4	generate/STIM_013.jpg
2915.058	2.044	correct	generate	Run4	generate/STIM_013.jpg
2920.825	1.803	correct	generate	Run4	generate/STIM_013.jpg
2925.03	0.931	correct	generate	Run4	generate/STIM_013.jpg
2928.031	1.469	correct	generate	Run4	generate/STIM_014.jpg
2933.258	1.216	correct	generate	Run4	generate/STIM_014.jpg
2936.496	1.14	correct	generate	Run4	generate/STIM_014.jpg
2940.605	2.064	correct	generate	Run4	generate/STIM_014.jpg
2946.485	1.539	correct	generate	Run4	generate/STIM_014.jpg
2951.167	1.632	correct	generate	Run4	generate/STIM_015.jpg
2956.5	1.563	correct	generate	Run4	generate/STIM_015.jpg
2960.721	1.354	correct	generate	Run4	generate/STIM_015.jpg
2964.641	1.491	correct	generate	Run4	generate/STIM_015.jpg
2969.968	2.138	correct	generate	Run4	generate/STIM_015.jpg
2975.188	0.922	correct	generate	Run4	generate/STIM_016.jpg
2979.27	1.65	correct	generate	Run4	generate/STIM_016.jpg
2983.98	1.281	correct	generate	Run4	generate/STIM_016.jpg
2988.269	1.497	correct	generate	Run4	generate/STIM_016.jpg
2991.808	1.626	correct	generate	Run4	generate/STIM_016.jpg
2996.274	1.892	correct	generate	Run4	generate/STIM_017.jpg
3000.745	1.757	correct	generate	Run4	generate/STIM_017.jpg
3005.084	1.493	correct	generate	Run4	generate/STIM_017.jpg
3008.722	1.31	correct	generate	Run4	generate/STIM_017.jpg
3012.223	1.342	correct	generate	Run4	generate/STIM_017.jpg
3017.561	1.155	correct	generate	Run4	generate/STIM_018.jpg
3021.35	1.83	correct	generate	Run4	generate/STIM_018.jpg
3025.263	1.17	correct	generate	Run4	generate/STIM_018.jpg
3028.544	2.046	correct	generate	Run4	generate/STIM_018.jpg
3033.748	2.1	incorrect	generate	Run4	generate/STIM_018.jpg
3039.535	1.753	correct	generate	Run4	generate/STIM_019.jpg
3043.974	1.306	correct	generate	Run4	generate/STIM_019.jpg
3048.692	1.492	correct	generate	Run4	generate/STIM_019.jpg
3052.295	2.005	correct	generate	Run4	generate/STIM_019.jpg
3058.266	1.852	correct	generate	Run4	generate/STIM_019.jpg
3063.975	0.955	correct	generate	Run4	generate/STIM_020.jpg
3068.335	2.106	correct	generate	Run4	generate/STIM_020.jpg
3074.1	1.079	correct	generate	Run4	generate/STIM_020.jpg
3078.738	1.387	correct	generate	Run4	generate/STIM_020.jpg
3082.649	1.143	correct	generate	Run4	generate/STIM_020.jpg
3085.993	1.774	correct	generate	Run4	generate/STIM_021.jpg
3089.77	1.888	correct	generate	Run4	generate/STIM_021.jpg
3093.735	1.076	correct	generate	Run4	generate/STIM_021.jpg
3097.83	0.976	correct	generate	Run4	generate/STIM_021.jpg
3102.766	1.742	correct	generate	Run4	generate/STIM_021.jpg
3107.663	0.968	correct	generate	Run4	generate/STIM_022.jpg
3111.195	1.242	correct	generate	Run4	generate/STIM_022.jpg
3114.61	0.917	correct	generate	Run4	generate/STIM_022.jpg
3118.358	1.604	correct	generate	Run4	generate/STIM_022.jpg
3123.193	0.962	correct	generate	Run4	generate/STIM_022.jpg
3127.481	1.552	correct	generate	Run4	generate/STIM_023.jpg
3132.287	2.173	correct	generate	Run4	generate/STIM_023.jpg
3138.372	2.095	correct	generate	Run4	generate/STIM_023.jpg
3142.747	1.385	correct	generate	Run4	generate/STIM_023.jpg
3146.728	0.92	correct	generate	Run4	generate/STIM_023.jpg
3150.468	1.885	incorrect	generate	Run4	generate/STIM_024.jpg
3154.643	1.059	correct	generate	Run4	generate/STIM_024.jpg
3158.022	1.357	correct	generate	Run4	generate/STIM_024.jpg
3162.021	1.66	correct	generate	Run4	generate/STIM_024.jpg
3167.086	1.854	correct	generate	Run4	generate/STIM_024.jpg
3172.808	0.823	correct	repeat	Run4	repeat/STIM_000.jpg
3177.344	0.545	correct	repeat	Run4	repeat/STIM_000.jpg
3181.844	1.044	incorrect	repeat	Run4	repeat/STIM_000.jpg
3186.201	1.032	correct	repeat	Run4	repeat/STIM_000.jpg
3190.757	0.98	correct	repeat	Run4	repeat/STIM_000.jpg
3195.201	0.721	correct	repeat	Run4	repeat/STIM_001.jpg
3198.139	0.77	correct	repeat	Run4	repeat/STIM_001.jpg
3201.257	0.547	correct	repeat	Run4	repeat/STIM_001.jpg
3204.061	0.777	correct	repeat	Run4	repeat/STIM_001.jpg
3208.263	0.603	correct	repeat	Run4	repeat/STIM_001.jpg
3212.403	0.71	correct	repeat	Run4	repeat/STIM_002.jpg
3216.828	0.714	correct	repeat	Run4	repeat/STIM_002.jpg
3220.876	0.979	correct	repeat	Run4	repeat/STIM_002.jpg
3225.34	0.94	correct	repeat	Run4	repeat/STIM_002.jpg
3230.024	0.814	correct	repeat	Run4	repeat/STIM_002.jpg
3234.363	0.736	correct	repeat	Run4	repeat/STIM_003.jpg
3237.506	1.02	correct	repeat	Run4	repeat/STIM_003.jpg
3241.577	0.8	correct	repeat	Run4	repeat/STIM_003.jpg
3244.444	1.022	correct	repeat	Run4	repeat/STIM_003.jpg
3249.12	0.638	correct	repeat	Run4	repeat/STIM_003.jpg
3251.93	0.885	correct	repeat	Run4	repeat/STIM_004.jpg
3255.211	0.671	correct	repeat	Run4	repeat/STIM_004.jpg
3259.185	0.836	correct	repeat	Run4	repeat/STIM_004.jpg
3263.785	0.623	correct	repeat	Run4	repeat/STIM_004.jpg
3267.874	0.537	correct	repeat	Run4	repeat/STIM_004.jpg
3272.062	0.692	correct	repeat	Run4	repeat/STIM_005.jpg
3274.97	0.757	correct	repeat	Run4	repeat/STIM_005.jpg
3279.657	1.033	correct	repeat	Run4	repeat/STIM_005.jpg
3282.916	0.552	correct	repeat	Run4	repeat/STIM_005.jpg
3285.833	1.0	correct	repeat	Run4	repeat/STIM_005.jpg
3290.165	0.843	correct	repeat	Run4	repeat/STIM_006.jpg
3294.093	0.541	correct	repeat	Run4	repeat/STIM_006.jpg
3298.56	0.973	correct	repeat	Run4	repeat/STIM_006.jpg
3302.956	0.652	correct	repeat	Run4	repeat/STIM_006.jpg
3307.551	0.754	correct	repeat	Run4	repeat/STIM_006.jpg
3311.447	0.712	correct	repeat	Run4	repeat/STIM_007.jpg
3314.59	0.597	correct	repeat	Run4	repeat/STIM_007.jpg
3319.175	0.562	correct	repeat	Run4	repeat/STIM_007.jpg
3322.97	0.685	correct	repeat	Run4	repeat/STIM_007.jpg
3327.29	0.658	correct	repeat	Run4	repeat/STIM_007.jpg
3330.791	0.753	correct	repeat	Run4	repeat/STIM_008.jpg
3334.984	0.929	correct	repeat	Run4	repeat/STIM_008.jpg
3339.181	0.533	correct	repeat	Run4	repeat/STIM_008.jpg
3343.322	0.73	correct	repeat	Run4	repeat/STIM_008.jpg
3346.269	0.873	correct	repeat	Run4	repeat/STIM_008.jpg
3350.197	0.933	correct	repeat	Run4	repeat/STIM_009.jpg
3353.701	0.64	correct	repeat	Run4	repeat/STIM_009.jpg
3358.298	0.65	correct	repeat	Run4	repeat/STIM_009.jpg
3361.295	0.543	correct	repeat	Run4	repeat/STIM_009.jpg
3364.117	0.617	correct	repeat	Run4	repeat/STIM_009.jpg
3367.836	0.665	correct	repeat	Run4	repeat/STIM_010.jpg
3370.84	1.035	correct	repeat	Run4	repeat/STIM_010.jpg
3375.78	0.878	correct	repeat	Run4	repeat/STIM_010.jpg
3379.733	0.57	correct	repeat	Run4	repeat/STIM_010.jpg
3384.173	0.729	correct	repeat	Run4	repeat/STIM_010.jpg
3387.844	0.952	correct	repeat	Run4	repeat/STIM_011.jpg
3390.878	0.972	correct	repeat	Run4	repeat/STIM_011.jpg
3395.503	0.696	correct	repeat	Run4	repeat/STIM_011.jpg
3399.002	0.893	correct	repeat	Run4	repeat/STIM_011.jpg
3402.066	0.841	correct	repeat	Run4	repeat/STIM_011.jpg
3405.948	0.668	correct	repeat	Run4	repeat/STIM_012.jpg
3410.303	0.878	correct	repeat	Run4	repeat/STIM_012.jpg
3414.722	0.842	correct	repeat	Run4	repeat/STIM_012.jpg
3418.303	0.786	correct	repeat	Run4	repeat/STIM_012.jpg
3422.621	0.939	correct	repeat	Run4	repeat/STIM_012.jpg
3427.119	0.551	correct	repeat	Run4	repeat/STIM_013.jpg
3430.076	0.534	correct	repeat	Run4	repeat/STIM_013.jpg
3434.555	0.63	correct	repeat	Run4	repeat/STIM_013.jpg
3438.882	1.053	correct	repeat	Run4	repeat/STIM_013.jpg
3443.139	0.537	correct	repeat	Run4	repeat/STIM_013.jpg
3446.413	0.912	correct	repeat	Run4	repeat/STIM_014.jpg
3450.725	0.564	correct	repeat	Run4	repeat/STIM_014.jpg
3453.529	0.889	correct	repeat	Run4	repeat/STIM_014.jpg
3457.666	0.638	correct	repeat	Run4	repeat/STIM_014.jpg
3460.884	0.935	correct	repeat	Run4	repeat/STIM_014.jpg
