onset	duration	accuracy	trial_type	learning_stage	stimulus
0.0	1.172	correct	generate	Run1	generate/STIM_000.jpg
4.931	1.44	incorrect	generate	Run1	generate/STIM_000.jpg
9.84	1.758	correct	generate	Run1	generate/STIM_000.jpg
15.156	1.124	correct	generate	Run1	generate/STIM_000.jpg
20.041	1.074	incorrect	generate	Run1	generate/STIM_000.jpg
24.877	1.83	correct	generate	Run1	generate/STIM_001.jpg
29.096	1.58	correct	generate	Run1	generate/STIM_001.jpg
34.273	1.479	incorrect	generate	Run1	generate/STIM_001.jpg
38.271	1.991	correct	generate	Run1	generate/STIM_001.jpg
44.009	0.872	correct	generate	Run1	generate/STIM_001.jpg
47.073	1.124	incorrect	generate	Run1	generate/STIM_002.jpg
50.616	1.092	correct	generate	Run1	generate/STIM_002.jpg
54.813	1.007	correct	generate	Run1	generate/STIM_002.jpg
59.648	0.988	correct	generate	Run1	generate/STIM_002.jpg
62.915	0.991	incorrect	generate	Run1	generate/STIM_002.jpg
66.724	2.315	correct	generate	Run1	generate/STIM_003.jpg
72.565	1.666	correct	generate	Run1	generate/STIM_003.jpg
77.351	1.412	correct	generate	Run1	generate/STIM_003.jpg
82.323	1.953	correct	generate	Run1	generate/STIM_003.jpg
87.115	0.919	incorrect	generate	Run1	generate/STIM_003.jpg
90.337	2.188	correct	generate	Run1	generate/STIM_004.jpg
96.263	2.055	correct	generate	Run1	generate/STIM_004.jpg
101.29	2.01	correct	generate	Run1	generate/STIM_004.jpg
107.134	1.842	incorrect	generate	Run1	generate/STIM_004.jpg
112.863	1.884	correct	generate	Run1	generate/STIM_004.jpg
118.491	1.483	correct	generate	Run1	generate/STIM_005.jpg
122.511	2.464	incorrect	generate	Run1	generate/STIM_005.jpg
127.819	1.802	correct	generate	Run1	generate/STIM_005.jpg
133.411	1.848	correct	generate	Run1	generate/STIM_005.jpg
138.511	1.883	correct	generate	Run1	generate/STIM_005.jpg
144.289	1.475	correct	generate	Run1	generate/STIM_006.jpg
149.37	1.308	incorrect	generate	Run1	generate/STIM_006.jpg
153.026	1.757	incorrect	generate	Run1	generate/STIM_006.jpg
157.415	1.766	incorrect	generate	Run1	generate/STIM_006.jpg
162.46	1.999	correct	generate	Run1	generate/STIM_006.jpg
167.072	1.571	incorrect	generate	Run1	generate/STIM_007.jpg
172.364	1.743	correct	generate	Run1	generate/STIM_007.jpg
177.152	1.783	correct	generate	Run1	generate/STIM_007.jpg
182.301	1.115	correct	generate	Run1	generate/STIM_007.jpg
185.667	1.133	incorrect	generate	Run1	generate/STIM_007.jpg
189.142	2.429	correct	generate	Run1	generate/STIM_008.jpg
194.553	1.166	incorrect	generate	Run1	generate/STIM_008.jpg
197.964	1.942	correct	generate	Run1	generate/STIM_008.jpg
202.425	1.037	incorrect	generate	Run1	generate/STIM_008.jpg
207.574	1.944	correct	generate	Run1	generate/STIM_008.jpg
213.265	1.956	correct	generate	Run1	generate/STIM_009.jpg
218.63	1.288	correct	generate	Run1	generate/STIM_009.jpg
222.119	1.545	correct	generate	Run1	generate/STIM_009.jpg
226.454	1.219	correct	generate	Run1	generate/STIM_009.jpg
229.899	0.972	incorrect	generate	Run1	generate/STIM_009.jpg
233.187	2.575	correct	generate	Run1	generate/STIM_010.jpg
239.678	1.631	correct	generate	Run1	generate/STIM_010.jpg
244.963	1.576	correct	generate	Run1	generate/STIM_010.jpg
249.789	1.839	correct	generate	Run1	generate/STIM_010.jpg
254.09	0.882	correct	generate	Run1	generate/STIM_010.jpg
258.693	2.437	correct	generate	Run1	generate/STIM_011.jpg
265.493	2.337	correct	generate	Run1	generate/STIM_011.jpg
271.1	1.914	correct	generate	Run1	generate/STIM_011.jpg
275.864	2.021	correct	generate	Run1	generate/STIM_011.jpg
280.947	1.612	correct	generate	Run1	generate/STIM_011.jpg
284.907	1.138	correct	generate	Run1	generate/STIM_012.jpg
288.285	2.051	correct	generate	Run1	generate/STIM_012.jpg
293.078	1.589	correct	generate	Run1	generate/STIM_012.jpg
298.831	0.986	correct	generate	Run1	generate/STIM_012.jpg
303.211	1.068	correct	generate	Run1	generate/STIM_012.jpg
307.577	2.405	correct	generate	Run1	generate/STIM_013.jpg
313.584	2.103	correct	generate	Run1	generate/STIM_013.jpg
318.413	1.902	incorrect	generate	Run1	generate/STIM_013.jpg
323.726	1.857	correct	generate	Run1	generate/STIM_013.jpg
328.168	1.658	correct	generate	Run1	generate/STIM_013.jpg
333.601	2.148	correct	generate	Run1	generate/STIM_014.jpg
340.032	1.479	correct	generate	Run1	generate/STIM_014.jpg
343.864	2.125	correct	generate	Run1	generate/STIM_014.jpg
349.836	1.347	correct	generate	Run1	generate/STIM_014.jpg
354.384	1.764	correct	generate	Run1	generate/STIM_014.jpg
360.05	1.998	correct	generate	Run1	generate/STIM_015.jpg
364.655	1.232	correct	generate	Run1	generate/STIM_015.jpg
369.526	1.214	correct	generate	Run1	generate/STIM_015.jpg
374.058	1.73	incorrect	generate	Run1	generate/STIM_015.jpg
379.151	1.796	correct	generate	Run1	generate/STIM_015.jpg
384.17	2.094	correct	generate	Run1	generate/STIM_016.jpg
390.096	1.577	incorrect	generate	Run1	generate/STIM_016.jpg
394.222	1.9	correct	generate	Run1	generate/STIM_016.jpg
399.642	1.519	correct	generate	Run1	generate/STIM_016.jpg
404.955	0.883	correct	generate	Run1	generate/STIM_016.jpg
409.886	1.971	correct	generate	Run1	generate/STIM_017.jpg
415.495	1.005	correct	generate	Run1	generate/STIM_017.jpg
420.418	1.404	incorrect	generate	Run1	generate/STIM_017.jpg
425.506	1.274	correct	generate	Run1	generate/STIM_017.jpg
430.386	1.246	correct	generate	Run1	generate/STIM_017.jpg
434.665	1.923	correct	generate	Run1	generate/STIM_018.jpg
439.451	1.976	correct	generate	Run1	generate/STIM_018.jpg
443.895	1.108	correct	generate	Run1	generate/STIM_018.jpg
448.898	1.223	correct	generate	Run1	generate/STIM_018.jpg
452.762	1.938	correct	generate	Run1	generate/STIM_018.jpg
457.451	1.352	correct	generate	Run1	generate/STIM_019.jpg
462.6	1.114	correct	generate	Run1	generate/STIM_019.jpg
466.049	1.818	incorrect	generate	Run1	generate/STIM_019.jpg
471.951	1.143	correct	generate	Run1	generate/STIM_019.jpg
475.442	1.65	incorrect	generate	Run1	generate/STIM_019.jpg
480.777	2.498	correct	generate	Run1	generate/STIM_020.jpg
487.393	1.436	incorrect	generate	Run1	generate/STIM_020.jpg
492.975	1.326	correct	generate	Run1	generate/STIM_020.jpg
498.083	1.774	correct	generate	Run1	generate/STIM_020.jpg
502.827	1.846	correct	generate	Run1	generate/STIM_020.jpg
508.474	1.831	correct	generate	Run1	generate/STIM_021.jpg
512.642	1.355	correct	generate	Run1	generate/STIM_021.jpg
516.849	1.778	correct	generate	Run1	generate/STIM_021.jpg
520.952	1.627	correct	generate	Run1	generate/STIM_021.jpg
525.368	1.389	correct	generate	Run1	generate/STIM_021.jpg
530.821	1.521	correct	generate	Run1	generate/STIM_022.jpg
535.733	2.041	correct	generate	Run1	generate/STIM_022.jpg
540.607	1.632	correct	generate	Run1	generate/STIM_022.jpg
546.3	1.163	correct	generate	Run1	generate/STIM_022.jpg
550.499	1.832	correct	generate	Run1	generate/STIM_022.jpg
555.409	2.043	correct	generate	Run1	generate/STIM_023.jpg
560.339	2.072	incorrect	generate	Run1	generate/STIM_023.jpg
565.515	2.244	correct	generate	Run1	generate/STIM_023.jpg
570.33	1.851	correct	generate	Run1	generate/STIM_023.jpg
576.012	1.565	incorrect	generate	Run1	generate/STIM_023.jpg
581.059	1.085	correct	generate	Run1	generate/STIM_024.jpg
585.034	2.457	incorrect	generate	Run1	generate/STIM_024.jpg
591.307	1.397	correct	generate	Run1	generate/STIM_024.jpg
595.175	1.013	correct	generate	Run1	generate/STIM_024.jpg
599.95	1.648	correct	generate	Run1	generate/STIM_024.jpg
604.318	0.646	correct	repeat	Run1	repeat/STIM_000.jpg
607.451	0.772	correct	repeat	Run1	repeat/STIM_000.jpg
611.295	0.779	correct	repeat	Run1	repeat/STIM_000.jpg
615.223	0.722	correct	repeat	Run1	repeat/STIM_000.jpg
618.4	0.843	correct	repeat	Run1	repeat/STIM_000.jpg
622.161	0.637	correct	repeat	Run1	repeat/STIM_001.jpg
625.493	0.554	correct	repeat	Run1	repeat/STIM_001.jpg
629.235	0.753	correct	repeat	Run1	repeat/STIM_001.jpg
632.485	0.459	incorrect	repeat	Run1	repeat/STIM_001.jpg
636.079	0.5	correct	repeat	Run1	repeat/STIM_001.jpg
639.145	0.83	correct	repeat	Run1	repeat/STIM_002.jpg
643.634	0.75	correct	repeat	Run1	repeat/STIM_002.jpg
647.71	0.637	correct	repeat	Run1	repeat/STIM_002.jpg
651.409	0.64	correct	repeat	Run1	repeat/STIM_002.jpg
654.533	0.567	correct	repeat	Run1	repeat/STIM_002.jpg
657.519	0.488	correct	repeat	Run1	repeat/STIM_003.jpg
661.211	0.746	correct	repeat	Run1	repeat/STIM_003.jpg
664.331	0.823	correct	repeat	Run1	repeat/STIM_003.jpg
669.096	0.677	correct	repeat	Run1	repeat/STIM_003.jpg
672.357	0.558	correct	repeat	Run1	repeat/STIM_003.jpg
675.381	0.791	correct	repeat	Run1	repeat/STIM_004.jpg
678.452	0.545	correct	repeat	Run1	repeat/STIM_004.jpg
682.821	0.488	correct	repeat	Run1	repeat/STIM_004.jpg
687.042	0.512	correct	repeat	Run1	repeat/STIM_004.jpg
691.312	0.635	correct	repeat	Run1	repeat/STIM_004.jpg
695.797	0.654	correct	repeat	Run1	repeat/STIM_005.jpg
698.829	0.684	correct	repeat	Run1	repeat/STIM_005.jpg
702.577	0.539	correct	repeat	Run1	repeat/STIM_005.jpg
706.086	0.67	correct	repeat	Run1	repeat/STIM_005.jpg
709.681	0.787	correct	repeat	Run1	repeat/STIM_005.jpg
714.178	0.66	correct	repeat	Run1	repeat/STIM_006.jpg
717.475	0.636	correct	repeat	Run1	repeat/STIM_006.jpg
720.994	0.795	correct	repeat	Run1	repeat/STIM_006.jpg
724.921	0.508	correct	repeat	Run1	repeat/STIM_006.jpg
727.948	0.454	correct	repeat	Run1	repeat/STIM_006.jpg
731.124	0.453	correct	repeat	Run1	repeat/STIM_007.jpg
734.222	0.829	correct	repeat	Run1	repeat/STIM_007.jpg
738.398	0.607	correct	repeat	Run1	repeat/STIM_007.jpg
742.099	0.588	correct	repeat	Run1	repeat/STIM_007.jpg
746.683	0.458	correct	repeat	Run1	repeat/STIM_007.jpg
750.172	0.511	correct	repeat	Run1	repeat/STIM_008.jpg
753.608	0.444	correct	repeat	Run1	repeat/STIM_008.jpg
757.698	0.595	correct	repeat	Run1	repeat/STIM_008.jpg
760.516	0.59	correct	repeat	Run1	repeat/STIM_008.jpg
764.171	0.491	correct	repeat	Run1	repeat/STIM_008.jpg
767.467	0.45	correct	repeat	Run1	repeat/STIM_009.jpg
770.213	0.786	correct	repeat	Run1	repeat/STIM_009.jpg
774.506	0.774	correct	repeat	Run1	repeat/STIM_009.jpg
777.847	0.788	correct	repeat	Run1	repeat/STIM_009.jpg
780.977	0.592	correct	repeat	Run1	repeat/STIM_009.jpg
785.295	0.814	correct	repeat	Run1	repeat/STIM_010.jpg
789.088	0.794	correct	repeat	Run1	repeat/STIM_010.jpg
793.543	0.553	correct	repeat	Run1	repeat/STIM_010.jpg
796.59	0.819	correct	repeat	Run1	repeat/STIM_010.jpg
800.081	0.475	correct	repeat	Run1	repeat/STIM_010.jpg
803.12	0.657	correct	repeat	Run1	repeat/STIM_011.jpg
807.204	0.849	correct	repeat	Run1	repeat/STIM_011.jpg
810.626	0.642	correct	repeat	Run1	repeat/STIM_011.jpg
813.749	0.501	incorrect	repeat	Run1	repeat/STIM_011.jpg
817.684	0.58	correct	repeat	Run1	repeat/STIM_011.jpg
821.833	0.632	correct	repeat	Run1	repeat/STIM_012.jpg
824.736	0.71	correct	repeat	Run1	repeat/STIM_012.jpg
828.976	0.491	correct	repeat	Run1	repeat/STIM_012.jpg
832.601	0.856	correct	repeat	Run1	repeat/STIM_012.jpg
836.906	0.785	correct	repeat	Run1	repeat/STIM_012.jpg
841.568	0.735	correct	repeat	Run1	repeat/STIM_013.jpg
845.842	0.494	correct	repeat	Run1	repeat/STIM_013.jpg
849.375	0.836	correct	repeat	Run1	repeat/STIM_013.jpg
852.892	0.744	correct	repeat	Run1	repeat/STIM_013.jpg
857.476	0.718	correct	repeat	Run1	repeat/STIM_013.jpg
862.11	0.806	correct	repeat	Run1	repeat/STIM_014.jpg
865.732	0.57	correct	repeat	Run1	repeat/STIM_014.jpg
870.262	0.721	correct	repeat	Run1	repeat/STIM_014.jpg
873.141	0.753	correct	repeat	Run1	repeat/STIM_014.jpg
877.936	0.579	correct	repeat	Run1	repeat/STIM_014.jpg
881.973	1.013	correct	generate	Run2	generate/STIM_000.jpg
885.307	1.982	correct	generate	Run2	generate/STIM_000.jpg
890.604	1.254	correct	generate	Run2	generate/STIM_000.jpg
895.766	1.475	correct	generate	Run2	generate/STIM_000.jpg
901.397	1.61	correct	generate	Run2	generate/STIM_000.jpg
906.695	1.76	correct	generate	Run2	generate/STIM_001.jpg
911.112	1.521	correct	generate	Run2	generate/STIM_001.jpg
916.211	0.97	correct	generate	Run2	generate/STIM_001.jpg
920.061	0.764	correct	generate	Run2	generate/STIM_001.jpg
924.583	0.823	correct	generate	Run2	generate/STIM_001.jpg
928.672	2.179	incorrect	generate	Run2	generate/STIM_002.jpg
933.362	1.802	correct	generate	Run2	generate/STIM_002.jpg
939.103	0.842	correct	generate	Run2	generate/STIM_002.jpg
943.056	1.526	correct	generate	Run2	generate/STIM_002.jpg
947.074	1.487	correct	generate	Run2	generate/STIM_002.jpg
951.971	1.037	correct	generate	Run2	generate/STIM_003.jpg
955.655	1.028	correct	generate	Run2	generate/STIM_003.jpg
959.167	1.638	correct	generate	Run2	generate/STIM_003.jpg
963.349	0.772	incorrect	generate	Run2	generate/STIM_003.jpg
966.743	1.284	correct	generate	Run2	generate/STIM_003.jpg
972.076	1.903	incorrect	generate	Run2	generate/STIM_004.jpg
978.103	1.184	correct	generate	Run2	generate/STIM_004.jpg
982.52	1.101	correct	generate	Run2	generate/STIM_004.jpg
986.015	1.772	incorrect	generate	Run2	generate/STIM_004.jpg
990.573	1.183	correct	generate	Run2	generate/STIM_004.jpg
995.623	2.075	correct	generate	Run2	generate/STIM_005.jpg
1001.392	1.416	correct	generate	Run2	generate/STIM_005.jpg
1006.324	1.735	incorrect	generate	Run2	generate/STIM_005.jpg
1010.989	1.656	correct	generate	Run2	generate/STIM_005.jpg
1016.169	1.194	correct	generate	Run2	generate/STIM_005.jpg
1020.13	2.066	correct	generate	Run2	generate/STIM_006.jpg
1024.543	1.809	correct	generate	Run2	generate/STIM_006.jpg
1029.47	1.937	correct	generate	Run2	generate/STIM_006.jpg
1034.358	1.43	correct	generate	Run2	generate/STIM_006.jpg
1039.87	0.882	correct	generate	Run2	generate/STIM_006.jpg
1044.495	1.948	correct	generate	Run2	generate/STIM_007.jpg
1050.004	1.42	correct	generate	Run2	generate/STIM_007.jpg
1055.369	1.388	correct	generate	Run2	generate/STIM_007.jpg
1060.673	1.112	correct	generate	Run2	generate/STIM_007.jpg
1064.201	0.784	correct	generate	Run2	generate/STIM_007.jpg
1068.1	1.052	correct	generate	Run2	generate/STIM_008.jpg
1072.27	1.752	correct	generate	Run2	generate/STIM_008.jpg
1077.382	0.862	correct	generate	Run2	generate/STIM_008.jpg
1080.553	1.332	incorrect	generate	Run2	generate/STIM_008.jpg
1085.867	1.285	correct	generate	Run2	generate/STIM_008.jpg
1089.917	1.263	correct	generate	Run2	generate/STIM_009.jpg
1093.551	1.894	correct	generate	Run2	generate/STIM_009.jpg
1098.42	1.822	correct	generate	Run2	generate/STIM_009.jpg
1103.438	1.479	correct	generate	Run2	generate/STIM_009.jpg
1107.387	1.761	correct	generate	Run2	generate/STIM_009.jpg
1113.203	2.097	correct	generate	Run2	generate/STIM_010.jpg
1119.417	0.984	correct	generate	Run2	generate/STIM_010.jpg
1123.833	1.087	correct	generate	Run2	generate/STIM_010.jpg
1127.473	1.025	correct	generate	Run2	generate/STIM_010.jpg
1131.485	0.777	correct	generate	Run2	generate/STIM_010.jpg
1134.74	1.572	correct	generate	Run2	generate/STIM_011.jpg
1138.669	1.051	correct	generate	Run2	generate/STIM_011.jpg
1143.088	1.419	correct	generate	Run2	generate/STIM_011.jpg
1147.717	1.545	correct	generate	Run2	generate/STIM_011.jpg
1152.883	1.193	correct	generate	Run2	generate/STIM_011.jpg
1157.475	1.173	correct	generate	Run2	generate/STIM_012.jpg
1160.873	1.914	correct	generate	Run2	generate/STIM_012.jpg
1166.024	0.841	correct	generate	Run2	generate/STIM_012.jpg
1169.388	0.965	correct	generate	Run2	generate/STIM_012.jpg
1174.366	1.744	correct	generate	Run2	generate/STIM_012.jpg
1178.992	1.918	correct	generate	Run2	generate/STIM_013.jpg
1183.444	1.474	correct	generate	Run2	generate/STIM_013.jpg
1188.875	1.451	correct	generate	Run2	generate/STIM_013.jpg
1194.312	1.786	correct	generate	Run2	generate/STIM_013.jpg
1198.664	0.833	incorrect	generate	Run2	generate/STIM_013.jpg
1203.119	0.988	correct	generate	Run2	generate/STIM_014.jpg
1208.193	1.449	correct	generate	Run2	generate/STIM_014.jpg
1213.739	1.935	correct	generate	Run2	generate/STIM_014.jpg
1218.796	0.889	correct	generate	Run2	generate/STIM_014.jpg
1221.922	1.414	incorrect	generate	Run2	generate/STIM_014.jpg
1226.496	1.373	correct	generate	Run2	generate/STIM_015.jpg
1230.683	1.908	correct	generate	Run2	generate/STIM_015.jpg
1235.05	0.943	correct	generate	Run2	generate/STIM_015.jpg
1238.468	1.443	correct	generate	Run2	generate/STIM_015.jpg
1243.025	1.481	correct	generate	Run2	generate/STIM_015.jpg
1246.945	0.91	correct	generate	Run2	generate/STIM_016.jpg
1251.117	1.998	correct	generate	Run2	generate/STIM_016.jpg
1257.412	0.84	correct	generate	Run2	generate/STIM_016.jpg
1260.937	1.365	correct	generate	Run2	generate/STIM_016.jpg
1265.97	1.603	correct	generate	Run2	generate/STIM_016.jpg
1271.812	1.912	incorrect	generate	Run2	generate/STIM_017.jpg
1277.485	1.661	correct	generate	Run2	generate/STIM_017.jpg
1283.178	1.038	incorrect	generate	Run2	generate/STIM_017.jpg
1286.846	0.769	correct	generate	Run2	generate/STIM_017.jpg
1290.768	0.939	correct	generate	Run2	generate/STIM_017.jpg
1293.855	2.172	correct	generate	Run2	generate/STIM_018.jpg
1299.048	1.357	correct	generate	Run2	generate/STIM_018.jpg
1303.398	0.981	correct	generate	Run2	generate/STIM_018.jpg
1308.169	1.023	incorrect	generate	Run2	generate/STIM_018.jpg
1311.582	1.146	incorrect	generate	Run2	generate/STIM_018.jpg
1316.706	0.916	correct	generate	Run2	generate/STIM_019.jpg
1319.855	1.167	incorrect	generate	Run2	generate/STIM_019.jpg
1324.166	0.888	incorrect	generate	Run2	generate/STIM_019.jpg
1328.011	1.182	correct	generate	Run2	generate/STIM_019.jpg
1332.418	1.524	correct	generate	Run2	generate/STIM_019.jpg
1336.78	1.558	incorrect	generate	Run2	generate/STIM_020.jpg
1342.557	1.672	correct	generate	Run2	generate/STIM_020.jpg
1347.906	1.628	correct	generate	Run2	generate/STIM_020.jpg
1353.048	0.749	correct	generate	Run2	generate/STIM_020.jpg
1357.449	0.794	correct	generate	Run2	generate/STIM_020.jpg
1361.668	1.317	correct	generate	Run2	generate/STIM_021.jpg
1365.817	1.516	correct	generate	Run2	generate/STIM_021.jpg
1369.692	1.301	correct	generate	Run2	generate/STIM_021.jpg
1374.939	1.686	correct	generate	Run2	generate/STIM_021.jpg
1379.462	1.609	correct	generate	Run2	generate/STIM_021.jpg
1384.376	1.401	correct	generate	Run2	generate/STIM_022.jpg
1389.008	1.769	incorrect	generate	Run2	generate/STIM_022.jpg
1393.376	1.865	correct	generate	Run2	generate/STIM_022.jpg
1398.598	1.294	correct	generate	Run2	generate/STIM_022.jpg
1402.463	1.78	correct	generate	Run2	generate/STIM_022.jpg
1408.081	1.982	correct	generate	Run2	generate/STIM_023.jpg
1413.454	1.263	correct	generate	Run2	generate/STIM_023.jpg
1418.016	1.86	correct	generate	Run2	generate/STIM_023.jpg
1423.535	0.749	correct	generate	Run2	generate/STIM_023.jpg
1428.376	1.374	correct	generate	Run2	generate/STIM_023.jpg
1432.802	1.926	correct	generate	Run2	generate/STIM_024.jpg
1437.867	1.027	incorrect	generate	Run2	generate/STIM_024.jpg
1442.147	1.929	correct	generate	Run2	generate/STIM_024.jpg
1446.417	1.596	correct	generate	Run2	generate/STIM_024.jpg
1451.501	1.17	correct	generate	Run2	generate/STIM_024.jpg
1456.422	0.735	correct	repeat	Run2	repeat/STIM_000.jpg
1459.806	0.466	correct	repeat	Run2	repeat/STIM_000.jpg
1463.295	0.849	correct	repeat	Run2	repeat/STIM_000.jpg
1466.521	0.581	correct	repeat	Run2	repeat/STIM_000.jpg
1469.876	0.638	correct	repeat	Run2	repeat/STIM_000.jpg
1473.153	0.68	correct	repeat	Run2	repeat/STIM_001.jpg
1476.257	0.68	correct	repeat	Run2	repeat/STIM_001.jpg
1479.697	0.7	correct	repeat	Run2	repeat/STIM_001.jpg
1484.153	0.524	correct	repeat	Run2	repeat/STIM_001.jpg
1487.333	0.509	correct	repeat	Run2	repeat/STIM_001.jpg
1491.235	0.613	correct	repeat	Run2	repeat/STIM_002.jpg
1495.138	0.631	correct	repeat	Run2	repeat/STIM_002.jpg
1499.186	0.469	correct	repeat	Run2	repeat/STIM_002.jpg
1502.437	0.732	correct	repeat	Run2	repeat/STIM_002.jpg
1505.895	0.728	correct	repeat	Run2	repeat/STIM_002.jpg
1510.521	0.666	correct	repeat	Run2	repeat/STIM_003.jpg
1515.122	0.51	correct	repeat	Run2	repeat/STIM_003.jpg
1518.224	0.638	correct	repeat	Run2	repeat/STIM_003.jpg
1521.464	0.506	correct	repeat	Run2	repeat/STIM_003.jpg
1525.928	0.706	correct	repeat	Run2	repeat/STIM_003.jpg
1530.503	0.58	correct	repeat	Run2	repeat/STIM_004.jpg
1533.179	0.545	correct	repeat	Run2	repeat/STIM_004.jpg
1537.113	0.68	correct	repeat	Run2	repeat/STIM_004.jpg
1540.118	0.493	correct	repeat	Run2	repeat/STIM_004.jpg
1544.534	0.479	correct	repeat	Run2	repeat/STIM_004.jpg
1547.929	0.553	correct	repeat	Run2	repeat/STIM_005.jpg
1552.002	0.506	correct	repeat	Run2	repeat/STIM_005.jpg
1554.775	0.467	correct	repeat	Run2	repeat/STIM_005.jpg
1559.092	0.506	correct	repeat	Run2	repeat/STIM_005.jpg
1563.267	0.544	correct	repeat	Run2	repeat/STIM_005.jpg
1567.411	0.47	correct	repeat	Run2	repeat/STIM_006.jpg
1570.116	0.571	correct	repeat	Run2	repeat/STIM_006.jpg
1573.304	0.546	correct	repeat	Run2	repeat/STIM_006.jpg
1577.736	0.754	correct	repeat	Run2	repeat/STIM_006.jpg
1581.931	0.703	correct	repeat	Run2	repeat/STIM_006.jpg
1586.234	0.6	correct	repeat	Run2	repeat/STIM_007.jpg
1590.633	0.443	correct	repeat	Run2	repeat/STIM_007.jpg
1594.245	0.85	correct	repeat	Run2	repeat/STIM_007.jpg
1597.354	0.513	correct	repeat	Run2	repeat/STIM_007.jpg
1600.45	0.651	correct	repeat	Run2	repeat/STIM_007.jpg
1603.407	0.833	correct	repeat	Run2	repeat/STIM_008.jpg
1606.374	0.499	correct	repeat	Run2	repeat/STIM_008.jpg
1610.54	0.778	correct	repeat	Run2	repeat/STIM_008.jpg
1614.309	0.585	incorrect	repeat	Run2	repeat/STIM_008.jpg
1618.279	0.812	correct	repeat	Run2	repeat/STIM_008.jpg
1622.68	0.652	correct	repeat	Run2	repeat/STIM_009.jpg
1625.456	0.458	correct	repeat	Run2	repeat/STIM_009.jpg
1627.998	0.645	correct	repeat	Run2	repeat/STIM_009.jpg
1632.349	0.658	correct	repeat	Run2	repeat/STIM_009.jpg
1636.589	0.708	correct	repeat	Run2	repeat/STIM_009.jpg
1639.67	0.505	correct	repeat	Run2	repeat/STIM_010.jpg
1642.541	0.626	correct	repeat	Run2	repeat/STIM_010.jpg
1645.854	0.616	correct	repeat	Run2	repeat/STIM_010.jpg
1648.715	0.459	correct	repeat	Run2	repeat/STIM_010.jpg
1651.595	0.604	correct	repeat	Run2	repeat/STIM_010.jpg
1655.479	0.788	correct	repeat	Run2	repeat/STIM_011.jpg
1660.368	0.714	correct	repeat	Run2	repeat/STIM_011.jpg
1663.831	0.57	correct	repeat	Run2	repeat/STIM_011.jpg
1668.14	0.461	correct	repeat	Run2	repeat/STIM_011.jpg
1672.612	0.819	correct	repeat	Run2	repeat/STIM_011.jpg
1675.782	0.843	correct	repeat	Run2	repeat/STIM_012.jpg
1679.699	0.809	correct	repeat	Run2	repeat/STIM_012.jpg
1683.244	0.762	incorrect	repeat	Run2	repeat/STIM_012.jpg
1687.425	0.706	correct	repeat	Run2	repeat/STIM_012.jpg
1691.379	0.454	correct	repeat	Run2	repeat/STIM_012.jpg
1695.859	0.544	incorrect	repeat	Run2	repeat/STIM_013.jpg
1698.757	0.639	correct	repeat	Run2	repeat/STIM_013.jpg
1702.766	0.757	correct	repeat	Run2	repeat/STIM_013.jpg
1706.276	0.837	correct	repeat	Run2	repeat/STIM_013.jpg
1710.166	0.671	correct	repeat	Run2	repeat/STIM_013.jpg
1714.39	0.607	correct	repeat	Run2	repeat/STIM_014.jpg
1718.123	0.464	correct	repeat	Run2	repeat/STIM_014.jpg
1722.614	0.596	correct	repeat	Run2	repeat/STIM_014.jpg
1725.96	0.496	correct	repeat	Run2	repeat/STIM_014.jpg
1728.54	0.743	correct	repeat	Run2	repeat/STIM_014.jpg
1732.437	1.222	correct	generate	Run3	generate/STIM_000.jpg
1736.823	1.605	correct	generate	Run3	generate/STIM_000.jpg
1740.838	1.678	correct	generate	Run3	generate/STIM_000.jpg
1746.228	1.462	correct	generate	Run3	generate/STIM_000.jpg
1751.067	1.519	correct	generate	Run3	generate/STIM_000.jpg
1755.979	0.849	correct	generate	Run3	generate/STIM_001.jpg
1759.149	1.234	correct	generate	Run3	generate/STIM_001.jpg
1764.189	1.456	correct	generate	Run3	generate/STIM_001.jpg
1768.117	1.395	correct	generate	Run3	generate/STIM_001.jpg
1771.972	1.264	correct	generate	Run3	generate/STIM_001.jpg
1775.995	1.515	correct	generate	Run3	generate/STIM_002.jpg
1780.058	0.81	correct	generate	Run3	generate/STIM_002.jpg
1783.426	1.562	correct	generate	Run3	generate/STIM_002.jpg
1788.531	0.97	correct	generate	Run3	generate/STIM_002.jpg
1793.341	1.407	correct	generate	Run3	generate/STIM_002.jpg
1797.268	0.878	correct	generate	Run3	generate/STIM_003.jpg
1800.755	0.846	correct	generate	Run3	generate/STIM_003.jpg
1805.09	1.56	correct	generate	Run3	generate/STIM_003.jpg
1810.829	1.044	correct	generate	Run3	generate/STIM_003.jpg
1814.106	1.416	correct	generate	Run3	generate/STIM_003.jpg
1819.441	0.847	correct	generate	Run3	generate/STIM_004.jpg
1824.003	1.698	correct	generate	Run3	generate/STIM_004.jpg
1829.455	1.594	correct	generate	Run3	generate/STIM_004.jpg
1833.419	1.516	correct	generate	Run3	generate/STIM_004.jpg
1838.419	1.729	correct	generate	Run3	generate/STIM_004.jpg
1844.35	1.76	correct	generate	Run3	generate/STIM_005.jpg
1848.959	1.683	correct	generate	Run3	generate/STIM_005.jpg
1852.99	1.382	correct	generate	Run3	generate/STIM_005.jpg
1857.415	1.033	correct	generate	Run3	generate/STIM_005.jpg
1860.815	0.785	correct	generate	Run3	generate/STIM_005.jpg
1865.102	1.434	correct	generate	Run3	generate/STIM_006.jpg
1868.884	0.88	correct	generate	Run3	generate/STIM_006.jpg
1873.25	0.799	correct	generate	Run3	generate/STIM_006.jpg
1876.429	0.992	correct	generate	Run3	generate/STIM_006.jpg
1879.757	0.785	correct	generate	Run3	generate/STIM_006.jpg
1883.755	1.53	correct	generate	Run3	generate/STIM_007.jpg
1889.428	1.696	incorrect	generate	Run3	generate/STIM_007.jpg
1895.237	1.175	correct	generate	Run3	generate/STIM_007.jpg
1898.959	1.175	correct	generate	Run3	generate/STIM_007.jpg
1904.166	1.627	incorrect	generate	Run3	generate/STIM_007.jpg
1908.194	1.23	correct	generate	Run3	generate/STIM_008.jpg
1912.922	1.679	correct	generate	Run3	generate/STIM_008.jpg
1917.282	0.925	correct	generate	Run3	generate/STIM_008.jpg
1921.826	1.374	correct	generate	Run3	generate/STIM_008.jpg
1926.949	0.885	correct	generate	Run3	generate/STIM_008.jpg
1930.225	1.332	correct	generate	Run3	generate/STIM_009.jpg
1934.427	1.758	correct	generate	Run3	generate/STIM_009.jpg
1938.644	1.383	correct	generate	Run3	generate/STIM_009.jpg
1943.635	1.312	correct	generate	Run3	generate/STIM_009.jpg
1947.961	1.696	correct	generate	Run3	generate/STIM_009.jpg
1952.339	0.899	correct	generate	Run3	generate/STIM_010.jpg
1957.007	1.038	correct	generate	Run3	generate/STIM_010.jpg
1960.813	1.659	correct	generate	Run3	generate/STIM_010.jpg
1964.828	1.124	correct	generate	Run3	generate/STIM_010.jpg
1969.467	1.484	correct	generate	Run3	generate/STIM_010.jpg
1974.76	0.903	incorrect	generate	Run3	generate/STIM_011.jpg
1978.731	1.674	correct	generate	Run3	generate/STIM_011.jpg
1984.163	0.798	correct	generate	Run3	generate/STIM_011.jpg
1989.035	1.152	incorrect	generate	Run3	generate/STIM_011.jpg
1992.552	1.413	correct	generate	Run3	generate/STIM_011.jpg
1996.586	0.888	correct	generate	Run3	generate/STIM_012.jpg
2000.545	1.565	correct	generate	Run3	generate/STIM_012.jpg
2005.562	1.572	incorrect	generate	Run3	generate/STIM_012.jpg
2009.883	1.11	correct	generate	Run3	generate/STIM_012.jpg
2014.869	1.053	correct	generate	Run3	generate/STIM_012.jpg
2019.973	1.651	incorrect	generate	Run3	generate/STIM_013.jpg
2024.794	0.886	correct	generate	Run3	generate/STIM_013.jpg
2027.936	1.127	correct	generate	Run3	generate/STIM_013.jpg
2031.343	1.239	correct	generate	Run3	generate/STIM_013.jpg
2035.898	0.755	correct	generate	Run3	generate/STIM_013.jpg
2038.831	1.794	correct	generate	Run3	generate/STIM_014.jpg
2043.565	1.38	correct	generate	Run3	generate/STIM_014.jpg
2049.018	1.787	correct	generate	Run3	generate/STIM_014.jpg
2053.455	1.408	correct	generate	Run3	generate/STIM_014.jpg
2057.68	0.838	correct	generate	Run3	generate/STIM_014.jpg
2061.588	0.887	correct	generate	Run3	generate/STIM_015.jpg
2064.929	1.266	correct	generate	Run3	generate/STIM_015.jpg
2069.628	1.762	correct	generate	Run3	generate/STIM_015.jpg
2075.642	1.468	correct	generate	Run3	generate/STIM_015.jpg
2080.781	0.766	correct	generate	Run3	generate/STIM_015.jpg
2084.351	1.709	correct	generate	Run3	generate/STIM_016.jpg
2090.043	1.014	incorrect	generate	Run3	generate/STIM_016.jpg
2093.321	1.788	correct	generate	Run3	generate/STIM_016.jpg
2097.453	1.239	correct	generate	Run3	generate/STIM_016.jpg
2101.052	1.619	correct	generate	Run3	generate/STIM_016.jpg
2106.023	1.261	correct	generate	Run3	generate/STIM_017.jpg
2109.842	1.471	correct	generate	Run3	generate/STIM_017.jpg
2115.537	1.165	correct	generate	Run3	generate/STIM_017.jpg
2119.37	1.748	correct	generate	Run3	generate/STIM_017.jpg
2124.63	0.934	correct	generate	Run3	generate/STIM_017.jpg
2127.971	0.816	correct	generate	Run3	generate/STIM_018.jpg
2131.11	0.911	correct	generate	Run3	generate/STIM_018.jpg
2134.595	0.802	incorrect	generate	Run3	generate/STIM_018.jpg
2138.099	1.387	correct	generate	Run3	generate/STIM_018.jpg
2143.308	1.118	correct	generate	Run3	generate/STIM_018.jpg
2147.543	1.67	correct	generate	Run3	generate/STIM_019.jpg
2152.7	1.019	correct	generate	Run3	generate/STIM_019.jpg
2156.731	1.059	correct	generate	Run3	generate/STIM_019.jpg
2161.275	1.408	incorrect	generate	Run3	generate/STIM_019.jpg
2164.944	1.32	correct	generate	Run3	generate/STIM_019.jpg
2168.516	1.486	correct	generate	Run3	generate/STIM_020.jpg
2173.409	1.103	correct	generate	Run3	generate/STIM_020.jpg
2176.898	1.044	correct	generate	Run3	generate/STIM_020.jpg
2181.228	0.885	correct	generate	Run3	generate/STIM_020.jpg
2184.971	0.805	correct	generate	Run3	generate/STIM_020.jpg
2189.841	1.455	correct	generate	Run3	generate/STIM_021.jpg
2194.11	0.937	correct	generate	Run3	generate/STIM_021.jpg
2197.406	0.797	correct	generate	Run3	generate/STIM_021.jpg
2202.13	0.94	correct	generate	Run3	generate/STIM_021.jpg
2207.171	1.495	correct	generate	Run3	generate/STIM_021.jpg
2211.119	1.809	correct	generate	Run3	generate/STIM_022.jpg
2215.389	0.767	correct	generate	Run3	generate/STIM_022.jpg
2218.544	1.646	correct	generate	Run3	generate/STIM_022.jpg
2222.892	1.548	correct	generate	Run3	generate/STIM_022.jpg
2228.595	1.772	correct	generate	Run3	generate/STIM_022.jpg
2232.661	1.514	correct	generate	Run3	generate/STIM_023.jpg
2238.115	1.107	correct	generate	Run3	generate/STIM_023.jpg
2243.235	1.662	incorrect	generate	Run3	generate/STIM_023.jpg
2248.106	1.003	correct	generate	Run3	generate/STIM_023.jpg
2251.335	1.423	correct	generate	Run3	generate/STIM_023.jpg
2256.742	1.31	incorrect	generate	Run3	generate/STIM_024.jpg
2261.278	1.056	incorrect	generate	Run3	generate/STIM_024.jpg
2265.898	0.985	correct	generate	Run3	generate/STIM_024.jpg
2269.133	0.806	correct	generate	Run3	generate/STIM_024.jpg
2272.865	1.313	correct	generate	Run3	generate/STIM_024.jpg
2277.916	0.719	correct	repeat	Run3	repeat/STIM_000.jpg
2282.343	0.666	correct	repeat	Run3	repeat/STIM_000.jpg
2286.774	0.516	correct	repeat	Run3	repeat/STIM_000.jpg
2290.941	0.473	correct	repeat	Run3	repeat/STIM_000.jpg
2295.255	0.764	correct	repeat	Run3	repeat/STIM_000.jpg
2299.932	0.667	correct	repeat	Run3	repeat/STIM_001.jpg
2304.323	0.68	correct	repeat	Run3	repeat/STIM_001.jpg
2309.038	0.822	correct	repeat	Run3	repeat/STIM_001.jpg
2313.908	0.692	incorrect	repeat	Run3	repeat/STIM_001.jpg
2316.768	0.694	correct	repeat	Run3	repeat/STIM_001.jpg
2320.359	0.848	correct	repeat	Run3	repeat/STIM_002.jpg
2324.899	0.517	correct	repeat	Run3	repeat/STIM_002.jpg
2328.311	0.719	correct	repeat	Run3	repeat/STIM_002.jpg
2331.716	0.838	correct	repeat	Run3	repeat/STIM_002.jpg
2334.936	0.472	correct	repeat	Run3	repeat/STIM_002.jpg
2337.936	0.859	correct	repeat	Run3	repeat/STIM_003.jpg
2342.45	0.451	correct	repeat	Run3	repeat/STIM_003.jpg
2345.483	0.539	correct	repeat	Run3	repeat/STIM_003.jpg
2348.235	0.612	correct	repeat	Run3	repeat/STIM_003.jpg
2352.267	0.697	correct	repeat	Run3	repeat/STIM_003.jpg
2356.658	0.563	correct	repeat	Run3	repeat/STIM_004.jpg
2360.395	0.639	correct	repeat	Run3	repeat/STIM_004.jpg
2363.659	0.771	correct	repeat	Run3	repeat/STIM_004.jpg
2368.177	0.844	correct	repeat	Run3	repeat/STIM_004.jpg
2372.445	0.613	correct	repeat	Run3	repeat/STIM_004.jpg
2376.69	0.743	correct	repeat	Run3	repeat/STIM_005.jpg
2380.661	0.719	correct	repeat	Run3	repeat/STIM_005.jpg
2384.382	0.561	correct	repeat	Run3	repeat/STIM_005.jpg
2388.041	0.482	correct	repeat	Run3	repeat/STIM_005.jpg
2391.379	0.737	correct	repeat	Run3	repeat/STIM_005.jpg
2394.537	0.624	correct	repeat	Run3	repeat/STIM_006.jpg
2398.794	0.814	correct	repeat	Run3	repeat/STIM_006.jpg
2403.556	0.761	correct	repeat	Run3	repeat/STIM_006.jpg
2408.015	0.79	incorrect	repeat	Run3	repeat/STIM_006.jpg
2411.315	0.49	correct	repeat	Run3	repeat/STIM_006.jpg
2413.967	0.475	correct	repeat	Run3	repeat/STIM_007.jpg
2417.373	0.739	correct	repeat	Run3	repeat/STIM_007.jpg
2421.55	0.732	correct	repeat	Run3	repeat/STIM_007.jpg
2426.376	0.626	correct	repeat	Run3	repeat/STIM_007.jpg
2431.052	0.757	correct	repeat	Run3	repeat/STIM_007.jpg
2434.592	0.689	correct	repeat	Run3	repeat/STIM_008.jpg
2438.67	0.693	correct	repeat	Run3	repeat/STIM_008.jpg
2442.043	0.473	correct	repeat	Run3	repeat/STIM_008.jpg
2445.742	0.566	correct	repeat	Run3	repeat/STIM_008.jpg
2450.346	0.598	correct	repeat	Run3	repeat/STIM_008.jpg
2453.595	0.455	correct	repeat	Run3	repeat/STIM_009.jpg
2456.689	0.791	correct	repeat	Run3	repeat/STIM_009.jpg
2461.449	0.433	correct	repeat	Run3	repeat/STIM_009.jpg
2465.667	0.748	correct	repeat	Run3	repeat/STIM_009.jpg
2469.798	0.637	correct	repeat	Run3	repeat/STIM_009.jpg
2472.712	0.735	correct	repeat	Run3	repeat/STIM_010.jpg
2475.9	0.717	correct	repeat	Run3	repeat/STIM_010.jpg
2479.902	0.522	correct	repeat	Run3	repeat/STIM_010.jpg
2483.552	0.441	correct	repeat	Run3	repeat/STIM_010.jpg
2486.166	0.607	incorrect	repeat	Run3	repeat/STIM_010.jpg
2489.415	0.761	correct	repeat	Run3	repeat/STIM_011.jpg
2493.669	0.742	correct	repeat	Run3	repeat/STIM_011.jpg
2497.835	0.622	correct	repeat	Run3	repeat/STIM_011.jpg
2502.007	0.853	correct	repeat	Run3	repeat/STIM_011.jpg
2506.641	0.648	correct	repeat	Run3	repeat/STIM_011.jpg
2511.101	0.574	correct	repeat	Run3	repeat/STIM_012.jpg
2514.542	0.785	correct	repeat	Run3	repeat/STIM_012.jpg
2519.427	0.735	correct	repeat	Run3	repeat/STIM_012.jpg
2522.851	0.736	correct	repeat	Run3	repeat/STIM_012.jpg
2527.469	0.634	correct	repeat	Run3	repeat/STIM_012.jpg
2530.779	0.439	correct	repeat	Run3	repeat/STIM_013.jpg
2535.036	0.522	correct	repeat	Run3	repeat/STIM_013.jpg
2537.817	0.595	correct	repeat	Run3	repeat/STIM_013.jpg
2540.707	0.8	correct	repeat	Run3	repeat/STIM_013.jpg
2544.915	0.526	correct	repeat	Run3	repeat/STIM_013.jpg
2549.126	0.525	correct	repeat	Run3	repeat/STIM_014.jpg
2551.823	0.591	correct	repeat	Run3	repeat/STIM_014.jpg
2555.629	0.57	correct	repeat	Run3	repeat/STIM_014.jpg
2558.293	0.728	correct	repeat	Run3	repeat/STIM_014.jpg
2562.866	0.684	correct	repeat	Run3	repeat/STIM_014.jpg
2567.383	1.42	correct	generate	Run4	generate/STIM_000.jpg
2572.108	1.554	correct	generate	Run4	generate/STIM_000.jpg
2577.402	1.166	correct	generate	Run4	generate/STIM_000.jpg
2582.292	1.228	correct	generate	Run4	generate/STIM_000.jpg
2586.151	1.383	correct	generate	Run4	generate/STIM_000.jpg
2590.822	0.828	correct	generate	Run4	generate/STIM_001.jpg
2595.632	1.067	correct	generate	Run4	generate/STIM_001.jpg
2599.329	1.747	correct	generate	Run4	generate/STIM_001.jpg
2604.582	1.738	incorrect	generate	Run4	generate/STIM_001.jpg
2608.784	0.847	correct	generate	Run4	generate/STIM_001.jpg
2613.759	1.373	correct	generate	Run4	generate/STIM_002.jpg
2617.579	1.319	correct	generate	Run4	generate/STIM_002.jpg
2621.266	1.074	correct	generate	Run4	generate/STIM_002.jpg
2625.514	1.105	correct	generate	Run4	generate/STIM_002.jpg
2629.672	0.879	correct	generate	Run4	generate/STIM_002.jpg
2634.322	1.324	incorrect	generate	Run4	generate/STIM_003.jpg
2638.355	0.914	correct	generate	Run4	generate/STIM_003.jpg
2642.811	0.75	correct	generate	Run4	generate/STIM_003.jpg
2645.691	0.881	correct	generate	Run4	generate/STIM_003.jpg
2649.844	0.908	correct	generate	Run4	generate/STIM_003.jpg
2654.215	1.252	correct	generate	Run4	generate/STIM_004.jpg
2659.525	1.122	correct	generate	Run4	generate/STIM_004.jpg
2662.835	1.552	correct	generate	Run4	generate/STIM_004.jpg
2667.051	1.811	correct	generate	Run4	generate/STIM_004.jpg
2672.471	1.146	correct	generate	Run4	generate/STIM_004.jpg
2677.455	0.917	correct	generate	Run4	generate/STIM_005.jpg
2682.154	1.529	correct	generate	Run4	generate/STIM_005.jpg
2686.446	1.068	incorrect	generate	Run4	generate/STIM_005.jpg
2690.098	1.354	correct	generate	Run4	generate/STIM_005.jpg
2694.4	1.335	correct	generate	Run4	generate/STIM_005.jpg
2699.873	1.061	correct	generate	Run4	generate/STIM_006.jpg
2703.616	1.273	correct	generate	Run4	generate/STIM_006.jpg
2709.006	0.929	correct	generate	Run4	generate/STIM_006.jpg
2713.071	1.158	correct	generate	Run4	generate/STIM_006.jpg
2717.846	1.745	correct	generate	Run4	generate/STIM_006.jpg
2723.206	1.179	correct	generate	Run4	generate/STIM_007.jpg
2726.573	0.821	correct	generate	Run4	generate/STIM_007.jpg
2731.463	0.95	correct	generate	Run4	generate/STIM_007.jpg
2735.149	1.308	incorrect	generate	Run4	generate/STIM_007.jpg
2739.915	1.565	correct	generate	Run4	generate/STIM_007.jpg
2744.512	1.721	correct	generate	Run4	generate/STIM_008.jpg
2749.974	1.152	correct	generate	Run4	generate/STIM_008.jpg
2754.071	1.546	correct	generate	Run4	generate/STIM_008.jpg
2758.93	1.075	correct	generate	Run4	generate/STIM_008.jpg
2762.686	0.941	correct	generate	Run4	generate/STIM_008.jpg
2766.698	1.024	correct	generate	Run4	generate/STIM_009.jpg
2770.995	1.676	correct	generate	Run4	generate/STIM_009.jpg
2775.873	1.655	correct	generate	Run4	generate/STIM_009.jpg
2781.582	1.79	correct	generate	Run4	generate/STIM_009.jpg
2785.697	1.393	correct	generate	Run4	generate/STIM_009.jpg
2790.402	1.335	correct	generate	Run4	generate/STIM_010.jpg
2795.655	1.554	correct	generate	Run4	generate/STIM_010.jpg
2801.148	1.226	correct	generate	Run4	generate/STIM_010.jpg
2804.927	1.577	correct	generate	Run4	generate/STIM_010.jpg
2809.431	0.856	correct	generate	Run4	generate/STIM_010.jpg
2813.453	1.763	correct	generate	Run4	generate/STIM_011.jpg
2819.42	0.863	correct	generate	Run4	generate/STIM_011.jpg
2822.774	1.159	correct	generate	Run4	generate/STIM_011.jpg
2827.757	1.119	correct	generate	Run4	generate/STIM_011.jpg
2831.554	1.361	correct	generate	Run4	generate/STIM_011.jpg
2836.741	1.675	incorrect	generate	Run4	generate/STIM_012.jpg
2841.936	1.518	correct	generate	Run4	generate/STIM_012.jpg
2847.577	1.35	correct	generate	Run4	generate/STIM_012.jpg
2852.161	1.481	correct	generate	Run4	generate/STIM_012.jpg
2856.958	1.396	correct	generate	Run4	generate/STIM_012.jpg
2861.857	0.988	incorrect	generate	Run4	generate/STIM_013.jpg
2866.337	1.752	correct	generate	Run4	generate/STIM_013.jpg
2870.658	1.29	correct	generate	Run4	generate/STIM_013.jpg
2874.73	1.302	correct	generate	Run4	generate/STIM_013.jpg
2878.902	1.348	correct	generate	Run4	generate/STIM_013.jpg
2882.568	0.938	correct	generate	Run4	generate/STIM_014.jpg
2887.165	1.07	correct	generate	Run4	generate/STIM_014.jpg
2891.852	1.199	correct	generate	Run4	generate/STIM_014.jpg
2895.26	1.57	correct	generate	Run4	generate/STIM_014.jpg
2899.476	1.334	correct	generate	Run4	generate/STIM_014.jpg
2903.018	1.442	correct	generate	Run4	generate/STIM_015.jpg
2907.294	1.702	incorrect	generate	Run4	generate/STIM_015.jpg
2912.625	1.066	correct	generate	Run4	generate/STIM_015.jpg
2917.093	1.702	correct	generate	Run4	generate/STIM_015.jpg
2922.67	1.735	correct	generate	Run4	generate/STIM_015.jpg
2927.727	1.302	correct	generate	Run4	generate/STIM_016.jpg
2932.972	1.601	correct	generate	Run4	generate/STIM_016.jpg
2938.086	1.633	correct	generate	Run4	generate/STIM_016.jpg
2943.785	1.719	correct	generate	Run4	generate/STIM_016.jpg
2949.651	1.285	correct	generate	Run4	generate/STIM_016.jpg
2953.34	1.653	correct	generate	Run4	generate/STIM_017.jpg
2957.93	1.527	incorrect	generate	Run4	generate/STIM_017.jpg
2962.745	0.927	correct	generate	Run4	generate/STIM_017.jpg
2966.958	1.498	correct	generate	Run4	generate/STIM_017.jpg
2971.495	0.781	correct	generate	Run4	generate/STIM_017.jpg
2974.742	1.579	correct	generate	Run4	generate/STIM_018.jpg
2978.985	1.725	incorrect	generate	Run4	generate/STIM_018.jpg
2983.238	1.175	correct	generate	Run4	generate/STIM_018.jpg
2986.899	1.284	correct	generate	Run4	generate/STIM_018.jpg
2991.342	1.064	incorrect	generate	Run4	generate/STIM_018.jpg
2995.279	1.497	correct	generate	Run4	generate/STIM_019.jpg
2999.794	1.387	correct	generate	Run4	generate/STIM_019.jpg
3003.871	1.284	correct	generate	Run4	generate/STIM_019.jpg
3008.442	1.136	incorrect	generate	Run4	generate/STIM_019.jpg
3011.97	1.654	correct	generate	Run4	generate/STIM_019.jpg
3016.809	1.175	correct	generate	Run4	generate/STIM_020.jpg
3021.915	0.736	correct	generate	Run4	generate/STIM_020.jpg
3025.669	1.682	correct	generate	Run4	generate/STIM_020.jpg
3030.729	0.96	correct	generate	Run4	generate/STIM_020.jpg
3035.264	1.044	correct	generate	Run4	generate/STIM_020.jpg
3039.28	0.863	correct	generate	Run4	generate/STIM_021.jpg
3043.569	1.287	correct	generate	Run4	generate/STIM_021.jpg
3048.407	0.928	correct	generate	Run4	generate/STIM_021.jpg
3051.562	1.551	correct	generate	Run4	generate/STIM_021.jpg
3056.842	1.183	correct	generate	Run4	generate/STIM_021.jpg
3061.073	1.587	correct	generate	Run4	generate/STIM_022.jpg
3065.325	1.466	correct	generate	Run4	generate/STIM_022.jpg
3069.329	1.171	correct	generate	Run4	generate/STIM_022.jpg
3073.409	1.142	correct	generate	Run4	generate/STIM_022.jpg
3077.904	0.894	correct	generate	Run4	generate/STIM_022.jpg
3081.37	1.316	incorrect	generate	Run4	generate/STIM_023.jpg
3085.839	1.361	correct	generate	Run4	generate/STIM_023.jpg
3090.72	1.605	correct	generate	Run4	generate/STIM_023.jpg
3094.874	0.93	correct	generate	Run4	generate/STIM_023.jpg
3098.488	1.222	correct	generate	Run4	generate/STIM_023.jpg
3102.102	1.812	incorrect	generate	Run4	generate/STIM_024.jpg
3106.509	1.134	correct	generate	Run4	generate/STIM_024.jpg
3110.488	1.135	correct	generate	Run4	generate/STIM_024.jpg
3115.231	0.84	correct	generate	Run4	generate/STIM_024.jpg
3119.394	0.75	correct	generate	Run4	generate/STIM_024.jpg
3123.816	0.462	correct	repeat	Run4	repeat/STIM_000.jpg
3127.706	0.507	correct	repeat	Run4	repeat/STIM_000.jpg
3131.342	0.688	incorrect	repeat	Run4	repeat/STIM_000.jpg
3135.021	0.489	correct	repeat	Run4	repeat/STIM_000.jpg
3138.176	0.608	correct	repeat	Run4	repeat/STIM_000.jpg
3141.32	0.732	correct	repeat	Run4	repeat/STIM_001.jpg
3145.669	0.547	correct	repeat	Run4	repeat/STIM_001.jpg
3149.063	0.509	correct	repeat	Run4	repeat/STIM_001.jpg
3153.191	0.654	correct	repeat	Run4	repeat/STIM_001.jpg
3156.621	0.805	correct	repeat	Run4	repeat/STIM_001.jpg
3160.827	0.547	correct	repeat	Run4	repeat/STIM_002.jpg
3164.105	0.511	correct	repeat	Run4	repeat/STIM_002.jpg
3167.518	0.736	correct	repeat	Run4	repeat/STIM_002.jpg
3171.372	0.858	correct	repeat	Run4	repeat/STIM_002.jpg
3176.156	0.706	correct	repeat	Run4	repeat/STIM_002.jpg
3180.198	0.722	correct	repeat	Run4	repeat/STIM_003.jpg
3184.545	0.857	correct	repeat	Run4	repeat/STIM_003.jpg
3188.005	0.853	correct	repeat	Run4	repeat/STIM_003.jpg
3191.725	0.57	correct	repeat	Run4	repeat/STIM_003.jpg
3196.276	0.858	correct	repeat	Run4	repeat/STIM_003.jpg
3201.112	0.683	correct	repeat	Run4	repeat/STIM_004.jpg
3204.021	0.542	correct	repeat	Run4	repeat/STIM_004.jpg
3208.198	0.577	correct	repeat	Run4	repeat/STIM_004.jpg
3212.797	0.579	correct	repeat	Run4	repeat/STIM_004.jpg
3215.949	0.8	correct	repeat	Run4	repeat/STIM_004.jpg
3219.763	0.733	correct	repeat	Run4	repeat/STIM_005.jpg
3224.608	0.853	correct	repeat	Run4	repeat/STIM_005.jpg
3229.16	0.672	correct	repeat	Run4	repeat/STIM_005.jpg
3233.107	0.597	correct	repeat	Run4	repeat/STIM_005.jpg
3237.464	0.591	correct	repeat	Run4	repeat/STIM_005.jpg
3240.554	0.668	correct	repeat	Run4	repeat/STIM_006.jpg
3243.799	0.489	correct	repeat	Run4	repeat/STIM_006.jpg
3247.927	0.841	correct	repeat	Run4	repeat/STIM_006.jpg
3251.556	0.656	correct	repeat	Run4	repeat/STIM_006.jpg
3255.673	0.747	correct	repeat	Run4	repeat/STIM_006.jpg
3258.833	0.788	incorrect	repeat	Run4	repeat/STIM_007.jpg
3262.403	0.478	correct	repeat	Run4	repeat/STIM_007.jpg
3266.934	0.86	incorrect	repeat	Run4	repeat/STIM_007.jpg
3270.351	0.75	correct	repeat	Run4	repeat/STIM_007.jpg
3274.446	0.501	correct	repeat	Run4	repeat/STIM_007.jpg
3278.53	0.551	correct	repeat	Run4	repeat/STIM_008.jpg
3282.878	0.445	correct	repeat	Run4	repeat/STIM_008.jpg
3286.911	0.574	correct	repeat	Run4	repeat/STIM_008.jpg
3290.956	0.528	correct	repeat	Run4	repeat/STIM_008.jpg
3293.979	0.786	correct	repeat	Run4	repeat/STIM_008.jpg
3298.124	0.446	correct	repeat	Run4	repeat/STIM_009.jpg
3301.372	0.844	correct	repeat	Run4	repeat/STIM_009.jpg
3304.414	0.658	correct	repeat	Run4	repeat/STIM_009.jpg
3308.171	0.768	correct	repeat	Run4	repeat/STIM_009.jpg
3311.409	0.527	correct	repeat	Run4	repeat/STIM_009.jpg
3315.002	0.522	correct	repeat	Run4	repeat/STIM_010.jpg
3319.43	0.457	correct	repeat	Run4	repeat/STIM_010.jpg
3322.636	0.486	correct	repeat	Run4	repeat/STIM_010.jpg
3326.255	0.458	correct	repeat	Run4	repeat/STIM_010.jpg
3329.779	0.782	correct	repeat	Run4	repeat/STIM_010.jpg
3333.408	0.677	correct	repeat	Run4	repeat/STIM_011.jpg
3337.289	0.556	correct	repeat	Run4	repeat/STIM_011.jpg
3341.879	0.458	correct	repeat	Run4	repeat/STIM_011.jpg
3344.505	0.475	correct	repeat	Run4	repeat/STIM_011.jpg
3348.777	0.844	correct	repeat	Run4	repeat/STIM_011.jpg
3353.487	0.442	correct	repeat	Run4	repeat/STIM_012.jpg
3356.673	0.61	correct	repeat	Run4	repeat/STIM_012.jpg
3359.387	0.532	correct	repeat	Run4	repeat/STIM_012.jpg
3362.989	0.673	correct	repeat	Run4	repeat/STIM_012.jpg
3366.922	0.777	correct	repeat	Run4	repeat/STIM_012.jpg
3371.061	0.606	correct	repeat	Run4	repeat/STIM_013.jpg
3375.137	0.714	correct	repeat	Run4	repeat/STIM_013.jpg
3378.959	0.775	correct	repeat	Run4	repeat/STIM_013.jpg
3383.608	0.786	correct	repeat	Run4	repeat/STIM_013.jpg
3386.919	0.765	correct	repeat	Run4	repeat/STIM_013.jpg
3391.532	0.661	correct	repeat	Run4	repeat/STIM_014.jpg
3395.786	0.445	correct	repeat	Run4	repeat/STIM_014.jpg
3399.448	0.721	correct	repeat	Run4	repeat/STIM_014.jpg
3402.724	0.719	correct	repeat	Run4	repeat/STIM_014.jpg
3406.762	0.747	correct	repeat	Run4	repeat/STIM_014.jpg
