onset	duration	response_time_ms	trial_type	learning_stage	stimulus	response_port
0.0	2.857	2856.6	generate	Run1	generate/STIM_000.jpg	99
6.74	1.525	1525.4	generate	Run1	generate/STIM_000.jpg	100
11.353	1.552	1552.0	generate	Run1	generate/STIM_000.jpg	100
16.747	2.539	2539.1	generate	Run1	generate/STIM_000.jpg	100
22.823	1.55	1549.6	generate	Run1	generate/STIM_000.jpg	99
27.438	2.244	2244.2	generate	Run1	generate/STIM_001.jpg	99
32.375	2.165	2164.9	generate	Run1	generate/STIM_001.jpg	100
36.886	1.594	1594.4	generate	Run1	generate/STIM_001.jpg	100
41.135	1.321	1321.4	generate	Run1	generate/STIM_001.jpg	99
45.38	1.509	1508.6	generate	Run1	generate/STIM_001.jpg	100
49.542	1.973	1972.6	generate	Run1	generate/STIM_002.jpg	100
55.133	1.282	1282.1	generate	Run1	generate/STIM_002.jpg	99
58.862	2.575	2575.2	generate	Run1	generate/STIM_002.jpg	100
65.308	1.183	1183.4	generate	Run1	generate/STIM_002.jpg	99
70.416	1.815	1815.0	generate	Run1	generate/STIM_002.jpg	99
74.524	1.618	1617.8	generate	Run1	generate/STIM_003.jpg	99
78.396	2.924	2923.7	generate	Run1	generate/STIM_003.jpg	99
84.672	2.438	2438.3	generate	Run1	generate/STIM_003.jpg	100
89.479	2.119	2118.9	generate	Run1	generate/STIM_003.jpg	100
93.796	1.174	1173.8	generate	Run1	generate/STIM_003.jpg	100
97.295	2.548	2547.6	generate	Run1	generate/STIM_004.jpg	99
103.323	1.25	1250.0	generate	Run1	generate/STIM_004.jpg	99
106.842	1.604	1603.7	generate	Run1	generate/STIM_004.jpg	100
111.175	1.706	1706.3	generate	Run1	generate/STIM_004.jpg	99
115.37	2.422	2422.4	generate	Run1	generate/STIM_004.jpg	99
120.468	1.416	1416.4	generate	Run1	generate/STIM_005.jpg	99
125.488	2.165	2164.9	generate	Run1	generate/STIM_005.jpg	99
130.052	1.396	1395.7	generate	Run1	generate/STIM_005.jpg	100
134.699	1.907	1906.6	generate	Run1	generate/STIM_005.jpg	99
140.072	2.338	2337.6	generate	Run1	generate/STIM_005.jpg	99
145.917	1.334	1334.0	generate	Run1	generate/STIM_006.jpg	100
150.015	2.264	2263.9	generate	Run1	generate/STIM_006.jpg	99
155.033	2.604	2603.5	generate	Run1	generate/STIM_006.jpg	99
159.742	2.35	2349.7	generate	Run1	generate/STIM_006.jpg	99
164.907	2.326	2325.9	generate	Run1	generate/STIM_006.jpg	100
170.764	2.393	2393.1	generate	Run1	generate/STIM_007.jpg	100
176.822	1.702	1701.7	generate	Run1	generate/STIM_007.jpg	99
180.897	2.568	2568.0	generate	Run1	generate/STIM_007.jpg	100
187.192	2.158	2157.6	generate	Run1	generate/STIM_007.jpg	99
191.998	2.337	2336.9	generate	Run1	generate/STIM_007.jpg	99
197.977	2.781	2781.1	generate	Run1	generate/STIM_008.jpg	99
203.073	2.404	2403.9	generate	Run1	generate/STIM_008.jpg	100
209.245	1.693	1692.7	generate	Run1	generate/STIM_008.jpg	100
213.318	2.633	2632.8	generate	Run1	generate/STIM_008.jpg	100
218.744	2.274	2273.7	generate	Run1	generate/STIM_008.jpg	99
224.118	1.386	1386.3	generate	Run1	generate/STIM_009.jpg	100
229.057	2.942	2941.8	generate	Run1	generate/STIM_009.jpg	99
235.877	2.058	2058.0	generate	Run1	generate/STIM_009.jpg	100
240.521	2.067	2067.2	generate	Run1	generate/STIM_009.jpg	100
244.755	2.438	2438.5	generate	Run1	generate/STIM_009.jpg	99
251.018	1.32	1320.3	generate	Run1	generate/STIM_010.jpg	99
254.746	1.412	1411.6	generate	Run1	generate/STIM_010.jpg	100
259.796	2.551	2550.7	generate	Run1	generate/STIM_010.jpg	100
265.767	1.825	1825.0	generate	Run1	generate/STIM_010.jpg	99
269.939	1.89	1889.6	generate	Run1	generate/STIM_010.jpg	99
275.79	2.402	2402.4	generate	Run1	generate/STIM_011.jpg	100
280.898	1.983	1983.1	generate	Run1	generate/STIM_011.jpg	99
285.051	2.061	2061.3	generate	Run1	generate/STIM_011.jpg	100
289.211	1.578	1577.7	generate	Run1	generate/STIM_011.jpg	100
293.201	1.893	1893.1	generate	Run1	generate/STIM_011.jpg	99
298.771	2.807	2806.9	generate	Run1	generate/STIM_012.jpg	99
304.235	2.518	2517.6	generate	Run1	generate/STIM_012.jpg	100
309.782	1.586	1586.5	generate	Run1	generate/STIM_012.jpg	100
314.905	1.328	1328.0	generate	Run1	generate/STIM_012.jpg	99
318.448	1.562	1562.3	generate	Run1	generate/STIM_012.jpg	100
322.167	1.539	1538.8	generate	Run1	generate/STIM_013.jpg	99
327.508	2.603	2602.8	generate	Run1	generate/STIM_013.jpg	100
332.494	2.56	2560.1	generate	Run1	generate/STIM_013.jpg	99
338.542	1.754	1754.0	generate	Run1	generate/STIM_013.jpg	99
343.551	1.436	1435.8	generate	Run1	generate/STIM_013.jpg	99
348.453	1.886	1885.5	generate	Run1	generate/STIM_014.jpg	99
353.917	1.769	1769.1	generate	Run1	generate/STIM_014.jpg	100
358.358	2.812	2811.9	generate	Run1	generate/STIM_014.jpg	99
364.302	2.463	2463.3	generate	Run1	generate/STIM_014.jpg	100
368.861	2.141	2140.7	generate	Run1	generate/STIM_014.jpg	100
373.872	2.201	2201.3	generate	Run1	generate/STIM_015.jpg	100
379.775	2.719	2719.1	generate	Run1	generate/STIM_015.jpg	99
385.46	2.375	2375.3	generate	Run1	generate/STIM_015.jpg	100
390.11	2.208	2208.2	generate	Run1	generate/STIM_015.jpg	99
394.509	1.134	1134.1	generate	Run1	generate/STIM_015.jpg	100
399.622	1.886	1886.0	generate	Run1	generate/STIM_016.jpg	99
405.173	1.659	1658.8	generate	Run1	generate/STIM_016.jpg	100
408.959	1.974	1974.0	generate	Run1	generate/STIM_016.jpg	99
413.26	1.815	1815.2	generate	Run1	generate/STIM_016.jpg	99
418.887	2.358	2357.7	generate	Run1	generate/STIM_016.jpg	99
423.867	2.221	2220.9	generate	Run1	generate/STIM_017.jpg	99
428.363	2.494	2493.7	generate	Run1	generate/STIM_017.jpg	99
433.039	2.482	2482.0	generate	Run1	generate/STIM_017.jpg	99
438.931	2.116	2116.5	generate	Run1	generate/STIM_017.jpg	100
444.803	2.439	2439.0	generate	Run1	generate/STIM_017.jpg	99
449.382	1.555	1555.2	generate	Run1	generate/STIM_018.jpg	100
453.771	2.9	2899.8	generate	Run1	generate/STIM_018.jpg	100
458.681	1.202	1202.2	generate	Run1	generate/STIM_018.jpg	100
462.936	1.096	1095.6	generate	Run1	generate/STIM_018.jpg	100
467.299	1.225	1225.1	generate	Run1	generate/STIM_018.jpg	99
471.407	2.187	2186.7	generate	Run1	generate/STIM_019.jpg	100
475.601	2.097	2097.2	generate	Run1	generate/STIM_019.jpg	99
481.529	1.43	1429.5	generate	Run1	generate/STIM_019.jpg	100
485.784	1.9	1900.1	generate	Run1	generate/STIM_019.jpg	100
490.526	1.671	1671.2	generate	Run1	generate/STIM_019.jpg	99
495.706	2.348	2347.5	generate	Run1	generate/STIM_020.jpg	99
500.136	2.677	2677.0	generate	Run1	generate/STIM_020.jpg	99
505.44	2.309	2309.2	generate	Run1	generate/STIM_020.jpg	100
511.543	2.344	2344.2	generate	Run1	generate/STIM_020.jpg	99
517.28	2.108	2108.4	generate	Run1	generate/STIM_020.jpg	99
522.866	2.027	2027.0	generate	Run1	generate/STIM_021.jpg	100
527.601	2.45	2449.9	generate	Run1	generate/STIM_021.jpg	99
533.579	2.512	2512.3	generate	Run1	generate/STIM_021.jpg	99
539.519	2.534	2533.8	generate	Run1	generate/STIM_021.jpg	100
545.612	1.101	1101.3	generate	Run1	generate/STIM_021.jpg	100
549.917	2.456	2456.2	generate	Run1	generate/STIM_022.jpg	100
555.86	1.358	1358.4	generate	Run1	generate/STIM_022.jpg	100
560.32	2.681	2681.0	generate	Run1	generate/STIM_022.jpg	99
566.363	2.394	2394.0	generate	Run1	generate/STIM_022.jpg	100
571.342	2.361	2361.2	generate	Run1	generate/STIM_022.jpg	99
576.095	1.43	1430.1	generate	Run1	generate/STIM_023.jpg	100
581.435	1.815	1815.3	generate	Run1	generate/STIM_023.jpg	100
586.269	2.093	2092.6	generate	Run1	generate/STIM_023.jpg	100
592.073	2.098	2098.2	generate	Run1	generate/STIM_023.jpg	99
597.838	1.788	1787.7	generate	Run1	generate/STIM_023.jpg	99
603.238	1.508	1508.1	generate	Run1	generate/STIM_024.jpg	100
608.545	1.55	1550.1	generate	Run1	generate/STIM_024.jpg	100
613.944	1.804	1803.9	generate	Run1	generate/STIM_024.jpg	99
618.522	1.804	1804.4	generate	Run1	generate/STIM_024.jpg	100
623.326	2.323	2323.4	generate	Run1	generate/STIM_024.jpg	99
628.587	0.962	962.5	repeat	Run1	repeat/STIM_000.jpg	100
632.896	0.897	897.0	repeat	Run1	repeat/STIM_000.jpg	99
637.415	0.92	919.9	repeat	Run1	repeat/STIM_000.jpg	99
641.103	0.633	633.1	repeat	Run1	repeat/STIM_000.jpg	100
644.663	0.593	592.6	repeat	Run1	repeat/STIM_000.jpg	99
648.324	0.764	763.5	repeat	Run1	repeat/STIM_001.jpg	100
652.129	0.937	936.7	repeat	Run1	repeat/STIM_001.jpg	100
655.994	0.634	634.3	repeat	Run1	repeat/STIM_001.jpg	99
659.25	0.64	640.1	repeat	Run1	repeat/STIM_001.jpg	99
663.818	0.741	741.3	repeat	Run1	repeat/STIM_001.jpg	99
667.311	0.784	784.5	repeat	Run1	repeat/STIM_002.jpg	99
670.512	0.593	592.7	repeat	Run1	repeat/STIM_002.jpg	100
673.713	0.864	864.2	repeat	Run1	repeat/STIM_002.jpg	100
677.437	0.872	872.3	repeat	Run1	repeat/STIM_002.jpg	99
680.698	0.579	578.8	repeat	Run1	repeat/STIM_002.jpg	100
683.708	0.589	589.3	repeat	Run1	repeat/STIM_003.jpg	100
688.165	0.591	591.1	repeat	Run1	repeat/STIM_003.jpg	100
691.597	0.708	708.0	repeat	Run1	repeat/STIM_003.jpg	100
695.942	0.635	635.3	repeat	Run1	repeat/STIM_003.jpg	99
700.321	0.767	767.3	repeat	Run1	repeat/STIM_003.jpg	99
703.646	0.686	686.3	repeat	Run1	repeat/STIM_004.jpg	99
706.445	0.637	637.3	repeat	Run1	repeat/STIM_004.jpg	99
709.236	1.031	1030.7	repeat	Run1	repeat/STIM_004.jpg	100
712.582	0.679	678.8	repeat	Run1	repeat/STIM_004.jpg	99
715.958	1.015	1015.0	repeat	Run1	repeat/STIM_004.jpg	100
719.034	0.598	597.7	repeat	Run1	repeat/STIM_005.jpg	99
721.744	0.97	970.1	repeat	Run1	repeat/STIM_005.jpg	100
724.741	0.88	880.3	repeat	Run1	repeat/STIM_005.jpg	100
729.53	0.766	766.2	repeat	Run1	repeat/STIM_005.jpg	100
734.097	0.646	646.3	repeat	Run1	repeat/STIM_005.jpg	100
736.991	1.048	1048.3	repeat	Run1	repeat/STIM_006.jpg	100
740.156	0.878	877.5	repeat	Run1	repeat/STIM_006.jpg	100
744.075	0.874	873.7	repeat	Run1	repeat/STIM_006.jpg	100
747.598	0.878	878.1	repeat	Run1	repeat/STIM_006.jpg	100
750.68	0.695	694.9	repeat	Run1	repeat/STIM_006.jpg	100
754.309	0.815	814.6	repeat	Run1	repeat/STIM_007.jpg	100
757.404	0.788	787.7	repeat	Run1	repeat/STIM_007.jpg	99
761.561	0.913	912.7	repeat	Run1	repeat/STIM_007.jpg	99
766.468	0.739	739.4	repeat	Run1	repeat/STIM_007.jpg	100
769.532	1.02	1019.9	repeat	Run1	repeat/STIM_007.jpg	100
774.371	0.883	883.4	repeat	Run1	repeat/STIM_008.jpg	99
777.63	0.866	865.5	repeat	Run1	repeat/STIM_008.jpg	99
780.661	0.693	692.9	repeat	Run1	repeat/STIM_008.jpg	99
784.909	0.637	637.0	repeat	Run1	repeat/STIM_008.jpg	99
789.446	0.807	806.7	repeat	Run1	repeat/STIM_008.jpg	100
792.629	0.77	769.5	repeat	Run1	repeat/STIM_009.jpg	99
795.57	0.963	963.2	repeat	Run1	repeat/STIM_009.jpg	99
799.706	1.044	1044.5	repeat	Run1	repeat/STIM_009.jpg	99
804.109	0.72	719.9	repeat	Run1	repeat/STIM_009.jpg	100
808.148	0.528	528.1	repeat	Run1	repeat/STIM_009.jpg	100
810.901	0.915	915.0	repeat	Run1	repeat/STIM_010.jpg	100
815.755	0.707	707.0	repeat	Run1	repeat/STIM_010.jpg	99
819.605	0.583	583.1	repeat	Run1	repeat/STIM_010.jpg	100
822.532	1.003	1002.8	repeat	Run1	repeat/STIM_010.jpg	99
825.754	0.859	858.8	repeat	Run1	repeat/STIM_010.jpg	100
829.886	0.622	622.0	repeat	Run1	repeat/STIM_011.jpg	100
833.445	0.673	672.6	repeat	Run1	repeat/STIM_011.jpg	100
837.775	0.549	549.1	repeat	Run1	repeat/STIM_011.jpg	100
841.324	0.608	608.1	repeat	Run1	repeat/STIM_011.jpg	100
844.048	0.676	676.3	repeat	Run1	repeat/STIM_011.jpg	100
848.287	0.832	831.7	repeat	Run1	repeat/STIM_012.jpg	100
852.629	0.778	777.8	repeat	Run1	repeat/STIM_012.jpg	100
857.295	0.558	558.0	repeat	Run1	repeat/STIM_012.jpg	99
860.13	0.714	713.8	repeat	Run1	repeat/STIM_012.jpg	100
863.3	0.539	539.0	repeat	Run1	repeat/STIM_012.jpg	100
867.286	0.721	721.2	repeat	Run1	repeat/STIM_013.jpg	100
870.371	1.021	1021.2	repeat	Run1	repeat/STIM_013.jpg	100
874.483	0.553	552.7	repeat	Run1	repeat/STIM_013.jpg	99
877.618	0.698	697.7	repeat	Run1	repeat/STIM_013.jpg	99
881.961	0.963	962.8	repeat	Run1	repeat/STIM_013.jpg	100
885.285	0.685	685.2	repeat	Run1	repeat/STIM_014.jpg	99
889.229	0.925	925.1	repeat	Run1	repeat/STIM_014.jpg	99
892.241	0.875	874.7	repeat	Run1	repeat/STIM_014.jpg	99
895.134	0.928	928.4	repeat	Run1	repeat/STIM_014.jpg	99
899.815	0.706	706.0	repeat	Run1	repeat/STIM_014.jpg	100
903.882	1.417	1417.3	generate	Run2	generate/STIM_000.jpg	99
909.128	1.241	1240.9	generate	Run2	generate/STIM_000.jpg	99
912.478	1.474	1474.0	generate	Run2	generate/STIM_000.jpg	99
916.249	1.879	1879.1	generate	Run2	generate/STIM_000.jpg	99
921.99	0.954	954.1	generate	Run2	generate/STIM_000.jpg	100
925.528	2.341	2341.1	generate	Run2	generate/STIM_001.jpg	100
930.449	1.789	1789.0	generate	Run2	generate/STIM_001.jpg	100
935.608	1.066	1066.1	generate	Run2	generate/STIM_001.jpg	100
938.768	2.063	2063.2	generate	Run2	generate/STIM_001.jpg	100
943.093	1.369	1369.1	generate	Run2	generate/STIM_001.jpg	99
947.202	2.607	2607.0	generate	Run2	generate/STIM_002.jpg	100
953.509	1.931	1930.7	generate	Run2	generate/STIM_002.jpg	100
958.421	1.582	1581.7	generate	Run2	generate/STIM_002.jpg	100
963.229	1.215	1215.3	generate	Run2	generate/STIM_002.jpg	100
966.943	1.399	1399.4	generate	Run2	generate/STIM_002.jpg	99
971.929	2.208	2208.5	generate	Run2	generate/STIM_003.jpg	100
976.95	1.314	1314.1	generate	Run2	generate/STIM_003.jpg	99
982.241	1.65	1649.5	generate	Run2	generate/STIM_003.jpg	99
987.352	1.799	1798.6	generate	Run2	generate/STIM_003.jpg	100
992.485	1.909	1908.9	generate	Run2	generate/STIM_003.jpg	99
998.286	1.567	1567.3	generate	Run2	generate/STIM_004.jpg	99
1003.825	2.21	2210.4	generate	Run2	generate/STIM_004.jpg	99
1008.702	1.334	1333.8	generate	Run2	generate/STIM_004.jpg	100
1012.718	1.329	1329.4	generate	Run2	generate/STIM_004.jpg	99
1017.45	0.999	998.6	generate	Run2	generate/STIM_004.jpg	99
1021.872	2.053	2053.2	generate	Run2	generate/STIM_005.jpg	99
1027.536	1.546	1546.2	generate	Run2	generate/STIM_005.jpg	99
1031.257	1.07	1070.5	generate	Run2	generate/STIM_005.jpg	99
1035.486	1.684	1683.9	generate	Run2	generate/STIM_005.jpg	100
1039.38	1.756	1756.2	generate	Run2	generate/STIM_005.jpg	99
1044.497	1.149	1148.7	generate	Run2	generate/STIM_006.jpg	100
1048.083	1.018	1017.8	generate	Run2	generate/STIM_006.jpg	100
1052.762	1.673	1672.7	generate	Run2	generate/STIM_006.jpg	99
1057.04	1.295	1295.3	generate	Run2	generate/STIM_006.jpg	100
1061.662	0.908	908.3	generate	Run2	generate/STIM_006.jpg	100
1065.344	2.029	2029.2	generate	Run2	generate/STIM_007.jpg	99
1070.053	2.485	2484.8	generate	Run2	generate/STIM_007.jpg	100
1075.88	1.114	1114.3	generate	Run2	generate/STIM_007.jpg	100
1079.253	1.322	1322.0	generate	Run2	generate/STIM_007.jpg	100
1084.526	1.082	1082.1	generate	Run2	generate/STIM_007.jpg	100
1089.054	1.553	1553.4	generate	Run2	generate/STIM_008.jpg	100
1092.821	2.162	2162.4	generate	Run2	generate/STIM_008.jpg	99
1098.821	1.569	1569.2	generate	Run2	generate/STIM_008.jpg	100
1102.537	1.221	1221.4	generate	Run2	generate/STIM_008.jpg	100
1107.474	1.851	1850.6	generate	Run2	generate/STIM_008.jpg	99
1112.953	1.706	1705.8	generate	Run2	generate/STIM_009.jpg	99
1117.984	2.149	2148.8	generate	Run2	generate/STIM_009.jpg	99
1123.17	1.408	1408.1	generate	Run2	generate/STIM_009.jpg	100
1128.384	1.526	1525.6	generate	Run2	generate/STIM_009.jpg	99
1131.965	1.009	1009.0	generate	Run2	generate/STIM_009.jpg	99
1136.731	1.944	1944.4	generate	Run2	generate/STIM_010.jpg	99
1140.777	2.44	2439.9	generate	Run2	generate/STIM_010.jpg	100
1146.275	1.333	1333.3	generate	Run2	generate/STIM_010.jpg	100
1150.226	1.124	1124.5	generate	Run2	generate/STIM_010.jpg	99
1153.494	2.097	2096.6	generate	Run2	generate/STIM_010.jpg	99
1158.428	1.984	1983.7	generate	Run2	generate/STIM_011.jpg	100
1163.703	1.75	1749.6	generate	Run2	generate/STIM_011.jpg	100
1167.711	1.66	1660.1	generate	Run2	generate/STIM_011.jpg	100
1171.487	1.015	1015.4	generate	Run2	generate/STIM_011.jpg	100
1176.473	1.719	1718.7	generate	Run2	generate/STIM_011.jpg	99
1181.441	2.574	2574.4	generate	Run2	generate/STIM_012.jpg	99
1186.526	2.448	2448.1	generate	Run2	generate/STIM_012.jpg	99
1192.362	1.462	1462.0	generate	Run2	generate/STIM_012.jpg	100
1197.688	1.219	1219.1	generate	Run2	generate/STIM_012.jpg	100
1201.232	2.175	2174.9	generate	Run2	generate/STIM_012.jpg	100
1205.931	1.864	1863.5	generate	Run2	generate/STIM_013.jpg	100
1211.331	1.652	1651.9	generate	Run2	generate/STIM_013.jpg	100
1216.164	1.398	1398.1	generate	Run2	generate/STIM_013.jpg	100
1220.215	1.958	1957.9	generate	Run2	generate/STIM_013.jpg	99
1224.912	1.95	1949.9	generate	Run2	generate/STIM_013.jpg	100
1229.501	2.662	2661.9	generate	Run2	generate/STIM_014.jpg	99
1235.345	2.345	2344.7	generate	Run2	generate/STIM_014.jpg	100
1241.428	1.715	1715.2	generate	Run2	generate/STIM_014.jpg	99
1247.046	1.241	1241.4	generate	Run2	generate/STIM_014.jpg	100
1251.723	1.755	1755.4	generate	Run2	generate/STIM_014.jpg	99
1255.558	1.971	1970.6	generate	Run2	generate/STIM_015.jpg	99
1260.995	1.654	1654.1	generate	Run2	generate/STIM_015.jpg	99
1265.982	2.0	1999.5	generate	Run2	generate/STIM_015.jpg	100
1270.991	1.72	1720.3	generate	Run2	generate/STIM_015.jpg	100
1274.915	2.085	2085.1	generate	Run2	generate/STIM_015.jpg	99
1279.879	1.365	1364.8	generate	Run2	generate/STIM_016.jpg	100
1284.648	1.573	1572.9	generate	Run2	generate/STIM_016.jpg	100
1288.329	1.72	1720.5	generate	Run2	generate/STIM_016.jpg	100
1293.141	1.338	1337.5	generate	Run2	generate/STIM_016.jpg	99
1297.626	0.999	998.6	generate	Run2	generate/STIM_016.jpg	99
1302.075	1.542	1542.5	generate	Run2	generate/STIM_017.jpg	100
1306.389	1.381	1380.9	generate	Run2	generate/STIM_017.jpg	99
1310.278	1.126	1126.3	generate	Run2	generate/STIM_017.jpg	99
1313.792	1.599	1599.1	generate	Run2	generate/STIM_017.jpg	100
1317.872	1.052	1051.6	generate	Run2	generate/STIM_017.jpg	100
1321.107	2.275	2275.0	generate	Run2	generate/STIM_018.jpg	100
1326.271	2.206	2206.4	generate	Run2	generate/STIM_018.jpg	99
1331.15	1.732	1732.5	generate	Run2	generate/STIM_018.jpg	100
1334.893	1.757	1757.1	generate	Run2	generate/STIM_018.jpg	100
1338.867	1.338	1337.7	generate	Run2	generate/STIM_018.jpg	100
1342.596	2.586	2586.3	generate	Run2	generate/STIM_019.jpg	100
1348.55	1.589	1589.2	generate	Run2	generate/STIM_019.jpg	99
1354.074	0.976	976.3	generate	Run2	generate/STIM_019.jpg	99
1357.823	1.966	1965.9	generate	Run2	generate/STIM_019.jpg	99
1363.15	2.031	2031.3	generate	Run2	generate/STIM_019.jpg	99
1367.744	1.817	1816.7	generate	Run2	generate/STIM_020.jpg	99
1372.473	2.042	2041.5	generate	Run2	generate/STIM_020.jpg	100
1376.834	1.931	1930.8	generate	Run2	generate/STIM_020.jpg	99
1382.326	0.951	951.0	generate	Run2	generate/STIM_020.jpg	99
1386.244	1.196	1195.5	generate	Run2	generate/STIM_020.jpg	100
1390.754	2.275	2274.8	generate	Run2	generate/STIM_021.jpg	99
1396.578	2.177	2177.1	generate	Run2	generate/STIM_021.jpg	99
1402.276	1.839	1839.2	generate	Run2	generate/STIM_021.jpg	99
1406.528	1.9	1900.0	generate	Run2	generate/STIM_021.jpg	99
1411.676	2.137	2137.4	generate	Run2	generate/STIM_021.jpg	100
1417.697	1.809	1809.1	generate	Run2	generate/STIM_022.jpg	100
1422.044	2.457	2456.7	generate	Run2	generate/STIM_022.jpg	99
1427.177	2.13	2130.4	generate	Run2	generate/STIM_022.jpg	100
1431.417	1.839	1839.0	generate	Run2	generate/STIM_022.jpg	100
1435.429	1.092	1091.6	generate	Run2	generate/STIM_022.jpg	100
1439.572	1.442	1441.5	generate	Run2	generate/STIM_023.jpg	100
1444.489	2.16	2160.0	generate	Run2	generate/STIM_023.jpg	100
1450.503	1.501	1500.6	generate	Run2	generate/STIM_023.jpg	100
1455.769	0.905	904.6	generate	Run2	generate/STIM_023.jpg	100
1460.399	1.243	1242.6	generate	Run2	generate/STIM_023.jpg	99
1464.149	1.73	1730.5	generate	Run2	generate/STIM_024.jpg	99
1468.917	1.879	1879.4	generate	Run2	generate/STIM_024.jpg	100
1473.585	1.95	1950.0	generate	Run2	generate/STIM_024.jpg	100
1477.869	1.391	1390.7	generate	Run2	generate/STIM_024.jpg	100
1481.614	1.344	1343.7	generate	Run2	generate/STIM_024.jpg	99
1485.592	0.537	536.7	repeat	Run2	repeat/STIM_000.jpg	99
1490.127	0.987	987.2	repeat	Run2	repeat/STIM_000.jpg	100
1494.771	1.017	1016.7	repeat	Run2	repeat/STIM_000.jpg	100
1499.355	0.78	780.2	repeat	Run2	repeat/STIM_000.jpg	99
1502.535	0.832	831.5	repeat	Run2	repeat/STIM_000.jpg	100
1505.55	0.906	906.5	repeat	Run2	repeat/STIM_001.jpg	100
1509.092	0.785	785.2	repeat	Run2	repeat/STIM_001.jpg	100
1511.977	0.995	995.0	repeat	Run2	repeat/STIM_001.jpg	100
1515.753	0.953	953.0	repeat	Run2	repeat/STIM_001.jpg	99
1519.143	0.596	595.5	repeat	Run2	repeat/STIM_001.jpg	100
1522.508	0.608	608.5	repeat	Run2	repeat/STIM_002.jpg	99
1525.587	0.553	553.4	repeat	Run2	repeat/STIM_002.jpg	100
1529.96	0.95	950.4	repeat	Run2	repeat/STIM_002.jpg	100
1534.627	0.618	617.7	repeat	Run2	repeat/STIM_002.jpg	99
1537.607	0.557	557.4	repeat	Run2	repeat/STIM_002.jpg	99
1541.418	0.984	983.9	repeat	Run2	repeat/STIM_003.jpg	100
1546.081	0.948	948.3	repeat	Run2	repeat/STIM_003.jpg	99
1549.034	1.039	1038.8	repeat	Run2	repeat/STIM_003.jpg	99
1552.117	0.627	626.6	repeat	Run2	repeat/STIM_003.jpg	99
1554.9	0.78	780.5	repeat	Run2	repeat/STIM_003.jpg	100
1559.5	0.988	987.6	repeat	Run2	repeat/STIM_004.jpg	99
1563.254	0.963	963.3	repeat	Run2	repeat/STIM_004.jpg	100
1566.543	0.815	815.3	repeat	Run2	repeat/STIM_004.jpg	100
1570.018	0.563	562.9	repeat	Run2	repeat/STIM_004.jpg	100
1574.007	0.532	532.5	repeat	Run2	repeat/STIM_004.jpg	100
1576.826	0.537	536.9	repeat	Run2	repeat/STIM_005.jpg	100
1580.671	0.722	722.1	repeat	Run2	repeat/STIM_005.jpg	100
1585.388	0.917	916.6	repeat	Run2	repeat/STIM_005.jpg	100
1588.768	0.851	851.3	repeat	Run2	repeat/STIM_005.jpg	99
1592.092	0.546	545.8	repeat	Run2	repeat/STIM_005.jpg	99
1595.627	0.698	698.0	repeat	Run2	repeat/STIM_006.jpg	99
1600.178	0.652	651.9	repeat	Run2	repeat/STIM_006.jpg	100
1603.43	0.922	922.0	repeat	Run2	repeat/STIM_006.jpg	100
1606.358	0.988	988.5	repeat	Run2	repeat/STIM_006.jpg	100
1611.096	0.853	852.6	repeat	Run2	repeat/STIM_006.jpg	99
1614.538	1.052	1052.1	repeat	Run2	repeat/STIM_007.jpg	99
1619.008	0.794	793.9	repeat	Run2	repeat/STIM_007.jpg	100
1622.149	0.796	795.5	repeat	Run2	repeat/STIM_007.jpg	100
1626.369	0.635	634.9	repeat	Run2	repeat/STIM_007.jpg	100
1629.921	0.668	668.1	repeat	Run2	repeat/STIM_007.jpg	99
1632.688	0.845	845.1	repeat	Run2	repeat/STIM_008.jpg	100
1636.32	0.657	657.3	repeat	Run2	repeat/STIM_008.jpg	99
1640.304	0.679	678.6	repeat	Run2	repeat/STIM_008.jpg	99
1643.05	0.588	588.4	repeat	Run2	repeat/STIM_008.jpg	99
1646.359	1.038	1038.0	repeat	Run2	repeat/STIM_008.jpg	99
1649.46	0.995	995.0	repeat	Run2	repeat/STIM_009.jpg	99
1654.116	0.619	618.9	repeat	Run2	repeat/STIM_009.jpg	99
1657.05	1.0	999.8	repeat	Run2	repeat/STIM_009.jpg	99
1660.957	0.709	709.3	repeat	Run2	repeat/STIM_009.jpg	100
1663.885	0.626	625.9	repeat	Run2	repeat/STIM_009.jpg	100
1666.554	0.685	685.0	repeat	Run2	repeat/STIM_010.jpg	99
1669.316	0.664	664.4	repeat	Run2	repeat/STIM_010.jpg	100
1673.434	0.959	958.7	repeat	Run2	repeat/STIM_010.jpg	100
1677.417	0.974	973.7	repeat	Run2	repeat/STIM_010.jpg	100
1681.279	0.964	964.4	repeat	Run2	repeat/STIM_010.jpg	99
1686.134	0.941	940.6	repeat	Run2	repeat/STIM_011.jpg	99
1689.433	0.951	951.0	repeat	Run2	repeat/STIM_011.jpg	100
1693.361	0.569	568.9	repeat	Run2	repeat/STIM_011.jpg	99
1697.667	0.718	718.2	repeat	Run2	repeat/STIM_011.jpg	100
1700.873	1.022	1022.4	repeat	Run2	repeat/STIM_011.jpg	100
1704.479	0.622	622.2	repeat	Run2	repeat/STIM_012.jpg	99
1708.521	0.72	720.5	repeat	Run2	repeat/STIM_012.jpg	99
1712.915	0.626	626.0	repeat	Run2	repeat/STIM_012.jpg	99
1715.615	0.541	541.1	repeat	Run2	repeat/STIM_012.jpg	100
1718.815	1.015	1015.2	repeat	Run2	repeat/STIM_012.jpg	100
1721.947	0.72	720.1	repeat	Run2	repeat/STIM_013.jpg	99
1725.271	0.777	776.6	repeat	Run2	repeat/STIM_013.jpg	100
1729.339	0.895	895.4	repeat	Run2	repeat/STIM_013.jpg	100
1732.765	0.814	813.8	repeat	Run2	repeat/STIM_013.jpg	100
1736.028	0.768	767.8	repeat	Run2	repeat/STIM_013.jpg	100
1740.452	0.874	874.0	repeat	Run2	repeat/STIM_014.jpg	99
1745.092	0.932	932.0	repeat	Run2	repeat/STIM_014.jpg	100
1748.07	0.925	925.1	repeat	Run2	repeat/STIM_014.jpg	99
1752.617	0.983	983.1	repeat	Run2	repeat/STIM_014.jpg	99
1755.752	0.712	712.2	repeat	Run2	repeat/STIM_014.jpg	100
1759.182	2.018	2018.3	generate	Run3	generate/STIM_000.jpg	100
1763.43	2.061	2061.4	generate	Run3	generate/STIM_000.jpg	99
1767.717	1.226	1226.1	generate	Run3	generate/STIM_000.jpg	100
1771.426	1.826	1826.4	generate	Run3	generate/STIM_000.jpg	100
1775.632	1.926	1925.9	generate	Run3	generate/STIM_000.jpg	99
1780.015	1.799	1799.1	generate	Run3	generate/STIM_001.jpg	99
1784.136	0.898	897.6	generate	Run3	generate/STIM_001.jpg	100
1787.439	1.977	1976.7	generate	Run3	generate/STIM_001.jpg	100
1791.419	0.966	965.7	generate	Run3	generate/STIM_001.jpg	100
1795.288	1.886	1886.5	generate	Run3	generate/STIM_001.jpg	100
1801.056	1.462	1462.5	generate	Run3	generate/STIM_002.jpg	99
1805.794	1.479	1479.1	generate	Run3	generate/STIM_002.jpg	100
1810.828	0.89	890.4	generate	Run3	generate/STIM_002.jpg	99
1815.008	1.06	1059.8	generate	Run3	generate/STIM_002.jpg	99
1819.263	0.932	931.6	generate	Run3	generate/STIM_002.jpg	99
1823.839	1.072	1072.1	generate	Run3	generate/STIM_003.jpg	100
1828.182	1.516	1516.4	generate	Run3	generate/STIM_003.jpg	99
1833.536	1.785	1785.4	generate	Run3	generate/STIM_003.jpg	100
1839.262	0.906	906.0	generate	Run3	generate/STIM_003.jpg	99
1842.348	1.584	1584.3	generate	Run3	generate/STIM_003.jpg	99
1847.682	1.877	1877.1	generate	Run3	generate/STIM_004.jpg	99
1851.708	2.173	2172.8	generate	Run3	generate/STIM_004.jpg	100
1856.826	1.079	1078.7	generate	Run3	generate/STIM_004.jpg	100
1860.358	2.077	2076.6	generate	Run3	generate/STIM_004.jpg	100
1865.966	2.013	2012.6	generate	Run3	generate/STIM_004.jpg	99
1870.589	1.832	1832.3	generate	Run3	generate/STIM_005.jpg	99
1874.583	1.668	1668.5	generate	Run3	generate/STIM_005.jpg	100
1879.732	1.862	1861.8	generate	Run3	generate/STIM_005.jpg	100
1883.847	1.74	1739.9	generate	Run3	generate/STIM_005.jpg	99
1889.463	2.112	2111.7	generate	Run3	generate/STIM_005.jpg	99
1895.499	0.993	993.2	generate	Run3	generate/STIM_006.jpg	99
1898.583	1.578	1578.2	generate	Run3	generate/STIM_006.jpg	100
1903.466	1.386	1386.4	generate	Run3	generate/STIM_006.jpg	99
1908.127	1.688	1687.6	generate	Run3	generate/STIM_006.jpg	99
1912.081	1.834	1833.5	generate	Run3	generate/STIM_006.jpg	99
1915.978	1.172	1171.9	generate	Run3	generate/STIM_007.jpg	100
1919.741	1.458	1457.6	generate	Run3	generate/STIM_007.jpg	99
1924.872	2.058	2058.4	generate	Run3	generate/STIM_007.jpg	100
1930.805	0.99	990.2	generate	Run3	generate/STIM_007.jpg	99
1935.043	1.924	1924.2	generate	Run3	generate/STIM_007.jpg	99
1939.52	1.806	1806.5	generate	Run3	generate/STIM_008.jpg	100
1944.014	1.578	1578.2	generate	Run3	generate/STIM_008.jpg	99
1949.489	1.575	1574.6	generate	Run3	generate/STIM_008.jpg	99
1953.518	0.95	950.4	generate	Run3	generate/STIM_008.jpg	100
1957.285	1.418	1417.7	generate	Run3	generate/STIM_008.jpg	99
1960.896	1.428	1427.8	generate	Run3	generate/STIM_009.jpg	99
1964.949	2.082	2081.5	generate	Run3	generate/STIM_009.jpg	99
1970.313	1.605	1605.3	generate	Run3	generate/STIM_009.jpg	99
1974.259	1.304	1304.4	generate	Run3	generate/STIM_009.jpg	99
1979.406	2.112	2111.5	generate	Run3	generate/STIM_009.jpg	100
1983.521	1.204	1203.5	generate	Run3	generate/STIM_010.jpg	100
1987.132	1.049	1048.6	generate	Run3	generate/STIM_010.jpg	100
1991.969	1.231	1231.2	generate	Run3	generate/STIM_010.jpg	100
1996.866	1.68	1679.6	generate	Run3	generate/STIM_010.jpg	100
2001.583	1.731	1731.4	generate	Run3	generate/STIM_010.jpg	100
2006.648	1.089	1088.8	generate	Run3	generate/STIM_011.jpg	100
2009.98	1.838	1838.5	generate	Run3	generate/STIM_011.jpg	100
2015.744	1.891	1890.9	generate	Run3	generate/STIM_011.jpg	100
2020.824	1.446	1445.7	generate	Run3	generate/STIM_011.jpg	99
2024.353	1.916	1915.5	generate	Run3	generate/STIM_011.jpg	99
2029.166	1.588	1588.5	generate	Run3	generate/STIM_012.jpg	99
2033.692	1.122	1122.5	generate	Run3	generate/STIM_012.jpg	99
2037.182	0.975	975.4	generate	Run3	generate/STIM_012.jpg	100
2040.961	1.69	1690.3	generate	Run3	generate/STIM_012.jpg	100
2044.782	1.42	1419.6	generate	Run3	generate/STIM_012.jpg	100
2049.384	2.042	2041.8	generate	Run3	generate/STIM_013.jpg	100
2054.89	1.794	1794.0	generate	Run3	generate/STIM_013.jpg	99
2060.439	1.107	1106.8	generate	Run3	generate/STIM_013.jpg	100
2064.394	1.153	1153.1	generate	Run3	generate/STIM_013.jpg	99
2069.165	1.048	1047.8	generate	Run3	generate/STIM_013.jpg	99
2074.083	1.681	1680.6	generate	Run3	generate/STIM_014.jpg	99
2078.103	1.173	1172.6	generate	Run3	generate/STIM_014.jpg	99
2082.074	2.193	2193.1	generate	Run3	generate/STIM_014.jpg	100
2087.376	1.287	1286.7	generate	Run3	generate/STIM_014.jpg	99
2090.678	1.324	1323.6	generate	Run3	generate/STIM_014.jpg	99
2095.633	0.899	898.8	generate	Run3	generate/STIM_015.jpg	99
2099.538	0.974	974.2	generate	Run3	generate/STIM_015.jpg	100
2103.844	0.931	930.8	generate	Run3	generate/STIM_015.jpg	100
2108.075	1.565	1565.0	generate	Run3	generate/STIM_015.jpg	99
2113.557	1.59	1589.6	generate	Run3	generate/STIM_015.jpg	100
2118.619	0.909	909.2	generate	Run3	generate/STIM_016.jpg	99
2123.278	1.672	1672.3	generate	Run3	generate/STIM_016.jpg	99
2127.607	1.698	1697.6	generate	Run3	generate/STIM_016.jpg	99
2131.404	1.48	1480.5	generate	Run3	generate/STIM_016.jpg	100
2135.653	2.118	2118.1	generate	Run3	generate/STIM_016.jpg	99
2140.63	1.682	1682.5	generate	Run3	generate/STIM_017.jpg	100
2145.544	0.899	899.1	generate	Run3	generate/STIM_017.jpg	100
2150.249	0.934	933.9	generate	Run3	generate/STIM_017.jpg	100
2155.103	1.647	1647.0	generate	Run3	generate/STIM_017.jpg	99
2160.627	0.942	942.2	generate	Run3	generate/STIM_017.jpg	100
2165.533	1.196	1196.0	generate	Run3	generate/STIM_018.jpg	99
2169.413	1.592	1592.5	generate	Run3	generate/STIM_018.jpg	99
2174.894	1.281	1280.7	generate	Run3	generate/STIM_018.jpg	99
2179.306	1.946	1946.2	generate	Run3	generate/STIM_018.jpg	99
2184.416	0.982	982.0	generate	Run3	generate/STIM_018.jpg	99
2188.137	1.089	1089.0	generate	Run3	generate/STIM_019.jpg	100
2192.847	2.005	2004.7	generate	Run3	generate/STIM_019.jpg	100
2197.63	2.16	2160.2	generate	Run3	generate/STIM_019.jpg	100
2203.45	2.19	2190.2	generate	Run3	generate/STIM_019.jpg	100
2209.209	1.589	1589.4	generate	Run3	generate/STIM_019.jpg	100
2213.775	2.09	2090.3	generate	Run3	generate/STIM_020.jpg	99
2218.445	2.004	2004.4	generate	Run3	generate/STIM_020.jpg	99
2223.36	1.064	1064.4	generate	Run3	generate/STIM_020.jpg	99
2227.28	1.951	1950.8	generate	Run3	generate/STIM_020.jpg	99
2231.235	1.844	1844.3	generate	Run3	generate/STIM_020.jpg	100
2235.833	1.092	1091.7	generate	Run3	generate/STIM_021.jpg	99
2239.38	1.29	1289.9	generate	Run3	generate/STIM_021.jpg	99
2242.73	1.766	1766.4	generate	Run3	generate/STIM_021.jpg	99
2246.874	1.377	1377.3	generate	Run3	generate/STIM_021.jpg	100
2251.89	1.57	1569.6	generate	Run3	generate/STIM_021.jpg	100
2256.146	1.686	1685.5	generate	Run3	generate/STIM_022.jpg	100
2260.971	1.275	1275.0	generate	Run3	generate/STIM_022.jpg	99
2265.394	1.496	1495.9	generate	Run3	generate/STIM_022.jpg	100
2269.498	2.109	2108.6	generate	Run3	generate/STIM_022.jpg	100
2274.625	0.932	931.7	generate	Run3	generate/STIM_022.jpg	99
2279.265	1.419	1419.4	generate	Run3	generate/STIM_023.jpg	100
2282.967	1.58	1580.1	generate	Run3	generate/STIM_023.jpg	100
2287.516	1.576	1576.1	generate	Run3	generate/STIM_023.jpg	100
2291.222	1.814	1814.5	generate	Run3	generate/STIM_023.jpg	100
2295.965	1.7	1699.9	generate	Run3	generate/STIM_023.jpg	100
2301.508	1.208	1208.4	generate	Run3	generate/STIM_024.jpg	100
2305.364	2.122	2121.5	generate	Run3	generate/STIM_024.jpg	99
2309.497	1.797	1796.6	generate	Run3	generate/STIM_024.jpg	100
2313.478	1.744	1744.5	generate	Run3	generate/STIM_024.jpg	100
2317.759	1.152	1152.5	generate	Run3	generate/STIM_024.jpg	99
2322.407	0.972	972.1	repeat	Run3	repeat/STIM_000.jpg	100
2326.277	0.798	798.4	repeat	Run3	repeat/STIM_000.jpg	99
2330.618	0.681	681.4	repeat	Run3	repeat/STIM_000.jpg	100
2334.115	0.806	805.8	repeat	Run3	repeat/STIM_000.jpg	100
2337.441	0.935	934.6	repeat	Run3	repeat/STIM_000.jpg	99
2342.065	0.617	616.8	repeat	Run3	repeat/STIM_001.jpg	99
2346.543	1.046	1046.2	repeat	Run3	repeat/STIM_001.jpg	100
2349.676	0.76	760.5	repeat	Run3	repeat/STIM_001.jpg	100
2352.679	0.891	891.0	repeat	Run3	repeat/STIM_001.jpg	99
2356.61	0.539	538.7	repeat	Run3	repeat/STIM_001.jpg	100
2360.268	1.007	1006.6	repeat	Run3	repeat/STIM_002.jpg	100
2363.303	0.691	691.1	repeat	Run3	repeat/STIM_002.jpg	99
2366.755	0.684	684.2	repeat	Run3	repeat/STIM_002.jpg	100
2370.647	0.778	777.5	repeat	Run3	repeat/STIM_002.jpg	99
2374.262	0.981	981.1	repeat	Run3	repeat/STIM_002.jpg	99
2379.052	0.84	839.5	repeat	Run3	repeat/STIM_003.jpg	99
2382.72	0.696	696.1	repeat	Run3	repeat/STIM_003.jpg	100
2386.654	0.916	915.8	repeat	Run3	repeat/STIM_003.jpg	100
2390.212	0.922	922.2	repeat	Run3	repeat/STIM_003.jpg	99
2394.582	0.773	772.8	repeat	Run3	repeat/STIM_003.jpg	99
2398.459	0.684	683.6	repeat	Run3	repeat/STIM_004.jpg	99
2401.756	0.87	870.4	repeat	Run3	repeat/STIM_004.jpg	100
2405.811	0.746	745.8	repeat	Run3	repeat/STIM_004.jpg	100
2410.341	0.602	602.5	repeat	Run3	repeat/STIM_004.jpg	100
2414.058	0.904	904.1	repeat	Run3	repeat/STIM_004.jpg	99
2417.35	0.807	807.2	repeat	Run3	repeat/STIM_005.jpg	99
2420.572	0.6	600.0	repeat	Run3	repeat/STIM_005.jpg	100
2423.587	0.904	903.7	repeat	Run3	repeat/STIM_005.jpg	100
2427.988	0.656	656.0	repeat	Run3	repeat/STIM_005.jpg	99
2431.405	0.742	742.5	repeat	Run3	repeat/STIM_005.jpg	100
2435.645	0.845	845.2	repeat	Run3	repeat/STIM_006.jpg	99
2438.946	0.818	818.2	repeat	Run3	repeat/STIM_006.jpg	100
2443.509	0.577	577.1	repeat	Run3	repeat/STIM_006.jpg	99
2447.527	0.539	539.4	repeat	Run3	repeat/STIM_006.jpg	99
2451.255	0.545	545.1	repeat	Run3	repeat/STIM_006.jpg	100
2455.688	0.683	683.2	repeat	Run3	repeat/STIM_007.jpg	100
2460.138	0.558	558.0	repeat	Run3	repeat/STIM_007.jpg	99
2463.521	0.798	797.8	repeat	Run3	repeat/STIM_007.jpg	99
2467.802	0.7	700.3	repeat	Run3	repeat/STIM_007.jpg	100
2471.768	0.7	700.2	repeat	Run3	repeat/STIM_007.jpg	100
2475.75	0.572	572.3	repeat	Run3	repeat/STIM_008.jpg	99
2480.118	0.734	734.0	repeat	Run3	repeat/STIM_008.jpg	99
2484.771	0.78	779.8	repeat	Run3	repeat/STIM_008.jpg	100
2489.535	0.885	884.9	repeat	Run3	repeat/STIM_008.jpg	99
2493.768	1.039	1039.4	repeat	Run3	repeat/STIM_008.jpg	100
2497.743	0.718	717.8	repeat	Run3	repeat/STIM_009.jpg	100
2501.474	0.546	546.0	repeat	Run3	repeat/STIM_009.jpg	99
2504.475	0.919	918.8	repeat	Run3	repeat/STIM_009.jpg	100
2508.603	0.69	689.9	repeat	Run3	repeat/STIM_009.jpg	99
2511.521	0.874	874.5	repeat	Run3	repeat/STIM_009.jpg	99
2514.647	0.688	688.4	repeat	Run3	repeat/STIM_010.jpg	99
2517.738	0.781	780.6	repeat	Run3	repeat/STIM_010.jpg	99
2522.448	0.803	802.6	repeat	Run3	repeat/STIM_010.jpg	99
2526.868	0.604	603.5	repeat	Run3	repeat/STIM_010.jpg	99
2530.982	0.68	679.6	repeat	Run3	repeat/STIM_010.jpg	99
2534.309	0.639	638.9	repeat	Run3	repeat/STIM_011.jpg	100
2538.297	0.549	548.7	repeat	Run3	repeat/STIM_011.jpg	100
2541.877	0.737	737.1	repeat	Run3	repeat/STIM_011.jpg	100
2544.894	0.86	860.5	repeat	Run3	repeat/STIM_011.jpg	99
2548.414	0.708	708.5	repeat	Run3	repeat/STIM_011.jpg	100
2552.771	0.606	606.5	repeat	Run3	repeat/STIM_012.jpg	100
2555.754	1.024	1024.1	repeat	Run3	repeat/STIM_012.jpg	100
2559.174	0.665	664.9	repeat	Run3	repeat/STIM_012.jpg	100
2563.577	0.977	977.2	repeat	Run3	repeat/STIM_012.jpg	99
2567.678	0.816	816.2	repeat	Run3	repeat/STIM_012.jpg	99
2572.392	0.775	774.7	repeat	Run3	repeat/STIM_013.jpg	99
2576.114	0.876	876.1	repeat	Run3	repeat/STIM_013.jpg	100
2580.594	0.678	678.0	repeat	Run3	repeat/STIM_013.jpg	100
2583.868	0.948	948.2	repeat	Run3	repeat/STIM_013.jpg	100
2588.134	1.035	1034.6	repeat	Run3	repeat/STIM_013.jpg	100
2592.531	0.956	956.5	repeat	Run3	repeat/STIM_014.jpg	99
2595.517	0.684	684.4	repeat	Run3	repeat/STIM_014.jpg	100
2598.221	0.814	813.7	repeat	Run3	repeat/STIM_014.jpg	99
2602.858	1.029	1029.1	repeat	Run3	repeat/STIM_014.jpg	99
2607.277	0.578	578.1	repeat	Run3	repeat/STIM_014.jpg	100
2611.5	1.172	1172.1	generate	Run4	generate/STIM_000.jpg	99
2615.331	1.42	1419.6	generate	Run4	generate/STIM_000.jpg	99
2619.059	1.651	1651.1	generate	Run4	generate/STIM_000.jpg	99
2624.066	2.164	2164.1	generate	Run4	generate/STIM_000.jpg	99
2628.513	1.04	1040.2	generate	Run4	generate/STIM_000.jpg	99
2633.008	1.925	1924.9	generate	Run4	generate/STIM_001.jpg	100
2637.368	1.891	1890.7	generate	Run4	generate/STIM_001.jpg	99
2641.76	2.107	2106.8	generate	Run4	generate/STIM_001.jpg	100
2645.922	1.345	1345.3	generate	Run4	generate/STIM_001.jpg	99
2649.542	1.565	1564.8	generate	Run4	generate/STIM_001.jpg	100
2654.835	1.629	1628.6	generate	Run4	generate/STIM_002.jpg	99
2659.638	1.99	1990.0	generate	Run4	generate/STIM_002.jpg	99
2664.872	1.228	1228.3	generate	Run4	generate/STIM_002.jpg	100
2669.686	2.121	2120.8	generate	Run4	generate/STIM_002.jpg	100
2675.651	1.798	1797.9	generate	Run4	generate/STIM_002.jpg	99
2681.146	1.823	1823.0	generate	Run4	generate/STIM_003.jpg	99
2685.218	1.02	1020.3	generate	Run4	generate/STIM_003.jpg	99
2689.373	2.202	2202.5	generate	Run4	generate/STIM_003.jpg	100
2695.424	1.802	1801.5	generate	Run4	generate/STIM_003.jpg	99
2701.042	1.97	1969.6	generate	Run4	generate/STIM_003.jpg	100
2706.372	2.038	2037.7	generate	Run4	generate/STIM_004.jpg	99
2712.301	2.174	2173.7	generate	Run4	generate/STIM_004.jpg	99
2718.095	0.996	996.3	generate	Run4	generate/STIM_004.jpg	100
2722.034	1.151	1150.7	generate	Run4	generate/STIM_004.jpg	99
2726.626	2.125	2125.2	generate	Run4	generate/STIM_004.jpg	99
2731.732	1.924	1923.9	generate	Run4	generate/STIM_005.jpg	99
2736.054	1.756	1755.6	generate	Run4	generate/STIM_005.jpg	99
2741.662	1.312	1311.8	generate	Run4	generate/STIM_005.jpg	100
2746.323	1.226	1225.8	generate	Run4	generate/STIM_005.jpg	100
2751.32	1.235	1234.8	generate	Run4	generate/STIM_005.jpg	99
2754.915	1.377	1376.9	generate	Run4	generate/STIM_006.jpg	100
2759.559	2.054	2053.5	generate	Run4	generate/STIM_006.jpg	100
2764.443	1.47	1470.1	generate	Run4	generate/STIM_006.jpg	99
2768.666	1.336	1336.1	generate	Run4	generate/STIM_006.jpg	99
2772.648	1.327	1326.6	generate	Run4	generate/STIM_006.jpg	100
2777.83	0.979	978.7	generate	Run4	generate/STIM_007.jpg	99
2781.836	2.128	2128.1	generate	Run4	generate/STIM_007.jpg	99
2786.209	1.261	1260.6	generate	Run4	generate/STIM_007.jpg	99
2789.927	1.965	1965.0	generate	Run4	generate/STIM_007.jpg	100
2795.534	1.174	1173.5	generate	Run4	generate/STIM_007.jpg	99
2799.972	1.959	1959.1	generate	Run4	generate/STIM_008.jpg	100
2804.491	1.75	1750.2	generate	Run4	generate/STIM_008.jpg	100
2808.478	1.289	1289.4	generate	Run4	generate/STIM_008.jpg	100
2812.303	0.94	940.0	generate	Run4	generate/STIM_008.jpg	100
2817.18	1.1	1100.4	generate	Run4	generate/STIM_008.jpg	100
2820.628	1.814	1813.8	generate	Run4	generate/STIM_009.jpg	99
2825.209	1.75	1750.4	generate	Run4	generate/STIM_009.jpg	99
2830.391	1.06	1060.2	generate	Run4	generate/STIM_009.jpg	99
2835.289	1.25	1250.3	generate	Run4	generate/STIM_009.jpg	100
2839.666	1.172	1171.8	generate	Run4	generate/STIM_009.jpg	100
2844.703	1.269	1269.1	generate	Run4	generate/STIM_010.jpg	100
2848.945	1.545	1544.8	generate	Run4	generate/STIM_010.jpg	100
2854.095	0.909	909.0	generate	Run4	generate/STIM_010.jpg	99
2858.392	1.151	1150.7	generate	Run4	generate/STIM_010.jpg	100
2861.612	1.768	1767.7	generate	Run4	generate/STIM_010.jpg	100
2865.575	2.059	2059.4	generate	Run4	generate/STIM_011.jpg	100
2870.762	1.267	1267.3	generate	Run4	generate/STIM_011.jpg	100
2875.092	1.076	1075.6	generate	Run4	generate/STIM_011.jpg	99
2879.064	0.958	958.2	generate	Run4	generate/STIM_011.jpg	99
2882.503	1.364	1364.4	generate	Run4	generate/STIM_011.jpg	100
2886.549	2.069	2069.4	generate	Run4	generate/STIM_012.jpg	99
2892.02	1.703	1703.4	generate	Run4	generate/STIM_012.jpg	100
2895.735	1.836	1835.6	generate	Run4	generate/STIM_012.jpg	99
2899.663	1.176	1176.0	generate	Run4	generate/STIM_012.jpg	100
2903.748	1.759	1759.3	generate	Run4	generate/STIM_012.jpg	99
2907.644	1.416	1415.7	generate	Run4	generate/STIM_013.jpg	99
2911.776	0.924	923.6	generate	Run4	generate/STIM_013.jpg	100
2915.058	2.044	2044.2	generate	Run4	generate/STIM_013.jpg	99
2920.825	1.803	1802.9	generate	Run4	generate/STIM_013.jpg	99
2925.03	0.931	930.6	generate	Run4	generate/STIM_013.jpg	100
2928.031	1.469	1469.1	generate	Run4	generate/STIM_014.jpg	99
2933.258	1.216	1215.9	generate	Run4	generate/STIM_014.jpg	99
2936.496	1.14	1139.6	generate	Run4	generate/STIM_014.jpg	99
2940.605	2.064	2064.5	generate	Run4	generate/STIM_014.jpg	100
2946.485	1.539	1539.4	generate	Run4	generate/STIM_014.jpg	99
2951.167	1.632	1632.2	generate	Run4	generate/STIM_015.jpg	99
2956.5	1.563	1563.3	generate	Run4	generate/STIM_015.jpg	100
2960.721	1.354	1353.8	generate	Run4	generate/STIM_015.jpg	100
2964.641	1.491	1490.9	generate	Run4	generate/STIM_015.jpg	100
2969.968	2.138	2138.1	generate	Run4	generate/STIM_015.jpg	99
2975.188	0.922	921.7	generate	Run4	generate/STIM_016.jpg	99
2979.27	1.65	1649.9	generate	Run4	generate/STIM_016.jpg	99
2983.98	1.281	1281.1	generate	Run4	generate/STIM_016.jpg	99
2988.269	1.497	1497.1	generate	Run4	generate/STIM_016.jpg	99
2991.808	1.626	1625.6	generate	Run4	generate/STIM_016.jpg	100
2996.274	1.892	1891.7	generate	Run4	generate/STIM_017.jpg	100
3000.745	1.757	1756.8	generate	Run4	generate/STIM_017.jpg	99
3005.084	1.493	1493.4	generate	Run4	generate/STIM_017.jpg	99
3008.722	1.31	1310.5	generate	Run4	generate/STIM_017.jpg	99
3012.223	1.342	1342.0	generate	Run4	generate/STIM_017.jpg	99
3017.561	1.155	1154.6	generate	Run4	generate/STIM_018.jpg	99
3021.35	1.83	1830.1	generate	Run4	generate/STIM_018.jpg	100
3025.263	1.17	1170.2	generate	Run4	generate/STIM_018.jpg	99
3028.544	2.046	2046.2	generate	Run4	generate/STIM_018.jpg	100
3033.748	2.1	2100.1	generate	Run4	generate/STIM_018.jpg	100
3039.535	1.753	1753.2	generate	Run4	generate/STIM_019.jpg	100
3043.974	1.306	1305.5	generate	Run4	generate/STIM_019.jpg	100
3048.692	1.492	1492.1	generate	Run4	generate/STIM_019.jpg	100
3052.295	2.005	2004.6	generate	Run4	generate/STIM_019.jpg	100
3058.266	1.852	1852.3	generate	Run4	generate/STIM_019.jpg	100
3063.975	0.955	955.2	generate	Run4	generate/STIM_020.jpg	99
3068.335	2.106	2105.5	generate	Run4	generate/STIM_020.jpg	100
3074.1	1.079	1078.7	generate	Run4	generate/STIM_020.jpg	99
3078.738	1.387	1387.1	generate	Run4	generate/STIM_020.jpg	99
3082.649	1.143	1142.7	generate	Run4	generate/STIM_020.jpg	99
3085.993	1.774	1774.4	generate	Run4	generate/STIM_021.jpg	100
3089.77	1.888	1887.9	generate	Run4	generate/STIM_021.jpg	99
3093.735	1.076	1075.6	generate	Run4	generate/STIM_021.jpg	100
3097.83	0.976	975.5	generate	Run4	generate/STIM_021.jpg	100
3102.766	1.742	1742.2	generate	Run4	generate/STIM_021.jpg	100
3107.663	0.968	968.4	generate	Run4	generate/STIM_022.jpg	99
3111.195	1.242	1242.5	generate	Run4	generate/STIM_022.jpg	100
3114.61	0.917	916.9	generate	Run4	generate/STIM_022.jpg	100
3118.358	1.604	1603.8	generate	Run4	generate/STIM_022.jpg	100
3123.193	0.962	962.2	generate	Run4	generate/STIM_022.jpg	99
3127.481	1.552	1551.7	generate	Run4	generate/STIM_023.jpg	99
3132.287	2.173	2173.1	generate	Run4	generate/STIM_023.jpg	100
3138.372	2.095	2095.2	generate	Run4	generate/STIM_023.jpg	100
3142.747	1.385	1384.6	generate	Run4	generate/STIM_023.jpg	100
3146.728	0.92	920.1	generate	Run4	generate/STIM_023.jpg	100
3150.468	1.885	1884.9	generate	Run4	generate/STIM_024.jpg	100
3154.643	1.059	1058.8	generate	Run4	generate/STIM_024.jpg	99
3158.022	1.357	1357.3	generate	Run4	generate/STIM_024.jpg	100
3162.021	1.66	1660.3	generate	Run4	generate/STIM_024.jpg	99
3167.086	1.854	1854.0	generate	Run4	generate/STIM_024.jpg	100
3172.808	0.823	823.2	repeat	Run4	repeat/STIM_000.jpg	99
3177.344	0.545	545.4	repeat	Run4	repeat/STIM_000.jpg	100
3181.844	1.044	1044.4	repeat	Run4	repeat/STIM_000.jpg	99
3186.201	1.032	1031.7	repeat	Run4	repeat/STIM_000.jpg	100
3190.757	0.98	980.2	repeat	Run4	repeat/STIM_000.jpg	99
3195.201	0.721	721.0	repeat	Run4	repeat/STIM_001.jpg	100
3198.139	0.77	769.9	repeat	Run4	repeat/STIM_001.jpg	99
3201.257	0.547	546.6	repeat	Run4	repeat/STIM_001.jpg	100
3204.061	0.777	777.0	repeat	Run4	repeat/STIM_001.jpg	99
3208.263	0.603	602.8	repeat	Run4	repeat/STIM_001.jpg	99
3212.403	0.71	709.7	repeat	Run4	repeat/STIM_002.jpg	99
3216.828	0.714	714.5	repeat	Run4	repeat/STIM_002.jpg	99
3220.876	0.979	979.1	repeat	Run4	repeat/STIM_002.jpg	99
3225.34	0.94	939.9	repeat	Run4	repeat/STIM_002.jpg	99
3230.024	0.814	814.5	repeat	Run4	repeat/STIM_002.jpg	99
3234.363	0.736	735.8	repeat	Run4	repeat/STIM_003.jpg	99
3237.506	1.02	1020.3	repeat	Run4	repeat/STIM_003.jpg	100
3241.577	0.8	800.3	repeat	Run4	repeat/STIM_003.jpg	100
3244.444	1.022	1022.3	repeat	Run4	repeat/STIM_003.jpg	99
3249.12	0.638	638.4	repeat	Run4	repeat/STIM_003.jpg	99
3251.93	0.885	885.2	repeat	Run4	repeat/STIM_004.jpg	99
3255.211	0.671	670.8	repeat	Run4	repeat/STIM_004.jpg	100
3259.185	0.836	835.6	repeat	Run4	repeat/STIM_004.jpg	99
3263.785	0.623	623.2	repeat	Run4	repeat/STIM_004.jpg	100
3267.874	0.537	537.4	repeat	Run4	repeat/STIM_004.jpg	100
3272.062	0.692	691.7	repeat	Run4	repeat/STIM_005.jpg	100
3274.97	0.757	757.0	repeat	Run4	repeat/STIM_005.jpg	99
3279.657	1.033	1032.9	repeat	Run4	repeat/STIM_005.jpg	99
3282.916	0.552	552.3	repeat	Run4	repeat/STIM_005.jpg	99
3285.833	1.0	1000.1	repeat	Run4	repeat/STIM_005.jpg	99
3290.165	0.843	843.1	repeat	Run4	repeat/STIM_006.jpg	100
3294.093	0.541	540.6	repeat	Run4	repeat/STIM_006.jpg	99
3298.56	0.973	972.9	repeat	Run4	repeat/STIM_006.jpg	100
3302.956	0.652	651.7	repeat	Run4	repeat/STIM_006.jpg	100
3307.551	0.754	753.8	repeat	Run4	repeat/STIM_006.jpg	99
3311.447	0.712	712.0	repeat	Run4	repeat/STIM_007.jpg	100
3314.59	0.597	597.3	repeat	Run4	repeat/STIM_007.jpg	100
3319.175	0.562	561.6	repeat	Run4	repeat/STIM_007.jpg	100
3322.97	0.685	685.4	repeat	Run4	repeat/STIM_007.jpg	99
3327.29	0.658	658.3	repeat	Run4	repeat/STIM_007.jpg	100
3330.791	0.753	753.4	repeat	Run4	repeat/STIM_008.jpg	100
3334.984	0.929	929.3	repeat	Run4	repeat/STIM_008.jpg	99
3339.181	0.533	532.8	repeat	Run4	repeat/STIM_008.jpg	100
3343.322	0.73	729.8	repeat	Run4	repeat/STIM_008.jpg	100
3346.269	0.873	873.4	repeat	Run4	repeat/STIM_008.jpg	100
3350.197	0.933	932.7	repeat	Run4	repeat/STIM_009.jpg	99
3353.701	0.64	639.8	repeat	Run4	repeat/STIM_009.jpg	99
3358.298	0.65	649.6	repeat	Run4	repeat/STIM_009.jpg	100
3361.295	0.543	543.4	repeat	Run4	repeat/STIM_009.jpg	99
3364.117	0.617	616.8	repeat	Run4	repeat/STIM_009.jpg	100
3367.836	0.665	665.1	repeat	Run4	repeat/STIM_010.jpg	100
3370.84	1.035	1034.9	repeat	Run4	repeat/STIM_010.jpg	100
3375.78	0.878	878.2	repeat	Run4	repeat/STIM_010.jpg	100
3379.733	0.57	569.5	repeat	Run4	repeat/STIM_010.jpg	99
3384.173	0.729	728.9	repeat	Run4	repeat/STIM_010.jpg	100
3387.844	0.952	951.8	repeat	Run4	repeat/STIM_011.jpg	100
3390.878	0.972	971.9	repeat	Run4	repeat/STIM_011.jpg	100
3395.503	0.696	696.0	repeat	Run4	repeat/STIM_011.jpg	99
3399.002	0.893	893.2	repeat	Run4	repeat/STIM_011.jpg	100
3402.066	0.841	840.6	repeat	Run4	repeat/STIM_011.jpg	100
3405.948	0.668	668.2	repeat	Run4	repeat/STIM_012.jpg	100
3410.303	0.878	877.6	repeat	Run4	repeat/STIM_012.jpg	100
3414.722	0.842	841.6	repeat	Run4	repeat/STIM_012.jpg	100
3418.303	0.786	786.3	repeat	Run4	repeat/STIM_012.jpg	99
3422.621	0.939	938.9	repeat	Run4	repeat/STIM_012.jpg	100
3427.119	0.551	551.2	repeat	Run4	repeat/STIM_013.jpg	99
3430.076	0.534	534.0	repeat	Run4	repeat/STIM_013.jpg	100
3434.555	0.63	630.4	repeat	Run4	repeat/STIM_013.jpg	99
3438.882	1.053	1053.2	repeat	Run4	repeat/STIM_013.jpg	99
3443.139	0.537	536.6	repeat	Run4	repeat/STIM_013.jpg	100
3446.413	0.912	911.7	repeat	Run4	repeat/STIM_014.jpg	100
3450.725	0.564	564.1	repeat	Run4	repeat/STIM_014.jpg	99
3453.529	0.889	889.3	repeat	Run4	repeat/STIM_014.jpg	100
3457.666	0.638	638.3	repeat	Run4	repeat/STIM_014.jpg	100
3460.884	0.935	934.8	repeat	Run4	repeat/STIM_014.jpg	99
