onset	duration	response_time_ms	trial_type	learning_stage	stimulus	response_port
0.0	1.193	1192.8	study	Phase1	study/STIM_000.jpg	99
3.81	1.227	1226.6	study	Phase1	study/STIM_000.jpg	99
7.442	0.896	895.5	study	Phase1	study/STIM_000.jpg	100
12.304	0.88	880.4	study	Phase1	study/STIM_001.jpg	100
15.726	0.979	979.0	study	Phase1	study/STIM_001.jpg	100
19.943	1.316	1316.0	study	Phase1	study/STIM_001.jpg	100
24.959	0.769	768.7	study	Phase1	study/STIM_002.jpg	99
28.736	0.703	702.6	study	Phase1	study/STIM_002.jpg	100
33.232	0.806	806.5	study	Phase1	study/STIM_002.jpg	99
36.643	0.727	726.9	study	Phase1	study/STIM_003.jpg	100
41.04	0.989	988.6	study	Phase1	study/STIM_003.jpg	99
45.828	1.231	1231.0	study	Phase1	study/STIM_003.jpg	99
50.526	1.12	1120.1	study	Phase1	study/STIM_004.jpg	99
54.635	0.758	758.5	study	Phase1	study/STIM_004.jpg	100
58.378	1.02	1020.5	study	Phase1	study/STIM_004.jpg	100
63.188	1.078	1078.5	study	Phase1	study/STIM_005.jpg	100
67.297	1.079	1078.6	study	Phase1	study/STIM_005.jpg	100
71.674	0.834	834.3	study	Phase1	study/STIM_005.jpg	100
75.763	1.239	1238.7	study	Phase1	study/STIM_006.jpg	99
79.357	0.681	681.3	study	Phase1	study/STIM_006.jpg	99
82.894	0.667	667.3	study	Phase1	study/STIM_006.jpg	99
86.249	1.474	1474.4	study	Phase1	study/STIM_007.jpg	100
89.838	1.048	1048.1	study	Phase1	study/STIM_007.jpg	100
94.76	0.627	627.4	study	Phase1	study/STIM_007.jpg	99
99.241	1.019	1019.0	study	Phase1	study/STIM_008.jpg	100
102.866	1.061	1060.9	study	Phase1	study/STIM_008.jpg	99
106.86	1.267	1267.1	study	Phase1	study/STIM_008.jpg	99
110.226	0.827	826.7	study	Phase1	study/STIM_009.jpg	99
114.242	0.949	948.9	study	Phase1	study/STIM_009.jpg	100
118.625	0.697	697.3	study	Phase1	study/STIM_009.jpg	99
121.548	0.908	907.7	study	Phase1	study/STIM_010.jpg	100
124.802	1.158	1157.7	study	Phase1	study/STIM_010.jpg	99
128.312	1.386	1386.2	study	Phase1	study/STIM_010.jpg	99
131.892	0.792	792.0	study	Phase1	study/STIM_011.jpg	100
136.642	1.121	1121.4	study	Phase1	study/STIM_011.jpg	99
140.652	0.957	957.0	study	Phase1	study/STIM_011.jpg	99
145.004	1.005	1004.6	study	Phase1	study/STIM_012.jpg	99
148.067	1.013	1013.3	study	Phase1	study/STIM_012.jpg	99
152.294	0.833	833.2	study	Phase1	study/STIM_012.jpg	99
156.096	1.279	1279.3	study	Phase1	study/STIM_013.jpg	99
160.851	0.933	933.1	study	Phase1	study/STIM_013.jpg	99
165.482	0.821	820.8	study	Phase1	study/STIM_013.jpg	99
168.931	1.078	1077.5	study	Phase1	study/STIM_014.jpg	100
173.565	1.35	1349.7	study	Phase1	study/STIM_014.jpg	100
178.101	0.839	838.8	study	Phase1	study/STIM_014.jpg	99
182.309	0.811	811.3	study	Phase1	study/STIM_015.jpg	100
186.416	1.316	1316.1	study	Phase1	study/STIM_015.jpg	100
191.299	1.393	1393.2	study	Phase1	study/STIM_015.jpg	100
196.196	1.258	1258.0	study	Phase1	study/STIM_016.jpg	100
200.915	1.246	1245.8	study	Phase1	study/STIM_016.jpg	99
205.753	0.967	967.0	study	Phase1	study/STIM_016.jpg	100
209.838	0.916	916.3	study	Phase1	study/STIM_017.jpg	100
212.789	0.967	966.8	study	Phase1	study/STIM_017.jpg	99
216.842	0.627	627.1	study	Phase1	study/STIM_017.jpg	99
220.052	1.099	1099.2	study	Phase1	study/STIM_018.jpg	100
225.015	0.688	687.5	study	Phase1	study/STIM_018.jpg	99
229.404	1.362	1362.2	study	Phase1	study/STIM_018.jpg	100
233.829	0.726	725.8	study	Phase1	study/STIM_019.jpg	100
236.806	1.339	1338.7	study	Phase1	study/STIM_019.jpg	100
241.171	1.023	1023.0	study	Phase1	study/STIM_019.jpg	100
245.504	0.936	935.9	study	Phase1	study/STIM_020.jpg	99
248.697	1.272	1272.2	study	Phase1	study/STIM_020.jpg	99
253.189	0.651	651.1	study	Phase1	study/STIM_020.jpg	100
257.123	1.518	1517.6	study	Phase1	study/STIM_021.jpg	99
261.249	0.966	965.7	study	Phase1	study/STIM_021.jpg	99
265.661	1.168	1167.5	study	Phase1	study/STIM_021.jpg	100
269.145	0.755	754.6	study	Phase1	study/STIM_022.jpg	100
272.366	0.935	935.2	study	Phase1	study/STIM_022.jpg	99
276.128	1.172	1172.4	study	Phase1	study/STIM_022.jpg	100
279.666	1.279	1278.9	study	Phase1	study/STIM_023.jpg	99
284.906	0.898	898.2	study	Phase1	study/STIM_023.jpg	99
288.835	0.736	736.2	study	Phase1	study/STIM_023.jpg	99
292.968	1.318	1318.3	study	Phase1	study/STIM_024.jpg	99
297.64	1.094	1093.8	study	Phase1	study/STIM_024.jpg	99
301.927	1.135	1135.0	study	Phase1	study/STIM_024.jpg	99
305.6	1.067	1066.8	study	Phase1	study/STIM_025.jpg	99
310.215	0.954	954.2	study	Phase1	study/STIM_025.jpg	100
313.672	0.786	785.7	study	Phase1	study/STIM_025.jpg	99
317.399	1.298	1298.0	study	Phase1	study/STIM_026.jpg	99
322.476	1.458	1457.8	study	Phase1	study/STIM_026.jpg	99
327.662	1.013	1012.8	study	Phase1	study/STIM_026.jpg	99
332.338	1.542	1541.6	study	Phase1	study/STIM_027.jpg	99
337.438	1.098	1097.6	study	Phase1	study/STIM_027.jpg	99
341.245	1.312	1311.7	study	Phase1	study/STIM_027.jpg	99
345.739	1.009	1008.8	study	Phase1	study/STIM_028.jpg	99
350.517	1.352	1351.8	study	Phase1	study/STIM_028.jpg	100
354.415	0.988	987.6	study	Phase1	study/STIM_028.jpg	100
358.11	0.777	776.7	study	Phase1	study/STIM_029.jpg	99
361.49	1.194	1194.0	study	Phase1	study/STIM_029.jpg	100
365.547	0.66	660.0	study	Phase1	study/STIM_029.jpg	99
369.222	0.531	530.8	test	Phase1	test/STIM_000.jpg	99
373.493	0.982	981.5	test	Phase1	test/STIM_000.jpg	99
376.754	0.912	912.4	test	Phase1	test/STIM_000.jpg	99
380.811	1.054	1053.9	test	Phase1	test/STIM_001.jpg	99
384.349	1.04	1039.9	test	Phase1	test/STIM_001.jpg	100
387.392	0.729	728.9	test	Phase1	test/STIM_001.jpg	99
390.175	0.518	518.2	test	Phase1	test/STIM_002.jpg	99
394.522	1.059	1059.2	test	Phase1	test/STIM_002.jpg	99
398.687	0.716	716.2	test	Phase1	test/STIM_002.jpg	100
403.034	0.58	580.2	test	Phase1	test/STIM_003.jpg	99
406.883	0.579	578.7	test	Phase1	test/STIM_003.jpg	100
410.617	0.963	963.4	test	Phase1	test/STIM_003.jpg	100
414.167	0.859	859.2	test	Phase1	test/STIM_004.jpg	99
417.461	1.11	1110.0	test	Phase1	test/STIM_004.jpg	99
422.223	0.57	570.2	test	Phase1	test/STIM_004.jpg	99
424.909	0.74	740.0	test	Phase1	test/STIM_005.jpg	100
427.859	0.855	854.9	test	Phase1	test/STIM_005.jpg	99
432.14	0.635	635.0	test	Phase1	test/STIM_005.jpg	100
435.449	0.981	980.6	test	Phase1	test/STIM_006.jpg	100
438.889	0.521	521.3	test	Phase1	test/STIM_006.jpg	99
442.594	0.95	949.8	test	Phase1	test/STIM_006.jpg	99
445.833	0.874	874.5	test	Phase1	test/STIM_007.jpg	100
449.51	0.859	858.9	test	Phase1	test/STIM_007.jpg	99
452.607	0.537	537.0	test	Phase1	test/STIM_007.jpg	100
456.596	0.566	565.5	test	Phase1	test/STIM_008.jpg	100
460.947	0.979	979.4	test	Phase1	test/STIM_008.jpg	99
464.434	0.81	810.0	test	Phase1	test/STIM_008.jpg	99
468.49	0.586	585.7	test	Phase1	test/STIM_009.jpg	99
471.219	0.934	933.9	test	Phase1	test/STIM_009.jpg	100
475.388	1.046	1045.8	test	Phase1	test/STIM_009.jpg	100
479.358	1.109	1109.1	test	Phase1	test/STIM_010.jpg	100
482.692	1.114	1114.1	test	Phase1	test/STIM_010.jpg	99
486.906	0.702	702.4	test	Phase1	test/STIM_010.jpg	99
490.725	0.661	660.8	test	Phase1	test/STIM_011.jpg	99
494.898	0.677	676.7	test	Phase1	test/STIM_011.jpg	99
498.111	1.01	1010.4	test	Phase1	test/STIM_011.jpg	100
502.864	0.619	618.6	test	Phase1	test/STIM_012.jpg	100
505.722	0.613	613.2	test	Phase1	test/STIM_012.jpg	99
510.277	0.731	731.4	test	Phase1	test/STIM_012.jpg	99
513.084	1.074	1074.4	test	Phase1	test/STIM_013.jpg	100
517.984	0.55	550.1	test	Phase1	test/STIM_013.jpg	99
520.936	0.698	698.5	test	Phase1	test/STIM_013.jpg	100
524.396	0.918	918.3	test	Phase1	test/STIM_014.jpg	100
528.527	0.951	950.7	test	Phase1	test/STIM_014.jpg	100
532.733	0.79	789.6	test	Phase1	test/STIM_014.jpg	100
536.299	0.925	925.4	test	Phase1	test/STIM_015.jpg	99
539.743	0.743	742.7	test	Phase1	test/STIM_015.jpg	99
542.994	0.546	546.1	test	Phase1	test/STIM_015.jpg	99
545.668	1.051	1050.7	test	Phase1	test/STIM_016.jpg	100
548.85	0.855	855.3	test	Phase1	test/STIM_016.jpg	99
552.687	0.862	862.2	test	Phase1	test/STIM_016.jpg	100
556.876	0.819	818.8	test	Phase1	test/STIM_017.jpg	99
561.347	0.954	954.5	test	Phase1	test/STIM_017.jpg	100
565.997	1.07	1070.5	test	Phase1	test/STIM_017.jpg	99
569.497	1.068	1067.8	test	Phase1	test/STIM_018.jpg	100
572.662	0.714	713.5	test	Phase1	test/STIM_018.jpg	100
577.222	0.9	900.0	test	Phase1	test/STIM_018.jpg	99
580.307	0.553	552.8	test	Phase1	test/STIM_019.jpg	100
584.792	0.819	819.0	test	Phase1	test/STIM_019.jpg	99
588.053	0.664	663.7	test	Phase1	test/STIM_019.jpg	99
590.804	1.061	1061.2	test	Phase1	test/STIM_020.jpg	100
595.207	0.557	556.7	test	Phase1	test/STIM_020.jpg	99
598.937	1.051	1050.6	test	Phase1	test/STIM_020.jpg	99
603.743	1.005	1004.7	test	Phase1	test/STIM_021.jpg	100
607.152	0.912	912.3	test	Phase1	test/STIM_021.jpg	100
610.645	0.768	768.4	test	Phase1	test/STIM_021.jpg	99
615.235	0.578	578.5	test	Phase1	test/STIM_022.jpg	100
618.889	0.937	936.8	test	Phase1	test/STIM_022.jpg	99
623.709	0.995	995.4	test	Phase1	test/STIM_022.jpg	100
627.133	0.788	787.8	test	Phase1	test/STIM_023.jpg	100
631.597	1.094	1094.2	test	Phase1	test/STIM_023.jpg	99
635.745	0.527	526.9	test	Phase1	test/STIM_023.jpg	100
638.584	0.549	549.2	test	Phase1	test/STIM_024.jpg	100
641.807	0.9	900.1	test	Phase1	test/STIM_024.jpg	99
645.899	0.8	800.5	test	Phase1	test/STIM_024.jpg	99
650.605	0.568	568.3	test	Phase1	test/STIM_025.jpg	99
653.796	0.825	825.0	test	Phase1	test/STIM_025.jpg	100
656.763	0.775	774.9	test	Phase1	test/STIM_025.jpg	99
660.077	0.855	854.9	test	Phase1	test/STIM_026.jpg	99
663.709	1.062	1062.1	test	Phase1	test/STIM_026.jpg	99
667.803	0.66	659.6	test	Phase1	test/STIM_026.jpg	100
672.371	0.638	638.3	test	Phase1	test/STIM_027.jpg	100
675.747	1.11	1109.9	test	Phase1	test/STIM_027.jpg	99
679.56	0.9	900.1	test	Phase1	test/STIM_027.jpg	99
684.412	0.942	942.1	test	Phase1	test/STIM_028.jpg	100
688.481	0.971	971.4	test	Phase1	test/STIM_028.jpg	100
692.425	0.89	889.5	test	Phase1	test/STIM_028.jpg	99
696.439	1.052	1052.3	test	Phase1	test/STIM_029.jpg	100
699.908	0.791	791.0	test	Phase1	test/STIM_029.jpg	100
703.696	1.06	1060.4	test	Phase1	test/STIM_029.jpg	99
708.467	0.707	706.6	study	Phase2	study/STIM_000.jpg	99
712.377	0.572	572.5	study	Phase2	study/STIM_000.jpg	100
716.853	0.567	567.3	study	Phase2	study/STIM_000.jpg	99
721.251	0.592	592.1	study	Phase2	study/STIM_001.jpg	100
724.793	0.79	789.5	study	Phase2	study/STIM_001.jpg	100
727.688	1.002	1002.2	study	Phase2	study/STIM_001.jpg	99
731.304	0.954	953.6	study	Phase2	study/STIM_002.jpg	100
734.872	1.122	1122.5	study	Phase2	study/STIM_002.jpg	99
739.742	0.853	853.3	study	Phase2	study/STIM_002.jpg	100
744.437	0.884	884.3	study	Phase2	study/STIM_003.jpg	99
747.518	0.88	880.4	study	Phase2	study/STIM_003.jpg	99
751.52	0.947	947.0	study	Phase2	study/STIM_003.jpg	99
754.754	0.925	924.7	study	Phase2	study/STIM_004.jpg	100
758.401	1.155	1154.6	study	Phase2	study/STIM_004.jpg	99
762.789	0.904	903.8	study	Phase2	study/STIM_004.jpg	99
765.7	0.724	724.0	study	Phase2	study/STIM_005.jpg	100
770.324	0.656	656.4	study	Phase2	study/STIM_005.jpg	99
774.049	0.857	857.3	study	Phase2	study/STIM_005.jpg	99
778.804	0.979	978.9	study	Phase2	study/STIM_006.jpg	100
783.233	0.733	732.7	study	Phase2	study/STIM_006.jpg	99
787.301	0.783	783.4	study	Phase2	study/STIM_006.jpg	100
790.887	0.669	668.6	study	Phase2	study/STIM_007.jpg	99
795.204	1.052	1052.3	study	Phase2	study/STIM_007.jpg	100
800.169	0.532	532.5	study	Phase2	study/STIM_007.jpg	100
803.222	0.62	620.3	study	Phase2	study/STIM_008.jpg	99
807.088	1.158	1158.1	study	Phase2	study/STIM_008.jpg	99
811.863	0.819	818.7	study	Phase2	study/STIM_008.jpg	100
816.368	0.925	925.3	study	Phase2	study/STIM_009.jpg	99
820.259	0.817	816.7	study	Phase2	study/STIM_009.jpg	100
824.428	0.985	985.3	study	Phase2	study/STIM_009.jpg	100
828.555	1.25	1250.5	study	Phase2	study/STIM_010.jpg	100
832.26	0.683	683.4	study	Phase2	study/STIM_010.jpg	100
835.773	0.532	531.9	study	Phase2	study/STIM_010.jpg	99
839.918	1.168	1168.2	study	Phase2	study/STIM_011.jpg	99
844.032	0.95	949.5	study	Phase2	study/STIM_011.jpg	99
848.033	0.523	523.4	study	Phase2	study/STIM_011.jpg	99
851.229	1.079	1078.6	study	Phase2	study/STIM_012.jpg	99
855.069	0.556	555.6	study	Phase2	study/STIM_012.jpg	100
858.892	0.563	562.9	study	Phase2	study/STIM_012.jpg	100
862.749	1.138	1137.8	study	Phase2	study/STIM_013.jpg	100
866.866	1.202	1201.6	study	Phase2	study/STIM_013.jpg	99
870.682	1.039	1038.9	study	Phase2	study/STIM_013.jpg	100
875.672	0.934	934.3	study	Phase2	study/STIM_014.jpg	100
880.143	0.893	893.0	study	Phase2	study/STIM_014.jpg	99
883.558	0.595	595.1	study	Phase2	study/STIM_014.jpg	99
888.04	0.951	951.3	study	Phase2	study/STIM_015.jpg	99
892.24	0.642	641.9	study	Phase2	study/STIM_015.jpg	100
896.295	1.143	1143.4	study	Phase2	study/STIM_015.jpg	100
900.26	0.655	654.6	study	Phase2	study/STIM_016.jpg	100
903.668	0.923	922.8	study	Phase2	study/STIM_016.jpg	99
907.046	1.018	1018.1	study	Phase2	study/STIM_016.jpg	100
910.711	1.088	1088.2	study	Phase2	study/STIM_017.jpg	99
915.655	1.014	1013.8	study	Phase2	study/STIM_017.jpg	99
918.768	0.902	902.4	study	Phase2	study/STIM_017.jpg	99
922.256	0.777	777.0	study	Phase2	study/STIM_018.jpg	100
926.446	0.574	573.5	study	Phase2	study/STIM_018.jpg	99
929.361	0.607	606.8	study	Phase2	study/STIM_018.jpg	100
932.589	0.908	907.5	study	Phase2	study/STIM_019.jpg	100
936.793	0.874	874.2	study	Phase2	study/STIM_019.jpg	100
940.372	0.994	993.9	study	Phase2	study/STIM_019.jpg	100
944.384	0.989	989.2	study	Phase2	study/STIM_020.jpg	100
948.316	0.743	742.9	study	Phase2	study/STIM_020.jpg	100
951.491	0.968	968.0	study	Phase2	study/STIM_020.jpg	99
955.019	0.884	883.5	study	Phase2	study/STIM_021.jpg	99
958.376	1.087	1087.0	study	Phase2	study/STIM_021.jpg	99
961.875	0.682	682.3	study	Phase2	study/STIM_021.jpg	100
964.976	0.829	829.4	study	Phase2	study/STIM_022.jpg	100
968.927	0.868	867.9	study	Phase2	study/STIM_022.jpg	100
972.234	0.995	994.6	study	Phase2	study/STIM_022.jpg	100
976.461	1.222	1221.8	study	Phase2	study/STIM_023.jpg	99
981.131	1.115	1115.3	study	Phase2	study/STIM_023.jpg	99
985.658	1.11	1109.8	study	Phase2	study/STIM_023.jpg	99
989.14	0.678	677.9	study	Phase2	study/STIM_024.jpg	100
992.025	0.904	904.0	study	Phase2	study/STIM_024.jpg	99
995.376	0.8	800.1	study	Phase2	study/STIM_024.jpg	100
999.307	1.101	1101.1	study	Phase2	study/STIM_025.jpg	100
1002.569	0.592	592.5	study	Phase2	study/STIM_025.jpg	99
1005.245	0.998	997.7	study	Phase2	study/STIM_025.jpg	99
1010.121	0.941	940.8	study	Phase2	study/STIM_026.jpg	99
1014.623	1.042	1041.5	study	Phase2	study/STIM_026.jpg	100
1019.535	0.789	788.7	study	Phase2	study/STIM_026.jpg	100
1023.084	1.198	1198.2	study	Phase2	study/STIM_027.jpg	100
1026.86	1.017	1017.2	study	Phase2	study/STIM_027.jpg	99
1030.336	0.713	713.2	study	Phase2	study/STIM_027.jpg	99
1034.828	1.078	1078.4	study	Phase2	study/STIM_028.jpg	99
1038.993	0.598	598.1	study	Phase2	study/STIM_028.jpg	100
1042.7	0.728	727.7	study	Phase2	study/STIM_028.jpg	100
1046.361	1.072	1072.5	study	Phase2	study/STIM_029.jpg	99
1051.038	1.059	1059.0	study	Phase2	study/STIM_029.jpg	100
1056.067	0.707	706.7	study	Phase2	study/STIM_029.jpg	99
1060.485	0.865	865.3	test	Phase2	test/STIM_000.jpg	99
1064.179	0.872	871.9	test	Phase2	test/STIM_000.jpg	99
1069.023	0.998	998.0	test	Phase2	test/STIM_000.jpg	100
1073.409	0.628	628.3	test	Phase2	test/STIM_001.jpg	100
1077.767	0.755	754.9	test	Phase2	test/STIM_001.jpg	100
1081.645	0.77	769.7	test	Phase2	test/STIM_001.jpg	100
1085.382	0.936	936.1	test	Phase2	test/STIM_002.jpg	100
1088.71	0.715	714.6	test	Phase2	test/STIM_002.jpg	100
1093.348	0.736	736.3	test	Phase2	test/STIM_002.jpg	99
1097.392	0.769	768.7	test	Phase2	test/STIM_003.jpg	99
1101.949	0.825	825.4	test	Phase2	test/STIM_003.jpg	100
1104.891	0.935	935.2	test	Phase2	test/STIM_003.jpg	99
1108.544	0.648	648.5	test	Phase2	test/STIM_004.jpg	99
1112.046	0.91	909.9	test	Phase2	test/STIM_004.jpg	100
1115.784	1.008	1008.4	test	Phase2	test/STIM_004.jpg	99
1119.999	0.643	642.6	test	Phase2	test/STIM_005.jpg	99
1124.497	0.857	857.4	test	Phase2	test/STIM_005.jpg	99
1129.158	1.085	1084.8	test	Phase2	test/STIM_005.jpg	100
1132.25	1.079	1078.7	test	Phase2	test/STIM_006.jpg	99
1135.408	0.55	549.6	test	Phase2	test/STIM_006.jpg	100
1139.2	0.758	758.5	test	Phase2	test/STIM_006.jpg	100
1142.911	0.782	782.5	test	Phase2	test/STIM_007.jpg	100
1146.253	0.647	647.2	test	Phase2	test/STIM_007.jpg	99
1149.508	0.877	877.1	test	Phase2	test/STIM_007.jpg	100
1153.058	0.742	741.7	test	Phase2	test/STIM_008.jpg	99
1157.745	0.656	656.5	test	Phase2	test/STIM_008.jpg	100
1161.818	0.52	519.6	test	Phase2	test/STIM_008.jpg	99
1165.85	0.927	927.2	test	Phase2	test/STIM_009.jpg	100
1169.888	0.669	668.8	test	Phase2	test/STIM_009.jpg	100
1174.229	1.056	1056.1	test	Phase2	test/STIM_009.jpg	99
1178.859	0.963	962.6	test	Phase2	test/STIM_010.jpg	100
1182.665	0.771	770.8	test	Phase2	test/STIM_010.jpg	99
1187.111	0.573	573.3	test	Phase2	test/STIM_010.jpg	100
1191.208	0.99	989.7	test	Phase2	test/STIM_011.jpg	99
1195.249	1.033	1032.7	test	Phase2	test/STIM_011.jpg	100
1199.132	1.001	1000.7	test	Phase2	test/STIM_011.jpg	100
1203.852	0.704	703.6	test	Phase2	test/STIM_012.jpg	99
1207.024	0.57	570.1	test	Phase2	test/STIM_012.jpg	100
1210.979	0.645	645.1	test	Phase2	test/STIM_012.jpg	99
1214.657	0.793	793.3	test	Phase2	test/STIM_013.jpg	99
1218.836	0.789	788.6	test	Phase2	test/STIM_013.jpg	100
1223.385	0.774	774.2	test	Phase2	test/STIM_013.jpg	100
1227.218	0.906	906.1	test	Phase2	test/STIM_014.jpg	99
1231.724	0.92	919.6	test	Phase2	test/STIM_014.jpg	100
1235.486	1.096	1095.5	test	Phase2	test/STIM_014.jpg	99
1239.737	0.702	702.4	test	Phase2	test/STIM_015.jpg	99
1242.535	0.544	543.9	test	Phase2	test/STIM_015.jpg	100
1245.947	0.722	721.7	test	Phase2	test/STIM_015.jpg	99
1250.073	0.637	637.4	test	Phase2	test/STIM_016.jpg	100
1254.626	0.871	871.4	test	Phase2	test/STIM_016.jpg	99
1259.1	0.832	832.5	test	Phase2	test/STIM_016.jpg	99
1262.346	0.755	755.2	test	Phase2	test/STIM_017.jpg	100
1265.225	0.648	647.8	test	Phase2	test/STIM_017.jpg	99
1268.116	0.895	895.4	test	Phase2	test/STIM_017.jpg	99
1272.223	0.747	747.0	test	Phase2	test/STIM_018.jpg	99
1276.135	0.928	927.6	test	Phase2	test/STIM_018.jpg	99
1280.337	0.818	817.5	test	Phase2	test/STIM_018.jpg	99
1284.425	0.932	931.9	test	Phase2	test/STIM_019.jpg	99
1288.531	0.61	610.1	test	Phase2	test/STIM_019.jpg	100
1291.662	1.07	1070.1	test	Phase2	test/STIM_019.jpg	99
1295.838	0.668	668.0	test	Phase2	test/STIM_020.jpg	99
1300.303	1.054	1053.8	test	Phase2	test/STIM_020.jpg	100
1304.951	0.785	785.2	test	Phase2	test/STIM_020.jpg	99
1309.215	0.886	886.2	test	Phase2	test/STIM_021.jpg	99
1312.25	0.708	708.1	test	Phase2	test/STIM_021.jpg	100
1315.617	0.819	818.8	test	Phase2	test/STIM_021.jpg	99
1319.325	0.738	737.7	test	Phase2	test/STIM_022.jpg	99
1323.27	0.91	909.9	test	Phase2	test/STIM_022.jpg	100
1326.831	0.529	529.0	test	Phase2	test/STIM_022.jpg	100
1329.89	0.556	555.7	test	Phase2	test/STIM_023.jpg	100
1334.442	0.577	576.9	test	Phase2	test/STIM_023.jpg	99
1337.256	0.92	919.7	test	Phase2	test/STIM_023.jpg	100
1341.981	0.585	584.8	test	Phase2	test/STIM_024.jpg	100
1344.748	0.762	761.6	test	Phase2	test/STIM_024.jpg	99
1349.072	0.952	951.6	test	Phase2	test/STIM_024.jpg	99
1353.791	0.787	786.9	test	Phase2	test/STIM_025.jpg	99
1358.253	0.685	684.6	test	Phase2	test/STIM_025.jpg	100
1361.19	0.883	883.0	test	Phase2	test/STIM_025.jpg	99
1364.593	0.954	954.2	test	Phase2	test/STIM_026.jpg	100
1369.388	0.868	868.5	test	Phase2	test/STIM_026.jpg	99
1373.763	0.672	671.5	test	Phase2	test/STIM_026.jpg	100
1377.391	0.528	527.7	test	Phase2	test/STIM_027.jpg	100
1380.867	0.581	581.3	test	Phase2	test/STIM_027.jpg	99
1384.375	0.956	956.5	test	Phase2	test/STIM_027.jpg	99
1388.424	0.802	802.1	test	Phase2	test/STIM_028.jpg	100
1391.612	0.604	604.5	test	Phase2	test/STIM_028.jpg	99
1395.146	0.992	992.2	test	Phase2	test/STIM_028.jpg	99
1398.526	0.824	823.6	test	Phase2	test/STIM_029.jpg	99
1402.198	0.843	843.0	test	Phase2	test/STIM_029.jpg	100
1406.666	1.06	1060.5	test	Phase2	test/STIM_029.jpg	100
1410.008	0.533	532.9	study	Phase3	study/STIM_000.jpg	100
1413.424	0.868	868.5	study	Phase3	study/STIM_000.jpg	99
1418.099	1.048	1047.8	study	Phase3	study/STIM_000.jpg	99
1422.853	0.772	771.9	study	Phase3	study/STIM_001.jpg	100
1427.195	0.538	537.9	study	Phase3	study/STIM_001.jpg	99
1431.074	1.009	1008.9	study	Phase3	study/STIM_001.jpg	100
1435.119	0.538	538.0	study	Phase3	study/STIM_002.jpg	100
1438.304	0.544	544.2	study	Phase3	study/STIM_002.jpg	100
1441.442	1.07	1069.5	study	Phase3	study/STIM_002.jpg	99
1444.859	0.768	768.5	study	Phase3	study/STIM_003.jpg	99
1448.612	0.804	804.4	study	Phase3	study/STIM_003.jpg	100
1452.789	0.775	775.2	study	Phase3	study/STIM_003.jpg	100
1457.195	0.621	620.7	study	Phase3	study/STIM_004.jpg	99
1461.222	1.071	1070.7	study	Phase3	study/STIM_004.jpg	100
1464.812	0.576	576.2	study	Phase3	study/STIM_004.jpg	99
1468.044	0.737	737.1	study	Phase3	study/STIM_005.jpg	100
1471.328	0.512	512.5	study	Phase3	study/STIM_005.jpg	100
1475.551	0.782	781.9	study	Phase3	study/STIM_005.jpg	100
1479.341	0.648	648.0	study	Phase3	study/STIM_006.jpg	99
1483.378	0.805	804.9	study	Phase3	study/STIM_006.jpg	99
1487.693	0.919	919.0	study	Phase3	study/STIM_006.jpg	100
1492.217	0.803	802.6	study	Phase3	study/STIM_007.jpg	99
1496.095	0.851	850.7	study	Phase3	study/STIM_007.jpg	99
1499.78	0.684	683.9	study	Phase3	study/STIM_007.jpg	99
1502.647	0.578	578.1	study	Phase3	study/STIM_008.jpg	99
1505.971	1.02	1020.5	study	Phase3	study/STIM_008.jpg	99
1509.824	0.67	669.5	study	Phase3	study/STIM_008.jpg	99
1512.594	0.6	600.2	study	Phase3	study/STIM_009.jpg	100
1517.18	0.826	825.6	study	Phase3	study/STIM_009.jpg	99
1520.55	0.583	582.9	study	Phase3	study/STIM_009.jpg	99
1524.727	0.78	780.4	study	Phase3	study/STIM_010.jpg	100
1528.17	0.815	815.3	study	Phase3	study/STIM_010.jpg	99
1531.601	0.875	874.6	study	Phase3	study/STIM_010.jpg	99
1535.71	0.995	995.1	study	Phase3	study/STIM_011.jpg	99
1540.5	0.53	529.7	study	Phase3	study/STIM_011.jpg	99
1544.251	0.819	818.7	study	Phase3	study/STIM_011.jpg	100
1548.668	1.068	1067.9	study	Phase3	study/STIM_012.jpg	99
1553.526	0.817	817.2	study	Phase3	study/STIM_012.jpg	99
1556.695	0.959	958.8	study	Phase3	study/STIM_012.jpg	100
1561.42	0.888	887.8	study	Phase3	study/STIM_013.jpg	99
1564.689	0.974	973.6	study	Phase3	study/STIM_013.jpg	99
1568.383	0.749	749.1	study	Phase3	study/STIM_013.jpg	99
1571.81	0.536	535.8	study	Phase3	study/STIM_014.jpg	99
1575.121	0.692	691.6	study	Phase3	study/STIM_014.jpg	100
1579.607	0.613	612.8	study	Phase3	study/STIM_014.jpg	99
1583.982	0.503	502.8	study	Phase3	study/STIM_015.jpg	100
1587.306	0.878	878.1	study	Phase3	study/STIM_015.jpg	99
1591.575	0.635	635.0	study	Phase3	study/STIM_015.jpg	99
1596.105	0.492	491.7	study	Phase3	study/STIM_016.jpg	100
1598.935	0.718	718.0	study	Phase3	study/STIM_016.jpg	100
1602.065	1.003	1003.2	study	Phase3	study/STIM_016.jpg	99
1605.801	0.881	880.8	study	Phase3	study/STIM_017.jpg	99
1609.376	0.924	923.6	study	Phase3	study/STIM_017.jpg	99
1612.701	0.968	968.2	study	Phase3	study/STIM_017.jpg	99
1616.665	0.799	799.0	study	Phase3	study/STIM_018.jpg	99
1620.482	0.733	733.0	study	Phase3	study/STIM_018.jpg	99
1623.51	0.839	838.8	study	Phase3	study/STIM_018.jpg	100
1627.724	1.012	1012.4	study	Phase3	study/STIM_019.jpg	99
1631.28	0.994	994.5	study	Phase3	study/STIM_019.jpg	99
1635.694	0.571	570.8	study	Phase3	study/STIM_019.jpg	99
1639.363	0.644	643.6	study	Phase3	study/STIM_020.jpg	99
1643.4	0.489	489.0	study	Phase3	study/STIM_020.jpg	100
1646.972	0.614	614.5	study	Phase3	study/STIM_020.jpg	100
1650.194	0.649	648.6	study	Phase3	study/STIM_021.jpg	99
1654.195	1.041	1041.2	study	Phase3	study/STIM_021.jpg	99
1658.029	0.522	522.2	study	Phase3	study/STIM_021.jpg	100
1661.446	0.908	907.6	study	Phase3	study/STIM_022.jpg	99
1666.042	0.804	803.9	study	Phase3	study/STIM_022.jpg	100
1669.004	0.792	791.5	study	Phase3	study/STIM_022.jpg	100
1672.996	0.496	495.8	study	Phase3	study/STIM_023.jpg	100
1676.088	0.632	631.9	study	Phase3	study/STIM_023.jpg	99
1679.804	0.943	943.3	study	Phase3	study/STIM_023.jpg	100
1683.628	0.804	804.0	study	Phase3	study/STIM_024.jpg	99
1688.261	0.994	994.5	study	Phase3	study/STIM_024.jpg	100
1691.256	1.024	1024.4	study	Phase3	study/STIM_024.jpg	99
1694.769	0.574	573.6	study	Phase3	study/STIM_025.jpg	100
1698.948	0.831	830.8	study	Phase3	study/STIM_025.jpg	100
1702.242	0.774	774.3	study	Phase3	study/STIM_025.jpg	99
1706.669	0.921	920.6	study	Phase3	study/STIM_026.jpg	100
1711.129	0.691	691.1	study	Phase3	study/STIM_026.jpg	99
1715.038	0.849	848.8	study	Phase3	study/STIM_026.jpg	99
1719.21	0.523	523.0	study	Phase3	study/STIM_027.jpg	100
1723.061	0.66	660.1	study	Phase3	study/STIM_027.jpg	100
1725.971	0.734	733.9	study	Phase3	study/STIM_027.jpg	100
1729.275	0.802	801.9	study	Phase3	study/STIM_028.jpg	99
1732.104	1.024	1024.1	study	Phase3	study/STIM_028.jpg	99
1736.866	0.505	505.3	study	Phase3	study/STIM_028.jpg	100
1740.017	0.69	689.9	study	Phase3	study/STIM_029.jpg	99
1742.729	0.868	867.9	study	Phase3	study/STIM_029.jpg	99
1747.243	0.951	950.7	study	Phase3	study/STIM_029.jpg	100
1750.619	0.898	898.4	test	Phase3	test/STIM_000.jpg	100
1753.898	0.894	893.7	test	Phase3	test/STIM_000.jpg	100
1758.574	0.873	873.4	test	Phase3	test/STIM_000.jpg	99
1763.444	0.846	845.9	test	Phase3	test/STIM_001.jpg	99
1768.109	0.657	657.3	test	Phase3	test/STIM_001.jpg	100
1772.034	0.574	574.0	test	Phase3	test/STIM_001.jpg	99
1775.455	0.846	846.0	test	Phase3	test/STIM_002.jpg	100
1778.743	0.742	742.5	test	Phase3	test/STIM_002.jpg	99
1782.701	0.954	954.5	test	Phase3	test/STIM_002.jpg	99
1786.147	0.89	890.2	test	Phase3	test/STIM_003.jpg	100
1789.38	0.761	760.6	test	Phase3	test/STIM_003.jpg	99
1794.106	1.028	1027.7	test	Phase3	test/STIM_003.jpg	99
1798.911	0.959	959.2	test	Phase3	test/STIM_004.jpg	100
1801.979	0.791	790.9	test	Phase3	test/STIM_004.jpg	99
1805.937	0.622	621.7	test	Phase3	test/STIM_004.jpg	99
1809.194	0.674	673.6	test	Phase3	test/STIM_005.jpg	99
1812.897	1.031	1031.1	test	Phase3	test/STIM_005.jpg	100
1817.599	1.048	1048.4	test	Phase3	test/STIM_005.jpg	99
1821.339	0.551	550.9	test	Phase3	test/STIM_006.jpg	99
1824.022	0.963	962.6	test	Phase3	test/STIM_006.jpg	100
1828.882	0.769	768.9	test	Phase3	test/STIM_006.jpg	100
1832.216	0.696	696.4	test	Phase3	test/STIM_007.jpg	100
1836.909	0.828	827.9	test	Phase3	test/STIM_007.jpg	100
1841.309	0.996	995.5	test	Phase3	test/STIM_007.jpg	100
1845.078	0.632	631.8	test	Phase3	test/STIM_008.jpg	100
1849.628	0.966	966.2	test	Phase3	test/STIM_008.jpg	100
1853.085	1.112	1111.6	test	Phase3	test/STIM_008.jpg	100
1857.883	0.73	730.3	test	Phase3	test/STIM_009.jpg	100
1862.278	0.571	570.8	test	Phase3	test/STIM_009.jpg	100
1866.753	0.937	937.2	test	Phase3	test/STIM_009.jpg	100
1871.205	0.553	552.7	test	Phase3	test/STIM_010.jpg	100
1874.74	0.738	737.9	test	Phase3	test/STIM_010.jpg	100
1879.041	0.525	525.1	test	Phase3	test/STIM_010.jpg	100
1881.566	0.554	554.2	test	Phase3	test/STIM_011.jpg	100
1885.802	0.604	603.6	test	Phase3	test/STIM_011.jpg	99
1889.763	0.654	654.5	test	Phase3	test/STIM_011.jpg	100
1894.24	0.825	824.7	test	Phase3	test/STIM_012.jpg	99
1898.32	0.873	872.9	test	Phase3	test/STIM_012.jpg	100
1901.375	0.611	610.6	test	Phase3	test/STIM_012.jpg	99
1904.504	0.79	789.7	test	Phase3	test/STIM_013.jpg	100
1909.075	0.885	884.9	test	Phase3	test/STIM_013.jpg	100
1913.014	0.57	570.4	test	Phase3	test/STIM_013.jpg	100
1917.228	0.633	633.1	test	Phase3	test/STIM_014.jpg	100
1920.52	0.75	750.4	test	Phase3	test/STIM_014.jpg	100
1923.541	0.667	667.3	test	Phase3	test/STIM_014.jpg	100
1926.981	0.897	897.2	test	Phase3	test/STIM_015.jpg	100
1930.976	0.666	665.9	test	Phase3	test/STIM_015.jpg	99
1933.689	0.776	776.2	test	Phase3	test/STIM_015.jpg	100
1936.829	0.671	670.7	test	Phase3	test/STIM_016.jpg	100
1939.641	0.726	725.7	test	Phase3	test/STIM_016.jpg	99
1943.075	0.794	793.6	test	Phase3	test/STIM_016.jpg	100
1947.165	1.088	1088.3	test	Phase3	test/STIM_017.jpg	100
1951.841	1.089	1089.4	test	Phase3	test/STIM_017.jpg	100
1956.165	1.05	1050.5	test	Phase3	test/STIM_017.jpg	99
1961.17	0.577	576.7	test	Phase3	test/STIM_018.jpg	99
1965.702	0.745	744.8	test	Phase3	test/STIM_018.jpg	99
1968.507	0.935	934.7	test	Phase3	test/STIM_018.jpg	100
1972.207	0.529	529.1	test	Phase3	test/STIM_019.jpg	99
1976.52	0.951	951.4	test	Phase3	test/STIM_019.jpg	99
1979.581	1.001	1000.9	test	Phase3	test/STIM_019.jpg	100
1982.823	0.698	697.8	test	Phase3	test/STIM_020.jpg	100
1986.572	1.092	1092.3	test	Phase3	test/STIM_020.jpg	99
1991.018	0.823	823.2	test	Phase3	test/STIM_020.jpg	99
1994.638	0.655	654.6	test	Phase3	test/STIM_021.jpg	100
1998.999	0.816	816.1	test	Phase3	test/STIM_021.jpg	99
2002.903	0.596	596.5	test	Phase3	test/STIM_021.jpg	99
2006.061	0.881	880.6	test	Phase3	test/STIM_022.jpg	100
2010.595	1.074	1074.3	test	Phase3	test/STIM_022.jpg	100
2015.15	0.561	561.2	test	Phase3	test/STIM_022.jpg	99
2017.961	0.786	786.4	test	Phase3	test/STIM_023.jpg	100
2021.321	0.906	906.4	test	Phase3	test/STIM_023.jpg	99
2025.342	0.765	764.6	test	Phase3	test/STIM_023.jpg	100
2028.255	0.658	658.5	test	Phase3	test/STIM_024.jpg	100
2032.151	0.996	995.5	test	Phase3	test/STIM_024.jpg	100
2035.92	1.008	1007.8	test	Phase3	test/STIM_024.jpg	99
2039.166	0.818	818.0	test	Phase3	test/STIM_025.jpg	99
2043.184	0.946	946.2	test	Phase3	test/STIM_025.jpg	100
2046.986	0.66	659.9	test	Phase3	test/STIM_025.jpg	99
2051.392	0.686	685.7	test	Phase3	test/STIM_026.jpg	100
2054.584	0.579	578.9	test	Phase3	test/STIM_026.jpg	99
2058.239	1.103	1102.6	test	Phase3	test/STIM_026.jpg	100
2061.782	0.617	616.7	test	Phase3	test/STIM_027.jpg	100
2064.784	0.975	975.3	test	Phase3	test/STIM_027.jpg	100
2069.754	0.831	831.0	test	Phase3	test/STIM_027.jpg	100
2073.3	0.932	931.9	test	Phase3	test/STIM_028.jpg	99
2076.89	0.676	675.9	test	Phase3	test/STIM_028.jpg	100
2080.148	0.779	779.0	test	Phase3	test/STIM_028.jpg	100
2083.1	0.628	628.2	test	Phase3	test/STIM_029.jpg	99
2087.115	0.761	761.1	test	Phase3	test/STIM_029.jpg	100
2091.294	0.632	631.9	test	Phase3	test/STIM_029.jpg	99
