onset	duration	accuracy_binary	trial_type	learning_stage	stimulus
0.0	0.974	1	study	Phase1	study/STIM_000.jpg
5.157	1.101	0	study	Phase1	study/STIM_000.jpg
9.497	0.992	1	study	Phase1	study/STIM_000.jpg
12.968	1.033	1	study	Phase1	study/STIM_001.jpg
17.757	1.132	1	study	Phase1	study/STIM_001.jpg
22.86	1.123	1	study	Phase1	study/STIM_001.jpg
26.226	1.332	0	study	Phase1	study/STIM_002.jpg
31.474	0.65	1	study	Phase1	study/STIM_002.jpg
36.165	1.319	0	study	Phase1	study/STIM_002.jpg
41.186	0.81	1	study	Phase1	study/STIM_003.jpg
45.945	0.784	0	study	Phase1	study/STIM_003.jpg
48.849	0.602	1	study	Phase1	study/STIM_003.jpg
53.21	0.915	1	study	Phase1	study/STIM_004.jpg
57.884	0.953	1	study	Phase1	study/STIM_004.jpg
61.137	1.091	1	study	Phase1	study/STIM_004.jpg
65.897	0.957	1	study	Phase1	study/STIM_005.jpg
70.248	1.186	1	study	Phase1	study/STIM_005.jpg
74.128	1.192	1	study	Phase1	study/STIM_005.jpg
77.987	1.229	1	study	Phase1	study/STIM_006.jpg
82.114	1.09	0	study	Phase1	study/STIM_006.jpg
85.624	1.091	1	study	Phase1	study/STIM_006.jpg
90.889	0.716	1	study	Phase1	study/STIM_007.jpg
94.547	0.669	1	study	Phase1	study/STIM_007.jpg
97.561	0.928	1	study	Phase1	study/STIM_007.jpg
101.345	1.098	1	study	Phase1	study/STIM_008.jpg
105.743	0.741	1	study	Phase1	study/STIM_008.jpg
110.437	0.81	1	study	Phase1	study/STIM_008.jpg
114.656	1.165	1	study	Phase1	study/STIM_009.jpg
119.305	0.624	1	study	Phase1	study/STIM_009.jpg
123.157	0.549	1	study	Phase1	study/STIM_009.jpg
127.204	1.402	0	study	Phase1	study/STIM_010.jpg
132.744	1.197	1	study	Phase1	study/STIM_010.jpg
136.578	1.086	1	study	Phase1	study/STIM_010.jpg
140.855	1.208	1	study	Phase1	study/STIM_011.jpg
145.093	0.751	0	study	Phase1	study/STIM_011.jpg
148.843	0.796	1	study	Phase1	study/STIM_011.jpg
153.443	1.326	1	study	Phase1	study/STIM_012.jpg
158.794	0.688	1	study	Phase1	study/STIM_012.jpg
161.88	0.757	1	study	Phase1	study/STIM_012.jpg
166.028	1.233	1	study	Phase1	study/STIM_013.jpg
170.806	1.266	0	study	Phase1	study/STIM_013.jpg
175.529	1.058	1	study	Phase1	study/STIM_013.jpg
179.236	0.732	1	study	Phase1	study/STIM_014.jpg
183.575	0.909	1	study	Phase1	study/STIM_014.jpg
186.723	1.304	1	study	Phase1	study/STIM_014.jpg
190.442	0.739	0	study	Phase1	study/STIM_015.jpg
193.481	1.201	0	study	Phase1	study/STIM_015.jpg
197.469	1.16	1	study	Phase1	study/STIM_015.jpg
201.528	0.956	1	study	Phase1	study/STIM_016.jpg
205.91	0.717	1	study	Phase1	study/STIM_016.jpg
210.123	1.16	1	study	Phase1	study/STIM_016.jpg
215.368	1.106	1	study	Phase1	study/STIM_017.jpg
219.39	1.299	1	study	Phase1	study/STIM_017.jpg
224.696	0.876	1	study	Phase1	study/STIM_017.jpg
228.263	1.4	1	study	Phase1	study/STIM_018.jpg
232.78	1.069	1	study	Phase1	study/STIM_018.jpg
236.768	1.012	1	study	Phase1	study/STIM_018.jpg
240.97	1.534	0	study	Phase1	study/STIM_019.jpg
245.792	1.123	0	study	Phase1	study/STIM_019.jpg
251.036	0.822	1	study	Phase1	study/STIM_019.jpg
254.008	0.98	0	study	Phase1	study/STIM_020.jpg
258.645	1.146	0	study	Phase1	study/STIM_020.jpg
262.511	1.268	1	study	Phase1	study/STIM_020.jpg
266.632	1.203	1	study	Phase1	study/STIM_021.jpg
270.561	0.974	1	study	Phase1	study/STIM_021.jpg
275.583	0.642	1	study	Phase1	study/STIM_021.jpg
278.713	0.594	1	study	Phase1	study/STIM_022.jpg
283.488	0.77	1	study	Phase1	study/STIM_022.jpg
286.862	1.281	1	study	Phase1	study/STIM_022.jpg
290.647	1.146	1	study	Phase1	study/STIM_023.jpg
294.795	1.042	1	study	Phase1	study/STIM_023.jpg
299.302	1.252	0	study	Phase1	study/STIM_023.jpg
304.562	1.503	1	study	Phase1	study/STIM_024.jpg
308.33	1.021	1	study	Phase1	study/STIM_024.jpg
312.05	0.843	1	study	Phase1	study/STIM_024.jpg
316.207	0.697	1	study	Phase1	study/STIM_025.jpg
320.534	0.939	0	study	Phase1	study/STIM_025.jpg
323.864	0.88	1	study	Phase1	study/STIM_025.jpg
327.088	0.993	0	study	Phase1	study/STIM_026.jpg
331.493	1.086	0	study	Phase1	study/STIM_026.jpg
334.943	1.21	1	study	Phase1	study/STIM_026.jpg
339.064	1.128	1	study	Phase1	study/STIM_027.jpg
344.036	1.176	1	study	Phase1	study/STIM_027.jpg
348.925	0.849	1	study	Phase1	study/STIM_027.jpg
352.961	1.282	1	study	Phase1	study/STIM_028.jpg
356.56	1.298	1	study	Phase1	study/STIM_028.jpg
361.274	0.975	1	study	Phase1	study/STIM_028.jpg
365.837	1.155	1	study	Phase1	study/STIM_029.jpg
369.613	0.992	1	study	Phase1	study/STIM_029.jpg
373.449	1.007	1	study	Phase1	study/STIM_029.jpg
378.246	0.596	1	test	Phase1	test/STIM_000.jpg
382.439	0.765	1	test	Phase1	test/STIM_000.jpg
386.329	0.953	1	test	Phase1	test/STIM_000.jpg
390.785	0.965	1	test	Phase1	test/STIM_001.jpg
395.701	1.058	1	test	Phase1	test/STIM_001.jpg
400.477	0.778	0	test	Phase1	test/STIM_001.jpg
405.14	0.908	1	test	Phase1	test/STIM_002.jpg
409.476	0.961	1	test	Phase1	test/STIM_002.jpg
413.098	0.779	1	test	Phase1	test/STIM_002.jpg
417.134	1.127	1	test	Phase1	test/STIM_003.jpg
421.722	0.763	1	test	Phase1	test/STIM_003.jpg
425.854	0.828	1	test	Phase1	test/STIM_003.jpg
430.277	0.666	1	test	Phase1	test/STIM_004.jpg
434.085	0.742	1	test	Phase1	test/STIM_004.jpg
438.702	0.671	1	test	Phase1	test/STIM_004.jpg
442.257	0.624	1	test	Phase1	test/STIM_005.jpg
445.302	0.987	0	test	Phase1	test/STIM_005.jpg
449.671	0.556	1	test	Phase1	test/STIM_005.jpg
453.267	0.981	0	test	Phase1	test/STIM_006.jpg
457.87	0.978	1	test	Phase1	test/STIM_006.jpg
462.406	0.619	1	test	Phase1	test/STIM_006.jpg
467.106	1.089	1	test	Phase1	test/STIM_007.jpg
471.076	0.718	1	test	Phase1	test/STIM_007.jpg
474.128	0.749	1	test	Phase1	test/STIM_007.jpg
478.135	0.888	0	test	Phase1	test/STIM_008.jpg
482.495	1.082	1	test	Phase1	test/STIM_008.jpg
485.895	0.808	1	test	Phase1	test/STIM_008.jpg
489.615	0.848	0	test	Phase1	test/STIM_009.jpg
492.913	1.101	1	test	Phase1	test/STIM_009.jpg
496.736	0.778	1	test	Phase1	test/STIM_009.jpg
499.776	0.998	1	test	Phase1	test/STIM_010.jpg
504.648	1.078	1	test	Phase1	test/STIM_010.jpg
508.201	0.59	1	test	Phase1	test/STIM_010.jpg
511.192	0.686	1	test	Phase1	test/STIM_011.jpg
514.685	0.629	1	test	Phase1	test/STIM_011.jpg
519.058	0.687	1	test	Phase1	test/STIM_011.jpg
523.23	0.989	1	test	Phase1	test/STIM_012.jpg
527.376	0.942	1	test	Phase1	test/STIM_012.jpg
531.111	0.632	1	test	Phase1	test/STIM_012.jpg
535.04	0.715	1	test	Phase1	test/STIM_013.jpg
538.704	0.955	1	test	Phase1	test/STIM_013.jpg
543.034	0.874	1	test	Phase1	test/STIM_013.jpg
546.879	0.968	1	test	Phase1	test/STIM_014.jpg
551.782	1.037	1	test	Phase1	test/STIM_014.jpg
556.555	0.854	1	test	Phase1	test/STIM_014.jpg
561.518	0.714	0	test	Phase1	test/STIM_015.jpg
564.89	0.887	1	test	Phase1	test/STIM_015.jpg
569.738	0.766	1	test	Phase1	test/STIM_015.jpg
573.124	0.704	1	test	Phase1	test/STIM_016.jpg
576.459	0.83	1	test	Phase1	test/STIM_016.jpg
580.18	0.878	1	test	Phase1	test/STIM_016.jpg
583.322	0.895	0	test	Phase1	test/STIM_017.jpg
588.041	0.896	1	test	Phase1	test/STIM_017.jpg
592.449	0.49	0	test	Phase1	test/STIM_017.jpg
596.773	0.908	1	test	Phase1	test/STIM_018.jpg
600.476	0.716	1	test	Phase1	test/STIM_018.jpg
605.282	0.758	0	test	Phase1	test/STIM_018.jpg
609.976	0.693	1	test	Phase1	test/STIM_019.jpg
613.295	0.775	1	test	Phase1	test/STIM_019.jpg
617.149	0.959	1	test	Phase1	test/STIM_019.jpg
620.586	0.697	1	test	Phase1	test/STIM_020.jpg
624.529	0.856	1	test	Phase1	test/STIM_020.jpg
629.04	1.059	1	test	Phase1	test/STIM_020.jpg
633.714	1.085	1	test	Phase1	test/STIM_021.jpg
638.303	0.902	0	test	Phase1	test/STIM_021.jpg
642.573	1.14	1	test	Phase1	test/STIM_021.jpg
647.557	0.946	1	test	Phase1	test/STIM_022.jpg
651.838	0.722	1	test	Phase1	test/STIM_022.jpg
655.683	0.992	1	test	Phase1	test/STIM_022.jpg
660.235	1.099	1	test	Phase1	test/STIM_023.jpg
665.007	0.602	1	test	Phase1	test/STIM_023.jpg
668.897	1.122	1	test	Phase1	test/STIM_023.jpg
672.304	0.533	1	test	Phase1	test/STIM_024.jpg
676.036	0.625	1	test	Phase1	test/STIM_024.jpg
679.882	0.463	1	test	Phase1	test/STIM_024.jpg
684.131	0.999	1	test	Phase1	test/STIM_025.jpg
687.376	0.832	1	test	Phase1	test/STIM_025.jpg
691.045	0.812	1	test	Phase1	test/STIM_025.jpg
695.235	0.818	1	test	Phase1	test/STIM_026.jpg
699.222	0.976	0	test	Phase1	test/STIM_026.jpg
703.638	0.91	1	test	Phase1	test/STIM_026.jpg
708.042	0.952	1	test	Phase1	test/STIM_027.jpg
712.017	0.529	1	test	Phase1	test/STIM_027.jpg
715.166	1.075	1	test	Phase1	test/STIM_027.jpg
720.259	0.802	1	test	Phase1	test/STIM_028.jpg
724.068	1.033	0	test	Phase1	test/STIM_028.jpg
727.891	0.551	0	test	Phase1	test/STIM_028.jpg
731.439	0.934	1	test	Phase1	test/STIM_029.jpg
736.26	0.908	1	test	Phase1	test/STIM_029.jpg
740.746	0.949	1	test	Phase1	test/STIM_029.jpg
744.091	0.724	1	study	Phase2	study/STIM_000.jpg
747.831	0.97	1	study	Phase2	study/STIM_000.jpg
751.625	1.035	1	study	Phase2	study/STIM_000.jpg
755.236	1.03	1	study	Phase2	study/STIM_001.jpg
758.688	0.834	1	study	Phase2	study/STIM_001.jpg
762.376	0.933	1	study	Phase2	study/STIM_001.jpg
766.902	0.88	1	study	Phase2	study/STIM_002.jpg
770.581	1.052	0	study	Phase2	study/STIM_002.jpg
775.621	1.034	1	study	Phase2	study/STIM_002.jpg
779.248	0.964	0	study	Phase2	study/STIM_003.jpg
783.981	0.806	0	study	Phase2	study/STIM_003.jpg
787.547	0.762	0	study	Phase2	study/STIM_003.jpg
792.071	0.62	1	study	Phase2	study/STIM_004.jpg
795.205	0.795	1	study	Phase2	study/STIM_004.jpg
799.897	0.996	1	study	Phase2	study/STIM_004.jpg
804.423	0.692	0	study	Phase2	study/STIM_005.jpg
808.014	0.727	1	study	Phase2	study/STIM_005.jpg
812.202	0.686	1	study	Phase2	study/STIM_005.jpg
815.048	0.838	1	study	Phase2	study/STIM_006.jpg
818.578	0.985	1	study	Phase2	study/STIM_006.jpg
822.411	1.118	1	study	Phase2	study/STIM_006.jpg
826.511	0.91	1	study	Phase2	study/STIM_007.jpg
829.951	0.721	1	study	Phase2	study/STIM_007.jpg
834.367	0.99	1	study	Phase2	study/STIM_007.jpg
838.494	0.768	1	study	Phase2	study/STIM_008.jpg
842.063	0.918	1	study	Phase2	study/STIM_008.jpg
845.276	0.684	1	study	Phase2	study/STIM_008.jpg
848.86	0.662	1	study	Phase2	study/STIM_009.jpg
852.163	0.608	1	study	Phase2	study/STIM_009.jpg
855.002	1.019	1	study	Phase2	study/STIM_009.jpg
858.783	0.681	1	study	Phase2	study/STIM_010.jpg
862.036	1.238	1	study	Phase2	study/STIM_010.jpg
865.495	0.885	1	study	Phase2	study/STIM_010.jpg
868.766	1.166	0	study	Phase2	study/STIM_011.jpg
872.933	1.006	0	study	Phase2	study/STIM_011.jpg
878.034	1.015	1	study	Phase2	study/STIM_011.jpg
881.935	0.578	1	study	Phase2	study/STIM_012.jpg
886.621	0.869	1	study	Phase2	study/STIM_012.jpg
889.869	0.669	1	study	Phase2	study/STIM_012.jpg
893.642	1.065	1	study	Phase2	study/STIM_013.jpg
898.812	0.918	1	study	Phase2	study/STIM_013.jpg
903.462	0.634	1	study	Phase2	study/STIM_013.jpg
906.624	0.86	1	study	Phase2	study/STIM_014.jpg
911.346	0.932	1	study	Phase2	study/STIM_014.jpg
916.002	0.678	1	study	Phase2	study/STIM_014.jpg
919.633	0.731	1	study	Phase2	study/STIM_015.jpg
922.954	0.686	1	study	Phase2	study/STIM_015.jpg
926.139	0.962	0	study	Phase2	study/STIM_015.jpg
930.537	0.822	1	study	Phase2	study/STIM_016.jpg
933.768	0.983	1	study	Phase2	study/STIM_016.jpg
937.92	0.752	0	study	Phase2	study/STIM_016.jpg
942.546	1.155	0	study	Phase2	study/STIM_017.jpg
946.407	1.159	1	study	Phase2	study/STIM_017.jpg
951.664	0.856	1	study	Phase2	study/STIM_017.jpg
956.41	1.079	1	study	Phase2	study/STIM_018.jpg
960.452	1.176	1	study	Phase2	study/STIM_018.jpg
964.196	0.726	1	study	Phase2	study/STIM_018.jpg
968.251	1.185	1	study	Phase2	study/STIM_019.jpg
973.466	0.629	1	study	Phase2	study/STIM_019.jpg
976.366	1.067	1	study	Phase2	study/STIM_019.jpg
979.796	0.796	1	study	Phase2	study/STIM_020.jpg
984.368	1.036	1	study	Phase2	study/STIM_020.jpg
987.64	1.093	0	study	Phase2	study/STIM_020.jpg
992.182	0.534	1	study	Phase2	study/STIM_021.jpg
994.933	0.922	1	study	Phase2	study/STIM_021.jpg
998.127	0.676	1	study	Phase2	study/STIM_021.jpg
1001.147	0.734	0	study	Phase2	study/STIM_022.jpg
1005.696	0.769	1	study	Phase2	study/STIM_022.jpg
1009.25	0.859	1	study	Phase2	study/STIM_022.jpg
1013.501	0.788	1	study	Phase2	study/STIM_023.jpg
1016.834	0.746	1	study	Phase2	study/STIM_023.jpg
1021.262	0.591	1	study	Phase2	study/STIM_023.jpg
1025.235	0.673	1	study	Phase2	study/STIM_024.jpg
1028.514	0.886	1	study	Phase2	study/STIM_024.jpg
1031.844	0.638	1	study	Phase2	study/STIM_024.jpg
1036.441	1.114	1	study	Phase2	study/STIM_025.jpg
1040.558	0.701	1	study	Phase2	study/STIM_025.jpg
1044.323	1.212	1	study	Phase2	study/STIM_025.jpg
1048.822	1.087	1	study	Phase2	study/STIM_026.jpg
1052.911	0.96	1	study	Phase2	study/STIM_026.jpg
1056.972	1.155	1	study	Phase2	study/STIM_026.jpg
1061.681	0.774	1	study	Phase2	study/STIM_027.jpg
1064.731	0.439	1	study	Phase2	study/STIM_027.jpg
1068.036	1.155	1	study	Phase2	study/STIM_027.jpg
1072.208	1.114	1	study	Phase2	study/STIM_028.jpg
1076.415	0.71	1	study	Phase2	study/STIM_028.jpg
1079.867	0.556	1	study	Phase2	study/STIM_028.jpg
1082.78	1.277	1	study	Phase2	study/STIM_029.jpg
1088.257	0.761	1	study	Phase2	study/STIM_029.jpg
1091.459	0.509	1	study	Phase2	study/STIM_029.jpg
1095.02	0.63	1	test	Phase2	test/STIM_000.jpg
1098.333	0.657	1	test	Phase2	test/STIM_000.jpg
1101.494	0.982	0	test	Phase2	test/STIM_000.jpg
1106.46	0.787	1	test	Phase2	test/STIM_001.jpg
1110.467	1.108	1	test	Phase2	test/STIM_001.jpg
1115.205	1.058	1	test	Phase2	test/STIM_001.jpg
1119.534	1.015	1	test	Phase2	test/STIM_002.jpg
1122.823	0.944	1	test	Phase2	test/STIM_002.jpg
1127.544	0.554	1	test	Phase2	test/STIM_002.jpg
1130.724	0.918	1	test	Phase2	test/STIM_003.jpg
1134.003	0.576	0	test	Phase2	test/STIM_003.jpg
1138.375	0.723	1	test	Phase2	test/STIM_003.jpg
1142.425	0.713	1	test	Phase2	test/STIM_004.jpg
1145.872	1.047	1	test	Phase2	test/STIM_004.jpg
1150.554	0.784	1	test	Phase2	test/STIM_004.jpg
1153.712	0.927	0	test	Phase2	test/STIM_005.jpg
1158.639	0.552	1	test	Phase2	test/STIM_005.jpg
1162.749	0.672	1	test	Phase2	test/STIM_005.jpg
1167.384	0.989	1	test	Phase2	test/STIM_006.jpg
1170.723	0.955	1	test	Phase2	test/STIM_006.jpg
1174.555	0.62	1	test	Phase2	test/STIM_006.jpg
1177.386	0.92	1	test	Phase2	test/STIM_007.jpg
1180.563	0.764	1	test	Phase2	test/STIM_007.jpg
1183.779	0.528	0	test	Phase2	test/STIM_007.jpg
1187.768	0.529	1	test	Phase2	test/STIM_008.jpg
1190.719	0.541	0	test	Phase2	test/STIM_008.jpg
1193.657	0.57	1	test	Phase2	test/STIM_008.jpg
1197.038	0.915	0	test	Phase2	test/STIM_009.jpg
1201.883	0.934	1	test	Phase2	test/STIM_009.jpg
1205.673	0.983	1	test	Phase2	test/STIM_009.jpg
1209.098	0.479	1	test	Phase2	test/STIM_010.jpg
1212.346	1.048	1	test	Phase2	test/STIM_010.jpg
1217.403	1.06	1	test	Phase2	test/STIM_010.jpg
1221.628	0.984	1	test	Phase2	test/STIM_011.jpg
1225.483	0.78	1	test	Phase2	test/STIM_011.jpg
1228.977	0.89	1	test	Phase2	test/STIM_011.jpg
1233.152	0.527	1	test	Phase2	test/STIM_012.jpg
1236.355	1.004	0	test	Phase2	test/STIM_012.jpg
1241.159	1.017	1	test	Phase2	test/STIM_012.jpg
1244.783	0.688	1	test	Phase2	test/STIM_013.jpg
1247.559	0.907	1	test	Phase2	test/STIM_013.jpg
1250.84	0.832	1	test	Phase2	test/STIM_013.jpg
1255.563	1.01	1	test	Phase2	test/STIM_014.jpg
1259.376	0.988	1	test	Phase2	test/STIM_014.jpg
1263.591	0.658	1	test	Phase2	test/STIM_014.jpg
1267.108	0.648	1	test	Phase2	test/STIM_015.jpg
1270.982	0.746	1	test	Phase2	test/STIM_015.jpg
1275.499	0.676	0	test	Phase2	test/STIM_015.jpg
1279.468	0.674	1	test	Phase2	test/STIM_016.jpg
1283.058	0.994	1	test	Phase2	test/STIM_016.jpg
1286.924	0.574	1	test	Phase2	test/STIM_016.jpg
1291.433	0.854	1	test	Phase2	test/STIM_017.jpg
1295.529	0.964	1	test	Phase2	test/STIM_017.jpg
1300.178	1.018	1	test	Phase2	test/STIM_017.jpg
1305.223	0.854	1	test	Phase2	test/STIM_018.jpg
1308.337	0.861	1	test	Phase2	test/STIM_018.jpg
1311.746	0.993	1	test	Phase2	test/STIM_018.jpg
1315.385	0.72	1	test	Phase2	test/STIM_019.jpg
1319.307	0.536	1	test	Phase2	test/STIM_019.jpg
1322.135	0.656	1	test	Phase2	test/STIM_019.jpg
1326.403	0.862	1	test	Phase2	test/STIM_020.jpg
1329.544	0.768	1	test	Phase2	test/STIM_020.jpg
1334.183	0.921	1	test	Phase2	test/STIM_020.jpg
1337.372	0.959	1	test	Phase2	test/STIM_021.jpg
1342.126	0.769	1	test	Phase2	test/STIM_021.jpg
1345.185	0.962	1	test	Phase2	test/STIM_021.jpg
1348.292	0.609	1	test	Phase2	test/STIM_022.jpg
1351.631	1.057	1	test	Phase2	test/STIM_022.jpg
1356.725	1.038	1	test	Phase2	test/STIM_022.jpg
1360.52	0.451	1	test	Phase2	test/STIM_023.jpg
1364.202	0.59	1	test	Phase2	test/STIM_023.jpg
1367.997	1.004	1	test	Phase2	test/STIM_023.jpg
1372.349	0.76	1	test	Phase2	test/STIM_024.jpg
1377.167	0.498	1	test	Phase2	test/STIM_024.jpg
1381.175	0.792	1	test	Phase2	test/STIM_024.jpg
1384.653	0.577	1	test	Phase2	test/STIM_025.jpg
1389.16	0.817	1	test	Phase2	test/STIM_025.jpg
1392.883	0.618	1	test	Phase2	test/STIM_025.jpg
1396.373	1.07	1	test	Phase2	test/STIM_026.jpg
1401.332	0.723	0	test	Phase2	test/STIM_026.jpg
1404.175	0.833	1	test	Phase2	test/STIM_026.jpg
1408.086	1.027	1	test	Phase2	test/STIM_027.jpg
1411.877	0.948	1	test	Phase2	test/STIM_027.jpg
1416.724	0.784	1	test	Phase2	test/STIM_027.jpg
1419.92	1.099	1	test	Phase2	test/STIM_028.jpg
1425.13	0.773	1	test	Phase2	test/STIM_028.jpg
1428.842	0.761	1	test	Phase2	test/STIM_028.jpg
1432.114	0.571	1	test	Phase2	test/STIM_029.jpg
1436.445	0.712	1	test	Phase2	test/STIM_029.jpg
1441.304	0.794	1	test	Phase2	test/STIM_029.jpg
1445.419	0.96	1	study	Phase3	study/STIM_000.jpg
1449.778	0.42	1	study	Phase3	study/STIM_000.jpg
1452.877	0.602	1	study	Phase3	study/STIM_000.jpg
1457.506	0.962	1	study	Phase3	study/STIM_001.jpg
1461.883	0.505	1	study	Phase3	study/STIM_001.jpg
1466.26	0.797	1	study	Phase3	study/STIM_001.jpg
1469.582	0.564	1	study	Phase3	study/STIM_002.jpg
1473.003	0.595	1	study	Phase3	study/STIM_002.jpg
1477.024	0.569	1	study	Phase3	study/STIM_002.jpg
1481.219	0.741	1	study	Phase3	study/STIM_003.jpg
1485.011	1.128	1	study	Phase3	study/STIM_003.jpg
1490.041	0.7	1	study	Phase3	study/STIM_003.jpg
1493.669	0.777	1	study	Phase3	study/STIM_004.jpg
1497.969	0.675	1	study	Phase3	study/STIM_004.jpg
1502.243	0.916	1	study	Phase3	study/STIM_004.jpg
1507.26	0.71	1	study	Phase3	study/STIM_005.jpg
1511.747	0.595	1	study	Phase3	study/STIM_005.jpg
1514.813	0.428	1	study	Phase3	study/STIM_005.jpg
1518.139	0.526	1	study	Phase3	study/STIM_006.jpg
1522.303	0.946	0	study	Phase3	study/STIM_006.jpg
1527.084	0.782	1	study	Phase3	study/STIM_006.jpg
1530.99	0.725	1	study	Phase3	study/STIM_007.jpg
1534.307	0.936	1	study	Phase3	study/STIM_007.jpg
1537.675	0.5	1	study	Phase3	study/STIM_007.jpg
1542.099	1.077	1	study	Phase3	study/STIM_008.jpg
1545.937	0.645	1	study	Phase3	study/STIM_008.jpg
1549.069	1.057	1	study	Phase3	study/STIM_008.jpg
1554.07	0.747	1	study	Phase3	study/STIM_009.jpg
1558.257	0.978	0	study	Phase3	study/STIM_009.jpg
1562.578	0.818	1	study	Phase3	study/STIM_009.jpg
1567.44	0.922	1	study	Phase3	study/STIM_010.jpg
1570.674	0.978	1	study	Phase3	study/STIM_010.jpg
1574.262	0.537	1	study	Phase3	study/STIM_010.jpg
1578.137	0.637	1	study	Phase3	study/STIM_011.jpg
1582.428	1.056	1	study	Phase3	study/STIM_011.jpg
1585.909	0.87	1	study	Phase3	study/STIM_011.jpg
1590.501	0.879	1	study	Phase3	study/STIM_012.jpg
1594.0	0.51	1	study	Phase3	study/STIM_012.jpg
1598.279	0.773	1	study	Phase3	study/STIM_012.jpg
1602.838	0.873	1	study	Phase3	study/STIM_013.jpg
1606.104	0.9	1	study	Phase3	study/STIM_013.jpg
1609.271	1.066	1	study	Phase3	study/STIM_013.jpg
1612.906	0.895	1	study	Phase3	study/STIM_014.jpg
1616.582	0.853	1	study	Phase3	study/STIM_014.jpg
1619.599	0.673	1	study	Phase3	study/STIM_014.jpg
1624.385	0.923	1	study	Phase3	study/STIM_015.jpg
1627.566	0.887	1	study	Phase3	study/STIM_015.jpg
1632.178	0.682	1	study	Phase3	study/STIM_015.jpg
1635.819	0.67	1	study	Phase3	study/STIM_016.jpg
1639.625	0.981	1	study	Phase3	study/STIM_016.jpg
1643.995	0.52	1	study	Phase3	study/STIM_016.jpg
1647.674	0.867	1	study	Phase3	study/STIM_017.jpg
1651.195	0.573	1	study	Phase3	study/STIM_017.jpg
1655.662	0.804	1	study	Phase3	study/STIM_017.jpg
1659.251	0.598	0	study	Phase3	study/STIM_018.jpg
1663.486	1.102	1	study	Phase3	study/STIM_018.jpg
1667.058	0.846	1	study	Phase3	study/STIM_018.jpg
1670.24	0.984	1	study	Phase3	study/STIM_019.jpg
1674.34	0.809	1	study	Phase3	study/STIM_019.jpg
1678.646	0.47	1	study	Phase3	study/STIM_019.jpg
1681.543	0.899	1	study	Phase3	study/STIM_020.jpg
1685.723	0.995	1	study	Phase3	study/STIM_020.jpg
1690.321	0.742	1	study	Phase3	study/STIM_020.jpg
1693.857	1.051	1	study	Phase3	study/STIM_021.jpg
1697.133	1.006	1	study	Phase3	study/STIM_021.jpg
1700.661	0.555	1	study	Phase3	study/STIM_021.jpg
1704.523	0.793	1	study	Phase3	study/STIM_022.jpg
1708.406	0.625	1	study	Phase3	study/STIM_022.jpg
1712.148	0.707	1	study	Phase3	study/STIM_022.jpg
1716.844	0.541	1	study	Phase3	study/STIM_023.jpg
1719.658	0.767	1	study	Phase3	study/STIM_023.jpg
1723.704	0.78	1	study	Phase3	study/STIM_023.jpg
1727.23	0.698	1	study	Phase3	study/STIM_024.jpg
1730.389	0.936	1	study	Phase3	study/STIM_024.jpg
1734.027	0.777	1	study	Phase3	study/STIM_024.jpg
1736.979	0.601	1	study	Phase3	study/STIM_025.jpg
1740.956	0.605	1	study	Phase3	study/STIM_025.jpg
1744.949	0.943	1	study	Phase3	study/STIM_025.jpg
1749.782	0.694	1	study	Phase3	study/STIM_026.jpg
1754.43	0.544	1	study	Phase3	study/STIM_026.jpg
1757.971	1.072	1	study	Phase3	study/STIM_026.jpg
1762.741	0.528	1	study	Phase3	study/STIM_027.jpg
1766.781	0.973	1	study	Phase3	study/STIM_027.jpg
1770.727	0.682	1	study	Phase3	study/STIM_027.jpg
1774.466	0.948	1	study	Phase3	study/STIM_028.jpg
1778.456	1.032	1	study	Phase3	study/STIM_028.jpg
1782.872	0.918	1	study	Phase3	study/STIM_028.jpg
1787.384	0.908	0	study	Phase3	study/STIM_029.jpg
1791.521	0.972	1	study	Phase3	study/STIM_029.jpg
1794.653	0.97	1	study	Phase3	study/STIM_029.jpg
1798.608	1.131	1	test	Phase3	test/STIM_000.jpg
1803.802	1.075	0	test	Phase3	test/STIM_000.jpg
1808.562	0.867	1	test	Phase3	test/STIM_000.jpg
1813.206	0.578	1	test	Phase3	test/STIM_001.jpg
1816.444	1.027	1	test	Phase3	test/STIM_001.jpg
1820.608	0.775	0	test	Phase3	test/STIM_001.jpg
1824.24	0.472	1	test	Phase3	test/STIM_002.jpg
1828.702	0.981	1	test	Phase3	test/STIM_002.jpg
1831.985	0.936	1	test	Phase3	test/STIM_002.jpg
1836.361	0.828	1	test	Phase3	test/STIM_003.jpg
1841.08	0.663	1	test	Phase3	test/STIM_003.jpg
1845.505	1.147	1	test	Phase3	test/STIM_003.jpg
1850.042	0.704	0	test	Phase3	test/STIM_004.jpg
1853.249	0.781	0	test	Phase3	test/STIM_004.jpg
1858.026	0.622	1	test	Phase3	test/STIM_004.jpg
1861.781	0.838	1	test	Phase3	test/STIM_005.jpg
1866.551	0.82	1	test	Phase3	test/STIM_005.jpg
1870.734	0.578	0	test	Phase3	test/STIM_005.jpg
1874.517	0.981	1	test	Phase3	test/STIM_006.jpg
1878.048	0.484	1	test	Phase3	test/STIM_006.jpg
1882.679	0.522	1	test	Phase3	test/STIM_006.jpg
1886.511	0.774	1	test	Phase3	test/STIM_007.jpg
1890.017	0.74	0	test	Phase3	test/STIM_007.jpg
1893.068	0.574	1	test	Phase3	test/STIM_007.jpg
1896.525	0.632	1	test	Phase3	test/STIM_008.jpg
1899.745	0.805	0	test	Phase3	test/STIM_008.jpg
1904.029	0.643	1	test	Phase3	test/STIM_008.jpg
1906.896	1.021	1	test	Phase3	test/STIM_009.jpg
1911.517	1.038	1	test	Phase3	test/STIM_009.jpg
1915.109	0.71	0	test	Phase3	test/STIM_009.jpg
1918.507	0.852	0	test	Phase3	test/STIM_010.jpg
1922.274	0.587	1	test	Phase3	test/STIM_010.jpg
1927.017	0.811	0	test	Phase3	test/STIM_010.jpg
1930.716	0.934	1	test	Phase3	test/STIM_011.jpg
1935.785	0.814	0	test	Phase3	test/STIM_011.jpg
1940.626	1.097	1	test	Phase3	test/STIM_011.jpg
1943.918	0.94	1	test	Phase3	test/STIM_012.jpg
1947.818	0.612	1	test	Phase3	test/STIM_012.jpg
1952.019	0.607	1	test	Phase3	test/STIM_012.jpg
1955.199	0.512	1	test	Phase3	test/STIM_013.jpg
1959.544	1.155	1	test	Phase3	test/STIM_013.jpg
1963.211	1.094	1	test	Phase3	test/STIM_013.jpg
1966.821	0.889	1	test	Phase3	test/STIM_014.jpg
1970.698	1.107	1	test	Phase3	test/STIM_014.jpg
1975.241	0.698	1	test	Phase3	test/STIM_014.jpg
1979.544	0.557	1	test	Phase3	test/STIM_015.jpg
1984.218	0.954	1	test	Phase3	test/STIM_015.jpg
1987.795	0.845	1	test	Phase3	test/STIM_015.jpg
1992.334	0.703	1	test	Phase3	test/STIM_016.jpg
1995.295	0.59	1	test	Phase3	test/STIM_016.jpg
1998.361	0.557	1	test	Phase3	test/STIM_016.jpg
2002.012	0.957	1	test	Phase3	test/STIM_017.jpg
2006.629	0.642	1	test	Phase3	test/STIM_017.jpg
2010.646	0.574	1	test	Phase3	test/STIM_017.jpg
2014.431	0.686	1	test	Phase3	test/STIM_018.jpg
2019.08	0.585	0	test	Phase3	test/STIM_018.jpg
2023.426	0.572	1	test	Phase3	test/STIM_018.jpg
2026.798	0.813	1	test	Phase3	test/STIM_019.jpg
2030.739	1.06	1	test	Phase3	test/STIM_019.jpg
2035.946	0.842	1	test	Phase3	test/STIM_019.jpg
2040.791	0.56	1	test	Phase3	test/STIM_020.jpg
2043.456	0.91	1	test	Phase3	test/STIM_020.jpg
2047.368	0.667	1	test	Phase3	test/STIM_020.jpg
2051.12	0.528	1	test	Phase3	test/STIM_021.jpg
2054.576	0.709	0	test	Phase3	test/STIM_021.jpg
2058.488	0.625	0	test	Phase3	test/STIM_021.jpg
2062.953	0.61	1	test	Phase3	test/STIM_022.jpg
2067.268	0.598	1	test	Phase3	test/STIM_022.jpg
2071.235	0.653	1	test	Phase3	test/STIM_022.jpg
2075.966	0.695	1	test	Phase3	test/STIM_023.jpg
2079.127	0.983	1	test	Phase3	test/STIM_023.jpg
2082.458	0.888	1	test	Phase3	test/STIM_023.jpg
2085.897	0.939	1	test	Phase3	test/STIM_024.jpg
2090.513	0.852	1	test	Phase3	test/STIM_024.jpg
2093.97	0.779	1	test	Phase3	test/STIM_024.jpg
2097.584	0.862	0	test	Phase3	test/STIM_025.jpg
2102.046	0.862	1	test	Phase3	test/STIM_025.jpg
2106.878	0.569	1	test	Phase3	test/STIM_025.jpg
2111.572	0.528	1	test	Phase3	test/STIM_026.jpg
2115.731	0.898	1	test	Phase3	test/STIM_026.jpg
2119.24	0.953	1	test	Phase3	test/STIM_026.jpg
2123.629	0.866	1	test	Phase3	test/STIM_027.jpg
2127.175	1.196	1	test	Phase3	test/STIM_027.jpg
2131.56	1.16	1	test	Phase3	test/STIM_027.jpg
2136.741	0.514	1	test	Phase3	test/STIM_028.jpg
2140.086	0.972	1	test	Phase3	test/STIM_028.jpg
2143.796	0.752	1	test	Phase3	test/STIM_028.jpg
2146.88	0.955	0	test	Phase3	test/STIM_029.jpg
2151.838	0.678	1	test	Phase3	test/STIM_029.jpg
2154.866	0.791	1	test	Phase3	test/STIM_029.jpg
