onset	duration	accuracy	trial_type	learning_stage	stimulus
0.0	2.592	correct	generate	Run1	generate/STIM_000.jpg
4.674	2.003	correct	generate	Run1	generate/STIM_000.jpg
10.658	1.093	correct	generate	Run1	generate/STIM_000.jpg
14.828	2.484	incorrect	generate	Run1	generate/STIM_000.jpg
21.27	2.32	correct	generate	Run1	generate/STIM_000.jpg
27.187	2.372	correct	generate	Run1	generate/STIM_001.jpg
32.648	2.036	correct	generate	Run1	generate/STIM_001.jpg
38.564	2.103	correct	generate	Run1	generate/STIM_001.jpg
44.629	1.29	correct	generate	Run1	generate/STIM_001.jpg
49.504	1.308	correct	generate	Run1	generate/STIM_001.jpg
53.463	1.25	correct	generate	Run1	generate/STIM_002.jpg
57.16	2.534	incorrect	generate	Run1	generate/STIM_002.jpg
63.326	1.361	correct	generate	Run1	generate/STIM_002.jpg
67.036	1.079	correct	generate	Run1	generate/STIM_002.jpg
71.655	1.809	correct	generate	Run1	generate/STIM_002.jpg
77.18	2.368	correct	generate	Run1	generate/STIM_003.jpg
83.542	2.109	correct	generate	Run1	generate/STIM_003.jpg
88.368	2.663	correct	generate	Run1	generate/STIM_003.jpg
94.809	2.283	correct	generate	Run1	generate/STIM_003.jpg
100.003	1.114	correct	generate	Run1	generate/STIM_003.jpg
103.338	1.719	correct	generate	Run1	generate/STIM_004.jpg
107.58	1.259	correct	generate	Run1	generate/STIM_004.jpg
110.878	2.492	correct	generate	Run1	generate/STIM_004.jpg
115.401	2.192	correct	generate	Run1	generate/STIM_004.jpg
119.706	1.971	incorrect	generate	Run1	generate/STIM_004.jpg
123.774	2.519	correct	generate	Run1	generate/STIM_005.jpg
128.824	1.694	correct	generate	Run1	generate/STIM_005.jpg
133.029	2.088	correct	generate	Run1	generate/STIM_005.jpg
137.318	1.565	correct	generate	Run1	generate/STIM_005.jpg
141.792	2.157	correct	generate	Run1	generate/STIM_005.jpg
146.723	1.239	correct	generate	Run1	generate/STIM_006.jpg
151.288	2.199	correct	generate	Run1	generate/STIM_006.jpg
156.207	2.032	correct	generate	Run1	generate/STIM_006.jpg
160.248	1.985	correct	generate	Run1	generate/STIM_006.jpg
165.572	1.065	correct	generate	Run1	generate/STIM_006.jpg
169.578	2.614	correct	generate	Run1	generate/STIM_007.jpg
174.399	2.193	correct	generate	Run1	generate/STIM_007.jpg
179.587	2.292	correct	generate	Run1	generate/STIM_007.jpg
185.693	2.274	correct	generate	Run1	generate/STIM_007.jpg
190.634	1.284	correct	generate	Run1	generate/STIM_007.jpg
195.015	1.572	correct	generate	Run1	generate/STIM_008.jpg
200.503	1.488	correct	generate	Run1	generate/STIM_008.jpg
204.862	1.566	correct	generate	Run1	generate/STIM_008.jpg
209.995	2.13	correct	generate	Run1	generate/STIM_008.jpg
214.902	1.408	correct	generate	Run1	generate/STIM_008.jpg
219.999	1.841	correct	generate	Run1	generate/STIM_009.jpg
224.731	1.87	correct	generate	Run1	generate/STIM_009.jpg
230.503	2.09	correct	generate	Run1	generate/STIM_009.jpg
236.212	2.065	correct	generate	Run1	generate/STIM_009.jpg
242.095	1.468	correct	generate	Run1	generate/STIM_009.jpg
247.115	1.552	correct	generate	Run1	generate/STIM_010.jpg
250.95	1.535	correct	generate	Run1	generate/STIM_010.jpg
255.343	1.451	correct	generate	Run1	generate/STIM_010.jpg
260.329	1.049	correct	generate	Run1	generate/STIM_010.jpg
265.175	1.132	correct	generate	Run1	generate/STIM_010.jpg
268.687	1.946	correct	generate	Run1	generate/STIM_011.jpg
273.472	1.837	incorrect	generate	Run1	generate/STIM_011.jpg
277.573	1.769	correct	generate	Run1	generate/STIM_011.jpg
282.989	1.193	correct	generate	Run1	generate/STIM_011.jpg
287.574	1.905	correct	generate	Run1	generate/STIM_011.jpg
291.665	2.764	correct	generate	Run1	generate/STIM_012.jpg
297.378	2.453	correct	generate	Run1	generate/STIM_012.jpg
303.494	1.729	correct	generate	Run1	generate/STIM_012.jpg
309.222	2.082	correct	generate	Run1	generate/STIM_012.jpg
314.12	1.45	correct	generate	Run1	generate/STIM_012.jpg
317.617	1.381	correct	generate	Run1	generate/STIM_013.jpg
321.994	1.492	incorrect	generate	Run1	generate/STIM_013.jpg
325.963	2.162	correct	generate	Run1	generate/STIM_013.jpg
331.672	2.13	correct	generate	Run1	generate/STIM_013.jpg
337.205	1.12	correct	generate	Run1	generate/STIM_013.jpg
341.417	1.271	correct	generate	Run1	generate/STIM_014.jpg
345.974	1.29	correct	generate	Run1	generate/STIM_014.jpg
349.797	2.417	correct	generate	Run1	generate/STIM_014.jpg
354.481	1.412	incorrect	generate	Run1	generate/STIM_014.jpg
359.823	2.176	correct	generate	Run1	generate/STIM_014.jpg
365.673	1.424	correct	generate	Run1	generate/STIM_015.jpg
370.67	1.207	correct	generate	Run1	generate/STIM_015.jpg
374.023	1.409	correct	generate	Run1	generate/STIM_015.jpg
378.093	2.089	correct	generate	Run1	generate/STIM_015.jpg
382.782	1.817	correct	generate	Run1	generate/STIM_015.jpg
387.408	1.941	correct	generate	Run1	generate/STIM_016.jpg
392.872	1.764	correct	generate	Run1	generate/STIM_016.jpg
396.789	1.273	incorrect	generate	Run1	generate/STIM_016.jpg
401.383	2.281	correct	generate	Run1	generate/STIM_016.jpg
406.771	1.132	correct	generate	Run1	generate/STIM_016.jpg
410.82	2.449	correct	generate	Run1	generate/STIM_017.jpg
415.395	2.437	correct	generate	Run1	generate/STIM_017.jpg
420.77	1.887	correct	generate	Run1	generate/STIM_017.jpg
424.993	1.476	correct	generate	Run1	generate/STIM_017.jpg
429.86	1.838	correct	generate	Run1	generate/STIM_017.jpg
435.574	1.939	correct	generate	Run1	generate/STIM_018.jpg
441.067	1.207	correct	generate	Run1	generate/STIM_018.jpg
444.498	1.297	correct	generate	Run1	generate/STIM_018.jpg
449.439	2.417	correct	generate	Run1	generate/STIM_018.jpg
455.417	1.686	correct	generate	Run1	generate/STIM_018.jpg
459.183	2.98	correct	generate	Run1	generate/STIM_019.jpg
466.117	1.294	correct	generate	Run1	generate/STIM_019.jpg
470.299	2.393	correct	generate	Run1	generate/STIM_019.jpg
476.305	1.725	correct	generate	Run1	generate/STIM_019.jpg
481.553	0.981	correct	generate	Run1	generate/STIM_019.jpg
485.542	2.029	correct	generate	Run1	generate/STIM_020.jpg
489.873	1.217	correct	generate	Run1	generate/STIM_020.jpg
493.776	1.564	correct	generate	Run1	generate/STIM_020.jpg
498.628	1.021	correct	generate	Run1	generate/STIM_020.jpg
503.014	1.402	correct	generate	Run1	generate/STIM_020.jpg
508.383	2.966	correct	generate	Run1	generate/STIM_021.jpg
515.211	2.72	correct	generate	Run1	generate/STIM_021.jpg
521.519	1.294	incorrect	generate	Run1	generate/STIM_021.jpg
526.257	1.281	correct	generate	Run1	generate/STIM_021.jpg
529.996	0.957	correct	generate	Run1	generate/STIM_021.jpg
533.804	2.63	correct	generate	Run1	generate/STIM_022.jpg
540.28	2.245	correct	generate	Run1	generate/STIM_022.jpg
545.759	1.084	correct	generate	Run1	generate/STIM_022.jpg
548.902	2.223	correct	generate	Run1	generate/STIM_022.jpg
553.126	1.816	correct	generate	Run1	generate/STIM_022.jpg
556.957	1.596	correct	generate	Run1	generate/STIM_023.jpg
561.573	2.365	correct	generate	Run1	generate/STIM_023.jpg
566.176	1.858	correct	generate	Run1	generate/STIM_023.jpg
570.795	2.005	correct	generate	Run1	generate/STIM_023.jpg
575.601	1.139	correct	generate	Run1	generate/STIM_023.jpg
578.88	2.485	correct	generate	Run1	generate/STIM_024.jpg
583.748	1.853	correct	generate	Run1	generate/STIM_024.jpg
588.233	1.764	correct	generate	Run1	generate/STIM_024.jpg
592.133	1.091	correct	generate	Run1	generate/STIM_024.jpg
597.204	1.147	correct	generate	Run1	generate/STIM_024.jpg
601.677	0.555	correct	repeat	Run1	repeat/STIM_000.jpg
604.345	0.925	correct	repeat	Run1	repeat/STIM_000.jpg
609.048	0.503	correct	repeat	Run1	repeat/STIM_000.jpg
611.883	0.779	correct	repeat	Run1	repeat/STIM_000.jpg
616.423	0.984	correct	repeat	Run1	repeat/STIM_000.jpg
620.669	0.598	correct	repeat	Run1	repeat/STIM_001.jpg
624.955	0.963	correct	repeat	Run1	repeat/STIM_001.jpg
628.498	0.751	correct	repeat	Run1	repeat/STIM_001.jpg
633.125	0.995	correct	repeat	Run1	repeat/STIM_001.jpg
637.419	0.576	correct	repeat	Run1	repeat/STIM_001.jpg
640.876	0.632	correct	repeat	Run1	repeat/STIM_002.jpg
645.394	0.772	correct	repeat	Run1	repeat/STIM_002.jpg
649.617	0.535	correct	repeat	Run1	repeat/STIM_002.jpg
652.481	0.764	correct	repeat	Run1	repeat/STIM_002.jpg
656.276	0.536	correct	repeat	Run1	repeat/STIM_002.jpg
659.398	0.75	correct	repeat	Run1	repeat/STIM_003.jpg
662.223	0.693	correct	repeat	Run1	repeat/STIM_003.jpg
666.245	0.985	correct	repeat	Run1	repeat/STIM_003.jpg
670.517	0.644	correct	repeat	Run1	repeat/STIM_003.jpg
674.812	0.555	correct	repeat	Run1	repeat/STIM_003.jpg
678.491	0.946	correct	repeat	Run1	repeat/STIM_004.jpg
682.404	0.822	correct	repeat	Run1	repeat/STIM_004.jpg
686.28	0.562	correct	repeat	Run1	repeat/STIM_004.jpg
690.746	0.532	correct	repeat	Run1	repeat/STIM_004.jpg
694.7	0.634	correct	repeat	Run1	repeat/STIM_004.jpg
698.978	0.671	correct	repeat	Run1	repeat/STIM_005.jpg
702.475	0.906	correct	repeat	Run1	repeat/STIM_005.jpg
705.953	0.516	correct	repeat	Run1	repeat/STIM_005.jpg
708.486	0.988	correct	repeat	Run1	repeat/STIM_005.jpg
712.59	0.562	correct	repeat	Run1	repeat/STIM_005.jpg
716.99	0.508	correct	repeat	Run1	repeat/STIM_006.jpg
720.69	0.917	correct	repeat	Run1	repeat/STIM_006.jpg
725.493	0.882	correct	repeat	Run1	repeat/STIM_006.jpg
729.552	0.851	correct	repeat	Run1	repeat/STIM_006.jpg
732.839	0.835	correct	repeat	Run1	repeat/STIM_006.jpg
735.693	0.909	correct	repeat	Run1	repeat/STIM_007.jpg
738.723	0.639	correct	repeat	Run1	repeat/STIM_007.jpg
743.083	0.949	correct	repeat	Run1	repeat/STIM_007.jpg
747.954	0.591	correct	repeat	Run1	repeat/STIM_007.jpg
750.781	0.537	correct	repeat	Run1	repeat/STIM_007.jpg
754.493	0.593	correct	repeat	Run1	repeat/STIM_008.jpg
757.681	0.571	correct	repeat	Run1	repeat/STIM_008.jpg
762.07	0.69	correct	repeat	Run1	repeat/STIM_008.jpg
766.573	0.638	correct	repeat	Run1	repeat/STIM_008.jpg
770.83	0.503	correct	repeat	Run1	repeat/STIM_008.jpg
775.253	0.633	correct	repeat	Run1	repeat/STIM_009.jpg
778.464	0.918	correct	repeat	Run1	repeat/STIM_009.jpg
781.749	0.668	correct	repeat	Run1	repeat/STIM_009.jpg
785.295	0.992	correct	repeat	Run1	repeat/STIM_009.jpg
789.742	0.817	correct	repeat	Run1	repeat/STIM_009.jpg
794.445	0.617	correct	repeat	Run1	repeat/STIM_010.jpg
797.6	0.624	correct	repeat	Run1	repeat/STIM_010.jpg
800.761	0.949	correct	repeat	Run1	repeat/STIM_010.jpg
803.865	0.868	correct	repeat	Run1	repeat/STIM_010.jpg
807.56	0.861	correct	repeat	Run1	repeat/STIM_010.jpg
811.856	0.969	correct	repeat	Run1	repeat/STIM_011.jpg
815.754	0.873	correct	repeat	Run1	repeat/STIM_011.jpg
820.04	0.991	correct	repeat	Run1	repeat/STIM_011.jpg
824.585	0.668	correct	repeat	Run1	repeat/STIM_011.jpg
827.33	0.914	correct	repeat	Run1	repeat/STIM_011.jpg
831.457	0.504	correct	repeat	Run1	repeat/STIM_012.jpg
835.021	0.926	correct	repeat	Run1	repeat/STIM_012.jpg
838.127	0.515	correct	repeat	Run1	repeat/STIM_012.jpg
842.274	0.988	correct	repeat	Run1	repeat/STIM_012.jpg
846.725	0.609	correct	repeat	Run1	repeat/STIM_012.jpg
850.093	0.678	correct	repeat	Run1	repeat/STIM_013.jpg
853.796	0.746	correct	repeat	Run1	repeat/STIM_013.jpg
857.216	0.99	correct	repeat	Run1	repeat/STIM_013.jpg
860.244	0.955	correct	repeat	Run1	repeat/STIM_013.jpg
864.695	0.873	correct	repeat	Run1	repeat/STIM_013.jpg
868.651	0.532	correct	repeat	Run1	repeat/STIM_014.jpg
872.906	0.507	correct	repeat	Run1	repeat/STIM_014.jpg
877.398	0.989	correct	repeat	Run1	repeat/STIM_014.jpg
881.649	0.977	correct	repeat	Run1	repeat/STIM_014.jpg
885.669	0.788	correct	repeat	Run1	repeat/STIM_014.jpg
888.709	2.244	correct	generate	Run2	generate/STIM_000.jpg
894.757	1.889	correct	generate	Run2	generate/STIM_000.jpg
900.136	1.961	correct	generate	Run2	generate/STIM_000.jpg
906.025	1.765	correct	generate	Run2	generate/STIM_000.jpg
911.698	1.478	correct	generate	Run2	generate/STIM_000.jpg
915.521	1.55	correct	generate	Run2	generate/STIM_001.jpg
919.317	1.571	correct	generate	Run2	generate/STIM_001.jpg
924.827	1.365	correct	generate	Run2	generate/STIM_001.jpg
928.399	1.925	correct	generate	Run2	generate/STIM_001.jpg
933.987	1.852	correct	generate	Run2	generate/STIM_001.jpg
938.113	1.66	correct	generate	Run2	generate/STIM_002.jpg
943.176	1.484	correct	generate	Run2	generate/STIM_002.jpg
947.891	1.699	correct	generate	Run2	generate/STIM_002.jpg
952.535	1.922	correct	generate	Run2	generate/STIM_002.jpg
958.059	2.025	correct	generate	Run2	generate/STIM_002.jpg
963.604	1.3	correct	generate	Run2	generate/STIM_003.jpg
967.631	1.559	correct	generate	Run2	generate/STIM_003.jpg
973.046	1.411	correct	generate	Run2	generate/STIM_003.jpg
976.857	1.417	incorrect	generate	Run2	generate/STIM_003.jpg
981.622	1.304	incorrect	generate	Run2	generate/STIM_003.jpg
985.029	1.148	correct	generate	Run2	generate/STIM_004.jpg
989.186	1.101	correct	generate	Run2	generate/STIM_004.jpg
992.377	1.579	correct	generate	Run2	generate/STIM_004.jpg
996.593	1.314	correct	generate	Run2	generate/STIM_004.jpg
1000.146	1.947	correct	generate	Run2	generate/STIM_004.jpg
1005.305	1.993	correct	generate	Run2	generate/STIM_005.jpg
1009.792	1.751	correct	generate	Run2	generate/STIM_005.jpg
1014.76	1.932	correct	generate	Run2	generate/STIM_005.jpg
1019.853	2.022	correct	generate	Run2	generate/STIM_005.jpg
1025.277	1.056	correct	generate	Run2	generate/STIM_005.jpg
1028.503	1.804	correct	generate	Run2	generate/STIM_006.jpg
1032.535	2.237	correct	generate	Run2	generate/STIM_006.jpg
1038.73	2.162	correct	generate	Run2	generate/STIM_006.jpg
1043.965	1.389	correct	generate	Run2	generate/STIM_006.jpg
1048.405	1.667	correct	generate	Run2	generate/STIM_006.jpg
1053.284	1.693	correct	generate	Run2	generate/STIM_007.jpg
1058.601	1.138	correct	generate	Run2	generate/STIM_007.jpg
1062.586	0.944	correct	generate	Run2	generate/STIM_007.jpg
1065.962	1.699	incorrect	generate	Run2	generate/STIM_007.jpg
1070.727	1.078	correct	generate	Run2	generate/STIM_007.jpg
1075.463	2.397	correct	generate	Run2	generate/STIM_008.jpg
1081.52	2.109	correct	generate	Run2	generate/STIM_008.jpg
1086.051	0.949	correct	generate	Run2	generate/STIM_008.jpg
1089.686	2.006	correct	generate	Run2	generate/STIM_008.jpg
1095.647	1.522	correct	generate	Run2	generate/STIM_008.jpg
1099.823	2.091	correct	generate	Run2	generate/STIM_009.jpg
1105.019	1.041	correct	generate	Run2	generate/STIM_009.jpg
1108.988	1.126	correct	generate	Run2	generate/STIM_009.jpg
1112.92	1.878	correct	generate	Run2	generate/STIM_009.jpg
1118.604	1.812	correct	generate	Run2	generate/STIM_009.jpg
1124.07	1.332	correct	generate	Run2	generate/STIM_010.jpg
1127.635	1.882	correct	generate	Run2	generate/STIM_010.jpg
1132.579	2.095	correct	generate	Run2	generate/STIM_010.jpg
1138.024	1.27	correct	generate	Run2	generate/STIM_010.jpg
1142.635	1.198	correct	generate	Run2	generate/STIM_010.jpg
1145.87	1.971	correct	generate	Run2	generate/STIM_011.jpg
1150.746	1.201	correct	generate	Run2	generate/STIM_011.jpg
1154.387	2.231	correct	generate	Run2	generate/STIM_011.jpg
1158.843	1.789	correct	generate	Run2	generate/STIM_011.jpg
1163.712	1.784	correct	generate	Run2	generate/STIM_011.jpg
1168.357	1.062	correct	generate	Run2	generate/STIM_012.jpg
1171.943	2.306	correct	generate	Run2	generate/STIM_012.jpg
1177.628	1.492	correct	generate	Run2	generate/STIM_012.jpg
1181.623	1.029	correct	generate	Run2	generate/STIM_012.jpg
1186.32	1.008	correct	generate	Run2	generate/STIM_012.jpg
1189.945	1.111	incorrect	generate	Run2	generate/STIM_013.jpg
1194.335	1.097	correct	generate	Run2	generate/STIM_013.jpg
1197.591	1.742	correct	generate	Run2	generate/STIM_013.jpg
1202.419	1.077	correct	generate	Run2	generate/STIM_013.jpg
1206.637	1.972	correct	generate	Run2	generate/STIM_013.jpg
1211.126	1.19	correct	generate	Run2	generate/STIM_014.jpg
1215.122	2.003	correct	generate	Run2	generate/STIM_014.jpg
1220.777	1.228	correct	generate	Run2	generate/STIM_014.jpg
1224.099	1.101	correct	generate	Run2	generate/STIM_014.jpg
1229.079	1.575	correct	generate	Run2	generate/STIM_014.jpg
1233.04	1.462	correct	generate	Run2	generate/STIM_015.jpg
1237.777	1.893	correct	generate	Run2	generate/STIM_015.jpg
1242.876	1.781	correct	generate	Run2	generate/STIM_015.jpg
1248.246	1.13	correct	generate	Run2	generate/STIM_015.jpg
1252.312	1.83	correct	generate	Run2	generate/STIM_015.jpg
1256.967	1.123	correct	generate	Run2	generate/STIM_016.jpg
1260.431	1.532	correct	generate	Run2	generate/STIM_016.jpg
1265.376	1.907	correct	generate	Run2	generate/STIM_016.jpg
1270.188	1.133	correct	generate	Run2	generate/STIM_016.jpg
1274.972	1.245	correct	generate	Run2	generate/STIM_016.jpg
1279.585	1.055	correct	generate	Run2	generate/STIM_017.jpg
1282.658	1.881	correct	generate	Run2	generate/STIM_017.jpg
1287.337	2.052	correct	generate	Run2	generate/STIM_017.jpg
1293.314	1.197	correct	generate	Run2	generate/STIM_017.jpg
1297.958	0.933	correct	generate	Run2	generate/STIM_017.jpg
1302.78	1.48	correct	generate	Run2	generate/STIM_018.jpg
1306.734	1.199	correct	generate	Run2	generate/STIM_018.jpg
1310.228	1.675	correct	generate	Run2	generate/STIM_018.jpg
1314.856	2.054	correct	generate	Run2	generate/STIM_018.jpg
1319.092	1.06	correct	generate	Run2	generate/STIM_018.jpg
1323.909	1.671	correct	generate	Run2	generate/STIM_019.jpg
1328.91	1.554	correct	generate	Run2	generate/STIM_019.jpg
1332.792	1.89	correct	generate	Run2	generate/STIM_019.jpg
1337.362	1.016	correct	generate	Run2	generate/STIM_019.jpg
1341.049	1.317	correct	generate	Run2	generate/STIM_019.jpg
1344.692	1.159	correct	generate	Run2	generate/STIM_020.jpg
1349.36	1.066	correct	generate	Run2	generate/STIM_020.jpg
1353.344	1.51	correct	generate	Run2	generate/STIM_020.jpg
1357.48	1.951	correct	generate	Run2	generate/STIM_020.jpg
1362.116	0.99	correct	generate	Run2	generate/STIM_020.jpg
1365.801	2.0	correct	generate	Run2	generate/STIM_021.jpg
1371.196	1.869	correct	generate	Run2	generate/STIM_021.jpg
1376.173	2.145	correct	generate	Run2	generate/STIM_021.jpg
1381.012	1.671	correct	generate	Run2	generate/STIM_021.jpg
1384.991	0.866	correct	generate	Run2	generate/STIM_021.jpg
1389.71	2.122	correct	generate	Run2	generate/STIM_022.jpg
1394.567	1.347	correct	generate	Run2	generate/STIM_022.jpg
1398.18	1.396	correct	generate	Run2	generate/STIM_022.jpg
1403.505	1.597	correct	generate	Run2	generate/STIM_022.jpg
1408.728	1.753	correct	generate	Run2	generate/STIM_022.jpg
1412.862	2.425	correct	generate	Run2	generate/STIM_023.jpg
1417.747	1.54	correct	generate	Run2	generate/STIM_023.jpg
1422.675	1.761	correct	generate	Run2	generate/STIM_023.jpg
1427.635	1.627	correct	generate	Run2	generate/STIM_023.jpg
1431.92	2.062	correct	generate	Run2	generate/STIM_023.jpg
1436.983	1.035	correct	generate	Run2	generate/STIM_024.jpg
1440.69	1.918	correct	generate	Run2	generate/STIM_024.jpg
1446.518	1.165	correct	generate	Run2	generate/STIM_024.jpg
1449.877	1.093	correct	generate	Run2	generate/STIM_024.jpg
1453.726	0.885	correct	generate	Run2	generate/STIM_024.jpg
1456.663	0.501	incorrect	repeat	Run2	repeat/STIM_000.jpg
1460.91	0.568	correct	repeat	Run2	repeat/STIM_000.jpg
1463.729	0.782	correct	repeat	Run2	repeat/STIM_000.jpg
1467.527	0.551	correct	repeat	Run2	repeat/STIM_000.jpg
1470.604	0.675	correct	repeat	Run2	repeat/STIM_000.jpg
1474.258	0.958	correct	repeat	Run2	repeat/STIM_001.jpg
1478.176	0.681	correct	repeat	Run2	repeat/STIM_001.jpg
1482.77	0.884	correct	repeat	Run2	repeat/STIM_001.jpg
1487.048	0.707	correct	repeat	Run2	repeat/STIM_001.jpg
1489.896	0.587	correct	repeat	Run2	repeat/STIM_001.jpg
1494.071	0.95	correct	repeat	Run2	repeat/STIM_002.jpg
1497.208	0.635	correct	repeat	Run2	repeat/STIM_002.jpg
1501.097	0.943	correct	repeat	Run2	repeat/STIM_002.jpg
1505.671	0.99	correct	repeat	Run2	repeat/STIM_002.jpg
1508.807	0.869	correct	repeat	Run2	repeat/STIM_002.jpg
1513.311	0.505	correct	repeat	Run2	repeat/STIM_003.jpg
1517.264	0.769	correct	repeat	Run2	repeat/STIM_003.jpg
1521.97	0.924	correct	repeat	Run2	repeat/STIM_003.jpg
1526.516	0.643	correct	repeat	Run2	repeat/STIM_003.jpg
1530.043	0.902	correct	repeat	Run2	repeat/STIM_003.jpg
1532.959	0.587	correct	repeat	Run2	repeat/STIM_004.jpg
1536.861	0.741	correct	repeat	Run2	repeat/STIM_004.jpg
1540.973	0.521	correct	repeat	Run2	repeat/STIM_004.jpg
1543.589	0.864	correct	repeat	Run2	repeat/STIM_004.jpg
1548.135	0.651	correct	repeat	Run2	repeat/STIM_004.jpg
1551.604	0.989	correct	repeat	Run2	repeat/STIM_005.jpg
1554.708	0.694	correct	repeat	Run2	repeat/STIM_005.jpg
1559.179	0.623	correct	repeat	Run2	repeat/STIM_005.jpg
1563.719	0.762	correct	repeat	Run2	repeat/STIM_005.jpg
1568.216	0.594	correct	repeat	Run2	repeat/STIM_005.jpg
1572.422	0.542	incorrect	repeat	Run2	repeat/STIM_006.jpg
1575.336	0.563	correct	repeat	Run2	repeat/STIM_006.jpg
1578.043	0.656	correct	repeat	Run2	repeat/STIM_006.jpg
1580.93	0.634	correct	repeat	Run2	repeat/STIM_006.jpg
1584.171	0.634	correct	repeat	Run2	repeat/STIM_006.jpg
1586.82	0.881	correct	repeat	Run2	repeat/STIM_007.jpg
1590.913	0.847	correct	repeat	Run2	repeat/STIM_007.jpg
1594.912	0.517	correct	repeat	Run2	repeat/STIM_007.jpg
1599.213	0.881	incorrect	repeat	Run2	repeat/STIM_007.jpg
1602.094	0.525	correct	repeat	Run2	repeat/STIM_007.jpg
1606.131	0.833	correct	repeat	Run2	repeat/STIM_008.jpg
1610.132	0.574	correct	repeat	Run2	repeat/STIM_008.jpg
1613.493	0.574	correct	repeat	Run2	repeat/STIM_008.jpg
1616.148	0.568	correct	repeat	Run2	repeat/STIM_008.jpg
1620.65	0.499	correct	repeat	Run2	repeat/STIM_008.jpg
1624.753	0.509	correct	repeat	Run2	repeat/STIM_009.jpg
1629.08	0.53	correct	repeat	Run2	repeat/STIM_009.jpg
1632.268	0.898	correct	repeat	Run2	repeat/STIM_009.jpg
1636.738	0.712	correct	repeat	Run2	repeat/STIM_009.jpg
1640.731	0.622	correct	repeat	Run2	repeat/STIM_009.jpg
1644.221	0.498	correct	repeat	Run2	repeat/STIM_010.jpg
1646.848	0.56	correct	repeat	Run2	repeat/STIM_010.jpg
1651.254	0.916	correct	repeat	Run2	repeat/STIM_010.jpg
1654.247	0.663	correct	repeat	Run2	repeat/STIM_010.jpg
1658.512	0.903	correct	repeat	Run2	repeat/STIM_010.jpg
1663.384	0.787	correct	repeat	Run2	repeat/STIM_011.jpg
1667.235	0.936	correct	repeat	Run2	repeat/STIM_011.jpg
1670.406	0.669	correct	repeat	Run2	repeat/STIM_011.jpg
1674.673	0.847	correct	repeat	Run2	repeat/STIM_011.jpg
1677.665	0.574	correct	repeat	Run2	repeat/STIM_011.jpg
1681.182	0.521	correct	repeat	Run2	repeat/STIM_012.jpg
1685.518	0.751	correct	repeat	Run2	repeat/STIM_012.jpg
1688.512	0.675	correct	repeat	Run2	repeat/STIM_012.jpg
1692.661	0.777	correct	repeat	Run2	repeat/STIM_012.jpg
1695.846	0.863	correct	repeat	Run2	repeat/STIM_012.jpg
1699.852	0.738	correct	repeat	Run2	repeat/STIM_013.jpg
1703.63	0.927	correct	repeat	Run2	repeat/STIM_013.jpg
1706.648	0.976	correct	repeat	Run2	repeat/STIM_013.jpg
1710.248	0.696	correct	repeat	Run2	repeat/STIM_013.jpg
1712.985	0.826	incorrect	repeat	Run2	repeat/STIM_013.jpg
1716.706	0.672	correct	repeat	Run2	repeat/STIM_014.jpg
1720.618	0.614	correct	repeat	Run2	repeat/STIM_014.jpg
1723.866	0.929	correct	repeat	Run2	repeat/STIM_014.jpg
1728.336	0.596	correct	repeat	Run2	repeat/STIM_014.jpg
1731.967	0.94	correct	repeat	Run2	repeat/STIM_014.jpg
1735.477	1.308	correct	generate	Run3	generate/STIM_000.jpg
1739.415	0.945	correct	generate	Run3	generate/STIM_000.jpg
1743.245	1.584	correct	generate	Run3	generate/STIM_000.jpg
1748.348	1.576	correct	generate	Run3	generate/STIM_000.jpg
1753.273	0.939	correct	generate	Run3	generate/STIM_000.jpg
1757.678	1.961	correct	generate	Run3	generate/STIM_001.jpg
1763.377	1.799	correct	generate	Run3	generate/STIM_001.jpg
1767.896	1.278	correct	generate	Run3	generate/STIM_001.jpg
1771.702	0.966	correct	generate	Run3	generate/STIM_001.jpg
1774.777	1.88	correct	generate	Run3	generate/STIM_001.jpg
1779.753	1.8	correct	generate	Run3	generate/STIM_002.jpg
1784.701	1.067	correct	generate	Run3	generate/STIM_002.jpg
1788.052	1.583	correct	generate	Run3	generate/STIM_002.jpg
1792.821	1.404	correct	generate	Run3	generate/STIM_002.jpg
1797.246	1.045	correct	generate	Run3	generate/STIM_002.jpg
1801.023	0.991	correct	generate	Run3	generate/STIM_003.jpg
1805.239	1.96	correct	generate	Run3	generate/STIM_003.jpg
1809.497	1.361	correct	generate	Run3	generate/STIM_003.jpg
1813.696	2.086	correct	generate	Run3	generate/STIM_003.jpg
1819.257	2.042	correct	generate	Run3	generate/STIM_003.jpg
1825.175	1.37	correct	generate	Run3	generate/STIM_004.jpg
1829.316	0.859	correct	generate	Run3	generate/STIM_004.jpg
1833.96	1.57	correct	generate	Run3	generate/STIM_004.jpg
1839.513	1.933	correct	generate	Run3	generate/STIM_004.jpg
1845.275	1.866	correct	generate	Run3	generate/STIM_004.jpg
1850.255	1.995	correct	generate	Run3	generate/STIM_005.jpg
1855.448	1.967	correct	generate	Run3	generate/STIM_005.jpg
1860.436	1.993	correct	generate	Run3	generate/STIM_005.jpg
1866.128	1.324	correct	generate	Run3	generate/STIM_005.jpg
1871.384	1.903	incorrect	generate	Run3	generate/STIM_005.jpg
1876.713	1.391	correct	generate	Run3	generate/STIM_006.jpg
1881.982	1.876	incorrect	generate	Run3	generate/STIM_006.jpg
1887.266	2.064	correct	generate	Run3	generate/STIM_006.jpg
1892.236	1.48	correct	generate	Run3	generate/STIM_006.jpg
1896.643	1.167	correct	generate	Run3	generate/STIM_006.jpg
1900.413	0.952	correct	generate	Run3	generate/STIM_007.jpg
1905.051	1.13	correct	generate	Run3	generate/STIM_007.jpg
1909.195	1.26	correct	generate	Run3	generate/STIM_007.jpg
1914.305	1.667	correct	generate	Run3	generate/STIM_007.jpg
1918.854	1.666	correct	generate	Run3	generate/STIM_007.jpg
1923.796	1.881	incorrect	generate	Run3	generate/STIM_008.jpg
1929.252	1.412	correct	generate	Run3	generate/STIM_008.jpg
1934.208	0.888	correct	generate	Run3	generate/STIM_008.jpg
1937.382	0.875	correct	generate	Run3	generate/STIM_008.jpg
1941.497	1.212	correct	generate	Run3	generate/STIM_008.jpg
1945.624	1.279	correct	generate	Run3	generate/STIM_009.jpg
1949.889	1.382	correct	generate	Run3	generate/STIM_009.jpg
1955.257	1.897	correct	generate	Run3	generate/STIM_009.jpg
1959.654	0.898	correct	generate	Run3	generate/STIM_009.jpg
1963.576	1.673	correct	generate	Run3	generate/STIM_009.jpg
1968.506	0.844	correct	generate	Run3	generate/STIM_010.jpg
1971.476	1.482	correct	generate	Run3	generate/STIM_010.jpg
1975.038	1.792	correct	generate	Run3	generate/STIM_010.jpg
1980.784	0.885	correct	generate	Run3	generate/STIM_010.jpg
1984.239	1.244	correct	generate	Run3	generate/STIM_010.jpg
1989.314	1.038	correct	generate	Run3	generate/STIM_011.jpg
1992.421	0.956	correct	generate	Run3	generate/STIM_011.jpg
1996.846	0.911	correct	generate	Run3	generate/STIM_011.jpg
2001.014	1.015	correct	generate	Run3	generate/STIM_011.jpg
2004.868	1.586	correct	generate	Run3	generate/STIM_011.jpg
2008.803	1.844	correct	generate	Run3	generate/STIM_012.jpg
2013.887	1.026	correct	generate	Run3	generate/STIM_012.jpg
2017.426	1.85	correct	generate	Run3	generate/STIM_012.jpg
2021.443	0.842	correct	generate	Run3	generate/STIM_012.jpg
2025.892	1.462	correct	generate	Run3	generate/STIM_012.jpg
2030.286	2.069	correct	generate	Run3	generate/STIM_013.jpg
2034.81	0.97	correct	generate	Run3	generate/STIM_013.jpg
2039.746	1.531	correct	generate	Run3	generate/STIM_013.jpg
2045.033	1.652	correct	generate	Run3	generate/STIM_013.jpg
2050.378	1.896	correct	generate	Run3	generate/STIM_013.jpg
2054.762	1.04	correct	generate	Run3	generate/STIM_014.jpg
2059.419	1.485	correct	generate	Run3	generate/STIM_014.jpg
2063.349	0.933	correct	generate	Run3	generate/STIM_014.jpg
2067.301	1.917	correct	generate	Run3	generate/STIM_014.jpg
2072.161	1.823	correct	generate	Run3	generate/STIM_014.jpg
2076.609	1.541	correct	generate	Run3	generate/STIM_015.jpg
2080.904	1.847	correct	generate	Run3	generate/STIM_015.jpg
2086.657	1.992	correct	generate	Run3	generate/STIM_015.jpg
2091.663	1.665	correct	generate	Run3	generate/STIM_015.jpg
2096.376	2.07	correct	generate	Run3	generate/STIM_015.jpg
2102.195	1.558	correct	generate	Run3	generate/STIM_016.jpg
2106.054	1.183	correct	generate	Run3	generate/STIM_016.jpg
2109.888	1.007	correct	generate	Run3	generate/STIM_016.jpg
2113.991	1.196	correct	generate	Run3	generate/STIM_016.jpg
2118.748	1.83	correct	generate	Run3	generate/STIM_016.jpg
2123.473	1.57	correct	generate	Run3	generate/STIM_017.jpg
2129.01	2.034	correct	generate	Run3	generate/STIM_017.jpg
2133.571	1.293	correct	generate	Run3	generate/STIM_017.jpg
2137.026	1.928	correct	generate	Run3	generate/STIM_017.jpg
2142.068	0.914	correct	generate	Run3	generate/STIM_017.jpg
2145.086	1.731	correct	generate	Run3	generate/STIM_018.jpg
2150.419	1.832	correct	generate	Run3	generate/STIM_018.jpg
2156.075	1.404	correct	generate	Run3	generate/STIM_018.jpg
2160.595	1.01	correct	generate	Run3	generate/STIM_018.jpg
2164.858	1.705	correct	generate	Run3	generate/STIM_018.jpg
2168.585	0.888	correct	generate	Run3	generate/STIM_019.jpg
2172.602	0.861	correct	generate	Run3	generate/STIM_019.jpg
2177.118	1.15	correct	generate	Run3	generate/STIM_019.jpg
2181.728	1.1	correct	generate	Run3	generate/STIM_019.jpg
2185.259	1.15	correct	generate	Run3	generate/STIM_019.jpg
2190.261	2.004	correct	generate	Run3	generate/STIM_020.jpg
2195.371	1.985	correct	generate	Run3	generate/STIM_020.jpg
2199.437	1.933	correct	generate	Run3	generate/STIM_020.jpg
2205.111	1.405	correct	generate	Run3	generate/STIM_020.jpg
2209.267	1.933	correct	generate	Run3	generate/STIM_020.jpg
2214.311	1.891	correct	generate	Run3	generate/STIM_021.jpg
2219.561	1.919	correct	generate	Run3	generate/STIM_021.jpg
2223.778	1.364	correct	generate	Run3	generate/STIM_021.jpg
2228.096	0.905	correct	generate	Run3	generate/STIM_021.jpg
2231.217	1.793	correct	generate	Run3	generate/STIM_021.jpg
2235.994	1.62	correct	generate	Run3	generate/STIM_022.jpg
2240.25	1.71	correct	generate	Run3	generate/STIM_022.jpg
2244.49	0.89	correct	generate	Run3	generate/STIM_022.jpg
2249.14	1.808	correct	generate	Run3	generate/STIM_022.jpg
2253.408	1.014	correct	generate	Run3	generate/STIM_022.jpg
2257.137	1.453	correct	generate	Run3	generate/STIM_023.jpg
2262.103	2.016	correct	generate	Run3	generate/STIM_023.jpg
2266.906	1.082	correct	generate	Run3	generate/STIM_023.jpg
2270.202	2.05	correct	generate	Run3	generate/STIM_023.jpg
2275.216	1.607	correct	generate	Run3	generate/STIM_023.jpg
2279.331	1.621	correct	generate	Run3	generate/STIM_024.jpg
2284.546	1.114	correct	generate	Run3	generate/STIM_024.jpg
2289.052	1.596	correct	generate	Run3	generate/STIM_024.jpg
2294.477	1.258	correct	generate	Run3	generate/STIM_024.jpg
2298.687	1.155	correct	generate	Run3	generate/STIM_024.jpg
2302.689	0.822	correct	repeat	Run3	repeat/STIM_000.jpg
2306.41	0.736	correct	repeat	Run3	repeat/STIM_000.jpg
2310.877	0.545	correct	repeat	Run3	repeat/STIM_000.jpg
2313.476	0.561	correct	repeat	Run3	repeat/STIM_000.jpg
2317.124	0.794	correct	repeat	Run3	repeat/STIM_000.jpg
2321.343	0.684	correct	repeat	Run3	repeat/STIM_001.jpg
2324.955	0.613	correct	repeat	Run3	repeat/STIM_001.jpg
2327.818	0.537	correct	repeat	Run3	repeat/STIM_001.jpg
2330.763	0.556	correct	repeat	Run3	repeat/STIM_001.jpg
2335.306	0.872	correct	repeat	Run3	repeat/STIM_001.jpg
2339.609	0.918	correct	repeat	Run3	repeat/STIM_002.jpg
2343.756	0.558	correct	repeat	Run3	repeat/STIM_002.jpg
2346.509	0.764	correct	repeat	Run3	repeat/STIM_002.jpg
2350.034	0.558	correct	repeat	Run3	repeat/STIM_002.jpg
2353.675	0.63	correct	repeat	Run3	repeat/STIM_002.jpg
2356.541	0.784	correct	repeat	Run3	repeat/STIM_003.jpg
2361.193	0.772	correct	repeat	Run3	repeat/STIM_003.jpg
2364.466	0.986	correct	repeat	Run3	repeat/STIM_003.jpg
2367.739	0.881	correct	repeat	Run3	repeat/STIM_003.jpg
2371.638	0.654	correct	repeat	Run3	repeat/STIM_003.jpg
2376.153	0.661	correct	repeat	Run3	repeat/STIM_004.jpg
2379.757	0.545	correct	repeat	Run3	repeat/STIM_004.jpg
2382.926	0.886	correct	repeat	Run3	repeat/STIM_004.jpg
2386.059	0.923	correct	repeat	Run3	repeat/STIM_004.jpg
2389.029	0.502	correct	repeat	Run3	repeat/STIM_004.jpg
2391.981	0.529	correct	repeat	Run3	repeat/STIM_005.jpg
2395.103	0.643	correct	repeat	Run3	repeat/STIM_005.jpg
2398.31	0.973	correct	repeat	Run3	repeat/STIM_005.jpg
2403.25	0.608	correct	repeat	Run3	repeat/STIM_005.jpg
2407.81	0.756	correct	repeat	Run3	repeat/STIM_005.jpg
2412.028	0.844	correct	repeat	Run3	repeat/STIM_006.jpg
2415.953	0.599	correct	repeat	Run3	repeat/STIM_006.jpg
2420.421	0.793	correct	repeat	Run3	repeat/STIM_006.jpg
2425.055	0.887	correct	repeat	Run3	repeat/STIM_006.jpg
2428.912	0.828	correct	repeat	Run3	repeat/STIM_006.jpg
2433.029	0.902	correct	repeat	Run3	repeat/STIM_007.jpg
2437.534	0.678	correct	repeat	Run3	repeat/STIM_007.jpg
2441.827	0.964	correct	repeat	Run3	repeat/STIM_007.jpg
2445.896	0.63	correct	repeat	Run3	repeat/STIM_007.jpg
2449.89	0.753	correct	repeat	Run3	repeat/STIM_007.jpg
2453.989	0.836	correct	repeat	Run3	repeat/STIM_008.jpg
2458.217	0.576	correct	repeat	Run3	repeat/STIM_008.jpg
2461.258	0.679	correct	repeat	Run3	repeat/STIM_008.jpg
2464.112	0.71	correct	repeat	Run3	repeat/STIM_008.jpg
2466.865	0.964	correct	repeat	Run3	repeat/STIM_008.jpg
2471.215	0.905	correct	repeat	Run3	repeat/STIM_009.jpg
2474.234	0.933	correct	repeat	Run3	repeat/STIM_009.jpg
2478.885	0.588	correct	repeat	Run3	repeat/STIM_009.jpg
2481.877	0.719	correct	repeat	Run3	repeat/STIM_009.jpg
2486.314	0.671	correct	repeat	Run3	repeat/STIM_009.jpg
2490.68	0.887	correct	repeat	Run3	repeat/STIM_010.jpg
2495.44	0.815	correct	repeat	Run3	repeat/STIM_010.jpg
2499.895	0.619	correct	repeat	Run3	repeat/STIM_010.jpg
2502.769	0.554	correct	repeat	Run3	repeat/STIM_010.jpg
2505.842	0.645	correct	repeat	Run3	repeat/STIM_010.jpg
2509.156	0.766	correct	repeat	Run3	repeat/STIM_011.jpg
2512.834	0.843	correct	repeat	Run3	repeat/STIM_011.jpg
2516.789	0.945	correct	repeat	Run3	repeat/STIM_011.jpg
2521.166	0.549	correct	repeat	Run3	repeat/STIM_011.jpg
2524.411	0.744	correct	repeat	Run3	repeat/STIM_011.jpg
2527.78	0.718	correct	repeat	Run3	repeat/STIM_012.jpg
2532.208	0.816	correct	repeat	Run3	repeat/STIM_012.jpg
2536.463	0.824	correct	repeat	Run3	repeat/STIM_012.jpg
2540.124	0.64	correct	repeat	Run3	repeat/STIM_012.jpg
2543.436	0.646	correct	repeat	Run3	repeat/STIM_012.jpg
2547.939	0.86	correct	repeat	Run3	repeat/STIM_013.jpg
2551.437	0.634	correct	repeat	Run3	repeat/STIM_013.jpg
2555.803	0.759	correct	repeat	Run3	repeat/STIM_013.jpg
2560.264	0.622	correct	repeat	Run3	repeat/STIM_013.jpg
2563.616	0.806	correct	repeat	Run3	repeat/STIM_013.jpg
2566.75	0.814	correct	repeat	Run3	repeat/STIM_014.jpg
2569.852	0.871	correct	repeat	Run3	repeat/STIM_014.jpg
2573.147	0.826	correct	repeat	Run3	repeat/STIM_014.jpg
2577.593	0.878	correct	repeat	Run3	repeat/STIM_014.jpg
2582.136	0.879	correct	repeat	Run3	repeat/STIM_014.jpg
2585.226	1.193	correct	generate	Run4	generate/STIM_000.jpg
2590.019	1.092	correct	generate	Run4	generate/STIM_000.jpg
2593.833	1.458	correct	generate	Run4	generate/STIM_000.jpg
2598.244	1.039	correct	generate	Run4	generate/STIM_000.jpg
2601.989	1.46	correct	generate	Run4	generate/STIM_000.jpg
2606.517	1.222	correct	generate	Run4	generate/STIM_001.jpg
2611.628	1.023	correct	generate	Run4	generate/STIM_001.jpg
2614.834	1.4	correct	generate	Run4	generate/STIM_001.jpg
2619.563	0.985	correct	generate	Run4	generate/STIM_001.jpg
2622.837	1.942	correct	generate	Run4	generate/STIM_001.jpg
2626.995	1.236	correct	generate	Run4	generate/STIM_002.jpg
2631.284	1.92	correct	generate	Run4	generate/STIM_002.jpg
2635.763	1.94	correct	generate	Run4	generate/STIM_002.jpg
2640.935	1.32	correct	generate	Run4	generate/STIM_002.jpg
2645.814	1.844	correct	generate	Run4	generate/STIM_002.jpg
2651.027	1.01	correct	generate	Run4	generate/STIM_003.jpg
2655.609	1.602	correct	generate	Run4	generate/STIM_003.jpg
2659.936	1.812	correct	generate	Run4	generate/STIM_003.jpg
2665.476	1.305	correct	generate	Run4	generate/STIM_003.jpg
2669.86	1.978	correct	generate	Run4	generate/STIM_003.jpg
2675.63	1.738	correct	generate	Run4	generate/STIM_004.jpg
2681.201	1.646	correct	generate	Run4	generate/STIM_004.jpg
2686.7	1.374	correct	generate	Run4	generate/STIM_004.jpg
2690.361	1.094	correct	generate	Run4	generate/STIM_004.jpg
2694.675	1.283	correct	generate	Run4	generate/STIM_004.jpg
2699.548	1.629	correct	generate	Run4	generate/STIM_005.jpg
2704.266	1.381	correct	generate	Run4	generate/STIM_005.jpg
2708.628	0.838	correct	generate	Run4	generate/STIM_005.jpg
2711.706	1.891	correct	generate	Run4	generate/STIM_005.jpg
2716.568	1.924	correct	generate	Run4	generate/STIM_005.jpg
2721.906	1.513	correct	generate	Run4	generate/STIM_006.jpg
2726.403	1.173	correct	generate	Run4	generate/STIM_006.jpg
2729.862	1.485	correct	generate	Run4	generate/STIM_006.jpg
2734.124	1.142	correct	generate	Run4	generate/STIM_006.jpg
2738.309	1.919	correct	generate	Run4	generate/STIM_006.jpg
2743.487	1.034	correct	generate	Run4	generate/STIM_007.jpg
2747.286	1.648	correct	generate	Run4	generate/STIM_007.jpg
2752.561	1.125	correct	generate	Run4	generate/STIM_007.jpg
2756.604	1.701	correct	generate	Run4	generate/STIM_007.jpg
2761.43	1.325	correct	generate	Run4	generate/STIM_007.jpg
2765.482	0.996	correct	generate	Run4	generate/STIM_008.jpg
2769.302	2.038	correct	generate	Run4	generate/STIM_008.jpg
2773.569	1.862	correct	generate	Run4	generate/STIM_008.jpg
2779.193	1.978	correct	generate	Run4	generate/STIM_008.jpg
2784.778	1.185	correct	generate	Run4	generate/STIM_008.jpg
2788.004	1.272	correct	generate	Run4	generate/STIM_009.jpg
2792.335	1.27	correct	generate	Run4	generate/STIM_009.jpg
2797.536	1.85	correct	generate	Run4	generate/STIM_009.jpg
2801.87	1.276	correct	generate	Run4	generate/STIM_009.jpg
2805.925	0.92	correct	generate	Run4	generate/STIM_009.jpg
2810.319	1.935	correct	generate	Run4	generate/STIM_010.jpg
2816.068	1.754	correct	generate	Run4	generate/STIM_010.jpg
2820.59	1.513	correct	generate	Run4	generate/STIM_010.jpg
2824.77	1.067	correct	generate	Run4	generate/STIM_010.jpg
2828.202	0.935	correct	generate	Run4	generate/STIM_010.jpg
2832.686	1.648	correct	generate	Run4	generate/STIM_011.jpg
2836.382	1.18	correct	generate	Run4	generate/STIM_011.jpg
2839.983	1.721	correct	generate	Run4	generate/STIM_011.jpg
2844.628	1.294	correct	generate	Run4	generate/STIM_011.jpg
2848.177	1.858	correct	generate	Run4	generate/STIM_011.jpg
2852.9	2.067	correct	generate	Run4	generate/STIM_012.jpg
2857.974	1.089	correct	generate	Run4	generate/STIM_012.jpg
2862.892	1.705	correct	generate	Run4	generate/STIM_012.jpg
2868.557	1.64	correct	generate	Run4	generate/STIM_012.jpg
2873.842	1.578	correct	generate	Run4	generate/STIM_012.jpg
2877.705	1.673	correct	generate	Run4	generate/STIM_013.jpg
2881.503	0.89	correct	generate	Run4	generate/STIM_013.jpg
2886.312	1.632	correct	generate	Run4	generate/STIM_013.jpg
2890.375	1.724	correct	generate	Run4	generate/STIM_013.jpg
2895.576	1.914	correct	generate	Run4	generate/STIM_013.jpg
2900.828	0.981	correct	generate	Run4	generate/STIM_014.jpg
2905.351	1.602	correct	generate	Run4	generate/STIM_014.jpg
2910.876	1.842	correct	generate	Run4	generate/STIM_014.jpg
2916.032	1.36	correct	generate	Run4	generate/STIM_014.jpg
2920.86	1.964	correct	generate	Run4	generate/STIM_014.jpg
2925.028	1.851	correct	generate	Run4	generate/STIM_015.jpg
2929.959	1.23	correct	generate	Run4	generate/STIM_015.jpg
2933.718	2.021	correct	generate	Run4	generate/STIM_015.jpg
2938.882	1.882	correct	generate	Run4	generate/STIM_015.jpg
2943.748	1.152	correct	generate	Run4	generate/STIM_015.jpg
2948.847	1.63	correct	generate	Run4	generate/STIM_016.jpg
2953.555	2.066	correct	generate	Run4	generate/STIM_016.jpg
2958.963	1.705	correct	generate	Run4	generate/STIM_016.jpg
2963.303	1.153	correct	generate	Run4	generate/STIM_016.jpg
2966.48	0.967	correct	generate	Run4	generate/STIM_016.jpg
2970.627	1.668	correct	generate	Run4	generate/STIM_017.jpg
2974.311	1.027	correct	generate	Run4	generate/STIM_017.jpg
2979.255	1.535	correct	generate	Run4	generate/STIM_017.jpg
2983.4	1.809	correct	generate	Run4	generate/STIM_017.jpg
2987.309	1.091	correct	generate	Run4	generate/STIM_017.jpg
2991.801	1.356	correct	generate	Run4	generate/STIM_018.jpg
2995.208	2.019	correct	generate	Run4	generate/STIM_018.jpg
3000.321	1.229	correct	generate	Run4	generate/STIM_018.jpg
3004.799	1.672	correct	generate	Run4	generate/STIM_018.jpg
3010.219	1.561	correct	generate	Run4	generate/STIM_018.jpg
3014.992	0.914	correct	generate	Run4	generate/STIM_019.jpg
3019.134	1.924	correct	generate	Run4	generate/STIM_019.jpg
3023.578	1.426	correct	generate	Run4	generate/STIM_019.jpg
3028.013	1.095	correct	generate	Run4	generate/STIM_019.jpg
3032.229	1.236	correct	generate	Run4	generate/STIM_019.jpg
3036.309	1.572	correct	generate	Run4	generate/STIM_020.jpg
3041.164	1.455	correct	generate	Run4	generate/STIM_020.jpg
3045.827	1.726	correct	generate	Run4	generate/STIM_020.jpg
3050.954	1.757	incorrect	generate	Run4	generate/STIM_020.jpg
3055.636	1.975	correct	generate	Run4	generate/STIM_020.jpg
3060.684	1.889	correct	generate	Run4	generate/STIM_021.jpg
3065.786	1.084	correct	generate	Run4	generate/STIM_021.jpg
3068.97	1.209	correct	generate	Run4	generate/STIM_021.jpg
3072.269	1.996	correct	generate	Run4	generate/STIM_021.jpg
3077.709	1.058	correct	generate	Run4	generate/STIM_021.jpg
3081.522	1.76	correct	generate	Run4	generate/STIM_022.jpg
3085.989	1.58	correct	generate	Run4	generate/STIM_022.jpg
3091.239	1.42	correct	generate	Run4	generate/STIM_022.jpg
3094.679	0.9	correct	generate	Run4	generate/STIM_022.jpg
3099.017	0.853	correct	generate	Run4	generate/STIM_022.jpg
3102.65	0.902	correct	generate	Run4	generate/STIM_023.jpg
3105.764	1.609	correct	generate	Run4	generate/STIM_023.jpg
3111.107	1.759	correct	generate	Run4	generate/STIM_023.jpg
3114.987	0.989	correct	generate	Run4	generate/STIM_023.jpg
3118.613	2.015	correct	generate	Run4	generate/STIM_023.jpg
3124.032	1.934	correct	generate	Run4	generate/STIM_024.jpg
3129.747	1.124	correct	generate	Run4	generate/STIM_024.jpg
3134.702	1.789	correct	generate	Run4	generate/STIM_024.jpg
3140.427	1.595	correct	generate	Run4	generate/STIM_024.jpg
3144.42	1.754	correct	generate	Run4	generate/STIM_024.jpg
3148.899	0.81	correct	repeat	Run4	repeat/STIM_000.jpg
3151.922	0.726	correct	repeat	Run4	repeat/STIM_000.jpg
3154.693	0.761	correct	repeat	Run4	repeat/STIM_000.jpg
3159.106	0.911	correct	repeat	Run4	repeat/STIM_000.jpg
3163.885	0.629	correct	repeat	Run4	repeat/STIM_000.jpg
3167.38	0.63	correct	repeat	Run4	repeat/STIM_001.jpg
3170.201	0.616	correct	repeat	Run4	repeat/STIM_001.jpg
3173.036	0.659	correct	repeat	Run4	repeat/STIM_001.jpg
3177.604	0.557	correct	repeat	Run4	repeat/STIM_001.jpg
3181.633	0.852	correct	repeat	Run4	repeat/STIM_001.jpg
3186.445	0.724	correct	repeat	Run4	repeat/STIM_002.jpg
3189.346	0.502	correct	repeat	Run4	repeat/STIM_002.jpg
3193.207	0.976	correct	repeat	Run4	repeat/STIM_002.jpg
3197.949	0.888	correct	repeat	Run4	repeat/STIM_002.jpg
3201.19	0.736	correct	repeat	Run4	repeat/STIM_002.jpg
3204.448	0.614	correct	repeat	Run4	repeat/STIM_003.jpg
3207.142	0.543	correct	repeat	Run4	repeat/STIM_003.jpg
3211.205	0.761	correct	repeat	Run4	repeat/STIM_003.jpg
3215.859	0.797	correct	repeat	Run4	repeat/STIM_003.jpg
3219.65	0.789	correct	repeat	Run4	repeat/STIM_003.jpg
3224.029	0.882	correct	repeat	Run4	repeat/STIM_004.jpg
3226.914	0.796	correct	repeat	Run4	repeat/STIM_004.jpg
3230.501	0.691	correct	repeat	Run4	repeat/STIM_004.jpg
3235.069	0.52	correct	repeat	Run4	repeat/STIM_004.jpg
3238.809	0.776	correct	repeat	Run4	repeat/STIM_004.jpg
3242.335	0.52	correct	repeat	Run4	repeat/STIM_005.jpg
3245.421	0.661	correct	repeat	Run4	repeat/STIM_005.jpg
3249.807	0.563	correct	repeat	Run4	repeat/STIM_005.jpg
3253.915	0.614	correct	repeat	Run4	repeat/STIM_005.jpg
3258.302	0.624	correct	repeat	Run4	repeat/STIM_005.jpg
3262.632	0.504	correct	repeat	Run4	repeat/STIM_006.jpg
3265.776	0.963	correct	repeat	Run4	repeat/STIM_006.jpg
3269.91	0.574	correct	repeat	Run4	repeat/STIM_006.jpg
3274.037	0.762	correct	repeat	Run4	repeat/STIM_006.jpg
3278.648	0.682	correct	repeat	Run4	repeat/STIM_006.jpg
3281.941	0.721	correct	repeat	Run4	repeat/STIM_007.jpg
3286.318	0.552	correct	repeat	Run4	repeat/STIM_007.jpg
3290.852	0.694	correct	repeat	Run4	repeat/STIM_007.jpg
3295.021	0.601	correct	repeat	Run4	repeat/STIM_007.jpg
3299.228	0.505	correct	repeat	Run4	repeat/STIM_007.jpg
3303.373	0.896	correct	repeat	Run4	repeat/STIM_008.jpg
3307.981	0.826	correct	repeat	Run4	repeat/STIM_008.jpg
3311.825	0.922	correct	repeat	Run4	repeat/STIM_008.jpg
3315.38	0.652	correct	repeat	Run4	repeat/STIM_008.jpg
3319.781	0.725	correct	repeat	Run4	repeat/STIM_008.jpg
3322.866	0.667	incorrect	repeat	Run4	repeat/STIM_009.jpg
3326.711	0.513	correct	repeat	Run4	repeat/STIM_009.jpg
3330.859	0.588	correct	repeat	Run4	repeat/STIM_009.jpg
3335.442	0.99	correct	repeat	Run4	repeat/STIM_009.jpg
3338.845	0.664	correct	repeat	Run4	repeat/STIM_009.jpg
3342.871	0.701	incorrect	repeat	Run4	repeat/STIM_010.jpg
3346.716	0.834	correct	repeat	Run4	repeat/STIM_010.jpg
3349.922	0.973	correct	repeat	Run4	repeat/STIM_010.jpg
3354.343	0.963	correct	repeat	Run4	repeat/STIM_010.jpg
3358.067	0.82	correct	repeat	Run4	repeat/STIM_010.jpg
3361.485	0.599	correct	repeat	Run4	repeat/STIM_011.jpg
3364.712	0.904	correct	repeat	Run4	repeat/STIM_011.jpg
3367.925	0.831	correct	repeat	Run4	repeat/STIM_011.jpg
3372.213	0.639	correct	repeat	Run4	repeat/STIM_011.jpg
3376.742	0.777	correct	repeat	Run4	repeat/STIM_011.jpg
3380.771	0.545	correct	repeat	Run4	repeat/STIM_012.jpg
3384.262	0.552	correct	repeat	Run4	repeat/STIM_012.jpg
3387.87	0.636	correct	repeat	Run4	repeat/STIM_012.jpg
3391.537	0.873	correct	repeat	Run4	repeat/STIM_012.jpg
3395.689	0.928	correct	repeat	Run4	repeat/STIM_012.jpg
3399.307	0.957	correct	repeat	Run4	repeat/STIM_013.jpg
3402.653	0.992	correct	repeat	Run4	repeat/STIM_013.jpg
3405.94	0.759	correct	repeat	Run4	repeat/STIM_013.jpg
3410.356	0.54	correct	repeat	Run4	repeat/STIM_013.jpg
3413.918	0.727	correct	repeat	Run4	repeat/STIM_013.jpg
3418.231	0.801	correct	repeat	Run4	repeat/STIM_014.jpg
3422.261	0.509	correct	repeat	Run4	repeat/STIM_014.jpg
3425.623	0.564	correct	repeat	Run4	repeat/STIM_014.jpg
3429.443	0.901	correct	repeat	Run4	repeat/STIM_014.jpg
3432.577	0.591	correct	repeat	Run4	repeat/STIM_014.jpg
