onset	duration	response_time_ms	trial_type	learning_stage	stimulus	response_port
0.0	2.592	2592.1	generate	Run1	generate/STIM_000.jpg	100
4.674	2.003	2003.4	generate	Run1	generate/STIM_000.jpg	100
10.658	1.093	1093.4	generate	Run1	generate/STIM_000.jpg	99
14.828	2.484	2484.4	generate	Run1	generate/STIM_000.jpg	99
21.27	2.32	2320.2	generate	Run1	generate/STIM_000.jpg	100
27.187	2.372	2372.5	generate	Run1	generate/STIM_001.jpg	99
32.648	2.036	2036.2	generate	Run1	generate/STIM_001.jpg	99
38.564	2.103	2102.7	generate	Run1	generate/STIM_001.jpg	99
44.629	1.29	1289.8	generate	Run1	generate/STIM_001.jpg	99
49.504	1.308	1308.2	generate	Run1	generate/STIM_001.jpg	100
53.463	1.25	1250.5	generate	Run1	generate/STIM_002.jpg	99
57.16	2.534	2534.5	generate	Run1	generate/STIM_002.jpg	99
63.326	1.361	1361.3	generate	Run1	generate/STIM_002.jpg	99
67.036	1.079	1079.4	generate	Run1	generate/STIM_002.jpg	100
71.655	1.809	1808.8	generate	Run1	generate/STIM_002.jpg	99
77.18	2.368	2368.2	generate	Run1	generate/STIM_003.jpg	100
83.542	2.109	2108.8	generate	Run1	generate/STIM_003.jpg	99
88.368	2.663	2662.6	generate	Run1	generate/STIM_003.jpg	99
94.809	2.283	2283.0	generate	Run1	generate/STIM_003.jpg	99
100.003	1.114	1114.5	generate	Run1	generate/STIM_003.jpg	100
103.338	1.719	1718.6	generate	Run1	generate/STIM_004.jpg	100
107.58	1.259	1258.6	generate	Run1	generate/STIM_004.jpg	99
110.878	2.492	2492.0	generate	Run1	generate/STIM_004.jpg	100
115.401	2.192	2191.6	generate	Run1	generate/STIM_004.jpg	99
119.706	1.971	1970.6	generate	Run1	generate/STIM_004.jpg	99
123.774	2.519	2518.8	generate	Run1	generate/STIM_005.jpg	100
128.824	1.694	1694.2	generate	Run1	generate/STIM_005.jpg	99
133.029	2.088	2087.9	generate	Run1	generate/STIM_005.jpg	99
137.318	1.565	1565.3	generate	Run1	generate/STIM_005.jpg	100
141.792	2.157	2157.1	generate	Run1	generate/STIM_005.jpg	100
146.723	1.239	1239.3	generate	Run1	generate/STIM_006.jpg	100
151.288	2.199	2199.3	generate	Run1	generate/STIM_006.jpg	99
156.207	2.032	2032.0	generate	Run1	generate/STIM_006.jpg	99
160.248	1.985	1985.0	generate	Run1	generate/STIM_006.jpg	99
165.572	1.065	1064.7	generate	Run1	generate/STIM_006.jpg	100
169.578	2.614	2614.1	generate	Run1	generate/STIM_007.jpg	99
174.399	2.193	2193.4	generate	Run1	generate/STIM_007.jpg	100
179.587	2.292	2291.9	generate	Run1	generate/STIM_007.jpg	100
185.693	2.274	2274.0	generate	Run1	generate/STIM_007.jpg	100
190.634	1.284	1283.6	generate	Run1	generate/STIM_007.jpg	100
195.015	1.572	1571.7	generate	Run1	generate/STIM_008.jpg	99
200.503	1.488	1488.0	generate	Run1	generate/STIM_008.jpg	99
204.862	1.566	1566.1	generate	Run1	generate/STIM_008.jpg	99
209.995	2.13	2130.1	generate	Run1	generate/STIM_008.jpg	99
214.902	1.408	1407.9	generate	Run1	generate/STIM_008.jpg	99
219.999	1.841	1841.2	generate	Run1	generate/STIM_009.jpg	100
224.731	1.87	1869.9	generate	Run1	generate/STIM_009.jpg	99
230.503	2.09	2090.1	generate	Run1	generate/STIM_009.jpg	99
236.212	2.065	2064.6	generate	Run1	generate/STIM_009.jpg	99
242.095	1.468	1467.7	generate	Run1	generate/STIM_009.jpg	100
247.115	1.552	1551.6	generate	Run1	generate/STIM_010.jpg	99
250.95	1.535	1534.6	generate	Run1	generate/STIM_010.jpg	99
255.343	1.451	1451.2	generate	Run1	generate/STIM_010.jpg	100
260.329	1.049	1049.0	generate	Run1	generate/STIM_010.jpg	100
265.175	1.132	1131.5	generate	Run1	generate/STIM_010.jpg	100
268.687	1.946	1945.8	generate	Run1	generate/STIM_011.jpg	100
273.472	1.837	1837.4	generate	Run1	generate/STIM_011.jpg	99
277.573	1.769	1768.6	generate	Run1	generate/STIM_011.jpg	99
282.989	1.193	1192.7	generate	Run1	generate/STIM_011.jpg	100
287.574	1.905	1905.0	generate	Run1	generate/STIM_011.jpg	100
291.665	2.764	2763.6	generate	Run1	generate/STIM_012.jpg	100
297.378	2.453	2453.0	generate	Run1	generate/STIM_012.jpg	100
303.494	1.729	1729.1	generate	Run1	generate/STIM_012.jpg	99
309.222	2.082	2081.6	generate	Run1	generate/STIM_012.jpg	100
314.12	1.45	1449.5	generate	Run1	generate/STIM_012.jpg	100
317.617	1.381	1380.6	generate	Run1	generate/STIM_013.jpg	100
321.994	1.492	1492.3	generate	Run1	generate/STIM_013.jpg	100
325.963	2.162	2162.5	generate	Run1	generate/STIM_013.jpg	100
331.672	2.13	2129.5	generate	Run1	generate/STIM_013.jpg	99
337.205	1.12	1119.9	generate	Run1	generate/STIM_013.jpg	99
341.417	1.271	1270.9	generate	Run1	generate/STIM_014.jpg	100
345.974	1.29	1290.3	generate	Run1	generate/STIM_014.jpg	100
349.797	2.417	2417.4	generate	Run1	generate/STIM_014.jpg	100
354.481	1.412	1411.9	generate	Run1	generate/STIM_014.jpg	99
359.823	2.176	2175.8	generate	Run1	generate/STIM_014.jpg	100
365.673	1.424	1423.9	generate	Run1	generate/STIM_015.jpg	99
370.67	1.207	1207.2	generate	Run1	generate/STIM_015.jpg	100
374.023	1.409	1408.9	generate	Run1	generate/STIM_015.jpg	100
378.093	2.089	2088.9	generate	Run1	generate/STIM_015.jpg	99
382.782	1.817	1817.4	generate	Run1	generate/STIM_015.jpg	100
387.408	1.941	1941.1	generate	Run1	generate/STIM_016.jpg	99
392.872	1.764	1764.3	generate	Run1	generate/STIM_016.jpg	100
396.789	1.273	1273.2	generate	Run1	generate/STIM_016.jpg	99
401.383	2.281	2281.2	generate	Run1	generate/STIM_016.jpg	100
406.771	1.132	1132.1	generate	Run1	generate/STIM_016.jpg	100
410.82	2.449	2448.6	generate	Run1	generate/STIM_017.jpg	99
415.395	2.437	2437.4	generate	Run1	generate/STIM_017.jpg	100
420.77	1.887	1887.1	generate	Run1	generate/STIM_017.jpg	99
424.993	1.476	1475.8	generate	Run1	generate/STIM_017.jpg	100
429.86	1.838	1837.5	generate	Run1	generate/STIM_017.jpg	100
435.574	1.939	1939.2	generate	Run1	generate/STIM_018.jpg	100
441.067	1.207	1206.8	generate	Run1	generate/STIM_018.jpg	100
444.498	1.297	1296.8	generate	Run1	generate/STIM_018.jpg	99
449.439	2.417	2416.8	generate	Run1	generate/STIM_018.jpg	99
455.417	1.686	1686.2	generate	Run1	generate/STIM_018.jpg	100
459.183	2.98	2980.1	generate	Run1	generate/STIM_019.jpg	99
466.117	1.294	1293.5	generate	Run1	generate/STIM_019.jpg	100
470.299	2.393	2393.2	generate	Run1	generate/STIM_019.jpg	100
476.305	1.725	1724.7	generate	Run1	generate/STIM_019.jpg	99
481.553	0.981	980.8	generate	Run1	generate/STIM_019.jpg	99
485.542	2.029	2028.7	generate	Run1	generate/STIM_020.jpg	100
489.873	1.217	1217.4	generate	Run1	generate/STIM_020.jpg	99
493.776	1.564	1563.7	generate	Run1	generate/STIM_020.jpg	99
498.628	1.021	1020.8	generate	Run1	generate/STIM_020.jpg	100
503.014	1.402	1401.8	generate	Run1	generate/STIM_020.jpg	99
508.383	2.966	2966.5	generate	Run1	generate/STIM_021.jpg	99
515.211	2.72	2720.3	generate	Run1	generate/STIM_021.jpg	100
521.519	1.294	1293.6	generate	Run1	generate/STIM_021.jpg	99
526.257	1.281	1281.3	generate	Run1	generate/STIM_021.jpg	99
529.996	0.957	957.2	generate	Run1	generate/STIM_021.jpg	100
533.804	2.63	2629.7	generate	Run1	generate/STIM_022.jpg	99
540.28	2.245	2245.4	generate	Run1	generate/STIM_022.jpg	100
545.759	1.084	1083.8	generate	Run1	generate/STIM_022.jpg	100
548.902	2.223	2223.3	generate	Run1	generate/STIM_022.jpg	99
553.126	1.816	1815.7	generate	Run1	generate/STIM_022.jpg	100
556.957	1.596	1596.2	generate	Run1	generate/STIM_023.jpg	99
561.573	2.365	2364.7	generate	Run1	generate/STIM_023.jpg	99
566.176	1.858	1857.6	generate	Run1	generate/STIM_023.jpg	100
570.795	2.005	2004.6	generate	Run1	generate/STIM_023.jpg	100
575.601	1.139	1138.7	generate	Run1	generate/STIM_023.jpg	100
578.88	2.485	2484.9	generate	Run1	generate/STIM_024.jpg	99
583.748	1.853	1852.7	generate	Run1	generate/STIM_024.jpg	99
588.233	1.764	1764.2	generate	Run1	generate/STIM_024.jpg	100
592.133	1.091	1091.3	generate	Run1	generate/STIM_024.jpg	100
597.204	1.147	1146.7	generate	Run1	generate/STIM_024.jpg	99
601.677	0.555	554.9	repeat	Run1	repeat/STIM_000.jpg	99
604.345	0.925	924.9	repeat	Run1	repeat/STIM_000.jpg	99
609.048	0.503	502.6	repeat	Run1	repeat/STIM_000.jpg	100
611.883	0.779	778.8	repeat	Run1	repeat/STIM_000.jpg	100
616.423	0.984	984.1	repeat	Run1	repeat/STIM_000.jpg	99
620.669	0.598	597.7	repeat	Run1	repeat/STIM_001.jpg	99
624.955	0.963	963.1	repeat	Run1	repeat/STIM_001.jpg	99
628.498	0.751	751.4	repeat	Run1	repeat/STIM_001.jpg	100
633.125	0.995	994.7	repeat	Run1	repeat/STIM_001.jpg	100
637.419	0.576	576.1	repeat	Run1	repeat/STIM_001.jpg	100
640.876	0.632	631.6	repeat	Run1	repeat/STIM_002.jpg	99
645.394	0.772	771.5	repeat	Run1	repeat/STIM_002.jpg	99
649.617	0.535	534.9	repeat	Run1	repeat/STIM_002.jpg	99
652.481	0.764	763.8	repeat	Run1	repeat/STIM_002.jpg	99
656.276	0.536	535.8	repeat	Run1	repeat/STIM_002.jpg	99
659.398	0.75	750.3	repeat	Run1	repeat/STIM_003.jpg	100
662.223	0.693	692.8	repeat	Run1	repeat/STIM_003.jpg	100
666.245	0.985	984.8	repeat	Run1	repeat/STIM_003.jpg	100
670.517	0.644	643.6	repeat	Run1	repeat/STIM_003.jpg	100
674.812	0.555	554.7	repeat	Run1	repeat/STIM_003.jpg	99
678.491	0.946	945.5	repeat	Run1	repeat/STIM_004.jpg	100
682.404	0.822	822.0	repeat	Run1	repeat/STIM_004.jpg	100
686.28	0.562	562.1	repeat	Run1	repeat/STIM_004.jpg	99
690.746	0.532	532.5	repeat	Run1	repeat/STIM_004.jpg	99
694.7	0.634	634.2	repeat	Run1	repeat/STIM_004.jpg	100
698.978	0.671	671.0	repeat	Run1	repeat/STIM_005.jpg	99
702.475	0.906	906.0	repeat	Run1	repeat/STIM_005.jpg	99
705.953	0.516	516.0	repeat	Run1	repeat/STIM_005.jpg	99
708.486	0.988	987.5	repeat	Run1	repeat/STIM_005.jpg	100
712.59	0.562	562.5	repeat	Run1	repeat/STIM_005.jpg	99
716.99	0.508	508.3	repeat	Run1	repeat/STIM_006.jpg	99
720.69	0.917	917.1	repeat	Run1	repeat/STIM_006.jpg	100
725.493	0.882	882.2	repeat	Run1	repeat/STIM_006.jpg	99
729.552	0.851	850.6	repeat	Run1	repeat/STIM_006.jpg	100
732.839	0.835	835.4	repeat	Run1	repeat/STIM_006.jpg	99
735.693	0.909	909.4	repeat	Run1	repeat/STIM_007.jpg	99
738.723	0.639	639.3	repeat	Run1	repeat/STIM_007.jpg	100
743.083	0.949	949.1	repeat	Run1	repeat/STIM_007.jpg	99
747.954	0.591	590.7	repeat	Run1	repeat/STIM_007.jpg	99
750.781	0.537	537.1	repeat	Run1	repeat/STIM_007.jpg	99
754.493	0.593	592.7	repeat	Run1	repeat/STIM_008.jpg	99
757.681	0.571	571.0	repeat	Run1	repeat/STIM_008.jpg	99
762.07	0.69	689.6	repeat	Run1	repeat/STIM_008.jpg	99
766.573	0.638	638.3	repeat	Run1	repeat/STIM_008.jpg	99
770.83	0.503	503.2	repeat	Run1	repeat/STIM_008.jpg	99
775.253	0.633	633.2	repeat	Run1	repeat/STIM_009.jpg	99
778.464	0.918	917.6	repeat	Run1	repeat/STIM_009.jpg	99
781.749	0.668	668.1	repeat	Run1	repeat/STIM_009.jpg	99
785.295	0.992	991.5	repeat	Run1	repeat/STIM_009.jpg	99
789.742	0.817	817.1	repeat	Run1	repeat/STIM_009.jpg	100
794.445	0.617	616.8	repeat	Run1	repeat/STIM_010.jpg	99
797.6	0.624	623.9	repeat	Run1	repeat/STIM_010.jpg	99
800.761	0.949	949.1	repeat	Run1	repeat/STIM_010.jpg	99
803.865	0.868	867.8	repeat	Run1	repeat/STIM_010.jpg	100
807.56	0.861	860.6	repeat	Run1	repeat/STIM_010.jpg	99
811.856	0.969	968.6	repeat	Run1	repeat/STIM_011.jpg	99
815.754	0.873	873.4	repeat	Run1	repeat/STIM_011.jpg	100
820.04	0.991	991.1	repeat	Run1	repeat/STIM_011.jpg	99
824.585	0.668	668.5	repeat	Run1	repeat/STIM_011.jpg	99
827.33	0.914	913.8	repeat	Run1	repeat/STIM_011.jpg	100
831.457	0.504	504.3	repeat	Run1	repeat/STIM_012.jpg	99
835.021	0.926	925.8	repeat	Run1	repeat/STIM_012.jpg	100
838.127	0.515	515.1	repeat	Run1	repeat/STIM_012.jpg	99
842.274	0.988	988.3	repeat	Run1	repeat/STIM_012.jpg	100
846.725	0.609	608.8	repeat	Run1	repeat/STIM_012.jpg	99
850.093	0.678	678.1	repeat	Run1	repeat/STIM_013.jpg	100
853.796	0.746	745.5	repeat	Run1	repeat/STIM_013.jpg	100
857.216	0.99	989.9	repeat	Run1	repeat/STIM_013.jpg	100
860.244	0.955	955.2	repeat	Run1	repeat/STIM_013.jpg	100
864.695	0.873	872.8	repeat	Run1	repeat/STIM_013.jpg	100
868.651	0.532	532.5	repeat	Run1	repeat/STIM_014.jpg	99
872.906	0.507	507.5	repeat	Run1	repeat/STIM_014.jpg	99
877.398	0.989	989.2	repeat	Run1	repeat/STIM_014.jpg	100
881.649	0.977	977.3	repeat	Run1	repeat/STIM_014.jpg	99
885.669	0.788	788.1	repeat	Run1	repeat/STIM_014.jpg	99
888.709	2.244	2244.4	generate	Run2	generate/STIM_000.jpg	100
894.757	1.889	1888.8	generate	Run2	generate/STIM_000.jpg	99
900.136	1.961	1960.6	generate	Run2	generate/STIM_000.jpg	99
906.025	1.765	1764.6	generate	Run2	generate/STIM_000.jpg	100
911.698	1.478	1478.5	generate	Run2	generate/STIM_000.jpg	100
915.521	1.55	1549.8	generate	Run2	generate/STIM_001.jpg	100
919.317	1.571	1571.3	generate	Run2	generate/STIM_001.jpg	100
924.827	1.365	1364.6	generate	Run2	generate/STIM_001.jpg	100
928.399	1.925	1924.7	generate	Run2	generate/STIM_001.jpg	99
933.987	1.852	1851.6	generate	Run2	generate/STIM_001.jpg	100
938.113	1.66	1660.1	generate	Run2	generate/STIM_002.jpg	99
943.176	1.484	1484.3	generate	Run2	generate/STIM_002.jpg	99
947.891	1.699	1698.8	generate	Run2	generate/STIM_002.jpg	99
952.535	1.922	1922.3	generate	Run2	generate/STIM_002.jpg	100
958.059	2.025	2025.0	generate	Run2	generate/STIM_002.jpg	99
963.604	1.3	1300.4	generate	Run2	generate/STIM_003.jpg	99
967.631	1.559	1558.9	generate	Run2	generate/STIM_003.jpg	99
973.046	1.411	1410.7	generate	Run2	generate/STIM_003.jpg	100
976.857	1.417	1417.3	generate	Run2	generate/STIM_003.jpg	100
981.622	1.304	1304.2	generate	Run2	generate/STIM_003.jpg	100
985.029	1.148	1148.5	generate	Run2	generate/STIM_004.jpg	100
989.186	1.101	1100.8	generate	Run2	generate/STIM_004.jpg	100
992.377	1.579	1579.2	generate	Run2	generate/STIM_004.jpg	99
996.593	1.314	1313.5	generate	Run2	generate/STIM_004.jpg	99
1000.146	1.947	1946.6	generate	Run2	generate/STIM_004.jpg	100
1005.305	1.993	1992.6	generate	Run2	generate/STIM_005.jpg	99
1009.792	1.751	1751.0	generate	Run2	generate/STIM_005.jpg	99
1014.76	1.932	1931.8	generate	Run2	generate/STIM_005.jpg	99
1019.853	2.022	2021.6	generate	Run2	generate/STIM_005.jpg	100
1025.277	1.056	1055.7	generate	Run2	generate/STIM_005.jpg	99
1028.503	1.804	1804.2	generate	Run2	generate/STIM_006.jpg	99
1032.535	2.237	2236.8	generate	Run2	generate/STIM_006.jpg	100
1038.73	2.162	2161.6	generate	Run2	generate/STIM_006.jpg	99
1043.965	1.389	1388.7	generate	Run2	generate/STIM_006.jpg	100
1048.405	1.667	1667.2	generate	Run2	generate/STIM_006.jpg	99
1053.284	1.693	1693.4	generate	Run2	generate/STIM_007.jpg	99
1058.601	1.138	1137.8	generate	Run2	generate/STIM_007.jpg	100
1062.586	0.944	944.2	generate	Run2	generate/STIM_007.jpg	99
1065.962	1.699	1699.0	generate	Run2	generate/STIM_007.jpg	99
1070.727	1.078	1078.1	generate	Run2	generate/STIM_007.jpg	99
1075.463	2.397	2396.9	generate	Run2	generate/STIM_008.jpg	99
1081.52	2.109	2108.7	generate	Run2	generate/STIM_008.jpg	100
1086.051	0.949	948.8	generate	Run2	generate/STIM_008.jpg	100
1089.686	2.006	2006.2	generate	Run2	generate/STIM_008.jpg	99
1095.647	1.522	1522.1	generate	Run2	generate/STIM_008.jpg	99
1099.823	2.091	2091.3	generate	Run2	generate/STIM_009.jpg	100
1105.019	1.041	1041.0	generate	Run2	generate/STIM_009.jpg	99
1108.988	1.126	1125.8	generate	Run2	generate/STIM_009.jpg	100
1112.92	1.878	1878.0	generate	Run2	generate/STIM_009.jpg	99
1118.604	1.812	1812.3	generate	Run2	generate/STIM_009.jpg	99
1124.07	1.332	1331.9	generate	Run2	generate/STIM_010.jpg	100
1127.635	1.882	1882.1	generate	Run2	generate/STIM_010.jpg	99
1132.579	2.095	2094.9	generate	Run2	generate/STIM_010.jpg	99
1138.024	1.27	1270.1	generate	Run2	generate/STIM_010.jpg	100
1142.635	1.198	1197.5	generate	Run2	generate/STIM_010.jpg	99
1145.87	1.971	1971.1	generate	Run2	generate/STIM_011.jpg	100
1150.746	1.201	1201.2	generate	Run2	generate/STIM_011.jpg	100
1154.387	2.231	2231.3	generate	Run2	generate/STIM_011.jpg	99
1158.843	1.789	1789.0	generate	Run2	generate/STIM_011.jpg	99
1163.712	1.784	1783.6	generate	Run2	generate/STIM_011.jpg	100
1168.357	1.062	1061.9	generate	Run2	generate/STIM_012.jpg	99
1171.943	2.306	2305.9	generate	Run2	generate/STIM_012.jpg	99
1177.628	1.492	1492.1	generate	Run2	generate/STIM_012.jpg	100
1181.623	1.029	1029.2	generate	Run2	generate/STIM_012.jpg	100
1186.32	1.008	1008.2	generate	Run2	generate/STIM_012.jpg	99
1189.945	1.111	1110.6	generate	Run2	generate/STIM_013.jpg	100
1194.335	1.097	1096.7	generate	Run2	generate/STIM_013.jpg	99
1197.591	1.742	1742.1	generate	Run2	generate/STIM_013.jpg	100
1202.419	1.077	1077.0	generate	Run2	generate/STIM_013.jpg	99
1206.637	1.972	1972.5	generate	Run2	generate/STIM_013.jpg	99
1211.126	1.19	1189.9	generate	Run2	generate/STIM_014.jpg	100
1215.122	2.003	2003.4	generate	Run2	generate/STIM_014.jpg	100
1220.777	1.228	1227.6	generate	Run2	generate/STIM_014.jpg	99
1224.099	1.101	1101.1	generate	Run2	generate/STIM_014.jpg	100
1229.079	1.575	1575.2	generate	Run2	generate/STIM_014.jpg	100
1233.04	1.462	1461.5	generate	Run2	generate/STIM_015.jpg	99
1237.777	1.893	1892.7	generate	Run2	generate/STIM_015.jpg	99
1242.876	1.781	1781.4	generate	Run2	generate/STIM_015.jpg	99
1248.246	1.13	1130.5	generate	Run2	generate/STIM_015.jpg	100
1252.312	1.83	1830.3	generate	Run2	generate/STIM_015.jpg	100
1256.967	1.123	1123.2	generate	Run2	generate/STIM_016.jpg	100
1260.431	1.532	1531.6	generate	Run2	generate/STIM_016.jpg	99
1265.376	1.907	1906.7	generate	Run2	generate/STIM_016.jpg	99
1270.188	1.133	1132.6	generate	Run2	generate/STIM_016.jpg	100
1274.972	1.245	1244.7	generate	Run2	generate/STIM_016.jpg	99
1279.585	1.055	1055.3	generate	Run2	generate/STIM_017.jpg	99
1282.658	1.881	1881.3	generate	Run2	generate/STIM_017.jpg	100
1287.337	2.052	2051.6	generate	Run2	generate/STIM_017.jpg	99
1293.314	1.197	1197.3	generate	Run2	generate/STIM_017.jpg	99
1297.958	0.933	932.8	generate	Run2	generate/STIM_017.jpg	100
1302.78	1.48	1480.2	generate	Run2	generate/STIM_018.jpg	99
1306.734	1.199	1199.3	generate	Run2	generate/STIM_018.jpg	99
1310.228	1.675	1674.9	generate	Run2	generate/STIM_018.jpg	100
1314.856	2.054	2054.5	generate	Run2	generate/STIM_018.jpg	100
1319.092	1.06	1060.2	generate	Run2	generate/STIM_018.jpg	100
1323.909	1.671	1671.3	generate	Run2	generate/STIM_019.jpg	99
1328.91	1.554	1554.1	generate	Run2	generate/STIM_019.jpg	100
1332.792	1.89	1890.2	generate	Run2	generate/STIM_019.jpg	100
1337.362	1.016	1016.1	generate	Run2	generate/STIM_019.jpg	99
1341.049	1.317	1316.9	generate	Run2	generate/STIM_019.jpg	99
1344.692	1.159	1159.2	generate	Run2	generate/STIM_020.jpg	100
1349.36	1.066	1066.4	generate	Run2	generate/STIM_020.jpg	100
1353.344	1.51	1510.4	generate	Run2	generate/STIM_020.jpg	100
1357.48	1.951	1950.6	generate	Run2	generate/STIM_020.jpg	99
1362.116	0.99	989.9	generate	Run2	generate/STIM_020.jpg	100
1365.801	2.0	1999.6	generate	Run2	generate/STIM_021.jpg	100
1371.196	1.869	1869.2	generate	Run2	generate/STIM_021.jpg	100
1376.173	2.145	2145.4	generate	Run2	generate/STIM_021.jpg	99
1381.012	1.671	1671.0	generate	Run2	generate/STIM_021.jpg	99
1384.991	0.866	865.5	generate	Run2	generate/STIM_021.jpg	99
1389.71	2.122	2122.1	generate	Run2	generate/STIM_022.jpg	99
1394.567	1.347	1347.0	generate	Run2	generate/STIM_022.jpg	99
1398.18	1.396	1396.5	generate	Run2	generate/STIM_022.jpg	100
1403.505	1.597	1597.3	generate	Run2	generate/STIM_022.jpg	100
1408.728	1.753	1752.6	generate	Run2	generate/STIM_022.jpg	100
1412.862	2.425	2425.2	generate	Run2	generate/STIM_023.jpg	100
1417.747	1.54	1540.3	generate	Run2	generate/STIM_023.jpg	99
1422.675	1.761	1761.1	generate	Run2	generate/STIM_023.jpg	99
1427.635	1.627	1627.4	generate	Run2	generate/STIM_023.jpg	99
1431.92	2.062	2061.7	generate	Run2	generate/STIM_023.jpg	100
1436.983	1.035	1035.0	generate	Run2	generate/STIM_024.jpg	100
1440.69	1.918	1917.8	generate	Run2	generate/STIM_024.jpg	100
1446.518	1.165	1165.1	generate	Run2	generate/STIM_024.jpg	100
1449.877	1.093	1092.8	generate	Run2	generate/STIM_024.jpg	99
1453.726	0.885	885.4	generate	Run2	generate/STIM_024.jpg	99
1456.663	0.501	501.1	repeat	Run2	repeat/STIM_000.jpg	100
1460.91	0.568	568.0	repeat	Run2	repeat/STIM_000.jpg	100
1463.729	0.782	782.0	repeat	Run2	repeat/STIM_000.jpg	100
1467.527	0.551	550.6	repeat	Run2	repeat/STIM_000.jpg	100
1470.604	0.675	675.1	repeat	Run2	repeat/STIM_000.jpg	100
1474.258	0.958	957.6	repeat	Run2	repeat/STIM_001.jpg	100
1478.176	0.681	681.3	repeat	Run2	repeat/STIM_001.jpg	100
1482.77	0.884	884.2	repeat	Run2	repeat/STIM_001.jpg	99
1487.048	0.707	707.3	repeat	Run2	repeat/STIM_001.jpg	99
1489.896	0.587	587.0	repeat	Run2	repeat/STIM_001.jpg	100
1494.071	0.95	950.3	repeat	Run2	repeat/STIM_002.jpg	100
1497.208	0.635	634.6	repeat	Run2	repeat/STIM_002.jpg	100
1501.097	0.943	943.2	repeat	Run2	repeat/STIM_002.jpg	100
1505.671	0.99	989.7	repeat	Run2	repeat/STIM_002.jpg	100
1508.807	0.869	868.6	repeat	Run2	repeat/STIM_002.jpg	99
1513.311	0.505	505.0	repeat	Run2	repeat/STIM_003.jpg	100
1517.264	0.769	769.0	repeat	Run2	repeat/STIM_003.jpg	99
1521.97	0.924	924.4	repeat	Run2	repeat/STIM_003.jpg	100
1526.516	0.643	642.6	repeat	Run2	repeat/STIM_003.jpg	99
1530.043	0.902	902.4	repeat	Run2	repeat/STIM_003.jpg	100
1532.959	0.587	586.7	repeat	Run2	repeat/STIM_004.jpg	99
1536.861	0.741	740.7	repeat	Run2	repeat/STIM_004.jpg	99
1540.973	0.521	520.6	repeat	Run2	repeat/STIM_004.jpg	100
1543.589	0.864	864.1	repeat	Run2	repeat/STIM_004.jpg	99
1548.135	0.651	651.3	repeat	Run2	repeat/STIM_004.jpg	99
1551.604	0.989	989.2	repeat	Run2	repeat/STIM_005.jpg	100
1554.708	0.694	693.6	repeat	Run2	repeat/STIM_005.jpg	100
1559.179	0.623	622.8	repeat	Run2	repeat/STIM_005.jpg	100
1563.719	0.762	762.0	repeat	Run2	repeat/STIM_005.jpg	99
1568.216	0.594	594.2	repeat	Run2	repeat/STIM_005.jpg	100
1572.422	0.542	542.4	repeat	Run2	repeat/STIM_006.jpg	99
1575.336	0.563	563.0	repeat	Run2	repeat/STIM_006.jpg	99
1578.043	0.656	656.3	repeat	Run2	repeat/STIM_006.jpg	100
1580.93	0.634	633.8	repeat	Run2	repeat/STIM_006.jpg	99
1584.171	0.634	634.3	repeat	Run2	repeat/STIM_006.jpg	100
1586.82	0.881	880.9	repeat	Run2	repeat/STIM_007.jpg	99
1590.913	0.847	847.1	repeat	Run2	repeat/STIM_007.jpg	100
1594.912	0.517	517.3	repeat	Run2	repeat/STIM_007.jpg	99
1599.213	0.881	880.8	repeat	Run2	repeat/STIM_007.jpg	99
1602.094	0.525	524.7	repeat	Run2	repeat/STIM_007.jpg	100
1606.131	0.833	833.3	repeat	Run2	repeat/STIM_008.jpg	100
1610.132	0.574	574.1	repeat	Run2	repeat/STIM_008.jpg	99
1613.493	0.574	574.1	repeat	Run2	repeat/STIM_008.jpg	100
1616.148	0.568	568.0	repeat	Run2	repeat/STIM_008.jpg	100
1620.65	0.499	498.8	repeat	Run2	repeat/STIM_008.jpg	99
1624.753	0.509	508.7	repeat	Run2	repeat/STIM_009.jpg	99
1629.08	0.53	530.5	repeat	Run2	repeat/STIM_009.jpg	99
1632.268	0.898	897.5	repeat	Run2	repeat/STIM_009.jpg	99
1636.738	0.712	712.1	repeat	Run2	repeat/STIM_009.jpg	100
1640.731	0.622	621.9	repeat	Run2	repeat/STIM_009.jpg	100
1644.221	0.498	497.7	repeat	Run2	repeat/STIM_010.jpg	99
1646.848	0.56	559.6	repeat	Run2	repeat/STIM_010.jpg	99
1651.254	0.916	915.5	repeat	Run2	repeat/STIM_010.jpg	99
1654.247	0.663	662.6	repeat	Run2	repeat/STIM_010.jpg	100
1658.512	0.903	903.1	repeat	Run2	repeat/STIM_010.jpg	100
1663.384	0.787	787.0	repeat	Run2	repeat/STIM_011.jpg	100
1667.235	0.936	936.5	repeat	Run2	repeat/STIM_011.jpg	100
1670.406	0.669	668.8	repeat	Run2	repeat/STIM_011.jpg	100
1674.673	0.847	847.2	repeat	Run2	repeat/STIM_011.jpg	99
1677.665	0.574	573.5	repeat	Run2	repeat/STIM_011.jpg	99
1681.182	0.521	520.8	repeat	Run2	repeat/STIM_012.jpg	99
1685.518	0.751	751.2	repeat	Run2	repeat/STIM_012.jpg	99
1688.512	0.675	674.9	repeat	Run2	repeat/STIM_012.jpg	99
1692.661	0.777	777.2	repeat	Run2	repeat/STIM_012.jpg	100
1695.846	0.863	863.2	repeat	Run2	repeat/STIM_012.jpg	99
1699.852	0.738	738.1	repeat	Run2	repeat/STIM_013.jpg	100
1703.63	0.927	927.2	repeat	Run2	repeat/STIM_013.jpg	99
1706.648	0.976	975.6	repeat	Run2	repeat/STIM_013.jpg	99
1710.248	0.696	696.3	repeat	Run2	repeat/STIM_013.jpg	99
1712.985	0.826	825.6	repeat	Run2	repeat/STIM_013.jpg	100
1716.706	0.672	671.9	repeat	Run2	repeat/STIM_014.jpg	100
1720.618	0.614	613.9	repeat	Run2	repeat/STIM_014.jpg	100
1723.866	0.929	929.1	repeat	Run2	repeat/STIM_014.jpg	99
1728.336	0.596	596.1	repeat	Run2	repeat/STIM_014.jpg	99
1731.967	0.94	939.6	repeat	Run2	repeat/STIM_014.jpg	99
1735.477	1.308	1307.7	generate	Run3	generate/STIM_000.jpg	99
1739.415	0.945	945.1	generate	Run3	generate/STIM_000.jpg	100
1743.245	1.584	1584.0	generate	Run3	generate/STIM_000.jpg	99
1748.348	1.576	1576.0	generate	Run3	generate/STIM_000.jpg	100
1753.273	0.939	939.2	generate	Run3	generate/STIM_000.jpg	99
1757.678	1.961	1961.1	generate	Run3	generate/STIM_001.jpg	100
1763.377	1.799	1798.9	generate	Run3	generate/STIM_001.jpg	100
1767.896	1.278	1278.0	generate	Run3	generate/STIM_001.jpg	100
1771.702	0.966	966.3	generate	Run3	generate/STIM_001.jpg	100
1774.777	1.88	1879.5	generate	Run3	generate/STIM_001.jpg	99
1779.753	1.8	1800.4	generate	Run3	generate/STIM_002.jpg	100
1784.701	1.067	1066.7	generate	Run3	generate/STIM_002.jpg	99
1788.052	1.583	1582.6	generate	Run3	generate/STIM_002.jpg	100
1792.821	1.404	1403.8	generate	Run3	generate/STIM_002.jpg	99
1797.246	1.045	1044.6	generate	Run3	generate/STIM_002.jpg	99
1801.023	0.991	990.8	generate	Run3	generate/STIM_003.jpg	100
1805.239	1.96	1960.3	generate	Run3	generate/STIM_003.jpg	99
1809.497	1.361	1360.9	generate	Run3	generate/STIM_003.jpg	99
1813.696	2.086	2085.6	generate	Run3	generate/STIM_003.jpg	99
1819.257	2.042	2042.0	generate	Run3	generate/STIM_003.jpg	99
1825.175	1.37	1369.7	generate	Run3	generate/STIM_004.jpg	99
1829.316	0.859	859.2	generate	Run3	generate/STIM_004.jpg	99
1833.96	1.57	1569.9	generate	Run3	generate/STIM_004.jpg	99
1839.513	1.933	1933.3	generate	Run3	generate/STIM_004.jpg	99
1845.275	1.866	1866.1	generate	Run3	generate/STIM_004.jpg	100
1850.255	1.995	1995.0	generate	Run3	generate/STIM_005.jpg	99
1855.448	1.967	1966.8	generate	Run3	generate/STIM_005.jpg	100
1860.436	1.993	1992.8	generate	Run3	generate/STIM_005.jpg	100
1866.128	1.324	1324.0	generate	Run3	generate/STIM_005.jpg	99
1871.384	1.903	1903.0	generate	Run3	generate/STIM_005.jpg	99
1876.713	1.391	1390.6	generate	Run3	generate/STIM_006.jpg	100
1881.982	1.876	1876.3	generate	Run3	generate/STIM_006.jpg	99
1887.266	2.064	2064.4	generate	Run3	generate/STIM_006.jpg	99
1892.236	1.48	1479.6	generate	Run3	generate/STIM_006.jpg	99
1896.643	1.167	1166.7	generate	Run3	generate/STIM_006.jpg	100
1900.413	0.952	951.9	generate	Run3	generate/STIM_007.jpg	100
1905.051	1.13	1129.8	generate	Run3	generate/STIM_007.jpg	100
1909.195	1.26	1260.2	generate	Run3	generate/STIM_007.jpg	100
1914.305	1.667	1666.6	generate	Run3	generate/STIM_007.jpg	100
1918.854	1.666	1666.5	generate	Run3	generate/STIM_007.jpg	100
1923.796	1.881	1880.9	generate	Run3	generate/STIM_008.jpg	100
1929.252	1.412	1412.5	generate	Run3	generate/STIM_008.jpg	100
1934.208	0.888	887.7	generate	Run3	generate/STIM_008.jpg	99
1937.382	0.875	874.6	generate	Run3	generate/STIM_008.jpg	100
1941.497	1.212	1211.5	generate	Run3	generate/STIM_008.jpg	100
1945.624	1.279	1279.1	generate	Run3	generate/STIM_009.jpg	100
1949.889	1.382	1381.8	generate	Run3	generate/STIM_009.jpg	100
1955.257	1.897	1896.7	generate	Run3	generate/STIM_009.jpg	100
1959.654	0.898	897.7	generate	Run3	generate/STIM_009.jpg	99
1963.576	1.673	1672.6	generate	Run3	generate/STIM_009.jpg	99
1968.506	0.844	843.6	generate	Run3	generate/STIM_010.jpg	99
1971.476	1.482	1482.1	generate	Run3	generate/STIM_010.jpg	99
1975.038	1.792	1792.0	generate	Run3	generate/STIM_010.jpg	99
1980.784	0.885	884.6	generate	Run3	generate/STIM_010.jpg	99
1984.239	1.244	1244.4	generate	Run3	generate/STIM_010.jpg	100
1989.314	1.038	1038.1	generate	Run3	generate/STIM_011.jpg	100
1992.421	0.956	956.5	generate	Run3	generate/STIM_011.jpg	99
1996.846	0.911	911.3	generate	Run3	generate/STIM_011.jpg	99
2001.014	1.015	1015.0	generate	Run3	generate/STIM_011.jpg	99
2004.868	1.586	1586.2	generate	Run3	generate/STIM_011.jpg	100
2008.803	1.844	1844.0	generate	Run3	generate/STIM_012.jpg	100
2013.887	1.026	1026.0	generate	Run3	generate/STIM_012.jpg	100
2017.426	1.85	1849.5	generate	Run3	generate/STIM_012.jpg	99
2021.443	0.842	841.6	generate	Run3	generate/STIM_012.jpg	100
2025.892	1.462	1462.4	generate	Run3	generate/STIM_012.jpg	99
2030.286	2.069	2069.0	generate	Run3	generate/STIM_013.jpg	99
2034.81	0.97	970.2	generate	Run3	generate/STIM_013.jpg	99
2039.746	1.531	1531.4	generate	Run3	generate/STIM_013.jpg	99
2045.033	1.652	1652.5	generate	Run3	generate/STIM_013.jpg	99
2050.378	1.896	1895.9	generate	Run3	generate/STIM_013.jpg	99
2054.762	1.04	1039.7	generate	Run3	generate/STIM_014.jpg	100
2059.419	1.485	1485.4	generate	Run3	generate/STIM_014.jpg	100
2063.349	0.933	932.7	generate	Run3	generate/STIM_014.jpg	100
2067.301	1.917	1917.4	generate	Run3	generate/STIM_014.jpg	99
2072.161	1.823	1822.8	generate	Run3	generate/STIM_014.jpg	100
2076.609	1.541	1541.2	generate	Run3	generate/STIM_015.jpg	99
2080.904	1.847	1846.7	generate	Run3	generate/STIM_015.jpg	99
2086.657	1.992	1992.2	generate	Run3	generate/STIM_015.jpg	100
2091.663	1.665	1665.2	generate	Run3	generate/STIM_015.jpg	100
2096.376	2.07	2070.1	generate	Run3	generate/STIM_015.jpg	99
2102.195	1.558	1558.5	generate	Run3	generate/STIM_016.jpg	99
2106.054	1.183	1182.8	generate	Run3	generate/STIM_016.jpg	100
2109.888	1.007	1007.0	generate	Run3	generate/STIM_016.jpg	100
2113.991	1.196	1196.0	generate	Run3	generate/STIM_016.jpg	100
2118.748	1.83	1829.9	generate	Run3	generate/STIM_016.jpg	99
2123.473	1.57	1570.1	generate	Run3	generate/STIM_017.jpg	99
2129.01	2.034	2033.9	generate	Run3	generate/STIM_017.jpg	100
2133.571	1.293	1292.8	generate	Run3	generate/STIM_017.jpg	99
2137.026	1.928	1928.3	generate	Run3	generate/STIM_017.jpg	99
2142.068	0.914	913.5	generate	Run3	generate/STIM_017.jpg	100
2145.086	1.731	1730.6	generate	Run3	generate/STIM_018.jpg	99
2150.419	1.832	1832.4	generate	Run3	generate/STIM_018.jpg	100
2156.075	1.404	1404.3	generate	Run3	generate/STIM_018.jpg	100
2160.595	1.01	1010.1	generate	Run3	generate/STIM_018.jpg	100
2164.858	1.705	1705.1	generate	Run3	generate/STIM_018.jpg	100
2168.585	0.888	888.1	generate	Run3	generate/STIM_019.jpg	100
2172.602	0.861	861.4	generate	Run3	generate/STIM_019.jpg	99
2177.118	1.15	1149.7	generate	Run3	generate/STIM_019.jpg	99
2181.728	1.1	1099.5	generate	Run3	generate/STIM_019.jpg	99
2185.259	1.15	1150.2	generate	Run3	generate/STIM_019.jpg	99
2190.261	2.004	2003.9	generate	Run3	generate/STIM_020.jpg	100
2195.371	1.985	1984.9	generate	Run3	generate/STIM_020.jpg	99
2199.437	1.933	1932.8	generate	Run3	generate/STIM_020.jpg	99
2205.111	1.405	1405.4	generate	Run3	generate/STIM_020.jpg	100
2209.267	1.933	1933.0	generate	Run3	generate/STIM_020.jpg	100
2214.311	1.891	1891.3	generate	Run3	generate/STIM_021.jpg	99
2219.561	1.919	1918.8	generate	Run3	generate/STIM_021.jpg	99
2223.778	1.364	1363.9	generate	Run3	generate/STIM_021.jpg	100
2228.096	0.905	905.4	generate	Run3	generate/STIM_021.jpg	100
2231.217	1.793	1793.3	generate	Run3	generate/STIM_021.jpg	99
2235.994	1.62	1620.1	generate	Run3	generate/STIM_022.jpg	99
2240.25	1.71	1710.1	generate	Run3	generate/STIM_022.jpg	100
2244.49	0.89	890.3	generate	Run3	generate/STIM_022.jpg	99
2249.14	1.808	1807.5	generate	Run3	generate/STIM_022.jpg	100
2253.408	1.014	1014.5	generate	Run3	generate/STIM_022.jpg	100
2257.137	1.453	1452.6	generate	Run3	generate/STIM_023.jpg	100
2262.103	2.016	2016.2	generate	Run3	generate/STIM_023.jpg	99
2266.906	1.082	1081.7	generate	Run3	generate/STIM_023.jpg	99
2270.202	2.05	2049.7	generate	Run3	generate/STIM_023.jpg	100
2275.216	1.607	1607.1	generate	Run3	generate/STIM_023.jpg	99
2279.331	1.621	1621.4	generate	Run3	generate/STIM_024.jpg	99
2284.546	1.114	1114.4	generate	Run3	generate/STIM_024.jpg	100
2289.052	1.596	1595.9	generate	Run3	generate/STIM_024.jpg	99
2294.477	1.258	1258.0	generate	Run3	generate/STIM_024.jpg	99
2298.687	1.155	1154.7	generate	Run3	generate/STIM_024.jpg	99
2302.689	0.822	821.9	repeat	Run3	repeat/STIM_000.jpg	99
2306.41	0.736	736.4	repeat	Run3	repeat/STIM_000.jpg	100
2310.877	0.545	545.4	repeat	Run3	repeat/STIM_000.jpg	99
2313.476	0.561	560.7	repeat	Run3	repeat/STIM_000.jpg	100
2317.124	0.794	793.5	repeat	Run3	repeat/STIM_000.jpg	100
2321.343	0.684	683.9	repeat	Run3	repeat/STIM_001.jpg	100
2324.955	0.613	612.6	repeat	Run3	repeat/STIM_001.jpg	99
2327.818	0.537	537.3	repeat	Run3	repeat/STIM_001.jpg	99
2330.763	0.556	555.9	repeat	Run3	repeat/STIM_001.jpg	99
2335.306	0.872	872.1	repeat	Run3	repeat/STIM_001.jpg	99
2339.609	0.918	917.6	repeat	Run3	repeat/STIM_002.jpg	100
2343.756	0.558	557.7	repeat	Run3	repeat/STIM_002.jpg	99
2346.509	0.764	764.2	repeat	Run3	repeat/STIM_002.jpg	99
2350.034	0.558	558.4	repeat	Run3	repeat/STIM_002.jpg	99
2353.675	0.63	629.9	repeat	Run3	repeat/STIM_002.jpg	99
2356.541	0.784	784.0	repeat	Run3	repeat/STIM_003.jpg	100
2361.193	0.772	772.4	repeat	Run3	repeat/STIM_003.jpg	99
2364.466	0.986	986.0	repeat	Run3	repeat/STIM_003.jpg	99
2367.739	0.881	881.3	repeat	Run3	repeat/STIM_003.jpg	99
2371.638	0.654	654.2	repeat	Run3	repeat/STIM_003.jpg	100
2376.153	0.661	660.9	repeat	Run3	repeat/STIM_004.jpg	99
2379.757	0.545	545.0	repeat	Run3	repeat/STIM_004.jpg	99
2382.926	0.886	885.5	repeat	Run3	repeat/STIM_004.jpg	99
2386.059	0.923	923.1	repeat	Run3	repeat/STIM_004.jpg	99
2389.029	0.502	501.8	repeat	Run3	repeat/STIM_004.jpg	99
2391.981	0.529	528.6	repeat	Run3	repeat/STIM_005.jpg	100
2395.103	0.643	642.9	repeat	Run3	repeat/STIM_005.jpg	100
2398.31	0.973	973.2	repeat	Run3	repeat/STIM_005.jpg	100
2403.25	0.608	607.6	repeat	Run3	repeat/STIM_005.jpg	100
2407.81	0.756	756.2	repeat	Run3	repeat/STIM_005.jpg	99
2412.028	0.844	843.9	repeat	Run3	repeat/STIM_006.jpg	100
2415.953	0.599	599.0	repeat	Run3	repeat/STIM_006.jpg	100
2420.421	0.793	793.1	repeat	Run3	repeat/STIM_006.jpg	99
2425.055	0.887	887.4	repeat	Run3	repeat/STIM_006.jpg	99
2428.912	0.828	827.6	repeat	Run3	repeat/STIM_006.jpg	100
2433.029	0.902	902.4	repeat	Run3	repeat/STIM_007.jpg	100
2437.534	0.678	677.8	repeat	Run3	repeat/STIM_007.jpg	99
2441.827	0.964	964.3	repeat	Run3	repeat/STIM_007.jpg	100
2445.896	0.63	629.7	repeat	Run3	repeat/STIM_007.jpg	100
2449.89	0.753	752.8	repeat	Run3	repeat/STIM_007.jpg	100
2453.989	0.836	835.6	repeat	Run3	repeat/STIM_008.jpg	99
2458.217	0.576	575.9	repeat	Run3	repeat/STIM_008.jpg	100
2461.258	0.679	679.1	repeat	Run3	repeat/STIM_008.jpg	99
2464.112	0.71	710.2	repeat	Run3	repeat/STIM_008.jpg	100
2466.865	0.964	964.3	repeat	Run3	repeat/STIM_008.jpg	99
2471.215	0.905	904.7	repeat	Run3	repeat/STIM_009.jpg	100
2474.234	0.933	932.7	repeat	Run3	repeat/STIM_009.jpg	99
2478.885	0.588	587.7	repeat	Run3	repeat/STIM_009.jpg	100
2481.877	0.719	719.0	repeat	Run3	repeat/STIM_009.jpg	99
2486.314	0.671	670.8	repeat	Run3	repeat/STIM_009.jpg	99
2490.68	0.887	886.7	repeat	Run3	repeat/STIM_010.jpg	100
2495.44	0.815	815.2	repeat	Run3	repeat/STIM_010.jpg	100
2499.895	0.619	618.9	repeat	Run3	repeat/STIM_010.jpg	99
2502.769	0.554	553.8	repeat	Run3	repeat/STIM_010.jpg	99
2505.842	0.645	645.0	repeat	Run3	repeat/STIM_010.jpg	100
2509.156	0.766	765.5	repeat	Run3	repeat/STIM_011.jpg	100
2512.834	0.843	842.7	repeat	Run3	repeat/STIM_011.jpg	99
2516.789	0.945	945.1	repeat	Run3	repeat/STIM_011.jpg	100
2521.166	0.549	549.3	repeat	Run3	repeat/STIM_011.jpg	99
2524.411	0.744	744.4	repeat	Run3	repeat/STIM_011.jpg	100
2527.78	0.718	717.7	repeat	Run3	repeat/STIM_012.jpg	100
2532.208	0.816	816.3	repeat	Run3	repeat/STIM_012.jpg	99
2536.463	0.824	823.8	repeat	Run3	repeat/STIM_012.jpg	100
2540.124	0.64	639.7	repeat	Run3	repeat/STIM_012.jpg	100
2543.436	0.646	645.6	repeat	Run3	repeat/STIM_012.jpg	100
2547.939	0.86	860.2	repeat	Run3	repeat/STIM_013.jpg	100
2551.437	0.634	634.4	repeat	Run3	repeat/STIM_013.jpg	99
2555.803	0.759	759.1	repeat	Run3	repeat/STIM_013.jpg	99
2560.264	0.622	621.8	repeat	Run3	repeat/STIM_013.jpg	100
2563.616	0.806	805.7	repeat	Run3	repeat/STIM_013.jpg	99
2566.75	0.814	813.5	repeat	Run3	repeat/STIM_014.jpg	99
2569.852	0.871	870.6	repeat	Run3	repeat/STIM_014.jpg	100
2573.147	0.826	825.5	repeat	Run3	repeat/STIM_014.jpg	100
2577.593	0.878	878.1	repeat	Run3	repeat/STIM_014.jpg	100
2582.136	0.879	879.3	repeat	Run3	repeat/STIM_014.jpg	99
2585.226	1.193	1193.0	generate	Run4	generate/STIM_000.jpg	100
2590.019	1.092	1091.8	generate	Run4	generate/STIM_000.jpg	99
2593.833	1.458	1458.2	generate	Run4	generate/STIM_000.jpg	100
2598.244	1.039	1038.8	generate	Run4	generate/STIM_000.jpg	99
2601.989	1.46	1460.2	generate	Run4	generate/STIM_000.jpg	100
2606.517	1.222	1222.4	generate	Run4	generate/STIM_001.jpg	99
2611.628	1.023	1023.0	generate	Run4	generate/STIM_001.jpg	99
2614.834	1.4	1399.5	generate	Run4	generate/STIM_001.jpg	99
2619.563	0.985	985.3	generate	Run4	generate/STIM_001.jpg	99
2622.837	1.942	1942.0	generate	Run4	generate/STIM_001.jpg	100
2626.995	1.236	1235.8	generate	Run4	generate/STIM_002.jpg	99
2631.284	1.92	1920.3	generate	Run4	generate/STIM_002.jpg	100
2635.763	1.94	1940.5	generate	Run4	generate/STIM_002.jpg	100
2640.935	1.32	1320.5	generate	Run4	generate/STIM_002.jpg	99
2645.814	1.844	1843.5	generate	Run4	generate/STIM_002.jpg	99
2651.027	1.01	1010.0	generate	Run4	generate/STIM_003.jpg	100
2655.609	1.602	1601.6	generate	Run4	generate/STIM_003.jpg	99
2659.936	1.812	1811.8	generate	Run4	generate/STIM_003.jpg	100
2665.476	1.305	1305.0	generate	Run4	generate/STIM_003.jpg	100
2669.86	1.978	1977.5	generate	Run4	generate/STIM_003.jpg	100
2675.63	1.738	1737.8	generate	Run4	generate/STIM_004.jpg	99
2681.201	1.646	1646.3	generate	Run4	generate/STIM_004.jpg	99
2686.7	1.374	1374.3	generate	Run4	generate/STIM_004.jpg	100
2690.361	1.094	1094.1	generate	Run4	generate/STIM_004.jpg	100
2694.675	1.283	1282.9	generate	Run4	generate/STIM_004.jpg	100
2699.548	1.629	1628.9	generate	Run4	generate/STIM_005.jpg	99
2704.266	1.381	1381.0	generate	Run4	generate/STIM_005.jpg	100
2708.628	0.838	837.6	generate	Run4	generate/STIM_005.jpg	99
2711.706	1.891	1891.3	generate	Run4	generate/STIM_005.jpg	100
2716.568	1.924	1923.8	generate	Run4	generate/STIM_005.jpg	100
2721.906	1.513	1513.2	generate	Run4	generate/STIM_006.jpg	99
2726.403	1.173	1173.4	generate	Run4	generate/STIM_006.jpg	99
2729.862	1.485	1485.3	generate	Run4	generate/STIM_006.jpg	100
2734.124	1.142	1142.2	generate	Run4	generate/STIM_006.jpg	100
2738.309	1.919	1919.4	generate	Run4	generate/STIM_006.jpg	100
2743.487	1.034	1033.5	generate	Run4	generate/STIM_007.jpg	100
2747.286	1.648	1647.5	generate	Run4	generate/STIM_007.jpg	99
2752.561	1.125	1124.7	generate	Run4	generate/STIM_007.jpg	100
2756.604	1.701	1701.4	generate	Run4	generate/STIM_007.jpg	99
2761.43	1.325	1325.1	generate	Run4	generate/STIM_007.jpg	100
2765.482	0.996	995.5	generate	Run4	generate/STIM_008.jpg	99
2769.302	2.038	2037.8	generate	Run4	generate/STIM_008.jpg	99
2773.569	1.862	1861.9	generate	Run4	generate/STIM_008.jpg	99
2779.193	1.978	1977.5	generate	Run4	generate/STIM_008.jpg	100
2784.778	1.185	1184.8	generate	Run4	generate/STIM_008.jpg	100
2788.004	1.272	1271.6	generate	Run4	generate/STIM_009.jpg	100
2792.335	1.27	1270.0	generate	Run4	generate/STIM_009.jpg	99
2797.536	1.85	1849.6	generate	Run4	generate/STIM_009.jpg	100
2801.87	1.276	1276.5	generate	Run4	generate/STIM_009.jpg	100
2805.925	0.92	920.0	generate	Run4	generate/STIM_009.jpg	99
2810.319	1.935	1935.2	generate	Run4	generate/STIM_010.jpg	99
2816.068	1.754	1754.0	generate	Run4	generate/STIM_010.jpg	100
2820.59	1.513	1513.0	generate	Run4	generate/STIM_010.jpg	99
2824.77	1.067	1066.6	generate	Run4	generate/STIM_010.jpg	100
2828.202	0.935	935.3	generate	Run4	generate/STIM_010.jpg	100
2832.686	1.648	1648.2	generate	Run4	generate/STIM_011.jpg	100
2836.382	1.18	1179.8	generate	Run4	generate/STIM_011.jpg	99
2839.983	1.721	1721.0	generate	Run4	generate/STIM_011.jpg	99
2844.628	1.294	1294.4	generate	Run4	generate/STIM_011.jpg	100
2848.177	1.858	1858.4	generate	Run4	generate/STIM_011.jpg	99
2852.9	2.067	2066.8	generate	Run4	generate/STIM_012.jpg	99
2857.974	1.089	1089.3	generate	Run4	generate/STIM_012.jpg	100
2862.892	1.705	1705.4	generate	Run4	generate/STIM_012.jpg	99
2868.557	1.64	1640.1	generate	Run4	generate/STIM_012.jpg	99
2873.842	1.578	1578.3	generate	Run4	generate/STIM_012.jpg	100
2877.705	1.673	1673.1	generate	Run4	generate/STIM_013.jpg	100
2881.503	0.89	889.8	generate	Run4	generate/STIM_013.jpg	99
2886.312	1.632	1631.5	generate	Run4	generate/STIM_013.jpg	100
2890.375	1.724	1723.6	generate	Run4	generate/STIM_013.jpg	99
2895.576	1.914	1914.4	generate	Run4	generate/STIM_013.jpg	100
2900.828	0.981	981.4	generate	Run4	generate/STIM_014.jpg	99
2905.351	1.602	1602.4	generate	Run4	generate/STIM_014.jpg	100
2910.876	1.842	1841.8	generate	Run4	generate/STIM_014.jpg	99
2916.032	1.36	1360.4	generate	Run4	generate/STIM_014.jpg	100
2920.86	1.964	1964.4	generate	Run4	generate/STIM_014.jpg	100
2925.028	1.851	1850.8	generate	Run4	generate/STIM_015.jpg	99
2929.959	1.23	1229.7	generate	Run4	generate/STIM_015.jpg	99
2933.718	2.021	2020.7	generate	Run4	generate/STIM_015.jpg	99
2938.882	1.882	1881.7	generate	Run4	generate/STIM_015.jpg	99
2943.748	1.152	1151.9	generate	Run4	generate/STIM_015.jpg	100
2948.847	1.63	1630.5	generate	Run4	generate/STIM_016.jpg	100
2953.555	2.066	2066.2	generate	Run4	generate/STIM_016.jpg	100
2958.963	1.705	1705.0	generate	Run4	generate/STIM_016.jpg	100
2963.303	1.153	1152.8	generate	Run4	generate/STIM_016.jpg	99
2966.48	0.967	967.3	generate	Run4	generate/STIM_016.jpg	99
2970.627	1.668	1668.5	generate	Run4	generate/STIM_017.jpg	99
2974.311	1.027	1026.6	generate	Run4	generate/STIM_017.jpg	100
2979.255	1.535	1535.4	generate	Run4	generate/STIM_017.jpg	99
2983.4	1.809	1809.0	generate	Run4	generate/STIM_017.jpg	100
2987.309	1.091	1091.0	generate	Run4	generate/STIM_017.jpg	100
2991.801	1.356	1356.1	generate	Run4	generate/STIM_018.jpg	99
2995.208	2.019	2019.1	generate	Run4	generate/STIM_018.jpg	100
3000.321	1.229	1229.4	generate	Run4	generate/STIM_018.jpg	100
3004.799	1.672	1671.7	generate	Run4	generate/STIM_018.jpg	99
3010.219	1.561	1561.3	generate	Run4	generate/STIM_018.jpg	100
3014.992	0.914	914.5	generate	Run4	generate/STIM_019.jpg	99
3019.134	1.924	1923.9	generate	Run4	generate/STIM_019.jpg	100
3023.578	1.426	1426.1	generate	Run4	generate/STIM_019.jpg	99
3028.013	1.095	1094.9	generate	Run4	generate/STIM_019.jpg	99
3032.229	1.236	1235.7	generate	Run4	generate/STIM_019.jpg	99
3036.309	1.572	1572.0	generate	Run4	generate/STIM_020.jpg	99
3041.164	1.455	1454.7	generate	Run4	generate/STIM_020.jpg	99
3045.827	1.726	1726.4	generate	Run4	generate/STIM_020.jpg	99
3050.954	1.757	1756.6	generate	Run4	generate/STIM_020.jpg	100
3055.636	1.975	1974.6	generate	Run4	generate/STIM_020.jpg	100
3060.684	1.889	1889.0	generate	Run4	generate/STIM_021.jpg	100
3065.786	1.084	1084.2	generate	Run4	generate/STIM_021.jpg	100
3068.97	1.209	1208.9	generate	Run4	generate/STIM_021.jpg	100
3072.269	1.996	1995.5	generate	Run4	generate/STIM_021.jpg	100
3077.709	1.058	1057.5	generate	Run4	generate/STIM_021.jpg	100
3081.522	1.76	1759.8	generate	Run4	generate/STIM_022.jpg	100
3085.989	1.58	1580.2	generate	Run4	generate/STIM_022.jpg	100
3091.239	1.42	1420.4	generate	Run4	generate/STIM_022.jpg	100
3094.679	0.9	900.3	generate	Run4	generate/STIM_022.jpg	99
3099.017	0.853	853.3	generate	Run4	generate/STIM_022.jpg	99
3102.65	0.902	901.6	generate	Run4	generate/STIM_023.jpg	99
3105.764	1.609	1608.7	generate	Run4	generate/STIM_023.jpg	99
3111.107	1.759	1759.2	generate	Run4	generate/STIM_023.jpg	100
3114.987	0.989	988.7	generate	Run4	generate/STIM_023.jpg	100
3118.613	2.015	2015.5	generate	Run4	generate/STIM_023.jpg	99
3124.032	1.934	1934.1	generate	Run4	generate/STIM_024.jpg	99
3129.747	1.124	1123.9	generate	Run4	generate/STIM_024.jpg	100
3134.702	1.789	1788.8	generate	Run4	generate/STIM_024.jpg	100
3140.427	1.595	1594.6	generate	Run4	generate/STIM_024.jpg	99
3144.42	1.754	1753.8	generate	Run4	generate/STIM_024.jpg	100
3148.899	0.81	809.8	repeat	Run4	repeat/STIM_000.jpg	99
3151.922	0.726	725.9	repeat	Run4	repeat/STIM_000.jpg	99
3154.693	0.761	761.2	repeat	Run4	repeat/STIM_000.jpg	100
3159.106	0.911	911.4	repeat	Run4	repeat/STIM_000.jpg	100
3163.885	0.629	629.1	repeat	Run4	repeat/STIM_000.jpg	100
3167.38	0.63	629.8	repeat	Run4	repeat/STIM_001.jpg	100
3170.201	0.616	616.1	repeat	Run4	repeat/STIM_001.jpg	99
3173.036	0.659	658.7	repeat	Run4	repeat/STIM_001.jpg	100
3177.604	0.557	556.8	repeat	Run4	repeat/STIM_001.jpg	100
3181.633	0.852	851.5	repeat	Run4	repeat/STIM_001.jpg	99
3186.445	0.724	724.4	repeat	Run4	repeat/STIM_002.jpg	100
3189.346	0.502	501.6	repeat	Run4	repeat/STIM_002.jpg	100
3193.207	0.976	976.0	repeat	Run4	repeat/STIM_002.jpg	99
3197.949	0.888	888.1	repeat	Run4	repeat/STIM_002.jpg	100
3201.19	0.736	736.3	repeat	Run4	repeat/STIM_002.jpg	99
3204.448	0.614	614.0	repeat	Run4	repeat/STIM_003.jpg	99
3207.142	0.543	542.6	repeat	Run4	repeat/STIM_003.jpg	100
3211.205	0.761	761.4	repeat	Run4	repeat/STIM_003.jpg	100
3215.859	0.797	797.4	repeat	Run4	repeat/STIM_003.jpg	100
3219.65	0.789	789.2	repeat	Run4	repeat/STIM_003.jpg	99
3224.029	0.882	881.6	repeat	Run4	repeat/STIM_004.jpg	100
3226.914	0.796	795.5	repeat	Run4	repeat/STIM_004.jpg	100
3230.501	0.691	691.2	repeat	Run4	repeat/STIM_004.jpg	99
3235.069	0.52	519.7	repeat	Run4	repeat/STIM_004.jpg	99
3238.809	0.776	776.3	repeat	Run4	repeat/STIM_004.jpg	99
3242.335	0.52	519.5	repeat	Run4	repeat/STIM_005.jpg	100
3245.421	0.661	660.9	repeat	Run4	repeat/STIM_005.jpg	100
3249.807	0.563	562.8	repeat	Run4	repeat/STIM_005.jpg	100
3253.915	0.614	614.5	repeat	Run4	repeat/STIM_005.jpg	99
3258.302	0.624	623.5	repeat	Run4	repeat/STIM_005.jpg	99
3262.632	0.504	504.4	repeat	Run4	repeat/STIM_006.jpg	99
3265.776	0.963	962.7	repeat	Run4	repeat/STIM_006.jpg	100
3269.91	0.574	573.8	repeat	Run4	repeat/STIM_006.jpg	99
3274.037	0.762	761.9	repeat	Run4	repeat/STIM_006.jpg	99
3278.648	0.682	682.1	repeat	Run4	repeat/STIM_006.jpg	100
3281.941	0.721	720.8	repeat	Run4	repeat/STIM_007.jpg	99
3286.318	0.552	551.6	repeat	Run4	repeat/STIM_007.jpg	99
3290.852	0.694	694.0	repeat	Run4	repeat/STIM_007.jpg	99
3295.021	0.601	601.0	repeat	Run4	repeat/STIM_007.jpg	100
3299.228	0.505	505.5	repeat	Run4	repeat/STIM_007.jpg	99
3303.373	0.896	895.8	repeat	Run4	repeat/STIM_008.jpg	100
3307.981	0.826	825.6	repeat	Run4	repeat/STIM_008.jpg	100
3311.825	0.922	922.1	repeat	Run4	repeat/STIM_008.jpg	100
3315.38	0.652	652.2	repeat	Run4	repeat/STIM_008.jpg	99
3319.781	0.725	724.9	repeat	Run4	repeat/STIM_008.jpg	100
3322.866	0.667	667.1	repeat	Run4	repeat/STIM_009.jpg	99
3326.711	0.513	513.3	repeat	Run4	repeat/STIM_009.jpg	99
3330.859	0.588	588.2	repeat	Run4	repeat/STIM_009.jpg	100
3335.442	0.99	990.2	repeat	Run4	repeat/STIM_009.jpg	99
3338.845	0.664	664.0	repeat	Run4	repeat/STIM_009.jpg	100
3342.871	0.701	700.6	repeat	Run4	repeat/STIM_010.jpg	100
3346.716	0.834	833.6	repeat	Run4	repeat/STIM_010.jpg	99
3349.922	0.973	973.3	repeat	Run4	repeat/STIM_010.jpg	100
3354.343	0.963	962.9	repeat	Run4	repeat/STIM_010.jpg	99
3358.067	0.82	819.8	repeat	Run4	repeat/STIM_010.jpg	100
3361.485	0.599	598.9	repeat	Run4	repeat/STIM_011.jpg	99
3364.712	0.904	904.4	repeat	Run4	repeat/STIM_011.jpg	99
3367.925	0.831	831.4	repeat	Run4	repeat/STIM_011.jpg	100
3372.213	0.639	639.2	repeat	Run4	repeat/STIM_011.jpg	100
3376.742	0.777	776.9	repeat	Run4	repeat/STIM_011.jpg	99
3380.771	0.545	545.2	repeat	Run4	repeat/STIM_012.jpg	100
3384.262	0.552	552.4	repeat	Run4	repeat/STIM_012.jpg	100
3387.87	0.636	635.9	repeat	Run4	repeat/STIM_012.jpg	99
3391.537	0.873	872.9	repeat	Run4	repeat/STIM_012.jpg	99
3395.689	0.928	927.9	repeat	Run4	repeat/STIM_012.jpg	100
3399.307	0.957	956.8	repeat	Run4	repeat/STIM_013.jpg	100
3402.653	0.992	991.6	repeat	Run4	repeat/STIM_013.jpg	99
3405.94	0.759	759.2	repeat	Run4	repeat/STIM_013.jpg	100
3410.356	0.54	539.5	repeat	Run4	repeat/STIM_013.jpg	99
3413.918	0.727	727.4	repeat	Run4	repeat/STIM_013.jpg	99
3418.231	0.801	800.9	repeat	Run4	repeat/STIM_014.jpg	100
3422.261	0.509	508.8	repeat	Run4	repeat/STIM_014.jpg	100
3425.623	0.564	563.9	repeat	Run4	repeat/STIM_014.jpg	99
3429.443	0.901	901.0	repeat	Run4	repeat/STIM_014.jpg	100
3432.577	0.591	591.1	repeat	Run4	repeat/STIM_014.jpg	100
