onset	duration	response_time_ms	trial_type	learning_stage	stimulus	response_port
0.0	3.693	3692.6	navigation	Trial1	navigation/STIM_000.jpg	99
7.602	2.879	2879.3	navigation	Trial1	navigation/STIM_000.jpg	99
13.923	3.45	3450.4	navigation	Trial1	navigation/STIM_000.jpg	99
20.522	3.402	3402.1	navigation	Trial1	navigation/STIM_000.jpg	99
26.534	3.385	3385.4	navigation	Trial1	navigation/STIM_000.jpg	100
32.873	1.441	1441.4	navigation	Trial1	navigation/STIM_000.jpg	99
36.768	2.99	2989.8	navigation	Trial1	navigation/STIM_001.jpg	100
41.972	1.839	1838.6	navigation	Trial1	navigation/STIM_001.jpg	99
47.116	3.895	3894.6	navigation	Trial1	navigation/STIM_001.jpg	99
53.054	3.493	3492.8	navigation	Trial1	navigation/STIM_001.jpg	100
58.812	1.601	1600.6	navigation	Trial1	navigation/STIM_001.jpg	99
63.489	2.04	2039.7	navigation	Trial1	navigation/STIM_001.jpg	99
69.106	2.463	2462.8	navigation	Trial1	navigation/STIM_002.jpg	100
74.913	3.57	3569.5	navigation	Trial1	navigation/STIM_002.jpg	100
82.383	2.096	2096.4	navigation	Trial1	navigation/STIM_002.jpg	100
88.074	1.629	1629.4	navigation	Trial1	navigation/STIM_002.jpg	100
92.507	1.628	1628.1	navigation	Trial1	navigation/STIM_002.jpg	99
97.74	3.407	3407.0	navigation	Trial1	navigation/STIM_002.jpg	100
105.083	3.902	3901.5	navigation	Trial1	navigation/STIM_003.jpg	99
111.217	3.492	3491.7	navigation	Trial1	navigation/STIM_003.jpg	100
118.004	2.416	2415.5	navigation	Trial1	navigation/STIM_003.jpg	100
123.558	4.011	4011.2	navigation	Trial1	navigation/STIM_003.jpg	99
130.842	2.188	2187.9	navigation	Trial1	navigation/STIM_003.jpg	99
136.267	3.285	3285.0	navigation	Trial1	navigation/STIM_003.jpg	100
142.066	4.617	4617.0	navigation	Trial1	navigation/STIM_004.jpg	99
148.935	4.117	4117.1	navigation	Trial1	navigation/STIM_004.jpg	99
156.754	1.786	1786.2	navigation	Trial1	navigation/STIM_004.jpg	99
161.829	3.053	3052.8	navigation	Trial1	navigation/STIM_004.jpg	99
167.439	2.617	2616.9	navigation	Trial1	navigation/STIM_004.jpg	100
172.457	3.373	3373.1	navigation	Trial1	navigation/STIM_004.jpg	99
178.755	4.652	4652.3	navigation	Trial1	navigation/STIM_005.jpg	100
185.504	3.143	3142.8	navigation	Trial1	navigation/STIM_005.jpg	100
192.216	2.168	2168.3	navigation	Trial1	navigation/STIM_005.jpg	99
196.889	3.125	3125.4	navigation	Trial1	navigation/STIM_005.jpg	99
202.605	3.612	3611.8	navigation	Trial1	navigation/STIM_005.jpg	100
209.946	1.747	1747.3	navigation	Trial1	navigation/STIM_005.jpg	99
214.643	2.418	2417.6	navigation	Trial1	navigation/STIM_006.jpg	99
219.724	2.302	2301.5	navigation	Trial1	navigation/STIM_006.jpg	99
225.41	2.534	2534.2	navigation	Trial1	navigation/STIM_006.jpg	100
230.001	2.833	2833.2	navigation	Trial1	navigation/STIM_006.jpg	100
236.091	3.02	3019.8	navigation	Trial1	navigation/STIM_006.jpg	100
241.965	2.822	2822.2	navigation	Trial1	navigation/STIM_006.jpg	100
248.16	4.5	4500.0	navigation	Trial1	navigation/STIM_007.jpg	99
256.169	3.991	3990.7	navigation	Trial1	navigation/STIM_007.jpg	100
262.529	3.033	3033.2	navigation	Trial1	navigation/STIM_007.jpg	99
267.91	3.73	3729.7	navigation	Trial1	navigation/STIM_007.jpg	99
275.222	1.606	1606.3	navigation	Trial1	navigation/STIM_007.jpg	100
279.223	1.828	1828.5	navigation	Trial1	navigation/STIM_007.jpg	99
284.448	4.595	4595.0	navigation	Trial1	navigation/STIM_008.jpg	99
292.724	2.723	2723.1	navigation	Trial1	navigation/STIM_008.jpg	99
297.85	2.772	2772.3	navigation	Trial1	navigation/STIM_008.jpg	100
303.103	1.81	1809.6	navigation	Trial1	navigation/STIM_008.jpg	99
307.538	2.15	2150.0	navigation	Trial1	navigation/STIM_008.jpg	100
312.981	1.931	1930.9	navigation	Trial1	navigation/STIM_008.jpg	99
318.64	3.341	3340.6	navigation	Trial1	navigation/STIM_009.jpg	99
324.589	3.211	3211.0	navigation	Trial1	navigation/STIM_009.jpg	99
330.239	2.991	2990.9	navigation	Trial1	navigation/STIM_009.jpg	99
336.026	1.728	1727.8	navigation	Trial1	navigation/STIM_009.jpg	100
339.759	1.584	1583.7	navigation	Trial1	navigation/STIM_009.jpg	100
343.796	1.573	1572.8	navigation	Trial1	navigation/STIM_009.jpg	99
347.542	3.697	3697.3	navigation	Trial1	navigation/STIM_010.jpg	99
354.828	4.351	4351.3	navigation	Trial1	navigation/STIM_010.jpg	100
361.267	3.475	3475.4	navigation	Trial1	navigation/STIM_010.jpg	100
368.489	3.285	3285.3	navigation	Trial1	navigation/STIM_010.jpg	99
374.204	2.534	2533.5	navigation	Trial1	navigation/STIM_010.jpg	100
379.903	2.334	2333.7	navigation	Trial1	navigation/STIM_010.jpg	100
384.674	2.258	2258.3	navigation	Trial1	navigation/STIM_011.jpg	99
390.084	2.418	2418.4	navigation	Trial1	navigation/STIM_011.jpg	99
396.416	2.271	2270.8	navigation	Trial1	navigation/STIM_011.jpg	100
400.875	3.459	3458.7	navigation	Trial1	navigation/STIM_011.jpg	99
407.255	1.541	1540.6	navigation	Trial1	navigation/STIM_011.jpg	100
412.31	2.463	2462.7	navigation	Trial1	navigation/STIM_011.jpg	100
418.574	0.831	831.2	pointing	Trial1	pointing/STIM_000.jpg	99
423.306	0.956	955.5	pointing	Trial1	pointing/STIM_000.jpg	99
427.433	1.258	1257.6	pointing	Trial1	pointing/STIM_000.jpg	100
430.973	1.241	1240.7	pointing	Trial1	pointing/STIM_000.jpg	99
434.794	0.85	849.7	pointing	Trial1	pointing/STIM_000.jpg	99
438.585	1.144	1144.4	pointing	Trial1	pointing/STIM_000.jpg	99
443.146	1.069	1069.4	pointing	Trial1	pointing/STIM_001.jpg	99
447.057	0.779	779.1	pointing	Trial1	pointing/STIM_001.jpg	100
450.177	1.117	1117.1	pointing	Trial1	pointing/STIM_001.jpg	99
454.047	0.944	944.0	pointing	Trial1	pointing/STIM_001.jpg	99
458.865	0.783	782.6	pointing	Trial1	pointing/STIM_001.jpg	99
461.789	1.086	1085.5	pointing	Trial1	pointing/STIM_001.jpg	100
465.331	1.332	1331.6	pointing	Trial1	pointing/STIM_002.jpg	99
469.559	0.902	902.2	pointing	Trial1	pointing/STIM_002.jpg	100
473.77	1.368	1368.2	pointing	Trial1	pointing/STIM_002.jpg	99
478.45	1.209	1209.3	pointing	Trial1	pointing/STIM_002.jpg	99
483.253	1.035	1034.7	pointing	Trial1	pointing/STIM_002.jpg	100
487.36	1.064	1064.2	pointing	Trial1	pointing/STIM_002.jpg	100
490.599	1.042	1041.9	pointing	Trial1	pointing/STIM_003.jpg	100
493.724	1.309	1308.9	pointing	Trial1	pointing/STIM_003.jpg	100
497.986	1.104	1103.9	pointing	Trial1	pointing/STIM_003.jpg	100
502.134	1.27	1269.5	pointing	Trial1	pointing/STIM_003.jpg	100
505.932	1.189	1189.1	pointing	Trial1	pointing/STIM_003.jpg	100
509.873	1.203	1203.0	pointing	Trial1	pointing/STIM_003.jpg	99
514.93	1.377	1376.9	pointing	Trial1	pointing/STIM_004.jpg	99
519.695	0.91	909.8	pointing	Trial1	pointing/STIM_004.jpg	99
523.857	1.119	1118.9	pointing	Trial1	pointing/STIM_004.jpg	100
528.372	1.278	1278.3	pointing	Trial1	pointing/STIM_004.jpg	100
532.344	1.238	1237.8	pointing	Trial1	pointing/STIM_004.jpg	99
536.562	1.2	1200.2	pointing	Trial1	pointing/STIM_004.jpg	100
540.037	0.871	870.9	pointing	Trial1	pointing/STIM_005.jpg	100
544.273	1.272	1272.1	pointing	Trial1	pointing/STIM_005.jpg	99
548.756	1.138	1137.5	pointing	Trial1	pointing/STIM_005.jpg	100
552.225	0.823	822.9	pointing	Trial1	pointing/STIM_005.jpg	100
556.143	0.805	805.0	pointing	Trial1	pointing/STIM_005.jpg	99
559.925	0.768	767.7	pointing	Trial1	pointing/STIM_005.jpg	100
564.622	0.764	764.3	pointing	Trial1	pointing/STIM_006.jpg	100
567.804	1.374	1374.0	pointing	Trial1	pointing/STIM_006.jpg	99
573.067	1.226	1225.6	pointing	Trial1	pointing/STIM_006.jpg	100
577.03	1.308	1308.3	pointing	Trial1	pointing/STIM_006.jpg	100
581.622	1.362	1362.5	pointing	Trial1	pointing/STIM_006.jpg	100
586.945	0.957	957.1	pointing	Trial1	pointing/STIM_006.jpg	99
590.164	0.876	875.5	pointing	Trial1	pointing/STIM_007.jpg	99
594.223	0.769	769.0	pointing	Trial1	pointing/STIM_007.jpg	99
597.396	0.825	825.2	pointing	Trial1	pointing/STIM_007.jpg	99
601.426	1.358	1358.5	pointing	Trial1	pointing/STIM_007.jpg	100
606.43	1.28	1280.3	pointing	Trial1	pointing/STIM_007.jpg	100
610.668	0.978	978.4	pointing	Trial1	pointing/STIM_007.jpg	100
615.297	0.784	783.7	pointing	Trial1	pointing/STIM_008.jpg	99
618.186	1.027	1026.6	pointing	Trial1	pointing/STIM_008.jpg	99
622.778	0.805	805.3	pointing	Trial1	pointing/STIM_008.jpg	100
626.779	1.398	1397.5	pointing	Trial1	pointing/STIM_008.jpg	100
631.636	1.303	1303.0	pointing	Trial1	pointing/STIM_008.jpg	100
635.069	1.279	1278.9	pointing	Trial1	pointing/STIM_008.jpg	100
638.749	1.387	1386.7	pointing	Trial1	pointing/STIM_009.jpg	99
642.663	1.201	1201.4	pointing	Trial1	pointing/STIM_009.jpg	99
645.999	1.063	1062.8	pointing	Trial1	pointing/STIM_009.jpg	100
649.104	1.261	1261.3	pointing	Trial1	pointing/STIM_009.jpg	99
653.042	0.897	897.3	pointing	Trial1	pointing/STIM_009.jpg	100
657.503	1.05	1050.1	pointing	Trial1	pointing/STIM_009.jpg	100
662.476	1.329	1329.1	pointing	Trial1	pointing/STIM_010.jpg	99
667.007	0.906	905.9	pointing	Trial1	pointing/STIM_010.jpg	99
670.377	0.908	907.5	pointing	Trial1	pointing/STIM_010.jpg	100
674.092	1.19	1189.6	pointing	Trial1	pointing/STIM_010.jpg	99
677.791	1.269	1269.1	pointing	Trial1	pointing/STIM_010.jpg	99
682.851	0.939	939.2	pointing	Trial1	pointing/STIM_010.jpg	100
687.388	0.792	792.2	pointing	Trial1	pointing/STIM_011.jpg	100
690.71	1.231	1230.8	pointing	Trial1	pointing/STIM_011.jpg	100
694.662	0.849	849.4	pointing	Trial1	pointing/STIM_011.jpg	99
698.056	0.783	783.3	pointing	Trial1	pointing/STIM_011.jpg	99
701.288	1.002	1002.1	pointing	Trial1	pointing/STIM_011.jpg	100
705.895	0.867	867.2	pointing	Trial1	pointing/STIM_011.jpg	100
708.877	3.187	3186.8	navigation	Trial2	navigation/STIM_000.jpg	100
715.081	1.886	1886.2	navigation	Trial2	navigation/STIM_000.jpg	99
719.249	3.457	3457.0	navigation	Trial2	navigation/STIM_000.jpg	100
725.953	1.497	1497.2	navigation	Trial2	navigation/STIM_000.jpg	99
730.183	2.011	2011.2	navigation	Trial2	navigation/STIM_000.jpg	100
736.082	1.99	1990.1	navigation	Trial2	navigation/STIM_000.jpg	100
741.947	3.648	3648.0	navigation	Trial2	navigation/STIM_001.jpg	100
749.242	1.915	1915.2	navigation	Trial2	navigation/STIM_001.jpg	100
753.716	2.519	2519.4	navigation	Trial2	navigation/STIM_001.jpg	99
758.701	2.041	2040.7	navigation	Trial2	navigation/STIM_001.jpg	100
764.736	2.934	2933.6	navigation	Trial2	navigation/STIM_001.jpg	99
770.085	2.671	2671.4	navigation	Trial2	navigation/STIM_001.jpg	99
775.751	2.028	2028.2	navigation	Trial2	navigation/STIM_002.jpg	100
780.27	1.622	1622.4	navigation	Trial2	navigation/STIM_002.jpg	100
785.322	2.681	2680.9	navigation	Trial2	navigation/STIM_002.jpg	99
790.52	3.29	3289.8	navigation	Trial2	navigation/STIM_002.jpg	100
796.58	2.291	2290.8	navigation	Trial2	navigation/STIM_002.jpg	99
800.95	2.091	2091.3	navigation	Trial2	navigation/STIM_002.jpg	99
805.685	3.409	3409.1	navigation	Trial2	navigation/STIM_003.jpg	100
812.038	1.82	1819.8	navigation	Trial2	navigation/STIM_003.jpg	99
816.315	2.965	2965.0	navigation	Trial2	navigation/STIM_003.jpg	100
822.669	2.177	2177.0	navigation	Trial2	navigation/STIM_003.jpg	100
827.573	2.006	2005.9	navigation	Trial2	navigation/STIM_003.jpg	100
832.303	1.718	1717.7	navigation	Trial2	navigation/STIM_003.jpg	100
836.914	3.645	3644.7	navigation	Trial2	navigation/STIM_004.jpg	100
843.271	3.144	3144.1	navigation	Trial2	navigation/STIM_004.jpg	99
849.959	1.971	1970.9	navigation	Trial2	navigation/STIM_004.jpg	100
855.59	2.03	2029.8	navigation	Trial2	navigation/STIM_004.jpg	99
860.821	1.693	1692.9	navigation	Trial2	navigation/STIM_004.jpg	100
865.674	2.337	2336.7	navigation	Trial2	navigation/STIM_004.jpg	99
870.741	3.407	3406.9	navigation	Trial2	navigation/STIM_005.jpg	100
877.515	3.783	3783.3	navigation	Trial2	navigation/STIM_005.jpg	99
885.21	3.03	3029.6	navigation	Trial2	navigation/STIM_005.jpg	99
891.923	1.674	1673.8	navigation	Trial2	navigation/STIM_005.jpg	100
896.697	2.314	2314.5	navigation	Trial2	navigation/STIM_005.jpg	100
902.985	1.921	1920.6	navigation	Trial2	navigation/STIM_005.jpg	100
907.019	3.958	3958.5	navigation	Trial2	navigation/STIM_006.jpg	100
914.922	2.569	2569.1	navigation	Trial2	navigation/STIM_006.jpg	99
919.827	2.018	2017.9	navigation	Trial2	navigation/STIM_006.jpg	100
924.418	1.878	1877.6	navigation	Trial2	navigation/STIM_006.jpg	99
929.584	1.366	1366.5	navigation	Trial2	navigation/STIM_006.jpg	100
933.892	2.861	2861.2	navigation	Trial2	navigation/STIM_006.jpg	100
939.455	1.752	1752.4	navigation	Trial2	navigation/STIM_007.jpg	99
944.756	1.712	1712.2	navigation	Trial2	navigation/STIM_007.jpg	99
948.583	2.121	2120.7	navigation	Trial2	navigation/STIM_007.jpg	99
954.491	2.504	2504.2	navigation	Trial2	navigation/STIM_007.jpg	99
960.106	3.014	3014.0	navigation	Trial2	navigation/STIM_007.jpg	99
967.002	3.089	3089.3	navigation	Trial2	navigation/STIM_007.jpg	99
972.99	2.495	2495.4	navigation	Trial2	navigation/STIM_008.jpg	99
978.395	3.574	3574.0	navigation	Trial2	navigation/STIM_008.jpg	99
985.726	2.444	2444.2	navigation	Trial2	navigation/STIM_008.jpg	99
991.183	2.395	2394.7	navigation	Trial2	navigation/STIM_008.jpg	100
995.581	1.866	1865.7	navigation	Trial2	navigation/STIM_008.jpg	100
999.844	2.209	2208.6	navigation	Trial2	navigation/STIM_008.jpg	100
1004.437	3.886	3885.7	navigation	Trial2	navigation/STIM_009.jpg	100
1011.275	3.449	3449.0	navigation	Trial2	navigation/STIM_009.jpg	100
1017.437	3.202	3202.1	navigation	Trial2	navigation/STIM_009.jpg	100
1024.04	1.388	1388.3	navigation	Trial2	navigation/STIM_009.jpg	100
1028.898	2.006	2005.5	navigation	Trial2	navigation/STIM_009.jpg	99
1034.837	2.345	2344.9	navigation	Trial2	navigation/STIM_009.jpg	99
1040.506	3.732	3731.5	navigation	Trial2	navigation/STIM_010.jpg	99
1046.577	2.544	2543.8	navigation	Trial2	navigation/STIM_010.jpg	99
1052.433	2.71	2709.6	navigation	Trial2	navigation/STIM_010.jpg	99
1057.152	1.942	1941.7	navigation	Trial2	navigation/STIM_010.jpg	100
1062.9	1.992	1992.3	navigation	Trial2	navigation/STIM_010.jpg	100
1068.187	2.473	2473.4	navigation	Trial2	navigation/STIM_010.jpg	100
1072.675	3.12	3120.5	navigation	Trial2	navigation/STIM_011.jpg	99
1079.204	3.675	3674.9	navigation	Trial2	navigation/STIM_011.jpg	99
1086.457	2.884	2884.1	navigation	Trial2	navigation/STIM_011.jpg	99
1093.059	3.171	3171.3	navigation	Trial2	navigation/STIM_011.jpg	99
1099.469	3.125	3125.1	navigation	Trial2	navigation/STIM_011.jpg	99
1104.812	2.739	2738.8	navigation	Trial2	navigation/STIM_011.jpg	99
1109.916	1.141	1141.2	pointing	Trial2	pointing/STIM_000.jpg	100
1113.919	1.42	1419.6	pointing	Trial2	pointing/STIM_000.jpg	100
1117.643	0.893	893.0	pointing	Trial2	pointing/STIM_000.jpg	100
1121.37	0.961	961.4	pointing	Trial2	pointing/STIM_000.jpg	100
1124.347	0.93	929.9	pointing	Trial2	pointing/STIM_000.jpg	99
1128.645	1.426	1425.6	pointing	Trial2	pointing/STIM_000.jpg	100
1134.055	1.248	1247.9	pointing	Trial2	pointing/STIM_001.jpg	100
1138.357	1.348	1347.6	pointing	Trial2	pointing/STIM_001.jpg	100
1142.997	1.23	1229.7	pointing	Trial2	pointing/STIM_001.jpg	100
1146.707	1.275	1275.2	pointing	Trial2	pointing/STIM_001.jpg	99
1150.472	1.135	1134.6	pointing	Trial2	pointing/STIM_001.jpg	99
1154.503	0.843	843.2	pointing	Trial2	pointing/STIM_001.jpg	99
1157.403	1.055	1054.8	pointing	Trial2	pointing/STIM_002.jpg	99
1161.039	1.365	1365.4	pointing	Trial2	pointing/STIM_002.jpg	100
1165.034	1.341	1340.8	pointing	Trial2	pointing/STIM_002.jpg	100
1168.56	0.991	991.4	pointing	Trial2	pointing/STIM_002.jpg	99
1171.919	1.346	1346.0	pointing	Trial2	pointing/STIM_002.jpg	99
1176.446	0.963	963.2	pointing	Trial2	pointing/STIM_002.jpg	100
1180.091	0.821	821.4	pointing	Trial2	pointing/STIM_003.jpg	100
1184.847	1.018	1018.1	pointing	Trial2	pointing/STIM_003.jpg	100
1188.528	1.244	1244.3	pointing	Trial2	pointing/STIM_003.jpg	99
1192.743	0.791	790.9	pointing	Trial2	pointing/STIM_003.jpg	99
1196.539	0.797	797.1	pointing	Trial2	pointing/STIM_003.jpg	100
1199.872	0.869	869.1	pointing	Trial2	pointing/STIM_003.jpg	99
1204.503	1.019	1018.8	pointing	Trial2	pointing/STIM_004.jpg	100
1208.801	0.902	901.6	pointing	Trial2	pointing/STIM_004.jpg	99
1213.356	0.882	881.9	pointing	Trial2	pointing/STIM_004.jpg	99
1216.414	0.96	960.2	pointing	Trial2	pointing/STIM_004.jpg	100
1219.777	1.153	1152.6	pointing	Trial2	pointing/STIM_004.jpg	100
1223.139	1.331	1330.6	pointing	Trial2	pointing/STIM_004.jpg	99
1227.439	1.318	1318.5	pointing	Trial2	pointing/STIM_005.jpg	100
1231.803	1.221	1220.7	pointing	Trial2	pointing/STIM_005.jpg	99
1236.862	1.012	1012.4	pointing	Trial2	pointing/STIM_005.jpg	99
1240.349	1.248	1247.6	pointing	Trial2	pointing/STIM_005.jpg	100
1245.395	1.071	1070.6	pointing	Trial2	pointing/STIM_005.jpg	100
1249.316	0.82	819.8	pointing	Trial2	pointing/STIM_005.jpg	99
1252.192	1.24	1240.1	pointing	Trial2	pointing/STIM_006.jpg	99
1257.261	1.005	1005.3	pointing	Trial2	pointing/STIM_006.jpg	100
1260.931	1.23	1229.5	pointing	Trial2	pointing/STIM_006.jpg	99
1264.328	1.106	1105.9	pointing	Trial2	pointing/STIM_006.jpg	99
1267.83	1.153	1153.3	pointing	Trial2	pointing/STIM_006.jpg	99
1272.851	0.998	998.0	pointing	Trial2	pointing/STIM_006.jpg	99
1276.826	1.312	1312.5	pointing	Trial2	pointing/STIM_007.jpg	100
1281.528	0.905	905.2	pointing	Trial2	pointing/STIM_007.jpg	99
1285.363	0.906	906.4	pointing	Trial2	pointing/STIM_007.jpg	100
1288.465	1.358	1358.1	pointing	Trial2	pointing/STIM_007.jpg	99
1293.66	1.278	1278.3	pointing	Trial2	pointing/STIM_007.jpg	99
1297.205	1.347	1347.2	pointing	Trial2	pointing/STIM_007.jpg	100
1301.185	0.992	992.5	pointing	Trial2	pointing/STIM_008.jpg	100
1306.154	1.285	1284.9	pointing	Trial2	pointing/STIM_008.jpg	99
1309.956	1.288	1287.6	pointing	Trial2	pointing/STIM_008.jpg	99
1313.292	1.134	1134.2	pointing	Trial2	pointing/STIM_008.jpg	99
1316.943	1.156	1155.5	pointing	Trial2	pointing/STIM_008.jpg	100
1320.263	1.313	1312.6	pointing	Trial2	pointing/STIM_008.jpg	99
1323.99	0.861	860.7	pointing	Trial2	pointing/STIM_009.jpg	100
1328.738	1.329	1329.1	pointing	Trial2	pointing/STIM_009.jpg	100
1332.427	1.024	1024.3	pointing	Trial2	pointing/STIM_009.jpg	99
1336.289	1.352	1352.2	pointing	Trial2	pointing/STIM_009.jpg	100
1340.213	1.416	1415.9	pointing	Trial2	pointing/STIM_009.jpg	100
1344.047	0.86	860.5	pointing	Trial2	pointing/STIM_009.jpg	99
1347.896	0.78	780.4	pointing	Trial2	pointing/STIM_010.jpg	100
1352.191	1.383	1382.8	pointing	Trial2	pointing/STIM_010.jpg	100
1356.964	1.099	1099.0	pointing	Trial2	pointing/STIM_010.jpg	99
1360.134	1.396	1395.6	pointing	Trial2	pointing/STIM_010.jpg	99
1364.998	0.894	894.5	pointing	Trial2	pointing/STIM_010.jpg	100
1368.451	1.188	1187.7	pointing	Trial2	pointing/STIM_010.jpg	99
1373.444	1.308	1308.4	pointing	Trial2	pointing/STIM_011.jpg	100
1378.091	1.059	1059.1	pointing	Trial2	pointing/STIM_011.jpg	99
1381.756	1.367	1367.3	pointing	Trial2	pointing/STIM_011.jpg	100
1386.783	1.241	1240.8	pointing	Trial2	pointing/STIM_011.jpg	100
1391.483	1.1	1099.7	pointing	Trial2	pointing/STIM_011.jpg	100
1396.439	0.895	894.9	pointing	Trial2	pointing/STIM_011.jpg	99
1400.082	2.398	2398.2	navigation	Trial3	navigation/STIM_000.jpg	99
1405.251	3.314	3313.5	navigation	Trial3	navigation/STIM_000.jpg	100
1412.476	2.103	2103.2	navigation	Trial3	navigation/STIM_000.jpg	99
1417.219	2.07	2069.5	navigation	Trial3	navigation/STIM_000.jpg	100
1422.516	2.311	2311.1	navigation	Trial3	navigation/STIM_000.jpg	99
1426.961	1.701	1701.2	navigation	Trial3	navigation/STIM_000.jpg	100
1432.254	3.279	3278.7	navigation	Trial3	navigation/STIM_001.jpg	99
1438.859	1.493	1492.6	navigation	Trial3	navigation/STIM_001.jpg	99
1444.185	2.687	2687.4	navigation	Trial3	navigation/STIM_001.jpg	100
1450.773	2.322	2322.4	navigation	Trial3	navigation/STIM_001.jpg	99
1455.656	1.846	1845.5	navigation	Trial3	navigation/STIM_001.jpg	99
1459.566	2.8	2799.7	navigation	Trial3	navigation/STIM_001.jpg	100
1464.636	1.851	1851.4	navigation	Trial3	navigation/STIM_002.jpg	100
1469.233	2.29	2289.6	navigation	Trial3	navigation/STIM_002.jpg	99
1474.474	1.617	1617.1	navigation	Trial3	navigation/STIM_002.jpg	99
1478.17	1.731	1731.3	navigation	Trial3	navigation/STIM_002.jpg	100
1482.22	2.982	2981.9	navigation	Trial3	navigation/STIM_002.jpg	100
1488.578	1.65	1650.3	navigation	Trial3	navigation/STIM_002.jpg	99
1493.263	1.42	1419.6	navigation	Trial3	navigation/STIM_003.jpg	99
1497.391	3.019	3019.1	navigation	Trial3	navigation/STIM_003.jpg	100
1503.992	2.324	2324.0	navigation	Trial3	navigation/STIM_003.jpg	99
1508.646	2.789	2789.4	navigation	Trial3	navigation/STIM_003.jpg	99
1514.946	3.295	3294.6	navigation	Trial3	navigation/STIM_003.jpg	100
1521.403	3.272	3271.7	navigation	Trial3	navigation/STIM_003.jpg	99
1527.475	2.262	2261.5	navigation	Trial3	navigation/STIM_004.jpg	99
1532.382	1.706	1706.5	navigation	Trial3	navigation/STIM_004.jpg	100
1537.038	2.772	2772.3	navigation	Trial3	navigation/STIM_004.jpg	99
1543.203	1.713	1713.2	navigation	Trial3	navigation/STIM_004.jpg	99
1547.103	2.599	2599.0	navigation	Trial3	navigation/STIM_004.jpg	100
1553.612	2.628	2627.5	navigation	Trial3	navigation/STIM_004.jpg	99
1559.333	1.676	1675.6	navigation	Trial3	navigation/STIM_005.jpg	99
1564.308	3.134	3134.5	navigation	Trial3	navigation/STIM_005.jpg	99
1569.46	2.578	2577.7	navigation	Trial3	navigation/STIM_005.jpg	99
1575.726	2.736	2736.4	navigation	Trial3	navigation/STIM_005.jpg	100
1580.466	2.754	2754.2	navigation	Trial3	navigation/STIM_005.jpg	99
1587.212	2.996	2995.5	navigation	Trial3	navigation/STIM_005.jpg	99
1592.626	2.373	2373.1	navigation	Trial3	navigation/STIM_006.jpg	99
1597.881	2.325	2325.2	navigation	Trial3	navigation/STIM_006.jpg	99
1603.095	3.056	3056.3	navigation	Trial3	navigation/STIM_006.jpg	100
1608.591	2.396	2396.1	navigation	Trial3	navigation/STIM_006.jpg	100
1614.7	3.112	3111.8	navigation	Trial3	navigation/STIM_006.jpg	100
1621.158	1.85	1850.2	navigation	Trial3	navigation/STIM_006.jpg	99
1626.321	1.821	1820.7	navigation	Trial3	navigation/STIM_007.jpg	100
1631.168	1.519	1519.2	navigation	Trial3	navigation/STIM_007.jpg	99
1636.199	1.616	1616.4	navigation	Trial3	navigation/STIM_007.jpg	99
1641.275	3.27	3269.9	navigation	Trial3	navigation/STIM_007.jpg	100
1646.573	3.092	3092.0	navigation	Trial3	navigation/STIM_007.jpg	100
1653.471	2.202	2201.6	navigation	Trial3	navigation/STIM_007.jpg	100
1658.751	2.099	2098.7	navigation	Trial3	navigation/STIM_008.jpg	99
1664.002	3.073	3072.7	navigation	Trial3	navigation/STIM_008.jpg	99
1669.407	1.429	1429.1	navigation	Trial3	navigation/STIM_008.jpg	100
1673.571	2.145	2144.7	navigation	Trial3	navigation/STIM_008.jpg	99
1678.441	2.394	2393.9	navigation	Trial3	navigation/STIM_008.jpg	99
1683.394	1.55	1550.2	navigation	Trial3	navigation/STIM_008.jpg	100
1687.252	1.575	1575.2	navigation	Trial3	navigation/STIM_009.jpg	100
1692.3	1.354	1354.1	navigation	Trial3	navigation/STIM_009.jpg	100
1696.166	2.262	2261.6	navigation	Trial3	navigation/STIM_009.jpg	99
1700.699	2.135	2134.6	navigation	Trial3	navigation/STIM_009.jpg	99
1706.34	3.196	3195.8	navigation	Trial3	navigation/STIM_009.jpg	100
1713.387	3.276	3276.2	navigation	Trial3	navigation/STIM_009.jpg	100
1719.388	2.147	2146.8	navigation	Trial3	navigation/STIM_010.jpg	99
1724.947	3.327	3326.9	navigation	Trial3	navigation/STIM_010.jpg	100
1731.938	3.111	3110.6	navigation	Trial3	navigation/STIM_010.jpg	99
1737.772	1.402	1402.3	navigation	Trial3	navigation/STIM_010.jpg	99
1742.011	2.45	2449.6	navigation	Trial3	navigation/STIM_010.jpg	99
1748.371	1.628	1627.8	navigation	Trial3	navigation/STIM_010.jpg	99
1752.38	1.923	1922.7	navigation	Trial3	navigation/STIM_011.jpg	100
1757.14	1.688	1688.2	navigation	Trial3	navigation/STIM_011.jpg	99
1761.781	2.982	2981.8	navigation	Trial3	navigation/STIM_011.jpg	99
1767.054	3.198	3197.8	navigation	Trial3	navigation/STIM_011.jpg	99
1772.287	2.814	2813.8	navigation	Trial3	navigation/STIM_011.jpg	100
1777.109	1.74	1740.3	navigation	Trial3	navigation/STIM_011.jpg	99
1781.715	1.028	1027.9	pointing	Trial3	pointing/STIM_000.jpg	99
1785.753	0.958	958.3	pointing	Trial3	pointing/STIM_000.jpg	100
1790.535	0.925	924.7	pointing	Trial3	pointing/STIM_000.jpg	99
1793.789	0.882	882.1	pointing	Trial3	pointing/STIM_000.jpg	100
1798.592	1.285	1284.7	pointing	Trial3	pointing/STIM_000.jpg	99
1802.098	1.124	1123.7	pointing	Trial3	pointing/STIM_000.jpg	100
1807.196	0.808	808.0	pointing	Trial3	pointing/STIM_001.jpg	99
1810.927	0.968	968.5	pointing	Trial3	pointing/STIM_001.jpg	100
1814.942	1.252	1252.5	pointing	Trial3	pointing/STIM_001.jpg	100
1819.235	0.843	842.9	pointing	Trial3	pointing/STIM_001.jpg	100
1824.072	1.224	1223.5	pointing	Trial3	pointing/STIM_001.jpg	100
1828.583	0.796	795.8	pointing	Trial3	pointing/STIM_001.jpg	100
1832.184	0.986	986.5	pointing	Trial3	pointing/STIM_002.jpg	99
1835.306	1.244	1243.8	pointing	Trial3	pointing/STIM_002.jpg	100
1840.107	1.141	1141.4	pointing	Trial3	pointing/STIM_002.jpg	99
1843.944	0.924	924.5	pointing	Trial3	pointing/STIM_002.jpg	100
1848.405	1.349	1348.9	pointing	Trial3	pointing/STIM_002.jpg	99
1853.656	0.828	828.0	pointing	Trial3	pointing/STIM_002.jpg	100
1857.766	1.08	1080.1	pointing	Trial3	pointing/STIM_003.jpg	99
1861.337	0.789	788.8	pointing	Trial3	pointing/STIM_003.jpg	99
1865.384	0.938	938.0	pointing	Trial3	pointing/STIM_003.jpg	99
1869.484	0.94	939.9	pointing	Trial3	pointing/STIM_003.jpg	100
1872.512	1.037	1036.7	pointing	Trial3	pointing/STIM_003.jpg	99
1877.4	0.952	951.9	pointing	Trial3	pointing/STIM_003.jpg	100
1880.569	1.043	1043.2	pointing	Trial3	pointing/STIM_004.jpg	99
1884.986	1.023	1023.1	pointing	Trial3	pointing/STIM_004.jpg	100
1888.958	0.984	984.5	pointing	Trial3	pointing/STIM_004.jpg	99
1892.997	0.792	792.2	pointing	Trial3	pointing/STIM_004.jpg	99
1897.532	1.273	1272.8	pointing	Trial3	pointing/STIM_004.jpg	100
1902.074	1.195	1194.7	pointing	Trial3	pointing/STIM_004.jpg	100
1906.049	1.315	1314.6	pointing	Trial3	pointing/STIM_005.jpg	100
1911.162	1.117	1117.3	pointing	Trial3	pointing/STIM_005.jpg	100
1914.757	1.153	1152.6	pointing	Trial3	pointing/STIM_005.jpg	99
1919.139	1.112	1111.6	pointing	Trial3	pointing/STIM_005.jpg	100
1922.95	1.02	1020.3	pointing	Trial3	pointing/STIM_005.jpg	99
1926.635	1.177	1177.3	pointing	Trial3	pointing/STIM_005.jpg	100
1930.572	1.154	1153.9	pointing	Trial3	pointing/STIM_006.jpg	99
1935.676	1.356	1355.9	pointing	Trial3	pointing/STIM_006.jpg	100
1940.612	1.324	1324.1	pointing	Trial3	pointing/STIM_006.jpg	100
1944.435	0.885	884.9	pointing	Trial3	pointing/STIM_006.jpg	100
1947.374	0.768	767.7	pointing	Trial3	pointing/STIM_006.jpg	100
1950.47	1.064	1064.2	pointing	Trial3	pointing/STIM_006.jpg	100
1954.801	0.867	866.9	pointing	Trial3	pointing/STIM_007.jpg	100
1958.25	1.002	1002.0	pointing	Trial3	pointing/STIM_007.jpg	100
1961.802	0.844	844.3	pointing	Trial3	pointing/STIM_007.jpg	100
1965.316	1.046	1046.3	pointing	Trial3	pointing/STIM_007.jpg	100
1968.386	0.869	869.0	pointing	Trial3	pointing/STIM_007.jpg	100
1972.524	1.236	1236.4	pointing	Trial3	pointing/STIM_007.jpg	99
1977.591	0.966	965.9	pointing	Trial3	pointing/STIM_008.jpg	100
1980.996	1.259	1259.2	pointing	Trial3	pointing/STIM_008.jpg	100
1985.862	0.989	988.6	pointing	Trial3	pointing/STIM_008.jpg	99
1990.006	1.325	1325.3	pointing	Trial3	pointing/STIM_008.jpg	99
1994.191	0.79	790.2	pointing	Trial3	pointing/STIM_008.jpg	99
1998.74	1.114	1114.5	pointing	Trial3	pointing/STIM_008.jpg	99
2003.141	1.179	1178.7	pointing	Trial3	pointing/STIM_009.jpg	100
2006.982	1.01	1010.4	pointing	Trial3	pointing/STIM_009.jpg	100
2011.443	1.042	1042.5	pointing	Trial3	pointing/STIM_009.jpg	100
2016.229	0.786	785.5	pointing	Trial3	pointing/STIM_009.jpg	99
2020.979	0.817	817.1	pointing	Trial3	pointing/STIM_009.jpg	100
2024.574	1.0	1000.4	pointing	Trial3	pointing/STIM_009.jpg	100
2028.419	1.164	1163.6	pointing	Trial3	pointing/STIM_010.jpg	99
2033.067	0.81	810.3	pointing	Trial3	pointing/STIM_010.jpg	100
2037.565	0.973	972.9	pointing	Trial3	pointing/STIM_010.jpg	99
2041.316	1.351	1351.3	pointing	Trial3	pointing/STIM_010.jpg	100
2045.124	1.32	1320.2	pointing	Trial3	pointing/STIM_010.jpg	99
2049.46	1.113	1113.0	pointing	Trial3	pointing/STIM_010.jpg	100
2053.429	1.169	1169.2	pointing	Trial3	pointing/STIM_011.jpg	99
2056.953	1.344	1343.9	pointing	Trial3	pointing/STIM_011.jpg	100
2061.18	0.883	883.4	pointing	Trial3	pointing/STIM_011.jpg	99
2065.316	1.112	1112.4	pointing	Trial3	pointing/STIM_011.jpg	100
2070.279	1.231	1231.3	pointing	Trial3	pointing/STIM_011.jpg	99
2074.046	0.785	785.3	pointing	Trial3	pointing/STIM_011.jpg	99
