onset	duration	accuracy	trial_type	learning_stage	stimulus
0.0	4.433	correct	navigation	Trial1	navigation/STIM_000.jpg
8.426	3.982	correct	navigation	Trial1	navigation/STIM_000.jpg
14.933	1.818	incorrect	navigation	Trial1	navigation/STIM_000.jpg
19.587	2.889	correct	navigation	Trial1	navigation/STIM_000.jpg
25.72	3.318	incorrect	navigation	Trial1	navigation/STIM_000.jpg
31.657	1.545	incorrect	navigation	Trial1	navigation/STIM_000.jpg
36.953	2.015	correct	navigation	Trial1	navigation/STIM_001.jpg
43.023	4.146	correct	navigation	Trial1	navigation/STIM_001.jpg
50.907	1.786	incorrect	navigation	Trial1	navigation/STIM_001.jpg
55.493	2.167	correct	navigation	Trial1	navigation/STIM_001.jpg
60.228	3.314	correct	navigation	Trial1	navigation/STIM_001.jpg
67.063	2.155	correct	navigation	Trial1	navigation/STIM_001.jpg
72.32	2.588	correct	navigation	Trial1	navigation/STIM_002.jpg
78.979	3.079	incorrect	navigation	Trial1	navigation/STIM_002.jpg
86.034	3.565	incorrect	navigation	Trial1	navigation/STIM_002.jpg
92.516	1.669	incorrect	navigation	Trial1	navigation/STIM_002.jpg
97.024	1.846	incorrect	navigation	Trial1	navigation/STIM_002.jpg
101.418	2.194	correct	navigation	Trial1	navigation/STIM_002.jpg
107.725	2.892	correct	navigation	Trial1	navigation/STIM_003.jpg
114.7	2.42	correct	navigation	Trial1	navigation/STIM_003.jpg
120.935	1.822	correct	navigation	Trial1	navigation/STIM_003.jpg
124.992	1.654	correct	navigation	Trial1	navigation/STIM_003.jpg
130.452	3.06	correct	navigation	Trial1	navigation/STIM_003.jpg
137.206	1.861	incorrect	navigation	Trial1	navigation/STIM_003.jpg
142.958	2.247	correct	navigation	Trial1	navigation/STIM_004.jpg
148.441	2.911	correct	navigation	Trial1	navigation/STIM_004.jpg
153.958	2.525	incorrect	navigation	Trial1	navigation/STIM_004.jpg
159.416	2.028	correct	navigation	Trial1	navigation/STIM_004.jpg
164.863	2.154	correct	navigation	Trial1	navigation/STIM_004.jpg
170.379	2.742	correct	navigation	Trial1	navigation/STIM_004.jpg
177.041	2.294	correct	navigation	Trial1	navigation/STIM_005.jpg
183.285	3.955	incorrect	navigation	Trial1	navigation/STIM_005.jpg
189.763	3.206	correct	navigation	Trial1	navigation/STIM_005.jpg
196.655	3.125	correct	navigation	Trial1	navigation/STIM_005.jpg
203.325	2.839	correct	navigation	Trial1	navigation/STIM_005.jpg
208.927	2.036	incorrect	navigation	Trial1	navigation/STIM_005.jpg
215.043	3.27	incorrect	navigation	Trial1	navigation/STIM_006.jpg
222.304	2.292	incorrect	navigation	Trial1	navigation/STIM_006.jpg
227.309	3.069	correct	navigation	Trial1	navigation/STIM_006.jpg
234.258	2.115	correct	navigation	Trial1	navigation/STIM_006.jpg
240.331	1.483	correct	navigation	Trial1	navigation/STIM_006.jpg
245.731	1.478	correct	navigation	Trial1	navigation/STIM_006.jpg
250.392	4.425	correct	navigation	Trial1	navigation/STIM_007.jpg
258.7	1.754	correct	navigation	Trial1	navigation/STIM_007.jpg
262.975	2.285	correct	navigation	Trial1	navigation/STIM_007.jpg
269.385	1.804	correct	navigation	Trial1	navigation/STIM_007.jpg
274.198	1.535	correct	navigation	Trial1	navigation/STIM_007.jpg
278.263	3.231	incorrect	navigation	Trial1	navigation/STIM_007.jpg
285.789	3.541	correct	navigation	Trial1	navigation/STIM_008.jpg
291.859	2.48	correct	navigation	Trial1	navigation/STIM_008.jpg
298.57	3.12	correct	navigation	Trial1	navigation/STIM_008.jpg
305.034	2.875	correct	navigation	Trial1	navigation/STIM_008.jpg
311.341	2.813	correct	navigation	Trial1	navigation/STIM_008.jpg
318.066	2.334	correct	navigation	Trial1	navigation/STIM_008.jpg
324.368	3.084	incorrect	navigation	Trial1	navigation/STIM_009.jpg
330.285	2.46	incorrect	navigation	Trial1	navigation/STIM_009.jpg
335.909	2.154	correct	navigation	Trial1	navigation/STIM_009.jpg
341.391	1.678	correct	navigation	Trial1	navigation/STIM_009.jpg
345.781	2.195	incorrect	navigation	Trial1	navigation/STIM_009.jpg
351.6	1.879	correct	navigation	Trial1	navigation/STIM_009.jpg
357.287	4.485	correct	navigation	Trial1	navigation/STIM_010.jpg
366.18	3.396	correct	navigation	Trial1	navigation/STIM_010.jpg
373.366	2.032	correct	navigation	Trial1	navigation/STIM_010.jpg
378.528	1.695	correct	navigation	Trial1	navigation/STIM_010.jpg
382.803	2.116	correct	navigation	Trial1	navigation/STIM_010.jpg
387.457	3.075	correct	navigation	Trial1	navigation/STIM_010.jpg
392.975	2.046	correct	navigation	Trial1	navigation/STIM_011.jpg
397.539	2.707	correct	navigation	Trial1	navigation/STIM_011.jpg
402.689	3.035	correct	navigation	Trial1	navigation/STIM_011.jpg
409.243	2.954	correct	navigation	Trial1	navigation/STIM_011.jpg
415.19	3.029	incorrect	navigation	Trial1	navigation/STIM_011.jpg
420.615	3.139	correct	navigation	Trial1	navigation/STIM_011.jpg
426.082	1.016	correct	pointing	Trial1	pointing/STIM_000.jpg
429.381	1.309	correct	pointing	Trial1	pointing/STIM_000.jpg
433.004	1.004	correct	pointing	Trial1	pointing/STIM_000.jpg
437.26	0.918	correct	pointing	Trial1	pointing/STIM_000.jpg
440.855	1.317	correct	pointing	Trial1	pointing/STIM_000.jpg
445.65	1.103	correct	pointing	Trial1	pointing/STIM_000.jpg
449.624	0.972	correct	pointing	Trial1	pointing/STIM_001.jpg
452.812	0.985	correct	pointing	Trial1	pointing/STIM_001.jpg
457.849	1.294	incorrect	pointing	Trial1	pointing/STIM_001.jpg
462.296	1.344	incorrect	pointing	Trial1	pointing/STIM_001.jpg
466.727	1.232	correct	pointing	Trial1	pointing/STIM_001.jpg
471.822	1.231	correct	pointing	Trial1	pointing/STIM_001.jpg
475.663	0.75	correct	pointing	Trial1	pointing/STIM_002.jpg
479.52	0.807	correct	pointing	Trial1	pointing/STIM_002.jpg
483.15	0.763	correct	pointing	Trial1	pointing/STIM_002.jpg
486.045	1.336	correct	pointing	Trial1	pointing/STIM_002.jpg
489.69	0.939	correct	pointing	Trial1	pointing/STIM_002.jpg
493.653	0.975	correct	pointing	Trial1	pointing/STIM_002.jpg
498.452	0.734	correct	pointing	Trial1	pointing/STIM_003.jpg
503.247	1.322	correct	pointing	Trial1	pointing/STIM_003.jpg
507.56	0.742	incorrect	pointing	Trial1	pointing/STIM_003.jpg
511.438	0.868	correct	pointing	Trial1	pointing/STIM_003.jpg
514.985	0.972	correct	pointing	Trial1	pointing/STIM_003.jpg
518.169	0.776	correct	pointing	Trial1	pointing/STIM_003.jpg
522.16	1.231	correct	pointing	Trial1	pointing/STIM_004.jpg
527.409	1.325	correct	pointing	Trial1	pointing/STIM_004.jpg
532.016	0.977	correct	pointing	Trial1	pointing/STIM_004.jpg
535.869	1.179	correct	pointing	Trial1	pointing/STIM_004.jpg
539.729	1.1	correct	pointing	Trial1	pointing/STIM_004.jpg
544.005	1.147	correct	pointing	Trial1	pointing/STIM_004.jpg
549.093	1.136	correct	pointing	Trial1	pointing/STIM_005.jpg
553.904	1.108	correct	pointing	Trial1	pointing/STIM_005.jpg
558.929	0.758	correct	pointing	Trial1	pointing/STIM_005.jpg
561.944	1.041	correct	pointing	Trial1	pointing/STIM_005.jpg
566.136	1.13	correct	pointing	Trial1	pointing/STIM_005.jpg
569.963	1.108	correct	pointing	Trial1	pointing/STIM_005.jpg
573.66	1.21	correct	pointing	Trial1	pointing/STIM_006.jpg
578.585	0.754	correct	pointing	Trial1	pointing/STIM_006.jpg
582.445	1.236	correct	pointing	Trial1	pointing/STIM_006.jpg
587.757	1.254	correct	pointing	Trial1	pointing/STIM_006.jpg
592.735	0.824	correct	pointing	Trial1	pointing/STIM_006.jpg
596.731	0.816	correct	pointing	Trial1	pointing/STIM_006.jpg
601.161	1.052	correct	pointing	Trial1	pointing/STIM_007.jpg
605.832	0.8	correct	pointing	Trial1	pointing/STIM_007.jpg
609.081	1.223	correct	pointing	Trial1	pointing/STIM_007.jpg
612.516	0.951	correct	pointing	Trial1	pointing/STIM_007.jpg
617.313	0.863	correct	pointing	Trial1	pointing/STIM_007.jpg
620.553	0.948	incorrect	pointing	Trial1	pointing/STIM_007.jpg
625.492	1.352	correct	pointing	Trial1	pointing/STIM_008.jpg
630.156	0.893	correct	pointing	Trial1	pointing/STIM_008.jpg
634.826	1.238	correct	pointing	Trial1	pointing/STIM_008.jpg
638.781	1.053	incorrect	pointing	Trial1	pointing/STIM_008.jpg
642.642	0.828	correct	pointing	Trial1	pointing/STIM_008.jpg
646.504	1.027	correct	pointing	Trial1	pointing/STIM_008.jpg
650.146	1.215	correct	pointing	Trial1	pointing/STIM_009.jpg
654.503	1.166	correct	pointing	Trial1	pointing/STIM_009.jpg
657.968	1.045	correct	pointing	Trial1	pointing/STIM_009.jpg
661.617	1.1	correct	pointing	Trial1	pointing/STIM_009.jpg
666.436	1.306	correct	pointing	Trial1	pointing/STIM_009.jpg
671.839	1.175	correct	pointing	Trial1	pointing/STIM_009.jpg
676.204	0.953	correct	pointing	Trial1	pointing/STIM_010.jpg
679.79	0.758	correct	pointing	Trial1	pointing/STIM_010.jpg
683.36	0.882	correct	pointing	Trial1	pointing/STIM_010.jpg
687.028	1.072	correct	pointing	Trial1	pointing/STIM_010.jpg
691.45	0.931	correct	pointing	Trial1	pointing/STIM_010.jpg
695.366	1.258	correct	pointing	Trial1	pointing/STIM_010.jpg
699.019	0.941	correct	pointing	Trial1	pointing/STIM_011.jpg
703.25	0.788	correct	pointing	Trial1	pointing/STIM_011.jpg
706.325	0.79	correct	pointing	Trial1	pointing/STIM_011.jpg
710.342	0.783	correct	pointing	Trial1	pointing/STIM_011.jpg
713.913	1.12	correct	pointing	Trial1	pointing/STIM_011.jpg
717.761	0.73	correct	pointing	Trial1	pointing/STIM_011.jpg
720.667	1.911	correct	navigation	Trial2	navigation/STIM_000.jpg
725.963	3.415	correct	navigation	Trial2	navigation/STIM_000.jpg
732.992	2.588	correct	navigation	Trial2	navigation/STIM_000.jpg
739.808	1.607	correct	navigation	Trial2	navigation/STIM_000.jpg
743.603	1.628	incorrect	navigation	Trial2	navigation/STIM_000.jpg
748.564	2.8	correct	navigation	Trial2	navigation/STIM_000.jpg
755.1	3.648	correct	navigation	Trial2	navigation/STIM_001.jpg
762.467	2.666	correct	navigation	Trial2	navigation/STIM_001.jpg
767.947	1.857	correct	navigation	Trial2	navigation/STIM_001.jpg
773.646	2.546	correct	navigation	Trial2	navigation/STIM_001.jpg
779.371	1.411	correct	navigation	Trial2	navigation/STIM_001.jpg
783.442	2.403	correct	navigation	Trial2	navigation/STIM_001.jpg
788.14	3.401	incorrect	navigation	Trial2	navigation/STIM_002.jpg
795.344	1.483	correct	navigation	Trial2	navigation/STIM_002.jpg
800.375	2.536	correct	navigation	Trial2	navigation/STIM_002.jpg
805.705	2.707	incorrect	navigation	Trial2	navigation/STIM_002.jpg
811.002	2.173	correct	navigation	Trial2	navigation/STIM_002.jpg
817.213	3.085	correct	navigation	Trial2	navigation/STIM_002.jpg
822.718	3.138	correct	navigation	Trial2	navigation/STIM_003.jpg
828.502	3.244	correct	navigation	Trial2	navigation/STIM_003.jpg
834.927	1.753	incorrect	navigation	Trial2	navigation/STIM_003.jpg
839.814	2.195	correct	navigation	Trial2	navigation/STIM_003.jpg
845.909	1.656	correct	navigation	Trial2	navigation/STIM_003.jpg
850.757	2.918	correct	navigation	Trial2	navigation/STIM_003.jpg
856.95	1.757	correct	navigation	Trial2	navigation/STIM_004.jpg
862.231	3.245	correct	navigation	Trial2	navigation/STIM_004.jpg
868.144	2.748	correct	navigation	Trial2	navigation/STIM_004.jpg
874.551	1.522	correct	navigation	Trial2	navigation/STIM_004.jpg
878.301	1.532	correct	navigation	Trial2	navigation/STIM_004.jpg
882.152	3.128	correct	navigation	Trial2	navigation/STIM_004.jpg
888.634	1.632	correct	navigation	Trial2	navigation/STIM_005.jpg
892.776	1.765	correct	navigation	Trial2	navigation/STIM_005.jpg
897.587	2.202	correct	navigation	Trial2	navigation/STIM_005.jpg
902.932	1.781	correct	navigation	Trial2	navigation/STIM_005.jpg
907.965	2.119	correct	navigation	Trial2	navigation/STIM_005.jpg
914.275	2.186	correct	navigation	Trial2	navigation/STIM_005.jpg
919.789	2.646	correct	navigation	Trial2	navigation/STIM_006.jpg
926.295	1.642	incorrect	navigation	Trial2	navigation/STIM_006.jpg
930.833	2.936	correct	navigation	Trial2	navigation/STIM_006.jpg
936.078	2.502	correct	navigation	Trial2	navigation/STIM_006.jpg
941.601	2.552	correct	navigation	Trial2	navigation/STIM_006.jpg
946.565	2.454	correct	navigation	Trial2	navigation/STIM_006.jpg
952.479	2.731	correct	navigation	Trial2	navigation/STIM_007.jpg
958.59	2.772	correct	navigation	Trial2	navigation/STIM_007.jpg
964.615	2.551	correct	navigation	Trial2	navigation/STIM_007.jpg
969.852	1.449	correct	navigation	Trial2	navigation/STIM_007.jpg
974.888	1.391	correct	navigation	Trial2	navigation/STIM_007.jpg
980.147	2.754	correct	navigation	Trial2	navigation/STIM_007.jpg
987.092	2.403	correct	navigation	Trial2	navigation/STIM_008.jpg
992.148	2.997	correct	navigation	Trial2	navigation/STIM_008.jpg
997.917	1.506	correct	navigation	Trial2	navigation/STIM_008.jpg
1002.213	2.842	correct	navigation	Trial2	navigation/STIM_008.jpg
1009.037	2.758	correct	navigation	Trial2	navigation/STIM_008.jpg
1015.074	1.773	correct	navigation	Trial2	navigation/STIM_008.jpg
1019.337	2.09	correct	navigation	Trial2	navigation/STIM_009.jpg
1024.745	2.425	correct	navigation	Trial2	navigation/STIM_009.jpg
1030.936	2.809	incorrect	navigation	Trial2	navigation/STIM_009.jpg
1037.332	1.527	correct	navigation	Trial2	navigation/STIM_009.jpg
1042.046	1.934	correct	navigation	Trial2	navigation/STIM_009.jpg
1047.358	1.272	incorrect	navigation	Trial2	navigation/STIM_009.jpg
1052.21	1.941	correct	navigation	Trial2	navigation/STIM_010.jpg
1057.76	1.946	correct	navigation	Trial2	navigation/STIM_010.jpg
1063.233	2.847	correct	navigation	Trial2	navigation/STIM_010.jpg
1068.715	1.558	correct	navigation	Trial2	navigation/STIM_010.jpg
1073.036	2.993	incorrect	navigation	Trial2	navigation/STIM_010.jpg
1079.661	1.464	correct	navigation	Trial2	navigation/STIM_010.jpg
1085.24	1.685	correct	navigation	Trial2	navigation/STIM_011.jpg
1090.703	2.722	correct	navigation	Trial2	navigation/STIM_011.jpg
1096.156	2.723	correct	navigation	Trial2	navigation/STIM_011.jpg
1102.737	1.683	correct	navigation	Trial2	navigation/STIM_011.jpg
1107.287	2.078	correct	navigation	Trial2	navigation/STIM_011.jpg
1111.788	1.865	correct	navigation	Trial2	navigation/STIM_011.jpg
1117.47	1.004	correct	pointing	Trial2	pointing/STIM_000.jpg
1122.337	0.787	correct	pointing	Trial2	pointing/STIM_000.jpg
1126.062	0.918	correct	pointing	Trial2	pointing/STIM_000.jpg
1129.451	0.977	correct	pointing	Trial2	pointing/STIM_000.jpg
1132.867	0.971	correct	pointing	Trial2	pointing/STIM_000.jpg
1136.984	0.775	incorrect	pointing	Trial2	pointing/STIM_000.jpg
1139.959	1.124	correct	pointing	Trial2	pointing/STIM_001.jpg
1144.865	0.763	correct	pointing	Trial2	pointing/STIM_001.jpg
1149.212	1.277	correct	pointing	Trial2	pointing/STIM_001.jpg
1154.58	0.745	correct	pointing	Trial2	pointing/STIM_001.jpg
1158.127	1.121	correct	pointing	Trial2	pointing/STIM_001.jpg
1162.943	1.026	correct	pointing	Trial2	pointing/STIM_001.jpg
1167.425	0.77	correct	pointing	Trial2	pointing/STIM_002.jpg
1170.764	1.078	correct	pointing	Trial2	pointing/STIM_002.jpg
1174.748	0.921	correct	pointing	Trial2	pointing/STIM_002.jpg
1179.051	0.916	correct	pointing	Trial2	pointing/STIM_002.jpg
1183.045	1.288	correct	pointing	Trial2	pointing/STIM_002.jpg
1188.066	0.902	correct	pointing	Trial2	pointing/STIM_002.jpg
1192.265	0.968	incorrect	pointing	Trial2	pointing/STIM_003.jpg
1196.782	1.204	correct	pointing	Trial2	pointing/STIM_003.jpg
1201.57	1.058	correct	pointing	Trial2	pointing/STIM_003.jpg
1205.943	1.224	correct	pointing	Trial2	pointing/STIM_003.jpg
1209.355	0.948	correct	pointing	Trial2	pointing/STIM_003.jpg
1213.214	1.296	incorrect	pointing	Trial2	pointing/STIM_003.jpg
1217.654	1.316	incorrect	pointing	Trial2	pointing/STIM_004.jpg
1222.849	0.989	correct	pointing	Trial2	pointing/STIM_004.jpg
1226.931	1.265	correct	pointing	Trial2	pointing/STIM_004.jpg
1230.353	0.786	correct	pointing	Trial2	pointing/STIM_004.jpg
1234.408	1.199	correct	pointing	Trial2	pointing/STIM_004.jpg
1237.765	1.146	correct	pointing	Trial2	pointing/STIM_004.jpg
1242.679	1.071	correct	pointing	Trial2	pointing/STIM_005.jpg
1245.931	1.111	incorrect	pointing	Trial2	pointing/STIM_005.jpg
1249.476	0.748	correct	pointing	Trial2	pointing/STIM_005.jpg
1252.758	1.099	correct	pointing	Trial2	pointing/STIM_005.jpg
1257.019	1.068	correct	pointing	Trial2	pointing/STIM_005.jpg
1260.393	0.764	correct	pointing	Trial2	pointing/STIM_005.jpg
1264.005	0.96	correct	pointing	Trial2	pointing/STIM_006.jpg
1267.48	1.193	incorrect	pointing	Trial2	pointing/STIM_006.jpg
1272.511	0.839	correct	pointing	Trial2	pointing/STIM_006.jpg
1276.858	1.332	incorrect	pointing	Trial2	pointing/STIM_006.jpg
1281.234	0.956	correct	pointing	Trial2	pointing/STIM_006.jpg
1284.864	1.258	correct	pointing	Trial2	pointing/STIM_006.jpg
1288.959	0.991	correct	pointing	Trial2	pointing/STIM_007.jpg
1293.979	1.201	correct	pointing	Trial2	pointing/STIM_007.jpg
1299.085	1.173	incorrect	pointing	Trial2	pointing/STIM_007.jpg
1303.403	1.17	correct	pointing	Trial2	pointing/STIM_007.jpg
1307.128	1.135	correct	pointing	Trial2	pointing/STIM_007.jpg
1311.446	1.292	correct	pointing	Trial2	pointing/STIM_007.jpg
1315.394	1.075	correct	pointing	Trial2	pointing/STIM_008.jpg
1319.708	0.856	correct	pointing	Trial2	pointing/STIM_008.jpg
1324.266	1.304	correct	pointing	Trial2	pointing/STIM_008.jpg
1329.682	1.275	correct	pointing	Trial2	pointing/STIM_008.jpg
1334.604	1.185	correct	pointing	Trial2	pointing/STIM_008.jpg
1338.769	0.995	correct	pointing	Trial2	pointing/STIM_008.jpg
1342.299	1.245	correct	pointing	Trial2	pointing/STIM_009.jpg
1346.742	1.348	correct	pointing	Trial2	pointing/STIM_009.jpg
1352.104	0.998	correct	pointing	Trial2	pointing/STIM_009.jpg
1356.277	1.113	correct	pointing	Trial2	pointing/STIM_009.jpg
1360.648	1.048	correct	pointing	Trial2	pointing/STIM_009.jpg
1364.771	1.231	correct	pointing	Trial2	pointing/STIM_009.jpg
1369.026	0.845	incorrect	pointing	Trial2	pointing/STIM_010.jpg
1372.497	1.263	correct	pointing	Trial2	pointing/STIM_010.jpg
1377.069	1.226	correct	pointing	Trial2	pointing/STIM_010.jpg
1380.667	0.817	correct	pointing	Trial2	pointing/STIM_010.jpg
1385.254	0.734	correct	pointing	Trial2	pointing/STIM_010.jpg
1389.466	0.985	correct	pointing	Trial2	pointing/STIM_010.jpg
1393.853	0.957	correct	pointing	Trial2	pointing/STIM_011.jpg
1398.184	1.179	incorrect	pointing	Trial2	pointing/STIM_011.jpg
1402.981	0.827	correct	pointing	Trial2	pointing/STIM_011.jpg
1406.637	1.062	correct	pointing	Trial2	pointing/STIM_011.jpg
1411.168	1.221	correct	pointing	Trial2	pointing/STIM_011.jpg
1416.285	0.942	correct	pointing	Trial2	pointing/STIM_011.jpg
1419.843	1.417	correct	navigation	Trial3	navigation/STIM_000.jpg
1424.291	1.933	incorrect	navigation	Trial3	navigation/STIM_000.jpg
1428.441	1.55	correct	navigation	Trial3	navigation/STIM_000.jpg
1433.071	1.824	correct	navigation	Trial3	navigation/STIM_000.jpg
1437.437	3.135	correct	navigation	Trial3	navigation/STIM_000.jpg
1443.915	2.08	correct	navigation	Trial3	navigation/STIM_000.jpg
1450.115	2.91	correct	navigation	Trial3	navigation/STIM_001.jpg
1456.851	3.016	correct	navigation	Trial3	navigation/STIM_001.jpg
1463.676	2.366	correct	navigation	Trial3	navigation/STIM_001.jpg
1469.673	1.616	correct	navigation	Trial3	navigation/STIM_001.jpg
1473.479	1.965	correct	navigation	Trial3	navigation/STIM_001.jpg
1479.619	2.851	correct	navigation	Trial3	navigation/STIM_001.jpg
1485.311	2.726	incorrect	navigation	Trial3	navigation/STIM_002.jpg
1491.994	1.579	correct	navigation	Trial3	navigation/STIM_002.jpg
1497.408	1.732	correct	navigation	Trial3	navigation/STIM_002.jpg
1502.64	1.426	correct	navigation	Trial3	navigation/STIM_002.jpg
1507.23	1.437	correct	navigation	Trial3	navigation/STIM_002.jpg
1512.659	2.01	correct	navigation	Trial3	navigation/STIM_002.jpg
1518.272	3.139	correct	navigation	Trial3	navigation/STIM_003.jpg
1524.082	2.563	correct	navigation	Trial3	navigation/STIM_003.jpg
1529.533	2.204	correct	navigation	Trial3	navigation/STIM_003.jpg
1534.499	1.603	correct	navigation	Trial3	navigation/STIM_003.jpg
1539.275	1.746	correct	navigation	Trial3	navigation/STIM_003.jpg
1544.013	1.87	correct	navigation	Trial3	navigation/STIM_003.jpg
1548.791	1.301	correct	navigation	Trial3	navigation/STIM_004.jpg
1553.774	2.776	correct	navigation	Trial3	navigation/STIM_004.jpg
1560.333	2.344	correct	navigation	Trial3	navigation/STIM_004.jpg
1566.559	1.419	correct	navigation	Trial3	navigation/STIM_004.jpg
1571.595	1.784	correct	navigation	Trial3	navigation/STIM_004.jpg
1575.582	1.853	correct	navigation	Trial3	navigation/STIM_004.jpg
1581.245	2.944	correct	navigation	Trial3	navigation/STIM_005.jpg
1586.623	1.776	correct	navigation	Trial3	navigation/STIM_005.jpg
1592.411	1.886	correct	navigation	Trial3	navigation/STIM_005.jpg
1597.893	3.038	correct	navigation	Trial3	navigation/STIM_005.jpg
1604.396	1.94	correct	navigation	Trial3	navigation/STIM_005.jpg
1610.495	3.097	correct	navigation	Trial3	navigation/STIM_005.jpg
1617.861	3.09	correct	navigation	Trial3	navigation/STIM_006.jpg
1624.041	3.124	correct	navigation	Trial3	navigation/STIM_006.jpg
1629.638	2.84	correct	navigation	Trial3	navigation/STIM_006.jpg
1635.551	1.782	correct	navigation	Trial3	navigation/STIM_006.jpg
1641.289	1.363	correct	navigation	Trial3	navigation/STIM_006.jpg
1644.888	1.51	correct	navigation	Trial3	navigation/STIM_006.jpg
1649.981	2.342	correct	navigation	Trial3	navigation/STIM_007.jpg
1655.809	1.652	correct	navigation	Trial3	navigation/STIM_007.jpg
1660.99	2.416	correct	navigation	Trial3	navigation/STIM_007.jpg
1667.415	2.699	correct	navigation	Trial3	navigation/STIM_007.jpg
1673.083	1.671	correct	navigation	Trial3	navigation/STIM_007.jpg
1677.724	1.664	correct	navigation	Trial3	navigation/STIM_007.jpg
1682.708	1.733	incorrect	navigation	Trial3	navigation/STIM_008.jpg
1687.148	3.045	correct	navigation	Trial3	navigation/STIM_008.jpg
1694.302	1.97	incorrect	navigation	Trial3	navigation/STIM_008.jpg
1699.37	3.098	correct	navigation	Trial3	navigation/STIM_008.jpg
1704.876	2.687	correct	navigation	Trial3	navigation/STIM_008.jpg
1710.583	2.019	correct	navigation	Trial3	navigation/STIM_008.jpg
1716.457	2.382	incorrect	navigation	Trial3	navigation/STIM_009.jpg
1721.247	2.308	correct	navigation	Trial3	navigation/STIM_009.jpg
1727.322	1.378	correct	navigation	Trial3	navigation/STIM_009.jpg
1731.446	2.72	correct	navigation	Trial3	navigation/STIM_009.jpg
1738.327	1.645	correct	navigation	Trial3	navigation/STIM_009.jpg
1742.493	2.193	correct	navigation	Trial3	navigation/STIM_009.jpg
1748.163	2.052	incorrect	navigation	Trial3	navigation/STIM_010.jpg
1753.647	2.615	correct	navigation	Trial3	navigation/STIM_010.jpg
1759.953	2.947	correct	navigation	Trial3	navigation/STIM_010.jpg
1765.792	2.796	correct	navigation	Trial3	navigation/STIM_010.jpg
1772.071	2.195	correct	navigation	Trial3	navigation/STIM_010.jpg
1778.071	1.835	correct	navigation	Trial3	navigation/STIM_010.jpg
1782.42	2.083	correct	navigation	Trial3	navigation/STIM_011.jpg
1787.992	1.423	correct	navigation	Trial3	navigation/STIM_011.jpg
1792.408	1.959	correct	navigation	Trial3	navigation/STIM_011.jpg
1797.229	2.765	correct	navigation	Trial3	navigation/STIM_011.jpg
1803.473	1.813	correct	navigation	Trial3	navigation/STIM_011.jpg
1808.867	1.768	correct	navigation	Trial3	navigation/STIM_011.jpg
1813.934	0.86	correct	pointing	Trial3	pointing/STIM_000.jpg
1817.369	0.962	correct	pointing	Trial3	pointing/STIM_000.jpg
1821.033	1.294	correct	pointing	Trial3	pointing/STIM_000.jpg
1825.96	1.084	correct	pointing	Trial3	pointing/STIM_000.jpg
1829.344	0.898	correct	pointing	Trial3	pointing/STIM_000.jpg
1832.921	1.006	correct	pointing	Trial3	pointing/STIM_000.jpg
1837.221	1.012	incorrect	pointing	Trial3	pointing/STIM_001.jpg
1841.166	0.797	correct	pointing	Trial3	pointing/STIM_001.jpg
1844.983	1.1	correct	pointing	Trial3	pointing/STIM_001.jpg
1848.62	1.169	correct	pointing	Trial3	pointing/STIM_001.jpg
1853.425	1.216	correct	pointing	Trial3	pointing/STIM_001.jpg
1857.319	1.217	correct	pointing	Trial3	pointing/STIM_001.jpg
1860.932	0.931	correct	pointing	Trial3	pointing/STIM_002.jpg
1865.512	0.833	incorrect	pointing	Trial3	pointing/STIM_002.jpg
1869.506	0.947	correct	pointing	Trial3	pointing/STIM_002.jpg
1873.41	1.103	correct	pointing	Trial3	pointing/STIM_002.jpg
1878.573	1.22	correct	pointing	Trial3	pointing/STIM_002.jpg
1882.463	1.248	correct	pointing	Trial3	pointing/STIM_002.jpg
1885.911	1.144	correct	pointing	Trial3	pointing/STIM_003.jpg
1889.268	0.775	correct	pointing	Trial3	pointing/STIM_003.jpg
1893.324	1.042	correct	pointing	Trial3	pointing/STIM_003.jpg
1898.269	1.017	correct	pointing	Trial3	pointing/STIM_003.jpg
1901.754	1.048	correct	pointing	Trial3	pointing/STIM_003.jpg
1905.799	0.815	correct	pointing	Trial3	pointing/STIM_003.jpg
1909.006	0.734	correct	pointing	Trial3	pointing/STIM_004.jpg
1911.996	1.013	correct	pointing	Trial3	pointing/STIM_004.jpg
1915.861	1.205	correct	pointing	Trial3	pointing/STIM_004.jpg
1920.251	0.939	correct	pointing	Trial3	pointing/STIM_004.jpg
1925.064	0.855	correct	pointing	Trial3	pointing/STIM_004.jpg
1929.621	1.028	correct	pointing	Trial3	pointing/STIM_004.jpg
1933.809	1.012	correct	pointing	Trial3	pointing/STIM_005.jpg
1938.765	1.054	correct	pointing	Trial3	pointing/STIM_005.jpg
1942.298	1.098	correct	pointing	Trial3	pointing/STIM_005.jpg
1947.329	0.837	correct	pointing	Trial3	pointing/STIM_005.jpg
1950.445	0.791	correct	pointing	Trial3	pointing/STIM_005.jpg
1953.595	1.198	correct	pointing	Trial3	pointing/STIM_005.jpg
1957.987	0.807	correct	pointing	Trial3	pointing/STIM_006.jpg
1961.459	1.102	incorrect	pointing	Trial3	pointing/STIM_006.jpg
1965.466	0.746	correct	pointing	Trial3	pointing/STIM_006.jpg
1969.676	0.843	correct	pointing	Trial3	pointing/STIM_006.jpg
1974.088	1.352	correct	pointing	Trial3	pointing/STIM_006.jpg
1978.748	0.932	correct	pointing	Trial3	pointing/STIM_006.jpg
1983.442	1.141	correct	pointing	Trial3	pointing/STIM_007.jpg
1988.005	1.169	correct	pointing	Trial3	pointing/STIM_007.jpg
1992.631	0.938	incorrect	pointing	Trial3	pointing/STIM_007.jpg
1997.199	1.114	incorrect	pointing	Trial3	pointing/STIM_007.jpg
2000.546	1.162	correct	pointing	Trial3	pointing/STIM_007.jpg
2004.686	0.968	correct	pointing	Trial3	pointing/STIM_007.jpg
2008.115	0.758	correct	pointing	Trial3	pointing/STIM_008.jpg
2012.424	1.134	correct	pointing	Trial3	pointing/STIM_008.jpg
2015.706	1.12	incorrect	pointing	Trial3	pointing/STIM_008.jpg
2020.797	0.788	correct	pointing	Trial3	pointing/STIM_008.jpg
2024.157	1.282	correct	pointing	Trial3	pointing/STIM_008.jpg
2028.23	1.308	correct	pointing	Trial3	pointing/STIM_008.jpg
2031.852	0.829	correct	pointing	Trial3	pointing/STIM_009.jpg
2035.183	0.748	correct	pointing	Trial3	pointing/STIM_009.jpg
2038.109	0.988	correct	pointing	Trial3	pointing/STIM_009.jpg
2042.967	0.741	correct	pointing	Trial3	pointing/STIM_009.jpg
2045.813	1.356	correct	pointing	Trial3	pointing/STIM_009.jpg
2051.038	0.798	correct	pointing	Trial3	pointing/STIM_009.jpg
2055.754	1.182	correct	pointing	Trial3	pointing/STIM_010.jpg
2059.117	1.067	correct	pointing	Trial3	pointing/STIM_010.jpg
2063.074	0.759	correct	pointing	Trial3	pointing/STIM_010.jpg
2066.731	0.729	correct	pointing	Trial3	pointing/STIM_010.jpg
2069.614	1.16	correct	pointing	Trial3	pointing/STIM_010.jpg
2073.96	0.757	correct	pointing	Trial3	pointing/STIM_010.jpg
2076.873	0.736	correct	pointing	Trial3	pointing/STIM_011.jpg
2081.457	1.182	correct	pointing	Trial3	pointing/STIM_011.jpg
2086.483	0.824	correct	pointing	Trial3	pointing/STIM_011.jpg
2090.611	0.936	correct	pointing	Trial3	pointing/STIM_011.jpg
2093.725	0.752	correct	pointing	Trial3	pointing/STIM_011.jpg
2097.919	0.996	correct	pointing	Trial3	pointing/STIM_011.jpg
