onset	duration	accuracy_binary	trial_type	learning_stage	stimulus
0.0	0.677	1	2back	Block1	2back/STIM_000.jpg
4.434	0.681	1	2back	Block1	2back/STIM_000.jpg
8.319	0.859	1	2back	Block1	2back/STIM_000.jpg
11.942	0.82	1	2back	Block1	2back/STIM_001.jpg
14.769	1.311	0	2back	Block1	2back/STIM_001.jpg
18.563	1.072	1	2back	Block1	2back/STIM_001.jpg
23.528	1.274	1	2back	Block1	2back/STIM_002.jpg
28.386	1.119	1	2back	Block1	2back/STIM_002.jpg
31.702	0.864	1	2back	Block1	2back/STIM_002.jpg
35.802	1.068	1	2back	Block1	2back/STIM_003.jpg
39.744	0.712	0	2back	Block1	2back/STIM_003.jpg
43.228	0.565	1	2back	Block1	2back/STIM_003.jpg
46.438	0.927	0	2back	Block1	2back/STIM_004.jpg
51.004	1.098	1	2back	Block1	2back/STIM_004.jpg
54.921	0.732	1	2back	Block1	2back/STIM_004.jpg
59.249	0.675	1	2back	Block1	2back/STIM_005.jpg
63.458	1.081	1	2back	Block1	2back/STIM_005.jpg
68.454	0.68	1	2back	Block1	2back/STIM_005.jpg
71.657	1.147	1	2back	Block1	2back/STIM_006.jpg
75.422	1.102	1	2back	Block1	2back/STIM_006.jpg
80.155	0.725	1	2back	Block1	2back/STIM_006.jpg
84.316	1.236	1	2back	Block1	2back/STIM_007.jpg
88.444	0.752	1	2back	Block1	2back/STIM_007.jpg
92.458	0.546	1	2back	Block1	2back/STIM_007.jpg
96.933	0.709	1	2back	Block1	2back/STIM_008.jpg
99.677	0.812	1	2back	Block1	2back/STIM_008.jpg
103.266	1.158	1	2back	Block1	2back/STIM_008.jpg
108.107	1.226	1	2back	Block1	2back/STIM_009.jpg
111.335	1.114	1	2back	Block1	2back/STIM_009.jpg
115.977	0.572	1	2back	Block1	2back/STIM_009.jpg
119.974	1.085	0	2back	Block1	2back/STIM_010.jpg
123.336	0.933	1	2back	Block1	2back/STIM_010.jpg
127.188	1.201	1	2back	Block1	2back/STIM_010.jpg
131.293	0.777	1	2back	Block1	2back/STIM_011.jpg
135.373	1.051	1	2back	Block1	2back/STIM_011.jpg
139.601	0.779	1	2back	Block1	2back/STIM_011.jpg
143.316	1.051	1	2back	Block1	2back/STIM_012.jpg
147.941	0.722	1	2back	Block1	2back/STIM_012.jpg
151.717	0.788	1	2back	Block1	2back/STIM_012.jpg
156.272	0.865	1	2back	Block1	2back/STIM_013.jpg
160.948	1.314	1	2back	Block1	2back/STIM_013.jpg
164.803	0.664	0	2back	Block1	2back/STIM_013.jpg
168.983	0.864	1	2back	Block1	2back/STIM_014.jpg
173.79	0.673	1	2back	Block1	2back/STIM_014.jpg
177.171	1.058	1	2back	Block1	2back/STIM_014.jpg
181.315	0.675	1	2back	Block1	2back/STIM_015.jpg
185.962	0.746	1	2back	Block1	2back/STIM_015.jpg
190.586	1.079	0	2back	Block1	2back/STIM_015.jpg
194.513	0.941	1	2back	Block1	2back/STIM_016.jpg
198.793	0.744	1	2back	Block1	2back/STIM_016.jpg
202.634	1.035	1	2back	Block1	2back/STIM_016.jpg
207.372	0.647	1	2back	Block1	2back/STIM_017.jpg
210.086	1.057	1	2back	Block1	2back/STIM_017.jpg
214.609	0.863	1	2back	Block1	2back/STIM_017.jpg
219.421	0.913	1	2back	Block1	2back/STIM_018.jpg
223.684	1.082	1	2back	Block1	2back/STIM_018.jpg
227.802	0.976	1	2back	Block1	2back/STIM_018.jpg
232.589	0.646	1	2back	Block1	2back/STIM_019.jpg
235.823	0.838	1	2back	Block1	2back/STIM_019.jpg
239.736	1.3	1	2back	Block1	2back/STIM_019.jpg
243.824	0.738	1	2back	Block1	2back/STIM_020.jpg
246.956	1.201	1	2back	Block1	2back/STIM_020.jpg
251.457	0.834	1	2back	Block1	2back/STIM_020.jpg
255.543	0.869	0	2back	Block1	2back/STIM_021.jpg
259.682	1.183	1	2back	Block1	2back/STIM_021.jpg
263.307	0.976	1	2back	Block1	2back/STIM_021.jpg
267.718	0.921	0	2back	Block1	2back/STIM_022.jpg
272.044	1.191	1	2back	Block1	2back/STIM_022.jpg
275.272	1.203	0	2back	Block1	2back/STIM_022.jpg
278.676	1.15	1	2back	Block1	2back/STIM_023.jpg
282.357	1.144	1	2back	Block1	2back/STIM_023.jpg
286.066	1.195	1	2back	Block1	2back/STIM_023.jpg
289.443	1.194	1	2back	Block1	2back/STIM_024.jpg
294.593	0.673	1	2back	Block1	2back/STIM_024.jpg
298.837	0.841	0	2back	Block1	2back/STIM_024.jpg
302.997	0.83	1	2back	Block1	2back/STIM_025.jpg
305.824	1.097	1	2back	Block1	2back/STIM_025.jpg
309.65	1.077	1	2back	Block1	2back/STIM_025.jpg
314.48	0.912	0	2back	Block1	2back/STIM_026.jpg
318.053	0.707	1	2back	Block1	2back/STIM_026.jpg
322.426	0.808	1	2back	Block1	2back/STIM_026.jpg
326.684	1.119	1	2back	Block1	2back/STIM_027.jpg
331.41	0.903	1	2back	Block1	2back/STIM_027.jpg
334.743	0.787	1	2back	Block1	2back/STIM_027.jpg
338.036	1.387	1	2back	Block1	2back/STIM_028.jpg
341.384	0.974	0	2back	Block1	2back/STIM_028.jpg
346.112	0.504	1	2back	Block1	2back/STIM_028.jpg
350.058	0.786	1	2back	Block1	2back/STIM_029.jpg
352.931	1.31	1	2back	Block1	2back/STIM_029.jpg
357.961	0.699	0	2back	Block1	2back/STIM_029.jpg
360.613	0.765	1	2back	Block1	2back/STIM_030.jpg
364.172	1.117	0	2back	Block1	2back/STIM_030.jpg
367.931	0.684	1	2back	Block1	2back/STIM_030.jpg
371.548	1.158	1	2back	Block1	2back/STIM_031.jpg
375.562	1.242	1	2back	Block1	2back/STIM_031.jpg
380.04	1.164	1	2back	Block1	2back/STIM_031.jpg
384.949	0.522	1	2back	Block1	2back/STIM_032.jpg
388.709	1.32	1	2back	Block1	2back/STIM_032.jpg
392.892	0.842	1	2back	Block1	2back/STIM_032.jpg
395.753	1.242	0	2back	Block1	2back/STIM_033.jpg
400.613	1.226	1	2back	Block1	2back/STIM_033.jpg
405.062	0.628	1	2back	Block1	2back/STIM_033.jpg
408.617	0.746	0	2back	Block1	2back/STIM_034.jpg
411.935	0.954	0	2back	Block1	2back/STIM_034.jpg
415.495	1.084	1	2back	Block1	2back/STIM_034.jpg
419.342	1.448	0	2back	Block1	2back/STIM_035.jpg
423.226	0.935	1	2back	Block1	2back/STIM_035.jpg
427.462	0.666	1	2back	Block1	2back/STIM_035.jpg
431.34	0.898	0	2back	Block1	2back/STIM_036.jpg
434.553	0.649	0	2back	Block1	2back/STIM_036.jpg
439.177	0.59	1	2back	Block1	2back/STIM_036.jpg
442.746	1.054	1	2back	Block1	2back/STIM_037.jpg
447.511	1.29	1	2back	Block1	2back/STIM_037.jpg
452.368	0.62	1	2back	Block1	2back/STIM_037.jpg
455.982	0.765	1	2back	Block1	2back/STIM_038.jpg
460.618	0.766	1	2back	Block1	2back/STIM_038.jpg
463.915	1.189	1	2back	Block1	2back/STIM_038.jpg
467.264	1.378	1	2back	Block1	2back/STIM_039.jpg
472.12	0.934	0	2back	Block1	2back/STIM_039.jpg
476.767	0.686	1	2back	Block1	2back/STIM_039.jpg
480.493	0.665	1	0back	Block1	0back/STIM_000.jpg
483.996	0.74	1	0back	Block1	0back/STIM_000.jpg
487.198	0.493	1	0back	Block1	0back/STIM_000.jpg
489.831	0.582	1	0back	Block1	0back/STIM_001.jpg
492.571	0.691	1	0back	Block1	0back/STIM_001.jpg
496.716	0.75	1	0back	Block1	0back/STIM_001.jpg
500.659	0.64	1	0back	Block1	0back/STIM_002.jpg
504.873	0.734	1	0back	Block1	0back/STIM_002.jpg
507.781	0.336	1	0back	Block1	0back/STIM_002.jpg
512.154	0.771	1	0back	Block1	0back/STIM_003.jpg
515.783	0.755	1	0back	Block1	0back/STIM_003.jpg
520.123	0.568	1	0back	Block1	0back/STIM_003.jpg
523.467	0.54	1	0back	Block1	0back/STIM_004.jpg
527.282	0.528	1	0back	Block1	0back/STIM_004.jpg
531.307	0.79	1	0back	Block1	0back/STIM_004.jpg
535.669	0.788	1	0back	Block1	0back/STIM_005.jpg
539.964	0.718	1	0back	Block1	0back/STIM_005.jpg
542.873	0.549	1	0back	Block1	0back/STIM_005.jpg
545.811	0.447	1	0back	Block1	0back/STIM_006.jpg
548.589	0.841	1	0back	Block1	0back/STIM_006.jpg
552.641	0.445	1	0back	Block1	0back/STIM_006.jpg
556.147	0.672	1	0back	Block1	0back/STIM_007.jpg
559.591	0.348	1	0back	Block1	0back/STIM_007.jpg
562.085	0.462	1	0back	Block1	0back/STIM_007.jpg
564.704	0.595	1	0back	Block1	0back/STIM_008.jpg
568.027	0.725	1	0back	Block1	0back/STIM_008.jpg
571.071	0.485	1	0back	Block1	0back/STIM_008.jpg
574.367	0.36	1	0back	Block1	0back/STIM_009.jpg
578.66	0.745	1	0back	Block1	0back/STIM_009.jpg
582.223	0.66	1	0back	Block1	0back/STIM_009.jpg
584.997	0.367	1	0back	Block1	0back/STIM_010.jpg
587.481	0.636	1	0back	Block1	0back/STIM_010.jpg
590.79	0.61	1	0back	Block1	0back/STIM_010.jpg
593.586	0.719	1	0back	Block1	0back/STIM_011.jpg
597.321	0.637	1	0back	Block1	0back/STIM_011.jpg
600.187	0.615	1	0back	Block1	0back/STIM_011.jpg
604.008	0.502	1	0back	Block1	0back/STIM_012.jpg
607.854	0.652	1	0back	Block1	0back/STIM_012.jpg
612.045	0.46	1	0back	Block1	0back/STIM_012.jpg
616.43	0.684	1	0back	Block1	0back/STIM_013.jpg
620.389	0.585	1	0back	Block1	0back/STIM_013.jpg
622.907	0.468	1	0back	Block1	0back/STIM_013.jpg
626.826	0.748	1	0back	Block1	0back/STIM_014.jpg
631.556	0.509	1	0back	Block1	0back/STIM_014.jpg
635.095	0.779	1	0back	Block1	0back/STIM_014.jpg
639.31	0.497	1	0back	Block1	0back/STIM_015.jpg
643.647	0.557	1	0back	Block1	0back/STIM_015.jpg
648.194	0.418	1	0back	Block1	0back/STIM_015.jpg
652.386	0.785	1	0back	Block1	0back/STIM_016.jpg
656.582	0.834	1	0back	Block1	0back/STIM_016.jpg
660.147	0.407	1	0back	Block1	0back/STIM_016.jpg
662.801	0.715	1	0back	Block1	0back/STIM_017.jpg
666.903	0.499	1	0back	Block1	0back/STIM_017.jpg
670.372	0.484	1	0back	Block1	0back/STIM_017.jpg
673.728	0.522	1	0back	Block1	0back/STIM_018.jpg
677.385	0.686	1	0back	Block1	0back/STIM_018.jpg
682.018	0.843	1	0back	Block1	0back/STIM_018.jpg
686.68	0.771	1	0back	Block1	0back/STIM_019.jpg
690.723	0.553	1	0back	Block1	0back/STIM_019.jpg
693.642	0.629	1	0back	Block1	0back/STIM_019.jpg
697.545	1.066	1	2back	Block2	2back/STIM_000.jpg
702.015	0.575	1	2back	Block2	2back/STIM_000.jpg
705.034	0.691	1	2back	Block2	2back/STIM_000.jpg
707.903	0.522	1	2back	Block2	2back/STIM_001.jpg
710.921	0.483	1	2back	Block2	2back/STIM_001.jpg
714.21	0.422	1	2back	Block2	2back/STIM_001.jpg
716.932	1.004	1	2back	Block2	2back/STIM_002.jpg
721.125	0.99	1	2back	Block2	2back/STIM_002.jpg
726.011	0.926	1	2back	Block2	2back/STIM_002.jpg
729.46	0.753	1	2back	Block2	2back/STIM_003.jpg
732.35	0.806	1	2back	Block2	2back/STIM_003.jpg
737.077	0.53	1	2back	Block2	2back/STIM_003.jpg
741.221	0.716	1	2back	Block2	2back/STIM_004.jpg
744.973	1.009	1	2back	Block2	2back/STIM_004.jpg
749.493	1.001	1	2back	Block2	2back/STIM_004.jpg
754.386	0.557	1	2back	Block2	2back/STIM_005.jpg
757.142	1.12	0	2back	Block2	2back/STIM_005.jpg
760.47	0.907	1	2back	Block2	2back/STIM_005.jpg
764.385	0.652	1	2back	Block2	2back/STIM_006.jpg
768.352	1.017	1	2back	Block2	2back/STIM_006.jpg
771.649	0.784	0	2back	Block2	2back/STIM_006.jpg
776.011	0.816	1	2back	Block2	2back/STIM_007.jpg
780.579	0.432	1	2back	Block2	2back/STIM_007.jpg
783.922	0.886	1	2back	Block2	2back/STIM_007.jpg
787.081	1.073	1	2back	Block2	2back/STIM_008.jpg
790.427	0.886	1	2back	Block2	2back/STIM_008.jpg
793.881	0.475	1	2back	Block2	2back/STIM_008.jpg
797.954	0.808	1	2back	Block2	2back/STIM_009.jpg
801.211	1.073	1	2back	Block2	2back/STIM_009.jpg
806.051	0.882	1	2back	Block2	2back/STIM_009.jpg
809.556	0.764	1	2back	Block2	2back/STIM_010.jpg
812.904	0.861	1	2back	Block2	2back/STIM_010.jpg
817.548	0.645	1	2back	Block2	2back/STIM_010.jpg
822.1	0.67	1	2back	Block2	2back/STIM_011.jpg
826.528	0.84	1	2back	Block2	2back/STIM_011.jpg
830.132	0.669	1	2back	Block2	2back/STIM_011.jpg
834.13	0.668	1	2back	Block2	2back/STIM_012.jpg
837.415	0.736	1	2back	Block2	2back/STIM_012.jpg
841.973	0.697	1	2back	Block2	2back/STIM_012.jpg
845.795	0.863	1	2back	Block2	2back/STIM_013.jpg
850.096	0.487	1	2back	Block2	2back/STIM_013.jpg
852.636	0.552	1	2back	Block2	2back/STIM_013.jpg
855.532	0.49	1	2back	Block2	2back/STIM_014.jpg
858.21	0.95	1	2back	Block2	2back/STIM_014.jpg
861.593	0.71	1	2back	Block2	2back/STIM_014.jpg
865.375	0.588	1	2back	Block2	2back/STIM_015.jpg
868.985	1.089	1	2back	Block2	2back/STIM_015.jpg
872.877	0.92	1	2back	Block2	2back/STIM_015.jpg
876.68	1.018	1	2back	Block2	2back/STIM_016.jpg
880.841	0.658	1	2back	Block2	2back/STIM_016.jpg
884.19	1.04	1	2back	Block2	2back/STIM_016.jpg
887.371	0.728	1	2back	Block2	2back/STIM_017.jpg
890.386	0.812	1	2back	Block2	2back/STIM_017.jpg
893.409	0.936	1	2back	Block2	2back/STIM_017.jpg
897.874	1.265	1	2back	Block2	2back/STIM_018.jpg
901.735	1.063	1	2back	Block2	2back/STIM_018.jpg
904.894	0.466	1	2back	Block2	2back/STIM_018.jpg
908.793	0.663	1	2back	Block2	2back/STIM_019.jpg
911.775	0.569	1	2back	Block2	2back/STIM_019.jpg
915.184	0.804	1	2back	Block2	2back/STIM_019.jpg
918.344	1.113	0	2back	Block2	2back/STIM_020.jpg
921.541	1.0	1	2back	Block2	2back/STIM_020.jpg
924.735	0.831	1	2back	Block2	2back/STIM_020.jpg
929.014	1.051	1	2back	Block2	2back/STIM_021.jpg
933.26	0.687	1	2back	Block2	2back/STIM_021.jpg
937.572	0.751	1	2back	Block2	2back/STIM_021.jpg
941.256	1.151	1	2back	Block2	2back/STIM_022.jpg
944.522	0.548	1	2back	Block2	2back/STIM_022.jpg
947.124	0.869	1	2back	Block2	2back/STIM_022.jpg
950.593	1.118	1	2back	Block2	2back/STIM_023.jpg
955.591	0.583	1	2back	Block2	2back/STIM_023.jpg
959.575	0.886	1	2back	Block2	2back/STIM_023.jpg
962.836	0.724	1	2back	Block2	2back/STIM_024.jpg
966.739	0.876	1	2back	Block2	2back/STIM_024.jpg
969.705	0.644	1	2back	Block2	2back/STIM_024.jpg
973.227	0.932	1	2back	Block2	2back/STIM_025.jpg
977.987	0.492	1	2back	Block2	2back/STIM_025.jpg
981.345	0.502	1	2back	Block2	2back/STIM_025.jpg
984.827	0.848	1	2back	Block2	2back/STIM_026.jpg
987.869	0.775	1	2back	Block2	2back/STIM_026.jpg
991.245	0.543	1	2back	Block2	2back/STIM_026.jpg
995.622	0.952	1	2back	Block2	2back/STIM_027.jpg
999.46	0.938	0	2back	Block2	2back/STIM_027.jpg
1004.278	0.413	1	2back	Block2	2back/STIM_027.jpg
1008.361	0.619	1	2back	Block2	2back/STIM_028.jpg
1011.755	0.505	1	2back	Block2	2back/STIM_028.jpg
1014.771	0.66	0	2back	Block2	2back/STIM_028.jpg
1019.136	0.753	1	2back	Block2	2back/STIM_029.jpg
1022.988	0.462	1	2back	Block2	2back/STIM_029.jpg
1026.265	0.861	1	2back	Block2	2back/STIM_029.jpg
1030.091	1.185	1	2back	Block2	2back/STIM_030.jpg
1034.074	0.818	1	2back	Block2	2back/STIM_030.jpg
1037.627	0.743	1	2back	Block2	2back/STIM_030.jpg
1041.262	0.818	1	2back	Block2	2back/STIM_031.jpg
1046.04	0.869	1	2back	Block2	2back/STIM_031.jpg
1049.642	0.659	1	2back	Block2	2back/STIM_031.jpg
1054.162	0.706	1	2back	Block2	2back/STIM_032.jpg
1057.114	0.784	1	2back	Block2	2back/STIM_032.jpg
1060.494	0.592	1	2back	Block2	2back/STIM_032.jpg
1064.377	1.208	1	2back	Block2	2back/STIM_033.jpg
1068.481	1.024	1	2back	Block2	2back/STIM_033.jpg
1072.795	0.41	1	2back	Block2	2back/STIM_033.jpg
1075.735	0.941	1	2back	Block2	2back/STIM_034.jpg
1079.704	0.678	1	2back	Block2	2back/STIM_034.jpg
1082.521	0.566	1	2back	Block2	2back/STIM_034.jpg
1086.998	0.968	0	2back	Block2	2back/STIM_035.jpg
1091.006	1.129	0	2back	Block2	2back/STIM_035.jpg
1095.421	0.644	1	2back	Block2	2back/STIM_035.jpg
1099.266	0.822	1	2back	Block2	2back/STIM_036.jpg
1102.188	0.513	1	2back	Block2	2back/STIM_036.jpg
1106.26	0.591	1	2back	Block2	2back/STIM_036.jpg
1110.491	1.107	0	2back	Block2	2back/STIM_037.jpg
1114.419	1.011	1	2back	Block2	2back/STIM_037.jpg
1117.701	0.682	1	2back	Block2	2back/STIM_037.jpg
1120.643	1.062	1	2back	Block2	2back/STIM_038.jpg
1124.803	1.064	1	2back	Block2	2back/STIM_038.jpg
1129.612	0.608	0	2back	Block2	2back/STIM_038.jpg
1132.425	0.546	1	2back	Block2	2back/STIM_039.jpg
1136.445	0.881	1	2back	Block2	2back/STIM_039.jpg
1140.939	0.656	1	2back	Block2	2back/STIM_039.jpg
1145.0	0.557	1	0back	Block2	0back/STIM_000.jpg
1147.704	0.695	1	0back	Block2	0back/STIM_000.jpg
1151.309	0.48	1	0back	Block2	0back/STIM_000.jpg
1155.627	0.484	1	0back	Block2	0back/STIM_001.jpg
1159.243	0.699	1	0back	Block2	0back/STIM_001.jpg
1163.848	0.655	1	0back	Block2	0back/STIM_001.jpg
1168.356	0.616	1	0back	Block2	0back/STIM_002.jpg
1172.41	0.58	1	0back	Block2	0back/STIM_002.jpg
1175.373	0.697	1	0back	Block2	0back/STIM_002.jpg
1178.842	0.702	1	0back	Block2	0back/STIM_003.jpg
1182.602	0.687	1	0back	Block2	0back/STIM_003.jpg
1187.179	0.834	1	0back	Block2	0back/STIM_003.jpg
1191.91	0.803	1	0back	Block2	0back/STIM_004.jpg
1195.882	0.507	1	0back	Block2	0back/STIM_004.jpg
1199.12	0.469	1	0back	Block2	0back/STIM_004.jpg
1202.237	0.466	1	0back	Block2	0back/STIM_005.jpg
1205.885	0.792	1	0back	Block2	0back/STIM_005.jpg
1209.815	0.554	1	0back	Block2	0back/STIM_005.jpg
1214.22	0.565	1	0back	Block2	0back/STIM_006.jpg
1217.988	0.76	1	0back	Block2	0back/STIM_006.jpg
1221.111	0.865	1	0back	Block2	0back/STIM_006.jpg
1225.024	0.64	1	0back	Block2	0back/STIM_007.jpg
1228.961	0.513	1	0back	Block2	0back/STIM_007.jpg
1232.105	0.713	1	0back	Block2	0back/STIM_007.jpg
1235.873	0.749	1	0back	Block2	0back/STIM_008.jpg
1239.039	0.609	1	0back	Block2	0back/STIM_008.jpg
1243.585	0.581	1	0back	Block2	0back/STIM_008.jpg
1246.169	0.793	1	0back	Block2	0back/STIM_009.jpg
1249.756	0.568	1	0back	Block2	0back/STIM_009.jpg
1253.527	0.424	1	0back	Block2	0back/STIM_009.jpg
1257.066	0.661	1	0back	Block2	0back/STIM_010.jpg
1260.535	0.545	1	0back	Block2	0back/STIM_010.jpg
1263.17	0.616	1	0back	Block2	0back/STIM_010.jpg
1267.627	0.459	1	0back	Block2	0back/STIM_011.jpg
1271.467	0.64	1	0back	Block2	0back/STIM_011.jpg
1275.978	0.367	1	0back	Block2	0back/STIM_011.jpg
1279.522	0.833	1	0back	Block2	0back/STIM_012.jpg
1284.135	0.4	1	0back	Block2	0back/STIM_012.jpg
1287.135	0.44	1	0back	Block2	0back/STIM_012.jpg
1291.368	0.542	0	0back	Block2	0back/STIM_013.jpg
1295.157	0.585	1	0back	Block2	0back/STIM_013.jpg
1298.273	0.506	1	0back	Block2	0back/STIM_013.jpg
1302.005	0.42	1	0back	Block2	0back/STIM_014.jpg
1304.886	0.663	0	0back	Block2	0back/STIM_014.jpg
1307.755	0.667	1	0back	Block2	0back/STIM_014.jpg
1310.684	0.643	1	0back	Block2	0back/STIM_015.jpg
1314.988	0.763	1	0back	Block2	0back/STIM_015.jpg
1319.023	0.566	1	0back	Block2	0back/STIM_015.jpg
1321.966	0.795	1	0back	Block2	0back/STIM_016.jpg
1325.321	0.721	1	0back	Block2	0back/STIM_016.jpg
1329.155	0.372	1	0back	Block2	0back/STIM_016.jpg
1333.201	0.699	1	0back	Block2	0back/STIM_017.jpg
1336.411	0.68	0	0back	Block2	0back/STIM_017.jpg
1341.108	0.599	1	0back	Block2	0back/STIM_017.jpg
1345.305	0.486	1	0back	Block2	0back/STIM_018.jpg
1349.062	0.376	1	0back	Block2	0back/STIM_018.jpg
1352.586	0.762	1	0back	Block2	0back/STIM_018.jpg
1356.433	0.681	1	0back	Block2	0back/STIM_019.jpg
1360.579	0.777	1	0back	Block2	0back/STIM_019.jpg
1363.795	0.754	1	0back	Block2	0back/STIM_019.jpg
1367.072	0.636	1	2back	Block3	2back/STIM_000.jpg
1370.528	0.688	1	2back	Block3	2back/STIM_000.jpg
1373.322	0.696	1	2back	Block3	2back/STIM_000.jpg
1377.152	0.565	1	2back	Block3	2back/STIM_001.jpg
1381.16	0.976	1	2back	Block3	2back/STIM_001.jpg
1384.897	1.049	1	2back	Block3	2back/STIM_001.jpg
1388.964	0.742	1	2back	Block3	2back/STIM_002.jpg
1391.795	0.975	1	2back	Block3	2back/STIM_002.jpg
1395.849	0.436	1	2back	Block3	2back/STIM_002.jpg
1398.664	0.839	0	2back	Block3	2back/STIM_003.jpg
1402.161	0.97	1	2back	Block3	2back/STIM_003.jpg
1406.225	0.699	1	2back	Block3	2back/STIM_003.jpg
1409.79	0.828	1	2back	Block3	2back/STIM_004.jpg
1412.933	0.518	1	2back	Block3	2back/STIM_004.jpg
1416.226	0.848	1	2back	Block3	2back/STIM_004.jpg
1419.592	0.928	1	2back	Block3	2back/STIM_005.jpg
1423.919	0.851	1	2back	Block3	2back/STIM_005.jpg
1427.93	0.624	1	2back	Block3	2back/STIM_005.jpg
1430.515	0.364	1	2back	Block3	2back/STIM_006.jpg
1433.526	0.535	1	2back	Block3	2back/STIM_006.jpg
1437.318	0.658	1	2back	Block3	2back/STIM_006.jpg
1441.72	0.767	1	2back	Block3	2back/STIM_007.jpg
1446.418	0.528	1	2back	Block3	2back/STIM_007.jpg
1450.114	0.915	1	2back	Block3	2back/STIM_007.jpg
1454.399	0.353	1	2back	Block3	2back/STIM_008.jpg
1457.025	0.459	1	2back	Block3	2back/STIM_008.jpg
1459.498	0.707	1	2back	Block3	2back/STIM_008.jpg
1462.663	1.008	1	2back	Block3	2back/STIM_009.jpg
1466.344	0.612	0	2back	Block3	2back/STIM_009.jpg
1469.445	0.763	1	2back	Block3	2back/STIM_009.jpg
1472.791	0.809	1	2back	Block3	2back/STIM_010.jpg
1476.049	0.806	1	2back	Block3	2back/STIM_010.jpg
1479.142	0.534	1	2back	Block3	2back/STIM_010.jpg
1483.369	0.854	1	2back	Block3	2back/STIM_011.jpg
1487.758	0.47	1	2back	Block3	2back/STIM_011.jpg
1491.271	0.778	1	2back	Block3	2back/STIM_011.jpg
1494.0	0.68	1	2back	Block3	2back/STIM_012.jpg
1498.156	0.86	1	2back	Block3	2back/STIM_012.jpg
1502.953	0.641	1	2back	Block3	2back/STIM_012.jpg
1506.195	0.588	1	2back	Block3	2back/STIM_013.jpg
1510.109	0.456	1	2back	Block3	2back/STIM_013.jpg
1512.681	0.358	1	2back	Block3	2back/STIM_013.jpg
1517.0	0.377	1	2back	Block3	2back/STIM_014.jpg
1519.858	0.89	1	2back	Block3	2back/STIM_014.jpg
1523.678	0.94	1	2back	Block3	2back/STIM_014.jpg
1526.971	0.75	1	2back	Block3	2back/STIM_015.jpg
1531.213	0.433	1	2back	Block3	2back/STIM_015.jpg
1535.017	0.94	1	2back	Block3	2back/STIM_015.jpg
1539.328	0.501	1	2back	Block3	2back/STIM_016.jpg
1542.053	0.827	1	2back	Block3	2back/STIM_016.jpg
1546.376	0.448	1	2back	Block3	2back/STIM_016.jpg
1548.983	0.913	1	2back	Block3	2back/STIM_017.jpg
1552.237	0.523	1	2back	Block3	2back/STIM_017.jpg
1556.552	0.933	1	2back	Block3	2back/STIM_017.jpg
1561.066	0.35	1	2back	Block3	2back/STIM_018.jpg
1563.566	0.57	1	2back	Block3	2back/STIM_018.jpg
1566.322	0.572	1	2back	Block3	2back/STIM_018.jpg
1570.765	0.457	1	2back	Block3	2back/STIM_019.jpg
1574.146	0.641	1	2back	Block3	2back/STIM_019.jpg
1578.326	0.887	1	2back	Block3	2back/STIM_019.jpg
1582.424	1.01	1	2back	Block3	2back/STIM_020.jpg
1585.697	0.432	1	2back	Block3	2back/STIM_020.jpg
1589.652	0.406	1	2back	Block3	2back/STIM_020.jpg
1592.906	0.723	1	2back	Block3	2back/STIM_021.jpg
1595.943	0.944	1	2back	Block3	2back/STIM_021.jpg
1599.702	0.595	1	2back	Block3	2back/STIM_021.jpg
1602.321	0.436	1	2back	Block3	2back/STIM_022.jpg
1605.656	0.558	1	2back	Block3	2back/STIM_022.jpg
1608.743	0.511	1	2back	Block3	2back/STIM_022.jpg
1613.146	0.601	1	2back	Block3	2back/STIM_023.jpg
1617.079	0.658	1	2back	Block3	2back/STIM_023.jpg
1619.845	0.645	1	2back	Block3	2back/STIM_023.jpg
1623.447	0.414	1	2back	Block3	2back/STIM_024.jpg
1627.434	0.847	1	2back	Block3	2back/STIM_024.jpg
1630.454	0.869	1	2back	Block3	2back/STIM_024.jpg
1634.798	0.362	1	2back	Block3	2back/STIM_025.jpg
1639.147	0.78	1	2back	Block3	2back/STIM_025.jpg
1643.881	0.842	1	2back	Block3	2back/STIM_025.jpg
1648.408	0.853	1	2back	Block3	2back/STIM_026.jpg
1652.591	0.739	1	2back	Block3	2back/STIM_026.jpg
1657.319	0.723	1	2back	Block3	2back/STIM_026.jpg
1660.644	0.782	1	2back	Block3	2back/STIM_027.jpg
1664.76	0.611	1	2back	Block3	2back/STIM_027.jpg
1667.428	0.964	1	2back	Block3	2back/STIM_027.jpg
1671.214	0.927	1	2back	Block3	2back/STIM_028.jpg
1674.97	0.95	1	2back	Block3	2back/STIM_028.jpg
1679.76	0.961	1	2back	Block3	2back/STIM_028.jpg
1683.722	0.844	1	2back	Block3	2back/STIM_029.jpg
1687.137	0.639	1	2back	Block3	2back/STIM_029.jpg
1691.18	0.591	1	2back	Block3	2back/STIM_029.jpg
1695.64	0.758	1	2back	Block3	2back/STIM_030.jpg
1700.04	0.565	1	2back	Block3	2back/STIM_030.jpg
1704.116	0.71	1	2back	Block3	2back/STIM_030.jpg
1708.384	0.514	1	2back	Block3	2back/STIM_031.jpg
1712.269	0.47	1	2back	Block3	2back/STIM_031.jpg
1715.708	0.442	1	2back	Block3	2back/STIM_031.jpg
1718.915	0.94	1	2back	Block3	2back/STIM_032.jpg
1722.505	0.828	1	2back	Block3	2back/STIM_032.jpg
1725.985	0.452	1	2back	Block3	2back/STIM_032.jpg
1730.44	0.426	1	2back	Block3	2back/STIM_033.jpg
1733.605	0.863	1	2back	Block3	2back/STIM_033.jpg
1737.575	0.473	1	2back	Block3	2back/STIM_033.jpg
1740.928	0.917	1	2back	Block3	2back/STIM_034.jpg
1745.304	0.593	1	2back	Block3	2back/STIM_034.jpg
1747.944	0.762	1	2back	Block3	2back/STIM_034.jpg
1751.125	0.544	1	2back	Block3	2back/STIM_035.jpg
1755.585	0.598	1	2back	Block3	2back/STIM_035.jpg
1758.608	0.709	1	2back	Block3	2back/STIM_035.jpg
1762.254	0.605	1	2back	Block3	2back/STIM_036.jpg
1765.325	0.699	1	2back	Block3	2back/STIM_036.jpg
1769.459	0.973	1	2back	Block3	2back/STIM_036.jpg
1773.59	0.97	0	2back	Block3	2back/STIM_037.jpg
1777.601	0.865	1	2back	Block3	2back/STIM_037.jpg
1781.662	0.507	1	2back	Block3	2back/STIM_037.jpg
1784.49	0.933	1	2back	Block3	2back/STIM_038.jpg
1789.167	1.04	1	2back	Block3	2back/STIM_038.jpg
1792.285	0.914	1	2back	Block3	2back/STIM_038.jpg
1795.507	0.515	1	2back	Block3	2back/STIM_039.jpg
1799.051	0.823	1	2back	Block3	2back/STIM_039.jpg
1803.829	0.58	0	2back	Block3	2back/STIM_039.jpg
1807.939	0.769	1	0back	Block3	0back/STIM_000.jpg
1811.636	0.57	1	0back	Block3	0back/STIM_000.jpg
1814.319	0.754	1	0back	Block3	0back/STIM_000.jpg
1818.276	0.44	1	0back	Block3	0back/STIM_001.jpg
1821.1	0.752	1	0back	Block3	0back/STIM_001.jpg
1825.32	0.465	1	0back	Block3	0back/STIM_001.jpg
1828.811	0.681	1	0back	Block3	0back/STIM_002.jpg
1833.149	0.577	1	0back	Block3	0back/STIM_002.jpg
1836.51	0.606	1	0back	Block3	0back/STIM_002.jpg
1839.711	0.675	1	0back	Block3	0back/STIM_003.jpg
1842.731	0.526	1	0back	Block3	0back/STIM_003.jpg
1846.458	0.551	1	0back	Block3	0back/STIM_003.jpg
1849.07	0.547	1	0back	Block3	0back/STIM_004.jpg
1853.099	0.735	1	0back	Block3	0back/STIM_004.jpg
1857.843	0.584	1	0back	Block3	0back/STIM_004.jpg
1861.396	0.692	1	0back	Block3	0back/STIM_005.jpg
1865.208	0.662	1	0back	Block3	0back/STIM_005.jpg
1868.636	0.729	1	0back	Block3	0back/STIM_005.jpg
1872.214	0.371	1	0back	Block3	0back/STIM_006.jpg
1876.558	0.405	1	0back	Block3	0back/STIM_006.jpg
1880.842	0.747	1	0back	Block3	0back/STIM_006.jpg
1883.737	0.544	1	0back	Block3	0back/STIM_007.jpg
1888.089	0.582	1	0back	Block3	0back/STIM_007.jpg
1891.486	0.853	1	0back	Block3	0back/STIM_007.jpg
1894.836	0.617	1	0back	Block3	0back/STIM_008.jpg
1898.055	0.495	1	0back	Block3	0back/STIM_008.jpg
1901.442	0.653	1	0back	Block3	0back/STIM_008.jpg
1906.0	0.668	1	0back	Block3	0back/STIM_009.jpg
1910.291	0.435	1	0back	Block3	0back/STIM_009.jpg
1914.21	0.52	1	0back	Block3	0back/STIM_009.jpg
1918.424	0.354	1	0back	Block3	0back/STIM_010.jpg
1921.117	0.47	1	0back	Block3	0back/STIM_010.jpg
1925.371	0.628	1	0back	Block3	0back/STIM_010.jpg
1929.443	0.422	1	0back	Block3	0back/STIM_011.jpg
1932.681	0.777	1	0back	Block3	0back/STIM_011.jpg
1935.53	0.623	1	0back	Block3	0back/STIM_011.jpg
1939.289	0.437	1	0back	Block3	0back/STIM_012.jpg
1943.608	0.577	1	0back	Block3	0back/STIM_012.jpg
1946.722	0.46	1	0back	Block3	0back/STIM_012.jpg
1949.708	0.756	1	0back	Block3	0back/STIM_013.jpg
1953.096	0.714	0	0back	Block3	0back/STIM_013.jpg
1956.121	0.631	1	0back	Block3	0back/STIM_013.jpg
1960.495	0.569	1	0back	Block3	0back/STIM_014.jpg
1964.297	0.696	1	0back	Block3	0back/STIM_014.jpg
1968.834	0.551	1	0back	Block3	0back/STIM_014.jpg
1972.776	0.752	1	0back	Block3	0back/STIM_015.jpg
1975.773	0.812	0	0back	Block3	0back/STIM_015.jpg
1979.149	0.511	1	0back	Block3	0back/STIM_015.jpg
1983.005	0.816	1	0back	Block3	0back/STIM_016.jpg
1987.672	0.644	1	0back	Block3	0back/STIM_016.jpg
1991.99	0.622	1	0back	Block3	0back/STIM_016.jpg
1994.9	0.523	1	0back	Block3	0back/STIM_017.jpg
1998.7	0.399	1	0back	Block3	0back/STIM_017.jpg
2002.539	0.701	1	0back	Block3	0back/STIM_017.jpg
2006.611	0.864	1	0back	Block3	0back/STIM_018.jpg
2010.214	0.576	1	0back	Block3	0back/STIM_018.jpg
2014.296	0.515	1	0back	Block3	0back/STIM_018.jpg
2017.131	0.78	1	0back	Block3	0back/STIM_019.jpg
2020.729	0.788	1	0back	Block3	0back/STIM_019.jpg
2024.762	0.392	1	0back	Block3	0back/STIM_019.jpg
2028.52	0.881	1	2back	Block4	2back/STIM_000.jpg
2031.641	0.437	1	2back	Block4	2back/STIM_000.jpg
2035.309	0.539	1	2back	Block4	2back/STIM_000.jpg
2038.843	0.397	1	2back	Block4	2back/STIM_001.jpg
2041.639	0.355	1	2back	Block4	2back/STIM_001.jpg
2044.136	0.811	1	2back	Block4	2back/STIM_001.jpg
2047.637	0.781	1	2back	Block4	2back/STIM_002.jpg
2050.838	0.47	1	2back	Block4	2back/STIM_002.jpg
2053.397	0.782	1	2back	Block4	2back/STIM_002.jpg
2056.282	0.55	1	2back	Block4	2back/STIM_003.jpg
2060.484	0.654	1	2back	Block4	2back/STIM_003.jpg
2063.817	0.562	1	2back	Block4	2back/STIM_003.jpg
2067.554	0.912	1	2back	Block4	2back/STIM_004.jpg
2072.159	0.899	1	2back	Block4	2back/STIM_004.jpg
2076.112	0.603	1	2back	Block4	2back/STIM_004.jpg
2079.719	0.588	1	2back	Block4	2back/STIM_005.jpg
2083.317	0.685	1	2back	Block4	2back/STIM_005.jpg
2087.474	0.558	1	2back	Block4	2back/STIM_005.jpg
2091.639	0.932	1	2back	Block4	2back/STIM_006.jpg
2095.906	0.659	1	2back	Block4	2back/STIM_006.jpg
2099.072	0.828	1	2back	Block4	2back/STIM_006.jpg
2103.635	0.378	1	2back	Block4	2back/STIM_007.jpg
2107.153	0.532	1	2back	Block4	2back/STIM_007.jpg
2111.399	0.572	1	2back	Block4	2back/STIM_007.jpg
2115.69	0.611	1	2back	Block4	2back/STIM_008.jpg
2119.713	0.99	1	2back	Block4	2back/STIM_008.jpg
2123.994	0.818	1	2back	Block4	2back/STIM_008.jpg
2127.415	0.794	1	2back	Block4	2back/STIM_009.jpg
2131.038	0.927	1	2back	Block4	2back/STIM_009.jpg
2134.593	0.777	1	2back	Block4	2back/STIM_009.jpg
2138.093	0.752	1	2back	Block4	2back/STIM_010.jpg
2142.241	0.824	1	2back	Block4	2back/STIM_010.jpg
2145.449	0.585	1	2back	Block4	2back/STIM_010.jpg
2149.358	0.55	1	2back	Block4	2back/STIM_011.jpg
2152.319	0.749	1	2back	Block4	2back/STIM_011.jpg
2156.324	0.754	1	2back	Block4	2back/STIM_011.jpg
2159.446	0.774	1	2back	Block4	2back/STIM_012.jpg
2162.578	0.851	1	2back	Block4	2back/STIM_012.jpg
2166.835	0.977	1	2back	Block4	2back/STIM_012.jpg
2170.197	0.621	1	2back	Block4	2back/STIM_013.jpg
2173.197	0.83	1	2back	Block4	2back/STIM_013.jpg
2177.872	0.826	1	2back	Block4	2back/STIM_013.jpg
2182.475	0.926	1	2back	Block4	2back/STIM_014.jpg
2186.399	0.586	1	2back	Block4	2back/STIM_014.jpg
2189.253	0.93	1	2back	Block4	2back/STIM_014.jpg
2194.042	0.724	1	2back	Block4	2back/STIM_015.jpg
2197.549	0.886	1	2back	Block4	2back/STIM_015.jpg
2202.319	0.864	1	2back	Block4	2back/STIM_015.jpg
2207.062	0.484	1	2back	Block4	2back/STIM_016.jpg
2210.289	0.502	1	2back	Block4	2back/STIM_016.jpg
2214.124	0.586	1	2back	Block4	2back/STIM_016.jpg
2217.976	0.613	1	2back	Block4	2back/STIM_017.jpg
2221.341	0.559	1	2back	Block4	2back/STIM_017.jpg
2224.64	0.509	1	2back	Block4	2back/STIM_017.jpg
2227.385	0.488	1	2back	Block4	2back/STIM_018.jpg
2230.708	0.459	1	2back	Block4	2back/STIM_018.jpg
2233.38	0.625	1	2back	Block4	2back/STIM_018.jpg
2237.163	0.686	1	2back	Block4	2back/STIM_019.jpg
2240.068	0.45	1	2back	Block4	2back/STIM_019.jpg
2243.548	0.526	1	2back	Block4	2back/STIM_019.jpg
2246.973	0.409	1	2back	Block4	2back/STIM_020.jpg
2250.997	0.668	1	2back	Block4	2back/STIM_020.jpg
2254.668	0.641	1	2back	Block4	2back/STIM_020.jpg
2258.424	0.79	1	2back	Block4	2back/STIM_021.jpg
2261.848	0.754	1	2back	Block4	2back/STIM_021.jpg
2266.397	0.658	1	2back	Block4	2back/STIM_021.jpg
2270.407	0.811	1	2back	Block4	2back/STIM_022.jpg
2273.817	0.529	1	2back	Block4	2back/STIM_022.jpg
2277.066	0.651	1	2back	Block4	2back/STIM_022.jpg
2279.81	0.796	1	2back	Block4	2back/STIM_023.jpg
2283.587	0.625	1	2back	Block4	2back/STIM_023.jpg
2286.571	0.665	1	2back	Block4	2back/STIM_023.jpg
2289.983	0.879	1	2back	Block4	2back/STIM_024.jpg
2293.234	0.73	1	2back	Block4	2back/STIM_024.jpg
2297.501	0.694	1	2back	Block4	2back/STIM_024.jpg
2301.663	0.971	1	2back	Block4	2back/STIM_025.jpg
2305.335	0.777	1	2back	Block4	2back/STIM_025.jpg
2309.9	0.764	1	2back	Block4	2back/STIM_025.jpg
2313.209	0.559	1	2back	Block4	2back/STIM_026.jpg
2315.951	0.867	1	2back	Block4	2back/STIM_026.jpg
2318.864	0.592	1	2back	Block4	2back/STIM_026.jpg
2322.47	0.406	1	2back	Block4	2back/STIM_027.jpg
2325.203	0.975	1	2back	Block4	2back/STIM_027.jpg
2328.871	0.507	1	2back	Block4	2back/STIM_027.jpg
2331.472	0.366	1	2back	Block4	2back/STIM_028.jpg
2334.458	0.717	1	2back	Block4	2back/STIM_028.jpg
2338.282	0.571	1	2back	Block4	2back/STIM_028.jpg
2341.399	0.505	1	2back	Block4	2back/STIM_029.jpg
2344.238	0.855	1	2back	Block4	2back/STIM_029.jpg
2347.624	0.832	1	2back	Block4	2back/STIM_029.jpg
2351.249	0.546	1	2back	Block4	2back/STIM_030.jpg
2355.698	0.606	1	2back	Block4	2back/STIM_030.jpg
2359.38	0.93	1	2back	Block4	2back/STIM_030.jpg
2363.474	0.508	1	2back	Block4	2back/STIM_031.jpg
2367.991	0.479	1	2back	Block4	2back/STIM_031.jpg
2372.451	0.54	1	2back	Block4	2back/STIM_031.jpg
2375.783	0.5	1	2back	Block4	2back/STIM_032.jpg
2378.341	0.542	1	2back	Block4	2back/STIM_032.jpg
2382.032	0.659	1	2back	Block4	2back/STIM_032.jpg
2385.108	0.476	1	2back	Block4	2back/STIM_033.jpg
2389.579	0.899	1	2back	Block4	2back/STIM_033.jpg
2393.741	0.954	1	2back	Block4	2back/STIM_033.jpg
2396.757	0.969	1	2back	Block4	2back/STIM_034.jpg
2399.922	0.738	1	2back	Block4	2back/STIM_034.jpg
2402.726	0.947	1	2back	Block4	2back/STIM_034.jpg
2406.259	0.385	1	2back	Block4	2back/STIM_035.jpg
2410.67	0.861	1	2back	Block4	2back/STIM_035.jpg
2415.324	0.6	1	2back	Block4	2back/STIM_035.jpg
2419.586	0.888	1	2back	Block4	2back/STIM_036.jpg
2422.436	0.703	1	2back	Block4	2back/STIM_036.jpg
2425.228	0.869	1	2back	Block4	2back/STIM_036.jpg
2429.593	0.948	1	2back	Block4	2back/STIM_037.jpg
2434.134	0.784	1	2back	Block4	2back/STIM_037.jpg
2438.421	0.881	1	2back	Block4	2back/STIM_037.jpg
2442.882	0.541	1	2back	Block4	2back/STIM_038.jpg
2446.646	0.699	1	2back	Block4	2back/STIM_038.jpg
2449.704	0.61	1	2back	Block4	2back/STIM_038.jpg
2452.818	0.475	1	2back	Block4	2back/STIM_039.jpg
2455.484	0.505	1	2back	Block4	2back/STIM_039.jpg
2458.241	0.689	1	2back	Block4	2back/STIM_039.jpg
2462.25	0.631	1	0back	Block4	0back/STIM_000.jpg
2465.361	0.626	1	0back	Block4	0back/STIM_000.jpg
2469.0	0.645	1	0back	Block4	0back/STIM_000.jpg
2472.436	0.619	1	0back	Block4	0back/STIM_001.jpg
2475.424	0.58	1	0back	Block4	0back/STIM_001.jpg
2479.434	0.832	1	0back	Block4	0back/STIM_001.jpg
2484.209	0.811	1	0back	Block4	0back/STIM_002.jpg
2487.287	0.61	1	0back	Block4	0back/STIM_002.jpg
2491.718	0.775	1	0back	Block4	0back/STIM_002.jpg
2495.965	0.591	1	0back	Block4	0back/STIM_003.jpg
2498.72	0.437	1	0back	Block4	0back/STIM_003.jpg
2501.421	0.678	1	0back	Block4	0back/STIM_003.jpg
2504.526	0.801	1	0back	Block4	0back/STIM_004.jpg
2509.01	0.705	1	0back	Block4	0back/STIM_004.jpg
2512.757	0.82	1	0back	Block4	0back/STIM_004.jpg
2517.492	0.415	1	0back	Block4	0back/STIM_005.jpg
2521.158	0.43	1	0back	Block4	0back/STIM_005.jpg
2523.661	0.649	1	0back	Block4	0back/STIM_005.jpg
2527.638	0.76	1	0back	Block4	0back/STIM_006.jpg
2531.776	0.659	1	0back	Block4	0back/STIM_006.jpg
2536.125	0.425	1	0back	Block4	0back/STIM_006.jpg
2539.448	0.527	1	0back	Block4	0back/STIM_007.jpg
2543.842	0.674	1	0back	Block4	0back/STIM_007.jpg
2547.145	0.513	1	0back	Block4	0back/STIM_007.jpg
2550.317	0.578	1	0back	Block4	0back/STIM_008.jpg
2553.4	0.477	1	0back	Block4	0back/STIM_008.jpg
2557.075	0.5	1	0back	Block4	0back/STIM_008.jpg
2560.783	0.794	1	0back	Block4	0back/STIM_009.jpg
2564.133	0.689	1	0back	Block4	0back/STIM_009.jpg
2568.665	0.378	1	0back	Block4	0back/STIM_009.jpg
2572.214	0.66	1	0back	Block4	0back/STIM_010.jpg
2576.299	0.676	1	0back	Block4	0back/STIM_010.jpg
2579.681	0.376	1	0back	Block4	0back/STIM_010.jpg
2584.055	0.738	1	0back	Block4	0back/STIM_011.jpg
2587.859	0.723	1	0back	Block4	0back/STIM_011.jpg
2590.805	0.313	1	0back	Block4	0back/STIM_011.jpg
2595.078	0.574	1	0back	Block4	0back/STIM_012.jpg
2598.215	0.789	1	0back	Block4	0back/STIM_012.jpg
2602.83	0.633	1	0back	Block4	0back/STIM_012.jpg
2605.677	0.688	1	0back	Block4	0back/STIM_013.jpg
2608.881	0.644	1	0back	Block4	0back/STIM_013.jpg
2611.979	0.42	1	0back	Block4	0back/STIM_013.jpg
2615.693	0.496	1	0back	Block4	0back/STIM_014.jpg
2618.91	0.492	1	0back	Block4	0back/STIM_014.jpg
2621.427	0.615	1	0back	Block4	0back/STIM_014.jpg
2624.997	0.543	1	0back	Block4	0back/STIM_015.jpg
2627.518	0.541	1	0back	Block4	0back/STIM_015.jpg
2631.714	0.6	1	0back	Block4	0back/STIM_015.jpg
2634.898	0.507	1	0back	Block4	0back/STIM_016.jpg
2637.963	0.497	1	0back	Block4	0back/STIM_016.jpg
2641.952	0.709	1	0back	Block4	0back/STIM_016.jpg
2646.383	0.583	1	0back	Block4	0back/STIM_017.jpg
2649.899	0.435	0	0back	Block4	0back/STIM_017.jpg
2654.362	0.528	0	0back	Block4	0back/STIM_017.jpg
2658.857	0.364	1	0back	Block4	0back/STIM_018.jpg
2661.351	0.622	1	0back	Block4	0back/STIM_018.jpg
2664.542	0.5	1	0back	Block4	0back/STIM_018.jpg
2667.394	0.776	1	0back	Block4	0back/STIM_019.jpg
2671.74	0.689	1	0back	Block4	0back/STIM_019.jpg
2675.445	0.636	1	0back	Block4	0back/STIM_019.jpg
