onset	duration	accuracy_binary	trial_type	learning_stage	stimulus
0.0	1.378	1	generate	Run1	generate/STIM_000.jpg
5.234	2.83	1	generate	Run1	generate/STIM_000.jpg
11.035	2.437	1	generate	Run1	generate/STIM_000.jpg
16.454	1.522	1	generate	Run1	generate/STIM_000.jpg
21.06	2.604	1	generate	Run1	generate/STIM_000.jpg
25.757	1.566	1	generate	Run1	generate/STIM_001.jpg
30.089	2.295	1	generate	Run1	generate/STIM_001.jpg
36.154	2.526	1	generate	Run1	generate/STIM_001.jpg
41.114	1.526	1	generate	Run1	generate/STIM_001.jpg
44.975	1.554	1	generate	Run1	generate/STIM_001.jpg
50.391	1.537	1	generate	Run1	generate/STIM_002.jpg
54.007	1.411	0	generate	Run1	generate/STIM_002.jpg
57.882	2.184	0	generate	Run1	generate/STIM_002.jpg
62.219	1.57	1	generate	Run1	generate/STIM_002.jpg
66.162	1.182	0	generate	Run1	generate/STIM_002.jpg
69.602	3.26	1	generate	Run1	generate/STIM_003.jpg
76.541	3.097	1	generate	Run1	generate/STIM_003.jpg
81.823	2.954	1	generate	Run1	generate/STIM_003.jpg
86.909	2.577	1	generate	Run1	generate/STIM_003.jpg
92.914	1.094	1	generate	Run1	generate/STIM_003.jpg
97.327	3.028	0	generate	Run1	generate/STIM_004.jpg
103.209	1.802	1	generate	Run1	generate/STIM_004.jpg
107.103	1.884	1	generate	Run1	generate/STIM_004.jpg
112.16	1.416	1	generate	Run1	generate/STIM_004.jpg
116.388	1.334	1	generate	Run1	generate/STIM_004.jpg
120.011	2.056	0	generate	Run1	generate/STIM_005.jpg
124.089	2.04	0	generate	Run1	generate/STIM_005.jpg
128.93	2.83	1	generate	Run1	generate/STIM_005.jpg
135.132	1.283	0	generate	Run1	generate/STIM_005.jpg
139.887	1.977	0	generate	Run1	generate/STIM_005.jpg
144.652	2.176	1	generate	Run1	generate/STIM_006.jpg
149.165	2.786	1	generate	Run1	generate/STIM_006.jpg
154.559	2.32	0	generate	Run1	generate/STIM_006.jpg
159.624	2.48	1	generate	Run1	generate/STIM_006.jpg
165.809	1.974	1	generate	Run1	generate/STIM_006.jpg
170.99	2.539	1	generate	Run1	generate/STIM_007.jpg
176.726	1.325	1	generate	Run1	generate/STIM_007.jpg
180.979	1.483	0	generate	Run1	generate/STIM_007.jpg
186.171	1.64	1	generate	Run1	generate/STIM_007.jpg
191.059	1.571	1	generate	Run1	generate/STIM_007.jpg
196.498	1.347	0	generate	Run1	generate/STIM_008.jpg
200.507	2.946	0	generate	Run1	generate/STIM_008.jpg
205.711	1.539	1	generate	Run1	generate/STIM_008.jpg
210.269	1.375	1	generate	Run1	generate/STIM_008.jpg
215.594	2.423	1	generate	Run1	generate/STIM_008.jpg
220.297	2.998	1	generate	Run1	generate/STIM_009.jpg
225.381	1.359	1	generate	Run1	generate/STIM_009.jpg
229.181	1.388	1	generate	Run1	generate/STIM_009.jpg
232.641	2.361	1	generate	Run1	generate/STIM_009.jpg
238.025	1.22	1	generate	Run1	generate/STIM_009.jpg
241.569	2.45	1	generate	Run1	generate/STIM_010.jpg
247.449	2.94	1	generate	Run1	generate/STIM_010.jpg
253.359	1.258	1	generate	Run1	generate/STIM_010.jpg
256.691	1.316	1	generate	Run1	generate/STIM_010.jpg
260.12	1.48	1	generate	Run1	generate/STIM_010.jpg
263.757	2.41	0	generate	Run1	generate/STIM_011.jpg
270.134	2.642	1	generate	Run1	generate/STIM_011.jpg
275.431	2.597	1	generate	Run1	generate/STIM_011.jpg
280.667	1.207	1	generate	Run1	generate/STIM_011.jpg
285.783	2.098	1	generate	Run1	generate/STIM_011.jpg
291.113	2.079	1	generate	Run1	generate/STIM_012.jpg
295.746	2.605	1	generate	Run1	generate/STIM_012.jpg
301.895	2.497	1	generate	Run1	generate/STIM_012.jpg
307.581	1.729	1	generate	Run1	generate/STIM_012.jpg
311.436	1.25	0	generate	Run1	generate/STIM_012.jpg
315.709	2.206	0	generate	Run1	generate/STIM_013.jpg
320.276	2.577	1	generate	Run1	generate/STIM_013.jpg
326.59	2.118	1	generate	Run1	generate/STIM_013.jpg
331.054	1.408	1	generate	Run1	generate/STIM_013.jpg
336.013	1.831	1	generate	Run1	generate/STIM_013.jpg
340.874	1.682	1	generate	Run1	generate/STIM_014.jpg
344.742	3.06	1	generate	Run1	generate/STIM_014.jpg
351.164	2.327	1	generate	Run1	generate/STIM_014.jpg
356.699	2.478	0	generate	Run1	generate/STIM_014.jpg
362.795	1.595	1	generate	Run1	generate/STIM_014.jpg
368.254	2.404	1	generate	Run1	generate/STIM_015.jpg
373.405	2.788	1	generate	Run1	generate/STIM_015.jpg
379.052	2.784	1	generate	Run1	generate/STIM_015.jpg
384.499	1.467	1	generate	Run1	generate/STIM_015.jpg
388.251	1.485	1	generate	Run1	generate/STIM_015.jpg
391.788	3.148	1	generate	Run1	generate/STIM_016.jpg
397.723	1.328	1	generate	Run1	generate/STIM_016.jpg
402.141	2.719	1	generate	Run1	generate/STIM_016.jpg
408.753	2.258	1	generate	Run1	generate/STIM_016.jpg
413.852	1.336	1	generate	Run1	generate/STIM_016.jpg
418.007	2.002	0	generate	Run1	generate/STIM_017.jpg
422.303	1.842	1	generate	Run1	generate/STIM_017.jpg
427.433	1.333	0	generate	Run1	generate/STIM_017.jpg
432.662	2.772	0	generate	Run1	generate/STIM_017.jpg
437.968	2.242	0	generate	Run1	generate/STIM_017.jpg
444.2	2.367	1	generate	Run1	generate/STIM_018.jpg
448.696	2.944	1	generate	Run1	generate/STIM_018.jpg
455.16	1.955	1	generate	Run1	generate/STIM_018.jpg
460.509	1.512	1	generate	Run1	generate/STIM_018.jpg
464.27	2.568	0	generate	Run1	generate/STIM_018.jpg
469.473	2.584	1	generate	Run1	generate/STIM_019.jpg
474.675	1.819	1	generate	Run1	generate/STIM_019.jpg
478.899	2.819	1	generate	Run1	generate/STIM_019.jpg
485.629	1.56	0	generate	Run1	generate/STIM_019.jpg
490.231	1.39	1	generate	Run1	generate/STIM_019.jpg
495.359	1.974	0	generate	Run1	generate/STIM_020.jpg
500.112	2.936	1	generate	Run1	generate/STIM_020.jpg
505.872	1.744	1	generate	Run1	generate/STIM_020.jpg
510.932	1.659	1	generate	Run1	generate/STIM_020.jpg
514.649	2.579	1	generate	Run1	generate/STIM_020.jpg
520.098	2.498	0	generate	Run1	generate/STIM_021.jpg
525.824	3.103	1	generate	Run1	generate/STIM_021.jpg
532.792	1.199	1	generate	Run1	generate/STIM_021.jpg
537.389	1.683	1	generate	Run1	generate/STIM_021.jpg
542.732	1.619	1	generate	Run1	generate/STIM_021.jpg
546.686	2.119	1	generate	Run1	generate/STIM_022.jpg
552.29	2.64	1	generate	Run1	generate/STIM_022.jpg
557.064	2.539	1	generate	Run1	generate/STIM_022.jpg
563.471	1.53	1	generate	Run1	generate/STIM_022.jpg
568.063	2.371	1	generate	Run1	generate/STIM_022.jpg
572.994	1.893	1	generate	Run1	generate/STIM_023.jpg
577.126	2.154	0	generate	Run1	generate/STIM_023.jpg
582.905	2.392	1	generate	Run1	generate/STIM_023.jpg
589.06	2.337	1	generate	Run1	generate/STIM_023.jpg
595.261	1.786	1	generate	Run1	generate/STIM_023.jpg
599.997	2.442	1	generate	Run1	generate/STIM_024.jpg
606.383	2.346	0	generate	Run1	generate/STIM_024.jpg
610.776	1.939	1	generate	Run1	generate/STIM_024.jpg
614.948	2.172	1	generate	Run1	generate/STIM_024.jpg
620.171	1.23	1	generate	Run1	generate/STIM_024.jpg
624.707	1.044	1	repeat	Run1	repeat/STIM_000.jpg
629.6	1.001	1	repeat	Run1	repeat/STIM_000.jpg
633.888	0.612	1	repeat	Run1	repeat/STIM_000.jpg
637.788	1.018	1	repeat	Run1	repeat/STIM_000.jpg
641.169	0.823	1	repeat	Run1	repeat/STIM_000.jpg
645.298	0.686	1	repeat	Run1	repeat/STIM_001.jpg
648.579	0.706	1	repeat	Run1	repeat/STIM_001.jpg
652.577	0.69	1	repeat	Run1	repeat/STIM_001.jpg
656.501	0.666	1	repeat	Run1	repeat/STIM_001.jpg
659.581	0.936	1	repeat	Run1	repeat/STIM_001.jpg
663.787	0.659	1	repeat	Run1	repeat/STIM_002.jpg
667.856	0.595	1	repeat	Run1	repeat/STIM_002.jpg
672.246	0.884	1	repeat	Run1	repeat/STIM_002.jpg
677.086	0.977	1	repeat	Run1	repeat/STIM_002.jpg
681.465	0.947	1	repeat	Run1	repeat/STIM_002.jpg
685.042	0.96	1	repeat	Run1	repeat/STIM_003.jpg
689.025	0.789	1	repeat	Run1	repeat/STIM_003.jpg
693.002	0.949	1	repeat	Run1	repeat/STIM_003.jpg
697.651	0.98	1	repeat	Run1	repeat/STIM_003.jpg
702.167	0.761	1	repeat	Run1	repeat/STIM_003.jpg
705.077	0.967	1	repeat	Run1	repeat/STIM_004.jpg
708.702	1.027	1	repeat	Run1	repeat/STIM_004.jpg
712.203	1.011	1	repeat	Run1	repeat/STIM_004.jpg
716.345	0.686	1	repeat	Run1	repeat/STIM_004.jpg
720.963	0.916	1	repeat	Run1	repeat/STIM_004.jpg
724.298	0.712	1	repeat	Run1	repeat/STIM_005.jpg
727.452	0.649	1	repeat	Run1	repeat/STIM_005.jpg
731.433	0.576	1	repeat	Run1	repeat/STIM_005.jpg
734.403	0.934	1	repeat	Run1	repeat/STIM_005.jpg
737.854	0.786	1	repeat	Run1	repeat/STIM_005.jpg
740.858	0.926	1	repeat	Run1	repeat/STIM_006.jpg
745.218	0.965	1	repeat	Run1	repeat/STIM_006.jpg
749.411	0.986	1	repeat	Run1	repeat/STIM_006.jpg
753.503	0.956	1	repeat	Run1	repeat/STIM_006.jpg
756.804	0.743	1	repeat	Run1	repeat/STIM_006.jpg
760.611	0.572	1	repeat	Run1	repeat/STIM_007.jpg
764.861	0.604	1	repeat	Run1	repeat/STIM_007.jpg
768.149	0.955	1	repeat	Run1	repeat/STIM_007.jpg
772.423	0.979	1	repeat	Run1	repeat/STIM_007.jpg
775.862	1.087	1	repeat	Run1	repeat/STIM_007.jpg
778.973	0.633	1	repeat	Run1	repeat/STIM_008.jpg
782.999	0.652	1	repeat	Run1	repeat/STIM_008.jpg
786.901	0.922	1	repeat	Run1	repeat/STIM_008.jpg
790.468	0.676	1	repeat	Run1	repeat/STIM_008.jpg
794.119	0.556	1	repeat	Run1	repeat/STIM_008.jpg
798.203	1.061	1	repeat	Run1	repeat/STIM_009.jpg
802.53	0.556	1	repeat	Run1	repeat/STIM_009.jpg
805.661	0.627	1	repeat	Run1	repeat/STIM_009.jpg
808.404	0.638	1	repeat	Run1	repeat/STIM_009.jpg
811.404	0.718	1	repeat	Run1	repeat/STIM_009.jpg
815.845	1.02	1	repeat	Run1	repeat/STIM_010.jpg
820.807	1.026	1	repeat	Run1	repeat/STIM_010.jpg
824.023	0.625	1	repeat	Run1	repeat/STIM_010.jpg
827.805	0.74	1	repeat	Run1	repeat/STIM_010.jpg
830.776	0.914	1	repeat	Run1	repeat/STIM_010.jpg
834.008	1.039	1	repeat	Run1	repeat/STIM_011.jpg
838.177	0.811	1	repeat	Run1	repeat/STIM_011.jpg
841.685	0.583	1	repeat	Run1	repeat/STIM_011.jpg
845.778	0.863	1	repeat	Run1	repeat/STIM_011.jpg
849.469	0.772	1	repeat	Run1	repeat/STIM_011.jpg
853.116	0.905	1	repeat	Run1	repeat/STIM_012.jpg
856.81	0.551	1	repeat	Run1	repeat/STIM_012.jpg
860.641	0.671	1	repeat	Run1	repeat/STIM_012.jpg
863.33	1.007	1	repeat	Run1	repeat/STIM_012.jpg
866.898	0.717	1	repeat	Run1	repeat/STIM_012.jpg
869.672	0.996	1	repeat	Run1	repeat/STIM_013.jpg
873.034	0.737	1	repeat	Run1	repeat/STIM_013.jpg
877.121	0.612	1	repeat	Run1	repeat/STIM_013.jpg
880.664	0.769	1	repeat	Run1	repeat/STIM_013.jpg
884.773	0.826	1	repeat	Run1	repeat/STIM_013.jpg
888.122	0.594	1	repeat	Run1	repeat/STIM_014.jpg
890.777	0.586	1	repeat	Run1	repeat/STIM_014.jpg
893.831	0.843	1	repeat	Run1	repeat/STIM_014.jpg
897.934	1.015	1	repeat	Run1	repeat/STIM_014.jpg
901.858	0.758	1	repeat	Run1	repeat/STIM_014.jpg
905.382	1.828	1	generate	Run2	generate/STIM_000.jpg
910.93	1.516	1	generate	Run2	generate/STIM_000.jpg
915.897	1.608	1	generate	Run2	generate/STIM_000.jpg
920.681	1.789	1	generate	Run2	generate/STIM_000.jpg
925.04	0.985	1	generate	Run2	generate/STIM_000.jpg
928.251	2.142	1	generate	Run2	generate/STIM_001.jpg
932.889	1.827	1	generate	Run2	generate/STIM_001.jpg
937.067	2.382	1	generate	Run2	generate/STIM_001.jpg
942.921	1.31	1	generate	Run2	generate/STIM_001.jpg
947.806	1.616	1	generate	Run2	generate/STIM_001.jpg
951.624	1.85	1	generate	Run2	generate/STIM_002.jpg
957.464	1.532	1	generate	Run2	generate/STIM_002.jpg
962.261	1.006	1	generate	Run2	generate/STIM_002.jpg
966.636	1.24	1	generate	Run2	generate/STIM_002.jpg
970.51	1.45	1	generate	Run2	generate/STIM_002.jpg
975.336	2.349	1	generate	Run2	generate/STIM_003.jpg
979.886	2.59	1	generate	Run2	generate/STIM_003.jpg
986.326	1.373	0	generate	Run2	generate/STIM_003.jpg
990.049	1.375	1	generate	Run2	generate/STIM_003.jpg
994.362	1.25	1	generate	Run2	generate/STIM_003.jpg
998.776	1.305	1	generate	Run2	generate/STIM_004.jpg
1003.167	1.718	1	generate	Run2	generate/STIM_004.jpg
1008.127	1.507	1	generate	Run2	generate/STIM_004.jpg
1013.572	1.43	1	generate	Run2	generate/STIM_004.jpg
1018.135	1.245	1	generate	Run2	generate/STIM_004.jpg
1021.544	1.205	1	generate	Run2	generate/STIM_005.jpg
1024.993	1.443	1	generate	Run2	generate/STIM_005.jpg
1028.646	2.097	1	generate	Run2	generate/STIM_005.jpg
1034.727	1.774	1	generate	Run2	generate/STIM_005.jpg
1040.179	1.744	1	generate	Run2	generate/STIM_005.jpg
1045.887	1.942	1	generate	Run2	generate/STIM_006.jpg
1050.475	1.497	1	generate	Run2	generate/STIM_006.jpg
1054.571	1.914	1	generate	Run2	generate/STIM_006.jpg
1058.72	1.385	0	generate	Run2	generate/STIM_006.jpg
1062.957	1.867	1	generate	Run2	generate/STIM_006.jpg
1068.607	1.198	1	generate	Run2	generate/STIM_007.jpg
1072.513	2.314	1	generate	Run2	generate/STIM_007.jpg
1078.289	1.392	0	generate	Run2	generate/STIM_007.jpg
1081.739	0.923	1	generate	Run2	generate/STIM_007.jpg
1086.638	2.228	1	generate	Run2	generate/STIM_007.jpg
1092.824	1.903	1	generate	Run2	generate/STIM_008.jpg
1096.971	2.229	1	generate	Run2	generate/STIM_008.jpg
1103.199	1.327	1	generate	Run2	generate/STIM_008.jpg
1106.55	1.354	1	generate	Run2	generate/STIM_008.jpg
1110.6	1.608	1	generate	Run2	generate/STIM_008.jpg
1114.74	1.835	1	generate	Run2	generate/STIM_009.jpg
1119.189	1.103	1	generate	Run2	generate/STIM_009.jpg
1123.976	1.884	1	generate	Run2	generate/STIM_009.jpg
1129.725	1.911	1	generate	Run2	generate/STIM_009.jpg
1135.322	1.846	1	generate	Run2	generate/STIM_009.jpg
1139.36	2.335	1	generate	Run2	generate/STIM_010.jpg
1143.846	2.452	1	generate	Run2	generate/STIM_010.jpg
1149.679	1.399	1	generate	Run2	generate/STIM_010.jpg
1154.868	1.148	1	generate	Run2	generate/STIM_010.jpg
1160.006	1.794	1	generate	Run2	generate/STIM_010.jpg
1164.605	2.029	1	generate	Run2	generate/STIM_011.jpg
1168.926	1.875	1	generate	Run2	generate/STIM_011.jpg
1173.624	1.607	1	generate	Run2	generate/STIM_011.jpg
1177.277	1.457	0	generate	Run2	generate/STIM_011.jpg
1181.525	2.042	1	generate	Run2	generate/STIM_011.jpg
1186.012	1.95	1	generate	Run2	generate/STIM_012.jpg
1190.985	1.102	1	generate	Run2	generate/STIM_012.jpg
1195.86	2.062	1	generate	Run2	generate/STIM_012.jpg
1200.547	1.924	1	generate	Run2	generate/STIM_012.jpg
1205.69	1.109	1	generate	Run2	generate/STIM_012.jpg
1210.52	2.724	0	generate	Run2	generate/STIM_013.jpg
1217.02	1.663	1	generate	Run2	generate/STIM_013.jpg
1221.44	1.695	1	generate	Run2	generate/STIM_013.jpg
1225.977	0.996	1	generate	Run2	generate/STIM_013.jpg
1229.971	1.736	1	generate	Run2	generate/STIM_013.jpg
1234.445	1.239	1	generate	Run2	generate/STIM_014.jpg
1239.366	1.98	1	generate	Run2	generate/STIM_014.jpg
1245.205	1.239	1	generate	Run2	generate/STIM_014.jpg
1248.457	0.931	1	generate	Run2	generate/STIM_014.jpg
1252.082	2.148	1	generate	Run2	generate/STIM_014.jpg
1257.135	1.431	1	generate	Run2	generate/STIM_015.jpg
1261.501	2.614	1	generate	Run2	generate/STIM_015.jpg
1267.129	1.896	0	generate	Run2	generate/STIM_015.jpg
1272.263	1.691	0	generate	Run2	generate/STIM_015.jpg
1277.469	2.046	1	generate	Run2	generate/STIM_015.jpg
1282.436	2.059	1	generate	Run2	generate/STIM_016.jpg
1287.502	1.79	1	generate	Run2	generate/STIM_016.jpg
1293.034	2.418	1	generate	Run2	generate/STIM_016.jpg
1298.549	1.97	1	generate	Run2	generate/STIM_016.jpg
1303.447	1.956	1	generate	Run2	generate/STIM_016.jpg
1308.182	2.338	1	generate	Run2	generate/STIM_017.jpg
1313.755	1.696	1	generate	Run2	generate/STIM_017.jpg
1318.459	2.403	1	generate	Run2	generate/STIM_017.jpg
1323.133	1.471	1	generate	Run2	generate/STIM_017.jpg
1327.215	1.522	1	generate	Run2	generate/STIM_017.jpg
1332.191	1.574	1	generate	Run2	generate/STIM_018.jpg
1337.53	2.571	1	generate	Run2	generate/STIM_018.jpg
1343.575	1.44	1	generate	Run2	generate/STIM_018.jpg
1347.27	1.623	1	generate	Run2	generate/STIM_018.jpg
1352.311	1.444	1	generate	Run2	generate/STIM_018.jpg
1357.105	2.776	1	generate	Run2	generate/STIM_019.jpg
1362.383	1.253	1	generate	Run2	generate/STIM_019.jpg
1366.334	2.338	1	generate	Run2	generate/STIM_019.jpg
1371.683	1.382	1	generate	Run2	generate/STIM_019.jpg
1375.502	1.785	1	generate	Run2	generate/STIM_019.jpg
1380.681	1.842	1	generate	Run2	generate/STIM_020.jpg
1386.296	1.668	1	generate	Run2	generate/STIM_020.jpg
1390.344	1.744	1	generate	Run2	generate/STIM_020.jpg
1394.357	1.336	1	generate	Run2	generate/STIM_020.jpg
1397.706	1.763	1	generate	Run2	generate/STIM_020.jpg
1402.451	1.602	0	generate	Run2	generate/STIM_021.jpg
1407.965	2.528	1	generate	Run2	generate/STIM_021.jpg
1413.64	1.059	1	generate	Run2	generate/STIM_021.jpg
1416.868	1.41	1	generate	Run2	generate/STIM_021.jpg
1420.28	1.576	1	generate	Run2	generate/STIM_021.jpg
1424.062	2.722	1	generate	Run2	generate/STIM_022.jpg
1429.878	1.718	1	generate	Run2	generate/STIM_022.jpg
1435.581	1.864	1	generate	Run2	generate/STIM_022.jpg
1441.208	1.606	1	generate	Run2	generate/STIM_022.jpg
1446.718	1.134	0	generate	Run2	generate/STIM_022.jpg
1450.662	1.184	1	generate	Run2	generate/STIM_023.jpg
1455.203	1.142	1	generate	Run2	generate/STIM_023.jpg
1459.584	1.666	1	generate	Run2	generate/STIM_023.jpg
1464.921	1.462	0	generate	Run2	generate/STIM_023.jpg
1468.959	1.857	1	generate	Run2	generate/STIM_023.jpg
1474.713	1.308	1	generate	Run2	generate/STIM_024.jpg
1478.251	2.594	1	generate	Run2	generate/STIM_024.jpg
1484.299	1.682	0	generate	Run2	generate/STIM_024.jpg
1488.621	1.179	1	generate	Run2	generate/STIM_024.jpg
1492.214	1.303	1	generate	Run2	generate/STIM_024.jpg
1496.939	1.072	1	repeat	Run2	repeat/STIM_000.jpg
1501.319	0.582	1	repeat	Run2	repeat/STIM_000.jpg
1505.753	0.946	1	repeat	Run2	repeat/STIM_000.jpg
1508.814	0.595	1	repeat	Run2	repeat/STIM_000.jpg
1512.0	0.926	1	repeat	Run2	repeat/STIM_000.jpg
1516.834	0.889	1	repeat	Run2	repeat/STIM_001.jpg
1520.703	0.666	1	repeat	Run2	repeat/STIM_001.jpg
1524.482	0.99	1	repeat	Run2	repeat/STIM_001.jpg
1528.742	0.782	1	repeat	Run2	repeat/STIM_001.jpg
1532.979	0.824	1	repeat	Run2	repeat/STIM_001.jpg
1537.764	0.93	1	repeat	Run2	repeat/STIM_002.jpg
1541.146	0.694	1	repeat	Run2	repeat/STIM_002.jpg
1545.596	0.572	1	repeat	Run2	repeat/STIM_002.jpg
1548.526	1.075	1	repeat	Run2	repeat/STIM_002.jpg
1552.982	0.578	1	repeat	Run2	repeat/STIM_002.jpg
1556.17	0.974	1	repeat	Run2	repeat/STIM_003.jpg
1560.307	0.818	1	repeat	Run2	repeat/STIM_003.jpg
1563.595	0.902	1	repeat	Run2	repeat/STIM_003.jpg
1568.176	1.027	1	repeat	Run2	repeat/STIM_003.jpg
1572.558	0.869	1	repeat	Run2	repeat/STIM_003.jpg
1577.034	0.808	1	repeat	Run2	repeat/STIM_004.jpg
1579.944	0.922	1	repeat	Run2	repeat/STIM_004.jpg
1583.497	0.781	1	repeat	Run2	repeat/STIM_004.jpg
1586.701	0.579	1	repeat	Run2	repeat/STIM_004.jpg
1589.871	0.925	1	repeat	Run2	repeat/STIM_004.jpg
1594.213	1.022	1	repeat	Run2	repeat/STIM_005.jpg
1599.152	0.677	1	repeat	Run2	repeat/STIM_005.jpg
1603.369	0.813	1	repeat	Run2	repeat/STIM_005.jpg
1607.114	0.684	1	repeat	Run2	repeat/STIM_005.jpg
1610.678	0.917	0	repeat	Run2	repeat/STIM_005.jpg
1615.218	1.038	1	repeat	Run2	repeat/STIM_006.jpg
1618.779	0.636	1	repeat	Run2	repeat/STIM_006.jpg
1621.448	0.705	1	repeat	Run2	repeat/STIM_006.jpg
1624.163	0.899	1	repeat	Run2	repeat/STIM_006.jpg
1628.189	0.948	1	repeat	Run2	repeat/STIM_006.jpg
1632.159	0.651	1	repeat	Run2	repeat/STIM_007.jpg
1636.005	0.934	1	repeat	Run2	repeat/STIM_007.jpg
1640.897	0.963	1	repeat	Run2	repeat/STIM_007.jpg
1645.518	0.766	1	repeat	Run2	repeat/STIM_007.jpg
1648.744	0.89	1	repeat	Run2	repeat/STIM_007.jpg
1653.382	0.625	1	repeat	Run2	repeat/STIM_008.jpg
1656.298	0.594	1	repeat	Run2	repeat/STIM_008.jpg
1659.153	0.742	1	repeat	Run2	repeat/STIM_008.jpg
1662.136	0.65	1	repeat	Run2	repeat/STIM_008.jpg
1665.432	0.62	1	repeat	Run2	repeat/STIM_008.jpg
1669.663	0.648	1	repeat	Run2	repeat/STIM_009.jpg
1672.868	0.932	1	repeat	Run2	repeat/STIM_009.jpg
1677.348	0.885	1	repeat	Run2	repeat/STIM_009.jpg
1680.566	1.027	1	repeat	Run2	repeat/STIM_009.jpg
1683.728	0.826	1	repeat	Run2	repeat/STIM_009.jpg
1686.586	0.939	1	repeat	Run2	repeat/STIM_010.jpg
1690.185	0.928	1	repeat	Run2	repeat/STIM_010.jpg
1695.106	0.696	1	repeat	Run2	repeat/STIM_010.jpg
1699.05	0.58	1	repeat	Run2	repeat/STIM_010.jpg
1702.208	0.722	1	repeat	Run2	repeat/STIM_010.jpg
1706.067	1.004	1	repeat	Run2	repeat/STIM_011.jpg
1710.159	0.848	1	repeat	Run2	repeat/STIM_011.jpg
1713.856	0.796	1	repeat	Run2	repeat/STIM_011.jpg
1716.91	0.708	1	repeat	Run2	repeat/STIM_011.jpg
1720.955	1.028	1	repeat	Run2	repeat/STIM_011.jpg
1724.373	0.934	0	repeat	Run2	repeat/STIM_012.jpg
1728.384	1.06	1	repeat	Run2	repeat/STIM_012.jpg
1732.14	0.969	1	repeat	Run2	repeat/STIM_012.jpg
1736.781	0.725	1	repeat	Run2	repeat/STIM_012.jpg
1739.913	0.877	1	repeat	Run2	repeat/STIM_012.jpg
1744.008	1.071	1	repeat	Run2	repeat/STIM_013.jpg
1749.008	0.63	1	repeat	Run2	repeat/STIM_013.jpg
1752.746	0.696	1	repeat	Run2	repeat/STIM_013.jpg
1756.207	0.739	1	repeat	Run2	repeat/STIM_013.jpg
1760.35	0.927	1	repeat	Run2	repeat/STIM_013.jpg
1765.153	1.059	1	repeat	Run2	repeat/STIM_014.jpg
1768.66	0.719	1	repeat	Run2	repeat/STIM_014.jpg
1773.239	0.864	1	repeat	Run2	repeat/STIM_014.jpg
1777.257	0.735	1	repeat	Run2	repeat/STIM_014.jpg
1780.646	0.603	1	repeat	Run2	repeat/STIM_014.jpg
1784.299	1.512	1	generate	Run3	generate/STIM_000.jpg
1788.543	2.129	1	generate	Run3	generate/STIM_000.jpg
1793.442	1.279	1	generate	Run3	generate/STIM_000.jpg
1797.426	2.105	1	generate	Run3	generate/STIM_000.jpg
1801.642	1.522	1	generate	Run3	generate/STIM_000.jpg
1805.18	1.173	1	generate	Run3	generate/STIM_001.jpg
1808.989	1.238	1	generate	Run3	generate/STIM_001.jpg
1812.748	1.344	1	generate	Run3	generate/STIM_001.jpg
1817.034	1.553	0	generate	Run3	generate/STIM_001.jpg
1821.678	1.586	1	generate	Run3	generate/STIM_001.jpg
1826.719	2.15	1	generate	Run3	generate/STIM_002.jpg
1831.48	1.255	1	generate	Run3	generate/STIM_002.jpg
1836.225	1.535	1	generate	Run3	generate/STIM_002.jpg
1840.187	1.262	1	generate	Run3	generate/STIM_002.jpg
1844.292	1.506	1	generate	Run3	generate/STIM_002.jpg
1847.853	1.232	1	generate	Run3	generate/STIM_003.jpg
1851.651	1.807	1	generate	Run3	generate/STIM_003.jpg
1856.929	1.905	1	generate	Run3	generate/STIM_003.jpg
1862.552	1.753	1	generate	Run3	generate/STIM_003.jpg
1866.496	2.038	0	generate	Run3	generate/STIM_003.jpg
1871.816	2.205	1	generate	Run3	generate/STIM_004.jpg
1876.798	2.176	1	generate	Run3	generate/STIM_004.jpg
1881.321	2.2	1	generate	Run3	generate/STIM_004.jpg
1886.702	1.019	1	generate	Run3	generate/STIM_004.jpg
1891.27	1.655	1	generate	Run3	generate/STIM_004.jpg
1895.094	1.147	1	generate	Run3	generate/STIM_005.jpg
1899.313	2.135	0	generate	Run3	generate/STIM_005.jpg
1905.328	1.08	0	generate	Run3	generate/STIM_005.jpg
1908.813	1.966	1	generate	Run3	generate/STIM_005.jpg
1914.75	2.166	1	generate	Run3	generate/STIM_005.jpg
1920.872	1.029	1	generate	Run3	generate/STIM_006.jpg
1924.343	1.43	1	generate	Run3	generate/STIM_006.jpg
1929.656	1.272	1	generate	Run3	generate/STIM_006.jpg
1933.896	1.983	1	generate	Run3	generate/STIM_006.jpg
1939.772	1.412	1	generate	Run3	generate/STIM_006.jpg
1943.387	2.098	1	generate	Run3	generate/STIM_007.jpg
1948.374	1.81	1	generate	Run3	generate/STIM_007.jpg
1952.279	1.659	1	generate	Run3	generate/STIM_007.jpg
1957.856	1.298	1	generate	Run3	generate/STIM_007.jpg
1962.895	2.053	1	generate	Run3	generate/STIM_007.jpg
1968.728	1.202	1	generate	Run3	generate/STIM_008.jpg
1972.477	2.079	1	generate	Run3	generate/STIM_008.jpg
1977.855	0.979	1	generate	Run3	generate/STIM_008.jpg
1982.36	2.02	1	generate	Run3	generate/STIM_008.jpg
1988.173	1.246	1	generate	Run3	generate/STIM_008.jpg
1993.132	2.02	1	generate	Run3	generate/STIM_009.jpg
1998.814	2.07	1	generate	Run3	generate/STIM_009.jpg
2003.411	1.835	1	generate	Run3	generate/STIM_009.jpg
2009.019	1.874	1	generate	Run3	generate/STIM_009.jpg
2013.025	1.695	1	generate	Run3	generate/STIM_009.jpg
2016.979	2.133	1	generate	Run3	generate/STIM_010.jpg
2022.994	1.796	1	generate	Run3	generate/STIM_010.jpg
2028.784	1.736	1	generate	Run3	generate/STIM_010.jpg
2032.626	1.548	1	generate	Run3	generate/STIM_010.jpg
2037.008	1.05	1	generate	Run3	generate/STIM_010.jpg
2040.483	1.977	1	generate	Run3	generate/STIM_011.jpg
2045.369	1.74	1	generate	Run3	generate/STIM_011.jpg
2050.097	2.23	1	generate	Run3	generate/STIM_011.jpg
2056.271	1.915	1	generate	Run3	generate/STIM_011.jpg
2061.546	2.156	1	generate	Run3	generate/STIM_011.jpg
2065.892	2.077	1	generate	Run3	generate/STIM_012.jpg
2071.046	1.732	1	generate	Run3	generate/STIM_012.jpg
2075.126	1.596	0	generate	Run3	generate/STIM_012.jpg
2078.941	1.189	1	generate	Run3	generate/STIM_012.jpg
2082.15	1.528	1	generate	Run3	generate/STIM_012.jpg
2086.382	2.14	1	generate	Run3	generate/STIM_013.jpg
2090.684	2.053	0	generate	Run3	generate/STIM_013.jpg
2096.253	1.839	0	generate	Run3	generate/STIM_013.jpg
2101.991	1.361	1	generate	Run3	generate/STIM_013.jpg
2106.164	1.806	1	generate	Run3	generate/STIM_013.jpg
2111.549	0.934	1	generate	Run3	generate/STIM_014.jpg
2115.907	1.367	1	generate	Run3	generate/STIM_014.jpg
2120.312	1.304	1	generate	Run3	generate/STIM_014.jpg
2124.94	1.224	1	generate	Run3	generate/STIM_014.jpg
2129.056	2.196	1	generate	Run3	generate/STIM_014.jpg
2133.675	1.394	0	generate	Run3	generate/STIM_015.jpg
2138.111	1.926	1	generate	Run3	generate/STIM_015.jpg
2143.015	1.681	1	generate	Run3	generate/STIM_015.jpg
2147.757	1.474	1	generate	Run3	generate/STIM_015.jpg
2151.441	1.213	0	generate	Run3	generate/STIM_015.jpg
2154.832	1.418	1	generate	Run3	generate/STIM_016.jpg
2159.149	1.766	1	generate	Run3	generate/STIM_016.jpg
2163.819	1.49	1	generate	Run3	generate/STIM_016.jpg
2168.201	1.368	1	generate	Run3	generate/STIM_016.jpg
2173.234	1.572	1	generate	Run3	generate/STIM_016.jpg
2178.22	1.197	1	generate	Run3	generate/STIM_017.jpg
2181.805	1.673	1	generate	Run3	generate/STIM_017.jpg
2187.37	1.828	0	generate	Run3	generate/STIM_017.jpg
2192.346	1.685	1	generate	Run3	generate/STIM_017.jpg
2196.95	1.682	1	generate	Run3	generate/STIM_017.jpg
2200.831	2.087	1	generate	Run3	generate/STIM_018.jpg
2205.004	1.047	1	generate	Run3	generate/STIM_018.jpg
2208.381	1.433	1	generate	Run3	generate/STIM_018.jpg
2212.877	2.108	1	generate	Run3	generate/STIM_018.jpg
2217.67	1.7	1	generate	Run3	generate/STIM_018.jpg
2223.115	1.267	1	generate	Run3	generate/STIM_019.jpg
2227.355	1.657	1	generate	Run3	generate/STIM_019.jpg
2232.221	1.182	1	generate	Run3	generate/STIM_019.jpg
2236.147	2.189	1	generate	Run3	generate/STIM_019.jpg
2240.352	1.065	1	generate	Run3	generate/STIM_019.jpg
2244.003	2.116	1	generate	Run3	generate/STIM_020.jpg
2248.255	1.003	1	generate	Run3	generate/STIM_020.jpg
2251.798	2.179	1	generate	Run3	generate/STIM_020.jpg
2257.907	1.708	1	generate	Run3	generate/STIM_020.jpg
2262.414	1.194	1	generate	Run3	generate/STIM_020.jpg
2265.946	0.926	1	generate	Run3	generate/STIM_021.jpg
2270.151	1.406	1	generate	Run3	generate/STIM_021.jpg
2275.533	1.999	1	generate	Run3	generate/STIM_021.jpg
2279.586	2.274	1	generate	Run3	generate/STIM_021.jpg
2284.439	1.353	1	generate	Run3	generate/STIM_021.jpg
2288.282	1.946	1	generate	Run3	generate/STIM_022.jpg
2294.158	1.363	1	generate	Run3	generate/STIM_022.jpg
2298.27	1.965	1	generate	Run3	generate/STIM_022.jpg
2302.829	1.546	1	generate	Run3	generate/STIM_022.jpg
2306.811	1.232	1	generate	Run3	generate/STIM_022.jpg
2310.198	2.167	1	generate	Run3	generate/STIM_023.jpg
2315.468	1.297	1	generate	Run3	generate/STIM_023.jpg
2320.185	1.817	1	generate	Run3	generate/STIM_023.jpg
2325.69	0.999	1	generate	Run3	generate/STIM_023.jpg
2329.442	1.671	1	generate	Run3	generate/STIM_023.jpg
2333.864	1.135	1	generate	Run3	generate/STIM_024.jpg
2338.455	0.947	0	generate	Run3	generate/STIM_024.jpg
2341.678	2.169	1	generate	Run3	generate/STIM_024.jpg
2346.473	0.956	1	generate	Run3	generate/STIM_024.jpg
2350.712	0.934	1	generate	Run3	generate/STIM_024.jpg
2354.879	0.911	1	repeat	Run3	repeat/STIM_000.jpg
2358.651	0.784	1	repeat	Run3	repeat/STIM_000.jpg
2362.009	0.788	1	repeat	Run3	repeat/STIM_000.jpg
2366.094	0.664	1	repeat	Run3	repeat/STIM_000.jpg
2370.135	0.965	1	repeat	Run3	repeat/STIM_000.jpg
2373.954	1.031	1	repeat	Run3	repeat/STIM_001.jpg
2378.818	0.923	1	repeat	Run3	repeat/STIM_001.jpg
2383.284	0.728	1	repeat	Run3	repeat/STIM_001.jpg
2387.302	0.928	1	repeat	Run3	repeat/STIM_001.jpg
2391.779	0.833	1	repeat	Run3	repeat/STIM_001.jpg
2396.37	0.797	1	repeat	Run3	repeat/STIM_002.jpg
2399.457	1.02	1	repeat	Run3	repeat/STIM_002.jpg
2403.846	0.722	1	repeat	Run3	repeat/STIM_002.jpg
2407.481	1.054	1	repeat	Run3	repeat/STIM_002.jpg
2410.815	0.65	1	repeat	Run3	repeat/STIM_002.jpg
2415.2	0.811	1	repeat	Run3	repeat/STIM_003.jpg
2418.957	0.787	1	repeat	Run3	repeat/STIM_003.jpg
2422.123	0.59	1	repeat	Run3	repeat/STIM_003.jpg
2426.491	0.576	1	repeat	Run3	repeat/STIM_003.jpg
2430.251	0.919	1	repeat	Run3	repeat/STIM_003.jpg
2434.812	0.867	1	repeat	Run3	repeat/STIM_004.jpg
2438.75	0.961	1	repeat	Run3	repeat/STIM_004.jpg
2443.014	0.844	1	repeat	Run3	repeat/STIM_004.jpg
2447.626	0.953	1	repeat	Run3	repeat/STIM_004.jpg
2451.362	0.801	1	repeat	Run3	repeat/STIM_004.jpg
2455.948	0.881	1	repeat	Run3	repeat/STIM_005.jpg
2459.147	0.562	1	repeat	Run3	repeat/STIM_005.jpg
2461.83	0.88	1	repeat	Run3	repeat/STIM_005.jpg
2465.991	0.793	1	repeat	Run3	repeat/STIM_005.jpg
2470.564	1.051	1	repeat	Run3	repeat/STIM_005.jpg
2474.591	0.708	1	repeat	Run3	repeat/STIM_006.jpg
2478.998	0.933	1	repeat	Run3	repeat/STIM_006.jpg
2483.446	1.039	1	repeat	Run3	repeat/STIM_006.jpg
2486.957	0.742	1	repeat	Run3	repeat/STIM_006.jpg
2490.288	1.064	1	repeat	Run3	repeat/STIM_006.jpg
2493.909	0.787	1	repeat	Run3	repeat/STIM_007.jpg
2497.068	0.892	1	repeat	Run3	repeat/STIM_007.jpg
2501.012	0.98	1	repeat	Run3	repeat/STIM_007.jpg
2505.817	0.908	1	repeat	Run3	repeat/STIM_007.jpg
2509.141	0.586	1	repeat	Run3	repeat/STIM_007.jpg
2512.956	0.561	1	repeat	Run3	repeat/STIM_008.jpg
2516.54	1.044	1	repeat	Run3	repeat/STIM_008.jpg
2519.708	0.861	1	repeat	Run3	repeat/STIM_008.jpg
2523.144	0.981	1	repeat	Run3	repeat/STIM_008.jpg
2527.049	0.669	1	repeat	Run3	repeat/STIM_008.jpg
2531.336	0.592	1	repeat	Run3	repeat/STIM_009.jpg
2535.768	0.84	1	repeat	Run3	repeat/STIM_009.jpg
2539.291	1.033	1	repeat	Run3	repeat/STIM_009.jpg
2542.839	0.906	1	repeat	Run3	repeat/STIM_009.jpg
2546.967	1.02	1	repeat	Run3	repeat/STIM_009.jpg
2551.89	0.883	1	repeat	Run3	repeat/STIM_010.jpg
2556.15	0.569	1	repeat	Run3	repeat/STIM_010.jpg
2559.512	0.582	1	repeat	Run3	repeat/STIM_010.jpg
2562.525	0.627	1	repeat	Run3	repeat/STIM_010.jpg
2565.679	1.068	1	repeat	Run3	repeat/STIM_010.jpg
2570.425	0.74	1	repeat	Run3	repeat/STIM_011.jpg
2574.205	1.08	1	repeat	Run3	repeat/STIM_011.jpg
2578.903	0.668	1	repeat	Run3	repeat/STIM_011.jpg
2583.26	1.081	1	repeat	Run3	repeat/STIM_011.jpg
2587.552	0.66	1	repeat	Run3	repeat/STIM_011.jpg
2591.186	0.732	1	repeat	Run3	repeat/STIM_012.jpg
2595.648	0.901	1	repeat	Run3	repeat/STIM_012.jpg
2599.822	0.695	1	repeat	Run3	repeat/STIM_012.jpg
2603.943	0.776	1	repeat	Run3	repeat/STIM_012.jpg
2608.595	0.774	1	repeat	Run3	repeat/STIM_012.jpg
2612.075	0.601	1	repeat	Run3	repeat/STIM_013.jpg
2615.784	0.867	1	repeat	Run3	repeat/STIM_013.jpg
2619.707	1.032	1	repeat	Run3	repeat/STIM_013.jpg
2622.828	0.71	1	repeat	Run3	repeat/STIM_013.jpg
2627.033	0.992	1	repeat	Run3	repeat/STIM_013.jpg
2630.119	0.812	1	repeat	Run3	repeat/STIM_014.jpg
2634.002	0.896	1	repeat	Run3	repeat/STIM_014.jpg
2638.357	0.762	1	repeat	Run3	repeat/STIM_014.jpg
2642.939	0.905	1	repeat	Run3	repeat/STIM_014.jpg
2646.57	0.759	1	repeat	Run3	repeat/STIM_014.jpg
2650.178	2.06	1	generate	Run4	generate/STIM_000.jpg
2654.315	1.12	1	generate	Run4	generate/STIM_000.jpg
2658.834	1.141	1	generate	Run4	generate/STIM_000.jpg
2662.769	0.993	1	generate	Run4	generate/STIM_000.jpg
2665.833	1.739	1	generate	Run4	generate/STIM_000.jpg
2670.855	0.983	1	generate	Run4	generate/STIM_001.jpg
2675.318	1.66	1	generate	Run4	generate/STIM_001.jpg
2680.545	1.913	1	generate	Run4	generate/STIM_001.jpg
2686.098	1.502	1	generate	Run4	generate/STIM_001.jpg
2690.153	1.695	1	generate	Run4	generate/STIM_001.jpg
2695.062	1.559	1	generate	Run4	generate/STIM_002.jpg
2698.948	1.501	1	generate	Run4	generate/STIM_002.jpg
2703.255	1.826	1	generate	Run4	generate/STIM_002.jpg
2708.011	1.174	1	generate	Run4	generate/STIM_002.jpg
2712.72	1.213	1	generate	Run4	generate/STIM_002.jpg
2717.892	1.606	1	generate	Run4	generate/STIM_003.jpg
2721.938	1.086	1	generate	Run4	generate/STIM_003.jpg
2725.607	1.182	1	generate	Run4	generate/STIM_003.jpg
2729.703	1.627	1	generate	Run4	generate/STIM_003.jpg
2734.742	2.0	1	generate	Run4	generate/STIM_003.jpg
2740.627	1.705	1	generate	Run4	generate/STIM_004.jpg
2745.35	2.04	1	generate	Run4	generate/STIM_004.jpg
2749.743	1.763	1	generate	Run4	generate/STIM_004.jpg
2754.472	2.077	1	generate	Run4	generate/STIM_004.jpg
2760.371	1.217	1	generate	Run4	generate/STIM_004.jpg
2764.357	1.09	1	generate	Run4	generate/STIM_005.jpg
2768.703	1.686	1	generate	Run4	generate/STIM_005.jpg
2773.927	2.125	1	generate	Run4	generate/STIM_005.jpg
2779.624	1.634	1	generate	Run4	generate/STIM_005.jpg
2783.514	1.791	1	generate	Run4	generate/STIM_005.jpg
2789.072	1.974	1	generate	Run4	generate/STIM_006.jpg
2794.328	1.744	1	generate	Run4	generate/STIM_006.jpg
2799.117	1.816	1	generate	Run4	generate/STIM_006.jpg
2802.972	1.952	1	generate	Run4	generate/STIM_006.jpg
2808.142	1.762	1	generate	Run4	generate/STIM_006.jpg
2812.599	1.37	1	generate	Run4	generate/STIM_007.jpg
2816.556	2.012	1	generate	Run4	generate/STIM_007.jpg
2822.463	1.392	1	generate	Run4	generate/STIM_007.jpg
2827.05	1.131	1	generate	Run4	generate/STIM_007.jpg
2830.764	1.716	1	generate	Run4	generate/STIM_007.jpg
2835.776	1.05	1	generate	Run4	generate/STIM_008.jpg
2840.433	1.928	1	generate	Run4	generate/STIM_008.jpg
2845.802	1.459	1	generate	Run4	generate/STIM_008.jpg
2849.916	2.223	1	generate	Run4	generate/STIM_008.jpg
2854.859	1.667	1	generate	Run4	generate/STIM_008.jpg
2860.119	1.129	1	generate	Run4	generate/STIM_009.jpg
2864.855	1.906	1	generate	Run4	generate/STIM_009.jpg
2868.909	1.201	1	generate	Run4	generate/STIM_009.jpg
2872.586	1.362	1	generate	Run4	generate/STIM_009.jpg
2877.377	2.006	1	generate	Run4	generate/STIM_009.jpg
2881.911	1.43	1	generate	Run4	generate/STIM_010.jpg
2886.86	2.295	1	generate	Run4	generate/STIM_010.jpg
2891.466	1.593	1	generate	Run4	generate/STIM_010.jpg
2896.129	1.864	1	generate	Run4	generate/STIM_010.jpg
2901.174	1.809	1	generate	Run4	generate/STIM_010.jpg
2906.206	2.256	1	generate	Run4	generate/STIM_011.jpg
2910.854	1.489	1	generate	Run4	generate/STIM_011.jpg
2914.367	1.76	1	generate	Run4	generate/STIM_011.jpg
2919.884	0.968	1	generate	Run4	generate/STIM_011.jpg
2924.196	1.205	1	generate	Run4	generate/STIM_011.jpg
2927.954	1.385	1	generate	Run4	generate/STIM_012.jpg
2932.089	1.432	1	generate	Run4	generate/STIM_012.jpg
2936.121	1.225	1	generate	Run4	generate/STIM_012.jpg
2941.209	1.518	1	generate	Run4	generate/STIM_012.jpg
2945.515	2.22	1	generate	Run4	generate/STIM_012.jpg
2951.093	1.994	1	generate	Run4	generate/STIM_013.jpg
2956.989	1.26	1	generate	Run4	generate/STIM_013.jpg
2960.619	1.028	1	generate	Run4	generate/STIM_013.jpg
2965.561	1.67	1	generate	Run4	generate/STIM_013.jpg
2971.039	1.747	1	generate	Run4	generate/STIM_013.jpg
2975.472	1.008	1	generate	Run4	generate/STIM_014.jpg
2978.948	2.053	1	generate	Run4	generate/STIM_014.jpg
2984.354	1.375	1	generate	Run4	generate/STIM_014.jpg
2988.776	1.76	1	generate	Run4	generate/STIM_014.jpg
2994.313	1.361	0	generate	Run4	generate/STIM_014.jpg
2997.717	1.025	1	generate	Run4	generate/STIM_015.jpg
3001.051	2.082	1	generate	Run4	generate/STIM_015.jpg
3005.791	1.243	1	generate	Run4	generate/STIM_015.jpg
3009.969	0.933	1	generate	Run4	generate/STIM_015.jpg
3013.501	1.954	1	generate	Run4	generate/STIM_015.jpg
3019.312	1.085	1	generate	Run4	generate/STIM_016.jpg
3024.018	1.793	1	generate	Run4	generate/STIM_016.jpg
3028.42	2.003	1	generate	Run4	generate/STIM_016.jpg
3032.674	1.866	1	generate	Run4	generate/STIM_016.jpg
3038.206	1.637	1	generate	Run4	generate/STIM_016.jpg
3042.909	1.938	1	generate	Run4	generate/STIM_017.jpg
3048.804	1.342	0	generate	Run4	generate/STIM_017.jpg
3053.821	1.181	1	generate	Run4	generate/STIM_017.jpg
3057.592	1.434	1	generate	Run4	generate/STIM_017.jpg
3061.327	1.614	1	generate	Run4	generate/STIM_017.jpg
3066.561	1.849	1	generate	Run4	generate/STIM_018.jpg
3071.097	1.917	1	generate	Run4	generate/STIM_018.jpg
3075.456	2.104	1	generate	Run4	generate/STIM_018.jpg
3081.4	1.141	1	generate	Run4	generate/STIM_018.jpg
3086.13	1.674	1	generate	Run4	generate/STIM_018.jpg
3091.385	0.997	1	generate	Run4	generate/STIM_019.jpg
3094.782	1.023	1	generate	Run4	generate/STIM_019.jpg
3098.255	1.971	1	generate	Run4	generate/STIM_019.jpg
3102.655	1.086	1	generate	Run4	generate/STIM_019.jpg
3105.848	2.169	1	generate	Run4	generate/STIM_019.jpg
3110.55	1.336	1	generate	Run4	generate/STIM_020.jpg
3115.052	2.199	1	generate	Run4	generate/STIM_020.jpg
3120.091	2.085	1	generate	Run4	generate/STIM_020.jpg
3126.158	1.378	1	generate	Run4	generate/STIM_020.jpg
3129.544	1.057	1	generate	Run4	generate/STIM_020.jpg
3134.325	1.98	1	generate	Run4	generate/STIM_021.jpg
3139.187	0.978	1	generate	Run4	generate/STIM_021.jpg
3143.242	2.054	1	generate	Run4	generate/STIM_021.jpg
3148.111	1.962	1	generate	Run4	generate/STIM_021.jpg
3153.707	1.247	1	generate	Run4	generate/STIM_021.jpg
3158.554	1.059	1	generate	Run4	generate/STIM_022.jpg
3162.129	1.378	1	generate	Run4	generate/STIM_022.jpg
3165.939	1.758	1	generate	Run4	generate/STIM_022.jpg
3170.35	1.506	1	generate	Run4	generate/STIM_022.jpg
3175.143	1.634	1	generate	Run4	generate/STIM_022.jpg
3179.94	1.124	1	generate	Run4	generate/STIM_023.jpg
3183.843	1.5	1	generate	Run4	generate/STIM_023.jpg
3188.824	1.949	1	generate	Run4	generate/STIM_023.jpg
3193.808	1.94	1	generate	Run4	generate/STIM_023.jpg
3199.478	1.733	1	generate	Run4	generate/STIM_023.jpg
3204.312	2.11	1	generate	Run4	generate/STIM_024.jpg
3208.542	1.16	1	generate	Run4	generate/STIM_024.jpg
3212.031	1.407	1	generate	Run4	generate/STIM_024.jpg
3217.367	1.153	1	generate	Run4	generate/STIM_024.jpg
3221.069	1.168	1	generate	Run4	generate/STIM_024.jpg
3225.136	0.676	1	repeat	Run4	repeat/STIM_000.jpg
3228.122	1.085	0	repeat	Run4	repeat/STIM_000.jpg
3231.705	0.687	1	repeat	Run4	repeat/STIM_000.jpg
3235.014	0.608	0	repeat	Run4	repeat/STIM_000.jpg
3238.133	1.072	1	repeat	Run4	repeat/STIM_000.jpg
3242.65	0.564	1	repeat	Run4	repeat/STIM_001.jpg
3245.742	0.816	1	repeat	Run4	repeat/STIM_001.jpg
3250.071	0.903	1	repeat	Run4	repeat/STIM_001.jpg
3253.144	0.951	1	repeat	Run4	repeat/STIM_001.jpg
3256.319	0.976	1	repeat	Run4	repeat/STIM_001.jpg
3261.251	0.723	1	repeat	Run4	repeat/STIM_002.jpg
3265.346	1.019	1	repeat	Run4	repeat/STIM_002.jpg
3270.013	1.024	0	repeat	Run4	repeat/STIM_002.jpg
3273.513	0.75	1	repeat	Run4	repeat/STIM_002.jpg
3276.769	0.685	1	repeat	Run4	repeat/STIM_002.jpg
3280.723	0.812	1	repeat	Run4	repeat/STIM_003.jpg
3284.265	0.835	1	repeat	Run4	repeat/STIM_003.jpg
3287.445	0.778	1	repeat	Run4	repeat/STIM_003.jpg
3291.417	0.984	1	repeat	Run4	repeat/STIM_003.jpg
3295.811	0.966	1	repeat	Run4	repeat/STIM_003.jpg
3300.494	0.647	1	repeat	Run4	repeat/STIM_004.jpg
3304.772	0.948	1	repeat	Run4	repeat/STIM_004.jpg
3309.593	1.043	1	repeat	Run4	repeat/STIM_004.jpg
3313.362	0.709	1	repeat	Run4	repeat/STIM_004.jpg
3316.551	0.728	1	repeat	Run4	repeat/STIM_004.jpg
3321.025	0.761	1	repeat	Run4	repeat/STIM_005.jpg
3325.356	0.652	1	repeat	Run4	repeat/STIM_005.jpg
3328.29	0.646	1	repeat	Run4	repeat/STIM_005.jpg
3331.629	0.558	1	repeat	Run4	repeat/STIM_005.jpg
3334.398	0.791	1	repeat	Run4	repeat/STIM_005.jpg
3338.045	1.088	1	repeat	Run4	repeat/STIM_006.jpg
3343.129	0.909	1	repeat	Run4	repeat/STIM_006.jpg
3346.377	0.681	1	repeat	Run4	repeat/STIM_006.jpg
3350.649	0.764	1	repeat	Run4	repeat/STIM_006.jpg
3355.165	0.736	1	repeat	Run4	repeat/STIM_006.jpg
3358.304	0.861	1	repeat	Run4	repeat/STIM_007.jpg
3363.135	0.859	1	repeat	Run4	repeat/STIM_007.jpg
3367.306	1.072	1	repeat	Run4	repeat/STIM_007.jpg
3371.141	0.612	1	repeat	Run4	repeat/STIM_007.jpg
3373.931	0.917	1	repeat	Run4	repeat/STIM_007.jpg
3378.686	0.919	1	repeat	Run4	repeat/STIM_008.jpg
3382.314	1.034	1	repeat	Run4	repeat/STIM_008.jpg
3386.252	0.64	1	repeat	Run4	repeat/STIM_008.jpg
3389.462	0.644	1	repeat	Run4	repeat/STIM_008.jpg
3393.597	0.672	1	repeat	Run4	repeat/STIM_008.jpg
3397.22	0.632	1	repeat	Run4	repeat/STIM_009.jpg
3400.241	0.615	1	repeat	Run4	repeat/STIM_009.jpg
3403.15	0.892	1	repeat	Run4	repeat/STIM_009.jpg
3408.009	0.819	1	repeat	Run4	repeat/STIM_009.jpg
3410.904	0.709	1	repeat	Run4	repeat/STIM_009.jpg
3413.686	0.947	1	repeat	Run4	repeat/STIM_010.jpg
3417.415	1.025	1	repeat	Run4	repeat/STIM_010.jpg
3421.847	0.658	1	repeat	Run4	repeat/STIM_010.jpg
3426.409	1.039	1	repeat	Run4	repeat/STIM_010.jpg
3430.788	0.965	1	repeat	Run4	repeat/STIM_010.jpg
3434.541	0.692	1	repeat	Run4	repeat/STIM_011.jpg
3437.941	1.059	1	repeat	Run4	repeat/STIM_011.jpg
3442.176	1.028	1	repeat	Run4	repeat/STIM_011.jpg
3446.934	0.769	1	repeat	Run4	repeat/STIM_011.jpg
3451.438	0.611	1	repeat	Run4	repeat/STIM_011.jpg
3456.02	0.755	1	repeat	Run4	repeat/STIM_012.jpg
3460.145	0.731	1	repeat	Run4	repeat/STIM_012.jpg
3464.588	0.747	1	repeat	Run4	repeat/STIM_012.jpg
3467.772	0.874	1	repeat	Run4	repeat/STIM_012.jpg
3472.118	0.731	1	repeat	Run4	repeat/STIM_012.jpg
3476.204	0.591	1	repeat	Run4	repeat/STIM_013.jpg
3479.081	0.882	1	repeat	Run4	repeat/STIM_013.jpg
3482.746	0.622	1	repeat	Run4	repeat/STIM_013.jpg
3486.526	0.667	1	repeat	Run4	repeat/STIM_013.jpg
3490.975	0.674	1	repeat	Run4	repeat/STIM_013.jpg
3493.99	0.799	1	repeat	Run4	repeat/STIM_014.jpg
3497.249	0.665	1	repeat	Run4	repeat/STIM_014.jpg
3500.173	0.682	1	repeat	Run4	repeat/STIM_014.jpg
3503.89	0.667	1	repeat	Run4	repeat/STIM_014.jpg
3508.266	0.865	1	repeat	Run4	repeat/STIM_014.jpg
