onset	duration	response_time_ms	trial_type	learning_stage	stimulus	response_port
0.0	1.939	1939.4	generate	Run1	generate/STIM_000.jpg	99
3.954	3.184	3184.5	generate	Run1	generate/STIM_000.jpg	99
10.382	1.935	1934.6	generate	Run1	generate/STIM_000.jpg	100
15.225	1.522	1521.7	generate	Run1	generate/STIM_000.jpg	99
20.351	2.053	2053.3	generate	Run1	generate/STIM_000.jpg	100
25.895	1.997	1996.6	generate	Run1	generate/STIM_001.jpg	99
30.541	1.785	1785.2	generate	Run1	generate/STIM_001.jpg	99
34.792	2.997	2997.4	generate	Run1	generate/STIM_001.jpg	100
39.737	1.858	1858.3	generate	Run1	generate/STIM_001.jpg	100
45.126	2.052	2052.4	generate	Run1	generate/STIM_001.jpg	99
49.523	1.557	1557.3	generate	Run1	generate/STIM_002.jpg	100
54.697	3.121	3120.6	generate	Run1	generate/STIM_002.jpg	100
61.073	1.999	1999.4	generate	Run1	generate/STIM_002.jpg	100
66.117	2.681	2680.8	generate	Run1	generate/STIM_002.jpg	99
70.987	1.506	1505.5	generate	Run1	generate/STIM_002.jpg	100
75.616	1.72	1720.3	generate	Run1	generate/STIM_003.jpg	99
80.855	1.286	1286.1	generate	Run1	generate/STIM_003.jpg	99
84.436	1.929	1928.6	generate	Run1	generate/STIM_003.jpg	99
88.623	2.745	2745.2	generate	Run1	generate/STIM_003.jpg	99
93.818	2.266	2265.9	generate	Run1	generate/STIM_003.jpg	99
98.294	2.268	2267.9	generate	Run1	generate/STIM_004.jpg	100
102.655	2.272	2271.8	generate	Run1	generate/STIM_004.jpg	100
108.472	1.996	1996.4	generate	Run1	generate/STIM_004.jpg	100
113.839	1.499	1499.4	generate	Run1	generate/STIM_004.jpg	100
117.974	2.69	2689.6	generate	Run1	generate/STIM_004.jpg	100
123.407	1.796	1796.4	generate	Run1	generate/STIM_005.jpg	100
127.624	2.48	2479.7	generate	Run1	generate/STIM_005.jpg	99
133.387	2.395	2394.6	generate	Run1	generate/STIM_005.jpg	100
138.009	2.399	2398.6	generate	Run1	generate/STIM_005.jpg	100
143.678	1.812	1812.1	generate	Run1	generate/STIM_005.jpg	100
147.859	3.137	3137.1	generate	Run1	generate/STIM_006.jpg	99
152.851	2.874	2874.5	generate	Run1	generate/STIM_006.jpg	100
158.368	1.914	1913.7	generate	Run1	generate/STIM_006.jpg	100
163.402	1.999	1999.2	generate	Run1	generate/STIM_006.jpg	99
168.826	2.159	2159.3	generate	Run1	generate/STIM_006.jpg	100
173.078	3.141	3140.9	generate	Run1	generate/STIM_007.jpg	100
179.171	2.891	2891.1	generate	Run1	generate/STIM_007.jpg	99
185.131	1.41	1409.9	generate	Run1	generate/STIM_007.jpg	100
188.818	2.854	2854.1	generate	Run1	generate/STIM_007.jpg	99
193.819	1.532	1532.1	generate	Run1	generate/STIM_007.jpg	100
197.295	1.791	1791.1	generate	Run1	generate/STIM_008.jpg	99
202.478	2.716	2716.4	generate	Run1	generate/STIM_008.jpg	99
207.289	2.564	2563.6	generate	Run1	generate/STIM_008.jpg	100
212.605	2.729	2729.1	generate	Run1	generate/STIM_008.jpg	100
218.649	1.629	1629.2	generate	Run1	generate/STIM_008.jpg	99
222.39	2.121	2120.7	generate	Run1	generate/STIM_009.jpg	100
227.619	1.673	1673.3	generate	Run1	generate/STIM_009.jpg	100
232.463	1.886	1885.6	generate	Run1	generate/STIM_009.jpg	99
236.88	2.508	2508.3	generate	Run1	generate/STIM_009.jpg	99
241.648	1.873	1873.0	generate	Run1	generate/STIM_009.jpg	100
245.705	2.461	2461.3	generate	Run1	generate/STIM_010.jpg	100
251.497	2.777	2776.7	generate	Run1	generate/STIM_010.jpg	99
257.318	2.472	2472.0	generate	Run1	generate/STIM_010.jpg	100
261.659	1.38	1379.8	generate	Run1	generate/STIM_010.jpg	100
265.945	2.426	2426.5	generate	Run1	generate/STIM_010.jpg	99
270.902	3.003	3003.2	generate	Run1	generate/STIM_011.jpg	100
276.41	1.632	1631.9	generate	Run1	generate/STIM_011.jpg	99
280.992	2.88	2879.8	generate	Run1	generate/STIM_011.jpg	99
285.516	2.576	2575.8	generate	Run1	generate/STIM_011.jpg	99
291.782	1.784	1783.7	generate	Run1	generate/STIM_011.jpg	100
296.391	1.7	1700.4	generate	Run1	generate/STIM_012.jpg	99
300.494	2.824	2824.3	generate	Run1	generate/STIM_012.jpg	100
306.52	1.548	1548.1	generate	Run1	generate/STIM_012.jpg	99
311.196	1.99	1989.7	generate	Run1	generate/STIM_012.jpg	100
315.688	2.478	2478.0	generate	Run1	generate/STIM_012.jpg	99
321.692	1.394	1394.4	generate	Run1	generate/STIM_013.jpg	100
326.403	1.53	1530.3	generate	Run1	generate/STIM_013.jpg	99
329.708	2.822	2822.3	generate	Run1	generate/STIM_013.jpg	100
335.388	1.808	1807.6	generate	Run1	generate/STIM_013.jpg	99
340.977	1.44	1440.4	generate	Run1	generate/STIM_013.jpg	99
345.486	3.294	3294.3	generate	Run1	generate/STIM_014.jpg	100
351.971	1.422	1421.9	generate	Run1	generate/STIM_014.jpg	100
355.364	1.363	1362.8	generate	Run1	generate/STIM_014.jpg	99
360.351	1.735	1734.7	generate	Run1	generate/STIM_014.jpg	99
364.519	1.584	1583.8	generate	Run1	generate/STIM_014.jpg	100
368.335	1.928	1928.1	generate	Run1	generate/STIM_015.jpg	99
372.869	2.322	2322.4	generate	Run1	generate/STIM_015.jpg	99
377.019	2.52	2520.3	generate	Run1	generate/STIM_015.jpg	99
381.38	2.222	2222.3	generate	Run1	generate/STIM_015.jpg	99
385.575	1.141	1140.6	generate	Run1	generate/STIM_015.jpg	100
388.798	1.728	1728.3	generate	Run1	generate/STIM_016.jpg	100
392.322	1.471	1470.7	generate	Run1	generate/STIM_016.jpg	99
396.737	2.864	2863.7	generate	Run1	generate/STIM_016.jpg	100
403.067	2.518	2518.4	generate	Run1	generate/STIM_016.jpg	99
409.156	1.553	1552.8	generate	Run1	generate/STIM_016.jpg	99
412.712	2.517	2517.4	generate	Run1	generate/STIM_017.jpg	100
418.551	1.992	1991.9	generate	Run1	generate/STIM_017.jpg	100
423.977	2.534	2533.5	generate	Run1	generate/STIM_017.jpg	100
429.79	1.373	1372.9	generate	Run1	generate/STIM_017.jpg	99
434.896	2.509	2509.2	generate	Run1	generate/STIM_017.jpg	100
440.299	2.951	2951.1	generate	Run1	generate/STIM_018.jpg	99
446.189	2.995	2995.0	generate	Run1	generate/STIM_018.jpg	99
451.794	2.08	2079.9	generate	Run1	generate/STIM_018.jpg	100
456.693	2.676	2676.5	generate	Run1	generate/STIM_018.jpg	99
462.808	1.281	1280.6	generate	Run1	generate/STIM_018.jpg	100
467.445	3.399	3399.0	generate	Run1	generate/STIM_019.jpg	100
473.801	2.852	2851.6	generate	Run1	generate/STIM_019.jpg	100
478.643	2.94	2939.9	generate	Run1	generate/STIM_019.jpg	99
483.404	2.01	2010.0	generate	Run1	generate/STIM_019.jpg	100
489.039	1.513	1513.1	generate	Run1	generate/STIM_019.jpg	100
493.299	2.49	2489.9	generate	Run1	generate/STIM_020.jpg	99
499.114	1.476	1475.5	generate	Run1	generate/STIM_020.jpg	99
504.043	2.046	2046.1	generate	Run1	generate/STIM_020.jpg	100
507.893	2.464	2464.3	generate	Run1	generate/STIM_020.jpg	99
513.637	1.104	1103.8	generate	Run1	generate/STIM_020.jpg	100
517.043	2.419	2418.6	generate	Run1	generate/STIM_021.jpg	100
521.912	2.935	2934.9	generate	Run1	generate/STIM_021.jpg	100
527.763	2.442	2442.0	generate	Run1	generate/STIM_021.jpg	100
533.612	1.672	1671.9	generate	Run1	generate/STIM_021.jpg	100
537.695	1.276	1275.8	generate	Run1	generate/STIM_021.jpg	99
542.524	2.921	2921.0	generate	Run1	generate/STIM_022.jpg	100
549.093	3.084	3084.1	generate	Run1	generate/STIM_022.jpg	99
553.94	1.265	1264.7	generate	Run1	generate/STIM_022.jpg	99
557.698	2.848	2847.7	generate	Run1	generate/STIM_022.jpg	99
562.623	2.263	2262.6	generate	Run1	generate/STIM_022.jpg	100
566.653	2.637	2636.8	generate	Run1	generate/STIM_023.jpg	99
571.116	1.295	1295.0	generate	Run1	generate/STIM_023.jpg	100
574.785	2.423	2423.1	generate	Run1	generate/STIM_023.jpg	100
579.958	2.56	2559.9	generate	Run1	generate/STIM_023.jpg	100
584.527	2.162	2161.8	generate	Run1	generate/STIM_023.jpg	99
589.823	1.843	1842.8	generate	Run1	generate/STIM_024.jpg	99
595.082	2.702	2702.5	generate	Run1	generate/STIM_024.jpg	99
601.302	2.342	2341.7	generate	Run1	generate/STIM_024.jpg	100
606.573	1.546	1546.2	generate	Run1	generate/STIM_024.jpg	99
610.785	1.714	1713.9	generate	Run1	generate/STIM_024.jpg	100
615.757	0.846	846.1	repeat	Run1	repeat/STIM_000.jpg	99
619.068	0.718	718.1	repeat	Run1	repeat/STIM_000.jpg	99
622.204	1.096	1096.0	repeat	Run1	repeat/STIM_000.jpg	100
625.479	0.593	592.7	repeat	Run1	repeat/STIM_000.jpg	99
629.164	0.807	807.3	repeat	Run1	repeat/STIM_000.jpg	100
633.019	1.024	1024.5	repeat	Run1	repeat/STIM_001.jpg	99
637.62	0.724	723.9	repeat	Run1	repeat/STIM_001.jpg	99
641.75	1.005	1004.7	repeat	Run1	repeat/STIM_001.jpg	99
646.554	1.17	1170.5	repeat	Run1	repeat/STIM_001.jpg	100
650.167	0.798	797.6	repeat	Run1	repeat/STIM_001.jpg	100
654.89	0.952	952.2	repeat	Run1	repeat/STIM_002.jpg	100
659.336	1.0	999.8	repeat	Run1	repeat/STIM_002.jpg	100
663.993	0.87	870.5	repeat	Run1	repeat/STIM_002.jpg	100
668.248	0.974	974.4	repeat	Run1	repeat/STIM_002.jpg	99
672.357	0.816	816.3	repeat	Run1	repeat/STIM_002.jpg	99
676.484	0.73	729.9	repeat	Run1	repeat/STIM_003.jpg	100
679.232	0.915	914.6	repeat	Run1	repeat/STIM_003.jpg	99
682.679	1.027	1026.6	repeat	Run1	repeat/STIM_003.jpg	100
686.791	0.651	650.9	repeat	Run1	repeat/STIM_003.jpg	99
689.779	0.662	662.0	repeat	Run1	repeat/STIM_003.jpg	99
692.764	0.753	752.7	repeat	Run1	repeat/STIM_004.jpg	100
697.148	0.999	999.3	repeat	Run1	repeat/STIM_004.jpg	100
701.189	0.904	903.6	repeat	Run1	repeat/STIM_004.jpg	99
705.386	1.057	1057.4	repeat	Run1	repeat/STIM_004.jpg	100
709.463	1.146	1145.5	repeat	Run1	repeat/STIM_004.jpg	100
712.969	0.95	950.2	repeat	Run1	repeat/STIM_005.jpg	100
717.239	0.801	801.4	repeat	Run1	repeat/STIM_005.jpg	100
720.511	0.72	719.8	repeat	Run1	repeat/STIM_005.jpg	99
724.727	0.974	974.4	repeat	Run1	repeat/STIM_005.jpg	99
728.86	1.182	1182.0	repeat	Run1	repeat/STIM_005.jpg	99
733.763	0.652	652.5	repeat	Run1	repeat/STIM_006.jpg	100
736.543	0.713	712.9	repeat	Run1	repeat/STIM_006.jpg	100
740.583	0.705	705.4	repeat	Run1	repeat/STIM_006.jpg	100
743.491	1.031	1031.3	repeat	Run1	repeat/STIM_006.jpg	100
748.088	0.698	697.5	repeat	Run1	repeat/STIM_006.jpg	99
750.862	1.044	1043.5	repeat	Run1	repeat/STIM_007.jpg	100
754.756	0.642	641.9	repeat	Run1	repeat/STIM_007.jpg	100
757.871	0.666	665.6	repeat	Run1	repeat/STIM_007.jpg	99
760.493	0.825	824.8	repeat	Run1	repeat/STIM_007.jpg	99
763.703	1.02	1020.3	repeat	Run1	repeat/STIM_007.jpg	100
767.69	0.799	799.3	repeat	Run1	repeat/STIM_008.jpg	99
771.745	0.771	770.9	repeat	Run1	repeat/STIM_008.jpg	100
776.31	0.669	668.6	repeat	Run1	repeat/STIM_008.jpg	99
780.923	1.128	1128.5	repeat	Run1	repeat/STIM_008.jpg	100
785.566	0.696	696.5	repeat	Run1	repeat/STIM_008.jpg	99
789.07	1.098	1098.4	repeat	Run1	repeat/STIM_009.jpg	99
792.689	0.727	727.4	repeat	Run1	repeat/STIM_009.jpg	100
796.705	0.905	905.4	repeat	Run1	repeat/STIM_009.jpg	99
800.074	0.992	992.0	repeat	Run1	repeat/STIM_009.jpg	100
804.869	0.671	671.4	repeat	Run1	repeat/STIM_009.jpg	100
809.21	0.875	874.7	repeat	Run1	repeat/STIM_010.jpg	99
812.649	0.825	824.6	repeat	Run1	repeat/STIM_010.jpg	99
815.643	0.941	941.4	repeat	Run1	repeat/STIM_010.jpg	99
818.896	0.945	944.9	repeat	Run1	repeat/STIM_010.jpg	100
822.818	0.639	639.1	repeat	Run1	repeat/STIM_010.jpg	99
825.947	0.763	763.4	repeat	Run1	repeat/STIM_011.jpg	99
829.824	0.758	758.3	repeat	Run1	repeat/STIM_011.jpg	100
834.033	1.027	1026.8	repeat	Run1	repeat/STIM_011.jpg	99
837.013	0.923	922.8	repeat	Run1	repeat/STIM_011.jpg	100
841.535	0.926	926.2	repeat	Run1	repeat/STIM_011.jpg	99
845.347	1.002	1001.5	repeat	Run1	repeat/STIM_012.jpg	100
850.141	1.07	1070.3	repeat	Run1	repeat/STIM_012.jpg	99
853.149	0.818	818.4	repeat	Run1	repeat/STIM_012.jpg	99
857.288	0.993	992.9	repeat	Run1	repeat/STIM_012.jpg	100
862.128	0.674	673.6	repeat	Run1	repeat/STIM_012.jpg	99
865.867	0.593	592.8	repeat	Run1	repeat/STIM_013.jpg	99
868.665	0.742	741.6	repeat	Run1	repeat/STIM_013.jpg	99
872.615	0.707	707.2	repeat	Run1	repeat/STIM_013.jpg	100
877.108	1.123	1123.2	repeat	Run1	repeat/STIM_013.jpg	100
880.615	1.025	1025.0	repeat	Run1	repeat/STIM_013.jpg	99
883.971	0.971	970.9	repeat	Run1	repeat/STIM_014.jpg	99
887.352	0.6	599.8	repeat	Run1	repeat/STIM_014.jpg	100
891.379	0.935	934.6	repeat	Run1	repeat/STIM_014.jpg	99
895.547	0.646	646.4	repeat	Run1	repeat/STIM_014.jpg	100
899.734	1.025	1025.2	repeat	Run1	repeat/STIM_014.jpg	100
903.318	1.803	1802.6	generate	Run2	generate/STIM_000.jpg	99
907.829	1.467	1467.2	generate	Run2	generate/STIM_000.jpg	100
912.251	1.903	1902.8	generate	Run2	generate/STIM_000.jpg	100
917.062	2.215	2214.6	generate	Run2	generate/STIM_000.jpg	100
921.863	1.057	1057.3	generate	Run2	generate/STIM_000.jpg	99
925.289	2.605	2604.9	generate	Run2	generate/STIM_001.jpg	100
929.84	1.8	1800.0	generate	Run2	generate/STIM_001.jpg	100
933.466	1.075	1075.2	generate	Run2	generate/STIM_001.jpg	99
937.555	1.527	1526.8	generate	Run2	generate/STIM_001.jpg	99
941.593	1.949	1949.2	generate	Run2	generate/STIM_001.jpg	100
946.389	1.644	1643.5	generate	Run2	generate/STIM_002.jpg	99
951.218	1.585	1585.2	generate	Run2	generate/STIM_002.jpg	99
956.135	2.26	2260.3	generate	Run2	generate/STIM_002.jpg	99
961.424	1.294	1294.0	generate	Run2	generate/STIM_002.jpg	100
966.258	1.226	1226.3	generate	Run2	generate/STIM_002.jpg	99
970.393	2.057	2056.6	generate	Run2	generate/STIM_003.jpg	100
975.085	1.259	1259.3	generate	Run2	generate/STIM_003.jpg	100
978.703	1.543	1542.6	generate	Run2	generate/STIM_003.jpg	99
982.904	1.036	1035.5	generate	Run2	generate/STIM_003.jpg	100
987.284	1.985	1985.4	generate	Run2	generate/STIM_003.jpg	99
992.669	1.526	1525.8	generate	Run2	generate/STIM_004.jpg	99
996.594	2.446	2446.5	generate	Run2	generate/STIM_004.jpg	99
1000.835	1.754	1754.0	generate	Run2	generate/STIM_004.jpg	99
1004.807	2.078	2077.5	generate	Run2	generate/STIM_004.jpg	99
1010.452	2.016	2015.9	generate	Run2	generate/STIM_004.jpg	99
1015.507	1.971	1971.4	generate	Run2	generate/STIM_005.jpg	99
1019.693	1.199	1198.7	generate	Run2	generate/STIM_005.jpg	99
1023.352	1.83	1830.2	generate	Run2	generate/STIM_005.jpg	100
1027.644	1.598	1598.2	generate	Run2	generate/STIM_005.jpg	99
1031.324	1.354	1354.1	generate	Run2	generate/STIM_005.jpg	99
1035.858	2.186	2186.5	generate	Run2	generate/STIM_006.jpg	100
1040.31	1.267	1266.6	generate	Run2	generate/STIM_006.jpg	100
1045.016	1.682	1681.6	generate	Run2	generate/STIM_006.jpg	100
1048.727	2.358	2358.3	generate	Run2	generate/STIM_006.jpg	100
1053.033	1.51	1510.2	generate	Run2	generate/STIM_006.jpg	99
1057.988	1.9	1900.3	generate	Run2	generate/STIM_007.jpg	99
1061.903	2.45	2450.4	generate	Run2	generate/STIM_007.jpg	100
1067.758	1.76	1760.5	generate	Run2	generate/STIM_007.jpg	100
1071.76	1.032	1032.2	generate	Run2	generate/STIM_007.jpg	99
1075.168	1.872	1872.4	generate	Run2	generate/STIM_007.jpg	99
1080.285	1.366	1365.9	generate	Run2	generate/STIM_008.jpg	100
1084.069	1.59	1589.8	generate	Run2	generate/STIM_008.jpg	100
1087.599	1.191	1190.6	generate	Run2	generate/STIM_008.jpg	100
1092.145	1.571	1571.1	generate	Run2	generate/STIM_008.jpg	100
1096.488	1.85	1849.7	generate	Run2	generate/STIM_008.jpg	99
1100.46	1.463	1463.4	generate	Run2	generate/STIM_009.jpg	100
1105.74	1.666	1665.9	generate	Run2	generate/STIM_009.jpg	100
1110.107	2.165	2165.1	generate	Run2	generate/STIM_009.jpg	100
1115.849	1.186	1186.0	generate	Run2	generate/STIM_009.jpg	100
1119.688	1.103	1102.9	generate	Run2	generate/STIM_009.jpg	100
1123.369	2.343	2342.8	generate	Run2	generate/STIM_010.jpg	100
1127.632	2.567	2567.2	generate	Run2	generate/STIM_010.jpg	100
1132.658	2.314	2313.5	generate	Run2	generate/STIM_010.jpg	100
1138.583	1.261	1261.1	generate	Run2	generate/STIM_010.jpg	99
1143.233	2.147	2146.7	generate	Run2	generate/STIM_010.jpg	100
1148.509	2.777	2777.2	generate	Run2	generate/STIM_011.jpg	99
1154.112	1.996	1996.5	generate	Run2	generate/STIM_011.jpg	99
1157.963	2.307	2307.4	generate	Run2	generate/STIM_011.jpg	99
1162.922	2.369	2369.4	generate	Run2	generate/STIM_011.jpg	99
1167.831	1.877	1877.3	generate	Run2	generate/STIM_011.jpg	100
1172.294	1.653	1653.4	generate	Run2	generate/STIM_012.jpg	100
1177.272	2.66	2660.1	generate	Run2	generate/STIM_012.jpg	100
1182.663	1.72	1720.3	generate	Run2	generate/STIM_012.jpg	99
1186.747	1.096	1095.8	generate	Run2	generate/STIM_012.jpg	100
1191.053	2.35	2350.3	generate	Run2	generate/STIM_012.jpg	99
1197.049	1.292	1292.0	generate	Run2	generate/STIM_013.jpg	100
1201.33	1.769	1769.3	generate	Run2	generate/STIM_013.jpg	100
1206.755	1.628	1628.4	generate	Run2	generate/STIM_013.jpg	99
1211.546	1.308	1308.0	generate	Run2	generate/STIM_013.jpg	99
1216.394	1.366	1366.2	generate	Run2	generate/STIM_013.jpg	99
1221.029	2.025	2024.7	generate	Run2	generate/STIM_014.jpg	99
1225.183	2.417	2417.1	generate	Run2	generate/STIM_014.jpg	99
1231.319	2.367	2367.3	generate	Run2	generate/STIM_014.jpg	100
1236.884	2.019	2018.9	generate	Run2	generate/STIM_014.jpg	99
1242.067	1.484	1483.6	generate	Run2	generate/STIM_014.jpg	99
1246.967	2.267	2266.9	generate	Run2	generate/STIM_015.jpg	99
1252.483	2.346	2346.3	generate	Run2	generate/STIM_015.jpg	100
1258.182	1.453	1453.0	generate	Run2	generate/STIM_015.jpg	99
1262.476	1.738	1737.9	generate	Run2	generate/STIM_015.jpg	100
1266.732	2.117	2117.2	generate	Run2	generate/STIM_015.jpg	100
1271.484	1.318	1317.6	generate	Run2	generate/STIM_016.jpg	99
1275.839	1.246	1245.7	generate	Run2	generate/STIM_016.jpg	100
1280.511	2.061	2061.2	generate	Run2	generate/STIM_016.jpg	99
1284.465	1.179	1178.6	generate	Run2	generate/STIM_016.jpg	100
1287.823	2.264	2264.2	generate	Run2	generate/STIM_016.jpg	99
1293.124	1.548	1548.5	generate	Run2	generate/STIM_017.jpg	100
1297.376	1.775	1774.8	generate	Run2	generate/STIM_017.jpg	99
1301.06	1.512	1512.2	generate	Run2	generate/STIM_017.jpg	99
1304.874	1.324	1323.8	generate	Run2	generate/STIM_017.jpg	99
1308.947	1.656	1655.9	generate	Run2	generate/STIM_017.jpg	100
1314.403	1.667	1667.3	generate	Run2	generate/STIM_018.jpg	99
1319.126	1.449	1448.6	generate	Run2	generate/STIM_018.jpg	99
1322.472	2.127	2126.8	generate	Run2	generate/STIM_018.jpg	100
1326.603	1.456	1456.0	generate	Run2	generate/STIM_018.jpg	99
1330.164	1.702	1702.4	generate	Run2	generate/STIM_018.jpg	100
1334.004	1.144	1143.6	generate	Run2	generate/STIM_019.jpg	100
1337.494	1.519	1519.1	generate	Run2	generate/STIM_019.jpg	99
1341.176	2.496	2496.1	generate	Run2	generate/STIM_019.jpg	99
1345.686	1.862	1861.5	generate	Run2	generate/STIM_019.jpg	100
1350.558	1.451	1451.3	generate	Run2	generate/STIM_019.jpg	99
1354.593	2.233	2232.9	generate	Run2	generate/STIM_020.jpg	99
1360.375	2.712	2711.8	generate	Run2	generate/STIM_020.jpg	99
1364.794	1.704	1703.7	generate	Run2	generate/STIM_020.jpg	99
1370.098	1.4	1400.2	generate	Run2	generate/STIM_020.jpg	99
1374.918	2.173	2173.0	generate	Run2	generate/STIM_020.jpg	100
1379.193	1.554	1554.3	generate	Run2	generate/STIM_021.jpg	99
1382.724	1.591	1591.3	generate	Run2	generate/STIM_021.jpg	99
1386.675	2.059	2059.4	generate	Run2	generate/STIM_021.jpg	100
1391.683	2.027	2026.7	generate	Run2	generate/STIM_021.jpg	100
1397.168	1.778	1778.4	generate	Run2	generate/STIM_021.jpg	99
1401.175	1.942	1941.6	generate	Run2	generate/STIM_022.jpg	99
1406.179	1.162	1162.3	generate	Run2	generate/STIM_022.jpg	100
1409.375	1.743	1743.2	generate	Run2	generate/STIM_022.jpg	100
1413.607	1.625	1625.4	generate	Run2	generate/STIM_022.jpg	100
1417.321	1.408	1408.2	generate	Run2	generate/STIM_022.jpg	99
1420.774	2.316	2316.4	generate	Run2	generate/STIM_023.jpg	100
1425.533	1.491	1490.6	generate	Run2	generate/STIM_023.jpg	100
1429.354	2.218	2217.5	generate	Run2	generate/STIM_023.jpg	99
1434.259	1.75	1749.9	generate	Run2	generate/STIM_023.jpg	100
1438.541	1.1	1099.6	generate	Run2	generate/STIM_023.jpg	100
1443.351	1.708	1708.0	generate	Run2	generate/STIM_024.jpg	100
1448.691	2.531	2531.4	generate	Run2	generate/STIM_024.jpg	99
1453.239	1.643	1643.1	generate	Run2	generate/STIM_024.jpg	100
1457.402	2.33	2329.8	generate	Run2	generate/STIM_024.jpg	100
1461.922	1.099	1098.7	generate	Run2	generate/STIM_024.jpg	99
1465.873	0.527	527.3	repeat	Run2	repeat/STIM_000.jpg	100
1468.448	0.607	607.0	repeat	Run2	repeat/STIM_000.jpg	99
1471.241	0.925	924.7	repeat	Run2	repeat/STIM_000.jpg	100
1474.785	0.997	997.0	repeat	Run2	repeat/STIM_000.jpg	100
1479.533	0.941	941.1	repeat	Run2	repeat/STIM_000.jpg	99
1483.082	0.762	762.1	repeat	Run2	repeat/STIM_001.jpg	99
1486.429	0.808	807.5	repeat	Run2	repeat/STIM_001.jpg	99
1489.681	0.937	937.4	repeat	Run2	repeat/STIM_001.jpg	99
1493.456	1.028	1027.6	repeat	Run2	repeat/STIM_001.jpg	100
1496.461	1.08	1080.2	repeat	Run2	repeat/STIM_001.jpg	100
1500.246	0.582	582.0	repeat	Run2	repeat/STIM_002.jpg	99
1503.63	1.189	1188.6	repeat	Run2	repeat/STIM_002.jpg	100
1507.825	0.651	651.1	repeat	Run2	repeat/STIM_002.jpg	99
1510.459	0.779	778.6	repeat	Run2	repeat/STIM_002.jpg	99
1514.642	0.974	974.3	repeat	Run2	repeat/STIM_002.jpg	100
1519.246	0.987	986.6	repeat	Run2	repeat/STIM_003.jpg	99
1522.37	1.025	1024.6	repeat	Run2	repeat/STIM_003.jpg	99
1525.599	0.774	773.7	repeat	Run2	repeat/STIM_003.jpg	100
1529.197	0.925	924.6	repeat	Run2	repeat/STIM_003.jpg	100
1532.845	0.592	592.0	repeat	Run2	repeat/STIM_003.jpg	99
1536.523	0.842	842.1	repeat	Run2	repeat/STIM_004.jpg	100
1540.082	1.172	1172.1	repeat	Run2	repeat/STIM_004.jpg	100
1544.275	0.659	658.8	repeat	Run2	repeat/STIM_004.jpg	100
1548.008	1.161	1160.7	repeat	Run2	repeat/STIM_004.jpg	99
1552.18	0.642	642.2	repeat	Run2	repeat/STIM_004.jpg	100
1555.179	0.673	673.0	repeat	Run2	repeat/STIM_005.jpg	99
1559.752	0.868	868.2	repeat	Run2	repeat/STIM_005.jpg	100
1563.692	0.763	763.1	repeat	Run2	repeat/STIM_005.jpg	99
1568.154	1.022	1022.3	repeat	Run2	repeat/STIM_005.jpg	100
1571.871	0.691	691.0	repeat	Run2	repeat/STIM_005.jpg	99
1575.416	0.955	955.1	repeat	Run2	repeat/STIM_006.jpg	99
1578.919	1.028	1027.6	repeat	Run2	repeat/STIM_006.jpg	100
1583.581	0.801	801.0	repeat	Run2	repeat/STIM_006.jpg	99
1586.65	1.071	1070.6	repeat	Run2	repeat/STIM_006.jpg	100
1589.912	1.027	1026.6	repeat	Run2	repeat/STIM_006.jpg	100
1594.658	0.611	610.8	repeat	Run2	repeat/STIM_007.jpg	100
1597.955	0.826	826.5	repeat	Run2	repeat/STIM_007.jpg	99
1600.63	0.894	893.5	repeat	Run2	repeat/STIM_007.jpg	99
1603.818	0.92	920.0	repeat	Run2	repeat/STIM_007.jpg	99
1607.457	0.846	846.0	repeat	Run2	repeat/STIM_007.jpg	100
1611.182	0.77	769.9	repeat	Run2	repeat/STIM_008.jpg	99
1613.876	0.754	754.0	repeat	Run2	repeat/STIM_008.jpg	100
1616.938	0.712	712.3	repeat	Run2	repeat/STIM_008.jpg	99
1621.294	1.092	1091.5	repeat	Run2	repeat/STIM_008.jpg	100
1624.633	0.834	834.5	repeat	Run2	repeat/STIM_008.jpg	100
1629.425	0.762	762.5	repeat	Run2	repeat/STIM_009.jpg	99
1632.217	0.751	751.4	repeat	Run2	repeat/STIM_009.jpg	100
1635.38	0.96	960.3	repeat	Run2	repeat/STIM_009.jpg	99
1638.662	0.756	755.9	repeat	Run2	repeat/STIM_009.jpg	100
1642.483	0.712	711.5	repeat	Run2	repeat/STIM_009.jpg	99
1645.938	0.894	894.0	repeat	Run2	repeat/STIM_010.jpg	99
1650.237	0.796	796.5	repeat	Run2	repeat/STIM_010.jpg	100
1654.62	0.617	617.3	repeat	Run2	repeat/STIM_010.jpg	100
1658.925	0.993	992.7	repeat	Run2	repeat/STIM_010.jpg	100
1662.46	0.927	927.0	repeat	Run2	repeat/STIM_010.jpg	100
1666.72	1.033	1033.2	repeat	Run2	repeat/STIM_011.jpg	99
1671.579	0.96	959.9	repeat	Run2	repeat/STIM_011.jpg	100
1676.14	1.039	1038.7	repeat	Run2	repeat/STIM_011.jpg	99
1679.749	0.602	602.4	repeat	Run2	repeat/STIM_011.jpg	99
1683.723	0.844	844.4	repeat	Run2	repeat/STIM_011.jpg	99
1687.819	0.798	797.8	repeat	Run2	repeat/STIM_012.jpg	99
1691.425	0.668	668.0	repeat	Run2	repeat/STIM_012.jpg	100
1694.646	0.981	981.1	repeat	Run2	repeat/STIM_012.jpg	100
1699.263	0.844	844.4	repeat	Run2	repeat/STIM_012.jpg	100
1702.169	0.592	592.5	repeat	Run2	repeat/STIM_012.jpg	100
1706.149	1.003	1002.8	repeat	Run2	repeat/STIM_013.jpg	100
1709.055	0.925	924.7	repeat	Run2	repeat/STIM_013.jpg	99
1713.057	0.782	781.7	repeat	Run2	repeat/STIM_013.jpg	99
1716.794	1.066	1065.7	repeat	Run2	repeat/STIM_013.jpg	100
1719.834	0.937	937.2	repeat	Run2	repeat/STIM_013.jpg	100
1723.465	1.019	1018.7	repeat	Run2	repeat/STIM_014.jpg	100
1728.23	0.814	814.0	repeat	Run2	repeat/STIM_014.jpg	100
1731.708	0.674	673.8	repeat	Run2	repeat/STIM_014.jpg	99
1734.91	0.716	715.7	repeat	Run2	repeat/STIM_014.jpg	100
1738.172	0.712	712.3	repeat	Run2	repeat/STIM_014.jpg	100
1741.739	1.295	1294.9	generate	Run3	generate/STIM_000.jpg	100
1745.151	2.361	2361.4	generate	Run3	generate/STIM_000.jpg	99
1750.607	1.653	1652.9	generate	Run3	generate/STIM_000.jpg	99
1755.382	1.848	1847.8	generate	Run3	generate/STIM_000.jpg	99
1759.803	1.861	1861.3	generate	Run3	generate/STIM_000.jpg	100
1765.102	1.794	1793.9	generate	Run3	generate/STIM_001.jpg	100
1769.437	0.933	933.4	generate	Run3	generate/STIM_001.jpg	100
1774.192	2.114	2113.8	generate	Run3	generate/STIM_001.jpg	100
1778.614	1.001	1001.2	generate	Run3	generate/STIM_001.jpg	100
1781.776	1.201	1201.0	generate	Run3	generate/STIM_001.jpg	99
1786.168	1.233	1232.7	generate	Run3	generate/STIM_002.jpg	99
1789.669	1.343	1343.2	generate	Run3	generate/STIM_002.jpg	100
1793.025	1.752	1752.1	generate	Run3	generate/STIM_002.jpg	99
1797.394	1.235	1235.0	generate	Run3	generate/STIM_002.jpg	99
1801.233	1.972	1971.9	generate	Run3	generate/STIM_002.jpg	100
1805.882	2.047	2047.3	generate	Run3	generate/STIM_003.jpg	99
1809.969	1.861	1860.6	generate	Run3	generate/STIM_003.jpg	100
1815.079	0.97	970.5	generate	Run3	generate/STIM_003.jpg	99
1818.585	1.336	1336.2	generate	Run3	generate/STIM_003.jpg	99
1822.725	2.07	2070.2	generate	Run3	generate/STIM_003.jpg	100
1826.918	1.787	1787.4	generate	Run3	generate/STIM_004.jpg	100
1830.468	1.238	1238.3	generate	Run3	generate/STIM_004.jpg	100
1834.344	1.855	1854.7	generate	Run3	generate/STIM_004.jpg	99
1838.249	1.584	1584.1	generate	Run3	generate/STIM_004.jpg	100
1843.595	2.029	2028.6	generate	Run3	generate/STIM_004.jpg	100
1848.63	2.29	2289.5	generate	Run3	generate/STIM_005.jpg	100
1853.921	1.41	1410.1	generate	Run3	generate/STIM_005.jpg	100
1858.677	1.739	1738.7	generate	Run3	generate/STIM_005.jpg	99
1864.02	2.087	2087.3	generate	Run3	generate/STIM_005.jpg	100
1869.649	1.749	1749.4	generate	Run3	generate/STIM_005.jpg	99
1874.986	1.976	1976.5	generate	Run3	generate/STIM_006.jpg	99
1879.758	2.118	2118.2	generate	Run3	generate/STIM_006.jpg	99
1884.477	1.52	1519.8	generate	Run3	generate/STIM_006.jpg	100
1888.656	2.007	2007.5	generate	Run3	generate/STIM_006.jpg	99
1893.467	2.094	2093.8	generate	Run3	generate/STIM_006.jpg	99
1898.553	1.394	1393.9	generate	Run3	generate/STIM_007.jpg	99
1901.969	0.938	937.8	generate	Run3	generate/STIM_007.jpg	100
1905.751	1.329	1328.8	generate	Run3	generate/STIM_007.jpg	99
1910.053	1.898	1898.5	generate	Run3	generate/STIM_007.jpg	100
1914.663	2.22	2219.7	generate	Run3	generate/STIM_007.jpg	99
1919.764	1.458	1458.0	generate	Run3	generate/STIM_008.jpg	100
1923.222	1.832	1832.0	generate	Run3	generate/STIM_008.jpg	99
1927.758	2.165	2164.9	generate	Run3	generate/STIM_008.jpg	100
1932.029	1.88	1879.5	generate	Run3	generate/STIM_008.jpg	99
1936.772	1.07	1069.6	generate	Run3	generate/STIM_008.jpg	99
1941.561	1.415	1415.4	generate	Run3	generate/STIM_009.jpg	99
1946.621	2.166	2166.5	generate	Run3	generate/STIM_009.jpg	100
1951.576	1.432	1432.4	generate	Run3	generate/STIM_009.jpg	100
1955.838	1.598	1597.7	generate	Run3	generate/STIM_009.jpg	100
1960.545	1.726	1725.8	generate	Run3	generate/STIM_009.jpg	99
1965.762	2.309	2309.0	generate	Run3	generate/STIM_010.jpg	99
1969.892	1.349	1348.7	generate	Run3	generate/STIM_010.jpg	99
1973.942	2.1	2100.1	generate	Run3	generate/STIM_010.jpg	99
1979.431	0.971	971.4	generate	Run3	generate/STIM_010.jpg	99
1983.337	1.516	1516.4	generate	Run3	generate/STIM_010.jpg	100
1988.281	1.868	1867.7	generate	Run3	generate/STIM_011.jpg	100
1992.696	2.204	2203.6	generate	Run3	generate/STIM_011.jpg	100
1997.015	2.218	2218.0	generate	Run3	generate/STIM_011.jpg	100
2001.379	2.25	2250.5	generate	Run3	generate/STIM_011.jpg	99
2006.323	1.137	1136.7	generate	Run3	generate/STIM_011.jpg	99
2011.077	1.159	1159.2	generate	Run3	generate/STIM_012.jpg	100
2015.339	1.987	1987.2	generate	Run3	generate/STIM_012.jpg	100
2019.837	1.612	1612.0	generate	Run3	generate/STIM_012.jpg	100
2024.325	2.388	2388.4	generate	Run3	generate/STIM_012.jpg	99
2028.761	2.023	2023.2	generate	Run3	generate/STIM_012.jpg	100
2033.485	1.725	1725.1	generate	Run3	generate/STIM_013.jpg	100
2038.426	1.504	1504.3	generate	Run3	generate/STIM_013.jpg	100
2042.221	1.607	1607.4	generate	Run3	generate/STIM_013.jpg	100
2047.482	2.266	2265.5	generate	Run3	generate/STIM_013.jpg	99
2053.241	1.33	1330.4	generate	Run3	generate/STIM_013.jpg	99
2057.907	2.039	2039.2	generate	Run3	generate/STIM_014.jpg	100
2062.751	2.394	2394.0	generate	Run3	generate/STIM_014.jpg	99
2067.99	0.976	976.1	generate	Run3	generate/STIM_014.jpg	99
2072.832	2.069	2069.3	generate	Run3	generate/STIM_014.jpg	100
2077.539	1.881	1881.2	generate	Run3	generate/STIM_014.jpg	100
2082.624	2.154	2154.4	generate	Run3	generate/STIM_015.jpg	100
2086.885	1.901	1901.3	generate	Run3	generate/STIM_015.jpg	100
2092.364	1.196	1195.5	generate	Run3	generate/STIM_015.jpg	100
2096.639	2.324	2323.8	generate	Run3	generate/STIM_015.jpg	100
2101.858	1.739	1738.7	generate	Run3	generate/STIM_015.jpg	99
2106.88	1.013	1013.0	generate	Run3	generate/STIM_016.jpg	99
2111.272	1.438	1438.1	generate	Run3	generate/STIM_016.jpg	99
2115.725	1.185	1185.3	generate	Run3	generate/STIM_016.jpg	99
2120.563	2.31	2310.0	generate	Run3	generate/STIM_016.jpg	99
2125.76	1.024	1023.5	generate	Run3	generate/STIM_016.jpg	99
2129.003	1.252	1251.8	generate	Run3	generate/STIM_017.jpg	99
2132.15	1.308	1308.1	generate	Run3	generate/STIM_017.jpg	99
2135.75	1.451	1451.3	generate	Run3	generate/STIM_017.jpg	100
2139.737	2.326	2326.3	generate	Run3	generate/STIM_017.jpg	100
2143.859	1.027	1027.0	generate	Run3	generate/STIM_017.jpg	100
2147.714	2.208	2207.5	generate	Run3	generate/STIM_018.jpg	100
2152.17	1.693	1693.4	generate	Run3	generate/STIM_018.jpg	99
2157.534	1.393	1393.0	generate	Run3	generate/STIM_018.jpg	99
2161.279	2.234	2233.6	generate	Run3	generate/STIM_018.jpg	99
2166.233	0.977	976.7	generate	Run3	generate/STIM_018.jpg	99
2170.04	1.409	1409.0	generate	Run3	generate/STIM_019.jpg	100
2174.105	2.395	2394.7	generate	Run3	generate/STIM_019.jpg	100
2179.231	1.437	1436.9	generate	Run3	generate/STIM_019.jpg	100
2184.389	1.339	1339.1	generate	Run3	generate/STIM_019.jpg	99
2188.204	1.457	1456.6	generate	Run3	generate/STIM_019.jpg	100
2191.721	1.408	1408.5	generate	Run3	generate/STIM_020.jpg	99
2196.49	2.376	2376.0	generate	Run3	generate/STIM_020.jpg	99
2201.092	2.324	2323.8	generate	Run3	generate/STIM_020.jpg	100
2205.569	1.5	1499.7	generate	Run3	generate/STIM_020.jpg	99
2210.624	1.439	1439.0	generate	Run3	generate/STIM_020.jpg	100
2214.401	1.994	1994.3	generate	Run3	generate/STIM_021.jpg	99
2219.176	2.135	2135.3	generate	Run3	generate/STIM_021.jpg	100
2223.663	0.997	997.0	generate	Run3	generate/STIM_021.jpg	99
2228.057	0.888	887.7	generate	Run3	generate/STIM_021.jpg	99
2231.475	1.528	1528.0	generate	Run3	generate/STIM_021.jpg	100
2235.744	2.07	2070.3	generate	Run3	generate/STIM_022.jpg	99
2239.541	2.141	2140.9	generate	Run3	generate/STIM_022.jpg	100
2244.002	2.138	2137.8	generate	Run3	generate/STIM_022.jpg	99
2249.663	1.178	1178.0	generate	Run3	generate/STIM_022.jpg	99
2253.175	2.262	2262.3	generate	Run3	generate/STIM_022.jpg	100
2257.568	1.42	1419.7	generate	Run3	generate/STIM_023.jpg	99
2262.824	1.41	1409.7	generate	Run3	generate/STIM_023.jpg	100
2266.602	2.098	2098.1	generate	Run3	generate/STIM_023.jpg	99
2270.57	2.022	2021.8	generate	Run3	generate/STIM_023.jpg	100
2275.162	2.002	2002.5	generate	Run3	generate/STIM_023.jpg	99
2278.96	2.168	2168.4	generate	Run3	generate/STIM_024.jpg	99
2283.608	1.302	1302.1	generate	Run3	generate/STIM_024.jpg	99
2288.646	1.647	1647.3	generate	Run3	generate/STIM_024.jpg	100
2292.963	2.344	2344.4	generate	Run3	generate/STIM_024.jpg	99
2297.589	2.291	2290.6	generate	Run3	generate/STIM_024.jpg	99
2302.72	1.085	1084.8	repeat	Run3	repeat/STIM_000.jpg	99
2306.983	1.177	1177.4	repeat	Run3	repeat/STIM_000.jpg	99
2310.474	1.154	1154.4	repeat	Run3	repeat/STIM_000.jpg	99
2315.323	1.019	1018.6	repeat	Run3	repeat/STIM_000.jpg	99
2319.531	1.099	1099.3	repeat	Run3	repeat/STIM_000.jpg	99
2323.816	0.737	737.2	repeat	Run3	repeat/STIM_001.jpg	99
2328.479	1.088	1088.0	repeat	Run3	repeat/STIM_001.jpg	99
2332.806	0.764	764.2	repeat	Run3	repeat/STIM_001.jpg	100
2335.585	0.93	930.2	repeat	Run3	repeat/STIM_001.jpg	100
2339.293	0.993	993.3	repeat	Run3	repeat/STIM_001.jpg	99
2343.491	0.84	839.5	repeat	Run3	repeat/STIM_002.jpg	100
2348.225	1.147	1146.8	repeat	Run3	repeat/STIM_002.jpg	100
2353.084	1.1	1099.7	repeat	Run3	repeat/STIM_002.jpg	99
2357.117	0.771	770.6	repeat	Run3	repeat/STIM_002.jpg	99
2361.247	0.604	603.9	repeat	Run3	repeat/STIM_002.jpg	100
2364.064	0.738	737.5	repeat	Run3	repeat/STIM_003.jpg	99
2368.419	0.834	833.5	repeat	Run3	repeat/STIM_003.jpg	99
2371.423	0.71	709.7	repeat	Run3	repeat/STIM_003.jpg	100
2374.631	0.86	859.5	repeat	Run3	repeat/STIM_003.jpg	100
2377.923	0.937	937.1	repeat	Run3	repeat/STIM_003.jpg	99
2380.956	0.682	681.5	repeat	Run3	repeat/STIM_004.jpg	100
2383.726	0.837	837.2	repeat	Run3	repeat/STIM_004.jpg	100
2388.375	1.0	1000.0	repeat	Run3	repeat/STIM_004.jpg	99
2393.019	1.1	1099.9	repeat	Run3	repeat/STIM_004.jpg	99
2396.815	0.865	864.7	repeat	Run3	repeat/STIM_004.jpg	99
2401.548	0.721	721.1	repeat	Run3	repeat/STIM_005.jpg	100
2404.675	0.846	846.1	repeat	Run3	repeat/STIM_005.jpg	99
2408.024	1.016	1016.4	repeat	Run3	repeat/STIM_005.jpg	99
2411.542	0.687	687.2	repeat	Run3	repeat/STIM_005.jpg	99
2414.899	0.762	761.6	repeat	Run3	repeat/STIM_005.jpg	99
2419.152	0.884	884.3	repeat	Run3	repeat/STIM_006.jpg	100
2423.522	1.072	1072.5	repeat	Run3	repeat/STIM_006.jpg	99
2427.234	0.688	688.3	repeat	Run3	repeat/STIM_006.jpg	100
2431.79	0.918	918.1	repeat	Run3	repeat/STIM_006.jpg	100
2435.793	0.77	770.4	repeat	Run3	repeat/STIM_006.jpg	99
2439.131	1.018	1017.8	repeat	Run3	repeat/STIM_007.jpg	99
2443.616	0.572	571.5	repeat	Run3	repeat/STIM_007.jpg	99
2446.95	1.022	1022.1	repeat	Run3	repeat/STIM_007.jpg	100
2450.347	1.111	1110.6	repeat	Run3	repeat/STIM_007.jpg	100
2453.706	1.098	1098.2	repeat	Run3	repeat/STIM_007.jpg	100
2457.518	0.711	710.6	repeat	Run3	repeat/STIM_008.jpg	99
2460.638	0.898	897.6	repeat	Run3	repeat/STIM_008.jpg	99
2464.882	0.845	845.3	repeat	Run3	repeat/STIM_008.jpg	100
2468.832	0.488	488.3	repeat	Run3	repeat/STIM_008.jpg	100
2472.409	0.885	885.2	repeat	Run3	repeat/STIM_008.jpg	99
2476.584	0.617	616.8	repeat	Run3	repeat/STIM_009.jpg	100
2479.637	0.645	645.1	repeat	Run3	repeat/STIM_009.jpg	99
2482.639	0.618	618.3	repeat	Run3	repeat/STIM_009.jpg	100
2486.942	0.818	817.7	repeat	Run3	repeat/STIM_009.jpg	100
2490.362	0.74	739.7	repeat	Run3	repeat/STIM_009.jpg	99
2494.423	0.831	830.6	repeat	Run3	repeat/STIM_010.jpg	100
2497.745	0.933	932.9	repeat	Run3	repeat/STIM_010.jpg	100
2501.322	0.922	921.8	repeat	Run3	repeat/STIM_010.jpg	99
2505.985	0.868	868.5	repeat	Run3	repeat/STIM_010.jpg	100
2509.977	0.836	836.2	repeat	Run3	repeat/STIM_010.jpg	100
2514.116	0.686	685.6	repeat	Run3	repeat/STIM_011.jpg	100
2518.479	1.026	1026.5	repeat	Run3	repeat/STIM_011.jpg	100
2521.887	1.118	1117.7	repeat	Run3	repeat/STIM_011.jpg	99
2524.843	0.812	811.9	repeat	Run3	repeat/STIM_011.jpg	99
2528.91	1.16	1160.3	repeat	Run3	repeat/STIM_011.jpg	99
2533.218	0.58	579.7	repeat	Run3	repeat/STIM_012.jpg	100
2537.115	0.812	812.3	repeat	Run3	repeat/STIM_012.jpg	100
2541.717	0.92	919.8	repeat	Run3	repeat/STIM_012.jpg	100
2545.587	0.818	818.1	repeat	Run3	repeat/STIM_012.jpg	99
2548.612	0.936	936.3	repeat	Run3	repeat/STIM_012.jpg	100
2553.311	0.913	912.8	repeat	Run3	repeat/STIM_013.jpg	100
2557.394	0.768	767.9	repeat	Run3	repeat/STIM_013.jpg	100
2561.691	0.822	821.5	repeat	Run3	repeat/STIM_013.jpg	100
2565.352	0.875	875.2	repeat	Run3	repeat/STIM_013.jpg	99
2568.532	1.051	1050.7	repeat	Run3	repeat/STIM_013.jpg	99
2571.814	1.096	1095.7	repeat	Run3	repeat/STIM_014.jpg	100
2575.324	0.529	529.2	repeat	Run3	repeat/STIM_014.jpg	99
2579.245	0.772	772.4	repeat	Run3	repeat/STIM_014.jpg	100
2582.699	1.081	1080.9	repeat	Run3	repeat/STIM_014.jpg	100
2586.385	0.64	639.7	repeat	Run3	repeat/STIM_014.jpg	99
2589.153	1.61	1609.6	generate	Run4	generate/STIM_000.jpg	99
2592.705	2.289	2289.3	generate	Run4	generate/STIM_000.jpg	100
2598.679	1.836	1836.3	generate	Run4	generate/STIM_000.jpg	100
2602.444	1.416	1416.0	generate	Run4	generate/STIM_000.jpg	100
2606.756	1.338	1337.9	generate	Run4	generate/STIM_000.jpg	100
2611.981	2.11	2109.6	generate	Run4	generate/STIM_001.jpg	100
2617.554	1.437	1436.7	generate	Run4	generate/STIM_001.jpg	99
2621.746	1.079	1079.1	generate	Run4	generate/STIM_001.jpg	99
2626.591	2.178	2178.5	generate	Run4	generate/STIM_001.jpg	99
2632.015	1.298	1297.7	generate	Run4	generate/STIM_001.jpg	100
2636.023	1.679	1678.8	generate	Run4	generate/STIM_002.jpg	100
2640.252	1.775	1775.1	generate	Run4	generate/STIM_002.jpg	100
2644.229	1.692	1691.6	generate	Run4	generate/STIM_002.jpg	100
2648.902	0.996	996.2	generate	Run4	generate/STIM_002.jpg	100
2652.474	2.309	2308.7	generate	Run4	generate/STIM_002.jpg	100
2657.523	1.922	1921.9	generate	Run4	generate/STIM_003.jpg	99
2662.934	1.659	1659.3	generate	Run4	generate/STIM_003.jpg	99
2667.735	1.25	1250.4	generate	Run4	generate/STIM_003.jpg	99
2670.987	2.299	2299.2	generate	Run4	generate/STIM_003.jpg	99
2676.032	1.255	1255.1	generate	Run4	generate/STIM_003.jpg	100
2680.53	2.06	2059.6	generate	Run4	generate/STIM_004.jpg	99
2684.325	1.84	1839.6	generate	Run4	generate/STIM_004.jpg	99
2689.715	2.114	2114.3	generate	Run4	generate/STIM_004.jpg	99
2694.734	1.756	1755.7	generate	Run4	generate/STIM_004.jpg	99
2699.182	2.17	2169.9	generate	Run4	generate/STIM_004.jpg	99
2703.947	1.025	1024.9	generate	Run4	generate/STIM_005.jpg	99
2707.914	1.031	1030.6	generate	Run4	generate/STIM_005.jpg	100
2711.351	0.962	962.0	generate	Run4	generate/STIM_005.jpg	100
2714.567	2.04	2039.6	generate	Run4	generate/STIM_005.jpg	99
2718.756	1.238	1237.9	generate	Run4	generate/STIM_005.jpg	99
2721.951	2.219	2219.4	generate	Run4	generate/STIM_006.jpg	99
2727.497	2.253	2252.9	generate	Run4	generate/STIM_006.jpg	100
2732.596	1.266	1265.5	generate	Run4	generate/STIM_006.jpg	100
2735.992	1.885	1885.1	generate	Run4	generate/STIM_006.jpg	100
2741.21	2.225	2225.3	generate	Run4	generate/STIM_006.jpg	100
2746.068	1.603	1602.9	generate	Run4	generate/STIM_007.jpg	99
2750.712	1.956	1955.5	generate	Run4	generate/STIM_007.jpg	100
2756.113	2.102	2101.8	generate	Run4	generate/STIM_007.jpg	100
2761.97	2.202	2202.3	generate	Run4	generate/STIM_007.jpg	99
2766.324	2.23	2229.7	generate	Run4	generate/STIM_007.jpg	100
2772.028	2.427	2427.4	generate	Run4	generate/STIM_008.jpg	100
2778.029	1.48	1480.4	generate	Run4	generate/STIM_008.jpg	99
2782.721	1.548	1548.2	generate	Run4	generate/STIM_008.jpg	99
2787.954	2.418	2418.1	generate	Run4	generate/STIM_008.jpg	99
2793.544	1.38	1380.4	generate	Run4	generate/STIM_008.jpg	100
2798.571	1.634	1633.7	generate	Run4	generate/STIM_009.jpg	100
2803.39	2.146	2146.2	generate	Run4	generate/STIM_009.jpg	100
2808.469	1.614	1613.8	generate	Run4	generate/STIM_009.jpg	99
2812.025	1.768	1768.2	generate	Run4	generate/STIM_009.jpg	100
2816.402	1.725	1724.7	generate	Run4	generate/STIM_009.jpg	99
2821.253	2.166	2166.2	generate	Run4	generate/STIM_010.jpg	99
2826.032	1.408	1408.2	generate	Run4	generate/STIM_010.jpg	99
2829.556	1.852	1852.5	generate	Run4	generate/STIM_010.jpg	99
2834.758	1.876	1875.9	generate	Run4	generate/STIM_010.jpg	100
2839.402	2.227	2227.4	generate	Run4	generate/STIM_010.jpg	100
2843.61	1.362	1361.9	generate	Run4	generate/STIM_011.jpg	99
2847.168	1.534	1533.6	generate	Run4	generate/STIM_011.jpg	100
2851.321	1.591	1590.6	generate	Run4	generate/STIM_011.jpg	100
2856.387	1.94	1939.6	generate	Run4	generate/STIM_011.jpg	100
2860.348	2.358	2358.5	generate	Run4	generate/STIM_011.jpg	99
2865.62	1.516	1515.5	generate	Run4	generate/STIM_012.jpg	100
2870.415	1.247	1247.0	generate	Run4	generate/STIM_012.jpg	99
2873.799	2.154	2153.8	generate	Run4	generate/STIM_012.jpg	100
2879.563	2.103	2103.1	generate	Run4	generate/STIM_012.jpg	99
2883.815	1.391	1391.1	generate	Run4	generate/STIM_012.jpg	99
2888.461	1.355	1355.2	generate	Run4	generate/STIM_013.jpg	99
2891.947	2.184	2184.1	generate	Run4	generate/STIM_013.jpg	99
2897.131	1.153	1153.3	generate	Run4	generate/STIM_013.jpg	99
2900.765	1.921	1921.4	generate	Run4	generate/STIM_013.jpg	99
2905.982	2.065	2064.7	generate	Run4	generate/STIM_013.jpg	99
2911.69	2.403	2403.0	generate	Run4	generate/STIM_014.jpg	100
2917.715	1.433	1432.8	generate	Run4	generate/STIM_014.jpg	100
2922.688	1.962	1962.2	generate	Run4	generate/STIM_014.jpg	99
2926.551	2.164	2164.0	generate	Run4	generate/STIM_014.jpg	99
2932.317	2.329	2329.0	generate	Run4	generate/STIM_014.jpg	100
2937.196	1.429	1428.7	generate	Run4	generate/STIM_015.jpg	100
2942.213	1.345	1345.2	generate	Run4	generate/STIM_015.jpg	100
2947.3	2.12	2120.4	generate	Run4	generate/STIM_015.jpg	99
2952.045	2.051	2051.2	generate	Run4	generate/STIM_015.jpg	100
2957.442	2.233	2233.3	generate	Run4	generate/STIM_015.jpg	100
2962.149	1.32	1319.6	generate	Run4	generate/STIM_016.jpg	99
2966.067	1.608	1608.3	generate	Run4	generate/STIM_016.jpg	100
2970.24	1.291	1290.7	generate	Run4	generate/STIM_016.jpg	100
2974.118	1.05	1050.4	generate	Run4	generate/STIM_016.jpg	99
2977.322	2.385	2385.1	generate	Run4	generate/STIM_016.jpg	99
2982.148	1.188	1188.1	generate	Run4	generate/STIM_017.jpg	100
2986.52	1.024	1023.7	generate	Run4	generate/STIM_017.jpg	100
2990.763	2.014	2014.5	generate	Run4	generate/STIM_017.jpg	99
2995.237	1.709	1709.3	generate	Run4	generate/STIM_017.jpg	99
2998.899	2.003	2003.4	generate	Run4	generate/STIM_017.jpg	100
3003.293	1.912	1912.1	generate	Run4	generate/STIM_018.jpg	100
3007.373	1.115	1115.1	generate	Run4	generate/STIM_018.jpg	100
3012.126	1.813	1813.1	generate	Run4	generate/STIM_018.jpg	100
3017.274	1.861	1861.1	generate	Run4	generate/STIM_018.jpg	100
3021.714	1.534	1533.7	generate	Run4	generate/STIM_018.jpg	100
3026.953	2.297	2296.6	generate	Run4	generate/STIM_019.jpg	100
3032.409	1.852	1852.5	generate	Run4	generate/STIM_019.jpg	99
3037.93	1.93	1929.7	generate	Run4	generate/STIM_019.jpg	100
3042.852	1.936	1935.5	generate	Run4	generate/STIM_019.jpg	99
3048.457	1.088	1087.7	generate	Run4	generate/STIM_019.jpg	100
3051.569	1.473	1472.9	generate	Run4	generate/STIM_020.jpg	99
3055.938	1.015	1015.3	generate	Run4	generate/STIM_020.jpg	100
3060.305	1.978	1978.1	generate	Run4	generate/STIM_020.jpg	99
3064.737	1.958	1958.4	generate	Run4	generate/STIM_020.jpg	100
3069.326	1.715	1715.2	generate	Run4	generate/STIM_020.jpg	100
3074.09	1.483	1483.4	generate	Run4	generate/STIM_021.jpg	99
3078.086	2.362	2362.3	generate	Run4	generate/STIM_021.jpg	99
3083.2	1.142	1141.5	generate	Run4	generate/STIM_021.jpg	99
3087.237	1.541	1540.7	generate	Run4	generate/STIM_021.jpg	99
3091.686	1.714	1714.5	generate	Run4	generate/STIM_021.jpg	99
3095.974	1.27	1270.0	generate	Run4	generate/STIM_022.jpg	99
3100.755	1.811	1811.1	generate	Run4	generate/STIM_022.jpg	100
3105.423	1.336	1336.5	generate	Run4	generate/STIM_022.jpg	99
3110.0	1.476	1475.8	generate	Run4	generate/STIM_022.jpg	99
3114.882	1.903	1903.4	generate	Run4	generate/STIM_022.jpg	100
3119.6	1.769	1768.8	generate	Run4	generate/STIM_023.jpg	100
3123.567	2.274	2274.4	generate	Run4	generate/STIM_023.jpg	99
3128.826	1.685	1685.3	generate	Run4	generate/STIM_023.jpg	100
3133.457	1.512	1511.5	generate	Run4	generate/STIM_023.jpg	100
3137.684	2.297	2297.3	generate	Run4	generate/STIM_023.jpg	100
3142.784	1.07	1070.5	generate	Run4	generate/STIM_024.jpg	99
3146.551	1.012	1011.8	generate	Run4	generate/STIM_024.jpg	99
3151.163	1.133	1132.8	generate	Run4	generate/STIM_024.jpg	99
3154.528	1.825	1825.3	generate	Run4	generate/STIM_024.jpg	99
3159.429	1.706	1706.5	generate	Run4	generate/STIM_024.jpg	100
3164.827	0.996	995.7	repeat	Run4	repeat/STIM_000.jpg	100
3169.539	1.042	1042.5	repeat	Run4	repeat/STIM_000.jpg	100
3174.073	0.966	965.9	repeat	Run4	repeat/STIM_000.jpg	99
3177.714	0.833	833.2	repeat	Run4	repeat/STIM_000.jpg	99
3181.851	1.12	1120.2	repeat	Run4	repeat/STIM_000.jpg	100
3185.345	0.876	876.3	repeat	Run4	repeat/STIM_001.jpg	100
3190.008	0.691	691.0	repeat	Run4	repeat/STIM_001.jpg	99
3193.884	0.877	876.8	repeat	Run4	repeat/STIM_001.jpg	100
3198.006	0.567	567.3	repeat	Run4	repeat/STIM_001.jpg	100
3200.973	1.072	1071.8	repeat	Run4	repeat/STIM_001.jpg	100
3204.93	1.049	1048.6	repeat	Run4	repeat/STIM_002.jpg	99
3209.645	1.044	1044.1	repeat	Run4	repeat/STIM_002.jpg	99
3213.744	0.867	866.8	repeat	Run4	repeat/STIM_002.jpg	99
3216.891	1.074	1074.0	repeat	Run4	repeat/STIM_002.jpg	99
3220.552	0.641	641.0	repeat	Run4	repeat/STIM_002.jpg	100
3225.078	0.778	778.2	repeat	Run4	repeat/STIM_003.jpg	99
3228.344	0.919	918.6	repeat	Run4	repeat/STIM_003.jpg	99
3232.299	0.989	988.9	repeat	Run4	repeat/STIM_003.jpg	99
3235.322	0.788	788.3	repeat	Run4	repeat/STIM_003.jpg	99
3238.438	0.739	738.8	repeat	Run4	repeat/STIM_003.jpg	99
3241.841	0.72	720.2	repeat	Run4	repeat/STIM_004.jpg	99
3244.597	0.943	943.2	repeat	Run4	repeat/STIM_004.jpg	99
3248.283	0.871	870.7	repeat	Run4	repeat/STIM_004.jpg	100
3251.521	0.922	921.9	repeat	Run4	repeat/STIM_004.jpg	99
3255.18	1.048	1047.6	repeat	Run4	repeat/STIM_004.jpg	99
3259.181	0.934	933.8	repeat	Run4	repeat/STIM_005.jpg	100
3263.138	1.005	1004.8	repeat	Run4	repeat/STIM_005.jpg	100
3267.253	0.797	796.8	repeat	Run4	repeat/STIM_005.jpg	99
3271.537	1.178	1178.4	repeat	Run4	repeat/STIM_005.jpg	99
3276.457	0.927	927.0	repeat	Run4	repeat/STIM_005.jpg	100
3279.452	0.847	847.1	repeat	Run4	repeat/STIM_006.jpg	100
3283.359	0.623	622.9	repeat	Run4	repeat/STIM_006.jpg	100
3286.498	0.735	735.4	repeat	Run4	repeat/STIM_006.jpg	99
3290.539	0.968	968.1	repeat	Run4	repeat/STIM_006.jpg	100
3295.213	0.863	863.2	repeat	Run4	repeat/STIM_006.jpg	99
3298.649	0.845	845.1	repeat	Run4	repeat/STIM_007.jpg	99
3302.624	0.959	959.3	repeat	Run4	repeat/STIM_007.jpg	99
3305.872	1.196	1195.6	repeat	Run4	repeat/STIM_007.jpg	100
3309.709	0.832	832.2	repeat	Run4	repeat/STIM_007.jpg	99
3314.04	0.91	909.7	repeat	Run4	repeat/STIM_007.jpg	100
3318.51	0.929	928.8	repeat	Run4	repeat/STIM_008.jpg	100
3322.724	1.064	1064.4	repeat	Run4	repeat/STIM_008.jpg	100
3325.989	0.928	927.9	repeat	Run4	repeat/STIM_008.jpg	100
3329.485	0.867	866.9	repeat	Run4	repeat/STIM_008.jpg	99
3334.001	0.671	670.7	repeat	Run4	repeat/STIM_008.jpg	100
3337.682	0.781	780.8	repeat	Run4	repeat/STIM_009.jpg	99
3341.939	1.066	1065.7	repeat	Run4	repeat/STIM_009.jpg	99
3346.224	1.015	1015.1	repeat	Run4	repeat/STIM_009.jpg	99
3351.007	0.806	806.4	repeat	Run4	repeat/STIM_009.jpg	99
3355.157	0.625	625.0	repeat	Run4	repeat/STIM_009.jpg	100
3358.279	0.94	939.8	repeat	Run4	repeat/STIM_010.jpg	99
3362.448	0.994	994.5	repeat	Run4	repeat/STIM_010.jpg	100
3365.467	0.739	739.2	repeat	Run4	repeat/STIM_010.jpg	99
3369.04	0.944	944.2	repeat	Run4	repeat/STIM_010.jpg	99
3372.9	0.882	881.5	repeat	Run4	repeat/STIM_010.jpg	100
3376.221	0.755	755.4	repeat	Run4	repeat/STIM_011.jpg	100
3379.863	0.786	786.5	repeat	Run4	repeat/STIM_011.jpg	99
3383.754	0.905	904.9	repeat	Run4	repeat/STIM_011.jpg	99
3388.027	0.753	753.3	repeat	Run4	repeat/STIM_011.jpg	100
3392.522	0.807	806.6	repeat	Run4	repeat/STIM_011.jpg	99
3396.493	1.199	1199.4	repeat	Run4	repeat/STIM_012.jpg	99
3401.439	1.053	1052.7	repeat	Run4	repeat/STIM_012.jpg	100
3405.993	0.685	685.3	repeat	Run4	repeat/STIM_012.jpg	99
3408.824	1.145	1145.2	repeat	Run4	repeat/STIM_012.jpg	100
3412.621	0.683	683.1	repeat	Run4	repeat/STIM_012.jpg	99
3416.394	0.903	903.2	repeat	Run4	repeat/STIM_013.jpg	100
3420.5	1.114	1114.4	repeat	Run4	repeat/STIM_013.jpg	100
3423.491	0.736	736.4	repeat	Run4	repeat/STIM_013.jpg	99
3426.79	1.126	1125.6	repeat	Run4	repeat/STIM_013.jpg	99
3430.053	0.809	809.4	repeat	Run4	repeat/STIM_013.jpg	99
3434.464	0.991	991.0	repeat	Run4	repeat/STIM_014.jpg	100
3438.06	0.641	641.1	repeat	Run4	repeat/STIM_014.jpg	100
3440.752	1.03	1030.3	repeat	Run4	repeat/STIM_014.jpg	99
3444.965	1.128	1128.1	repeat	Run4	repeat/STIM_014.jpg	99
3449.109	0.967	967.4	repeat	Run4	repeat/STIM_014.jpg	100
