onset	duration	accuracy	trial_type	learning_stage	stimulus
0.0	1.939	correct	generate	Run1	generate/STIM_000.jpg
3.954	3.184	correct	generate	Run1	generate/STIM_000.jpg
10.382	1.935	correct	generate	Run1	generate/STIM_000.jpg
15.225	1.522	correct	generate	Run1	generate/STIM_000.jpg
20.351	2.053	correct	generate	Run1	generate/STIM_000.jpg
25.895	1.997	correct	generate	Run1	generate/STIM_001.jpg
30.541	1.785	correct	generate	Run1	generate/STIM_001.jpg
34.792	2.997	correct	generate	Run1	generate/STIM_001.jpg
39.737	1.858	correct	generate	Run1	generate/STIM_001.jpg
45.126	2.052	correct	generate	Run1	generate/STIM_001.jpg
49.523	1.557	correct	generate	Run1	generate/STIM_002.jpg
54.697	3.121	incorrect	generate	Run1	generate/STIM_002.jpg
61.073	1.999	incorrect	generate	Run1	generate/STIM_002.jpg
66.117	2.681	correct	generate	Run1	generate/STIM_002.jpg
70.987	1.506	incorrect	generate	Run1	generate/STIM_002.jpg
75.616	1.72	correct	generate	Run1	generate/STIM_003.jpg
80.855	1.286	correct	generate	Run1	generate/STIM_003.jpg
84.436	1.929	correct	generate	Run1	generate/STIM_003.jpg
88.623	2.745	incorrect	generate	Run1	generate/STIM_003.jpg
93.818	2.266	correct	generate	Run1	generate/STIM_003.jpg
98.294	2.268	incorrect	generate	Run1	generate/STIM_004.jpg
102.655	2.272	incorrect	generate	Run1	generate/STIM_004.jpg
108.472	1.996	correct	generate	Run1	generate/STIM_004.jpg
113.839	1.499	correct	generate	Run1	generate/STIM_004.jpg
117.974	2.69	correct	generate	Run1	generate/STIM_004.jpg
123.407	1.796	incorrect	generate	Run1	generate/STIM_005.jpg
127.624	2.48	incorrect	generate	Run1	generate/STIM_005.jpg
133.387	2.395	correct	generate	Run1	generate/STIM_005.jpg
138.009	2.399	incorrect	generate	Run1	generate/STIM_005.jpg
143.678	1.812	incorrect	generate	Run1	generate/STIM_005.jpg
147.859	3.137	correct	generate	Run1	generate/STIM_006.jpg
152.851	2.874	correct	generate	Run1	generate/STIM_006.jpg
158.368	1.914	incorrect	generate	Run1	generate/STIM_006.jpg
163.402	1.999	incorrect	generate	Run1	generate/STIM_006.jpg
168.826	2.159	correct	generate	Run1	generate/STIM_006.jpg
173.078	3.141	correct	generate	Run1	generate/STIM_007.jpg
179.171	2.891	incorrect	generate	Run1	generate/STIM_007.jpg
185.131	1.41	incorrect	generate	Run1	generate/STIM_007.jpg
188.818	2.854	correct	generate	Run1	generate/STIM_007.jpg
193.819	1.532	correct	generate	Run1	generate/STIM_007.jpg
197.295	1.791	incorrect	generate	Run1	generate/STIM_008.jpg
202.478	2.716	correct	generate	Run1	generate/STIM_008.jpg
207.289	2.564	correct	generate	Run1	generate/STIM_008.jpg
212.605	2.729	correct	generate	Run1	generate/STIM_008.jpg
218.649	1.629	correct	generate	Run1	generate/STIM_008.jpg
222.39	2.121	correct	generate	Run1	generate/STIM_009.jpg
227.619	1.673	correct	generate	Run1	generate/STIM_009.jpg
232.463	1.886	correct	generate	Run1	generate/STIM_009.jpg
236.88	2.508	correct	generate	Run1	generate/STIM_009.jpg
241.648	1.873	correct	generate	Run1	generate/STIM_009.jpg
245.705	2.461	incorrect	generate	Run1	generate/STIM_010.jpg
251.497	2.777	correct	generate	Run1	generate/STIM_010.jpg
257.318	2.472	correct	generate	Run1	generate/STIM_010.jpg
261.659	1.38	correct	generate	Run1	generate/STIM_010.jpg
265.945	2.426	incorrect	generate	Run1	generate/STIM_010.jpg
270.902	3.003	incorrect	generate	Run1	generate/STIM_011.jpg
276.41	1.632	correct	generate	Run1	generate/STIM_011.jpg
280.992	2.88	correct	generate	Run1	generate/STIM_011.jpg
285.516	2.576	correct	generate	Run1	generate/STIM_011.jpg
291.782	1.784	correct	generate	Run1	generate/STIM_011.jpg
296.391	1.7	correct	generate	Run1	generate/STIM_012.jpg
300.494	2.824	correct	generate	Run1	generate/STIM_012.jpg
306.52	1.548	correct	generate	Run1	generate/STIM_012.jpg
311.196	1.99	correct	generate	Run1	generate/STIM_012.jpg
315.688	2.478	incorrect	generate	Run1	generate/STIM_012.jpg
321.692	1.394	incorrect	generate	Run1	generate/STIM_013.jpg
326.403	1.53	correct	generate	Run1	generate/STIM_013.jpg
329.708	2.822	incorrect	generate	Run1	generate/STIM_013.jpg
335.388	1.808	correct	generate	Run1	generate/STIM_013.jpg
340.977	1.44	correct	generate	Run1	generate/STIM_013.jpg
345.486	3.294	correct	generate	Run1	generate/STIM_014.jpg
351.971	1.422	incorrect	generate	Run1	generate/STIM_014.jpg
355.364	1.363	correct	generate	Run1	generate/STIM_014.jpg
360.351	1.735	incorrect	generate	Run1	generate/STIM_014.jpg
364.519	1.584	correct	generate	Run1	generate/STIM_014.jpg
368.335	1.928	incorrect	generate	Run1	generate/STIM_015.jpg
372.869	2.322	correct	generate	Run1	generate/STIM_015.jpg
377.019	2.52	correct	generate	Run1	generate/STIM_015.jpg
381.38	2.222	correct	generate	Run1	generate/STIM_015.jpg
385.575	1.141	correct	generate	Run1	generate/STIM_015.jpg
388.798	1.728	correct	generate	Run1	generate/STIM_016.jpg
392.322	1.471	correct	generate	Run1	generate/STIM_016.jpg
396.737	2.864	correct	generate	Run1	generate/STIM_016.jpg
403.067	2.518	correct	generate	Run1	generate/STIM_016.jpg
409.156	1.553	correct	generate	Run1	generate/STIM_016.jpg
412.712	2.517	incorrect	generate	Run1	generate/STIM_017.jpg
418.551	1.992	correct	generate	Run1	generate/STIM_017.jpg
423.977	2.534	incorrect	generate	Run1	generate/STIM_017.jpg
429.79	1.373	incorrect	generate	Run1	generate/STIM_017.jpg
434.896	2.509	incorrect	generate	Run1	generate/STIM_017.jpg
440.299	2.951	correct	generate	Run1	generate/STIM_018.jpg
446.189	2.995	correct	generate	Run1	generate/STIM_018.jpg
451.794	2.08	correct	generate	Run1	generate/STIM_018.jpg
456.693	2.676	correct	generate	Run1	generate/STIM_018.jpg
462.808	1.281	incorrect	generate	Run1	generate/STIM_018.jpg
467.445	3.399	correct	generate	Run1	generate/STIM_019.jpg
473.801	2.852	correct	generate	Run1	generate/STIM_019.jpg
478.643	2.94	correct	generate	Run1	generate/STIM_019.jpg
483.404	2.01	incorrect	generate	Run1	generate/STIM_019.jpg
489.039	1.513	correct	generate	Run1	generate/STIM_019.jpg
493.299	2.49	incorrect	generate	Run1	generate/STIM_020.jpg
499.114	1.476	correct	generate	Run1	generate/STIM_020.jpg
504.043	2.046	correct	generate	Run1	generate/STIM_020.jpg
507.893	2.464	correct	generate	Run1	generate/STIM_020.jpg
513.637	1.104	correct	generate	Run1	generate/STIM_020.jpg
517.043	2.419	incorrect	generate	Run1	generate/STIM_021.jpg
521.912	2.935	correct	generate	Run1	generate/STIM_021.jpg
527.763	2.442	correct	generate	Run1	generate/STIM_021.jpg
533.612	1.672	correct	generate	Run1	generate/STIM_021.jpg
537.695	1.276	correct	generate	Run1	generate/STIM_021.jpg
542.524	2.921	correct	generate	Run1	generate/STIM_022.jpg
549.093	3.084	correct	generate	Run1	generate/STIM_022.jpg
553.94	1.265	correct	generate	Run1	generate/STIM_022.jpg
557.698	2.848	correct	generate	Run1	generate/STIM_022.jpg
562.623	2.263	correct	generate	Run1	generate/STIM_022.jpg
566.653	2.637	correct	generate	Run1	generate/STIM_023.jpg
571.116	1.295	incorrect	generate	Run1	generate/STIM_023.jpg
574.785	2.423	correct	generate	Run1	generate/STIM_023.jpg
579.958	2.56	correct	generate	Run1	generate/STIM_023.jpg
584.527	2.162	correct	generate	Run1	generate/STIM_023.jpg
589.823	1.843	correct	generate	Run1	generate/STIM_024.jpg
595.082	2.702	correct	generate	Run1	generate/STIM_024.jpg
601.302	2.342	correct	generate	Run1	generate/STIM_024.jpg
606.573	1.546	correct	generate	Run1	generate/STIM_024.jpg
610.785	1.714	correct	generate	Run1	generate/STIM_024.jpg
615.757	0.846	correct	repeat	Run1	repeat/STIM_000.jpg
619.068	0.718	correct	repeat	Run1	repeat/STIM_000.jpg
622.204	1.096	incorrect	repeat	Run1	repeat/STIM_000.jpg
625.479	0.593	correct	repeat	Run1	repeat/STIM_000.jpg
629.164	0.807	correct	repeat	Run1	repeat/STIM_000.jpg
633.019	1.024	correct	repeat	Run1	repeat/STIM_001.jpg
637.62	0.724	correct	repeat	Run1	repeat/STIM_001.jpg
641.75	1.005	correct	repeat	Run1	repeat/STIM_001.jpg
646.554	1.17	correct	repeat	Run1	repeat/STIM_001.jpg
650.167	0.798	correct	repeat	Run1	repeat/STIM_001.jpg
654.89	0.952	correct	repeat	Run1	repeat/STIM_002.jpg
659.336	1.0	correct	repeat	Run1	repeat/STIM_002.jpg
663.993	0.87	correct	repeat	Run1	repeat/STIM_002.jpg
668.248	0.974	correct	repeat	Run1	repeat/STIM_002.jpg
672.357	0.816	correct	repeat	Run1	repeat/STIM_002.jpg
676.484	0.73	correct	repeat	Run1	repeat/STIM_003.jpg
679.232	0.915	correct	repeat	Run1	repeat/STIM_003.jpg
682.679	1.027	correct	repeat	Run1	repeat/STIM_003.jpg
686.791	0.651	correct	repeat	Run1	repeat/STIM_003.jpg
689.779	0.662	correct	repeat	Run1	repeat/STIM_003.jpg
692.764	0.753	correct	repeat	Run1	repeat/STIM_004.jpg
697.148	0.999	correct	repeat	Run1	repeat/STIM_004.jpg
701.189	0.904	correct	repeat	Run1	repeat/STIM_004.jpg
705.386	1.057	correct	repeat	Run1	repeat/STIM_004.jpg
709.463	1.146	correct	repeat	Run1	repeat/STIM_004.jpg
712.969	0.95	correct	repeat	Run1	repeat/STIM_005.jpg
717.239	0.801	correct	repeat	Run1	repeat/STIM_005.jpg
720.511	0.72	incorrect	repeat	Run1	repeat/STIM_005.jpg
724.727	0.974	correct	repeat	Run1	repeat/STIM_005.jpg
728.86	1.182	correct	repeat	Run1	repeat/STIM_005.jpg
733.763	0.652	correct	repeat	Run1	repeat/STIM_006.jpg
736.543	0.713	correct	repeat	Run1	repeat/STIM_006.jpg
740.583	0.705	correct	repeat	Run1	repeat/STIM_006.jpg
743.491	1.031	correct	repeat	Run1	repeat/STIM_006.jpg
748.088	0.698	correct	repeat	Run1	repeat/STIM_006.jpg
750.862	1.044	correct	repeat	Run1	repeat/STIM_007.jpg
754.756	0.642	correct	repeat	Run1	repeat/STIM_007.jpg
757.871	0.666	correct	repeat	Run1	repeat/STIM_007.jpg
760.493	0.825	correct	repeat	Run1	repeat/STIM_007.jpg
763.703	1.02	correct	repeat	Run1	repeat/STIM_007.jpg
767.69	0.799	correct	repeat	Run1	repeat/STIM_008.jpg
771.745	0.771	correct	repeat	Run1	repeat/STIM_008.jpg
776.31	0.669	correct	repeat	Run1	repeat/STIM_008.jpg
780.923	1.128	correct	repeat	Run1	repeat/STIM_008.jpg
785.566	0.696	correct	repeat	Run1	repeat/STIM_008.jpg
789.07	1.098	correct	repeat	Run1	repeat/STIM_009.jpg
792.689	0.727	correct	repeat	Run1	repeat/STIM_009.jpg
796.705	0.905	correct	repeat	Run1	repeat/STIM_009.jpg
800.074	0.992	correct	repeat	Run1	repeat/STIM_009.jpg
804.869	0.671	correct	repeat	Run1	repeat/STIM_009.jpg
809.21	0.875	correct	repeat	Run1	repeat/STIM_010.jpg
812.649	0.825	correct	repeat	Run1	repeat/STIM_010.jpg
815.643	0.941	correct	repeat	Run1	repeat/STIM_010.jpg
818.896	0.945	correct	repeat	Run1	repeat/STIM_010.jpg
822.818	0.639	correct	repeat	Run1	repeat/STIM_010.jpg
825.947	0.763	correct	repeat	Run1	repeat/STIM_011.jpg
829.824	0.758	correct	repeat	Run1	repeat/STIM_011.jpg
834.033	1.027	correct	repeat	Run1	repeat/STIM_011.jpg
837.013	0.923	correct	repeat	Run1	repeat/STIM_011.jpg
841.535	0.926	correct	repeat	Run1	repeat/STIM_011.jpg
845.347	1.002	correct	repeat	Run1	repeat/STIM_012.jpg
850.141	1.07	correct	repeat	Run1	repeat/STIM_012.jpg
853.149	0.818	correct	repeat	Run1	repeat/STIM_012.jpg
857.288	0.993	correct	repeat	Run1	repeat/STIM_012.jpg
862.128	0.674	correct	repeat	Run1	repeat/STIM_012.jpg
865.867	0.593	correct	repeat	Run1	repeat/STIM_013.jpg
868.665	0.742	correct	repeat	Run1	repeat/STIM_013.jpg
872.615	0.707	correct	repeat	Run1	repeat/STIM_013.jpg
877.108	1.123	correct	repeat	Run1	repeat/STIM_013.jpg
880.615	1.025	correct	repeat	Run1	repeat/STIM_013.jpg
883.971	0.971	correct	repeat	Run1	repeat/STIM_014.jpg
887.352	0.6	correct	repeat	Run1	repeat/STIM_014.jpg
891.379	0.935	correct	repeat	Run1	repeat/STIM_014.jpg
895.547	0.646	correct	repeat	Run1	repeat/STIM_014.jpg
899.734	1.025	correct	repeat	Run1	repeat/STIM_014.jpg
903.318	1.803	correct	generate	Run2	generate/STIM_000.jpg
907.829	1.467	correct	generate	Run2	generate/STIM_000.jpg
912.251	1.903	correct	generate	Run2	generate/STIM_000.jpg
917.062	2.215	correct	generate	Run2	generate/STIM_000.jpg
921.863	1.057	correct	generate	Run2	generate/STIM_000.jpg
925.289	2.605	correct	generate	Run2	generate/STIM_001.jpg
929.84	1.8	correct	generate	Run2	generate/STIM_001.jpg
933.466	1.075	correct	generate	Run2	generate/STIM_001.jpg
937.555	1.527	correct	generate	Run2	generate/STIM_001.jpg
941.593	1.949	correct	generate	Run2	generate/STIM_001.jpg
946.389	1.644	incorrect	generate	Run2	generate/STIM_002.jpg
951.218	1.585	correct	generate	Run2	generate/STIM_002.jpg
956.135	2.26	correct	generate	Run2	generate/STIM_002.jpg
961.424	1.294	correct	generate	Run2	generate/STIM_002.jpg
966.258	1.226	correct	generate	Run2	generate/STIM_002.jpg
970.393	2.057	correct	generate	Run2	generate/STIM_003.jpg
975.085	1.259	correct	generate	Run2	generate/STIM_003.jpg
978.703	1.543	incorrect	generate	Run2	generate/STIM_003.jpg
982.904	1.036	correct	generate	Run2	generate/STIM_003.jpg
987.284	1.985	correct	generate	Run2	generate/STIM_003.jpg
992.669	1.526	correct	generate	Run2	generate/STIM_004.jpg
996.594	2.446	correct	generate	Run2	generate/STIM_004.jpg
1000.835	1.754	correct	generate	Run2	generate/STIM_004.jpg
1004.807	2.078	correct	generate	Run2	generate/STIM_004.jpg
1010.452	2.016	correct	generate	Run2	generate/STIM_004.jpg
1015.507	1.971	correct	generate	Run2	generate/STIM_005.jpg
1019.693	1.199	correct	generate	Run2	generate/STIM_005.jpg
1023.352	1.83	correct	generate	Run2	generate/STIM_005.jpg
1027.644	1.598	correct	generate	Run2	generate/STIM_005.jpg
1031.324	1.354	incorrect	generate	Run2	generate/STIM_005.jpg
1035.858	2.186	correct	generate	Run2	generate/STIM_006.jpg
1040.31	1.267	correct	generate	Run2	generate/STIM_006.jpg
1045.016	1.682	correct	generate	Run2	generate/STIM_006.jpg
1048.727	2.358	incorrect	generate	Run2	generate/STIM_006.jpg
1053.033	1.51	correct	generate	Run2	generate/STIM_006.jpg
1057.988	1.9	correct	generate	Run2	generate/STIM_007.jpg
1061.903	2.45	correct	generate	Run2	generate/STIM_007.jpg
1067.758	1.76	incorrect	generate	Run2	generate/STIM_007.jpg
1071.76	1.032	correct	generate	Run2	generate/STIM_007.jpg
1075.168	1.872	correct	generate	Run2	generate/STIM_007.jpg
1080.285	1.366	correct	generate	Run2	generate/STIM_008.jpg
1084.069	1.59	correct	generate	Run2	generate/STIM_008.jpg
1087.599	1.191	correct	generate	Run2	generate/STIM_008.jpg
1092.145	1.571	correct	generate	Run2	generate/STIM_008.jpg
1096.488	1.85	correct	generate	Run2	generate/STIM_008.jpg
1100.46	1.463	correct	generate	Run2	generate/STIM_009.jpg
1105.74	1.666	correct	generate	Run2	generate/STIM_009.jpg
1110.107	2.165	correct	generate	Run2	generate/STIM_009.jpg
1115.849	1.186	correct	generate	Run2	generate/STIM_009.jpg
1119.688	1.103	correct	generate	Run2	generate/STIM_009.jpg
1123.369	2.343	correct	generate	Run2	generate/STIM_010.jpg
1127.632	2.567	correct	generate	Run2	generate/STIM_010.jpg
1132.658	2.314	correct	generate	Run2	generate/STIM_010.jpg
1138.583	1.261	incorrect	generate	Run2	generate/STIM_010.jpg
1143.233	2.147	correct	generate	Run2	generate/STIM_010.jpg
1148.509	2.777	correct	generate	Run2	generate/STIM_011.jpg
1154.112	1.996	incorrect	generate	Run2	generate/STIM_011.jpg
1157.963	2.307	correct	generate	Run2	generate/STIM_011.jpg
1162.922	2.369	incorrect	generate	Run2	generate/STIM_011.jpg
1167.831	1.877	correct	generate	Run2	generate/STIM_011.jpg
1172.294	1.653	correct	generate	Run2	generate/STIM_012.jpg
1177.272	2.66	correct	generate	Run2	generate/STIM_012.jpg
1182.663	1.72	correct	generate	Run2	generate/STIM_012.jpg
1186.747	1.096	correct	generate	Run2	generate/STIM_012.jpg
1191.053	2.35	correct	generate	Run2	generate/STIM_012.jpg
1197.049	1.292	incorrect	generate	Run2	generate/STIM_013.jpg
1201.33	1.769	correct	generate	Run2	generate/STIM_013.jpg
1206.755	1.628	correct	generate	Run2	generate/STIM_013.jpg
1211.546	1.308	correct	generate	Run2	generate/STIM_013.jpg
1216.394	1.366	correct	generate	Run2	generate/STIM_013.jpg
1221.029	2.025	correct	generate	Run2	generate/STIM_014.jpg
1225.183	2.417	correct	generate	Run2	generate/STIM_014.jpg
1231.319	2.367	correct	generate	Run2	generate/STIM_014.jpg
1236.884	2.019	correct	generate	Run2	generate/STIM_014.jpg
1242.067	1.484	correct	generate	Run2	generate/STIM_014.jpg
1246.967	2.267	correct	generate	Run2	generate/STIM_015.jpg
1252.483	2.346	incorrect	generate	Run2	generate/STIM_015.jpg
1258.182	1.453	incorrect	generate	Run2	generate/STIM_015.jpg
1262.476	1.738	incorrect	generate	Run2	generate/STIM_015.jpg
1266.732	2.117	correct	generate	Run2	generate/STIM_015.jpg
1271.484	1.318	correct	generate	Run2	generate/STIM_016.jpg
1275.839	1.246	correct	generate	Run2	generate/STIM_016.jpg
1280.511	2.061	incorrect	generate	Run2	generate/STIM_016.jpg
1284.465	1.179	correct	generate	Run2	generate/STIM_016.jpg
1287.823	2.264	correct	generate	Run2	generate/STIM_016.jpg
1293.124	1.548	incorrect	generate	Run2	generate/STIM_017.jpg
1297.376	1.775	correct	generate	Run2	generate/STIM_017.jpg
1301.06	1.512	incorrect	generate	Run2	generate/STIM_017.jpg
1304.874	1.324	correct	generate	Run2	generate/STIM_017.jpg
1308.947	1.656	correct	generate	Run2	generate/STIM_017.jpg
1314.403	1.667	correct	generate	Run2	generate/STIM_018.jpg
1319.126	1.449	correct	generate	Run2	generate/STIM_018.jpg
1322.472	2.127	correct	generate	Run2	generate/STIM_018.jpg
1326.603	1.456	correct	generate	Run2	generate/STIM_018.jpg
1330.164	1.702	correct	generate	Run2	generate/STIM_018.jpg
1334.004	1.144	correct	generate	Run2	generate/STIM_019.jpg
1337.494	1.519	correct	generate	Run2	generate/STIM_019.jpg
1341.176	2.496	correct	generate	Run2	generate/STIM_019.jpg
1345.686	1.862	correct	generate	Run2	generate/STIM_019.jpg
1350.558	1.451	correct	generate	Run2	generate/STIM_019.jpg
1354.593	2.233	correct	generate	Run2	generate/STIM_020.jpg
1360.375	2.712	correct	generate	Run2	generate/STIM_020.jpg
1364.794	1.704	correct	generate	Run2	generate/STIM_020.jpg
1370.098	1.4	correct	generate	Run2	generate/STIM_020.jpg
1374.918	2.173	correct	generate	Run2	generate/STIM_020.jpg
1379.193	1.554	incorrect	generate	Run2	generate/STIM_021.jpg
1382.724	1.591	correct	generate	Run2	generate/STIM_021.jpg
1386.675	2.059	correct	generate	Run2	generate/STIM_021.jpg
1391.683	2.027	correct	generate	Run2	generate/STIM_021.jpg
1397.168	1.778	incorrect	generate	Run2	generate/STIM_021.jpg
1401.175	1.942	correct	generate	Run2	generate/STIM_022.jpg
1406.179	1.162	correct	generate	Run2	generate/STIM_022.jpg
1409.375	1.743	correct	generate	Run2	generate/STIM_022.jpg
1413.607	1.625	correct	generate	Run2	generate/STIM_022.jpg
1417.321	1.408	incorrect	generate	Run2	generate/STIM_022.jpg
1420.774	2.316	correct	generate	Run2	generate/STIM_023.jpg
1425.533	1.491	correct	generate	Run2	generate/STIM_023.jpg
1429.354	2.218	correct	generate	Run2	generate/STIM_023.jpg
1434.259	1.75	incorrect	generate	Run2	generate/STIM_023.jpg
1438.541	1.1	correct	generate	Run2	generate/STIM_023.jpg
1443.351	1.708	correct	generate	Run2	generate/STIM_024.jpg
1448.691	2.531	correct	generate	Run2	generate/STIM_024.jpg
1453.239	1.643	correct	generate	Run2	generate/STIM_024.jpg
1457.402	2.33	correct	generate	Run2	generate/STIM_024.jpg
1461.922	1.099	correct	generate	Run2	generate/STIM_024.jpg
1465.873	0.527	correct	repeat	Run2	repeat/STIM_000.jpg
1468.448	0.607	correct	repeat	Run2	repeat/STIM_000.jpg
1471.241	0.925	correct	repeat	Run2	repeat/STIM_000.jpg
1474.785	0.997	correct	repeat	Run2	repeat/STIM_000.jpg
1479.533	0.941	correct	repeat	Run2	repeat/STIM_000.jpg
1483.082	0.762	correct	repeat	Run2	repeat/STIM_001.jpg
1486.429	0.808	incorrect	repeat	Run2	repeat/STIM_001.jpg
1489.681	0.937	correct	repeat	Run2	repeat/STIM_001.jpg
1493.456	1.028	correct	repeat	Run2	repeat/STIM_001.jpg
1496.461	1.08	correct	repeat	Run2	repeat/STIM_001.jpg
1500.246	0.582	correct	repeat	Run2	repeat/STIM_002.jpg
1503.63	1.189	correct	repeat	Run2	repeat/STIM_002.jpg
1507.825	0.651	correct	repeat	Run2	repeat/STIM_002.jpg
1510.459	0.779	correct	repeat	Run2	repeat/STIM_002.jpg
1514.642	0.974	correct	repeat	Run2	repeat/STIM_002.jpg
1519.246	0.987	correct	repeat	Run2	repeat/STIM_003.jpg
1522.37	1.025	correct	repeat	Run2	repeat/STIM_003.jpg
1525.599	0.774	correct	repeat	Run2	repeat/STIM_003.jpg
1529.197	0.925	correct	repeat	Run2	repeat/STIM_003.jpg
1532.845	0.592	correct	repeat	Run2	repeat/STIM_003.jpg
1536.523	0.842	correct	repeat	Run2	repeat/STIM_004.jpg
1540.082	1.172	correct	repeat	Run2	repeat/STIM_004.jpg
1544.275	0.659	correct	repeat	Run2	repeat/STIM_004.jpg
1548.008	1.161	correct	repeat	Run2	repeat/STIM_004.jpg
1552.18	0.642	correct	repeat	Run2	repeat/STIM_004.jpg
1555.179	0.673	correct	repeat	Run2	repeat/STIM_005.jpg
1559.752	0.868	correct	repeat	Run2	repeat/STIM_005.jpg
1563.692	0.763	correct	repeat	Run2	repeat/STIM_005.jpg
1568.154	1.022	correct	repeat	Run2	repeat/STIM_005.jpg
1571.871	0.691	incorrect	repeat	Run2	repeat/STIM_005.jpg
1575.416	0.955	correct	repeat	Run2	repeat/STIM_006.jpg
1578.919	1.028	correct	repeat	Run2	repeat/STIM_006.jpg
1583.581	0.801	correct	repeat	Run2	repeat/STIM_006.jpg
1586.65	1.071	correct	repeat	Run2	repeat/STIM_006.jpg
1589.912	1.027	correct	repeat	Run2	repeat/STIM_006.jpg
1594.658	0.611	correct	repeat	Run2	repeat/STIM_007.jpg
1597.955	0.826	correct	repeat	Run2	repeat/STIM_007.jpg
1600.63	0.894	correct	repeat	Run2	repeat/STIM_007.jpg
1603.818	0.92	correct	repeat	Run2	repeat/STIM_007.jpg
1607.457	0.846	correct	repeat	Run2	repeat/STIM_007.jpg
1611.182	0.77	correct	repeat	Run2	repeat/STIM_008.jpg
1613.876	0.754	correct	repeat	Run2	repeat/STIM_008.jpg
1616.938	0.712	correct	repeat	Run2	repeat/STIM_008.jpg
1621.294	1.092	correct	repeat	Run2	repeat/STIM_008.jpg
1624.633	0.834	correct	repeat	Run2	repeat/STIM_008.jpg
1629.425	0.762	correct	repeat	Run2	repeat/STIM_009.jpg
1632.217	0.751	correct	repeat	Run2	repeat/STIM_009.jpg
1635.38	0.96	correct	repeat	Run2	repeat/STIM_009.jpg
1638.662	0.756	correct	repeat	Run2	repeat/STIM_009.jpg
1642.483	0.712	correct	repeat	Run2	repeat/STIM_009.jpg
1645.938	0.894	correct	repeat	Run2	repeat/STIM_010.jpg
1650.237	0.796	correct	repeat	Run2	repeat/STIM_010.jpg
1654.62	0.617	correct	repeat	Run2	repeat/STIM_010.jpg
1658.925	0.993	correct	repeat	Run2	repeat/STIM_010.jpg
1662.46	0.927	correct	repeat	Run2	repeat/STIM_010.jpg
1666.72	1.033	correct	repeat	Run2	repeat/STIM_011.jpg
1671.579	0.96	correct	repeat	Run2	repeat/STIM_011.jpg
1676.14	1.039	correct	repeat	Run2	repeat/STIM_011.jpg
1679.749	0.602	correct	repeat	Run2	repeat/STIM_011.jpg
1683.723	0.844	correct	repeat	Run2	repeat/STIM_011.jpg
1687.819	0.798	incorrect	repeat	Run2	repeat/STIM_012.jpg
1691.425	0.668	correct	repeat	Run2	repeat/STIM_012.jpg
1694.646	0.981	correct	repeat	Run2	repeat/STIM_012.jpg
1699.263	0.844	correct	repeat	Run2	repeat/STIM_012.jpg
1702.169	0.592	correct	repeat	Run2	repeat/STIM_012.jpg
1706.149	1.003	correct	repeat	Run2	repeat/STIM_013.jpg
1709.055	0.925	correct	repeat	Run2	repeat/STIM_013.jpg
1713.057	0.782	correct	repeat	Run2	repeat/STIM_013.jpg
1716.794	1.066	correct	repeat	Run2	repeat/STIM_013.jpg
1719.834	0.937	correct	repeat	Run2	repeat/STIM_013.jpg
1723.465	1.019	correct	repeat	Run2	repeat/STIM_014.jpg
1728.23	0.814	correct	repeat	Run2	repeat/STIM_014.jpg
1731.708	0.674	correct	repeat	Run2	repeat/STIM_014.jpg
1734.91	0.716	correct	repeat	Run2	repeat/STIM_014.jpg
1738.172	0.712	correct	repeat	Run2	repeat/STIM_014.jpg
1741.739	1.295	correct	generate	Run3	generate/STIM_000.jpg
1745.151	2.361	correct	generate	Run3	generate/STIM_000.jpg
1750.607	1.653	correct	generate	Run3	generate/STIM_000.jpg
1755.382	1.848	correct	generate	Run3	generate/STIM_000.jpg
1759.803	1.861	correct	generate	Run3	generate/STIM_000.jpg
1765.102	1.794	correct	generate	Run3	generate/STIM_001.jpg
1769.437	0.933	correct	generate	Run3	generate/STIM_001.jpg
1774.192	2.114	correct	generate	Run3	generate/STIM_001.jpg
1778.614	1.001	incorrect	generate	Run3	generate/STIM_001.jpg
1781.776	1.201	correct	generate	Run3	generate/STIM_001.jpg
1786.168	1.233	incorrect	generate	Run3	generate/STIM_002.jpg
1789.669	1.343	correct	generate	Run3	generate/STIM_002.jpg
1793.025	1.752	incorrect	generate	Run3	generate/STIM_002.jpg
1797.394	1.235	correct	generate	Run3	generate/STIM_002.jpg
1801.233	1.972	correct	generate	Run3	generate/STIM_002.jpg
1805.882	2.047	correct	generate	Run3	generate/STIM_003.jpg
1809.969	1.861	correct	generate	Run3	generate/STIM_003.jpg
1815.079	0.97	correct	generate	Run3	generate/STIM_003.jpg
1818.585	1.336	correct	generate	Run3	generate/STIM_003.jpg
1822.725	2.07	incorrect	generate	Run3	generate/STIM_003.jpg
1826.918	1.787	correct	generate	Run3	generate/STIM_004.jpg
1830.468	1.238	correct	generate	Run3	generate/STIM_004.jpg
1834.344	1.855	correct	generate	Run3	generate/STIM_004.jpg
1838.249	1.584	correct	generate	Run3	generate/STIM_004.jpg
1843.595	2.029	correct	generate	Run3	generate/STIM_004.jpg
1848.63	2.29	correct	generate	Run3	generate/STIM_005.jpg
1853.921	1.41	incorrect	generate	Run3	generate/STIM_005.jpg
1858.677	1.739	incorrect	generate	Run3	generate/STIM_005.jpg
1864.02	2.087	correct	generate	Run3	generate/STIM_005.jpg
1869.649	1.749	correct	generate	Run3	generate/STIM_005.jpg
1874.986	1.976	correct	generate	Run3	generate/STIM_006.jpg
1879.758	2.118	incorrect	generate	Run3	generate/STIM_006.jpg
1884.477	1.52	correct	generate	Run3	generate/STIM_006.jpg
1888.656	2.007	correct	generate	Run3	generate/STIM_006.jpg
1893.467	2.094	correct	generate	Run3	generate/STIM_006.jpg
1898.553	1.394	correct	generate	Run3	generate/STIM_007.jpg
1901.969	0.938	correct	generate	Run3	generate/STIM_007.jpg
1905.751	1.329	correct	generate	Run3	generate/STIM_007.jpg
1910.053	1.898	correct	generate	Run3	generate/STIM_007.jpg
1914.663	2.22	correct	generate	Run3	generate/STIM_007.jpg
1919.764	1.458	correct	generate	Run3	generate/STIM_008.jpg
1923.222	1.832	correct	generate	Run3	generate/STIM_008.jpg
1927.758	2.165	correct	generate	Run3	generate/STIM_008.jpg
1932.029	1.88	correct	generate	Run3	generate/STIM_008.jpg
1936.772	1.07	correct	generate	Run3	generate/STIM_008.jpg
1941.561	1.415	correct	generate	Run3	generate/STIM_009.jpg
1946.621	2.166	correct	generate	Run3	generate/STIM_009.jpg
1951.576	1.432	correct	generate	Run3	generate/STIM_009.jpg
1955.838	1.598	correct	generate	Run3	generate/STIM_009.jpg
1960.545	1.726	correct	generate	Run3	generate/STIM_009.jpg
1965.762	2.309	correct	generate	Run3	generate/STIM_010.jpg
1969.892	1.349	correct	generate	Run3	generate/STIM_010.jpg
1973.942	2.1	correct	generate	Run3	generate/STIM_010.jpg
1979.431	0.971	correct	generate	Run3	generate/STIM_010.jpg
1983.337	1.516	correct	generate	Run3	generate/STIM_010.jpg
1988.281	1.868	correct	generate	Run3	generate/STIM_011.jpg
1992.696	2.204	correct	generate	Run3	generate/STIM_011.jpg
1997.015	2.218	correct	generate	Run3	generate/STIM_011.jpg
2001.379	2.25	correct	generate	Run3	generate/STIM_011.jpg
2006.323	1.137	correct	generate	Run3	generate/STIM_011.jpg
2011.077	1.159	incorrect	generate	Run3	generate/STIM_012.jpg
2015.339	1.987	correct	generate	Run3	generate/STIM_012.jpg
2019.837	1.612	incorrect	generate	Run3	generate/STIM_012.jpg
2024.325	2.388	correct	generate	Run3	generate/STIM_012.jpg
2028.761	2.023	correct	generate	Run3	generate/STIM_012.jpg
2033.485	1.725	correct	generate	Run3	generate/STIM_013.jpg
2038.426	1.504	incorrect	generate	Run3	generate/STIM_013.jpg
2042.221	1.607	incorrect	generate	Run3	generate/STIM_013.jpg
2047.482	2.266	correct	generate	Run3	generate/STIM_013.jpg
2053.241	1.33	correct	generate	Run3	generate/STIM_013.jpg
2057.907	2.039	correct	generate	Run3	generate/STIM_014.jpg
2062.751	2.394	correct	generate	Run3	generate/STIM_014.jpg
2067.99	0.976	correct	generate	Run3	generate/STIM_014.jpg
2072.832	2.069	correct	generate	Run3	generate/STIM_014.jpg
2077.539	1.881	correct	generate	Run3	generate/STIM_014.jpg
2082.624	2.154	incorrect	generate	Run3	generate/STIM_015.jpg
2086.885	1.901	correct	generate	Run3	generate/STIM_015.jpg
2092.364	1.196	correct	generate	Run3	generate/STIM_015.jpg
2096.639	2.324	correct	generate	Run3	generate/STIM_015.jpg
2101.858	1.739	incorrect	generate	Run3	generate/STIM_015.jpg
2106.88	1.013	correct	generate	Run3	generate/STIM_016.jpg
2111.272	1.438	incorrect	generate	Run3	generate/STIM_016.jpg
2115.725	1.185	correct	generate	Run3	generate/STIM_016.jpg
2120.563	2.31	correct	generate	Run3	generate/STIM_016.jpg
2125.76	1.024	correct	generate	Run3	generate/STIM_016.jpg
2129.003	1.252	correct	generate	Run3	generate/STIM_017.jpg
2132.15	1.308	correct	generate	Run3	generate/STIM_017.jpg
2135.75	1.451	incorrect	generate	Run3	generate/STIM_017.jpg
2139.737	2.326	correct	generate	Run3	generate/STIM_017.jpg
2143.859	1.027	correct	generate	Run3	generate/STIM_017.jpg
2147.714	2.208	correct	generate	Run3	generate/STIM_018.jpg
2152.17	1.693	correct	generate	Run3	generate/STIM_018.jpg
2157.534	1.393	correct	generate	Run3	generate/STIM_018.jpg
2161.279	2.234	correct	generate	Run3	generate/STIM_018.jpg
2166.233	0.977	correct	generate	Run3	generate/STIM_018.jpg
2170.04	1.409	correct	generate	Run3	generate/STIM_019.jpg
2174.105	2.395	correct	generate	Run3	generate/STIM_019.jpg
2179.231	1.437	correct	generate	Run3	generate/STIM_019.jpg
2184.389	1.339	correct	generate	Run3	generate/STIM_019.jpg
2188.204	1.457	correct	generate	Run3	generate/STIM_019.jpg
2191.721	1.408	correct	generate	Run3	generate/STIM_020.jpg
2196.49	2.376	correct	generate	Run3	generate/STIM_020.jpg
2201.092	2.324	correct	generate	Run3	generate/STIM_020.jpg
2205.569	1.5	correct	generate	Run3	generate/STIM_020.jpg
2210.624	1.439	correct	generate	Run3	generate/STIM_020.jpg
2214.401	1.994	correct	generate	Run3	generate/STIM_021.jpg
2219.176	2.135	correct	generate	Run3	generate/STIM_021.jpg
2223.663	0.997	correct	generate	Run3	generate/STIM_021.jpg
2228.057	0.888	correct	generate	Run3	generate/STIM_021.jpg
2231.475	1.528	correct	generate	Run3	generate/STIM_021.jpg
2235.744	2.07	incorrect	generate	Run3	generate/STIM_022.jpg
2239.541	2.141	correct	generate	Run3	generate/STIM_022.jpg
2244.002	2.138	correct	generate	Run3	generate/STIM_022.jpg
2249.663	1.178	correct	generate	Run3	generate/STIM_022.jpg
2253.175	2.262	incorrect	generate	Run3	generate/STIM_022.jpg
2257.568	1.42	correct	generate	Run3	generate/STIM_023.jpg
2262.824	1.41	correct	generate	Run3	generate/STIM_023.jpg
2266.602	2.098	correct	generate	Run3	generate/STIM_023.jpg
2270.57	2.022	correct	generate	Run3	generate/STIM_023.jpg
2275.162	2.002	correct	generate	Run3	generate/STIM_023.jpg
2278.96	2.168	correct	generate	Run3	generate/STIM_024.jpg
2283.608	1.302	incorrect	generate	Run3	generate/STIM_024.jpg
2288.646	1.647	correct	generate	Run3	generate/STIM_024.jpg
2292.963	2.344	correct	generate	Run3	generate/STIM_024.jpg
2297.589	2.291	correct	generate	Run3	generate/STIM_024.jpg
2302.72	1.085	correct	repeat	Run3	repeat/STIM_000.jpg
2306.983	1.177	correct	repeat	Run3	repeat/STIM_000.jpg
2310.474	1.154	correct	repeat	Run3	repeat/STIM_000.jpg
2315.323	1.019	correct	repeat	Run3	repeat/STIM_000.jpg
2319.531	1.099	correct	repeat	Run3	repeat/STIM_000.jpg
2323.816	0.737	correct	repeat	Run3	repeat/STIM_001.jpg
2328.479	1.088	correct	repeat	Run3	repeat/STIM_001.jpg
2332.806	0.764	correct	repeat	Run3	repeat/STIM_001.jpg
2335.585	0.93	correct	repeat	Run3	repeat/STIM_001.jpg
2339.293	0.993	incorrect	repeat	Run3	repeat/STIM_001.jpg
2343.491	0.84	correct	repeat	Run3	repeat/STIM_002.jpg
2348.225	1.147	correct	repeat	Run3	repeat/STIM_002.jpg
2353.084	1.1	correct	repeat	Run3	repeat/STIM_002.jpg
2357.117	0.771	correct	repeat	Run3	repeat/STIM_002.jpg
2361.247	0.604	correct	repeat	Run3	repeat/STIM_002.jpg
2364.064	0.738	correct	repeat	Run3	repeat/STIM_003.jpg
2368.419	0.834	correct	repeat	Run3	repeat/STIM_003.jpg
2371.423	0.71	correct	repeat	Run3	repeat/STIM_003.jpg
2374.631	0.86	correct	repeat	Run3	repeat/STIM_003.jpg
2377.923	0.937	correct	repeat	Run3	repeat/STIM_003.jpg
2380.956	0.682	correct	repeat	Run3	repeat/STIM_004.jpg
2383.726	0.837	correct	repeat	Run3	repeat/STIM_004.jpg
2388.375	1.0	correct	repeat	Run3	repeat/STIM_004.jpg
2393.019	1.1	correct	repeat	Run3	repeat/STIM_004.jpg
2396.815	0.865	correct	repeat	Run3	repeat/STIM_004.jpg
2401.548	0.721	correct	repeat	Run3	repeat/STIM_005.jpg
2404.675	0.846	correct	repeat	Run3	repeat/STIM_005.jpg
2408.024	1.016	correct	repeat	Run3	repeat/STIM_005.jpg
2411.542	0.687	correct	repeat	Run3	repeat/STIM_005.jpg
2414.899	0.762	correct	repeat	Run3	repeat/STIM_005.jpg
2419.152	0.884	correct	repeat	Run3	repeat/STIM_006.jpg
2423.522	1.072	correct	repeat	Run3	repeat/STIM_006.jpg
2427.234	0.688	correct	repeat	Run3	repeat/STIM_006.jpg
2431.79	0.918	correct	repeat	Run3	repeat/STIM_006.jpg
2435.793	0.77	correct	repeat	Run3	repeat/STIM_006.jpg
2439.131	1.018	correct	repeat	Run3	repeat/STIM_007.jpg
2443.616	0.572	correct	repeat	Run3	repeat/STIM_007.jpg
2446.95	1.022	correct	repeat	Run3	repeat/STIM_007.jpg
2450.347	1.111	correct	repeat	Run3	repeat/STIM_007.jpg
2453.706	1.098	correct	repeat	Run3	repeat/STIM_007.jpg
2457.518	0.711	correct	repeat	Run3	repeat/STIM_008.jpg
2460.638	0.898	correct	repeat	Run3	repeat/STIM_008.jpg
2464.882	0.845	correct	repeat	Run3	repeat/STIM_008.jpg
2468.832	0.488	correct	repeat	Run3	repeat/STIM_008.jpg
2472.409	0.885	correct	repeat	Run3	repeat/STIM_008.jpg
2476.584	0.617	correct	repeat	Run3	repeat/STIM_009.jpg
2479.637	0.645	correct	repeat	Run3	repeat/STIM_009.jpg
2482.639	0.618	correct	repeat	Run3	repeat/STIM_009.jpg
2486.942	0.818	correct	repeat	Run3	repeat/STIM_009.jpg
2490.362	0.74	correct	repeat	Run3	repeat/STIM_009.jpg
2494.423	0.831	correct	repeat	Run3	repeat/STIM_010.jpg
2497.745	0.933	correct	repeat	Run3	repeat/STIM_010.jpg
2501.322	0.922	correct	repeat	Run3	repeat/STIM_010.jpg
2505.985	0.868	correct	repeat	Run3	repeat/STIM_010.jpg
2509.977	0.836	correct	repeat	Run3	repeat/STIM_010.jpg
2514.116	0.686	correct	repeat	Run3	repeat/STIM_011.jpg
2518.479	1.026	correct	repeat	Run3	repeat/STIM_011.jpg
2521.887	1.118	correct	repeat	Run3	repeat/STIM_011.jpg
2524.843	0.812	correct	repeat	Run3	repeat/STIM_011.jpg
2528.91	1.16	incorrect	repeat	Run3	repeat/STIM_011.jpg
2533.218	0.58	correct	repeat	Run3	repeat/STIM_012.jpg
2537.115	0.812	correct	repeat	Run3	repeat/STIM_012.jpg
2541.717	0.92	correct	repeat	Run3	repeat/STIM_012.jpg
2545.587	0.818	correct	repeat	Run3	repeat/STIM_012.jpg
2548.612	0.936	correct	repeat	Run3	repeat/STIM_012.jpg
2553.311	0.913	correct	repeat	Run3	repeat/STIM_013.jpg
2557.394	0.768	correct	repeat	Run3	repeat/STIM_013.jpg
2561.691	0.822	correct	repeat	Run3	repeat/STIM_013.jpg
2565.352	0.875	correct	repeat	Run3	repeat/STIM_013.jpg
2568.532	1.051	correct	repeat	Run3	repeat/STIM_013.jpg
2571.814	1.096	correct	repeat	Run3	repeat/STIM_014.jpg
2575.324	0.529	correct	repeat	Run3	repeat/STIM_014.jpg
2579.245	0.772	correct	repeat	Run3	repeat/STIM_014.jpg
2582.699	1.081	correct	repeat	Run3	repeat/STIM_014.jpg
2586.385	0.64	correct	repeat	Run3	repeat/STIM_014.jpg
2589.153	1.61	correct	generate	Run4	generate/STIM_000.jpg
2592.705	2.289	correct	generate	Run4	generate/STIM_000.jpg
2598.679	1.836	correct	generate	Run4	generate/STIM_000.jpg
2602.444	1.416	correct	generate	Run4	generate/STIM_000.jpg
2606.756	1.338	correct	generate	Run4	generate/STIM_000.jpg
2611.981	2.11	correct	generate	Run4	generate/STIM_001.jpg
2617.554	1.437	correct	generate	Run4	generate/STIM_001.jpg
2621.746	1.079	correct	generate	Run4	generate/STIM_001.jpg
2626.591	2.178	correct	generate	Run4	generate/STIM_001.jpg
2632.015	1.298	correct	generate	Run4	generate/STIM_001.jpg
2636.023	1.679	correct	generate	Run4	generate/STIM_002.jpg
2640.252	1.775	incorrect	generate	Run4	generate/STIM_002.jpg
2644.229	1.692	incorrect	generate	Run4	generate/STIM_002.jpg
2648.902	0.996	correct	generate	Run4	generate/STIM_002.jpg
2652.474	2.309	correct	generate	Run4	generate/STIM_002.jpg
2657.523	1.922	correct	generate	Run4	generate/STIM_003.jpg
2662.934	1.659	correct	generate	Run4	generate/STIM_003.jpg
2667.735	1.25	correct	generate	Run4	generate/STIM_003.jpg
2670.987	2.299	correct	generate	Run4	generate/STIM_003.jpg
2676.032	1.255	correct	generate	Run4	generate/STIM_003.jpg
2680.53	2.06	correct	generate	Run4	generate/STIM_004.jpg
2684.325	1.84	correct	generate	Run4	generate/STIM_004.jpg
2689.715	2.114	correct	generate	Run4	generate/STIM_004.jpg
2694.734	1.756	correct	generate	Run4	generate/STIM_004.jpg
2699.182	2.17	correct	generate	Run4	generate/STIM_004.jpg
2703.947	1.025	correct	generate	Run4	generate/STIM_005.jpg
2707.914	1.031	correct	generate	Run4	generate/STIM_005.jpg
2711.351	0.962	correct	generate	Run4	generate/STIM_005.jpg
2714.567	2.04	correct	generate	Run4	generate/STIM_005.jpg
2718.756	1.238	correct	generate	Run4	generate/STIM_005.jpg
2721.951	2.219	correct	generate	Run4	generate/STIM_006.jpg
2727.497	2.253	correct	generate	Run4	generate/STIM_006.jpg
2732.596	1.266	correct	generate	Run4	generate/STIM_006.jpg
2735.992	1.885	correct	generate	Run4	generate/STIM_006.jpg
2741.21	2.225	correct	generate	Run4	generate/STIM_006.jpg
2746.068	1.603	incorrect	generate	Run4	generate/STIM_007.jpg
2750.712	1.956	correct	generate	Run4	generate/STIM_007.jpg
2756.113	2.102	correct	generate	Run4	generate/STIM_007.jpg
2761.97	2.202	correct	generate	Run4	generate/STIM_007.jpg
2766.324	2.23	correct	generate	Run4	generate/STIM_007.jpg
2772.028	2.427	correct	generate	Run4	generate/STIM_008.jpg
2778.029	1.48	correct	generate	Run4	generate/STIM_008.jpg
2782.721	1.548	correct	generate	Run4	generate/STIM_008.jpg
2787.954	2.418	correct	generate	Run4	generate/STIM_008.jpg
2793.544	1.38	correct	generate	Run4	generate/STIM_008.jpg
2798.571	1.634	correct	generate	Run4	generate/STIM_009.jpg
2803.39	2.146	incorrect	generate	Run4	generate/STIM_009.jpg
2808.469	1.614	correct	generate	Run4	generate/STIM_009.jpg
2812.025	1.768	correct	generate	Run4	generate/STIM_009.jpg
2816.402	1.725	correct	generate	Run4	generate/STIM_009.jpg
2821.253	2.166	correct	generate	Run4	generate/STIM_010.jpg
2826.032	1.408	correct	generate	Run4	generate/STIM_010.jpg
2829.556	1.852	correct	generate	Run4	generate/STIM_010.jpg
2834.758	1.876	correct	generate	Run4	generate/STIM_010.jpg
2839.402	2.227	correct	generate	Run4	generate/STIM_010.jpg
2843.61	1.362	correct	generate	Run4	generate/STIM_011.jpg
2847.168	1.534	correct	generate	Run4	generate/STIM_011.jpg
2851.321	1.591	correct	generate	Run4	generate/STIM_011.jpg
2856.387	1.94	correct	generate	Run4	generate/STIM_011.jpg
2860.348	2.358	correct	generate	Run4	generate/STIM_011.jpg
2865.62	1.516	correct	generate	Run4	generate/STIM_012.jpg
2870.415	1.247	correct	generate	Run4	generate/STIM_012.jpg
2873.799	2.154	correct	generate	Run4	generate/STIM_012.jpg
2879.563	2.103	correct	generate	Run4	generate/STIM_012.jpg
2883.815	1.391	correct	generate	Run4	generate/STIM_012.jpg
2888.461	1.355	correct	generate	Run4	generate/STIM_013.jpg
2891.947	2.184	correct	generate	Run4	generate/STIM_013.jpg
2897.131	1.153	correct	generate	Run4	generate/STIM_013.jpg
2900.765	1.921	correct	generate	Run4	generate/STIM_013.jpg
2905.982	2.065	correct	generate	Run4	generate/STIM_013.jpg
2911.69	2.403	correct	generate	Run4	generate/STIM_014.jpg
2917.715	1.433	correct	generate	Run4	generate/STIM_014.jpg
2922.688	1.962	correct	generate	Run4	generate/STIM_014.jpg
2926.551	2.164	correct	generate	Run4	generate/STIM_014.jpg
2932.317	2.329	incorrect	generate	Run4	generate/STIM_014.jpg
2937.196	1.429	correct	generate	Run4	generate/STIM_015.jpg
2942.213	1.345	correct	generate	Run4	generate/STIM_015.jpg
2947.3	2.12	correct	generate	Run4	generate/STIM_015.jpg
2952.045	2.051	correct	generate	Run4	generate/STIM_015.jpg
2957.442	2.233	correct	generate	Run4	generate/STIM_015.jpg
2962.149	1.32	correct	generate	Run4	generate/STIM_016.jpg
2966.067	1.608	correct	generate	Run4	generate/STIM_016.jpg
2970.24	1.291	correct	generate	Run4	generate/STIM_016.jpg
2974.118	1.05	correct	generate	Run4	generate/STIM_016.jpg
2977.322	2.385	correct	generate	Run4	generate/STIM_016.jpg
2982.148	1.188	correct	generate	Run4	generate/STIM_017.jpg
2986.52	1.024	incorrect	generate	Run4	generate/STIM_017.jpg
2990.763	2.014	correct	generate	Run4	generate/STIM_017.jpg
2995.237	1.709	correct	generate	Run4	generate/STIM_017.jpg
2998.899	2.003	correct	generate	Run4	generate/STIM_017.jpg
3003.293	1.912	correct	generate	Run4	generate/STIM_018.jpg
3007.373	1.115	correct	generate	Run4	generate/STIM_018.jpg
3012.126	1.813	correct	generate	Run4	generate/STIM_018.jpg
3017.274	1.861	correct	generate	Run4	generate/STIM_018.jpg
3021.714	1.534	correct	generate	Run4	generate/STIM_018.jpg
3026.953	2.297	correct	generate	Run4	generate/STIM_019.jpg
3032.409	1.852	correct	generate	Run4	generate/STIM_019.jpg
3037.93	1.93	correct	generate	Run4	generate/STIM_019.jpg
3042.852	1.936	correct	generate	Run4	generate/STIM_019.jpg
3048.457	1.088	correct	generate	Run4	generate/STIM_019.jpg
3051.569	1.473	correct	generate	Run4	generate/STIM_020.jpg
3055.938	1.015	correct	generate	Run4	generate/STIM_020.jpg
3060.305	1.978	correct	generate	Run4	generate/STIM_020.jpg
3064.737	1.958	correct	generate	Run4	generate/STIM_020.jpg
3069.326	1.715	correct	generate	Run4	generate/STIM_020.jpg
3074.09	1.483	correct	generate	Run4	generate/STIM_021.jpg
3078.086	2.362	correct	generate	Run4	generate/STIM_021.jpg
3083.2	1.142	correct	generate	Run4	generate/STIM_021.jpg
3087.237	1.541	correct	generate	Run4	generate/STIM_021.jpg
3091.686	1.714	correct	generate	Run4	generate/STIM_021.jpg
3095.974	1.27	correct	generate	Run4	generate/STIM_022.jpg
3100.755	1.811	correct	generate	Run4	generate/STIM_022.jpg
3105.423	1.336	correct	generate	Run4	generate/STIM_022.jpg
3110.0	1.476	correct	generate	Run4	generate/STIM_022.jpg
3114.882	1.903	correct	generate	Run4	generate/STIM_022.jpg
3119.6	1.769	correct	generate	Run4	generate/STIM_023.jpg
3123.567	2.274	correct	generate	Run4	generate/STIM_023.jpg
3128.826	1.685	correct	generate	Run4	generate/STIM_023.jpg
3133.457	1.512	correct	generate	Run4	generate/STIM_023.jpg
3137.684	2.297	correct	generate	Run4	generate/STIM_023.jpg
3142.784	1.07	correct	generate	Run4	generate/STIM_024.jpg
3146.551	1.012	correct	generate	Run4	generate/STIM_024.jpg
3151.163	1.133	correct	generate	Run4	generate/STIM_024.jpg
3154.528	1.825	correct	generate	Run4	generate/STIM_024.jpg
3159.429	1.706	correct	generate	Run4	generate/STIM_024.jpg
3164.827	0.996	correct	repeat	Run4	repeat/STIM_000.jpg
3169.539	1.042	incorrect	repeat	Run4	repeat/STIM_000.jpg
3174.073	0.966	correct	repeat	Run4	repeat/STIM_000.jpg
3177.714	0.833	incorrect	repeat	Run4	repeat/STIM_000.jpg
3181.851	1.12	correct	repeat	Run4	repeat/STIM_000.jpg
3185.345	0.876	correct	repeat	Run4	repeat/STIM_001.jpg
3190.008	0.691	correct	repeat	Run4	repeat/STIM_001.jpg
3193.884	0.877	correct	repeat	Run4	repeat/STIM_001.jpg
3198.006	0.567	correct	repeat	Run4	repeat/STIM_001.jpg
3200.973	1.072	correct	repeat	Run4	repeat/STIM_001.jpg
3204.93	1.049	correct	repeat	Run4	repeat/STIM_002.jpg
3209.645	1.044	correct	repeat	Run4	repeat/STIM_002.jpg
3213.744	0.867	incorrect	repeat	Run4	repeat/STIM_002.jpg
3216.891	1.074	correct	repeat	Run4	repeat/STIM_002.jpg
3220.552	0.641	correct	repeat	Run4	repeat/STIM_002.jpg
3225.078	0.778	correct	repeat	Run4	repeat/STIM_003.jpg
3228.344	0.919	correct	repeat	Run4	repeat/STIM_003.jpg
3232.299	0.989	correct	repeat	Run4	repeat/STIM_003.jpg
3235.322	0.788	correct	repeat	Run4	repeat/STIM_003.jpg
3238.438	0.739	correct	repeat	Run4	repeat/STIM_003.jpg
3241.841	0.72	correct	repeat	Run4	repeat/STIM_004.jpg
3244.597	0.943	correct	repeat	Run4	repeat/STIM_004.jpg
3248.283	0.871	correct	repeat	Run4	repeat/STIM_004.jpg
3251.521	0.922	correct	repeat	Run4	repeat/STIM_004.jpg
3255.18	1.048	correct	repeat	Run4	repeat/STIM_004.jpg
3259.181	0.934	correct	repeat	Run4	repeat/STIM_005.jpg
3263.138	1.005	correct	repeat	Run4	repeat/STIM_005.jpg
3267.253	0.797	correct	repeat	Run4	repeat/STIM_005.jpg
3271.537	1.178	correct	repeat	Run4	repeat/STIM_005.jpg
3276.457	0.927	correct	repeat	Run4	repeat/STIM_005.jpg
3279.452	0.847	correct	repeat	Run4	repeat/STIM_006.jpg
3283.359	0.623	correct	repeat	Run4	repeat/STIM_006.jpg
3286.498	0.735	correct	repeat	Run4	repeat/STIM_006.jpg
3290.539	0.968	correct	repeat	Run4	repeat/STIM_006.jpg
3295.213	0.863	correct	repeat	Run4	repeat/STIM_006.jpg
3298.649	0.845	correct	repeat	Run4	repeat/STIM_007.jpg
3302.624	0.959	correct	repeat	Run4	repeat/STIM_007.jpg
3305.872	1.196	correct	repeat	Run4	repeat/STIM_007.jpg
3309.709	0.832	correct	repeat	Run4	repeat/STIM_007.jpg
3314.04	0.91	correct	repeat	Run4	repeat/STIM_007.jpg
3318.51	0.929	correct	repeat	Run4	repeat/STIM_008.jpg
3322.724	1.064	correct	repeat	Run4	repeat/STIM_008.jpg
3325.989	0.928	correct	repeat	Run4	repeat/STIM_008.jpg
3329.485	0.867	correct	repeat	Run4	repeat/STIM_008.jpg
3334.001	0.671	correct	repeat	Run4	repeat/STIM_008.jpg
3337.682	0.781	correct	repeat	Run4	repeat/STIM_009.jpg
3341.939	1.066	correct	repeat	Run4	repeat/STIM_009.jpg
3346.224	1.015	correct	repeat	Run4	repeat/STIM_009.jpg
3351.007	0.806	correct	repeat	Run4	repeat/STIM_009.jpg
3355.157	0.625	correct	repeat	Run4	repeat/STIM_009.jpg
3358.279	0.94	correct	repeat	Run4	repeat/STIM_010.jpg
3362.448	0.994	correct	repeat	Run4	repeat/STIM_010.jpg
3365.467	0.739	correct	repeat	Run4	repeat/STIM_010.jpg
3369.04	0.944	correct	repeat	Run4	repeat/STIM_010.jpg
3372.9	0.882	correct	repeat	Run4	repeat/STIM_010.jpg
3376.221	0.755	correct	repeat	Run4	repeat/STIM_011.jpg
3379.863	0.786	correct	repeat	Run4	repeat/STIM_011.jpg
3383.754	0.905	correct	repeat	Run4	repeat/STIM_011.jpg
3388.027	0.753	correct	repeat	Run4	repeat/STIM_011.jpg
3392.522	0.807	correct	repeat	Run4	repeat/STIM_011.jpg
3396.493	1.199	correct	repeat	Run4	repeat/STIM_012.jpg
3401.439	1.053	correct	repeat	Run4	repeat/STIM_012.jpg
3405.993	0.685	correct	repeat	Run4	repeat/STIM_012.jpg
3408.824	1.145	correct	repeat	Run4	repeat/STIM_012.jpg
3412.621	0.683	correct	repeat	Run4	repeat/STIM_012.jpg
3416.394	0.903	correct	repeat	Run4	repeat/STIM_013.jpg
3420.5	1.114	correct	repeat	Run4	repeat/STIM_013.jpg
3423.491	0.736	correct	repeat	Run4	repeat/STIM_013.jpg
3426.79	1.126	correct	repeat	Run4	repeat/STIM_013.jpg
3430.053	0.809	correct	repeat	Run4	repeat/STIM_013.jpg
3434.464	0.991	correct	repeat	Run4	repeat/STIM_014.jpg
3438.06	0.641	correct	repeat	Run4	repeat/STIM_014.jpg
3440.752	1.03	correct	repeat	Run4	repeat/STIM_014.jpg
3444.965	1.128	correct	repeat	Run4	repeat/STIM_014.jpg
3449.109	0.967	correct	repeat	Run4	repeat/STIM_014.jpg
