onset	duration	response_time_ms	trial_type	learning_stage	stimulus	response_port
0.0	1.378	1377.6	generate	Run1	generate/STIM_000.jpg	99
5.234	2.83	2829.8	generate	Run1	generate/STIM_000.jpg	99
11.035	2.437	2436.9	generate	Run1	generate/STIM_000.jpg	100
16.454	1.522	1522.1	generate	Run1	generate/STIM_000.jpg	99
21.06	2.604	2604.1	generate	Run1	generate/STIM_000.jpg	100
25.757	1.566	1566.1	generate	Run1	generate/STIM_001.jpg	99
30.089	2.295	2295.3	generate	Run1	generate/STIM_001.jpg	99
36.154	2.526	2526.0	generate	Run1	generate/STIM_001.jpg	100
41.114	1.526	1526.1	generate	Run1	generate/STIM_001.jpg	100
44.975	1.554	1554.4	generate	Run1	generate/STIM_001.jpg	99
50.391	1.537	1537.0	generate	Run1	generate/STIM_002.jpg	100
54.007	1.411	1411.2	generate	Run1	generate/STIM_002.jpg	100
57.882	2.184	2183.5	generate	Run1	generate/STIM_002.jpg	100
62.219	1.57	1569.8	generate	Run1	generate/STIM_002.jpg	99
66.162	1.182	1182.4	generate	Run1	generate/STIM_002.jpg	100
69.602	3.26	3260.3	generate	Run1	generate/STIM_003.jpg	99
76.541	3.097	3096.7	generate	Run1	generate/STIM_003.jpg	99
81.823	2.954	2954.5	generate	Run1	generate/STIM_003.jpg	99
86.909	2.577	2576.7	generate	Run1	generate/STIM_003.jpg	99
92.914	1.094	1093.7	generate	Run1	generate/STIM_003.jpg	99
97.327	3.028	3028.2	generate	Run1	generate/STIM_004.jpg	100
103.209	1.802	1802.2	generate	Run1	generate/STIM_004.jpg	100
107.103	1.884	1884.4	generate	Run1	generate/STIM_004.jpg	100
112.16	1.416	1416.1	generate	Run1	generate/STIM_004.jpg	100
116.388	1.334	1333.7	generate	Run1	generate/STIM_004.jpg	100
120.011	2.056	2056.3	generate	Run1	generate/STIM_005.jpg	100
124.089	2.04	2040.2	generate	Run1	generate/STIM_005.jpg	99
128.93	2.83	2830.1	generate	Run1	generate/STIM_005.jpg	100
135.132	1.283	1283.2	generate	Run1	generate/STIM_005.jpg	100
139.887	1.977	1977.3	generate	Run1	generate/STIM_005.jpg	100
144.652	2.176	2175.6	generate	Run1	generate/STIM_006.jpg	99
149.165	2.786	2786.1	generate	Run1	generate/STIM_006.jpg	100
154.559	2.32	2320.5	generate	Run1	generate/STIM_006.jpg	100
159.624	2.48	2480.4	generate	Run1	generate/STIM_006.jpg	99
165.809	1.974	1974.0	generate	Run1	generate/STIM_006.jpg	100
170.99	2.539	2538.7	generate	Run1	generate/STIM_007.jpg	100
176.726	1.325	1325.2	generate	Run1	generate/STIM_007.jpg	99
180.979	1.483	1483.2	generate	Run1	generate/STIM_007.jpg	100
186.171	1.64	1640.4	generate	Run1	generate/STIM_007.jpg	99
191.059	1.571	1571.1	generate	Run1	generate/STIM_007.jpg	100
196.498	1.347	1346.6	generate	Run1	generate/STIM_008.jpg	99
200.507	2.946	2946.3	generate	Run1	generate/STIM_008.jpg	99
205.711	1.539	1538.8	generate	Run1	generate/STIM_008.jpg	100
210.269	1.375	1375.0	generate	Run1	generate/STIM_008.jpg	100
215.594	2.423	2423.3	generate	Run1	generate/STIM_008.jpg	99
220.297	2.998	2998.0	generate	Run1	generate/STIM_009.jpg	100
225.381	1.359	1359.4	generate	Run1	generate/STIM_009.jpg	100
229.181	1.388	1387.8	generate	Run1	generate/STIM_009.jpg	99
232.641	2.361	2361.2	generate	Run1	generate/STIM_009.jpg	99
238.025	1.22	1220.2	generate	Run1	generate/STIM_009.jpg	100
241.569	2.45	2449.9	generate	Run1	generate/STIM_010.jpg	100
247.449	2.94	2939.8	generate	Run1	generate/STIM_010.jpg	99
253.359	1.258	1257.8	generate	Run1	generate/STIM_010.jpg	100
256.691	1.316	1315.9	generate	Run1	generate/STIM_010.jpg	100
260.12	1.48	1479.7	generate	Run1	generate/STIM_010.jpg	99
263.757	2.41	2409.5	generate	Run1	generate/STIM_011.jpg	100
270.134	2.642	2642.5	generate	Run1	generate/STIM_011.jpg	99
275.431	2.597	2597.2	generate	Run1	generate/STIM_011.jpg	99
280.667	1.207	1206.8	generate	Run1	generate/STIM_011.jpg	99
285.783	2.098	2097.6	generate	Run1	generate/STIM_011.jpg	100
291.113	2.079	2078.9	generate	Run1	generate/STIM_012.jpg	99
295.746	2.605	2605.1	generate	Run1	generate/STIM_012.jpg	100
301.895	2.497	2496.7	generate	Run1	generate/STIM_012.jpg	99
307.581	1.729	1729.4	generate	Run1	generate/STIM_012.jpg	100
311.436	1.25	1250.3	generate	Run1	generate/STIM_012.jpg	99
315.709	2.206	2206.4	generate	Run1	generate/STIM_013.jpg	100
320.276	2.577	2577.0	generate	Run1	generate/STIM_013.jpg	99
326.59	2.118	2117.6	generate	Run1	generate/STIM_013.jpg	100
331.054	1.408	1408.2	generate	Run1	generate/STIM_013.jpg	99
336.013	1.831	1831.4	generate	Run1	generate/STIM_013.jpg	99
340.874	1.682	1682.3	generate	Run1	generate/STIM_014.jpg	100
344.742	3.06	3060.0	generate	Run1	generate/STIM_014.jpg	100
351.164	2.327	2326.8	generate	Run1	generate/STIM_014.jpg	99
356.699	2.478	2478.3	generate	Run1	generate/STIM_014.jpg	99
362.795	1.595	1594.6	generate	Run1	generate/STIM_014.jpg	100
368.254	2.404	2403.5	generate	Run1	generate/STIM_015.jpg	99
373.405	2.788	2788.5	generate	Run1	generate/STIM_015.jpg	99
379.052	2.784	2783.9	generate	Run1	generate/STIM_015.jpg	99
384.499	1.467	1467.1	generate	Run1	generate/STIM_015.jpg	99
388.251	1.485	1485.3	generate	Run1	generate/STIM_015.jpg	100
391.788	3.148	3148.2	generate	Run1	generate/STIM_016.jpg	100
397.723	1.328	1328.4	generate	Run1	generate/STIM_016.jpg	99
402.141	2.719	2719.4	generate	Run1	generate/STIM_016.jpg	100
408.753	2.258	2258.0	generate	Run1	generate/STIM_016.jpg	99
413.852	1.336	1335.5	generate	Run1	generate/STIM_016.jpg	99
418.007	2.002	2002.4	generate	Run1	generate/STIM_017.jpg	100
422.303	1.842	1841.5	generate	Run1	generate/STIM_017.jpg	100
427.433	1.333	1333.1	generate	Run1	generate/STIM_017.jpg	100
432.662	2.772	2771.8	generate	Run1	generate/STIM_017.jpg	99
437.968	2.242	2241.9	generate	Run1	generate/STIM_017.jpg	100
444.2	2.367	2367.4	generate	Run1	generate/STIM_018.jpg	99
448.696	2.944	2944.4	generate	Run1	generate/STIM_018.jpg	99
455.16	1.955	1955.2	generate	Run1	generate/STIM_018.jpg	100
460.509	1.512	1512.4	generate	Run1	generate/STIM_018.jpg	99
464.27	2.568	2568.4	generate	Run1	generate/STIM_018.jpg	100
469.473	2.584	2584.4	generate	Run1	generate/STIM_019.jpg	100
474.675	1.819	1819.3	generate	Run1	generate/STIM_019.jpg	100
478.899	2.819	2818.7	generate	Run1	generate/STIM_019.jpg	99
485.629	1.56	1560.2	generate	Run1	generate/STIM_019.jpg	100
490.231	1.39	1390.3	generate	Run1	generate/STIM_019.jpg	100
495.359	1.974	1973.6	generate	Run1	generate/STIM_020.jpg	99
500.112	2.936	2936.4	generate	Run1	generate/STIM_020.jpg	99
505.872	1.744	1744.3	generate	Run1	generate/STIM_020.jpg	100
510.932	1.659	1658.7	generate	Run1	generate/STIM_020.jpg	99
514.649	2.579	2579.2	generate	Run1	generate/STIM_020.jpg	100
520.098	2.498	2498.2	generate	Run1	generate/STIM_021.jpg	100
525.824	3.103	3103.0	generate	Run1	generate/STIM_021.jpg	100
532.792	1.199	1198.6	generate	Run1	generate/STIM_021.jpg	100
537.389	1.683	1682.6	generate	Run1	generate/STIM_021.jpg	100
542.732	1.619	1618.8	generate	Run1	generate/STIM_021.jpg	99
546.686	2.119	2119.2	generate	Run1	generate/STIM_022.jpg	100
552.29	2.64	2640.0	generate	Run1	generate/STIM_022.jpg	99
557.064	2.539	2539.0	generate	Run1	generate/STIM_022.jpg	99
563.471	1.53	1529.8	generate	Run1	generate/STIM_022.jpg	99
568.063	2.371	2370.8	generate	Run1	generate/STIM_022.jpg	100
572.994	1.893	1893.2	generate	Run1	generate/STIM_023.jpg	99
577.126	2.154	2154.1	generate	Run1	generate/STIM_023.jpg	100
582.905	2.392	2391.8	generate	Run1	generate/STIM_023.jpg	100
589.06	2.337	2336.9	generate	Run1	generate/STIM_023.jpg	100
595.261	1.786	1786.1	generate	Run1	generate/STIM_023.jpg	99
599.997	2.442	2442.5	generate	Run1	generate/STIM_024.jpg	99
606.383	2.346	2345.7	generate	Run1	generate/STIM_024.jpg	99
610.776	1.939	1939.1	generate	Run1	generate/STIM_024.jpg	100
614.948	2.172	2172.1	generate	Run1	generate/STIM_024.jpg	99
620.171	1.23	1229.6	generate	Run1	generate/STIM_024.jpg	100
624.707	1.044	1044.0	repeat	Run1	repeat/STIM_000.jpg	99
629.6	1.001	1000.9	repeat	Run1	repeat/STIM_000.jpg	99
633.888	0.612	612.4	repeat	Run1	repeat/STIM_000.jpg	100
637.788	1.018	1018.5	repeat	Run1	repeat/STIM_000.jpg	99
641.169	0.823	822.8	repeat	Run1	repeat/STIM_000.jpg	100
645.298	0.686	686.4	repeat	Run1	repeat/STIM_001.jpg	99
648.579	0.706	706.5	repeat	Run1	repeat/STIM_001.jpg	99
652.577	0.69	690.0	repeat	Run1	repeat/STIM_001.jpg	99
656.501	0.666	666.3	repeat	Run1	repeat/STIM_001.jpg	100
659.581	0.936	935.8	repeat	Run1	repeat/STIM_001.jpg	100
663.787	0.659	658.9	repeat	Run1	repeat/STIM_002.jpg	100
667.856	0.595	594.8	repeat	Run1	repeat/STIM_002.jpg	100
672.246	0.884	884.5	repeat	Run1	repeat/STIM_002.jpg	100
677.086	0.977	977.2	repeat	Run1	repeat/STIM_002.jpg	99
681.465	0.947	947.4	repeat	Run1	repeat/STIM_002.jpg	99
685.042	0.96	960.4	repeat	Run1	repeat/STIM_003.jpg	100
689.025	0.789	789.1	repeat	Run1	repeat/STIM_003.jpg	99
693.002	0.949	948.7	repeat	Run1	repeat/STIM_003.jpg	100
697.651	0.98	980.1	repeat	Run1	repeat/STIM_003.jpg	99
702.167	0.761	760.7	repeat	Run1	repeat/STIM_003.jpg	99
705.077	0.967	967.2	repeat	Run1	repeat/STIM_004.jpg	100
708.702	1.027	1027.3	repeat	Run1	repeat/STIM_004.jpg	100
712.203	1.011	1010.6	repeat	Run1	repeat/STIM_004.jpg	99
716.345	0.686	685.9	repeat	Run1	repeat/STIM_004.jpg	100
720.963	0.916	915.5	repeat	Run1	repeat/STIM_004.jpg	100
724.298	0.712	712.1	repeat	Run1	repeat/STIM_005.jpg	100
727.452	0.649	649.1	repeat	Run1	repeat/STIM_005.jpg	100
731.433	0.576	576.1	repeat	Run1	repeat/STIM_005.jpg	99
734.403	0.934	934.1	repeat	Run1	repeat/STIM_005.jpg	99
737.854	0.786	785.9	repeat	Run1	repeat/STIM_005.jpg	99
740.858	0.926	926.0	repeat	Run1	repeat/STIM_006.jpg	100
745.218	0.965	965.0	repeat	Run1	repeat/STIM_006.jpg	100
749.411	0.986	986.5	repeat	Run1	repeat/STIM_006.jpg	100
753.503	0.956	956.2	repeat	Run1	repeat/STIM_006.jpg	100
756.804	0.743	743.3	repeat	Run1	repeat/STIM_006.jpg	99
760.611	0.572	572.3	repeat	Run1	repeat/STIM_007.jpg	100
764.861	0.604	604.4	repeat	Run1	repeat/STIM_007.jpg	100
768.149	0.955	954.8	repeat	Run1	repeat/STIM_007.jpg	99
772.423	0.979	979.3	repeat	Run1	repeat/STIM_007.jpg	99
775.862	1.087	1087.3	repeat	Run1	repeat/STIM_007.jpg	100
778.973	0.633	632.9	repeat	Run1	repeat/STIM_008.jpg	99
782.999	0.652	652.2	repeat	Run1	repeat/STIM_008.jpg	100
786.901	0.922	921.7	repeat	Run1	repeat/STIM_008.jpg	99
790.468	0.676	675.6	repeat	Run1	repeat/STIM_008.jpg	100
794.119	0.556	555.8	repeat	Run1	repeat/STIM_008.jpg	99
798.203	1.061	1061.0	repeat	Run1	repeat/STIM_009.jpg	99
802.53	0.556	556.1	repeat	Run1	repeat/STIM_009.jpg	100
805.661	0.627	627.3	repeat	Run1	repeat/STIM_009.jpg	99
808.404	0.638	637.7	repeat	Run1	repeat/STIM_009.jpg	100
811.404	0.718	718.1	repeat	Run1	repeat/STIM_009.jpg	100
815.845	1.02	1020.5	repeat	Run1	repeat/STIM_010.jpg	99
820.807	1.026	1026.3	repeat	Run1	repeat/STIM_010.jpg	99
824.023	0.625	624.6	repeat	Run1	repeat/STIM_010.jpg	99
827.805	0.74	740.1	repeat	Run1	repeat/STIM_010.jpg	100
830.776	0.914	913.9	repeat	Run1	repeat/STIM_010.jpg	99
834.008	1.039	1039.1	repeat	Run1	repeat/STIM_011.jpg	99
838.177	0.811	811.4	repeat	Run1	repeat/STIM_011.jpg	100
841.685	0.583	582.6	repeat	Run1	repeat/STIM_011.jpg	99
845.778	0.863	863.0	repeat	Run1	repeat/STIM_011.jpg	100
849.469	0.772	772.3	repeat	Run1	repeat/STIM_011.jpg	99
853.116	0.905	905.1	repeat	Run1	repeat/STIM_012.jpg	100
856.81	0.551	551.4	repeat	Run1	repeat/STIM_012.jpg	99
860.641	0.671	671.1	repeat	Run1	repeat/STIM_012.jpg	99
863.33	1.007	1007.3	repeat	Run1	repeat/STIM_012.jpg	100
866.898	0.717	716.6	repeat	Run1	repeat/STIM_012.jpg	99
869.672	0.996	995.8	repeat	Run1	repeat/STIM_013.jpg	99
873.034	0.737	736.8	repeat	Run1	repeat/STIM_013.jpg	99
877.121	0.612	611.9	repeat	Run1	repeat/STIM_013.jpg	100
880.664	0.769	769.3	repeat	Run1	repeat/STIM_013.jpg	100
884.773	0.826	826.5	repeat	Run1	repeat/STIM_013.jpg	99
888.122	0.594	594.0	repeat	Run1	repeat/STIM_014.jpg	99
890.777	0.586	586.5	repeat	Run1	repeat/STIM_014.jpg	100
893.831	0.843	842.7	repeat	Run1	repeat/STIM_014.jpg	99
897.934	1.015	1014.9	repeat	Run1	repeat/STIM_014.jpg	100
901.858	0.758	757.5	repeat	Run1	repeat/STIM_014.jpg	100
905.382	1.828	1828.4	generate	Run2	generate/STIM_000.jpg	99
910.93	1.516	1516.0	generate	Run2	generate/STIM_000.jpg	100
915.897	1.608	1607.7	generate	Run2	generate/STIM_000.jpg	100
920.681	1.789	1789.1	generate	Run2	generate/STIM_000.jpg	100
925.04	0.985	985.0	generate	Run2	generate/STIM_000.jpg	99
928.251	2.142	2141.6	generate	Run2	generate/STIM_001.jpg	100
932.889	1.827	1827.0	generate	Run2	generate/STIM_001.jpg	100
937.067	2.382	2381.6	generate	Run2	generate/STIM_001.jpg	99
942.921	1.31	1309.8	generate	Run2	generate/STIM_001.jpg	99
947.806	1.616	1615.7	generate	Run2	generate/STIM_001.jpg	100
951.624	1.85	1849.7	generate	Run2	generate/STIM_002.jpg	99
957.464	1.532	1532.1	generate	Run2	generate/STIM_002.jpg	99
962.261	1.006	1006.5	generate	Run2	generate/STIM_002.jpg	99
966.636	1.24	1239.5	generate	Run2	generate/STIM_002.jpg	100
970.51	1.45	1450.5	generate	Run2	generate/STIM_002.jpg	99
975.336	2.349	2349.1	generate	Run2	generate/STIM_003.jpg	100
979.886	2.59	2590.5	generate	Run2	generate/STIM_003.jpg	100
986.326	1.373	1373.1	generate	Run2	generate/STIM_003.jpg	99
990.049	1.375	1374.7	generate	Run2	generate/STIM_003.jpg	100
994.362	1.25	1250.0	generate	Run2	generate/STIM_003.jpg	99
998.776	1.305	1305.1	generate	Run2	generate/STIM_004.jpg	99
1003.167	1.718	1717.5	generate	Run2	generate/STIM_004.jpg	99
1008.127	1.507	1506.6	generate	Run2	generate/STIM_004.jpg	99
1013.572	1.43	1429.5	generate	Run2	generate/STIM_004.jpg	99
1018.135	1.245	1245.2	generate	Run2	generate/STIM_004.jpg	99
1021.544	1.205	1204.9	generate	Run2	generate/STIM_005.jpg	99
1024.993	1.443	1442.9	generate	Run2	generate/STIM_005.jpg	99
1028.646	2.097	2097.3	generate	Run2	generate/STIM_005.jpg	100
1034.727	1.774	1774.0	generate	Run2	generate/STIM_005.jpg	99
1040.179	1.744	1743.9	generate	Run2	generate/STIM_005.jpg	99
1045.887	1.942	1941.7	generate	Run2	generate/STIM_006.jpg	100
1050.475	1.497	1496.9	generate	Run2	generate/STIM_006.jpg	100
1054.571	1.914	1914.5	generate	Run2	generate/STIM_006.jpg	100
1058.72	1.385	1384.8	generate	Run2	generate/STIM_006.jpg	100
1062.957	1.867	1866.6	generate	Run2	generate/STIM_006.jpg	99
1068.607	1.198	1198.3	generate	Run2	generate/STIM_007.jpg	99
1072.513	2.314	2313.5	generate	Run2	generate/STIM_007.jpg	100
1078.289	1.392	1391.8	generate	Run2	generate/STIM_007.jpg	100
1081.739	0.923	923.4	generate	Run2	generate/STIM_007.jpg	99
1086.638	2.228	2227.9	generate	Run2	generate/STIM_007.jpg	99
1092.824	1.903	1903.3	generate	Run2	generate/STIM_008.jpg	100
1096.971	2.229	2228.8	generate	Run2	generate/STIM_008.jpg	100
1103.199	1.327	1326.9	generate	Run2	generate/STIM_008.jpg	100
1106.55	1.354	1353.9	generate	Run2	generate/STIM_008.jpg	100
1110.6	1.608	1607.8	generate	Run2	generate/STIM_008.jpg	99
1114.74	1.835	1835.1	generate	Run2	generate/STIM_009.jpg	100
1119.189	1.103	1102.6	generate	Run2	generate/STIM_009.jpg	100
1123.976	1.884	1883.7	generate	Run2	generate/STIM_009.jpg	100
1129.725	1.911	1910.7	generate	Run2	generate/STIM_009.jpg	100
1135.322	1.846	1846.4	generate	Run2	generate/STIM_009.jpg	100
1139.36	2.335	2335.3	generate	Run2	generate/STIM_010.jpg	100
1143.846	2.452	2451.7	generate	Run2	generate/STIM_010.jpg	100
1149.679	1.399	1399.1	generate	Run2	generate/STIM_010.jpg	100
1154.868	1.148	1148.4	generate	Run2	generate/STIM_010.jpg	99
1160.006	1.794	1794.4	generate	Run2	generate/STIM_010.jpg	100
1164.605	2.029	2028.7	generate	Run2	generate/STIM_011.jpg	99
1168.926	1.875	1875.2	generate	Run2	generate/STIM_011.jpg	99
1173.624	1.607	1607.1	generate	Run2	generate/STIM_011.jpg	99
1177.277	1.457	1456.9	generate	Run2	generate/STIM_011.jpg	99
1181.525	2.042	2041.5	generate	Run2	generate/STIM_011.jpg	100
1186.012	1.95	1949.7	generate	Run2	generate/STIM_012.jpg	100
1190.985	1.102	1101.8	generate	Run2	generate/STIM_012.jpg	100
1195.86	2.062	2062.5	generate	Run2	generate/STIM_012.jpg	99
1200.547	1.924	1924.2	generate	Run2	generate/STIM_012.jpg	100
1205.69	1.109	1108.8	generate	Run2	generate/STIM_012.jpg	99
1210.52	2.724	2724.1	generate	Run2	generate/STIM_013.jpg	100
1217.02	1.663	1663.0	generate	Run2	generate/STIM_013.jpg	100
1221.44	1.695	1695.4	generate	Run2	generate/STIM_013.jpg	99
1225.977	0.996	996.3	generate	Run2	generate/STIM_013.jpg	99
1229.971	1.736	1736.2	generate	Run2	generate/STIM_013.jpg	99
1234.445	1.239	1238.7	generate	Run2	generate/STIM_014.jpg	99
1239.366	1.98	1980.5	generate	Run2	generate/STIM_014.jpg	99
1245.205	1.239	1238.7	generate	Run2	generate/STIM_014.jpg	100
1248.457	0.931	931.0	generate	Run2	generate/STIM_014.jpg	99
1252.082	2.148	2148.3	generate	Run2	generate/STIM_014.jpg	99
1257.135	1.431	1430.6	generate	Run2	generate/STIM_015.jpg	99
1261.501	2.614	2614.0	generate	Run2	generate/STIM_015.jpg	100
1267.129	1.896	1895.7	generate	Run2	generate/STIM_015.jpg	99
1272.263	1.691	1691.4	generate	Run2	generate/STIM_015.jpg	100
1277.469	2.046	2045.7	generate	Run2	generate/STIM_015.jpg	100
1282.436	2.059	2058.8	generate	Run2	generate/STIM_016.jpg	99
1287.502	1.79	1790.1	generate	Run2	generate/STIM_016.jpg	100
1293.034	2.418	2417.7	generate	Run2	generate/STIM_016.jpg	99
1298.549	1.97	1969.5	generate	Run2	generate/STIM_016.jpg	100
1303.447	1.956	1956.0	generate	Run2	generate/STIM_016.jpg	99
1308.182	2.338	2337.6	generate	Run2	generate/STIM_017.jpg	100
1313.755	1.696	1696.1	generate	Run2	generate/STIM_017.jpg	99
1318.459	2.403	2403.1	generate	Run2	generate/STIM_017.jpg	99
1323.133	1.471	1470.7	generate	Run2	generate/STIM_017.jpg	99
1327.215	1.522	1521.7	generate	Run2	generate/STIM_017.jpg	100
1332.191	1.574	1573.6	generate	Run2	generate/STIM_018.jpg	99
1337.53	2.571	2570.8	generate	Run2	generate/STIM_018.jpg	99
1343.575	1.44	1440.1	generate	Run2	generate/STIM_018.jpg	100
1347.27	1.623	1623.1	generate	Run2	generate/STIM_018.jpg	99
1352.311	1.444	1443.6	generate	Run2	generate/STIM_018.jpg	100
1357.105	2.776	2775.7	generate	Run2	generate/STIM_019.jpg	100
1362.383	1.253	1253.4	generate	Run2	generate/STIM_019.jpg	99
1366.334	2.338	2338.5	generate	Run2	generate/STIM_019.jpg	99
1371.683	1.382	1381.9	generate	Run2	generate/STIM_019.jpg	100
1375.502	1.785	1784.7	generate	Run2	generate/STIM_019.jpg	99
1380.681	1.842	1842.1	generate	Run2	generate/STIM_020.jpg	99
1386.296	1.668	1668.1	generate	Run2	generate/STIM_020.jpg	99
1390.344	1.744	1743.7	generate	Run2	generate/STIM_020.jpg	99
1394.357	1.336	1335.7	generate	Run2	generate/STIM_020.jpg	99
1397.706	1.763	1763.0	generate	Run2	generate/STIM_020.jpg	100
1402.451	1.602	1601.6	generate	Run2	generate/STIM_021.jpg	99
1407.965	2.528	2528.5	generate	Run2	generate/STIM_021.jpg	99
1413.64	1.059	1059.3	generate	Run2	generate/STIM_021.jpg	100
1416.868	1.41	1409.8	generate	Run2	generate/STIM_021.jpg	100
1420.28	1.576	1576.1	generate	Run2	generate/STIM_021.jpg	99
1424.062	2.722	2722.5	generate	Run2	generate/STIM_022.jpg	99
1429.878	1.718	1717.9	generate	Run2	generate/STIM_022.jpg	100
1435.581	1.864	1863.9	generate	Run2	generate/STIM_022.jpg	100
1441.208	1.606	1606.3	generate	Run2	generate/STIM_022.jpg	100
1446.718	1.134	1134.0	generate	Run2	generate/STIM_022.jpg	99
1450.662	1.184	1184.3	generate	Run2	generate/STIM_023.jpg	100
1455.203	1.142	1142.5	generate	Run2	generate/STIM_023.jpg	100
1459.584	1.666	1666.2	generate	Run2	generate/STIM_023.jpg	99
1464.921	1.462	1462.1	generate	Run2	generate/STIM_023.jpg	100
1468.959	1.857	1857.3	generate	Run2	generate/STIM_023.jpg	100
1474.713	1.308	1307.7	generate	Run2	generate/STIM_024.jpg	100
1478.251	2.594	2593.9	generate	Run2	generate/STIM_024.jpg	99
1484.299	1.682	1682.4	generate	Run2	generate/STIM_024.jpg	100
1488.621	1.179	1178.7	generate	Run2	generate/STIM_024.jpg	100
1492.214	1.303	1302.6	generate	Run2	generate/STIM_024.jpg	99
1496.939	1.072	1071.5	repeat	Run2	repeat/STIM_000.jpg	100
1501.319	0.582	582.3	repeat	Run2	repeat/STIM_000.jpg	99
1505.753	0.946	946.5	repeat	Run2	repeat/STIM_000.jpg	100
1508.814	0.595	595.1	repeat	Run2	repeat/STIM_000.jpg	100
1512.0	0.926	926.2	repeat	Run2	repeat/STIM_000.jpg	99
1516.834	0.889	888.7	repeat	Run2	repeat/STIM_001.jpg	99
1520.703	0.666	665.7	repeat	Run2	repeat/STIM_001.jpg	99
1524.482	0.99	990.5	repeat	Run2	repeat/STIM_001.jpg	99
1528.742	0.782	782.5	repeat	Run2	repeat/STIM_001.jpg	100
1532.979	0.824	823.9	repeat	Run2	repeat/STIM_001.jpg	100
1537.764	0.93	930.2	repeat	Run2	repeat/STIM_002.jpg	99
1541.146	0.694	693.8	repeat	Run2	repeat/STIM_002.jpg	100
1545.596	0.572	572.3	repeat	Run2	repeat/STIM_002.jpg	99
1548.526	1.075	1075.1	repeat	Run2	repeat/STIM_002.jpg	99
1552.982	0.578	578.3	repeat	Run2	repeat/STIM_002.jpg	100
1556.17	0.974	974.4	repeat	Run2	repeat/STIM_003.jpg	99
1560.307	0.818	818.4	repeat	Run2	repeat/STIM_003.jpg	99
1563.595	0.902	901.9	repeat	Run2	repeat/STIM_003.jpg	100
1568.176	1.027	1026.7	repeat	Run2	repeat/STIM_003.jpg	100
1572.558	0.869	869.4	repeat	Run2	repeat/STIM_003.jpg	99
1577.034	0.808	807.9	repeat	Run2	repeat/STIM_004.jpg	100
1579.944	0.922	922.5	repeat	Run2	repeat/STIM_004.jpg	100
1583.497	0.781	780.9	repeat	Run2	repeat/STIM_004.jpg	100
1586.701	0.579	579.1	repeat	Run2	repeat/STIM_004.jpg	99
1589.871	0.925	924.7	repeat	Run2	repeat/STIM_004.jpg	100
1594.213	1.022	1021.7	repeat	Run2	repeat/STIM_005.jpg	99
1599.152	0.677	677.1	repeat	Run2	repeat/STIM_005.jpg	100
1603.369	0.813	813.2	repeat	Run2	repeat/STIM_005.jpg	99
1607.114	0.684	684.1	repeat	Run2	repeat/STIM_005.jpg	100
1610.678	0.917	917.1	repeat	Run2	repeat/STIM_005.jpg	99
1615.218	1.038	1038.2	repeat	Run2	repeat/STIM_006.jpg	99
1618.779	0.636	636.4	repeat	Run2	repeat/STIM_006.jpg	100
1621.448	0.705	704.6	repeat	Run2	repeat/STIM_006.jpg	99
1624.163	0.899	899.4	repeat	Run2	repeat/STIM_006.jpg	100
1628.189	0.948	947.8	repeat	Run2	repeat/STIM_006.jpg	100
1632.159	0.651	650.9	repeat	Run2	repeat/STIM_007.jpg	100
1636.005	0.934	934.1	repeat	Run2	repeat/STIM_007.jpg	99
1640.897	0.963	963.0	repeat	Run2	repeat/STIM_007.jpg	99
1645.518	0.766	766.0	repeat	Run2	repeat/STIM_007.jpg	99
1648.744	0.89	889.9	repeat	Run2	repeat/STIM_007.jpg	100
1653.382	0.625	625.4	repeat	Run2	repeat/STIM_008.jpg	99
1656.298	0.594	593.6	repeat	Run2	repeat/STIM_008.jpg	100
1659.153	0.742	741.9	repeat	Run2	repeat/STIM_008.jpg	99
1662.136	0.65	650.2	repeat	Run2	repeat/STIM_008.jpg	100
1665.432	0.62	619.8	repeat	Run2	repeat/STIM_008.jpg	100
1669.663	0.648	647.9	repeat	Run2	repeat/STIM_009.jpg	99
1672.868	0.932	932.2	repeat	Run2	repeat/STIM_009.jpg	100
1677.348	0.885	885.2	repeat	Run2	repeat/STIM_009.jpg	99
1680.566	1.027	1026.6	repeat	Run2	repeat/STIM_009.jpg	100
1683.728	0.826	826.5	repeat	Run2	repeat/STIM_009.jpg	99
1686.586	0.939	939.1	repeat	Run2	repeat/STIM_010.jpg	99
1690.185	0.928	927.6	repeat	Run2	repeat/STIM_010.jpg	100
1695.106	0.696	695.9	repeat	Run2	repeat/STIM_010.jpg	100
1699.05	0.58	579.5	repeat	Run2	repeat/STIM_010.jpg	100
1702.208	0.722	722.2	repeat	Run2	repeat/STIM_010.jpg	100
1706.067	1.004	1003.9	repeat	Run2	repeat/STIM_011.jpg	99
1710.159	0.848	847.7	repeat	Run2	repeat/STIM_011.jpg	100
1713.856	0.796	796.5	repeat	Run2	repeat/STIM_011.jpg	99
1716.91	0.708	708.0	repeat	Run2	repeat/STIM_011.jpg	99
1720.955	1.028	1028.1	repeat	Run2	repeat/STIM_011.jpg	99
1724.373	0.934	934.5	repeat	Run2	repeat/STIM_012.jpg	99
1728.384	1.06	1059.6	repeat	Run2	repeat/STIM_012.jpg	100
1732.14	0.969	969.1	repeat	Run2	repeat/STIM_012.jpg	100
1736.781	0.725	725.2	repeat	Run2	repeat/STIM_012.jpg	100
1739.913	0.877	877.3	repeat	Run2	repeat/STIM_012.jpg	100
1744.008	1.071	1070.8	repeat	Run2	repeat/STIM_013.jpg	100
1749.008	0.63	630.2	repeat	Run2	repeat/STIM_013.jpg	99
1752.746	0.696	695.8	repeat	Run2	repeat/STIM_013.jpg	99
1756.207	0.739	738.6	repeat	Run2	repeat/STIM_013.jpg	100
1760.35	0.927	927.0	repeat	Run2	repeat/STIM_013.jpg	100
1765.153	1.059	1059.3	repeat	Run2	repeat/STIM_014.jpg	100
1768.66	0.719	718.9	repeat	Run2	repeat/STIM_014.jpg	100
1773.239	0.864	864.2	repeat	Run2	repeat/STIM_014.jpg	99
1777.257	0.735	734.8	repeat	Run2	repeat/STIM_014.jpg	100
1780.646	0.603	602.8	repeat	Run2	repeat/STIM_014.jpg	100
1784.299	1.512	1512.5	generate	Run3	generate/STIM_000.jpg	100
1788.543	2.129	2129.4	generate	Run3	generate/STIM_000.jpg	99
1793.442	1.279	1279.1	generate	Run3	generate/STIM_000.jpg	99
1797.426	2.105	2105.1	generate	Run3	generate/STIM_000.jpg	99
1801.642	1.522	1521.8	generate	Run3	generate/STIM_000.jpg	100
1805.18	1.173	1173.4	generate	Run3	generate/STIM_001.jpg	100
1808.989	1.238	1237.5	generate	Run3	generate/STIM_001.jpg	100
1812.748	1.344	1343.5	generate	Run3	generate/STIM_001.jpg	100
1817.034	1.553	1552.7	generate	Run3	generate/STIM_001.jpg	100
1821.678	1.586	1586.3	generate	Run3	generate/STIM_001.jpg	99
1826.719	2.15	2149.5	generate	Run3	generate/STIM_002.jpg	99
1831.48	1.255	1255.4	generate	Run3	generate/STIM_002.jpg	100
1836.225	1.535	1535.1	generate	Run3	generate/STIM_002.jpg	99
1840.187	1.262	1261.6	generate	Run3	generate/STIM_002.jpg	99
1844.292	1.506	1505.8	generate	Run3	generate/STIM_002.jpg	100
1847.853	1.232	1231.9	generate	Run3	generate/STIM_003.jpg	99
1851.651	1.807	1807.2	generate	Run3	generate/STIM_003.jpg	100
1856.929	1.905	1904.9	generate	Run3	generate/STIM_003.jpg	99
1862.552	1.753	1752.8	generate	Run3	generate/STIM_003.jpg	99
1866.496	2.038	2038.3	generate	Run3	generate/STIM_003.jpg	100
1871.816	2.205	2205.4	generate	Run3	generate/STIM_004.jpg	100
1876.798	2.176	2175.7	generate	Run3	generate/STIM_004.jpg	100
1881.321	2.2	2200.4	generate	Run3	generate/STIM_004.jpg	99
1886.702	1.019	1019.4	generate	Run3	generate/STIM_004.jpg	100
1891.27	1.655	1655.0	generate	Run3	generate/STIM_004.jpg	100
1895.094	1.147	1146.6	generate	Run3	generate/STIM_005.jpg	100
1899.313	2.135	2134.6	generate	Run3	generate/STIM_005.jpg	100
1905.328	1.08	1079.5	generate	Run3	generate/STIM_005.jpg	99
1908.813	1.966	1966.2	generate	Run3	generate/STIM_005.jpg	100
1914.75	2.166	2165.5	generate	Run3	generate/STIM_005.jpg	99
1920.872	1.029	1028.6	generate	Run3	generate/STIM_006.jpg	99
1924.343	1.43	1430.1	generate	Run3	generate/STIM_006.jpg	99
1929.656	1.272	1272.2	generate	Run3	generate/STIM_006.jpg	100
1933.896	1.983	1982.8	generate	Run3	generate/STIM_006.jpg	99
1939.772	1.412	1411.7	generate	Run3	generate/STIM_006.jpg	99
1943.387	2.098	2097.9	generate	Run3	generate/STIM_007.jpg	99
1948.374	1.81	1809.8	generate	Run3	generate/STIM_007.jpg	100
1952.279	1.659	1659.3	generate	Run3	generate/STIM_007.jpg	99
1957.856	1.298	1297.6	generate	Run3	generate/STIM_007.jpg	100
1962.895	2.053	2053.4	generate	Run3	generate/STIM_007.jpg	99
1968.728	1.202	1202.0	generate	Run3	generate/STIM_008.jpg	100
1972.477	2.079	2078.6	generate	Run3	generate/STIM_008.jpg	99
1977.855	0.979	979.3	generate	Run3	generate/STIM_008.jpg	100
1982.36	2.02	2019.9	generate	Run3	generate/STIM_008.jpg	99
1988.173	1.246	1245.7	generate	Run3	generate/STIM_008.jpg	99
1993.132	2.02	2019.8	generate	Run3	generate/STIM_009.jpg	99
1998.814	2.07	2069.7	generate	Run3	generate/STIM_009.jpg	100
2003.411	1.835	1834.9	generate	Run3	generate/STIM_009.jpg	100
2009.019	1.874	1873.5	generate	Run3	generate/STIM_009.jpg	100
2013.025	1.695	1694.8	generate	Run3	generate/STIM_009.jpg	99
2016.979	2.133	2133.1	generate	Run3	generate/STIM_010.jpg	99
2022.994	1.796	1796.3	generate	Run3	generate/STIM_010.jpg	99
2028.784	1.736	1735.7	generate	Run3	generate/STIM_010.jpg	99
2032.626	1.548	1547.7	generate	Run3	generate/STIM_010.jpg	99
2037.008	1.05	1049.5	generate	Run3	generate/STIM_010.jpg	100
2040.483	1.977	1977.3	generate	Run3	generate/STIM_011.jpg	100
2045.369	1.74	1740.5	generate	Run3	generate/STIM_011.jpg	100
2050.097	2.23	2230.1	generate	Run3	generate/STIM_011.jpg	100
2056.271	1.915	1915.2	generate	Run3	generate/STIM_011.jpg	99
2061.546	2.156	2155.9	generate	Run3	generate/STIM_011.jpg	99
2065.892	2.077	2076.6	generate	Run3	generate/STIM_012.jpg	100
2071.046	1.732	1731.9	generate	Run3	generate/STIM_012.jpg	100
2075.126	1.596	1596.0	generate	Run3	generate/STIM_012.jpg	100
2078.941	1.189	1188.8	generate	Run3	generate/STIM_012.jpg	99
2082.15	1.528	1527.8	generate	Run3	generate/STIM_012.jpg	100
2086.382	2.14	2140.3	generate	Run3	generate/STIM_013.jpg	100
2090.684	2.053	2052.7	generate	Run3	generate/STIM_013.jpg	100
2096.253	1.839	1838.9	generate	Run3	generate/STIM_013.jpg	100
2101.991	1.361	1361.1	generate	Run3	generate/STIM_013.jpg	99
2106.164	1.806	1805.7	generate	Run3	generate/STIM_013.jpg	99
2111.549	0.934	933.6	generate	Run3	generate/STIM_014.jpg	100
2115.907	1.367	1367.4	generate	Run3	generate/STIM_014.jpg	99
2120.312	1.304	1303.6	generate	Run3	generate/STIM_014.jpg	99
2124.94	1.224	1223.8	generate	Run3	generate/STIM_014.jpg	100
2129.056	2.196	2196.4	generate	Run3	generate/STIM_014.jpg	100
2133.675	1.394	1393.5	generate	Run3	generate/STIM_015.jpg	100
2138.111	1.926	1926.0	generate	Run3	generate/STIM_015.jpg	100
2143.015	1.681	1681.2	generate	Run3	generate/STIM_015.jpg	100
2147.757	1.474	1474.2	generate	Run3	generate/STIM_015.jpg	100
2151.441	1.213	1213.4	generate	Run3	generate/STIM_015.jpg	99
2154.832	1.418	1418.2	generate	Run3	generate/STIM_016.jpg	99
2159.149	1.766	1766.3	generate	Run3	generate/STIM_016.jpg	99
2163.819	1.49	1490.1	generate	Run3	generate/STIM_016.jpg	99
2168.201	1.368	1367.7	generate	Run3	generate/STIM_016.jpg	99
2173.234	1.572	1571.7	generate	Run3	generate/STIM_016.jpg	99
2178.22	1.197	1197.3	generate	Run3	generate/STIM_017.jpg	99
2181.805	1.673	1673.4	generate	Run3	generate/STIM_017.jpg	99
2187.37	1.828	1828.0	generate	Run3	generate/STIM_017.jpg	100
2192.346	1.685	1684.6	generate	Run3	generate/STIM_017.jpg	100
2196.95	1.682	1682.0	generate	Run3	generate/STIM_017.jpg	100
2200.831	2.087	2086.9	generate	Run3	generate/STIM_018.jpg	100
2205.004	1.047	1047.2	generate	Run3	generate/STIM_018.jpg	99
2208.381	1.433	1432.7	generate	Run3	generate/STIM_018.jpg	99
2212.877	2.108	2108.5	generate	Run3	generate/STIM_018.jpg	99
2217.67	1.7	1700.5	generate	Run3	generate/STIM_018.jpg	99
2223.115	1.267	1266.8	generate	Run3	generate/STIM_019.jpg	100
2227.355	1.657	1657.0	generate	Run3	generate/STIM_019.jpg	100
2232.221	1.182	1181.8	generate	Run3	generate/STIM_019.jpg	100
2236.147	2.189	2188.8	generate	Run3	generate/STIM_019.jpg	99
2240.352	1.065	1065.4	generate	Run3	generate/STIM_019.jpg	100
2244.003	2.116	2115.5	generate	Run3	generate/STIM_020.jpg	99
2248.255	1.003	1002.7	generate	Run3	generate/STIM_020.jpg	99
2251.798	2.179	2179.1	generate	Run3	generate/STIM_020.jpg	100
2257.907	1.708	1708.2	generate	Run3	generate/STIM_020.jpg	99
2262.414	1.194	1194.1	generate	Run3	generate/STIM_020.jpg	100
2265.946	0.926	926.5	generate	Run3	generate/STIM_021.jpg	99
2270.151	1.406	1406.0	generate	Run3	generate/STIM_021.jpg	100
2275.533	1.999	1998.6	generate	Run3	generate/STIM_021.jpg	99
2279.586	2.274	2274.3	generate	Run3	generate/STIM_021.jpg	99
2284.439	1.353	1352.6	generate	Run3	generate/STIM_021.jpg	100
2288.282	1.946	1946.5	generate	Run3	generate/STIM_022.jpg	99
2294.158	1.363	1362.7	generate	Run3	generate/STIM_022.jpg	100
2298.27	1.965	1965.0	generate	Run3	generate/STIM_022.jpg	99
2302.829	1.546	1546.2	generate	Run3	generate/STIM_022.jpg	99
2306.811	1.232	1231.5	generate	Run3	generate/STIM_022.jpg	100
2310.198	2.167	2167.1	generate	Run3	generate/STIM_023.jpg	99
2315.468	1.297	1296.6	generate	Run3	generate/STIM_023.jpg	100
2320.185	1.817	1816.9	generate	Run3	generate/STIM_023.jpg	99
2325.69	0.999	999.0	generate	Run3	generate/STIM_023.jpg	100
2329.442	1.671	1670.7	generate	Run3	generate/STIM_023.jpg	99
2333.864	1.135	1135.1	generate	Run3	generate/STIM_024.jpg	99
2338.455	0.947	947.1	generate	Run3	generate/STIM_024.jpg	99
2341.678	2.169	2169.0	generate	Run3	generate/STIM_024.jpg	100
2346.473	0.956	956.5	generate	Run3	generate/STIM_024.jpg	99
2350.712	0.934	934.1	generate	Run3	generate/STIM_024.jpg	99
2354.879	0.911	910.6	repeat	Run3	repeat/STIM_000.jpg	99
2358.651	0.784	784.4	repeat	Run3	repeat/STIM_000.jpg	99
2362.009	0.788	787.6	repeat	Run3	repeat/STIM_000.jpg	99
2366.094	0.664	663.7	repeat	Run3	repeat/STIM_000.jpg	99
2370.135	0.965	965.0	repeat	Run3	repeat/STIM_000.jpg	99
2373.954	1.031	1031.2	repeat	Run3	repeat/STIM_001.jpg	99
2378.818	0.923	923.0	repeat	Run3	repeat/STIM_001.jpg	99
2383.284	0.728	728.2	repeat	Run3	repeat/STIM_001.jpg	100
2387.302	0.928	927.6	repeat	Run3	repeat/STIM_001.jpg	100
2391.779	0.833	833.2	repeat	Run3	repeat/STIM_001.jpg	99
2396.37	0.797	797.2	repeat	Run3	repeat/STIM_002.jpg	100
2399.457	1.02	1019.5	repeat	Run3	repeat/STIM_002.jpg	100
2403.846	0.722	722.4	repeat	Run3	repeat/STIM_002.jpg	99
2407.481	1.054	1054.5	repeat	Run3	repeat/STIM_002.jpg	99
2410.815	0.65	650.5	repeat	Run3	repeat/STIM_002.jpg	100
2415.2	0.811	811.1	repeat	Run3	repeat/STIM_003.jpg	99
2418.957	0.787	786.8	repeat	Run3	repeat/STIM_003.jpg	99
2422.123	0.59	589.5	repeat	Run3	repeat/STIM_003.jpg	100
2426.491	0.576	576.1	repeat	Run3	repeat/STIM_003.jpg	100
2430.251	0.919	918.9	repeat	Run3	repeat/STIM_003.jpg	99
2434.812	0.867	867.1	repeat	Run3	repeat/STIM_004.jpg	100
2438.75	0.961	960.8	repeat	Run3	repeat/STIM_004.jpg	100
2443.014	0.844	844.2	repeat	Run3	repeat/STIM_004.jpg	99
2447.626	0.953	952.8	repeat	Run3	repeat/STIM_004.jpg	99
2451.362	0.801	801.1	repeat	Run3	repeat/STIM_004.jpg	99
2455.948	0.881	881.1	repeat	Run3	repeat/STIM_005.jpg	100
2459.147	0.562	562.4	repeat	Run3	repeat/STIM_005.jpg	99
2461.83	0.88	879.6	repeat	Run3	repeat/STIM_005.jpg	99
2465.991	0.793	792.8	repeat	Run3	repeat/STIM_005.jpg	99
2470.564	1.051	1050.7	repeat	Run3	repeat/STIM_005.jpg	99
2474.591	0.708	707.5	repeat	Run3	repeat/STIM_006.jpg	100
2478.998	0.933	933.3	repeat	Run3	repeat/STIM_006.jpg	99
2483.446	1.039	1038.6	repeat	Run3	repeat/STIM_006.jpg	100
2486.957	0.742	742.4	repeat	Run3	repeat/STIM_006.jpg	100
2490.288	1.064	1064.1	repeat	Run3	repeat/STIM_006.jpg	99
2493.909	0.787	786.8	repeat	Run3	repeat/STIM_007.jpg	99
2497.068	0.892	891.7	repeat	Run3	repeat/STIM_007.jpg	99
2501.012	0.98	980.0	repeat	Run3	repeat/STIM_007.jpg	100
2505.817	0.908	908.3	repeat	Run3	repeat/STIM_007.jpg	100
2509.141	0.586	586.1	repeat	Run3	repeat/STIM_007.jpg	100
2512.956	0.561	561.4	repeat	Run3	repeat/STIM_008.jpg	99
2516.54	1.044	1044.1	repeat	Run3	repeat/STIM_008.jpg	99
2519.708	0.861	860.8	repeat	Run3	repeat/STIM_008.jpg	100
2523.144	0.981	981.0	repeat	Run3	repeat/STIM_008.jpg	100
2527.049	0.669	669.2	repeat	Run3	repeat/STIM_008.jpg	99
2531.336	0.592	591.7	repeat	Run3	repeat/STIM_009.jpg	100
2535.768	0.84	840.5	repeat	Run3	repeat/STIM_009.jpg	99
2539.291	1.033	1033.4	repeat	Run3	repeat/STIM_009.jpg	100
2542.839	0.906	906.1	repeat	Run3	repeat/STIM_009.jpg	100
2546.967	1.02	1020.0	repeat	Run3	repeat/STIM_009.jpg	99
2551.89	0.883	882.9	repeat	Run3	repeat/STIM_010.jpg	100
2556.15	0.569	568.6	repeat	Run3	repeat/STIM_010.jpg	100
2559.512	0.582	582.2	repeat	Run3	repeat/STIM_010.jpg	99
2562.525	0.627	627.0	repeat	Run3	repeat/STIM_010.jpg	100
2565.679	1.068	1068.1	repeat	Run3	repeat/STIM_010.jpg	100
2570.425	0.74	740.0	repeat	Run3	repeat/STIM_011.jpg	100
2574.205	1.08	1079.8	repeat	Run3	repeat/STIM_011.jpg	100
2578.903	0.668	668.4	repeat	Run3	repeat/STIM_011.jpg	99
2583.26	1.081	1080.7	repeat	Run3	repeat/STIM_011.jpg	99
2587.552	0.66	660.3	repeat	Run3	repeat/STIM_011.jpg	99
2591.186	0.732	731.6	repeat	Run3	repeat/STIM_012.jpg	100
2595.648	0.901	900.7	repeat	Run3	repeat/STIM_012.jpg	100
2599.822	0.695	694.9	repeat	Run3	repeat/STIM_012.jpg	100
2603.943	0.776	775.9	repeat	Run3	repeat/STIM_012.jpg	99
2608.595	0.774	773.9	repeat	Run3	repeat/STIM_012.jpg	100
2612.075	0.601	601.3	repeat	Run3	repeat/STIM_013.jpg	100
2615.784	0.867	867.2	repeat	Run3	repeat/STIM_013.jpg	100
2619.707	1.032	1032.4	repeat	Run3	repeat/STIM_013.jpg	100
2622.828	0.71	710.4	repeat	Run3	repeat/STIM_013.jpg	99
2627.033	0.992	991.5	repeat	Run3	repeat/STIM_013.jpg	99
2630.119	0.812	812.0	repeat	Run3	repeat/STIM_014.jpg	100
2634.002	0.896	895.6	repeat	Run3	repeat/STIM_014.jpg	99
2638.357	0.762	762.1	repeat	Run3	repeat/STIM_014.jpg	100
2642.939	0.905	904.7	repeat	Run3	repeat/STIM_014.jpg	100
2646.57	0.759	758.6	repeat	Run3	repeat/STIM_014.jpg	99
2650.178	2.06	2059.8	generate	Run4	generate/STIM_000.jpg	99
2654.315	1.12	1120.0	generate	Run4	generate/STIM_000.jpg	100
2658.834	1.141	1140.9	generate	Run4	generate/STIM_000.jpg	100
2662.769	0.993	992.9	generate	Run4	generate/STIM_000.jpg	100
2665.833	1.739	1738.6	generate	Run4	generate/STIM_000.jpg	100
2670.855	0.983	983.0	generate	Run4	generate/STIM_001.jpg	100
2675.318	1.66	1659.5	generate	Run4	generate/STIM_001.jpg	99
2680.545	1.913	1913.4	generate	Run4	generate/STIM_001.jpg	99
2686.098	1.502	1502.3	generate	Run4	generate/STIM_001.jpg	99
2690.153	1.695	1694.9	generate	Run4	generate/STIM_001.jpg	100
2695.062	1.559	1559.1	generate	Run4	generate/STIM_002.jpg	100
2698.948	1.501	1501.0	generate	Run4	generate/STIM_002.jpg	100
2703.255	1.826	1825.7	generate	Run4	generate/STIM_002.jpg	100
2708.011	1.174	1174.2	generate	Run4	generate/STIM_002.jpg	100
2712.72	1.213	1212.7	generate	Run4	generate/STIM_002.jpg	100
2717.892	1.606	1606.3	generate	Run4	generate/STIM_003.jpg	99
2721.938	1.086	1086.1	generate	Run4	generate/STIM_003.jpg	99
2725.607	1.182	1182.5	generate	Run4	generate/STIM_003.jpg	99
2729.703	1.627	1626.9	generate	Run4	generate/STIM_003.jpg	99
2734.742	2.0	1999.9	generate	Run4	generate/STIM_003.jpg	100
2740.627	1.705	1704.9	generate	Run4	generate/STIM_004.jpg	99
2745.35	2.04	2040.4	generate	Run4	generate/STIM_004.jpg	99
2749.743	1.763	1762.7	generate	Run4	generate/STIM_004.jpg	99
2754.472	2.077	2077.2	generate	Run4	generate/STIM_004.jpg	99
2760.371	1.217	1216.6	generate	Run4	generate/STIM_004.jpg	99
2764.357	1.09	1090.0	generate	Run4	generate/STIM_005.jpg	99
2768.703	1.686	1686.5	generate	Run4	generate/STIM_005.jpg	100
2773.927	2.125	2125.4	generate	Run4	generate/STIM_005.jpg	100
2779.624	1.634	1634.5	generate	Run4	generate/STIM_005.jpg	99
2783.514	1.791	1790.6	generate	Run4	generate/STIM_005.jpg	99
2789.072	1.974	1974.4	generate	Run4	generate/STIM_006.jpg	99
2794.328	1.744	1744.2	generate	Run4	generate/STIM_006.jpg	100
2799.117	1.816	1816.5	generate	Run4	generate/STIM_006.jpg	100
2802.972	1.952	1951.5	generate	Run4	generate/STIM_006.jpg	100
2808.142	1.762	1762.0	generate	Run4	generate/STIM_006.jpg	100
2812.599	1.37	1369.7	generate	Run4	generate/STIM_007.jpg	99
2816.556	2.012	2011.7	generate	Run4	generate/STIM_007.jpg	100
2822.463	1.392	1392.5	generate	Run4	generate/STIM_007.jpg	100
2827.05	1.131	1131.1	generate	Run4	generate/STIM_007.jpg	99
2830.764	1.716	1716.5	generate	Run4	generate/STIM_007.jpg	100
2835.776	1.05	1050.1	generate	Run4	generate/STIM_008.jpg	100
2840.433	1.928	1928.3	generate	Run4	generate/STIM_008.jpg	99
2845.802	1.459	1459.3	generate	Run4	generate/STIM_008.jpg	99
2849.916	2.223	2223.3	generate	Run4	generate/STIM_008.jpg	99
2854.859	1.667	1667.4	generate	Run4	generate/STIM_008.jpg	100
2860.119	1.129	1128.7	generate	Run4	generate/STIM_009.jpg	100
2864.855	1.906	1906.3	generate	Run4	generate/STIM_009.jpg	100
2868.909	1.201	1201.4	generate	Run4	generate/STIM_009.jpg	99
2872.586	1.362	1362.4	generate	Run4	generate/STIM_009.jpg	100
2877.377	2.006	2006.2	generate	Run4	generate/STIM_009.jpg	99
2881.911	1.43	1430.5	generate	Run4	generate/STIM_010.jpg	99
2886.86	2.295	2294.8	generate	Run4	generate/STIM_010.jpg	99
2891.466	1.593	1593.2	generate	Run4	generate/STIM_010.jpg	99
2896.129	1.864	1864.3	generate	Run4	generate/STIM_010.jpg	100
2901.174	1.809	1809.2	generate	Run4	generate/STIM_010.jpg	100
2906.206	2.256	2256.2	generate	Run4	generate/STIM_011.jpg	99
2910.854	1.489	1489.3	generate	Run4	generate/STIM_011.jpg	100
2914.367	1.76	1759.8	generate	Run4	generate/STIM_011.jpg	100
2919.884	0.968	968.1	generate	Run4	generate/STIM_011.jpg	100
2924.196	1.205	1205.1	generate	Run4	generate/STIM_011.jpg	99
2927.954	1.385	1384.7	generate	Run4	generate/STIM_012.jpg	100
2932.089	1.432	1432.1	generate	Run4	generate/STIM_012.jpg	99
2936.121	1.225	1225.1	generate	Run4	generate/STIM_012.jpg	100
2941.209	1.518	1517.6	generate	Run4	generate/STIM_012.jpg	99
2945.515	2.22	2220.0	generate	Run4	generate/STIM_012.jpg	99
2951.093	1.994	1993.9	generate	Run4	generate/STIM_013.jpg	99
2956.989	1.26	1260.5	generate	Run4	generate/STIM_013.jpg	99
2960.619	1.028	1027.5	generate	Run4	generate/STIM_013.jpg	99
2965.561	1.67	1670.4	generate	Run4	generate/STIM_013.jpg	99
2971.039	1.747	1747.2	generate	Run4	generate/STIM_013.jpg	99
2975.472	1.008	1008.0	generate	Run4	generate/STIM_014.jpg	100
2978.948	2.053	2052.7	generate	Run4	generate/STIM_014.jpg	100
2984.354	1.375	1374.6	generate	Run4	generate/STIM_014.jpg	99
2988.776	1.76	1760.3	generate	Run4	generate/STIM_014.jpg	99
2994.313	1.361	1361.3	generate	Run4	generate/STIM_014.jpg	100
2997.717	1.025	1025.3	generate	Run4	generate/STIM_015.jpg	100
3001.051	2.082	2082.2	generate	Run4	generate/STIM_015.jpg	100
3005.791	1.243	1243.0	generate	Run4	generate/STIM_015.jpg	99
3009.969	0.933	932.8	generate	Run4	generate/STIM_015.jpg	100
3013.501	1.954	1953.8	generate	Run4	generate/STIM_015.jpg	100
3019.312	1.085	1085.3	generate	Run4	generate/STIM_016.jpg	99
3024.018	1.793	1792.9	generate	Run4	generate/STIM_016.jpg	100
3028.42	2.003	2002.7	generate	Run4	generate/STIM_016.jpg	100
3032.674	1.866	1865.9	generate	Run4	generate/STIM_016.jpg	99
3038.206	1.637	1636.9	generate	Run4	generate/STIM_016.jpg	99
3042.909	1.938	1937.5	generate	Run4	generate/STIM_017.jpg	100
3048.804	1.342	1342.3	generate	Run4	generate/STIM_017.jpg	100
3053.821	1.181	1181.0	generate	Run4	generate/STIM_017.jpg	99
3057.592	1.434	1434.4	generate	Run4	generate/STIM_017.jpg	99
3061.327	1.614	1613.5	generate	Run4	generate/STIM_017.jpg	100
3066.561	1.849	1848.8	generate	Run4	generate/STIM_018.jpg	100
3071.097	1.917	1916.7	generate	Run4	generate/STIM_018.jpg	100
3075.456	2.104	2104.5	generate	Run4	generate/STIM_018.jpg	100
3081.4	1.141	1140.8	generate	Run4	generate/STIM_018.jpg	100
3086.13	1.674	1674.0	generate	Run4	generate/STIM_018.jpg	100
3091.385	0.997	996.9	generate	Run4	generate/STIM_019.jpg	100
3094.782	1.023	1023.0	generate	Run4	generate/STIM_019.jpg	99
3098.255	1.971	1971.4	generate	Run4	generate/STIM_019.jpg	100
3102.655	1.086	1085.6	generate	Run4	generate/STIM_019.jpg	99
3105.848	2.169	2169.1	generate	Run4	generate/STIM_019.jpg	100
3110.55	1.336	1336.1	generate	Run4	generate/STIM_020.jpg	99
3115.052	2.199	2199.0	generate	Run4	generate/STIM_020.jpg	100
3120.091	2.085	2085.4	generate	Run4	generate/STIM_020.jpg	99
3126.158	1.378	1377.6	generate	Run4	generate/STIM_020.jpg	100
3129.544	1.057	1056.9	generate	Run4	generate/STIM_020.jpg	100
3134.325	1.98	1980.0	generate	Run4	generate/STIM_021.jpg	99
3139.187	0.978	977.8	generate	Run4	generate/STIM_021.jpg	99
3143.242	2.054	2054.2	generate	Run4	generate/STIM_021.jpg	99
3148.111	1.962	1962.5	generate	Run4	generate/STIM_021.jpg	99
3153.707	1.247	1247.3	generate	Run4	generate/STIM_021.jpg	99
3158.554	1.059	1059.3	generate	Run4	generate/STIM_022.jpg	99
3162.129	1.378	1378.5	generate	Run4	generate/STIM_022.jpg	100
3165.939	1.758	1758.4	generate	Run4	generate/STIM_022.jpg	99
3170.35	1.506	1505.5	generate	Run4	generate/STIM_022.jpg	99
3175.143	1.634	1634.5	generate	Run4	generate/STIM_022.jpg	100
3179.94	1.124	1124.0	generate	Run4	generate/STIM_023.jpg	100
3183.843	1.5	1500.5	generate	Run4	generate/STIM_023.jpg	99
3188.824	1.949	1949.0	generate	Run4	generate/STIM_023.jpg	100
3193.808	1.94	1940.5	generate	Run4	generate/STIM_023.jpg	100
3199.478	1.733	1733.0	generate	Run4	generate/STIM_023.jpg	100
3204.312	2.11	2110.0	generate	Run4	generate/STIM_024.jpg	99
3208.542	1.16	1160.2	generate	Run4	generate/STIM_024.jpg	99
3212.031	1.407	1406.7	generate	Run4	generate/STIM_024.jpg	99
3217.367	1.153	1153.1	generate	Run4	generate/STIM_024.jpg	99
3221.069	1.168	1168.2	generate	Run4	generate/STIM_024.jpg	100
3225.136	0.676	676.4	repeat	Run4	repeat/STIM_000.jpg	100
3228.122	1.085	1084.8	repeat	Run4	repeat/STIM_000.jpg	100
3231.705	0.687	686.8	repeat	Run4	repeat/STIM_000.jpg	99
3235.014	0.608	608.3	repeat	Run4	repeat/STIM_000.jpg	99
3238.133	1.072	1072.1	repeat	Run4	repeat/STIM_000.jpg	100
3242.65	0.564	564.3	repeat	Run4	repeat/STIM_001.jpg	100
3245.742	0.816	816.4	repeat	Run4	repeat/STIM_001.jpg	99
3250.071	0.903	903.3	repeat	Run4	repeat/STIM_001.jpg	100
3253.144	0.951	950.6	repeat	Run4	repeat/STIM_001.jpg	100
3256.319	0.976	976.5	repeat	Run4	repeat/STIM_001.jpg	100
3261.251	0.723	722.9	repeat	Run4	repeat/STIM_002.jpg	99
3265.346	1.019	1019.2	repeat	Run4	repeat/STIM_002.jpg	99
3270.013	1.024	1024.0	repeat	Run4	repeat/STIM_002.jpg	99
3273.513	0.75	749.9	repeat	Run4	repeat/STIM_002.jpg	99
3276.769	0.685	684.9	repeat	Run4	repeat/STIM_002.jpg	100
3280.723	0.812	812.5	repeat	Run4	repeat/STIM_003.jpg	99
3284.265	0.835	834.6	repeat	Run4	repeat/STIM_003.jpg	99
3287.445	0.778	777.5	repeat	Run4	repeat/STIM_003.jpg	99
3291.417	0.984	984.0	repeat	Run4	repeat/STIM_003.jpg	99
3295.811	0.966	966.1	repeat	Run4	repeat/STIM_003.jpg	99
3300.494	0.647	646.7	repeat	Run4	repeat/STIM_004.jpg	99
3304.772	0.948	947.7	repeat	Run4	repeat/STIM_004.jpg	99
3309.593	1.043	1042.8	repeat	Run4	repeat/STIM_004.jpg	100
3313.362	0.709	709.0	repeat	Run4	repeat/STIM_004.jpg	99
3316.551	0.728	727.5	repeat	Run4	repeat/STIM_004.jpg	99
3321.025	0.761	761.0	repeat	Run4	repeat/STIM_005.jpg	100
3325.356	0.652	651.5	repeat	Run4	repeat/STIM_005.jpg	100
3328.29	0.646	645.9	repeat	Run4	repeat/STIM_005.jpg	99
3331.629	0.558	558.0	repeat	Run4	repeat/STIM_005.jpg	99
3334.398	0.791	790.6	repeat	Run4	repeat/STIM_005.jpg	100
3338.045	1.088	1088.1	repeat	Run4	repeat/STIM_006.jpg	100
3343.129	0.909	909.4	repeat	Run4	repeat/STIM_006.jpg	100
3346.377	0.681	680.9	repeat	Run4	repeat/STIM_006.jpg	99
3350.649	0.764	763.7	repeat	Run4	repeat/STIM_006.jpg	100
3355.165	0.736	735.8	repeat	Run4	repeat/STIM_006.jpg	99
3358.304	0.861	860.7	repeat	Run4	repeat/STIM_007.jpg	99
3363.135	0.859	858.7	repeat	Run4	repeat/STIM_007.jpg	99
3367.306	1.072	1071.9	repeat	Run4	repeat/STIM_007.jpg	100
3371.141	0.612	612.2	repeat	Run4	repeat/STIM_007.jpg	99
3373.931	0.917	917.0	repeat	Run4	repeat/STIM_007.jpg	100
3378.686	0.919	918.9	repeat	Run4	repeat/STIM_008.jpg	100
3382.314	1.034	1034.4	repeat	Run4	repeat/STIM_008.jpg	100
3386.252	0.64	640.1	repeat	Run4	repeat/STIM_008.jpg	100
3389.462	0.644	644.0	repeat	Run4	repeat/STIM_008.jpg	99
3393.597	0.672	672.2	repeat	Run4	repeat/STIM_008.jpg	100
3397.22	0.632	632.5	repeat	Run4	repeat/STIM_009.jpg	99
3400.241	0.615	615.4	repeat	Run4	repeat/STIM_009.jpg	99
3403.15	0.892	892.3	repeat	Run4	repeat/STIM_009.jpg	99
3408.009	0.819	818.6	repeat	Run4	repeat/STIM_009.jpg	99
3410.904	0.709	708.9	repeat	Run4	repeat/STIM_009.jpg	100
3413.686	0.947	947.4	repeat	Run4	repeat/STIM_010.jpg	99
3417.415	1.025	1024.6	repeat	Run4	repeat/STIM_010.jpg	100
3421.847	0.658	657.9	repeat	Run4	repeat/STIM_010.jpg	99
3426.409	1.039	1038.9	repeat	Run4	repeat/STIM_010.jpg	99
3430.788	0.965	965.0	repeat	Run4	repeat/STIM_010.jpg	100
3434.541	0.692	692.2	repeat	Run4	repeat/STIM_011.jpg	100
3437.941	1.059	1059.3	repeat	Run4	repeat/STIM_011.jpg	99
3442.176	1.028	1028.5	repeat	Run4	repeat/STIM_011.jpg	99
3446.934	0.769	769.2	repeat	Run4	repeat/STIM_011.jpg	100
3451.438	0.611	610.6	repeat	Run4	repeat/STIM_011.jpg	99
3456.02	0.755	754.8	repeat	Run4	repeat/STIM_012.jpg	99
3460.145	0.731	731.4	repeat	Run4	repeat/STIM_012.jpg	100
3464.588	0.747	746.8	repeat	Run4	repeat/STIM_012.jpg	99
3467.772	0.874	874.3	repeat	Run4	repeat/STIM_012.jpg	100
3472.118	0.731	731.0	repeat	Run4	repeat/STIM_012.jpg	99
3476.204	0.591	590.6	repeat	Run4	repeat/STIM_013.jpg	100
3479.081	0.882	881.5	repeat	Run4	repeat/STIM_013.jpg	100
3482.746	0.622	621.8	repeat	Run4	repeat/STIM_013.jpg	99
3486.526	0.667	666.8	repeat	Run4	repeat/STIM_013.jpg	99
3490.975	0.674	673.9	repeat	Run4	repeat/STIM_013.jpg	99
3493.99	0.799	799.4	repeat	Run4	repeat/STIM_014.jpg	100
3497.249	0.665	665.0	repeat	Run4	repeat/STIM_014.jpg	100
3500.173	0.682	682.0	repeat	Run4	repeat/STIM_014.jpg	99
3503.89	0.667	667.3	repeat	Run4	repeat/STIM_014.jpg	99
3508.266	0.865	865.1	repeat	Run4	repeat/STIM_014.jpg	100
