onset	duration	accuracy	trial_type	learning_stage	stimulus
0.0	2.292	correct	generate	Run1	generate/STIM_000.jpg
4.464	2.387	correct	generate	Run1	generate/STIM_000.jpg
10.443	1.346	correct	generate	Run1	generate/STIM_000.jpg
14.548	1.581	incorrect	generate	Run1	generate/STIM_000.jpg
18.332	1.95	correct	generate	Run1	generate/STIM_000.jpg
23.8	1.932	correct	generate	Run1	generate/STIM_001.jpg
27.79	1.243	correct	generate	Run1	generate/STIM_001.jpg
31.404	1.835	correct	generate	Run1	generate/STIM_001.jpg
37.2	1.568	correct	generate	Run1	generate/STIM_001.jpg
41.478	1.757	correct	generate	Run1	generate/STIM_001.jpg
47.023	1.485	incorrect	generate	Run1	generate/STIM_002.jpg
51.79	1.076	correct	generate	Run1	generate/STIM_002.jpg
56.67	1.013	correct	generate	Run1	generate/STIM_002.jpg
60.698	1.432	correct	generate	Run1	generate/STIM_002.jpg
65.138	2.079	correct	generate	Run1	generate/STIM_002.jpg
69.956	2.606	correct	generate	Run1	generate/STIM_003.jpg
76.432	1.859	correct	generate	Run1	generate/STIM_003.jpg
81.893	2.191	correct	generate	Run1	generate/STIM_003.jpg
86.579	1.49	correct	generate	Run1	generate/STIM_003.jpg
90.298	0.995	correct	generate	Run1	generate/STIM_003.jpg
94.456	1.614	correct	generate	Run1	generate/STIM_004.jpg
98.768	1.117	correct	generate	Run1	generate/STIM_004.jpg
102.634	1.945	correct	generate	Run1	generate/STIM_004.jpg
107.206	2.38	correct	generate	Run1	generate/STIM_004.jpg
111.98	1.287	correct	generate	Run1	generate/STIM_004.jpg
115.906	2.724	correct	generate	Run1	generate/STIM_005.jpg
121.209	1.856	incorrect	generate	Run1	generate/STIM_005.jpg
126.6	1.34	correct	generate	Run1	generate/STIM_005.jpg
131.578	1.837	incorrect	generate	Run1	generate/STIM_005.jpg
136.977	1.958	correct	generate	Run1	generate/STIM_005.jpg
142.309	1.245	incorrect	generate	Run1	generate/STIM_006.jpg
145.555	2.314	correct	generate	Run1	generate/STIM_006.jpg
151.746	2.449	correct	generate	Run1	generate/STIM_006.jpg
156.805	1.931	correct	generate	Run1	generate/STIM_006.jpg
162.013	2.022	correct	generate	Run1	generate/STIM_006.jpg
166.456	2.693	correct	generate	Run1	generate/STIM_007.jpg
173.131	2.356	correct	generate	Run1	generate/STIM_007.jpg
177.805	2.478	correct	generate	Run1	generate/STIM_007.jpg
182.696	1.569	correct	generate	Run1	generate/STIM_007.jpg
187.89	1.56	correct	generate	Run1	generate/STIM_007.jpg
192.161	1.659	correct	generate	Run1	generate/STIM_008.jpg
196.702	2.197	correct	generate	Run1	generate/STIM_008.jpg
202.481	1.483	correct	generate	Run1	generate/STIM_008.jpg
207.244	1.233	correct	generate	Run1	generate/STIM_008.jpg
210.876	0.958	correct	generate	Run1	generate/STIM_008.jpg
214.387	2.202	correct	generate	Run1	generate/STIM_009.jpg
218.716	1.692	correct	generate	Run1	generate/STIM_009.jpg
224.213	1.926	correct	generate	Run1	generate/STIM_009.jpg
229.049	2.216	correct	generate	Run1	generate/STIM_009.jpg
234.472	1.501	correct	generate	Run1	generate/STIM_009.jpg
239.613	2.741	correct	generate	Run1	generate/STIM_010.jpg
244.945	2.353	correct	generate	Run1	generate/STIM_010.jpg
250.995	1.826	correct	generate	Run1	generate/STIM_010.jpg
256.414	2.142	correct	generate	Run1	generate/STIM_010.jpg
260.623	1.781	correct	generate	Run1	generate/STIM_010.jpg
264.763	1.434	correct	generate	Run1	generate/STIM_011.jpg
268.305	2.578	correct	generate	Run1	generate/STIM_011.jpg
273.552	1.923	correct	generate	Run1	generate/STIM_011.jpg
278.472	1.994	correct	generate	Run1	generate/STIM_011.jpg
283.126	2.103	correct	generate	Run1	generate/STIM_011.jpg
288.479	1.99	correct	generate	Run1	generate/STIM_012.jpg
294.044	1.626	correct	generate	Run1	generate/STIM_012.jpg
298.133	1.746	correct	generate	Run1	generate/STIM_012.jpg
303.346	1.176	correct	generate	Run1	generate/STIM_012.jpg
307.03	2.054	correct	generate	Run1	generate/STIM_012.jpg
312.553	2.017	correct	generate	Run1	generate/STIM_013.jpg
318.239	1.892	correct	generate	Run1	generate/STIM_013.jpg
323.04	2.436	correct	generate	Run1	generate/STIM_013.jpg
328.112	1.243	correct	generate	Run1	generate/STIM_013.jpg
332.813	1.119	correct	generate	Run1	generate/STIM_013.jpg
336.104	2.716	correct	generate	Run1	generate/STIM_014.jpg
341.66	2.388	correct	generate	Run1	generate/STIM_014.jpg
347.371	1.793	incorrect	generate	Run1	generate/STIM_014.jpg
351.745	2.157	correct	generate	Run1	generate/STIM_014.jpg
356.507	1.897	correct	generate	Run1	generate/STIM_014.jpg
361.923	1.951	correct	generate	Run1	generate/STIM_015.jpg
367.082	1.993	correct	generate	Run1	generate/STIM_015.jpg
372.504	1.351	correct	generate	Run1	generate/STIM_015.jpg
377.531	1.578	correct	generate	Run1	generate/STIM_015.jpg
381.237	1.457	correct	generate	Run1	generate/STIM_015.jpg
386.683	1.373	correct	generate	Run1	generate/STIM_016.jpg
390.875	1.656	correct	generate	Run1	generate/STIM_016.jpg
396.113	1.88	correct	generate	Run1	generate/STIM_016.jpg
401.493	1.082	correct	generate	Run1	generate/STIM_016.jpg
406.304	1.082	correct	generate	Run1	generate/STIM_016.jpg
411.237	1.257	correct	generate	Run1	generate/STIM_017.jpg
415.207	2.123	correct	generate	Run1	generate/STIM_017.jpg
421.307	1.429	correct	generate	Run1	generate/STIM_017.jpg
426.426	1.786	correct	generate	Run1	generate/STIM_017.jpg
431.261	1.388	correct	generate	Run1	generate/STIM_017.jpg
435.056	1.434	correct	generate	Run1	generate/STIM_018.jpg
438.759	1.858	correct	generate	Run1	generate/STIM_018.jpg
444.205	1.405	correct	generate	Run1	generate/STIM_018.jpg
449.052	2.041	correct	generate	Run1	generate/STIM_018.jpg
454.229	1.215	correct	generate	Run1	generate/STIM_018.jpg
458.668	2.062	correct	generate	Run1	generate/STIM_019.jpg
462.897	1.7	correct	generate	Run1	generate/STIM_019.jpg
466.815	1.886	correct	generate	Run1	generate/STIM_019.jpg
471.013	1.863	correct	generate	Run1	generate/STIM_019.jpg
476.373	1.498	correct	generate	Run1	generate/STIM_019.jpg
480.294	1.705	correct	generate	Run1	generate/STIM_020.jpg
484.104	2.433	correct	generate	Run1	generate/STIM_020.jpg
490.331	1.341	correct	generate	Run1	generate/STIM_020.jpg
495.169	1.788	correct	generate	Run1	generate/STIM_020.jpg
499.59	1.305	correct	generate	Run1	generate/STIM_020.jpg
502.97	1.708	correct	generate	Run1	generate/STIM_021.jpg
507.758	1.518	correct	generate	Run1	generate/STIM_021.jpg
512.483	1.867	correct	generate	Run1	generate/STIM_021.jpg
517.998	2.17	correct	generate	Run1	generate/STIM_021.jpg
523.637	1.566	correct	generate	Run1	generate/STIM_021.jpg
528.187	2.052	correct	generate	Run1	generate/STIM_022.jpg
532.607	2.006	correct	generate	Run1	generate/STIM_022.jpg
537.934	1.185	correct	generate	Run1	generate/STIM_022.jpg
541.272	1.234	correct	generate	Run1	generate/STIM_022.jpg
545.471	1.794	correct	generate	Run1	generate/STIM_022.jpg
550.726	2.404	correct	generate	Run1	generate/STIM_023.jpg
556.159	1.373	correct	generate	Run1	generate/STIM_023.jpg
560.626	2.478	correct	generate	Run1	generate/STIM_023.jpg
566.643	2.159	correct	generate	Run1	generate/STIM_023.jpg
570.966	1.888	correct	generate	Run1	generate/STIM_023.jpg
576.591	2.314	correct	generate	Run1	generate/STIM_024.jpg
581.451	2.386	correct	generate	Run1	generate/STIM_024.jpg
585.909	1.114	correct	generate	Run1	generate/STIM_024.jpg
589.101	1.686	correct	generate	Run1	generate/STIM_024.jpg
594.0	1.617	correct	generate	Run1	generate/STIM_024.jpg
598.603	0.772	correct	repeat	Run1	repeat/STIM_000.jpg
602.123	0.506	correct	repeat	Run1	repeat/STIM_000.jpg
605.412	0.62	correct	repeat	Run1	repeat/STIM_000.jpg
609.26	0.608	correct	repeat	Run1	repeat/STIM_000.jpg
612.364	0.596	correct	repeat	Run1	repeat/STIM_000.jpg
616.131	0.586	correct	repeat	Run1	repeat/STIM_001.jpg
620.252	0.892	correct	repeat	Run1	repeat/STIM_001.jpg
624.628	0.705	correct	repeat	Run1	repeat/STIM_001.jpg
627.427	0.638	correct	repeat	Run1	repeat/STIM_001.jpg
631.924	0.635	correct	repeat	Run1	repeat/STIM_001.jpg
634.688	0.93	correct	repeat	Run1	repeat/STIM_002.jpg
637.823	0.613	correct	repeat	Run1	repeat/STIM_002.jpg
641.616	0.914	correct	repeat	Run1	repeat/STIM_002.jpg
645.614	0.782	correct	repeat	Run1	repeat/STIM_002.jpg
649.102	0.741	incorrect	repeat	Run1	repeat/STIM_002.jpg
652.533	0.808	correct	repeat	Run1	repeat/STIM_003.jpg
656.439	0.63	correct	repeat	Run1	repeat/STIM_003.jpg
659.898	0.633	correct	repeat	Run1	repeat/STIM_003.jpg
662.905	0.808	correct	repeat	Run1	repeat/STIM_003.jpg
666.042	0.792	correct	repeat	Run1	repeat/STIM_003.jpg
670.649	0.708	correct	repeat	Run1	repeat/STIM_004.jpg
674.844	0.859	correct	repeat	Run1	repeat/STIM_004.jpg
677.713	0.908	correct	repeat	Run1	repeat/STIM_004.jpg
681.567	0.876	correct	repeat	Run1	repeat/STIM_004.jpg
684.961	0.673	correct	repeat	Run1	repeat/STIM_004.jpg
688.838	0.486	correct	repeat	Run1	repeat/STIM_005.jpg
692.063	0.813	correct	repeat	Run1	repeat/STIM_005.jpg
695.218	0.57	correct	repeat	Run1	repeat/STIM_005.jpg
698.091	0.527	correct	repeat	Run1	repeat/STIM_005.jpg
701.873	0.582	correct	repeat	Run1	repeat/STIM_005.jpg
706.286	0.718	correct	repeat	Run1	repeat/STIM_006.jpg
709.104	0.496	correct	repeat	Run1	repeat/STIM_006.jpg
711.723	0.49	correct	repeat	Run1	repeat/STIM_006.jpg
715.846	0.563	correct	repeat	Run1	repeat/STIM_006.jpg
719.357	0.684	correct	repeat	Run1	repeat/STIM_006.jpg
724.029	0.877	correct	repeat	Run1	repeat/STIM_007.jpg
728.203	0.519	correct	repeat	Run1	repeat/STIM_007.jpg
732.268	0.575	correct	repeat	Run1	repeat/STIM_007.jpg
735.708	0.903	correct	repeat	Run1	repeat/STIM_007.jpg
739.622	0.852	correct	repeat	Run1	repeat/STIM_007.jpg
742.837	0.517	correct	repeat	Run1	repeat/STIM_008.jpg
745.487	0.701	correct	repeat	Run1	repeat/STIM_008.jpg
749.072	0.727	correct	repeat	Run1	repeat/STIM_008.jpg
753.022	0.823	correct	repeat	Run1	repeat/STIM_008.jpg
755.96	0.655	correct	repeat	Run1	repeat/STIM_008.jpg
759.295	0.816	correct	repeat	Run1	repeat/STIM_009.jpg
762.937	0.717	correct	repeat	Run1	repeat/STIM_009.jpg
766.047	0.546	correct	repeat	Run1	repeat/STIM_009.jpg
769.323	0.87	correct	repeat	Run1	repeat/STIM_009.jpg
773.866	0.476	correct	repeat	Run1	repeat/STIM_009.jpg
776.531	0.832	correct	repeat	Run1	repeat/STIM_010.jpg
779.494	0.619	correct	repeat	Run1	repeat/STIM_010.jpg
782.618	0.529	correct	repeat	Run1	repeat/STIM_010.jpg
785.977	0.795	correct	repeat	Run1	repeat/STIM_010.jpg
790.145	0.573	correct	repeat	Run1	repeat/STIM_010.jpg
793.488	0.493	correct	repeat	Run1	repeat/STIM_011.jpg
796.545	0.846	correct	repeat	Run1	repeat/STIM_011.jpg
799.552	0.893	correct	repeat	Run1	repeat/STIM_011.jpg
803.414	0.769	correct	repeat	Run1	repeat/STIM_011.jpg
808.05	0.612	correct	repeat	Run1	repeat/STIM_011.jpg
812.14	0.869	correct	repeat	Run1	repeat/STIM_012.jpg
816.078	0.781	correct	repeat	Run1	repeat/STIM_012.jpg
820.31	0.687	correct	repeat	Run1	repeat/STIM_012.jpg
824.027	0.652	correct	repeat	Run1	repeat/STIM_012.jpg
827.35	0.562	correct	repeat	Run1	repeat/STIM_012.jpg
830.874	0.793	correct	repeat	Run1	repeat/STIM_013.jpg
834.433	0.659	correct	repeat	Run1	repeat/STIM_013.jpg
837.979	0.752	correct	repeat	Run1	repeat/STIM_013.jpg
841.109	0.73	correct	repeat	Run1	repeat/STIM_013.jpg
844.904	0.474	correct	repeat	Run1	repeat/STIM_013.jpg
847.521	0.743	incorrect	repeat	Run1	repeat/STIM_014.jpg
850.716	0.609	correct	repeat	Run1	repeat/STIM_014.jpg
854.006	0.933	correct	repeat	Run1	repeat/STIM_014.jpg
857.757	0.751	correct	repeat	Run1	repeat/STIM_014.jpg
860.724	0.829	correct	repeat	Run1	repeat/STIM_014.jpg
863.728	1.927	correct	generate	Run2	generate/STIM_000.jpg
868.431	1.15	correct	generate	Run2	generate/STIM_000.jpg
872.384	0.85	correct	generate	Run2	generate/STIM_000.jpg
875.962	1.788	correct	generate	Run2	generate/STIM_000.jpg
880.801	1.819	correct	generate	Run2	generate/STIM_000.jpg
885.1	1.652	correct	generate	Run2	generate/STIM_001.jpg
888.824	1.945	correct	generate	Run2	generate/STIM_001.jpg
893.373	1.624	correct	generate	Run2	generate/STIM_001.jpg
898.897	1.951	correct	generate	Run2	generate/STIM_001.jpg
904.822	1.045	correct	generate	Run2	generate/STIM_001.jpg
909.652	1.62	correct	generate	Run2	generate/STIM_002.jpg
914.283	1.804	correct	generate	Run2	generate/STIM_002.jpg
919.288	0.847	correct	generate	Run2	generate/STIM_002.jpg
922.868	1.51	correct	generate	Run2	generate/STIM_002.jpg
928.233	1.25	correct	generate	Run2	generate/STIM_002.jpg
932.81	1.522	correct	generate	Run2	generate/STIM_003.jpg
937.954	1.931	correct	generate	Run2	generate/STIM_003.jpg
943.684	1.495	correct	generate	Run2	generate/STIM_003.jpg
948.572	1.364	correct	generate	Run2	generate/STIM_003.jpg
953.177	1.693	correct	generate	Run2	generate/STIM_003.jpg
957.421	1.966	correct	generate	Run2	generate/STIM_004.jpg
961.421	1.779	correct	generate	Run2	generate/STIM_004.jpg
967.021	1.391	correct	generate	Run2	generate/STIM_004.jpg
970.51	1.016	correct	generate	Run2	generate/STIM_004.jpg
974.126	0.794	correct	generate	Run2	generate/STIM_004.jpg
978.552	1.29	correct	generate	Run2	generate/STIM_005.jpg
983.713	0.975	correct	generate	Run2	generate/STIM_005.jpg
987.012	0.988	correct	generate	Run2	generate/STIM_005.jpg
991.815	1.367	correct	generate	Run2	generate/STIM_005.jpg
995.554	1.952	correct	generate	Run2	generate/STIM_005.jpg
1001.357	1.513	correct	generate	Run2	generate/STIM_006.jpg
1006.108	1.635	correct	generate	Run2	generate/STIM_006.jpg
1011.09	1.956	correct	generate	Run2	generate/STIM_006.jpg
1016.855	1.714	correct	generate	Run2	generate/STIM_006.jpg
1021.331	1.636	correct	generate	Run2	generate/STIM_006.jpg
1026.73	2.197	incorrect	generate	Run2	generate/STIM_007.jpg
1032.812	1.449	correct	generate	Run2	generate/STIM_007.jpg
1037.533	1.346	correct	generate	Run2	generate/STIM_007.jpg
1042.516	0.977	correct	generate	Run2	generate/STIM_007.jpg
1045.527	0.992	correct	generate	Run2	generate/STIM_007.jpg
1049.299	1.02	correct	generate	Run2	generate/STIM_008.jpg
1053.259	1.343	correct	generate	Run2	generate/STIM_008.jpg
1057.221	1.948	correct	generate	Run2	generate/STIM_008.jpg
1061.539	1.459	correct	generate	Run2	generate/STIM_008.jpg
1066.281	1.937	correct	generate	Run2	generate/STIM_008.jpg
1070.24	1.996	correct	generate	Run2	generate/STIM_009.jpg
1075.076	1.343	correct	generate	Run2	generate/STIM_009.jpg
1079.506	1.38	correct	generate	Run2	generate/STIM_009.jpg
1084.654	1.372	correct	generate	Run2	generate/STIM_009.jpg
1088.319	1.343	correct	generate	Run2	generate/STIM_009.jpg
1093.579	0.956	correct	generate	Run2	generate/STIM_010.jpg
1096.844	1.13	correct	generate	Run2	generate/STIM_010.jpg
1100.544	1.105	correct	generate	Run2	generate/STIM_010.jpg
1104.498	1.406	incorrect	generate	Run2	generate/STIM_010.jpg
1108.181	1.296	correct	generate	Run2	generate/STIM_010.jpg
1111.679	1.077	correct	generate	Run2	generate/STIM_011.jpg
1114.804	2.142	correct	generate	Run2	generate/STIM_011.jpg
1119.696	1.686	correct	generate	Run2	generate/STIM_011.jpg
1124.147	1.198	correct	generate	Run2	generate/STIM_011.jpg
1128.236	1.426	correct	generate	Run2	generate/STIM_011.jpg
1132.496	1.152	correct	generate	Run2	generate/STIM_012.jpg
1136.87	1.217	correct	generate	Run2	generate/STIM_012.jpg
1140.152	0.858	incorrect	generate	Run2	generate/STIM_012.jpg
1144.542	0.92	correct	generate	Run2	generate/STIM_012.jpg
1148.498	1.173	correct	generate	Run2	generate/STIM_012.jpg
1152.544	1.734	correct	generate	Run2	generate/STIM_013.jpg
1157.398	1.403	correct	generate	Run2	generate/STIM_013.jpg
1162.595	0.886	correct	generate	Run2	generate/STIM_013.jpg
1166.78	1.847	correct	generate	Run2	generate/STIM_013.jpg
1172.601	1.379	correct	generate	Run2	generate/STIM_013.jpg
1177.23	1.011	correct	generate	Run2	generate/STIM_014.jpg
1181.637	1.648	correct	generate	Run2	generate/STIM_014.jpg
1185.886	1.85	correct	generate	Run2	generate/STIM_014.jpg
1191.674	1.082	correct	generate	Run2	generate/STIM_014.jpg
1195.232	1.007	correct	generate	Run2	generate/STIM_014.jpg
1198.629	1.957	correct	generate	Run2	generate/STIM_015.jpg
1202.749	1.123	correct	generate	Run2	generate/STIM_015.jpg
1207.522	1.524	correct	generate	Run2	generate/STIM_015.jpg
1211.511	1.756	correct	generate	Run2	generate/STIM_015.jpg
1215.527	0.819	correct	generate	Run2	generate/STIM_015.jpg
1219.141	1.707	correct	generate	Run2	generate/STIM_016.jpg
1223.175	2.068	correct	generate	Run2	generate/STIM_016.jpg
1228.195	1.531	correct	generate	Run2	generate/STIM_016.jpg
1231.778	1.634	correct	generate	Run2	generate/STIM_016.jpg
1236.708	0.96	correct	generate	Run2	generate/STIM_016.jpg
1239.699	1.402	correct	generate	Run2	generate/STIM_017.jpg
1244.58	1.915	correct	generate	Run2	generate/STIM_017.jpg
1249.785	1.127	correct	generate	Run2	generate/STIM_017.jpg
1253.529	1.132	correct	generate	Run2	generate/STIM_017.jpg
1257.724	1.752	correct	generate	Run2	generate/STIM_017.jpg
1261.967	2.323	correct	generate	Run2	generate/STIM_018.jpg
1268.159	2.19	correct	generate	Run2	generate/STIM_018.jpg
1272.721	1.328	correct	generate	Run2	generate/STIM_018.jpg
1276.871	1.111	correct	generate	Run2	generate/STIM_018.jpg
1281.894	1.131	correct	generate	Run2	generate/STIM_018.jpg
1285.433	1.145	correct	generate	Run2	generate/STIM_019.jpg
1288.763	1.188	correct	generate	Run2	generate/STIM_019.jpg
1292.475	1.678	correct	generate	Run2	generate/STIM_019.jpg
1296.897	1.867	correct	generate	Run2	generate/STIM_019.jpg
1301.556	1.769	correct	generate	Run2	generate/STIM_019.jpg
1305.98	1.437	correct	generate	Run2	generate/STIM_020.jpg
1310.745	1.804	correct	generate	Run2	generate/STIM_020.jpg
1316.356	1.672	correct	generate	Run2	generate/STIM_020.jpg
1320.54	1.562	correct	generate	Run2	generate/STIM_020.jpg
1324.486	1.048	correct	generate	Run2	generate/STIM_020.jpg
1328.113	1.926	correct	generate	Run2	generate/STIM_021.jpg
1332.507	2.236	correct	generate	Run2	generate/STIM_021.jpg
1338.536	2.002	correct	generate	Run2	generate/STIM_021.jpg
1343.408	1.658	correct	generate	Run2	generate/STIM_021.jpg
1347.282	1.166	correct	generate	Run2	generate/STIM_021.jpg
1351.488	1.965	correct	generate	Run2	generate/STIM_022.jpg
1355.897	1.65	correct	generate	Run2	generate/STIM_022.jpg
1359.712	1.962	correct	generate	Run2	generate/STIM_022.jpg
1365.143	1.506	correct	generate	Run2	generate/STIM_022.jpg
1369.573	0.877	correct	generate	Run2	generate/STIM_022.jpg
1373.971	1.582	correct	generate	Run2	generate/STIM_023.jpg
1377.908	1.516	correct	generate	Run2	generate/STIM_023.jpg
1382.838	1.837	correct	generate	Run2	generate/STIM_023.jpg
1387.477	0.831	correct	generate	Run2	generate/STIM_023.jpg
1392.124	1.312	correct	generate	Run2	generate/STIM_023.jpg
1396.939	1.211	correct	generate	Run2	generate/STIM_024.jpg
1400.743	1.298	correct	generate	Run2	generate/STIM_024.jpg
1404.408	0.975	correct	generate	Run2	generate/STIM_024.jpg
1407.488	0.957	correct	generate	Run2	generate/STIM_024.jpg
1412.118	1.405	correct	generate	Run2	generate/STIM_024.jpg
1415.61	0.81	correct	repeat	Run2	repeat/STIM_000.jpg
1418.649	0.516	correct	repeat	Run2	repeat/STIM_000.jpg
1421.336	0.753	correct	repeat	Run2	repeat/STIM_000.jpg
1425.274	0.833	correct	repeat	Run2	repeat/STIM_000.jpg
1428.136	0.61	correct	repeat	Run2	repeat/STIM_000.jpg
1430.854	0.485	correct	repeat	Run2	repeat/STIM_001.jpg
1434.528	0.715	correct	repeat	Run2	repeat/STIM_001.jpg
1439.173	0.728	correct	repeat	Run2	repeat/STIM_001.jpg
1443.599	0.48	correct	repeat	Run2	repeat/STIM_001.jpg
1446.504	0.664	correct	repeat	Run2	repeat/STIM_001.jpg
1450.175	0.738	correct	repeat	Run2	repeat/STIM_002.jpg
1453.958	0.49	correct	repeat	Run2	repeat/STIM_002.jpg
1457.888	0.745	correct	repeat	Run2	repeat/STIM_002.jpg
1461.145	0.523	correct	repeat	Run2	repeat/STIM_002.jpg
1465.251	0.609	correct	repeat	Run2	repeat/STIM_002.jpg
1469.399	0.595	correct	repeat	Run2	repeat/STIM_003.jpg
1472.413	0.479	correct	repeat	Run2	repeat/STIM_003.jpg
1475.579	0.768	correct	repeat	Run2	repeat/STIM_003.jpg
1479.436	0.526	correct	repeat	Run2	repeat/STIM_003.jpg
1482.994	0.751	correct	repeat	Run2	repeat/STIM_003.jpg
1485.955	0.744	correct	repeat	Run2	repeat/STIM_004.jpg
1490.409	0.734	correct	repeat	Run2	repeat/STIM_004.jpg
1495.018	0.705	correct	repeat	Run2	repeat/STIM_004.jpg
1499.205	0.809	correct	repeat	Run2	repeat/STIM_004.jpg
1503.549	0.823	correct	repeat	Run2	repeat/STIM_004.jpg
1507.899	0.595	correct	repeat	Run2	repeat/STIM_005.jpg
1511.725	0.682	correct	repeat	Run2	repeat/STIM_005.jpg
1515.812	0.811	correct	repeat	Run2	repeat/STIM_005.jpg
1520.363	0.499	correct	repeat	Run2	repeat/STIM_005.jpg
1523.615	0.524	correct	repeat	Run2	repeat/STIM_005.jpg
1526.458	0.563	correct	repeat	Run2	repeat/STIM_006.jpg
1530.977	0.711	correct	repeat	Run2	repeat/STIM_006.jpg
1535.071	0.511	correct	repeat	Run2	repeat/STIM_006.jpg
1539.522	0.696	correct	repeat	Run2	repeat/STIM_006.jpg
1543.454	0.552	correct	repeat	Run2	repeat/STIM_006.jpg
1547.289	0.67	correct	repeat	Run2	repeat/STIM_007.jpg
1550.468	0.577	correct	repeat	Run2	repeat/STIM_007.jpg
1553.662	0.571	correct	repeat	Run2	repeat/STIM_007.jpg
1558.089	0.752	correct	repeat	Run2	repeat/STIM_007.jpg
1560.897	0.91	correct	repeat	Run2	repeat/STIM_007.jpg
1564.076	0.812	correct	repeat	Run2	repeat/STIM_008.jpg
1568.251	0.78	correct	repeat	Run2	repeat/STIM_008.jpg
1571.8	0.824	correct	repeat	Run2	repeat/STIM_008.jpg
1574.634	0.596	correct	repeat	Run2	repeat/STIM_008.jpg
1577.684	0.556	correct	repeat	Run2	repeat/STIM_008.jpg
1580.773	0.571	correct	repeat	Run2	repeat/STIM_009.jpg
1584.346	0.929	correct	repeat	Run2	repeat/STIM_009.jpg
1587.569	0.838	correct	repeat	Run2	repeat/STIM_009.jpg
1591.027	0.548	incorrect	repeat	Run2	repeat/STIM_009.jpg
1595.345	0.712	correct	repeat	Run2	repeat/STIM_009.jpg
1598.568	0.706	correct	repeat	Run2	repeat/STIM_010.jpg
1601.836	0.873	correct	repeat	Run2	repeat/STIM_010.jpg
1606.125	0.74	correct	repeat	Run2	repeat/STIM_010.jpg
1610.026	0.583	correct	repeat	Run2	repeat/STIM_010.jpg
1613.976	0.789	correct	repeat	Run2	repeat/STIM_010.jpg
1618.687	0.794	correct	repeat	Run2	repeat/STIM_011.jpg
1623.219	0.468	correct	repeat	Run2	repeat/STIM_011.jpg
1625.915	0.568	correct	repeat	Run2	repeat/STIM_011.jpg
1629.1	0.484	correct	repeat	Run2	repeat/STIM_011.jpg
1632.548	0.832	correct	repeat	Run2	repeat/STIM_011.jpg
1636.506	0.767	correct	repeat	Run2	repeat/STIM_012.jpg
1639.463	0.847	correct	repeat	Run2	repeat/STIM_012.jpg
1644.219	0.713	correct	repeat	Run2	repeat/STIM_012.jpg
1647.675	0.528	correct	repeat	Run2	repeat/STIM_012.jpg
1651.633	0.844	correct	repeat	Run2	repeat/STIM_012.jpg
1655.308	0.869	correct	repeat	Run2	repeat/STIM_013.jpg
1658.609	0.599	incorrect	repeat	Run2	repeat/STIM_013.jpg
1662.878	0.734	correct	repeat	Run2	repeat/STIM_013.jpg
1665.859	0.64	correct	repeat	Run2	repeat/STIM_013.jpg
1669.972	0.545	correct	repeat	Run2	repeat/STIM_013.jpg
1672.825	0.815	correct	repeat	Run2	repeat/STIM_014.jpg
1676.597	0.516	correct	repeat	Run2	repeat/STIM_014.jpg
1680.011	0.731	correct	repeat	Run2	repeat/STIM_014.jpg
1682.871	0.613	correct	repeat	Run2	repeat/STIM_014.jpg
1686.043	0.828	correct	repeat	Run2	repeat/STIM_014.jpg
1689.803	0.824	correct	generate	Run3	generate/STIM_000.jpg
1692.766	1.328	correct	generate	Run3	generate/STIM_000.jpg
1696.296	1.657	correct	generate	Run3	generate/STIM_000.jpg
1700.871	1.425	correct	generate	Run3	generate/STIM_000.jpg
1704.865	1.652	correct	generate	Run3	generate/STIM_000.jpg
1708.776	1.152	correct	generate	Run3	generate/STIM_001.jpg
1713.008	0.896	correct	generate	Run3	generate/STIM_001.jpg
1717.616	1.036	correct	generate	Run3	generate/STIM_001.jpg
1721.769	1.001	correct	generate	Run3	generate/STIM_001.jpg
1726.632	1.006	correct	generate	Run3	generate/STIM_001.jpg
1731.224	1.952	correct	generate	Run3	generate/STIM_002.jpg
1735.918	1.524	correct	generate	Run3	generate/STIM_002.jpg
1741.137	1.205	correct	generate	Run3	generate/STIM_002.jpg
1744.896	0.8	correct	generate	Run3	generate/STIM_002.jpg
1749.136	1.737	correct	generate	Run3	generate/STIM_002.jpg
1754.851	1.071	correct	generate	Run3	generate/STIM_003.jpg
1759.167	1.31	correct	generate	Run3	generate/STIM_003.jpg
1764.27	1.247	correct	generate	Run3	generate/STIM_003.jpg
1769.449	1.144	correct	generate	Run3	generate/STIM_003.jpg
1774.282	1.558	correct	generate	Run3	generate/STIM_003.jpg
1779.486	1.398	correct	generate	Run3	generate/STIM_004.jpg
1784.265	0.994	correct	generate	Run3	generate/STIM_004.jpg
1788.255	1.753	correct	generate	Run3	generate/STIM_004.jpg
1792.13	1.089	correct	generate	Run3	generate/STIM_004.jpg
1796.73	1.507	correct	generate	Run3	generate/STIM_004.jpg
1802.201	1.495	correct	generate	Run3	generate/STIM_005.jpg
1805.731	1.829	correct	generate	Run3	generate/STIM_005.jpg
1811.377	1.024	incorrect	generate	Run3	generate/STIM_005.jpg
1815.908	0.897	correct	generate	Run3	generate/STIM_005.jpg
1819.481	1.388	correct	generate	Run3	generate/STIM_005.jpg
1823.652	1.541	correct	generate	Run3	generate/STIM_006.jpg
1827.349	0.883	correct	generate	Run3	generate/STIM_006.jpg
1831.697	0.968	correct	generate	Run3	generate/STIM_006.jpg
1835.87	0.988	correct	generate	Run3	generate/STIM_006.jpg
1840.407	0.871	correct	generate	Run3	generate/STIM_006.jpg
1844.994	1.268	correct	generate	Run3	generate/STIM_007.jpg
1849.005	1.465	correct	generate	Run3	generate/STIM_007.jpg
1854.439	1.69	correct	generate	Run3	generate/STIM_007.jpg
1859.376	1.844	correct	generate	Run3	generate/STIM_007.jpg
1863.751	1.536	correct	generate	Run3	generate/STIM_007.jpg
1868.383	1.237	correct	generate	Run3	generate/STIM_008.jpg
1872.008	1.534	correct	generate	Run3	generate/STIM_008.jpg
1877.357	1.242	correct	generate	Run3	generate/STIM_008.jpg
1880.892	0.997	correct	generate	Run3	generate/STIM_008.jpg
1884.947	1.171	correct	generate	Run3	generate/STIM_008.jpg
1889.164	1.912	correct	generate	Run3	generate/STIM_009.jpg
1894.358	1.271	correct	generate	Run3	generate/STIM_009.jpg
1898.956	1.174	correct	generate	Run3	generate/STIM_009.jpg
1903.709	0.996	correct	generate	Run3	generate/STIM_009.jpg
1908.686	1.819	correct	generate	Run3	generate/STIM_009.jpg
1914.17	1.635	correct	generate	Run3	generate/STIM_010.jpg
1919.672	1.824	correct	generate	Run3	generate/STIM_010.jpg
1924.733	1.532	correct	generate	Run3	generate/STIM_010.jpg
1930.233	1.314	correct	generate	Run3	generate/STIM_010.jpg
1934.815	1.85	correct	generate	Run3	generate/STIM_010.jpg
1940.433	1.835	correct	generate	Run3	generate/STIM_011.jpg
1944.713	1.573	correct	generate	Run3	generate/STIM_011.jpg
1950.056	1.401	correct	generate	Run3	generate/STIM_011.jpg
1955.389	0.908	correct	generate	Run3	generate/STIM_011.jpg
1958.771	1.241	correct	generate	Run3	generate/STIM_011.jpg
1962.975	1.729	correct	generate	Run3	generate/STIM_012.jpg
1968.618	1.611	correct	generate	Run3	generate/STIM_012.jpg
1974.004	1.871	correct	generate	Run3	generate/STIM_012.jpg
1978.012	1.259	correct	generate	Run3	generate/STIM_012.jpg
1983.248	1.669	correct	generate	Run3	generate/STIM_012.jpg
1987.735	0.806	correct	generate	Run3	generate/STIM_013.jpg
1991.223	1.076	correct	generate	Run3	generate/STIM_013.jpg
1994.693	1.652	correct	generate	Run3	generate/STIM_013.jpg
1998.916	1.584	correct	generate	Run3	generate/STIM_013.jpg
2004.466	1.067	correct	generate	Run3	generate/STIM_013.jpg
2008.749	1.541	correct	generate	Run3	generate/STIM_014.jpg
2013.469	1.386	correct	generate	Run3	generate/STIM_014.jpg
2017.648	1.862	correct	generate	Run3	generate/STIM_014.jpg
2022.413	1.83	correct	generate	Run3	generate/STIM_014.jpg
2027.963	1.5	correct	generate	Run3	generate/STIM_014.jpg
2033.322	1.391	correct	generate	Run3	generate/STIM_015.jpg
2038.248	1.798	correct	generate	Run3	generate/STIM_015.jpg
2042.987	1.032	correct	generate	Run3	generate/STIM_015.jpg
2048.008	0.886	correct	generate	Run3	generate/STIM_015.jpg
2051.738	1.219	correct	generate	Run3	generate/STIM_015.jpg
2055.213	0.885	correct	generate	Run3	generate/STIM_016.jpg
2059.973	0.871	correct	generate	Run3	generate/STIM_016.jpg
2064.143	1.296	correct	generate	Run3	generate/STIM_016.jpg
2068.02	1.454	correct	generate	Run3	generate/STIM_016.jpg
2071.781	0.798	correct	generate	Run3	generate/STIM_016.jpg
2076.365	1.581	correct	generate	Run3	generate/STIM_017.jpg
2081.768	1.245	correct	generate	Run3	generate/STIM_017.jpg
2085.778	1.159	correct	generate	Run3	generate/STIM_017.jpg
2090.535	0.905	correct	generate	Run3	generate/STIM_017.jpg
2093.771	1.132	correct	generate	Run3	generate/STIM_017.jpg
2098.405	0.955	correct	generate	Run3	generate/STIM_018.jpg
2102.795	1.39	correct	generate	Run3	generate/STIM_018.jpg
2107.811	1.888	correct	generate	Run3	generate/STIM_018.jpg
2113.588	1.913	correct	generate	Run3	generate/STIM_018.jpg
2117.992	1.348	correct	generate	Run3	generate/STIM_018.jpg
2122.42	1.68	correct	generate	Run3	generate/STIM_019.jpg
2126.953	1.761	correct	generate	Run3	generate/STIM_019.jpg
2130.88	1.905	correct	generate	Run3	generate/STIM_019.jpg
2136.498	1.415	correct	generate	Run3	generate/STIM_019.jpg
2141.036	1.922	correct	generate	Run3	generate/STIM_019.jpg
2145.105	1.499	correct	generate	Run3	generate/STIM_020.jpg
2149.696	1.331	correct	generate	Run3	generate/STIM_020.jpg
2153.549	1.031	correct	generate	Run3	generate/STIM_020.jpg
2158.406	1.042	correct	generate	Run3	generate/STIM_020.jpg
2161.466	1.571	correct	generate	Run3	generate/STIM_020.jpg
2165.845	1.436	correct	generate	Run3	generate/STIM_021.jpg
2170.536	1.331	correct	generate	Run3	generate/STIM_021.jpg
2175.789	1.135	correct	generate	Run3	generate/STIM_021.jpg
2180.084	0.896	correct	generate	Run3	generate/STIM_021.jpg
2184.657	1.291	correct	generate	Run3	generate/STIM_021.jpg
2189.189	1.28	correct	generate	Run3	generate/STIM_022.jpg
2193.186	1.59	correct	generate	Run3	generate/STIM_022.jpg
2198.611	1.91	correct	generate	Run3	generate/STIM_022.jpg
2203.063	0.817	correct	generate	Run3	generate/STIM_022.jpg
2207.211	1.482	correct	generate	Run3	generate/STIM_022.jpg
2211.0	1.066	correct	generate	Run3	generate/STIM_023.jpg
2214.276	1.608	correct	generate	Run3	generate/STIM_023.jpg
2218.638	0.802	correct	generate	Run3	generate/STIM_023.jpg
2221.764	0.934	correct	generate	Run3	generate/STIM_023.jpg
2226.296	1.413	correct	generate	Run3	generate/STIM_023.jpg
2230.965	1.87	correct	generate	Run3	generate/STIM_024.jpg
2235.006	1.111	incorrect	generate	Run3	generate/STIM_024.jpg
2239.179	1.025	correct	generate	Run3	generate/STIM_024.jpg
2243.125	1.943	correct	generate	Run3	generate/STIM_024.jpg
2247.458	1.546	correct	generate	Run3	generate/STIM_024.jpg
2252.548	0.923	correct	repeat	Run3	repeat/STIM_000.jpg
2257.023	0.852	correct	repeat	Run3	repeat/STIM_000.jpg
2260.393	0.797	correct	repeat	Run3	repeat/STIM_000.jpg
2264.822	0.526	correct	repeat	Run3	repeat/STIM_000.jpg
2269.283	0.836	correct	repeat	Run3	repeat/STIM_000.jpg
2273.326	0.521	correct	repeat	Run3	repeat/STIM_001.jpg
2276.755	0.557	correct	repeat	Run3	repeat/STIM_001.jpg
2281.276	0.554	correct	repeat	Run3	repeat/STIM_001.jpg
2284.48	0.596	correct	repeat	Run3	repeat/STIM_001.jpg
2288.59	0.724	correct	repeat	Run3	repeat/STIM_001.jpg
2291.359	0.865	correct	repeat	Run3	repeat/STIM_002.jpg
2294.69	0.641	correct	repeat	Run3	repeat/STIM_002.jpg
2298.547	0.551	correct	repeat	Run3	repeat/STIM_002.jpg
2302.609	0.881	correct	repeat	Run3	repeat/STIM_002.jpg
2306.992	0.487	correct	repeat	Run3	repeat/STIM_002.jpg
2310.954	0.501	correct	repeat	Run3	repeat/STIM_003.jpg
2314.047	0.53	correct	repeat	Run3	repeat/STIM_003.jpg
2318.441	0.881	correct	repeat	Run3	repeat/STIM_003.jpg
2321.379	0.917	correct	repeat	Run3	repeat/STIM_003.jpg
2325.145	0.741	correct	repeat	Run3	repeat/STIM_003.jpg
2329.49	0.874	correct	repeat	Run3	repeat/STIM_004.jpg
2333.565	0.87	correct	repeat	Run3	repeat/STIM_004.jpg
2337.622	0.832	correct	repeat	Run3	repeat/STIM_004.jpg
2340.631	0.6	correct	repeat	Run3	repeat/STIM_004.jpg
2343.547	0.743	correct	repeat	Run3	repeat/STIM_004.jpg
2348.023	0.618	correct	repeat	Run3	repeat/STIM_005.jpg
2351.279	0.582	correct	repeat	Run3	repeat/STIM_005.jpg
2355.714	0.593	correct	repeat	Run3	repeat/STIM_005.jpg
2359.158	0.499	correct	repeat	Run3	repeat/STIM_005.jpg
2361.677	0.781	correct	repeat	Run3	repeat/STIM_005.jpg
2364.597	0.812	correct	repeat	Run3	repeat/STIM_006.jpg
2369.013	0.756	correct	repeat	Run3	repeat/STIM_006.jpg
2373.295	0.679	correct	repeat	Run3	repeat/STIM_006.jpg
2376.539	0.525	correct	repeat	Run3	repeat/STIM_006.jpg
2379.286	0.879	correct	repeat	Run3	repeat/STIM_006.jpg
2382.972	0.56	correct	repeat	Run3	repeat/STIM_007.jpg
2386.924	0.596	correct	repeat	Run3	repeat/STIM_007.jpg
2391.147	0.62	correct	repeat	Run3	repeat/STIM_007.jpg
2393.794	0.879	correct	repeat	Run3	repeat/STIM_007.jpg
2396.97	0.93	correct	repeat	Run3	repeat/STIM_007.jpg
2401.595	0.718	correct	repeat	Run3	repeat/STIM_008.jpg
2405.34	0.518	correct	repeat	Run3	repeat/STIM_008.jpg
2408.508	0.848	correct	repeat	Run3	repeat/STIM_008.jpg
2412.251	0.689	correct	repeat	Run3	repeat/STIM_008.jpg
2415.194	0.554	correct	repeat	Run3	repeat/STIM_008.jpg
2419.638	0.604	correct	repeat	Run3	repeat/STIM_009.jpg
2423.858	0.549	correct	repeat	Run3	repeat/STIM_009.jpg
2426.945	0.806	correct	repeat	Run3	repeat/STIM_009.jpg
2430.336	0.703	correct	repeat	Run3	repeat/STIM_009.jpg
2433.849	0.692	correct	repeat	Run3	repeat/STIM_009.jpg
2437.252	0.679	correct	repeat	Run3	repeat/STIM_010.jpg
2440.268	0.587	correct	repeat	Run3	repeat/STIM_010.jpg
2444.711	0.859	correct	repeat	Run3	repeat/STIM_010.jpg
2447.877	0.831	correct	repeat	Run3	repeat/STIM_010.jpg
2452.388	0.912	correct	repeat	Run3	repeat/STIM_010.jpg
2455.334	0.494	correct	repeat	Run3	repeat/STIM_011.jpg
2459.598	0.827	correct	repeat	Run3	repeat/STIM_011.jpg
2462.48	0.809	correct	repeat	Run3	repeat/STIM_011.jpg
2465.725	0.556	correct	repeat	Run3	repeat/STIM_011.jpg
2469.005	0.741	correct	repeat	Run3	repeat/STIM_011.jpg
2472.024	0.927	correct	repeat	Run3	repeat/STIM_012.jpg
2476.85	0.482	correct	repeat	Run3	repeat/STIM_012.jpg
2480.476	0.802	correct	repeat	Run3	repeat/STIM_012.jpg
2484.201	0.496	correct	repeat	Run3	repeat/STIM_012.jpg
2488.66	0.894	correct	repeat	Run3	repeat/STIM_012.jpg
2493.372	0.799	correct	repeat	Run3	repeat/STIM_013.jpg
2498.119	0.699	correct	repeat	Run3	repeat/STIM_013.jpg
2501.803	0.636	correct	repeat	Run3	repeat/STIM_013.jpg
2505.549	0.793	correct	repeat	Run3	repeat/STIM_013.jpg
2508.395	0.595	correct	repeat	Run3	repeat/STIM_013.jpg
2512.038	0.486	correct	repeat	Run3	repeat/STIM_014.jpg
2515.145	0.766	correct	repeat	Run3	repeat/STIM_014.jpg
2519.651	0.492	incorrect	repeat	Run3	repeat/STIM_014.jpg
2522.727	0.508	correct	repeat	Run3	repeat/STIM_014.jpg
2526.572	0.741	correct	repeat	Run3	repeat/STIM_014.jpg
2529.623	1.933	correct	generate	Run4	generate/STIM_000.jpg
2533.768	1.488	incorrect	generate	Run4	generate/STIM_000.jpg
2537.939	0.998	correct	generate	Run4	generate/STIM_000.jpg
2541.405	1.502	correct	generate	Run4	generate/STIM_000.jpg
2545.89	1.305	correct	generate	Run4	generate/STIM_000.jpg
2549.874	0.878	correct	generate	Run4	generate/STIM_001.jpg
2552.958	1.43	correct	generate	Run4	generate/STIM_001.jpg
2558.164	0.832	correct	generate	Run4	generate/STIM_001.jpg
2562.486	1.851	correct	generate	Run4	generate/STIM_001.jpg
2567.38	1.627	correct	generate	Run4	generate/STIM_001.jpg
2572.711	1.751	correct	generate	Run4	generate/STIM_002.jpg
2576.708	1.538	correct	generate	Run4	generate/STIM_002.jpg
2580.413	0.976	correct	generate	Run4	generate/STIM_002.jpg
2585.144	1.917	correct	generate	Run4	generate/STIM_002.jpg
2590.938	0.822	correct	generate	Run4	generate/STIM_002.jpg
2595.055	1.88	correct	generate	Run4	generate/STIM_003.jpg
2599.947	1.704	correct	generate	Run4	generate/STIM_003.jpg
2605.233	1.134	correct	generate	Run4	generate/STIM_003.jpg
2609.018	1.71	correct	generate	Run4	generate/STIM_003.jpg
2614.075	1.946	correct	generate	Run4	generate/STIM_003.jpg
2619.156	1.044	correct	generate	Run4	generate/STIM_004.jpg
2623.407	1.584	correct	generate	Run4	generate/STIM_004.jpg
2628.481	1.156	correct	generate	Run4	generate/STIM_004.jpg
2631.791	1.495	correct	generate	Run4	generate/STIM_004.jpg
2635.9	0.954	correct	generate	Run4	generate/STIM_004.jpg
2640.225	1.618	correct	generate	Run4	generate/STIM_005.jpg
2645.718	0.871	correct	generate	Run4	generate/STIM_005.jpg
2648.64	0.916	correct	generate	Run4	generate/STIM_005.jpg
2653.502	1.567	correct	generate	Run4	generate/STIM_005.jpg
2658.009	1.566	correct	generate	Run4	generate/STIM_005.jpg
2662.07	1.113	correct	generate	Run4	generate/STIM_006.jpg
2666.173	1.731	correct	generate	Run4	generate/STIM_006.jpg
2671.08	0.865	correct	generate	Run4	generate/STIM_006.jpg
2674.738	1.608	correct	generate	Run4	generate/STIM_006.jpg
2679.734	1.199	correct	generate	Run4	generate/STIM_006.jpg
2683.033	0.834	correct	generate	Run4	generate/STIM_007.jpg
2687.829	1.211	correct	generate	Run4	generate/STIM_007.jpg
2691.197	1.399	incorrect	generate	Run4	generate/STIM_007.jpg
2696.127	1.481	correct	generate	Run4	generate/STIM_007.jpg
2701.479	1.55	correct	generate	Run4	generate/STIM_007.jpg
2706.104	1.235	correct	generate	Run4	generate/STIM_008.jpg
2709.553	1.152	correct	generate	Run4	generate/STIM_008.jpg
2713.341	1.647	correct	generate	Run4	generate/STIM_008.jpg
2717.653	1.037	incorrect	generate	Run4	generate/STIM_008.jpg
2722.47	1.07	correct	generate	Run4	generate/STIM_008.jpg
2726.065	1.012	correct	generate	Run4	generate/STIM_009.jpg
2730.484	1.478	correct	generate	Run4	generate/STIM_009.jpg
2735.376	1.601	correct	generate	Run4	generate/STIM_009.jpg
2739.68	1.212	correct	generate	Run4	generate/STIM_009.jpg
2744.022	1.526	correct	generate	Run4	generate/STIM_009.jpg
2749.217	0.851	correct	generate	Run4	generate/STIM_010.jpg
2753.569	1.387	correct	generate	Run4	generate/STIM_010.jpg
2758.911	1.074	correct	generate	Run4	generate/STIM_010.jpg
2762.2	0.896	correct	generate	Run4	generate/STIM_010.jpg
2765.472	1.192	correct	generate	Run4	generate/STIM_010.jpg
2769.795	0.823	correct	generate	Run4	generate/STIM_011.jpg
2773.429	0.917	correct	generate	Run4	generate/STIM_011.jpg
2777.821	1.171	correct	generate	Run4	generate/STIM_011.jpg
2782.122	1.521	correct	generate	Run4	generate/STIM_011.jpg
2787.478	0.884	correct	generate	Run4	generate/STIM_011.jpg
2790.773	1.635	correct	generate	Run4	generate/STIM_012.jpg
2796.118	1.684	correct	generate	Run4	generate/STIM_012.jpg
2800.631	1.353	correct	generate	Run4	generate/STIM_012.jpg
2805.134	0.834	correct	generate	Run4	generate/STIM_012.jpg
2808.174	1.275	correct	generate	Run4	generate/STIM_012.jpg
2813.137	1.164	correct	generate	Run4	generate/STIM_013.jpg
2818.122	1.517	correct	generate	Run4	generate/STIM_013.jpg
2822.26	1.138	correct	generate	Run4	generate/STIM_013.jpg
2827.376	1.622	correct	generate	Run4	generate/STIM_013.jpg
2832.807	1.012	correct	generate	Run4	generate/STIM_013.jpg
2837.281	0.886	correct	generate	Run4	generate/STIM_014.jpg
2841.243	1.16	correct	generate	Run4	generate/STIM_014.jpg
2845.192	1.796	correct	generate	Run4	generate/STIM_014.jpg
2849.026	1.604	correct	generate	Run4	generate/STIM_014.jpg
2854.437	1.82	correct	generate	Run4	generate/STIM_014.jpg
2858.368	1.004	correct	generate	Run4	generate/STIM_015.jpg
2862.471	1.653	correct	generate	Run4	generate/STIM_015.jpg
2866.989	1.547	correct	generate	Run4	generate/STIM_015.jpg
2870.641	1.857	correct	generate	Run4	generate/STIM_015.jpg
2876.214	1.638	correct	generate	Run4	generate/STIM_015.jpg
2881.238	1.74	correct	generate	Run4	generate/STIM_016.jpg
2886.935	1.42	correct	generate	Run4	generate/STIM_016.jpg
2891.384	0.82	correct	generate	Run4	generate/STIM_016.jpg
2895.792	1.54	correct	generate	Run4	generate/STIM_016.jpg
2899.345	1.706	correct	generate	Run4	generate/STIM_016.jpg
2904.528	1.605	correct	generate	Run4	generate/STIM_017.jpg
2908.218	1.096	incorrect	generate	Run4	generate/STIM_017.jpg
2912.874	1.96	correct	generate	Run4	generate/STIM_017.jpg
2918.093	0.92	correct	generate	Run4	generate/STIM_017.jpg
2921.664	0.825	correct	generate	Run4	generate/STIM_017.jpg
2926.121	1.44	correct	generate	Run4	generate/STIM_018.jpg
2930.274	1.606	correct	generate	Run4	generate/STIM_018.jpg
2934.876	1.802	correct	generate	Run4	generate/STIM_018.jpg
2938.72	1.794	correct	generate	Run4	generate/STIM_018.jpg
2943.293	1.38	correct	generate	Run4	generate/STIM_018.jpg
2946.882	1.218	correct	generate	Run4	generate/STIM_019.jpg
2950.959	1.692	correct	generate	Run4	generate/STIM_019.jpg
2955.315	1.783	correct	generate	Run4	generate/STIM_019.jpg
2959.765	1.831	correct	generate	Run4	generate/STIM_019.jpg
2964.191	1.432	correct	generate	Run4	generate/STIM_019.jpg
2968.858	1.687	correct	generate	Run4	generate/STIM_020.jpg
2973.335	0.989	correct	generate	Run4	generate/STIM_020.jpg
2978.281	1.763	correct	generate	Run4	generate/STIM_020.jpg
2983.345	1.456	correct	generate	Run4	generate/STIM_020.jpg
2986.935	0.907	correct	generate	Run4	generate/STIM_020.jpg
2991.146	1.368	correct	generate	Run4	generate/STIM_021.jpg
2995.961	1.916	correct	generate	Run4	generate/STIM_021.jpg
3001.232	1.165	correct	generate	Run4	generate/STIM_021.jpg
3004.542	0.896	correct	generate	Run4	generate/STIM_021.jpg
3007.772	0.875	correct	generate	Run4	generate/STIM_021.jpg
3010.874	0.872	correct	generate	Run4	generate/STIM_022.jpg
3014.946	1.796	correct	generate	Run4	generate/STIM_022.jpg
3019.953	0.888	correct	generate	Run4	generate/STIM_022.jpg
3023.774	1.916	correct	generate	Run4	generate/STIM_022.jpg
3027.948	1.418	correct	generate	Run4	generate/STIM_022.jpg
3031.767	1.844	correct	generate	Run4	generate/STIM_023.jpg
3036.159	0.99	correct	generate	Run4	generate/STIM_023.jpg
3039.494	1.502	correct	generate	Run4	generate/STIM_023.jpg
3043.109	1.596	correct	generate	Run4	generate/STIM_023.jpg
3047.982	0.978	correct	generate	Run4	generate/STIM_023.jpg
3051.472	1.372	correct	generate	Run4	generate/STIM_024.jpg
3056.804	1.515	correct	generate	Run4	generate/STIM_024.jpg
3060.502	1.413	correct	generate	Run4	generate/STIM_024.jpg
3065.191	0.796	correct	generate	Run4	generate/STIM_024.jpg
3069.934	1.349	correct	generate	Run4	generate/STIM_024.jpg
3074.742	0.71	correct	repeat	Run4	repeat/STIM_000.jpg
3078.798	0.663	correct	repeat	Run4	repeat/STIM_000.jpg
3082.422	0.852	correct	repeat	Run4	repeat/STIM_000.jpg
3085.941	0.672	incorrect	repeat	Run4	repeat/STIM_000.jpg
3089.534	0.544	correct	repeat	Run4	repeat/STIM_000.jpg
3092.511	0.747	correct	repeat	Run4	repeat/STIM_001.jpg
3096.959	0.542	correct	repeat	Run4	repeat/STIM_001.jpg
3100.119	0.786	correct	repeat	Run4	repeat/STIM_001.jpg
3104.085	0.785	correct	repeat	Run4	repeat/STIM_001.jpg
3108.818	0.696	correct	repeat	Run4	repeat/STIM_001.jpg
3112.815	0.51	correct	repeat	Run4	repeat/STIM_002.jpg
3117.118	0.84	correct	repeat	Run4	repeat/STIM_002.jpg
3120.978	0.73	correct	repeat	Run4	repeat/STIM_002.jpg
3124.596	0.532	correct	repeat	Run4	repeat/STIM_002.jpg
3127.69	0.495	correct	repeat	Run4	repeat/STIM_002.jpg
3131.883	0.697	correct	repeat	Run4	repeat/STIM_003.jpg
3136.187	0.653	correct	repeat	Run4	repeat/STIM_003.jpg
3139.199	0.654	incorrect	repeat	Run4	repeat/STIM_003.jpg
3142.55	0.897	correct	repeat	Run4	repeat/STIM_003.jpg
3145.547	0.654	correct	repeat	Run4	repeat/STIM_003.jpg
3149.428	0.733	correct	repeat	Run4	repeat/STIM_004.jpg
3152.791	0.727	correct	repeat	Run4	repeat/STIM_004.jpg
3156.876	0.832	correct	repeat	Run4	repeat/STIM_004.jpg
3160.462	0.626	correct	repeat	Run4	repeat/STIM_004.jpg
3163.781	0.531	correct	repeat	Run4	repeat/STIM_004.jpg
3167.742	0.718	correct	repeat	Run4	repeat/STIM_005.jpg
3171.054	0.501	correct	repeat	Run4	repeat/STIM_005.jpg
3175.09	0.679	incorrect	repeat	Run4	repeat/STIM_005.jpg
3179.425	0.92	correct	repeat	Run4	repeat/STIM_005.jpg
3182.829	0.777	correct	repeat	Run4	repeat/STIM_005.jpg
3186.362	0.551	correct	repeat	Run4	repeat/STIM_006.jpg
3189.749	0.484	correct	repeat	Run4	repeat/STIM_006.jpg
3193.896	0.924	correct	repeat	Run4	repeat/STIM_006.jpg
3198.067	0.785	correct	repeat	Run4	repeat/STIM_006.jpg
3201.856	0.71	correct	repeat	Run4	repeat/STIM_006.jpg
3205.129	0.551	correct	repeat	Run4	repeat/STIM_007.jpg
3208.865	0.678	correct	repeat	Run4	repeat/STIM_007.jpg
3212.423	0.74	correct	repeat	Run4	repeat/STIM_007.jpg
3215.843	0.859	correct	repeat	Run4	repeat/STIM_007.jpg
3218.814	0.567	correct	repeat	Run4	repeat/STIM_007.jpg
3221.565	0.849	correct	repeat	Run4	repeat/STIM_008.jpg
3226.189	0.607	correct	repeat	Run4	repeat/STIM_008.jpg
3230.272	0.921	correct	repeat	Run4	repeat/STIM_008.jpg
3235.05	0.834	correct	repeat	Run4	repeat/STIM_008.jpg
3238.535	0.731	incorrect	repeat	Run4	repeat/STIM_008.jpg
3243.134	0.576	correct	repeat	Run4	repeat/STIM_009.jpg
3247.319	0.568	correct	repeat	Run4	repeat/STIM_009.jpg
3250.897	0.633	correct	repeat	Run4	repeat/STIM_009.jpg
3253.613	0.632	correct	repeat	Run4	repeat/STIM_009.jpg
3256.853	0.524	correct	repeat	Run4	repeat/STIM_009.jpg
3260.448	0.597	correct	repeat	Run4	repeat/STIM_010.jpg
3263.707	0.712	correct	repeat	Run4	repeat/STIM_010.jpg
3268.003	0.93	correct	repeat	Run4	repeat/STIM_010.jpg
3272.087	0.526	correct	repeat	Run4	repeat/STIM_010.jpg
3274.885	0.838	correct	repeat	Run4	repeat/STIM_010.jpg
3277.787	0.47	correct	repeat	Run4	repeat/STIM_011.jpg
3281.369	0.784	correct	repeat	Run4	repeat/STIM_011.jpg
3285.315	0.469	correct	repeat	Run4	repeat/STIM_011.jpg
3288.121	0.512	correct	repeat	Run4	repeat/STIM_011.jpg
3291.643	0.887	correct	repeat	Run4	repeat/STIM_011.jpg
3295.708	0.737	correct	repeat	Run4	repeat/STIM_012.jpg
3300.311	0.776	correct	repeat	Run4	repeat/STIM_012.jpg
3304.658	0.816	correct	repeat	Run4	repeat/STIM_012.jpg
3308.825	0.558	correct	repeat	Run4	repeat/STIM_012.jpg
3313.242	0.862	correct	repeat	Run4	repeat/STIM_012.jpg
3316.555	0.584	correct	repeat	Run4	repeat/STIM_013.jpg
3320.227	0.577	correct	repeat	Run4	repeat/STIM_013.jpg
3323.595	0.549	correct	repeat	Run4	repeat/STIM_013.jpg
3326.895	0.569	correct	repeat	Run4	repeat/STIM_013.jpg
3330.865	0.804	correct	repeat	Run4	repeat/STIM_013.jpg
3333.7	0.536	correct	repeat	Run4	repeat/STIM_014.jpg
3337.047	0.473	correct	repeat	Run4	repeat/STIM_014.jpg
3339.837	0.631	correct	repeat	Run4	repeat/STIM_014.jpg
3343.81	0.629	correct	repeat	Run4	repeat/STIM_014.jpg
3346.631	0.717	correct	repeat	Run4	repeat/STIM_014.jpg
