onset	duration	accuracy_binary	trial_type	learning_stage	stimulus
0.0	2.483	1	generate	Run1	generate/STIM_000.jpg
4.964	2.895	1	generate	Run1	generate/STIM_000.jpg
10.763	1.36	1	generate	Run1	generate/STIM_000.jpg
14.817	2.483	0	generate	Run1	generate/STIM_000.jpg
20.862	1.695	1	generate	Run1	generate/STIM_000.jpg
24.478	2.223	1	generate	Run1	generate/STIM_001.jpg
28.59	1.165	1	generate	Run1	generate/STIM_001.jpg
33.609	2.718	0	generate	Run1	generate/STIM_001.jpg
40.132	2.285	1	generate	Run1	generate/STIM_001.jpg
45.293	1.618	1	generate	Run1	generate/STIM_001.jpg
50.014	2.816	0	generate	Run1	generate/STIM_002.jpg
54.877	2.403	1	generate	Run1	generate/STIM_002.jpg
60.838	2.204	1	generate	Run1	generate/STIM_002.jpg
66.482	2.18	1	generate	Run1	generate/STIM_002.jpg
70.97	1.311	1	generate	Run1	generate/STIM_002.jpg
75.141	1.384	1	generate	Run1	generate/STIM_003.jpg
78.968	2.317	0	generate	Run1	generate/STIM_003.jpg
83.663	2.411	1	generate	Run1	generate/STIM_003.jpg
89.258	1.996	1	generate	Run1	generate/STIM_003.jpg
94.479	1.252	1	generate	Run1	generate/STIM_003.jpg
99.086	2.021	1	generate	Run1	generate/STIM_004.jpg
104.169	2.238	1	generate	Run1	generate/STIM_004.jpg
108.409	1.877	1	generate	Run1	generate/STIM_004.jpg
114.072	2.15	1	generate	Run1	generate/STIM_004.jpg
119.777	1.628	1	generate	Run1	generate/STIM_004.jpg
124.416	1.495	0	generate	Run1	generate/STIM_005.jpg
128.9	1.483	0	generate	Run1	generate/STIM_005.jpg
133.622	1.857	1	generate	Run1	generate/STIM_005.jpg
138.026	2.21	0	generate	Run1	generate/STIM_005.jpg
142.947	1.566	1	generate	Run1	generate/STIM_005.jpg
147.342	1.438	0	generate	Run1	generate/STIM_006.jpg
151.584	2.318	1	generate	Run1	generate/STIM_006.jpg
156.463	2.698	0	generate	Run1	generate/STIM_006.jpg
161.659	2.082	0	generate	Run1	generate/STIM_006.jpg
166.207	1.151	1	generate	Run1	generate/STIM_006.jpg
171.217	1.453	1	generate	Run1	generate/STIM_007.jpg
176.304	1.152	1	generate	Run1	generate/STIM_007.jpg
180.022	1.438	1	generate	Run1	generate/STIM_007.jpg
185.34	1.505	1	generate	Run1	generate/STIM_007.jpg
189.063	1.589	1	generate	Run1	generate/STIM_007.jpg
194.558	1.826	1	generate	Run1	generate/STIM_008.jpg
199.748	2.49	1	generate	Run1	generate/STIM_008.jpg
204.756	1.626	1	generate	Run1	generate/STIM_008.jpg
209.285	2.058	1	generate	Run1	generate/STIM_008.jpg
214.117	1.053	1	generate	Run1	generate/STIM_008.jpg
218.399	1.569	1	generate	Run1	generate/STIM_009.jpg
222.095	2.268	1	generate	Run1	generate/STIM_009.jpg
227.14	2.789	1	generate	Run1	generate/STIM_009.jpg
232.484	1.624	1	generate	Run1	generate/STIM_009.jpg
236.784	1.114	0	generate	Run1	generate/STIM_009.jpg
239.922	1.353	1	generate	Run1	generate/STIM_010.jpg
244.681	2.925	1	generate	Run1	generate/STIM_010.jpg
251.358	1.242	1	generate	Run1	generate/STIM_010.jpg
255.098	1.334	1	generate	Run1	generate/STIM_010.jpg
259.196	1.91	1	generate	Run1	generate/STIM_010.jpg
264.347	2.789	0	generate	Run1	generate/STIM_011.jpg
270.388	2.588	1	generate	Run1	generate/STIM_011.jpg
275.652	2.012	1	generate	Run1	generate/STIM_011.jpg
279.813	2.231	0	generate	Run1	generate/STIM_011.jpg
284.237	1.445	1	generate	Run1	generate/STIM_011.jpg
288.845	2.38	1	generate	Run1	generate/STIM_012.jpg
294.605	2.742	1	generate	Run1	generate/STIM_012.jpg
299.664	2.6	1	generate	Run1	generate/STIM_012.jpg
305.923	2.415	1	generate	Run1	generate/STIM_012.jpg
311.275	0.995	1	generate	Run1	generate/STIM_012.jpg
315.104	1.602	1	generate	Run1	generate/STIM_013.jpg
320.068	2.847	1	generate	Run1	generate/STIM_013.jpg
326.308	1.312	1	generate	Run1	generate/STIM_013.jpg
330.511	1.783	1	generate	Run1	generate/STIM_013.jpg
334.209	1.178	1	generate	Run1	generate/STIM_013.jpg
338.192	2.514	1	generate	Run1	generate/STIM_014.jpg
343.479	1.641	1	generate	Run1	generate/STIM_014.jpg
348.799	2.09	0	generate	Run1	generate/STIM_014.jpg
354.369	1.535	1	generate	Run1	generate/STIM_014.jpg
357.961	1.585	1	generate	Run1	generate/STIM_014.jpg
363.451	1.57	1	generate	Run1	generate/STIM_015.jpg
368.742	1.46	1	generate	Run1	generate/STIM_015.jpg
373.145	1.35	1	generate	Run1	generate/STIM_015.jpg
377.869	1.544	1	generate	Run1	generate/STIM_015.jpg
381.754	1.695	1	generate	Run1	generate/STIM_015.jpg
386.748	2.26	1	generate	Run1	generate/STIM_016.jpg
392.764	2.438	0	generate	Run1	generate/STIM_016.jpg
399.082	1.978	1	generate	Run1	generate/STIM_016.jpg
403.414	1.49	1	generate	Run1	generate/STIM_016.jpg
407.004	1.583	1	generate	Run1	generate/STIM_016.jpg
410.93	2.364	1	generate	Run1	generate/STIM_017.jpg
416.848	2.195	1	generate	Run1	generate/STIM_017.jpg
421.084	2.245	1	generate	Run1	generate/STIM_017.jpg
425.333	2.124	1	generate	Run1	generate/STIM_017.jpg
429.768	2.11	1	generate	Run1	generate/STIM_017.jpg
434.076	1.912	1	generate	Run1	generate/STIM_018.jpg
439.699	2.584	1	generate	Run1	generate/STIM_018.jpg
444.735	2.053	1	generate	Run1	generate/STIM_018.jpg
450.226	1.886	1	generate	Run1	generate/STIM_018.jpg
455.288	1.616	1	generate	Run1	generate/STIM_018.jpg
459.099	1.743	1	generate	Run1	generate/STIM_019.jpg
463.761	1.444	1	generate	Run1	generate/STIM_019.jpg
467.883	1.447	1	generate	Run1	generate/STIM_019.jpg
471.626	1.453	1	generate	Run1	generate/STIM_019.jpg
475.919	1.892	1	generate	Run1	generate/STIM_019.jpg
481.362	2.974	1	generate	Run1	generate/STIM_020.jpg
487.604	1.294	0	generate	Run1	generate/STIM_020.jpg
491.281	2.71	1	generate	Run1	generate/STIM_020.jpg
496.046	1.439	1	generate	Run1	generate/STIM_020.jpg
500.571	1.184	1	generate	Run1	generate/STIM_020.jpg
505.33	1.381	0	generate	Run1	generate/STIM_021.jpg
510.597	2.972	1	generate	Run1	generate/STIM_021.jpg
515.399	2.766	1	generate	Run1	generate/STIM_021.jpg
521.062	2.707	1	generate	Run1	generate/STIM_021.jpg
526.609	2.128	1	generate	Run1	generate/STIM_021.jpg
531.457	2.348	1	generate	Run1	generate/STIM_022.jpg
537.612	1.255	0	generate	Run1	generate/STIM_022.jpg
541.174	2.567	1	generate	Run1	generate/STIM_022.jpg
545.599	2.632	1	generate	Run1	generate/STIM_022.jpg
551.635	1.015	0	generate	Run1	generate/STIM_022.jpg
555.933	2.629	1	generate	Run1	generate/STIM_023.jpg
562.428	2.288	1	generate	Run1	generate/STIM_023.jpg
567.157	1.812	1	generate	Run1	generate/STIM_023.jpg
571.649	2.463	0	generate	Run1	generate/STIM_023.jpg
577.694	1.918	1	generate	Run1	generate/STIM_023.jpg
583.214	1.661	1	generate	Run1	generate/STIM_024.jpg
588.376	1.769	1	generate	Run1	generate/STIM_024.jpg
593.047	1.413	0	generate	Run1	generate/STIM_024.jpg
596.941	1.292	1	generate	Run1	generate/STIM_024.jpg
601.77	1.121	1	generate	Run1	generate/STIM_024.jpg
606.722	0.886	1	repeat	Run1	repeat/STIM_000.jpg
610.502	0.802	1	repeat	Run1	repeat/STIM_000.jpg
614.74	0.621	1	repeat	Run1	repeat/STIM_000.jpg
619.085	0.86	1	repeat	Run1	repeat/STIM_000.jpg
623.348	0.688	1	repeat	Run1	repeat/STIM_000.jpg
627.052	0.587	1	repeat	Run1	repeat/STIM_001.jpg
631.655	0.681	1	repeat	Run1	repeat/STIM_001.jpg
635.896	0.712	1	repeat	Run1	repeat/STIM_001.jpg
639.699	0.638	1	repeat	Run1	repeat/STIM_001.jpg
644.217	0.519	1	repeat	Run1	repeat/STIM_001.jpg
648.515	0.518	1	repeat	Run1	repeat/STIM_002.jpg
653.0	0.574	1	repeat	Run1	repeat/STIM_002.jpg
656.958	0.524	1	repeat	Run1	repeat/STIM_002.jpg
661.384	0.76	1	repeat	Run1	repeat/STIM_002.jpg
664.53	0.675	1	repeat	Run1	repeat/STIM_002.jpg
667.374	1.035	1	repeat	Run1	repeat/STIM_003.jpg
670.589	0.616	1	repeat	Run1	repeat/STIM_003.jpg
674.577	0.839	1	repeat	Run1	repeat/STIM_003.jpg
678.426	0.894	1	repeat	Run1	repeat/STIM_003.jpg
683.241	0.975	1	repeat	Run1	repeat/STIM_003.jpg
686.717	0.558	1	repeat	Run1	repeat/STIM_004.jpg
689.929	0.655	1	repeat	Run1	repeat/STIM_004.jpg
693.888	0.791	1	repeat	Run1	repeat/STIM_004.jpg
698.452	0.715	1	repeat	Run1	repeat/STIM_004.jpg
702.132	0.66	1	repeat	Run1	repeat/STIM_004.jpg
705.375	0.626	1	repeat	Run1	repeat/STIM_005.jpg
708.93	0.862	1	repeat	Run1	repeat/STIM_005.jpg
713.66	1.032	1	repeat	Run1	repeat/STIM_005.jpg
717.593	0.591	1	repeat	Run1	repeat/STIM_005.jpg
720.819	0.984	1	repeat	Run1	repeat/STIM_005.jpg
724.416	0.873	1	repeat	Run1	repeat/STIM_006.jpg
727.885	1.007	1	repeat	Run1	repeat/STIM_006.jpg
731.983	0.874	1	repeat	Run1	repeat/STIM_006.jpg
735.885	0.867	1	repeat	Run1	repeat/STIM_006.jpg
740.621	0.91	1	repeat	Run1	repeat/STIM_006.jpg
744.505	1.023	1	repeat	Run1	repeat/STIM_007.jpg
748.806	0.7	1	repeat	Run1	repeat/STIM_007.jpg
751.954	0.952	1	repeat	Run1	repeat/STIM_007.jpg
755.617	1.134	1	repeat	Run1	repeat/STIM_007.jpg
759.836	0.995	1	repeat	Run1	repeat/STIM_007.jpg
762.906	1.012	1	repeat	Run1	repeat/STIM_008.jpg
765.96	1.08	1	repeat	Run1	repeat/STIM_008.jpg
769.791	0.847	1	repeat	Run1	repeat/STIM_008.jpg
772.797	0.884	1	repeat	Run1	repeat/STIM_008.jpg
776.92	0.837	1	repeat	Run1	repeat/STIM_008.jpg
781.329	0.644	1	repeat	Run1	repeat/STIM_009.jpg
785.285	0.77	1	repeat	Run1	repeat/STIM_009.jpg
788.836	0.63	1	repeat	Run1	repeat/STIM_009.jpg
793.138	0.923	1	repeat	Run1	repeat/STIM_009.jpg
797.577	0.941	1	repeat	Run1	repeat/STIM_009.jpg
802.348	1.064	1	repeat	Run1	repeat/STIM_010.jpg
805.922	0.979	1	repeat	Run1	repeat/STIM_010.jpg
810.591	1.027	1	repeat	Run1	repeat/STIM_010.jpg
815.294	0.531	0	repeat	Run1	repeat/STIM_010.jpg
818.676	0.93	1	repeat	Run1	repeat/STIM_010.jpg
821.568	0.841	1	repeat	Run1	repeat/STIM_011.jpg
826.161	0.711	1	repeat	Run1	repeat/STIM_011.jpg
829.722	0.756	1	repeat	Run1	repeat/STIM_011.jpg
834.112	0.808	1	repeat	Run1	repeat/STIM_011.jpg
837.386	0.909	1	repeat	Run1	repeat/STIM_011.jpg
841.45	1.077	1	repeat	Run1	repeat/STIM_012.jpg
845.238	0.861	1	repeat	Run1	repeat/STIM_012.jpg
848.714	0.758	1	repeat	Run1	repeat/STIM_012.jpg
852.391	0.76	1	repeat	Run1	repeat/STIM_012.jpg
855.959	0.505	1	repeat	Run1	repeat/STIM_012.jpg
858.649	0.656	1	repeat	Run1	repeat/STIM_013.jpg
862.426	0.587	1	repeat	Run1	repeat/STIM_013.jpg
865.221	0.842	1	repeat	Run1	repeat/STIM_013.jpg
869.503	0.575	1	repeat	Run1	repeat/STIM_013.jpg
873.327	0.769	1	repeat	Run1	repeat/STIM_013.jpg
876.049	0.658	0	repeat	Run1	repeat/STIM_014.jpg
879.278	0.983	1	repeat	Run1	repeat/STIM_014.jpg
882.375	0.605	1	repeat	Run1	repeat/STIM_014.jpg
886.124	0.796	1	repeat	Run1	repeat/STIM_014.jpg
889.21	0.97	1	repeat	Run1	repeat/STIM_014.jpg
892.848	1.621	1	generate	Run2	generate/STIM_000.jpg
897.915	2.386	1	generate	Run2	generate/STIM_000.jpg
904.01	1.712	1	generate	Run2	generate/STIM_000.jpg
909.195	1.559	0	generate	Run2	generate/STIM_000.jpg
913.274	1.914	1	generate	Run2	generate/STIM_000.jpg
917.438	2.283	1	generate	Run2	generate/STIM_001.jpg
921.83	2.43	1	generate	Run2	generate/STIM_001.jpg
926.32	0.993	1	generate	Run2	generate/STIM_001.jpg
929.696	2.03	1	generate	Run2	generate/STIM_001.jpg
934.613	1.169	1	generate	Run2	generate/STIM_001.jpg
937.69	2.419	0	generate	Run2	generate/STIM_002.jpg
942.449	2.2	1	generate	Run2	generate/STIM_002.jpg
947.959	1.444	1	generate	Run2	generate/STIM_002.jpg
952.551	1.13	1	generate	Run2	generate/STIM_002.jpg
955.772	1.133	1	generate	Run2	generate/STIM_002.jpg
960.122	1.375	0	generate	Run2	generate/STIM_003.jpg
965.179	2.172	1	generate	Run2	generate/STIM_003.jpg
969.743	1.831	1	generate	Run2	generate/STIM_003.jpg
975.212	2.088	1	generate	Run2	generate/STIM_003.jpg
979.404	1.374	1	generate	Run2	generate/STIM_003.jpg
983.766	2.056	0	generate	Run2	generate/STIM_004.jpg
989.349	1.388	0	generate	Run2	generate/STIM_004.jpg
993.246	1.477	0	generate	Run2	generate/STIM_004.jpg
997.637	1.205	0	generate	Run2	generate/STIM_004.jpg
1002.811	2.099	1	generate	Run2	generate/STIM_004.jpg
1007.322	2.186	1	generate	Run2	generate/STIM_005.jpg
1013.0	2.153	1	generate	Run2	generate/STIM_005.jpg
1017.617	1.244	1	generate	Run2	generate/STIM_005.jpg
1021.811	1.314	1	generate	Run2	generate/STIM_005.jpg
1026.735	1.061	1	generate	Run2	generate/STIM_005.jpg
1030.026	2.184	1	generate	Run2	generate/STIM_006.jpg
1034.18	1.698	1	generate	Run2	generate/STIM_006.jpg
1038.455	1.09	1	generate	Run2	generate/STIM_006.jpg
1043.156	1.516	1	generate	Run2	generate/STIM_006.jpg
1046.665	1.506	0	generate	Run2	generate/STIM_006.jpg
1050.149	2.046	0	generate	Run2	generate/STIM_007.jpg
1055.572	1.637	1	generate	Run2	generate/STIM_007.jpg
1060.606	1.892	1	generate	Run2	generate/STIM_007.jpg
1066.051	1.503	1	generate	Run2	generate/STIM_007.jpg
1069.821	1.487	1	generate	Run2	generate/STIM_007.jpg
1074.688	1.759	0	generate	Run2	generate/STIM_008.jpg
1079.834	0.928	1	generate	Run2	generate/STIM_008.jpg
1083.408	1.072	0	generate	Run2	generate/STIM_008.jpg
1087.937	1.955	0	generate	Run2	generate/STIM_008.jpg
1093.177	2.013	1	generate	Run2	generate/STIM_008.jpg
1097.919	1.784	1	generate	Run2	generate/STIM_009.jpg
1102.204	1.253	1	generate	Run2	generate/STIM_009.jpg
1106.628	1.024	1	generate	Run2	generate/STIM_009.jpg
1111.214	1.314	1	generate	Run2	generate/STIM_009.jpg
1115.502	1.822	1	generate	Run2	generate/STIM_009.jpg
1119.358	1.47	1	generate	Run2	generate/STIM_010.jpg
1122.873	1.554	1	generate	Run2	generate/STIM_010.jpg
1127.051	2.066	1	generate	Run2	generate/STIM_010.jpg
1132.55	1.506	0	generate	Run2	generate/STIM_010.jpg
1137.254	1.583	1	generate	Run2	generate/STIM_010.jpg
1141.504	2.467	1	generate	Run2	generate/STIM_011.jpg
1146.992	2.304	1	generate	Run2	generate/STIM_011.jpg
1152.878	2.11	1	generate	Run2	generate/STIM_011.jpg
1157.839	0.954	1	generate	Run2	generate/STIM_011.jpg
1161.937	1.103	1	generate	Run2	generate/STIM_011.jpg
1166.242	1.822	1	generate	Run2	generate/STIM_012.jpg
1171.015	1.538	1	generate	Run2	generate/STIM_012.jpg
1175.523	1.799	0	generate	Run2	generate/STIM_012.jpg
1180.088	1.834	1	generate	Run2	generate/STIM_012.jpg
1183.985	2.178	1	generate	Run2	generate/STIM_012.jpg
1189.994	1.515	1	generate	Run2	generate/STIM_013.jpg
1194.296	1.154	1	generate	Run2	generate/STIM_013.jpg
1198.658	1.339	1	generate	Run2	generate/STIM_013.jpg
1203.059	1.669	1	generate	Run2	generate/STIM_013.jpg
1206.562	1.47	1	generate	Run2	generate/STIM_013.jpg
1211.03	1.509	1	generate	Run2	generate/STIM_014.jpg
1215.755	1.554	1	generate	Run2	generate/STIM_014.jpg
1220.155	1.278	1	generate	Run2	generate/STIM_014.jpg
1224.32	2.174	1	generate	Run2	generate/STIM_014.jpg
1228.425	1.863	1	generate	Run2	generate/STIM_014.jpg
1233.878	0.995	1	generate	Run2	generate/STIM_015.jpg
1238.232	1.137	1	generate	Run2	generate/STIM_015.jpg
1241.427	1.106	1	generate	Run2	generate/STIM_015.jpg
1244.605	1.229	1	generate	Run2	generate/STIM_015.jpg
1249.847	1.039	1	generate	Run2	generate/STIM_015.jpg
1253.146	1.459	1	generate	Run2	generate/STIM_016.jpg
1258.51	1.93	1	generate	Run2	generate/STIM_016.jpg
1263.963	1.271	1	generate	Run2	generate/STIM_016.jpg
1268.605	1.264	1	generate	Run2	generate/STIM_016.jpg
1273.128	1.462	0	generate	Run2	generate/STIM_016.jpg
1276.991	2.426	1	generate	Run2	generate/STIM_017.jpg
1283.043	2.018	1	generate	Run2	generate/STIM_017.jpg
1287.856	1.406	1	generate	Run2	generate/STIM_017.jpg
1293.067	1.583	1	generate	Run2	generate/STIM_017.jpg
1297.19	1.389	1	generate	Run2	generate/STIM_017.jpg
1301.248	2.296	1	generate	Run2	generate/STIM_018.jpg
1306.342	2.465	1	generate	Run2	generate/STIM_018.jpg
1311.141	2.27	1	generate	Run2	generate/STIM_018.jpg
1315.962	1.556	1	generate	Run2	generate/STIM_018.jpg
1320.339	1.037	1	generate	Run2	generate/STIM_018.jpg
1324.198	2.097	0	generate	Run2	generate/STIM_019.jpg
1328.854	1.927	1	generate	Run2	generate/STIM_019.jpg
1332.938	1.329	1	generate	Run2	generate/STIM_019.jpg
1336.526	1.373	0	generate	Run2	generate/STIM_019.jpg
1341.571	1.362	1	generate	Run2	generate/STIM_019.jpg
1344.975	2.613	1	generate	Run2	generate/STIM_020.jpg
1349.845	1.656	1	generate	Run2	generate/STIM_020.jpg
1354.103	1.138	1	generate	Run2	generate/STIM_020.jpg
1357.743	1.106	1	generate	Run2	generate/STIM_020.jpg
1361.626	1.805	1	generate	Run2	generate/STIM_020.jpg
1365.889	1.994	1	generate	Run2	generate/STIM_021.jpg
1370.879	2.138	1	generate	Run2	generate/STIM_021.jpg
1375.509	1.154	1	generate	Run2	generate/STIM_021.jpg
1379.195	1.536	0	generate	Run2	generate/STIM_021.jpg
1384.483	2.098	1	generate	Run2	generate/STIM_021.jpg
1390.443	2.137	1	generate	Run2	generate/STIM_022.jpg
1394.554	2.133	1	generate	Run2	generate/STIM_022.jpg
1400.308	1.576	1	generate	Run2	generate/STIM_022.jpg
1405.054	1.008	1	generate	Run2	generate/STIM_022.jpg
1408.716	0.935	1	generate	Run2	generate/STIM_022.jpg
1413.276	1.884	1	generate	Run2	generate/STIM_023.jpg
1418.174	1.16	1	generate	Run2	generate/STIM_023.jpg
1421.327	2.189	0	generate	Run2	generate/STIM_023.jpg
1425.49	1.81	1	generate	Run2	generate/STIM_023.jpg
1431.075	1.035	1	generate	Run2	generate/STIM_023.jpg
1434.854	1.775	0	generate	Run2	generate/STIM_024.jpg
1439.372	1.688	1	generate	Run2	generate/STIM_024.jpg
1444.249	1.358	1	generate	Run2	generate/STIM_024.jpg
1448.414	2.17	1	generate	Run2	generate/STIM_024.jpg
1453.928	1.393	1	generate	Run2	generate/STIM_024.jpg
1459.075	0.911	1	repeat	Run2	repeat/STIM_000.jpg
1462.125	0.594	1	repeat	Run2	repeat/STIM_000.jpg
1465.373	0.504	1	repeat	Run2	repeat/STIM_000.jpg
1468.883	1.035	1	repeat	Run2	repeat/STIM_000.jpg
1473.675	1.086	1	repeat	Run2	repeat/STIM_000.jpg
1478.559	0.883	1	repeat	Run2	repeat/STIM_001.jpg
1482.786	0.846	1	repeat	Run2	repeat/STIM_001.jpg
1486.218	0.65	1	repeat	Run2	repeat/STIM_001.jpg
1490.679	0.719	1	repeat	Run2	repeat/STIM_001.jpg
1494.907	0.83	1	repeat	Run2	repeat/STIM_001.jpg
1498.991	0.68	1	repeat	Run2	repeat/STIM_002.jpg
1503.533	1.067	1	repeat	Run2	repeat/STIM_002.jpg
1508.313	1.018	1	repeat	Run2	repeat/STIM_002.jpg
1513.061	0.641	1	repeat	Run2	repeat/STIM_002.jpg
1517.256	0.992	1	repeat	Run2	repeat/STIM_002.jpg
1521.329	0.615	1	repeat	Run2	repeat/STIM_003.jpg
1525.837	0.658	1	repeat	Run2	repeat/STIM_003.jpg
1528.474	0.844	1	repeat	Run2	repeat/STIM_003.jpg
1531.657	0.873	1	repeat	Run2	repeat/STIM_003.jpg
1536.377	0.946	1	repeat	Run2	repeat/STIM_003.jpg
1540.919	0.605	1	repeat	Run2	repeat/STIM_004.jpg
1545.262	0.511	1	repeat	Run2	repeat/STIM_004.jpg
1548.469	0.476	1	repeat	Run2	repeat/STIM_004.jpg
1551.124	0.584	1	repeat	Run2	repeat/STIM_004.jpg
1554.255	1.072	1	repeat	Run2	repeat/STIM_004.jpg
1558.69	0.98	1	repeat	Run2	repeat/STIM_005.jpg
1562.836	0.589	1	repeat	Run2	repeat/STIM_005.jpg
1565.68	1.069	1	repeat	Run2	repeat/STIM_005.jpg
1569.252	0.699	1	repeat	Run2	repeat/STIM_005.jpg
1571.918	0.526	1	repeat	Run2	repeat/STIM_005.jpg
1574.71	1.009	1	repeat	Run2	repeat/STIM_006.jpg
1578.043	0.513	1	repeat	Run2	repeat/STIM_006.jpg
1581.263	1.059	1	repeat	Run2	repeat/STIM_006.jpg
1584.93	0.937	1	repeat	Run2	repeat/STIM_006.jpg
1589.013	0.584	1	repeat	Run2	repeat/STIM_006.jpg
1592.474	0.561	1	repeat	Run2	repeat/STIM_007.jpg
1595.861	0.663	1	repeat	Run2	repeat/STIM_007.jpg
1598.844	1.032	1	repeat	Run2	repeat/STIM_007.jpg
1603.011	0.827	1	repeat	Run2	repeat/STIM_007.jpg
1607.079	0.618	1	repeat	Run2	repeat/STIM_007.jpg
1611.582	0.461	1	repeat	Run2	repeat/STIM_008.jpg
1615.224	0.73	1	repeat	Run2	repeat/STIM_008.jpg
1618.041	1.006	0	repeat	Run2	repeat/STIM_008.jpg
1622.043	0.794	1	repeat	Run2	repeat/STIM_008.jpg
1625.295	0.959	1	repeat	Run2	repeat/STIM_008.jpg
1628.707	0.67	1	repeat	Run2	repeat/STIM_009.jpg
1632.944	0.629	1	repeat	Run2	repeat/STIM_009.jpg
1636.849	0.705	1	repeat	Run2	repeat/STIM_009.jpg
1641.189	0.782	0	repeat	Run2	repeat/STIM_009.jpg
1644.701	0.959	1	repeat	Run2	repeat/STIM_009.jpg
1648.958	0.76	1	repeat	Run2	repeat/STIM_010.jpg
1653.386	0.808	1	repeat	Run2	repeat/STIM_010.jpg
1657.716	0.586	1	repeat	Run2	repeat/STIM_010.jpg
1661.891	0.562	1	repeat	Run2	repeat/STIM_010.jpg
1666.089	0.899	1	repeat	Run2	repeat/STIM_010.jpg
1669.624	1.006	1	repeat	Run2	repeat/STIM_011.jpg
1673.022	0.629	1	repeat	Run2	repeat/STIM_011.jpg
1676.473	0.772	1	repeat	Run2	repeat/STIM_011.jpg
1680.164	0.691	1	repeat	Run2	repeat/STIM_011.jpg
1684.452	0.585	1	repeat	Run2	repeat/STIM_011.jpg
1687.52	0.606	1	repeat	Run2	repeat/STIM_012.jpg
1690.694	0.64	1	repeat	Run2	repeat/STIM_012.jpg
1694.448	0.706	1	repeat	Run2	repeat/STIM_012.jpg
1697.154	0.644	1	repeat	Run2	repeat/STIM_012.jpg
1699.971	0.647	1	repeat	Run2	repeat/STIM_012.jpg
1702.663	0.847	1	repeat	Run2	repeat/STIM_013.jpg
1707.26	0.572	0	repeat	Run2	repeat/STIM_013.jpg
1710.443	0.803	1	repeat	Run2	repeat/STIM_013.jpg
1714.919	0.467	1	repeat	Run2	repeat/STIM_013.jpg
1719.195	0.822	1	repeat	Run2	repeat/STIM_013.jpg
1722.98	0.983	1	repeat	Run2	repeat/STIM_014.jpg
1727.447	0.713	1	repeat	Run2	repeat/STIM_014.jpg
1730.757	0.798	1	repeat	Run2	repeat/STIM_014.jpg
1735.468	0.525	1	repeat	Run2	repeat/STIM_014.jpg
1739.654	0.684	1	repeat	Run2	repeat/STIM_014.jpg
1742.569	1.109	1	generate	Run3	generate/STIM_000.jpg
1747.639	1.457	1	generate	Run3	generate/STIM_000.jpg
1752.952	1.596	1	generate	Run3	generate/STIM_000.jpg
1757.694	0.961	1	generate	Run3	generate/STIM_000.jpg
1761.037	1.788	1	generate	Run3	generate/STIM_000.jpg
1765.164	1.009	1	generate	Run3	generate/STIM_001.jpg
1768.302	1.892	1	generate	Run3	generate/STIM_001.jpg
1772.916	2.177	1	generate	Run3	generate/STIM_001.jpg
1777.218	1.693	1	generate	Run3	generate/STIM_001.jpg
1781.47	1.319	1	generate	Run3	generate/STIM_001.jpg
1784.97	2.081	1	generate	Run3	generate/STIM_002.jpg
1788.997	2.148	1	generate	Run3	generate/STIM_002.jpg
1793.704	1.918	1	generate	Run3	generate/STIM_002.jpg
1798.539	1.538	1	generate	Run3	generate/STIM_002.jpg
1803.543	1.662	1	generate	Run3	generate/STIM_002.jpg
1808.45	1.388	1	generate	Run3	generate/STIM_003.jpg
1813.256	1.693	1	generate	Run3	generate/STIM_003.jpg
1817.702	1.331	1	generate	Run3	generate/STIM_003.jpg
1821.484	1.058	1	generate	Run3	generate/STIM_003.jpg
1826.388	1.475	1	generate	Run3	generate/STIM_003.jpg
1831.221	1.388	1	generate	Run3	generate/STIM_004.jpg
1835.086	0.978	1	generate	Run3	generate/STIM_004.jpg
1839.358	1.995	1	generate	Run3	generate/STIM_004.jpg
1843.622	2.099	1	generate	Run3	generate/STIM_004.jpg
1847.579	1.773	1	generate	Run3	generate/STIM_004.jpg
1852.428	1.625	1	generate	Run3	generate/STIM_005.jpg
1857.329	2.202	1	generate	Run3	generate/STIM_005.jpg
1861.372	1.259	0	generate	Run3	generate/STIM_005.jpg
1865.183	1.265	1	generate	Run3	generate/STIM_005.jpg
1869.682	1.9	1	generate	Run3	generate/STIM_005.jpg
1875.425	0.919	1	generate	Run3	generate/STIM_006.jpg
1878.855	0.963	1	generate	Run3	generate/STIM_006.jpg
1882.708	1.102	1	generate	Run3	generate/STIM_006.jpg
1887.679	1.041	1	generate	Run3	generate/STIM_006.jpg
1892.509	1.897	1	generate	Run3	generate/STIM_006.jpg
1897.494	1.02	1	generate	Run3	generate/STIM_007.jpg
1901.642	1.446	1	generate	Run3	generate/STIM_007.jpg
1906.068	2.124	1	generate	Run3	generate/STIM_007.jpg
1911.946	1.676	1	generate	Run3	generate/STIM_007.jpg
1916.844	1.586	1	generate	Run3	generate/STIM_007.jpg
1920.765	0.944	1	generate	Run3	generate/STIM_008.jpg
1923.782	1.642	0	generate	Run3	generate/STIM_008.jpg
1928.61	1.668	1	generate	Run3	generate/STIM_008.jpg
1933.516	1.918	1	generate	Run3	generate/STIM_008.jpg
1937.345	1.239	1	generate	Run3	generate/STIM_008.jpg
1941.146	0.9	1	generate	Run3	generate/STIM_009.jpg
1944.861	1.355	1	generate	Run3	generate/STIM_009.jpg
1948.917	1.257	1	generate	Run3	generate/STIM_009.jpg
1952.974	1.772	1	generate	Run3	generate/STIM_009.jpg
1958.154	1.508	1	generate	Run3	generate/STIM_009.jpg
1961.688	1.928	1	generate	Run3	generate/STIM_010.jpg
1967.34	2.095	1	generate	Run3	generate/STIM_010.jpg
1973.094	1.23	1	generate	Run3	generate/STIM_010.jpg
1978.014	1.687	1	generate	Run3	generate/STIM_010.jpg
1983.113	0.972	1	generate	Run3	generate/STIM_010.jpg
1986.399	1.473	1	generate	Run3	generate/STIM_011.jpg
1990.792	1.556	1	generate	Run3	generate/STIM_011.jpg
1994.726	2.006	1	generate	Run3	generate/STIM_011.jpg
1999.026	1.239	1	generate	Run3	generate/STIM_011.jpg
2003.983	1.215	1	generate	Run3	generate/STIM_011.jpg
2007.589	1.526	1	generate	Run3	generate/STIM_012.jpg
2011.928	2.014	1	generate	Run3	generate/STIM_012.jpg
2016.056	2.164	1	generate	Run3	generate/STIM_012.jpg
2020.638	1.632	1	generate	Run3	generate/STIM_012.jpg
2025.309	2.071	1	generate	Run3	generate/STIM_012.jpg
2029.345	1.255	1	generate	Run3	generate/STIM_013.jpg
2033.728	1.462	1	generate	Run3	generate/STIM_013.jpg
2038.189	1.474	1	generate	Run3	generate/STIM_013.jpg
2042.106	2.239	1	generate	Run3	generate/STIM_013.jpg
2047.723	1.022	1	generate	Run3	generate/STIM_013.jpg
2051.502	1.47	1	generate	Run3	generate/STIM_014.jpg
2055.169	2.182	1	generate	Run3	generate/STIM_014.jpg
2059.253	2.007	1	generate	Run3	generate/STIM_014.jpg
2063.398	1.617	1	generate	Run3	generate/STIM_014.jpg
2068.869	1.699	1	generate	Run3	generate/STIM_014.jpg
2074.221	0.854	1	generate	Run3	generate/STIM_015.jpg
2077.407	1.632	1	generate	Run3	generate/STIM_015.jpg
2081.787	2.077	1	generate	Run3	generate/STIM_015.jpg
2086.925	2.021	1	generate	Run3	generate/STIM_015.jpg
2090.842	1.908	1	generate	Run3	generate/STIM_015.jpg
2095.677	1.912	1	generate	Run3	generate/STIM_016.jpg
2101.434	1.088	1	generate	Run3	generate/STIM_016.jpg
2105.372	1.274	1	generate	Run3	generate/STIM_016.jpg
2109.196	2.059	1	generate	Run3	generate/STIM_016.jpg
2114.835	1.905	1	generate	Run3	generate/STIM_016.jpg
2119.436	1.914	1	generate	Run3	generate/STIM_017.jpg
2124.338	1.677	1	generate	Run3	generate/STIM_017.jpg
2128.047	1.17	1	generate	Run3	generate/STIM_017.jpg
2131.468	0.92	1	generate	Run3	generate/STIM_017.jpg
2135.314	2.197	1	generate	Run3	generate/STIM_017.jpg
2141.011	1.421	1	generate	Run3	generate/STIM_018.jpg
2145.594	2.059	1	generate	Run3	generate/STIM_018.jpg
2151.357	1.299	1	generate	Run3	generate/STIM_018.jpg
2154.813	1.706	1	generate	Run3	generate/STIM_018.jpg
2158.503	1.934	1	generate	Run3	generate/STIM_018.jpg
2163.359	0.999	1	generate	Run3	generate/STIM_019.jpg
2166.941	1.052	1	generate	Run3	generate/STIM_019.jpg
2171.04	1.154	1	generate	Run3	generate/STIM_019.jpg
2175.661	2.02	1	generate	Run3	generate/STIM_019.jpg
2180.67	1.742	1	generate	Run3	generate/STIM_019.jpg
2186.187	2.004	1	generate	Run3	generate/STIM_020.jpg
2190.933	1.022	1	generate	Run3	generate/STIM_020.jpg
2194.667	1.911	1	generate	Run3	generate/STIM_020.jpg
2198.973	2.035	0	generate	Run3	generate/STIM_020.jpg
2204.72	0.927	1	generate	Run3	generate/STIM_020.jpg
2209.596	2.165	1	generate	Run3	generate/STIM_021.jpg
2214.712	2.197	1	generate	Run3	generate/STIM_021.jpg
2219.223	1.68	1	generate	Run3	generate/STIM_021.jpg
2224.753	2.003	1	generate	Run3	generate/STIM_021.jpg
2229.703	1.899	1	generate	Run3	generate/STIM_021.jpg
2233.948	1.804	1	generate	Run3	generate/STIM_022.jpg
2238.885	1.303	1	generate	Run3	generate/STIM_022.jpg
2242.133	1.919	1	generate	Run3	generate/STIM_022.jpg
2246.01	1.91	1	generate	Run3	generate/STIM_022.jpg
2250.564	1.098	1	generate	Run3	generate/STIM_022.jpg
2254.132	1.977	1	generate	Run3	generate/STIM_023.jpg
2258.692	2.089	1	generate	Run3	generate/STIM_023.jpg
2263.819	1.227	1	generate	Run3	generate/STIM_023.jpg
2267.959	1.968	1	generate	Run3	generate/STIM_023.jpg
2273.46	1.072	1	generate	Run3	generate/STIM_023.jpg
2277.618	1.864	1	generate	Run3	generate/STIM_024.jpg
2283.013	2.145	0	generate	Run3	generate/STIM_024.jpg
2287.665	1.01	1	generate	Run3	generate/STIM_024.jpg
2291.833	1.369	1	generate	Run3	generate/STIM_024.jpg
2296.435	1.321	1	generate	Run3	generate/STIM_024.jpg
2299.89	0.831	1	repeat	Run3	repeat/STIM_000.jpg
2302.883	0.579	1	repeat	Run3	repeat/STIM_000.jpg
2305.696	0.606	1	repeat	Run3	repeat/STIM_000.jpg
2309.136	0.639	0	repeat	Run3	repeat/STIM_000.jpg
2313.258	1.016	1	repeat	Run3	repeat/STIM_000.jpg
2316.508	0.754	1	repeat	Run3	repeat/STIM_001.jpg
2320.288	0.85	1	repeat	Run3	repeat/STIM_001.jpg
2324.525	0.678	1	repeat	Run3	repeat/STIM_001.jpg
2327.476	0.768	1	repeat	Run3	repeat/STIM_001.jpg
2330.675	0.961	1	repeat	Run3	repeat/STIM_001.jpg
2334.459	0.711	1	repeat	Run3	repeat/STIM_002.jpg
2338.624	0.763	1	repeat	Run3	repeat/STIM_002.jpg
2343.073	0.731	1	repeat	Run3	repeat/STIM_002.jpg
2346.162	0.668	0	repeat	Run3	repeat/STIM_002.jpg
2350.71	0.597	1	repeat	Run3	repeat/STIM_002.jpg
2354.819	0.923	1	repeat	Run3	repeat/STIM_003.jpg
2359.259	0.863	1	repeat	Run3	repeat/STIM_003.jpg
2362.565	0.81	1	repeat	Run3	repeat/STIM_003.jpg
2366.283	0.56	1	repeat	Run3	repeat/STIM_003.jpg
2370.764	0.96	1	repeat	Run3	repeat/STIM_003.jpg
2373.949	0.515	1	repeat	Run3	repeat/STIM_004.jpg
2378.363	0.947	1	repeat	Run3	repeat/STIM_004.jpg
2381.878	1.018	1	repeat	Run3	repeat/STIM_004.jpg
2386.57	0.69	1	repeat	Run3	repeat/STIM_004.jpg
2390.387	0.772	1	repeat	Run3	repeat/STIM_004.jpg
2394.949	1.116	1	repeat	Run3	repeat/STIM_005.jpg
2398.412	1.047	1	repeat	Run3	repeat/STIM_005.jpg
2401.428	0.73	1	repeat	Run3	repeat/STIM_005.jpg
2404.517	1.078	1	repeat	Run3	repeat/STIM_005.jpg
2407.71	0.565	1	repeat	Run3	repeat/STIM_005.jpg
2412.205	0.651	1	repeat	Run3	repeat/STIM_006.jpg
2415.775	0.576	1	repeat	Run3	repeat/STIM_006.jpg
2418.779	0.586	1	repeat	Run3	repeat/STIM_006.jpg
2421.467	1.016	1	repeat	Run3	repeat/STIM_006.jpg
2426.323	0.708	1	repeat	Run3	repeat/STIM_006.jpg
2430.147	0.948	1	repeat	Run3	repeat/STIM_007.jpg
2434.291	0.534	1	repeat	Run3	repeat/STIM_007.jpg
2437.033	0.937	1	repeat	Run3	repeat/STIM_007.jpg
2441.786	0.543	1	repeat	Run3	repeat/STIM_007.jpg
2445.396	0.616	1	repeat	Run3	repeat/STIM_007.jpg
2448.698	0.668	1	repeat	Run3	repeat/STIM_008.jpg
2451.914	0.981	0	repeat	Run3	repeat/STIM_008.jpg
2456.469	0.826	1	repeat	Run3	repeat/STIM_008.jpg
2460.959	0.576	1	repeat	Run3	repeat/STIM_008.jpg
2464.643	0.402	1	repeat	Run3	repeat/STIM_008.jpg
2467.325	1.076	1	repeat	Run3	repeat/STIM_009.jpg
2471.689	0.938	1	repeat	Run3	repeat/STIM_009.jpg
2475.412	0.833	1	repeat	Run3	repeat/STIM_009.jpg
2479.364	0.973	1	repeat	Run3	repeat/STIM_009.jpg
2483.172	0.631	1	repeat	Run3	repeat/STIM_009.jpg
2486.047	0.616	1	repeat	Run3	repeat/STIM_010.jpg
2488.962	0.61	1	repeat	Run3	repeat/STIM_010.jpg
2491.91	0.591	1	repeat	Run3	repeat/STIM_010.jpg
2496.022	0.94	1	repeat	Run3	repeat/STIM_010.jpg
2500.198	0.799	1	repeat	Run3	repeat/STIM_010.jpg
2504.665	1.077	1	repeat	Run3	repeat/STIM_011.jpg
2507.725	0.838	1	repeat	Run3	repeat/STIM_011.jpg
2511.517	0.494	1	repeat	Run3	repeat/STIM_011.jpg
2514.369	0.976	1	repeat	Run3	repeat/STIM_011.jpg
2518.042	0.617	1	repeat	Run3	repeat/STIM_011.jpg
2521.734	1.013	1	repeat	Run3	repeat/STIM_012.jpg
2525.243	0.876	1	repeat	Run3	repeat/STIM_012.jpg
2529.078	0.695	1	repeat	Run3	repeat/STIM_012.jpg
2531.997	0.553	1	repeat	Run3	repeat/STIM_012.jpg
2535.269	0.649	0	repeat	Run3	repeat/STIM_012.jpg
2538.873	0.546	1	repeat	Run3	repeat/STIM_013.jpg
2542.265	0.647	1	repeat	Run3	repeat/STIM_013.jpg
2546.917	0.622	1	repeat	Run3	repeat/STIM_013.jpg
2550.904	0.862	1	repeat	Run3	repeat/STIM_013.jpg
2554.961	1.006	1	repeat	Run3	repeat/STIM_013.jpg
2559.19	0.554	1	repeat	Run3	repeat/STIM_014.jpg
2562.882	0.846	1	repeat	Run3	repeat/STIM_014.jpg
2566.968	1.057	0	repeat	Run3	repeat/STIM_014.jpg
2571.689	0.663	1	repeat	Run3	repeat/STIM_014.jpg
2575.309	0.499	1	repeat	Run3	repeat/STIM_014.jpg
2578.51	1.515	1	generate	Run4	generate/STIM_000.jpg
2582.963	2.144	0	generate	Run4	generate/STIM_000.jpg
2588.804	1.371	1	generate	Run4	generate/STIM_000.jpg
2592.476	1.622	1	generate	Run4	generate/STIM_000.jpg
2597.964	1.499	1	generate	Run4	generate/STIM_000.jpg
2603.061	1.222	1	generate	Run4	generate/STIM_001.jpg
2606.814	2.146	1	generate	Run4	generate/STIM_001.jpg
2612.666	1.583	1	generate	Run4	generate/STIM_001.jpg
2617.687	1.098	1	generate	Run4	generate/STIM_001.jpg
2622.618	1.067	1	generate	Run4	generate/STIM_001.jpg
2626.28	1.287	1	generate	Run4	generate/STIM_002.jpg
2630.427	1.188	1	generate	Run4	generate/STIM_002.jpg
2634.131	1.431	1	generate	Run4	generate/STIM_002.jpg
2638.974	1.646	1	generate	Run4	generate/STIM_002.jpg
2643.424	1.621	1	generate	Run4	generate/STIM_002.jpg
2647.748	1.488	1	generate	Run4	generate/STIM_003.jpg
2651.442	0.948	1	generate	Run4	generate/STIM_003.jpg
2654.599	1.232	1	generate	Run4	generate/STIM_003.jpg
2659.362	2.231	1	generate	Run4	generate/STIM_003.jpg
2665.202	1.818	1	generate	Run4	generate/STIM_003.jpg
2669.64	1.511	1	generate	Run4	generate/STIM_004.jpg
2673.088	2.163	1	generate	Run4	generate/STIM_004.jpg
2678.596	1.084	1	generate	Run4	generate/STIM_004.jpg
2682.15	1.234	1	generate	Run4	generate/STIM_004.jpg
2685.945	1.196	1	generate	Run4	generate/STIM_004.jpg
2690.439	1.02	1	generate	Run4	generate/STIM_005.jpg
2695.2	0.908	1	generate	Run4	generate/STIM_005.jpg
2698.92	1.354	1	generate	Run4	generate/STIM_005.jpg
2702.558	0.998	1	generate	Run4	generate/STIM_005.jpg
2706.447	1.041	1	generate	Run4	generate/STIM_005.jpg
2709.351	1.775	1	generate	Run4	generate/STIM_006.jpg
2713.979	0.985	0	generate	Run4	generate/STIM_006.jpg
2717.475	1.225	1	generate	Run4	generate/STIM_006.jpg
2721.634	1.148	1	generate	Run4	generate/STIM_006.jpg
2726.381	2.114	1	generate	Run4	generate/STIM_006.jpg
2731.815	1.982	1	generate	Run4	generate/STIM_007.jpg
2736.652	1.744	1	generate	Run4	generate/STIM_007.jpg
2742.09	1.777	0	generate	Run4	generate/STIM_007.jpg
2746.186	1.936	1	generate	Run4	generate/STIM_007.jpg
2751.018	2.047	1	generate	Run4	generate/STIM_007.jpg
2756.666	1.809	1	generate	Run4	generate/STIM_008.jpg
2760.565	1.731	1	generate	Run4	generate/STIM_008.jpg
2764.928	2.075	1	generate	Run4	generate/STIM_008.jpg
2769.876	1.975	0	generate	Run4	generate/STIM_008.jpg
2775.394	1.119	1	generate	Run4	generate/STIM_008.jpg
2779.809	0.96	1	generate	Run4	generate/STIM_009.jpg
2783.171	1.636	1	generate	Run4	generate/STIM_009.jpg
2788.058	1.766	1	generate	Run4	generate/STIM_009.jpg
2793.598	1.927	1	generate	Run4	generate/STIM_009.jpg
2798.498	0.964	1	generate	Run4	generate/STIM_009.jpg
2803.426	1.217	1	generate	Run4	generate/STIM_010.jpg
2808.421	1.914	1	generate	Run4	generate/STIM_010.jpg
2812.831	1.442	1	generate	Run4	generate/STIM_010.jpg
2817.226	0.966	1	generate	Run4	generate/STIM_010.jpg
2820.32	1.15	1	generate	Run4	generate/STIM_010.jpg
2823.862	0.998	1	generate	Run4	generate/STIM_011.jpg
2828.6	1.459	1	generate	Run4	generate/STIM_011.jpg
2834.018	1.458	1	generate	Run4	generate/STIM_011.jpg
2838.93	1.481	1	generate	Run4	generate/STIM_011.jpg
2843.321	2.015	1	generate	Run4	generate/STIM_011.jpg
2847.207	1.39	1	generate	Run4	generate/STIM_012.jpg
2851.831	1.068	1	generate	Run4	generate/STIM_012.jpg
2856.774	1.106	1	generate	Run4	generate/STIM_012.jpg
2860.952	1.536	1	generate	Run4	generate/STIM_012.jpg
2864.821	1.276	1	generate	Run4	generate/STIM_012.jpg
2868.441	1.313	1	generate	Run4	generate/STIM_013.jpg
2871.759	1.475	1	generate	Run4	generate/STIM_013.jpg
2877.153	1.486	1	generate	Run4	generate/STIM_013.jpg
2881.541	1.058	1	generate	Run4	generate/STIM_013.jpg
2885.592	1.94	1	generate	Run4	generate/STIM_013.jpg
2889.649	2.253	1	generate	Run4	generate/STIM_014.jpg
2894.286	1.052	1	generate	Run4	generate/STIM_014.jpg
2899.174	1.034	1	generate	Run4	generate/STIM_014.jpg
2904.051	1.579	1	generate	Run4	generate/STIM_014.jpg
2909.322	1.011	1	generate	Run4	generate/STIM_014.jpg
2912.9	1.726	1	generate	Run4	generate/STIM_015.jpg
2917.31	1.71	1	generate	Run4	generate/STIM_015.jpg
2921.614	1.427	1	generate	Run4	generate/STIM_015.jpg
2925.978	1.998	1	generate	Run4	generate/STIM_015.jpg
2930.456	2.082	1	generate	Run4	generate/STIM_015.jpg
2935.756	1.815	1	generate	Run4	generate/STIM_016.jpg
2939.85	1.975	1	generate	Run4	generate/STIM_016.jpg
2944.553	0.898	1	generate	Run4	generate/STIM_016.jpg
2949.291	1.295	1	generate	Run4	generate/STIM_016.jpg
2953.994	1.946	1	generate	Run4	generate/STIM_016.jpg
2958.335	1.298	1	generate	Run4	generate/STIM_017.jpg
2962.19	1.769	0	generate	Run4	generate/STIM_017.jpg
2966.389	1.509	1	generate	Run4	generate/STIM_017.jpg
2969.94	1.687	1	generate	Run4	generate/STIM_017.jpg
2974.335	1.155	1	generate	Run4	generate/STIM_017.jpg
2978.616	1.246	1	generate	Run4	generate/STIM_018.jpg
2981.867	1.779	1	generate	Run4	generate/STIM_018.jpg
2985.878	2.12	1	generate	Run4	generate/STIM_018.jpg
2990.312	1.754	1	generate	Run4	generate/STIM_018.jpg
2995.698	1.108	1	generate	Run4	generate/STIM_018.jpg
3000.244	0.881	1	generate	Run4	generate/STIM_019.jpg
3003.562	1.094	1	generate	Run4	generate/STIM_019.jpg
3008.219	1.451	1	generate	Run4	generate/STIM_019.jpg
3012.037	2.028	1	generate	Run4	generate/STIM_019.jpg
3017.207	1.601	1	generate	Run4	generate/STIM_019.jpg
3022.561	1.289	1	generate	Run4	generate/STIM_020.jpg
3025.727	1.26	1	generate	Run4	generate/STIM_020.jpg
3029.379	2.183	1	generate	Run4	generate/STIM_020.jpg
3035.187	1.787	1	generate	Run4	generate/STIM_020.jpg
3039.735	1.442	1	generate	Run4	generate/STIM_020.jpg
3043.894	1.111	1	generate	Run4	generate/STIM_021.jpg
3048.725	0.891	1	generate	Run4	generate/STIM_021.jpg
3052.777	0.908	1	generate	Run4	generate/STIM_021.jpg
3056.546	1.986	1	generate	Run4	generate/STIM_021.jpg
3060.87	1.087	1	generate	Run4	generate/STIM_021.jpg
3065.089	1.503	0	generate	Run4	generate/STIM_022.jpg
3069.897	1.632	1	generate	Run4	generate/STIM_022.jpg
3074.029	1.474	1	generate	Run4	generate/STIM_022.jpg
3079.182	1.486	1	generate	Run4	generate/STIM_022.jpg
3083.87	1.532	1	generate	Run4	generate/STIM_022.jpg
3087.899	1.437	1	generate	Run4	generate/STIM_023.jpg
3093.005	1.473	1	generate	Run4	generate/STIM_023.jpg
3098.327	1.788	1	generate	Run4	generate/STIM_023.jpg
3103.148	1.614	1	generate	Run4	generate/STIM_023.jpg
3108.545	1.617	1	generate	Run4	generate/STIM_023.jpg
3112.161	2.151	1	generate	Run4	generate/STIM_024.jpg
3116.334	1.951	1	generate	Run4	generate/STIM_024.jpg
3121.17	1.142	1	generate	Run4	generate/STIM_024.jpg
3124.676	1.95	1	generate	Run4	generate/STIM_024.jpg
3128.625	0.952	1	generate	Run4	generate/STIM_024.jpg
3131.781	0.593	1	repeat	Run4	repeat/STIM_000.jpg
3135.905	0.745	1	repeat	Run4	repeat/STIM_000.jpg
3140.017	0.57	1	repeat	Run4	repeat/STIM_000.jpg
3143.898	0.999	0	repeat	Run4	repeat/STIM_000.jpg
3148.704	0.994	1	repeat	Run4	repeat/STIM_000.jpg
3151.706	0.992	1	repeat	Run4	repeat/STIM_001.jpg
3156.585	0.756	1	repeat	Run4	repeat/STIM_001.jpg
3160.905	1.025	1	repeat	Run4	repeat/STIM_001.jpg
3165.144	0.808	1	repeat	Run4	repeat/STIM_001.jpg
3169.574	0.891	1	repeat	Run4	repeat/STIM_001.jpg
3174.044	0.859	1	repeat	Run4	repeat/STIM_002.jpg
3177.041	0.679	1	repeat	Run4	repeat/STIM_002.jpg
3180.263	0.908	1	repeat	Run4	repeat/STIM_002.jpg
3183.59	0.585	1	repeat	Run4	repeat/STIM_002.jpg
3186.798	0.914	1	repeat	Run4	repeat/STIM_002.jpg
3191.231	0.83	1	repeat	Run4	repeat/STIM_003.jpg
3195.839	0.824	1	repeat	Run4	repeat/STIM_003.jpg
3200.466	0.95	0	repeat	Run4	repeat/STIM_003.jpg
3204.397	0.669	1	repeat	Run4	repeat/STIM_003.jpg
3208.36	0.636	1	repeat	Run4	repeat/STIM_003.jpg
3211.147	1.102	1	repeat	Run4	repeat/STIM_004.jpg
3215.95	0.592	1	repeat	Run4	repeat/STIM_004.jpg
3218.653	0.597	1	repeat	Run4	repeat/STIM_004.jpg
3221.313	0.603	1	repeat	Run4	repeat/STIM_004.jpg
3224.181	0.586	1	repeat	Run4	repeat/STIM_004.jpg
3227.043	0.687	1	repeat	Run4	repeat/STIM_005.jpg
3231.272	1.002	1	repeat	Run4	repeat/STIM_005.jpg
3234.331	0.987	0	repeat	Run4	repeat/STIM_005.jpg
3238.284	0.657	1	repeat	Run4	repeat/STIM_005.jpg
3241.908	0.748	1	repeat	Run4	repeat/STIM_005.jpg
3245.933	1.054	1	repeat	Run4	repeat/STIM_006.jpg
3248.95	1.063	1	repeat	Run4	repeat/STIM_006.jpg
3252.264	0.722	1	repeat	Run4	repeat/STIM_006.jpg
3256.29	0.882	1	repeat	Run4	repeat/STIM_006.jpg
3259.165	0.763	1	repeat	Run4	repeat/STIM_006.jpg
3263.193	0.718	1	repeat	Run4	repeat/STIM_007.jpg
3266.215	0.694	1	repeat	Run4	repeat/STIM_007.jpg
3270.223	1.043	1	repeat	Run4	repeat/STIM_007.jpg
3273.794	0.853	0	repeat	Run4	repeat/STIM_007.jpg
3277.504	0.973	1	repeat	Run4	repeat/STIM_007.jpg
3281.798	0.966	1	repeat	Run4	repeat/STIM_008.jpg
3285.224	0.736	1	repeat	Run4	repeat/STIM_008.jpg
3289.499	1.055	1	repeat	Run4	repeat/STIM_008.jpg
3293.814	0.875	1	repeat	Run4	repeat/STIM_008.jpg
3297.429	0.701	0	repeat	Run4	repeat/STIM_008.jpg
3301.968	0.637	1	repeat	Run4	repeat/STIM_009.jpg
3305.093	0.931	1	repeat	Run4	repeat/STIM_009.jpg
3308.021	0.834	0	repeat	Run4	repeat/STIM_009.jpg
3312.024	0.815	1	repeat	Run4	repeat/STIM_009.jpg
3315.607	0.527	1	repeat	Run4	repeat/STIM_009.jpg
3318.513	1.142	1	repeat	Run4	repeat/STIM_010.jpg
3322.243	0.753	1	repeat	Run4	repeat/STIM_010.jpg
3326.61	0.66	1	repeat	Run4	repeat/STIM_010.jpg
3330.822	0.949	1	repeat	Run4	repeat/STIM_010.jpg
3335.58	0.841	0	repeat	Run4	repeat/STIM_010.jpg
3338.705	0.91	1	repeat	Run4	repeat/STIM_011.jpg
3342.263	0.916	0	repeat	Run4	repeat/STIM_011.jpg
3346.871	0.535	1	repeat	Run4	repeat/STIM_011.jpg
3350.963	0.81	1	repeat	Run4	repeat/STIM_011.jpg
3354.786	0.535	1	repeat	Run4	repeat/STIM_011.jpg
3358.683	0.925	1	repeat	Run4	repeat/STIM_012.jpg
3363.227	0.787	1	repeat	Run4	repeat/STIM_012.jpg
3367.257	0.8	1	repeat	Run4	repeat/STIM_012.jpg
3371.247	0.925	1	repeat	Run4	repeat/STIM_012.jpg
3374.168	0.739	1	repeat	Run4	repeat/STIM_012.jpg
3377.88	0.904	1	repeat	Run4	repeat/STIM_013.jpg
3381.213	0.801	0	repeat	Run4	repeat/STIM_013.jpg
3385.754	0.743	1	repeat	Run4	repeat/STIM_013.jpg
3389.058	1.099	1	repeat	Run4	repeat/STIM_013.jpg
3392.636	0.698	1	repeat	Run4	repeat/STIM_013.jpg
3395.999	0.969	1	repeat	Run4	repeat/STIM_014.jpg
3400.404	1.043	1	repeat	Run4	repeat/STIM_014.jpg
3404.825	0.682	1	repeat	Run4	repeat/STIM_014.jpg
3409.313	0.85	1	repeat	Run4	repeat/STIM_014.jpg
3412.22	0.852	1	repeat	Run4	repeat/STIM_014.jpg
