onset	duration	response_time_ms	trial_type	learning_stage	stimulus	response_port
0.0	2.292	2291.8	generate	Run1	generate/STIM_000.jpg	100
4.464	2.387	2387.3	generate	Run1	generate/STIM_000.jpg	99
10.443	1.346	1346.0	generate	Run1	generate/STIM_000.jpg	99
14.548	1.581	1581.1	generate	Run1	generate/STIM_000.jpg	99
18.332	1.95	1950.3	generate	Run1	generate/STIM_000.jpg	99
23.8	1.932	1931.7	generate	Run1	generate/STIM_001.jpg	100
27.79	1.243	1242.7	generate	Run1	generate/STIM_001.jpg	99
31.404	1.835	1835.4	generate	Run1	generate/STIM_001.jpg	99
37.2	1.568	1567.7	generate	Run1	generate/STIM_001.jpg	100
41.478	1.757	1757.2	generate	Run1	generate/STIM_001.jpg	100
47.023	1.485	1485.3	generate	Run1	generate/STIM_002.jpg	99
51.79	1.076	1075.8	generate	Run1	generate/STIM_002.jpg	99
56.67	1.013	1012.9	generate	Run1	generate/STIM_002.jpg	100
60.698	1.432	1432.1	generate	Run1	generate/STIM_002.jpg	99
65.138	2.079	2079.0	generate	Run1	generate/STIM_002.jpg	99
69.956	2.606	2605.6	generate	Run1	generate/STIM_003.jpg	99
76.432	1.859	1859.4	generate	Run1	generate/STIM_003.jpg	100
81.893	2.191	2191.1	generate	Run1	generate/STIM_003.jpg	100
86.579	1.49	1490.1	generate	Run1	generate/STIM_003.jpg	100
90.298	0.995	994.9	generate	Run1	generate/STIM_003.jpg	100
94.456	1.614	1613.6	generate	Run1	generate/STIM_004.jpg	100
98.768	1.117	1116.6	generate	Run1	generate/STIM_004.jpg	100
102.634	1.945	1944.7	generate	Run1	generate/STIM_004.jpg	100
107.206	2.38	2379.5	generate	Run1	generate/STIM_004.jpg	100
111.98	1.287	1287.1	generate	Run1	generate/STIM_004.jpg	99
115.906	2.724	2724.5	generate	Run1	generate/STIM_005.jpg	100
121.209	1.856	1855.9	generate	Run1	generate/STIM_005.jpg	99
126.6	1.34	1339.9	generate	Run1	generate/STIM_005.jpg	100
131.578	1.837	1837.0	generate	Run1	generate/STIM_005.jpg	99
136.977	1.958	1958.3	generate	Run1	generate/STIM_005.jpg	100
142.309	1.245	1244.8	generate	Run1	generate/STIM_006.jpg	100
145.555	2.314	2314.3	generate	Run1	generate/STIM_006.jpg	99
151.746	2.449	2448.6	generate	Run1	generate/STIM_006.jpg	100
156.805	1.931	1930.8	generate	Run1	generate/STIM_006.jpg	99
162.013	2.022	2022.0	generate	Run1	generate/STIM_006.jpg	99
166.456	2.693	2692.8	generate	Run1	generate/STIM_007.jpg	100
173.131	2.356	2356.1	generate	Run1	generate/STIM_007.jpg	99
177.805	2.478	2478.5	generate	Run1	generate/STIM_007.jpg	100
182.696	1.569	1569.4	generate	Run1	generate/STIM_007.jpg	99
187.89	1.56	1560.5	generate	Run1	generate/STIM_007.jpg	99
192.161	1.659	1658.7	generate	Run1	generate/STIM_008.jpg	100
196.702	2.197	2197.4	generate	Run1	generate/STIM_008.jpg	100
202.481	1.483	1482.9	generate	Run1	generate/STIM_008.jpg	100
207.244	1.233	1232.7	generate	Run1	generate/STIM_008.jpg	100
210.876	0.958	957.9	generate	Run1	generate/STIM_008.jpg	99
214.387	2.202	2201.5	generate	Run1	generate/STIM_009.jpg	100
218.716	1.692	1691.5	generate	Run1	generate/STIM_009.jpg	99
224.213	1.926	1926.2	generate	Run1	generate/STIM_009.jpg	99
229.049	2.216	2215.9	generate	Run1	generate/STIM_009.jpg	99
234.472	1.501	1500.9	generate	Run1	generate/STIM_009.jpg	100
239.613	2.741	2741.2	generate	Run1	generate/STIM_010.jpg	100
244.945	2.353	2352.8	generate	Run1	generate/STIM_010.jpg	99
250.995	1.826	1826.4	generate	Run1	generate/STIM_010.jpg	100
256.414	2.142	2142.3	generate	Run1	generate/STIM_010.jpg	99
260.623	1.781	1781.0	generate	Run1	generate/STIM_010.jpg	99
264.763	1.434	1434.0	generate	Run1	generate/STIM_011.jpg	99
268.305	2.578	2577.9	generate	Run1	generate/STIM_011.jpg	99
273.552	1.923	1923.1	generate	Run1	generate/STIM_011.jpg	100
278.472	1.994	1994.4	generate	Run1	generate/STIM_011.jpg	99
283.126	2.103	2102.8	generate	Run1	generate/STIM_011.jpg	100
288.479	1.99	1990.2	generate	Run1	generate/STIM_012.jpg	99
294.044	1.626	1626.1	generate	Run1	generate/STIM_012.jpg	100
298.133	1.746	1745.9	generate	Run1	generate/STIM_012.jpg	99
303.346	1.176	1175.8	generate	Run1	generate/STIM_012.jpg	99
307.03	2.054	2054.1	generate	Run1	generate/STIM_012.jpg	100
312.553	2.017	2016.5	generate	Run1	generate/STIM_013.jpg	100
318.239	1.892	1892.4	generate	Run1	generate/STIM_013.jpg	99
323.04	2.436	2436.2	generate	Run1	generate/STIM_013.jpg	99
328.112	1.243	1242.8	generate	Run1	generate/STIM_013.jpg	99
332.813	1.119	1119.2	generate	Run1	generate/STIM_013.jpg	99
336.104	2.716	2716.0	generate	Run1	generate/STIM_014.jpg	100
341.66	2.388	2388.5	generate	Run1	generate/STIM_014.jpg	99
347.371	1.793	1793.0	generate	Run1	generate/STIM_014.jpg	99
351.745	2.157	2156.8	generate	Run1	generate/STIM_014.jpg	100
356.507	1.897	1897.0	generate	Run1	generate/STIM_014.jpg	99
361.923	1.951	1950.9	generate	Run1	generate/STIM_015.jpg	99
367.082	1.993	1993.4	generate	Run1	generate/STIM_015.jpg	99
372.504	1.351	1350.8	generate	Run1	generate/STIM_015.jpg	99
377.531	1.578	1577.6	generate	Run1	generate/STIM_015.jpg	100
381.237	1.457	1457.1	generate	Run1	generate/STIM_015.jpg	100
386.683	1.373	1373.4	generate	Run1	generate/STIM_016.jpg	100
390.875	1.656	1655.7	generate	Run1	generate/STIM_016.jpg	99
396.113	1.88	1880.4	generate	Run1	generate/STIM_016.jpg	100
401.493	1.082	1081.6	generate	Run1	generate/STIM_016.jpg	99
406.304	1.082	1082.3	generate	Run1	generate/STIM_016.jpg	100
411.237	1.257	1257.4	generate	Run1	generate/STIM_017.jpg	100
415.207	2.123	2122.9	generate	Run1	generate/STIM_017.jpg	100
421.307	1.429	1429.1	generate	Run1	generate/STIM_017.jpg	100
426.426	1.786	1785.7	generate	Run1	generate/STIM_017.jpg	99
431.261	1.388	1387.7	generate	Run1	generate/STIM_017.jpg	100
435.056	1.434	1434.5	generate	Run1	generate/STIM_018.jpg	100
438.759	1.858	1858.3	generate	Run1	generate/STIM_018.jpg	100
444.205	1.405	1405.2	generate	Run1	generate/STIM_018.jpg	100
449.052	2.041	2041.2	generate	Run1	generate/STIM_018.jpg	99
454.229	1.215	1214.7	generate	Run1	generate/STIM_018.jpg	99
458.668	2.062	2062.1	generate	Run1	generate/STIM_019.jpg	99
462.897	1.7	1700.3	generate	Run1	generate/STIM_019.jpg	99
466.815	1.886	1885.9	generate	Run1	generate/STIM_019.jpg	100
471.013	1.863	1863.2	generate	Run1	generate/STIM_019.jpg	100
476.373	1.498	1497.8	generate	Run1	generate/STIM_019.jpg	99
480.294	1.705	1704.8	generate	Run1	generate/STIM_020.jpg	100
484.104	2.433	2432.7	generate	Run1	generate/STIM_020.jpg	100
490.331	1.341	1340.7	generate	Run1	generate/STIM_020.jpg	99
495.169	1.788	1788.0	generate	Run1	generate/STIM_020.jpg	99
499.59	1.305	1305.0	generate	Run1	generate/STIM_020.jpg	100
502.97	1.708	1708.5	generate	Run1	generate/STIM_021.jpg	100
507.758	1.518	1518.2	generate	Run1	generate/STIM_021.jpg	99
512.483	1.867	1867.1	generate	Run1	generate/STIM_021.jpg	99
517.998	2.17	2170.4	generate	Run1	generate/STIM_021.jpg	100
523.637	1.566	1565.5	generate	Run1	generate/STIM_021.jpg	100
528.187	2.052	2051.9	generate	Run1	generate/STIM_022.jpg	99
532.607	2.006	2006.0	generate	Run1	generate/STIM_022.jpg	99
537.934	1.185	1185.3	generate	Run1	generate/STIM_022.jpg	99
541.272	1.234	1234.2	generate	Run1	generate/STIM_022.jpg	99
545.471	1.794	1794.2	generate	Run1	generate/STIM_022.jpg	99
550.726	2.404	2404.5	generate	Run1	generate/STIM_023.jpg	100
556.159	1.373	1372.7	generate	Run1	generate/STIM_023.jpg	99
560.626	2.478	2477.6	generate	Run1	generate/STIM_023.jpg	99
566.643	2.159	2159.2	generate	Run1	generate/STIM_023.jpg	100
570.966	1.888	1888.3	generate	Run1	generate/STIM_023.jpg	100
576.591	2.314	2313.7	generate	Run1	generate/STIM_024.jpg	100
581.451	2.386	2386.5	generate	Run1	generate/STIM_024.jpg	99
585.909	1.114	1114.3	generate	Run1	generate/STIM_024.jpg	99
589.101	1.686	1686.2	generate	Run1	generate/STIM_024.jpg	99
594.0	1.617	1617.4	generate	Run1	generate/STIM_024.jpg	99
598.603	0.772	772.0	repeat	Run1	repeat/STIM_000.jpg	99
602.123	0.506	506.0	repeat	Run1	repeat/STIM_000.jpg	100
605.412	0.62	619.8	repeat	Run1	repeat/STIM_000.jpg	99
609.26	0.608	607.7	repeat	Run1	repeat/STIM_000.jpg	100
612.364	0.596	596.3	repeat	Run1	repeat/STIM_000.jpg	100
616.131	0.586	586.3	repeat	Run1	repeat/STIM_001.jpg	100
620.252	0.892	891.6	repeat	Run1	repeat/STIM_001.jpg	100
624.628	0.705	705.2	repeat	Run1	repeat/STIM_001.jpg	99
627.427	0.638	637.7	repeat	Run1	repeat/STIM_001.jpg	99
631.924	0.635	635.0	repeat	Run1	repeat/STIM_001.jpg	99
634.688	0.93	930.4	repeat	Run1	repeat/STIM_002.jpg	100
637.823	0.613	613.0	repeat	Run1	repeat/STIM_002.jpg	99
641.616	0.914	914.0	repeat	Run1	repeat/STIM_002.jpg	99
645.614	0.782	781.7	repeat	Run1	repeat/STIM_002.jpg	99
649.102	0.741	741.4	repeat	Run1	repeat/STIM_002.jpg	99
652.533	0.808	807.9	repeat	Run1	repeat/STIM_003.jpg	100
656.439	0.63	630.1	repeat	Run1	repeat/STIM_003.jpg	99
659.898	0.633	632.8	repeat	Run1	repeat/STIM_003.jpg	99
662.905	0.808	808.0	repeat	Run1	repeat/STIM_003.jpg	99
666.042	0.792	791.9	repeat	Run1	repeat/STIM_003.jpg	99
670.649	0.708	707.5	repeat	Run1	repeat/STIM_004.jpg	100
674.844	0.859	858.8	repeat	Run1	repeat/STIM_004.jpg	99
677.713	0.908	908.1	repeat	Run1	repeat/STIM_004.jpg	100
681.567	0.876	876.2	repeat	Run1	repeat/STIM_004.jpg	99
684.961	0.673	672.8	repeat	Run1	repeat/STIM_004.jpg	100
688.838	0.486	485.5	repeat	Run1	repeat/STIM_005.jpg	99
692.063	0.813	812.6	repeat	Run1	repeat/STIM_005.jpg	100
695.218	0.57	570.2	repeat	Run1	repeat/STIM_005.jpg	100
698.091	0.527	526.8	repeat	Run1	repeat/STIM_005.jpg	100
701.873	0.582	581.6	repeat	Run1	repeat/STIM_005.jpg	99
706.286	0.718	718.3	repeat	Run1	repeat/STIM_006.jpg	99
709.104	0.496	496.3	repeat	Run1	repeat/STIM_006.jpg	99
711.723	0.49	489.7	repeat	Run1	repeat/STIM_006.jpg	99
715.846	0.563	563.3	repeat	Run1	repeat/STIM_006.jpg	99
719.357	0.684	683.8	repeat	Run1	repeat/STIM_006.jpg	99
724.029	0.877	877.3	repeat	Run1	repeat/STIM_007.jpg	99
728.203	0.519	518.9	repeat	Run1	repeat/STIM_007.jpg	99
732.268	0.575	575.4	repeat	Run1	repeat/STIM_007.jpg	99
735.708	0.903	902.9	repeat	Run1	repeat/STIM_007.jpg	99
739.622	0.852	851.8	repeat	Run1	repeat/STIM_007.jpg	100
742.837	0.517	516.6	repeat	Run1	repeat/STIM_008.jpg	99
745.487	0.701	700.9	repeat	Run1	repeat/STIM_008.jpg	100
749.072	0.727	727.1	repeat	Run1	repeat/STIM_008.jpg	100
753.022	0.823	823.1	repeat	Run1	repeat/STIM_008.jpg	99
755.96	0.655	654.6	repeat	Run1	repeat/STIM_008.jpg	100
759.295	0.816	815.6	repeat	Run1	repeat/STIM_009.jpg	100
762.937	0.717	717.4	repeat	Run1	repeat/STIM_009.jpg	100
766.047	0.546	545.8	repeat	Run1	repeat/STIM_009.jpg	100
769.323	0.87	870.3	repeat	Run1	repeat/STIM_009.jpg	99
773.866	0.476	475.6	repeat	Run1	repeat/STIM_009.jpg	100
776.531	0.832	832.1	repeat	Run1	repeat/STIM_010.jpg	99
779.494	0.619	618.9	repeat	Run1	repeat/STIM_010.jpg	100
782.618	0.529	528.7	repeat	Run1	repeat/STIM_010.jpg	99
785.977	0.795	794.8	repeat	Run1	repeat/STIM_010.jpg	99
790.145	0.573	572.8	repeat	Run1	repeat/STIM_010.jpg	100
793.488	0.493	493.3	repeat	Run1	repeat/STIM_011.jpg	100
796.545	0.846	845.5	repeat	Run1	repeat/STIM_011.jpg	99
799.552	0.893	893.3	repeat	Run1	repeat/STIM_011.jpg	100
803.414	0.769	768.6	repeat	Run1	repeat/STIM_011.jpg	100
808.05	0.612	611.5	repeat	Run1	repeat/STIM_011.jpg	99
812.14	0.869	868.9	repeat	Run1	repeat/STIM_012.jpg	99
816.078	0.781	781.4	repeat	Run1	repeat/STIM_012.jpg	99
820.31	0.687	687.0	repeat	Run1	repeat/STIM_012.jpg	100
824.027	0.652	652.4	repeat	Run1	repeat/STIM_012.jpg	100
827.35	0.562	562.4	repeat	Run1	repeat/STIM_012.jpg	99
830.874	0.793	792.6	repeat	Run1	repeat/STIM_013.jpg	99
834.433	0.659	658.8	repeat	Run1	repeat/STIM_013.jpg	100
837.979	0.752	752.3	repeat	Run1	repeat/STIM_013.jpg	100
841.109	0.73	730.2	repeat	Run1	repeat/STIM_013.jpg	100
844.904	0.474	473.7	repeat	Run1	repeat/STIM_013.jpg	99
847.521	0.743	743.0	repeat	Run1	repeat/STIM_014.jpg	100
850.716	0.609	608.7	repeat	Run1	repeat/STIM_014.jpg	100
854.006	0.933	933.2	repeat	Run1	repeat/STIM_014.jpg	99
857.757	0.751	750.9	repeat	Run1	repeat/STIM_014.jpg	100
860.724	0.829	828.8	repeat	Run1	repeat/STIM_014.jpg	99
863.728	1.927	1926.6	generate	Run2	generate/STIM_000.jpg	99
868.431	1.15	1150.5	generate	Run2	generate/STIM_000.jpg	100
872.384	0.85	850.1	generate	Run2	generate/STIM_000.jpg	99
875.962	1.788	1788.5	generate	Run2	generate/STIM_000.jpg	99
880.801	1.819	1818.8	generate	Run2	generate/STIM_000.jpg	100
885.1	1.652	1652.1	generate	Run2	generate/STIM_001.jpg	99
888.824	1.945	1945.4	generate	Run2	generate/STIM_001.jpg	99
893.373	1.624	1624.1	generate	Run2	generate/STIM_001.jpg	99
898.897	1.951	1951.0	generate	Run2	generate/STIM_001.jpg	100
904.822	1.045	1045.2	generate	Run2	generate/STIM_001.jpg	100
909.652	1.62	1620.3	generate	Run2	generate/STIM_002.jpg	99
914.283	1.804	1804.1	generate	Run2	generate/STIM_002.jpg	100
919.288	0.847	847.2	generate	Run2	generate/STIM_002.jpg	100
922.868	1.51	1510.0	generate	Run2	generate/STIM_002.jpg	99
928.233	1.25	1250.3	generate	Run2	generate/STIM_002.jpg	99
932.81	1.522	1521.8	generate	Run2	generate/STIM_003.jpg	100
937.954	1.931	1931.1	generate	Run2	generate/STIM_003.jpg	100
943.684	1.495	1495.4	generate	Run2	generate/STIM_003.jpg	100
948.572	1.364	1364.3	generate	Run2	generate/STIM_003.jpg	99
953.177	1.693	1692.7	generate	Run2	generate/STIM_003.jpg	99
957.421	1.966	1965.9	generate	Run2	generate/STIM_004.jpg	100
961.421	1.779	1778.6	generate	Run2	generate/STIM_004.jpg	100
967.021	1.391	1391.4	generate	Run2	generate/STIM_004.jpg	100
970.51	1.016	1016.4	generate	Run2	generate/STIM_004.jpg	99
974.126	0.794	794.2	generate	Run2	generate/STIM_004.jpg	100
978.552	1.29	1290.0	generate	Run2	generate/STIM_005.jpg	100
983.713	0.975	974.9	generate	Run2	generate/STIM_005.jpg	100
987.012	0.988	988.1	generate	Run2	generate/STIM_005.jpg	100
991.815	1.367	1367.3	generate	Run2	generate/STIM_005.jpg	100
995.554	1.952	1951.8	generate	Run2	generate/STIM_005.jpg	100
1001.357	1.513	1512.7	generate	Run2	generate/STIM_006.jpg	99
1006.108	1.635	1634.9	generate	Run2	generate/STIM_006.jpg	100
1011.09	1.956	1956.4	generate	Run2	generate/STIM_006.jpg	99
1016.855	1.714	1713.7	generate	Run2	generate/STIM_006.jpg	99
1021.331	1.636	1636.0	generate	Run2	generate/STIM_006.jpg	100
1026.73	2.197	2196.8	generate	Run2	generate/STIM_007.jpg	100
1032.812	1.449	1448.6	generate	Run2	generate/STIM_007.jpg	99
1037.533	1.346	1345.7	generate	Run2	generate/STIM_007.jpg	99
1042.516	0.977	977.1	generate	Run2	generate/STIM_007.jpg	100
1045.527	0.992	991.9	generate	Run2	generate/STIM_007.jpg	99
1049.299	1.02	1019.9	generate	Run2	generate/STIM_008.jpg	99
1053.259	1.343	1343.2	generate	Run2	generate/STIM_008.jpg	100
1057.221	1.948	1947.8	generate	Run2	generate/STIM_008.jpg	100
1061.539	1.459	1459.1	generate	Run2	generate/STIM_008.jpg	99
1066.281	1.937	1937.2	generate	Run2	generate/STIM_008.jpg	99
1070.24	1.996	1995.5	generate	Run2	generate/STIM_009.jpg	99
1075.076	1.343	1342.7	generate	Run2	generate/STIM_009.jpg	100
1079.506	1.38	1379.5	generate	Run2	generate/STIM_009.jpg	99
1084.654	1.372	1372.5	generate	Run2	generate/STIM_009.jpg	99
1088.319	1.343	1342.8	generate	Run2	generate/STIM_009.jpg	100
1093.579	0.956	956.1	generate	Run2	generate/STIM_010.jpg	99
1096.844	1.13	1129.7	generate	Run2	generate/STIM_010.jpg	99
1100.544	1.105	1104.7	generate	Run2	generate/STIM_010.jpg	100
1104.498	1.406	1405.7	generate	Run2	generate/STIM_010.jpg	99
1108.181	1.296	1296.3	generate	Run2	generate/STIM_010.jpg	99
1111.679	1.077	1076.7	generate	Run2	generate/STIM_011.jpg	100
1114.804	2.142	2142.1	generate	Run2	generate/STIM_011.jpg	99
1119.696	1.686	1686.5	generate	Run2	generate/STIM_011.jpg	100
1124.147	1.198	1198.2	generate	Run2	generate/STIM_011.jpg	99
1128.236	1.426	1426.1	generate	Run2	generate/STIM_011.jpg	100
1132.496	1.152	1152.1	generate	Run2	generate/STIM_012.jpg	100
1136.87	1.217	1217.1	generate	Run2	generate/STIM_012.jpg	100
1140.152	0.858	858.1	generate	Run2	generate/STIM_012.jpg	100
1144.542	0.92	919.6	generate	Run2	generate/STIM_012.jpg	99
1148.498	1.173	1173.0	generate	Run2	generate/STIM_012.jpg	100
1152.544	1.734	1733.6	generate	Run2	generate/STIM_013.jpg	100
1157.398	1.403	1403.3	generate	Run2	generate/STIM_013.jpg	99
1162.595	0.886	885.8	generate	Run2	generate/STIM_013.jpg	100
1166.78	1.847	1847.2	generate	Run2	generate/STIM_013.jpg	99
1172.601	1.379	1378.7	generate	Run2	generate/STIM_013.jpg	100
1177.23	1.011	1011.4	generate	Run2	generate/STIM_014.jpg	99
1181.637	1.648	1648.5	generate	Run2	generate/STIM_014.jpg	100
1185.886	1.85	1850.5	generate	Run2	generate/STIM_014.jpg	100
1191.674	1.082	1081.9	generate	Run2	generate/STIM_014.jpg	100
1195.232	1.007	1007.2	generate	Run2	generate/STIM_014.jpg	99
1198.629	1.957	1956.7	generate	Run2	generate/STIM_015.jpg	99
1202.749	1.123	1123.0	generate	Run2	generate/STIM_015.jpg	99
1207.522	1.524	1524.4	generate	Run2	generate/STIM_015.jpg	99
1211.511	1.756	1755.5	generate	Run2	generate/STIM_015.jpg	99
1215.527	0.819	818.8	generate	Run2	generate/STIM_015.jpg	100
1219.141	1.707	1706.7	generate	Run2	generate/STIM_016.jpg	99
1223.175	2.068	2067.8	generate	Run2	generate/STIM_016.jpg	99
1228.195	1.531	1531.2	generate	Run2	generate/STIM_016.jpg	100
1231.778	1.634	1633.7	generate	Run2	generate/STIM_016.jpg	100
1236.708	0.96	959.9	generate	Run2	generate/STIM_016.jpg	100
1239.699	1.402	1402.0	generate	Run2	generate/STIM_017.jpg	99
1244.58	1.915	1915.3	generate	Run2	generate/STIM_017.jpg	100
1249.785	1.127	1126.9	generate	Run2	generate/STIM_017.jpg	99
1253.529	1.132	1131.9	generate	Run2	generate/STIM_017.jpg	100
1257.724	1.752	1752.5	generate	Run2	generate/STIM_017.jpg	100
1261.967	2.323	2323.4	generate	Run2	generate/STIM_018.jpg	99
1268.159	2.19	2190.4	generate	Run2	generate/STIM_018.jpg	100
1272.721	1.328	1328.3	generate	Run2	generate/STIM_018.jpg	99
1276.871	1.111	1111.4	generate	Run2	generate/STIM_018.jpg	100
1281.894	1.131	1131.4	generate	Run2	generate/STIM_018.jpg	100
1285.433	1.145	1144.8	generate	Run2	generate/STIM_019.jpg	100
1288.763	1.188	1188.1	generate	Run2	generate/STIM_019.jpg	100
1292.475	1.678	1678.5	generate	Run2	generate/STIM_019.jpg	99
1296.897	1.867	1867.2	generate	Run2	generate/STIM_019.jpg	99
1301.556	1.769	1768.7	generate	Run2	generate/STIM_019.jpg	99
1305.98	1.437	1437.0	generate	Run2	generate/STIM_020.jpg	100
1310.745	1.804	1803.9	generate	Run2	generate/STIM_020.jpg	100
1316.356	1.672	1672.5	generate	Run2	generate/STIM_020.jpg	100
1320.54	1.562	1562.1	generate	Run2	generate/STIM_020.jpg	100
1324.486	1.048	1048.3	generate	Run2	generate/STIM_020.jpg	100
1328.113	1.926	1926.0	generate	Run2	generate/STIM_021.jpg	100
1332.507	2.236	2236.2	generate	Run2	generate/STIM_021.jpg	99
1338.536	2.002	2001.9	generate	Run2	generate/STIM_021.jpg	100
1343.408	1.658	1657.5	generate	Run2	generate/STIM_021.jpg	100
1347.282	1.166	1166.0	generate	Run2	generate/STIM_021.jpg	100
1351.488	1.965	1964.6	generate	Run2	generate/STIM_022.jpg	99
1355.897	1.65	1649.8	generate	Run2	generate/STIM_022.jpg	100
1359.712	1.962	1962.3	generate	Run2	generate/STIM_022.jpg	100
1365.143	1.506	1506.5	generate	Run2	generate/STIM_022.jpg	99
1369.573	0.877	877.1	generate	Run2	generate/STIM_022.jpg	99
1373.971	1.582	1582.0	generate	Run2	generate/STIM_023.jpg	100
1377.908	1.516	1516.5	generate	Run2	generate/STIM_023.jpg	99
1382.838	1.837	1836.6	generate	Run2	generate/STIM_023.jpg	100
1387.477	0.831	830.7	generate	Run2	generate/STIM_023.jpg	100
1392.124	1.312	1312.5	generate	Run2	generate/STIM_023.jpg	99
1396.939	1.211	1210.9	generate	Run2	generate/STIM_024.jpg	99
1400.743	1.298	1297.5	generate	Run2	generate/STIM_024.jpg	100
1404.408	0.975	975.0	generate	Run2	generate/STIM_024.jpg	100
1407.488	0.957	957.1	generate	Run2	generate/STIM_024.jpg	100
1412.118	1.405	1404.7	generate	Run2	generate/STIM_024.jpg	100
1415.61	0.81	810.2	repeat	Run2	repeat/STIM_000.jpg	100
1418.649	0.516	515.7	repeat	Run2	repeat/STIM_000.jpg	99
1421.336	0.753	752.7	repeat	Run2	repeat/STIM_000.jpg	100
1425.274	0.833	833.2	repeat	Run2	repeat/STIM_000.jpg	99
1428.136	0.61	610.2	repeat	Run2	repeat/STIM_000.jpg	99
1430.854	0.485	485.0	repeat	Run2	repeat/STIM_001.jpg	99
1434.528	0.715	715.0	repeat	Run2	repeat/STIM_001.jpg	99
1439.173	0.728	728.3	repeat	Run2	repeat/STIM_001.jpg	100
1443.599	0.48	479.5	repeat	Run2	repeat/STIM_001.jpg	99
1446.504	0.664	663.8	repeat	Run2	repeat/STIM_001.jpg	99
1450.175	0.738	738.1	repeat	Run2	repeat/STIM_002.jpg	99
1453.958	0.49	489.8	repeat	Run2	repeat/STIM_002.jpg	100
1457.888	0.745	744.6	repeat	Run2	repeat/STIM_002.jpg	99
1461.145	0.523	522.8	repeat	Run2	repeat/STIM_002.jpg	99
1465.251	0.609	609.1	repeat	Run2	repeat/STIM_002.jpg	100
1469.399	0.595	595.2	repeat	Run2	repeat/STIM_003.jpg	99
1472.413	0.479	478.7	repeat	Run2	repeat/STIM_003.jpg	100
1475.579	0.768	767.9	repeat	Run2	repeat/STIM_003.jpg	100
1479.436	0.526	526.1	repeat	Run2	repeat/STIM_003.jpg	100
1482.994	0.751	750.7	repeat	Run2	repeat/STIM_003.jpg	99
1485.955	0.744	743.6	repeat	Run2	repeat/STIM_004.jpg	99
1490.409	0.734	733.8	repeat	Run2	repeat/STIM_004.jpg	100
1495.018	0.705	705.3	repeat	Run2	repeat/STIM_004.jpg	99
1499.205	0.809	809.1	repeat	Run2	repeat/STIM_004.jpg	99
1503.549	0.823	822.9	repeat	Run2	repeat/STIM_004.jpg	99
1507.899	0.595	594.6	repeat	Run2	repeat/STIM_005.jpg	99
1511.725	0.682	682.3	repeat	Run2	repeat/STIM_005.jpg	100
1515.812	0.811	810.6	repeat	Run2	repeat/STIM_005.jpg	99
1520.363	0.499	498.8	repeat	Run2	repeat/STIM_005.jpg	100
1523.615	0.524	524.1	repeat	Run2	repeat/STIM_005.jpg	99
1526.458	0.563	563.2	repeat	Run2	repeat/STIM_006.jpg	99
1530.977	0.711	710.7	repeat	Run2	repeat/STIM_006.jpg	100
1535.071	0.511	511.3	repeat	Run2	repeat/STIM_006.jpg	100
1539.522	0.696	696.2	repeat	Run2	repeat/STIM_006.jpg	100
1543.454	0.552	551.5	repeat	Run2	repeat/STIM_006.jpg	99
1547.289	0.67	669.7	repeat	Run2	repeat/STIM_007.jpg	99
1550.468	0.577	576.7	repeat	Run2	repeat/STIM_007.jpg	99
1553.662	0.571	570.9	repeat	Run2	repeat/STIM_007.jpg	99
1558.089	0.752	752.1	repeat	Run2	repeat/STIM_007.jpg	100
1560.897	0.91	910.4	repeat	Run2	repeat/STIM_007.jpg	100
1564.076	0.812	812.2	repeat	Run2	repeat/STIM_008.jpg	99
1568.251	0.78	779.7	repeat	Run2	repeat/STIM_008.jpg	99
1571.8	0.824	823.9	repeat	Run2	repeat/STIM_008.jpg	99
1574.634	0.596	595.6	repeat	Run2	repeat/STIM_008.jpg	99
1577.684	0.556	556.1	repeat	Run2	repeat/STIM_008.jpg	100
1580.773	0.571	571.0	repeat	Run2	repeat/STIM_009.jpg	100
1584.346	0.929	929.3	repeat	Run2	repeat/STIM_009.jpg	100
1587.569	0.838	837.8	repeat	Run2	repeat/STIM_009.jpg	99
1591.027	0.548	547.5	repeat	Run2	repeat/STIM_009.jpg	100
1595.345	0.712	711.9	repeat	Run2	repeat/STIM_009.jpg	100
1598.568	0.706	706.3	repeat	Run2	repeat/STIM_010.jpg	99
1601.836	0.873	872.7	repeat	Run2	repeat/STIM_010.jpg	100
1606.125	0.74	740.2	repeat	Run2	repeat/STIM_010.jpg	100
1610.026	0.583	583.1	repeat	Run2	repeat/STIM_010.jpg	100
1613.976	0.789	789.1	repeat	Run2	repeat/STIM_010.jpg	99
1618.687	0.794	793.6	repeat	Run2	repeat/STIM_011.jpg	100
1623.219	0.468	468.3	repeat	Run2	repeat/STIM_011.jpg	99
1625.915	0.568	568.5	repeat	Run2	repeat/STIM_011.jpg	100
1629.1	0.484	484.0	repeat	Run2	repeat/STIM_011.jpg	99
1632.548	0.832	832.2	repeat	Run2	repeat/STIM_011.jpg	99
1636.506	0.767	767.1	repeat	Run2	repeat/STIM_012.jpg	100
1639.463	0.847	847.1	repeat	Run2	repeat/STIM_012.jpg	100
1644.219	0.713	712.9	repeat	Run2	repeat/STIM_012.jpg	99
1647.675	0.528	527.8	repeat	Run2	repeat/STIM_012.jpg	99
1651.633	0.844	843.9	repeat	Run2	repeat/STIM_012.jpg	99
1655.308	0.869	869.0	repeat	Run2	repeat/STIM_013.jpg	100
1658.609	0.599	599.2	repeat	Run2	repeat/STIM_013.jpg	99
1662.878	0.734	733.5	repeat	Run2	repeat/STIM_013.jpg	99
1665.859	0.64	639.7	repeat	Run2	repeat/STIM_013.jpg	99
1669.972	0.545	544.7	repeat	Run2	repeat/STIM_013.jpg	100
1672.825	0.815	815.4	repeat	Run2	repeat/STIM_014.jpg	99
1676.597	0.516	515.6	repeat	Run2	repeat/STIM_014.jpg	99
1680.011	0.731	730.8	repeat	Run2	repeat/STIM_014.jpg	99
1682.871	0.613	613.0	repeat	Run2	repeat/STIM_014.jpg	99
1686.043	0.828	827.6	repeat	Run2	repeat/STIM_014.jpg	99
1689.803	0.824	823.8	generate	Run3	generate/STIM_000.jpg	99
1692.766	1.328	1328.0	generate	Run3	generate/STIM_000.jpg	100
1696.296	1.657	1656.9	generate	Run3	generate/STIM_000.jpg	99
1700.871	1.425	1424.7	generate	Run3	generate/STIM_000.jpg	99
1704.865	1.652	1651.6	generate	Run3	generate/STIM_000.jpg	99
1708.776	1.152	1152.4	generate	Run3	generate/STIM_001.jpg	100
1713.008	0.896	895.9	generate	Run3	generate/STIM_001.jpg	99
1717.616	1.036	1036.4	generate	Run3	generate/STIM_001.jpg	99
1721.769	1.001	1001.4	generate	Run3	generate/STIM_001.jpg	100
1726.632	1.006	1005.7	generate	Run3	generate/STIM_001.jpg	100
1731.224	1.952	1952.3	generate	Run3	generate/STIM_002.jpg	100
1735.918	1.524	1523.7	generate	Run3	generate/STIM_002.jpg	100
1741.137	1.205	1204.7	generate	Run3	generate/STIM_002.jpg	100
1744.896	0.8	800.2	generate	Run3	generate/STIM_002.jpg	100
1749.136	1.737	1736.6	generate	Run3	generate/STIM_002.jpg	99
1754.851	1.071	1070.8	generate	Run3	generate/STIM_003.jpg	99
1759.167	1.31	1310.5	generate	Run3	generate/STIM_003.jpg	99
1764.27	1.247	1247.2	generate	Run3	generate/STIM_003.jpg	99
1769.449	1.144	1144.1	generate	Run3	generate/STIM_003.jpg	100
1774.282	1.558	1557.6	generate	Run3	generate/STIM_003.jpg	99
1779.486	1.398	1397.5	generate	Run3	generate/STIM_004.jpg	100
1784.265	0.994	993.6	generate	Run3	generate/STIM_004.jpg	99
1788.255	1.753	1752.6	generate	Run3	generate/STIM_004.jpg	99
1792.13	1.089	1089.2	generate	Run3	generate/STIM_004.jpg	99
1796.73	1.507	1507.3	generate	Run3	generate/STIM_004.jpg	99
1802.201	1.495	1495.4	generate	Run3	generate/STIM_005.jpg	100
1805.731	1.829	1828.6	generate	Run3	generate/STIM_005.jpg	99
1811.377	1.024	1023.5	generate	Run3	generate/STIM_005.jpg	99
1815.908	0.897	896.6	generate	Run3	generate/STIM_005.jpg	99
1819.481	1.388	1388.0	generate	Run3	generate/STIM_005.jpg	99
1823.652	1.541	1540.6	generate	Run3	generate/STIM_006.jpg	100
1827.349	0.883	883.3	generate	Run3	generate/STIM_006.jpg	99
1831.697	0.968	968.5	generate	Run3	generate/STIM_006.jpg	99
1835.87	0.988	987.5	generate	Run3	generate/STIM_006.jpg	100
1840.407	0.871	871.1	generate	Run3	generate/STIM_006.jpg	99
1844.994	1.268	1268.2	generate	Run3	generate/STIM_007.jpg	100
1849.005	1.465	1464.7	generate	Run3	generate/STIM_007.jpg	100
1854.439	1.69	1690.3	generate	Run3	generate/STIM_007.jpg	99
1859.376	1.844	1844.1	generate	Run3	generate/STIM_007.jpg	100
1863.751	1.536	1535.5	generate	Run3	generate/STIM_007.jpg	100
1868.383	1.237	1236.8	generate	Run3	generate/STIM_008.jpg	100
1872.008	1.534	1533.7	generate	Run3	generate/STIM_008.jpg	99
1877.357	1.242	1242.4	generate	Run3	generate/STIM_008.jpg	100
1880.892	0.997	997.1	generate	Run3	generate/STIM_008.jpg	99
1884.947	1.171	1170.9	generate	Run3	generate/STIM_008.jpg	99
1889.164	1.912	1912.1	generate	Run3	generate/STIM_009.jpg	99
1894.358	1.271	1271.3	generate	Run3	generate/STIM_009.jpg	99
1898.956	1.174	1173.5	generate	Run3	generate/STIM_009.jpg	100
1903.709	0.996	995.9	generate	Run3	generate/STIM_009.jpg	99
1908.686	1.819	1818.9	generate	Run3	generate/STIM_009.jpg	99
1914.17	1.635	1635.2	generate	Run3	generate/STIM_010.jpg	99
1919.672	1.824	1824.0	generate	Run3	generate/STIM_010.jpg	100
1924.733	1.532	1532.3	generate	Run3	generate/STIM_010.jpg	99
1930.233	1.314	1314.0	generate	Run3	generate/STIM_010.jpg	99
1934.815	1.85	1849.8	generate	Run3	generate/STIM_010.jpg	99
1940.433	1.835	1834.8	generate	Run3	generate/STIM_011.jpg	99
1944.713	1.573	1573.0	generate	Run3	generate/STIM_011.jpg	100
1950.056	1.401	1401.0	generate	Run3	generate/STIM_011.jpg	99
1955.389	0.908	908.5	generate	Run3	generate/STIM_011.jpg	99
1958.771	1.241	1240.8	generate	Run3	generate/STIM_011.jpg	100
1962.975	1.729	1729.0	generate	Run3	generate/STIM_012.jpg	99
1968.618	1.611	1610.6	generate	Run3	generate/STIM_012.jpg	100
1974.004	1.871	1871.4	generate	Run3	generate/STIM_012.jpg	100
1978.012	1.259	1258.9	generate	Run3	generate/STIM_012.jpg	99
1983.248	1.669	1668.7	generate	Run3	generate/STIM_012.jpg	100
1987.735	0.806	806.4	generate	Run3	generate/STIM_013.jpg	100
1991.223	1.076	1075.6	generate	Run3	generate/STIM_013.jpg	100
1994.693	1.652	1651.9	generate	Run3	generate/STIM_013.jpg	100
1998.916	1.584	1583.9	generate	Run3	generate/STIM_013.jpg	100
2004.466	1.067	1066.8	generate	Run3	generate/STIM_013.jpg	100
2008.749	1.541	1541.0	generate	Run3	generate/STIM_014.jpg	100
2013.469	1.386	1386.1	generate	Run3	generate/STIM_014.jpg	99
2017.648	1.862	1862.4	generate	Run3	generate/STIM_014.jpg	100
2022.413	1.83	1829.8	generate	Run3	generate/STIM_014.jpg	99
2027.963	1.5	1500.5	generate	Run3	generate/STIM_014.jpg	99
2033.322	1.391	1391.4	generate	Run3	generate/STIM_015.jpg	99
2038.248	1.798	1797.8	generate	Run3	generate/STIM_015.jpg	100
2042.987	1.032	1031.7	generate	Run3	generate/STIM_015.jpg	99
2048.008	0.886	886.4	generate	Run3	generate/STIM_015.jpg	99
2051.738	1.219	1218.8	generate	Run3	generate/STIM_015.jpg	100
2055.213	0.885	884.6	generate	Run3	generate/STIM_016.jpg	100
2059.973	0.871	871.0	generate	Run3	generate/STIM_016.jpg	99
2064.143	1.296	1296.5	generate	Run3	generate/STIM_016.jpg	99
2068.02	1.454	1454.0	generate	Run3	generate/STIM_016.jpg	99
2071.781	0.798	798.4	generate	Run3	generate/STIM_016.jpg	100
2076.365	1.581	1580.9	generate	Run3	generate/STIM_017.jpg	100
2081.768	1.245	1244.8	generate	Run3	generate/STIM_017.jpg	99
2085.778	1.159	1159.3	generate	Run3	generate/STIM_017.jpg	100
2090.535	0.905	905.2	generate	Run3	generate/STIM_017.jpg	99
2093.771	1.132	1131.6	generate	Run3	generate/STIM_017.jpg	99
2098.405	0.955	955.1	generate	Run3	generate/STIM_018.jpg	99
2102.795	1.39	1390.1	generate	Run3	generate/STIM_018.jpg	100
2107.811	1.888	1887.8	generate	Run3	generate/STIM_018.jpg	99
2113.588	1.913	1913.3	generate	Run3	generate/STIM_018.jpg	99
2117.992	1.348	1348.4	generate	Run3	generate/STIM_018.jpg	100
2122.42	1.68	1679.8	generate	Run3	generate/STIM_019.jpg	100
2126.953	1.761	1760.8	generate	Run3	generate/STIM_019.jpg	99
2130.88	1.905	1904.6	generate	Run3	generate/STIM_019.jpg	100
2136.498	1.415	1414.6	generate	Run3	generate/STIM_019.jpg	100
2141.036	1.922	1922.0	generate	Run3	generate/STIM_019.jpg	100
2145.105	1.499	1498.6	generate	Run3	generate/STIM_020.jpg	99
2149.696	1.331	1331.4	generate	Run3	generate/STIM_020.jpg	99
2153.549	1.031	1030.7	generate	Run3	generate/STIM_020.jpg	100
2158.406	1.042	1042.5	generate	Run3	generate/STIM_020.jpg	99
2161.466	1.571	1570.8	generate	Run3	generate/STIM_020.jpg	99
2165.845	1.436	1435.6	generate	Run3	generate/STIM_021.jpg	100
2170.536	1.331	1330.7	generate	Run3	generate/STIM_021.jpg	100
2175.789	1.135	1134.8	generate	Run3	generate/STIM_021.jpg	100
2180.084	0.896	895.7	generate	Run3	generate/STIM_021.jpg	99
2184.657	1.291	1291.2	generate	Run3	generate/STIM_021.jpg	99
2189.189	1.28	1280.1	generate	Run3	generate/STIM_022.jpg	100
2193.186	1.59	1590.0	generate	Run3	generate/STIM_022.jpg	100
2198.611	1.91	1909.6	generate	Run3	generate/STIM_022.jpg	100
2203.063	0.817	817.2	generate	Run3	generate/STIM_022.jpg	99
2207.211	1.482	1481.7	generate	Run3	generate/STIM_022.jpg	100
2211.0	1.066	1066.3	generate	Run3	generate/STIM_023.jpg	100
2214.276	1.608	1608.0	generate	Run3	generate/STIM_023.jpg	99
2218.638	0.802	801.8	generate	Run3	generate/STIM_023.jpg	100
2221.764	0.934	933.6	generate	Run3	generate/STIM_023.jpg	99
2226.296	1.413	1412.6	generate	Run3	generate/STIM_023.jpg	100
2230.965	1.87	1869.9	generate	Run3	generate/STIM_024.jpg	100
2235.006	1.111	1110.7	generate	Run3	generate/STIM_024.jpg	100
2239.179	1.025	1025.4	generate	Run3	generate/STIM_024.jpg	99
2243.125	1.943	1943.4	generate	Run3	generate/STIM_024.jpg	100
2247.458	1.546	1546.0	generate	Run3	generate/STIM_024.jpg	99
2252.548	0.923	923.0	repeat	Run3	repeat/STIM_000.jpg	100
2257.023	0.852	852.4	repeat	Run3	repeat/STIM_000.jpg	99
2260.393	0.797	796.9	repeat	Run3	repeat/STIM_000.jpg	99
2264.822	0.526	525.9	repeat	Run3	repeat/STIM_000.jpg	99
2269.283	0.836	836.3	repeat	Run3	repeat/STIM_000.jpg	99
2273.326	0.521	521.1	repeat	Run3	repeat/STIM_001.jpg	100
2276.755	0.557	557.1	repeat	Run3	repeat/STIM_001.jpg	100
2281.276	0.554	554.4	repeat	Run3	repeat/STIM_001.jpg	99
2284.48	0.596	595.8	repeat	Run3	repeat/STIM_001.jpg	100
2288.59	0.724	724.4	repeat	Run3	repeat/STIM_001.jpg	99
2291.359	0.865	864.8	repeat	Run3	repeat/STIM_002.jpg	99
2294.69	0.641	641.2	repeat	Run3	repeat/STIM_002.jpg	99
2298.547	0.551	551.4	repeat	Run3	repeat/STIM_002.jpg	100
2302.609	0.881	881.3	repeat	Run3	repeat/STIM_002.jpg	99
2306.992	0.487	487.2	repeat	Run3	repeat/STIM_002.jpg	99
2310.954	0.501	501.0	repeat	Run3	repeat/STIM_003.jpg	100
2314.047	0.53	530.5	repeat	Run3	repeat/STIM_003.jpg	99
2318.441	0.881	881.3	repeat	Run3	repeat/STIM_003.jpg	100
2321.379	0.917	917.2	repeat	Run3	repeat/STIM_003.jpg	100
2325.145	0.741	740.9	repeat	Run3	repeat/STIM_003.jpg	100
2329.49	0.874	874.4	repeat	Run3	repeat/STIM_004.jpg	100
2333.565	0.87	869.6	repeat	Run3	repeat/STIM_004.jpg	100
2337.622	0.832	831.5	repeat	Run3	repeat/STIM_004.jpg	99
2340.631	0.6	599.7	repeat	Run3	repeat/STIM_004.jpg	99
2343.547	0.743	743.4	repeat	Run3	repeat/STIM_004.jpg	100
2348.023	0.618	618.2	repeat	Run3	repeat/STIM_005.jpg	99
2351.279	0.582	582.1	repeat	Run3	repeat/STIM_005.jpg	99
2355.714	0.593	592.8	repeat	Run3	repeat/STIM_005.jpg	100
2359.158	0.499	499.1	repeat	Run3	repeat/STIM_005.jpg	99
2361.677	0.781	781.2	repeat	Run3	repeat/STIM_005.jpg	100
2364.597	0.812	812.3	repeat	Run3	repeat/STIM_006.jpg	100
2369.013	0.756	756.1	repeat	Run3	repeat/STIM_006.jpg	99
2373.295	0.679	679.1	repeat	Run3	repeat/STIM_006.jpg	99
2376.539	0.525	524.9	repeat	Run3	repeat/STIM_006.jpg	100
2379.286	0.879	879.1	repeat	Run3	repeat/STIM_006.jpg	99
2382.972	0.56	559.7	repeat	Run3	repeat/STIM_007.jpg	100
2386.924	0.596	596.0	repeat	Run3	repeat/STIM_007.jpg	100
2391.147	0.62	619.9	repeat	Run3	repeat/STIM_007.jpg	100
2393.794	0.879	879.1	repeat	Run3	repeat/STIM_007.jpg	100
2396.97	0.93	929.6	repeat	Run3	repeat/STIM_007.jpg	99
2401.595	0.718	718.5	repeat	Run3	repeat/STIM_008.jpg	99
2405.34	0.518	517.7	repeat	Run3	repeat/STIM_008.jpg	99
2408.508	0.848	848.4	repeat	Run3	repeat/STIM_008.jpg	99
2412.251	0.689	688.6	repeat	Run3	repeat/STIM_008.jpg	100
2415.194	0.554	554.2	repeat	Run3	repeat/STIM_008.jpg	99
2419.638	0.604	604.2	repeat	Run3	repeat/STIM_009.jpg	99
2423.858	0.549	549.2	repeat	Run3	repeat/STIM_009.jpg	99
2426.945	0.806	806.2	repeat	Run3	repeat/STIM_009.jpg	100
2430.336	0.703	703.0	repeat	Run3	repeat/STIM_009.jpg	99
2433.849	0.692	692.1	repeat	Run3	repeat/STIM_009.jpg	100
2437.252	0.679	679.3	repeat	Run3	repeat/STIM_010.jpg	99
2440.268	0.587	587.0	repeat	Run3	repeat/STIM_010.jpg	100
2444.711	0.859	859.1	repeat	Run3	repeat/STIM_010.jpg	100
2447.877	0.831	831.1	repeat	Run3	repeat/STIM_010.jpg	99
2452.388	0.912	912.5	repeat	Run3	repeat/STIM_010.jpg	100
2455.334	0.494	493.5	repeat	Run3	repeat/STIM_011.jpg	99
2459.598	0.827	827.4	repeat	Run3	repeat/STIM_011.jpg	100
2462.48	0.809	809.1	repeat	Run3	repeat/STIM_011.jpg	99
2465.725	0.556	556.4	repeat	Run3	repeat/STIM_011.jpg	99
2469.005	0.741	741.3	repeat	Run3	repeat/STIM_011.jpg	99
2472.024	0.927	927.1	repeat	Run3	repeat/STIM_012.jpg	100
2476.85	0.482	481.5	repeat	Run3	repeat/STIM_012.jpg	100
2480.476	0.802	802.3	repeat	Run3	repeat/STIM_012.jpg	100
2484.201	0.496	495.9	repeat	Run3	repeat/STIM_012.jpg	100
2488.66	0.894	893.6	repeat	Run3	repeat/STIM_012.jpg	100
2493.372	0.799	799.3	repeat	Run3	repeat/STIM_013.jpg	100
2498.119	0.699	699.0	repeat	Run3	repeat/STIM_013.jpg	100
2501.803	0.636	636.4	repeat	Run3	repeat/STIM_013.jpg	99
2505.549	0.793	792.6	repeat	Run3	repeat/STIM_013.jpg	100
2508.395	0.595	595.2	repeat	Run3	repeat/STIM_013.jpg	100
2512.038	0.486	485.5	repeat	Run3	repeat/STIM_014.jpg	100
2515.145	0.766	766.3	repeat	Run3	repeat/STIM_014.jpg	100
2519.651	0.492	491.5	repeat	Run3	repeat/STIM_014.jpg	100
2522.727	0.508	507.8	repeat	Run3	repeat/STIM_014.jpg	100
2526.572	0.741	741.1	repeat	Run3	repeat/STIM_014.jpg	100
2529.623	1.933	1933.0	generate	Run4	generate/STIM_000.jpg	99
2533.768	1.488	1487.7	generate	Run4	generate/STIM_000.jpg	99
2537.939	0.998	997.5	generate	Run4	generate/STIM_000.jpg	99
2541.405	1.502	1502.2	generate	Run4	generate/STIM_000.jpg	100
2545.89	1.305	1305.4	generate	Run4	generate/STIM_000.jpg	99
2549.874	0.878	877.7	generate	Run4	generate/STIM_001.jpg	99
2552.958	1.43	1430.1	generate	Run4	generate/STIM_001.jpg	100
2558.164	0.832	832.3	generate	Run4	generate/STIM_001.jpg	100
2562.486	1.851	1851.3	generate	Run4	generate/STIM_001.jpg	99
2567.38	1.627	1626.8	generate	Run4	generate/STIM_001.jpg	99
2572.711	1.751	1751.2	generate	Run4	generate/STIM_002.jpg	100
2576.708	1.538	1538.0	generate	Run4	generate/STIM_002.jpg	99
2580.413	0.976	976.2	generate	Run4	generate/STIM_002.jpg	100
2585.144	1.917	1917.1	generate	Run4	generate/STIM_002.jpg	99
2590.938	0.822	821.8	generate	Run4	generate/STIM_002.jpg	100
2595.055	1.88	1879.7	generate	Run4	generate/STIM_003.jpg	100
2599.947	1.704	1704.1	generate	Run4	generate/STIM_003.jpg	100
2605.233	1.134	1134.4	generate	Run4	generate/STIM_003.jpg	99
2609.018	1.71	1710.1	generate	Run4	generate/STIM_003.jpg	100
2614.075	1.946	1945.9	generate	Run4	generate/STIM_003.jpg	100
2619.156	1.044	1043.7	generate	Run4	generate/STIM_004.jpg	100
2623.407	1.584	1584.2	generate	Run4	generate/STIM_004.jpg	100
2628.481	1.156	1156.0	generate	Run4	generate/STIM_004.jpg	100
2631.791	1.495	1494.7	generate	Run4	generate/STIM_004.jpg	100
2635.9	0.954	954.2	generate	Run4	generate/STIM_004.jpg	100
2640.225	1.618	1618.3	generate	Run4	generate/STIM_005.jpg	100
2645.718	0.871	871.1	generate	Run4	generate/STIM_005.jpg	99
2648.64	0.916	915.7	generate	Run4	generate/STIM_005.jpg	99
2653.502	1.567	1566.8	generate	Run4	generate/STIM_005.jpg	100
2658.009	1.566	1565.6	generate	Run4	generate/STIM_005.jpg	99
2662.07	1.113	1113.0	generate	Run4	generate/STIM_006.jpg	100
2666.173	1.731	1730.9	generate	Run4	generate/STIM_006.jpg	100
2671.08	0.865	864.8	generate	Run4	generate/STIM_006.jpg	100
2674.738	1.608	1608.1	generate	Run4	generate/STIM_006.jpg	99
2679.734	1.199	1198.9	generate	Run4	generate/STIM_006.jpg	100
2683.033	0.834	833.8	generate	Run4	generate/STIM_007.jpg	100
2687.829	1.211	1210.8	generate	Run4	generate/STIM_007.jpg	100
2691.197	1.399	1398.7	generate	Run4	generate/STIM_007.jpg	99
2696.127	1.481	1481.2	generate	Run4	generate/STIM_007.jpg	99
2701.479	1.55	1550.0	generate	Run4	generate/STIM_007.jpg	99
2706.104	1.235	1234.7	generate	Run4	generate/STIM_008.jpg	100
2709.553	1.152	1151.9	generate	Run4	generate/STIM_008.jpg	99
2713.341	1.647	1647.4	generate	Run4	generate/STIM_008.jpg	99
2717.653	1.037	1036.9	generate	Run4	generate/STIM_008.jpg	99
2722.47	1.07	1070.5	generate	Run4	generate/STIM_008.jpg	99
2726.065	1.012	1012.5	generate	Run4	generate/STIM_009.jpg	100
2730.484	1.478	1477.7	generate	Run4	generate/STIM_009.jpg	100
2735.376	1.601	1600.8	generate	Run4	generate/STIM_009.jpg	99
2739.68	1.212	1212.2	generate	Run4	generate/STIM_009.jpg	99
2744.022	1.526	1526.2	generate	Run4	generate/STIM_009.jpg	100
2749.217	0.851	850.8	generate	Run4	generate/STIM_010.jpg	100
2753.569	1.387	1386.8	generate	Run4	generate/STIM_010.jpg	100
2758.911	1.074	1073.9	generate	Run4	generate/STIM_010.jpg	99
2762.2	0.896	895.9	generate	Run4	generate/STIM_010.jpg	99
2765.472	1.192	1191.8	generate	Run4	generate/STIM_010.jpg	99
2769.795	0.823	823.0	generate	Run4	generate/STIM_011.jpg	99
2773.429	0.917	917.4	generate	Run4	generate/STIM_011.jpg	99
2777.821	1.171	1171.2	generate	Run4	generate/STIM_011.jpg	100
2782.122	1.521	1520.6	generate	Run4	generate/STIM_011.jpg	99
2787.478	0.884	883.8	generate	Run4	generate/STIM_011.jpg	100
2790.773	1.635	1634.9	generate	Run4	generate/STIM_012.jpg	99
2796.118	1.684	1684.0	generate	Run4	generate/STIM_012.jpg	100
2800.631	1.353	1352.8	generate	Run4	generate/STIM_012.jpg	100
2805.134	0.834	834.1	generate	Run4	generate/STIM_012.jpg	100
2808.174	1.275	1274.7	generate	Run4	generate/STIM_012.jpg	100
2813.137	1.164	1164.3	generate	Run4	generate/STIM_013.jpg	100
2818.122	1.517	1517.0	generate	Run4	generate/STIM_013.jpg	99
2822.26	1.138	1138.2	generate	Run4	generate/STIM_013.jpg	99
2827.376	1.622	1622.5	generate	Run4	generate/STIM_013.jpg	100
2832.807	1.012	1011.7	generate	Run4	generate/STIM_013.jpg	99
2837.281	0.886	886.2	generate	Run4	generate/STIM_014.jpg	99
2841.243	1.16	1160.0	generate	Run4	generate/STIM_014.jpg	100
2845.192	1.796	1796.0	generate	Run4	generate/STIM_014.jpg	99
2849.026	1.604	1604.4	generate	Run4	generate/STIM_014.jpg	100
2854.437	1.82	1819.5	generate	Run4	generate/STIM_014.jpg	100
2858.368	1.004	1003.9	generate	Run4	generate/STIM_015.jpg	100
2862.471	1.653	1653.4	generate	Run4	generate/STIM_015.jpg	99
2866.989	1.547	1547.2	generate	Run4	generate/STIM_015.jpg	100
2870.641	1.857	1856.8	generate	Run4	generate/STIM_015.jpg	100
2876.214	1.638	1638.0	generate	Run4	generate/STIM_015.jpg	99
2881.238	1.74	1739.9	generate	Run4	generate/STIM_016.jpg	100
2886.935	1.42	1420.0	generate	Run4	generate/STIM_016.jpg	100
2891.384	0.82	819.5	generate	Run4	generate/STIM_016.jpg	100
2895.792	1.54	1539.5	generate	Run4	generate/STIM_016.jpg	99
2899.345	1.706	1705.5	generate	Run4	generate/STIM_016.jpg	100
2904.528	1.605	1604.9	generate	Run4	generate/STIM_017.jpg	100
2908.218	1.096	1096.2	generate	Run4	generate/STIM_017.jpg	100
2912.874	1.96	1959.5	generate	Run4	generate/STIM_017.jpg	99
2918.093	0.92	920.1	generate	Run4	generate/STIM_017.jpg	100
2921.664	0.825	824.9	generate	Run4	generate/STIM_017.jpg	100
2926.121	1.44	1439.7	generate	Run4	generate/STIM_018.jpg	100
2930.274	1.606	1606.5	generate	Run4	generate/STIM_018.jpg	100
2934.876	1.802	1802.5	generate	Run4	generate/STIM_018.jpg	100
2938.72	1.794	1794.2	generate	Run4	generate/STIM_018.jpg	100
2943.293	1.38	1380.2	generate	Run4	generate/STIM_018.jpg	100
2946.882	1.218	1217.6	generate	Run4	generate/STIM_019.jpg	100
2950.959	1.692	1691.5	generate	Run4	generate/STIM_019.jpg	99
2955.315	1.783	1783.0	generate	Run4	generate/STIM_019.jpg	99
2959.765	1.831	1831.0	generate	Run4	generate/STIM_019.jpg	99
2964.191	1.432	1432.3	generate	Run4	generate/STIM_019.jpg	99
2968.858	1.687	1686.9	generate	Run4	generate/STIM_020.jpg	99
2973.335	0.989	988.8	generate	Run4	generate/STIM_020.jpg	100
2978.281	1.763	1762.7	generate	Run4	generate/STIM_020.jpg	100
2983.345	1.456	1456.2	generate	Run4	generate/STIM_020.jpg	99
2986.935	0.907	906.8	generate	Run4	generate/STIM_020.jpg	99
2991.146	1.368	1367.9	generate	Run4	generate/STIM_021.jpg	99
2995.961	1.916	1915.6	generate	Run4	generate/STIM_021.jpg	100
3001.232	1.165	1164.9	generate	Run4	generate/STIM_021.jpg	99
3004.542	0.896	896.1	generate	Run4	generate/STIM_021.jpg	99
3007.772	0.875	875.0	generate	Run4	generate/STIM_021.jpg	100
3010.874	0.872	872.3	generate	Run4	generate/STIM_022.jpg	99
3014.946	1.796	1795.8	generate	Run4	generate/STIM_022.jpg	100
3019.953	0.888	888.4	generate	Run4	generate/STIM_022.jpg	100
3023.774	1.916	1915.8	generate	Run4	generate/STIM_022.jpg	99
3027.948	1.418	1417.9	generate	Run4	generate/STIM_022.jpg	99
3031.767	1.844	1843.7	generate	Run4	generate/STIM_023.jpg	100
3036.159	0.99	990.3	generate	Run4	generate/STIM_023.jpg	100
3039.494	1.502	1502.1	generate	Run4	generate/STIM_023.jpg	99
3043.109	1.596	1596.4	generate	Run4	generate/STIM_023.jpg	100
3047.982	0.978	978.0	generate	Run4	generate/STIM_023.jpg	99
3051.472	1.372	1372.3	generate	Run4	generate/STIM_024.jpg	100
3056.804	1.515	1514.9	generate	Run4	generate/STIM_024.jpg	100
3060.502	1.413	1413.3	generate	Run4	generate/STIM_024.jpg	99
3065.191	0.796	795.6	generate	Run4	generate/STIM_024.jpg	100
3069.934	1.349	1348.9	generate	Run4	generate/STIM_024.jpg	100
3074.742	0.71	709.8	repeat	Run4	repeat/STIM_000.jpg	99
3078.798	0.663	663.1	repeat	Run4	repeat/STIM_000.jpg	100
3082.422	0.852	852.1	repeat	Run4	repeat/STIM_000.jpg	100
3085.941	0.672	671.7	repeat	Run4	repeat/STIM_000.jpg	99
3089.534	0.544	543.9	repeat	Run4	repeat/STIM_000.jpg	100
3092.511	0.747	746.6	repeat	Run4	repeat/STIM_001.jpg	100
3096.959	0.542	542.4	repeat	Run4	repeat/STIM_001.jpg	99
3100.119	0.786	786.4	repeat	Run4	repeat/STIM_001.jpg	100
3104.085	0.785	785.2	repeat	Run4	repeat/STIM_001.jpg	100
3108.818	0.696	695.5	repeat	Run4	repeat/STIM_001.jpg	99
3112.815	0.51	510.2	repeat	Run4	repeat/STIM_002.jpg	100
3117.118	0.84	840.2	repeat	Run4	repeat/STIM_002.jpg	100
3120.978	0.73	730.5	repeat	Run4	repeat/STIM_002.jpg	99
3124.596	0.532	532.4	repeat	Run4	repeat/STIM_002.jpg	99
3127.69	0.495	494.8	repeat	Run4	repeat/STIM_002.jpg	100
3131.883	0.697	696.7	repeat	Run4	repeat/STIM_003.jpg	100
3136.187	0.653	653.3	repeat	Run4	repeat/STIM_003.jpg	100
3139.199	0.654	653.5	repeat	Run4	repeat/STIM_003.jpg	100
3142.55	0.897	897.4	repeat	Run4	repeat/STIM_003.jpg	100
3145.547	0.654	653.9	repeat	Run4	repeat/STIM_003.jpg	99
3149.428	0.733	732.7	repeat	Run4	repeat/STIM_004.jpg	100
3152.791	0.727	726.7	repeat	Run4	repeat/STIM_004.jpg	99
3156.876	0.832	832.1	repeat	Run4	repeat/STIM_004.jpg	100
3160.462	0.626	625.9	repeat	Run4	repeat/STIM_004.jpg	100
3163.781	0.531	530.6	repeat	Run4	repeat/STIM_004.jpg	99
3167.742	0.718	717.8	repeat	Run4	repeat/STIM_005.jpg	100
3171.054	0.501	500.7	repeat	Run4	repeat/STIM_005.jpg	99
3175.09	0.679	678.6	repeat	Run4	repeat/STIM_005.jpg	100
3179.425	0.92	919.9	repeat	Run4	repeat/STIM_005.jpg	100
3182.829	0.777	776.7	repeat	Run4	repeat/STIM_005.jpg	100
3186.362	0.551	550.8	repeat	Run4	repeat/STIM_006.jpg	100
3189.749	0.484	483.7	repeat	Run4	repeat/STIM_006.jpg	99
3193.896	0.924	924.0	repeat	Run4	repeat/STIM_006.jpg	99
3198.067	0.785	784.6	repeat	Run4	repeat/STIM_006.jpg	100
3201.856	0.71	710.5	repeat	Run4	repeat/STIM_006.jpg	100
3205.129	0.551	550.7	repeat	Run4	repeat/STIM_007.jpg	100
3208.865	0.678	678.0	repeat	Run4	repeat/STIM_007.jpg	100
3212.423	0.74	740.5	repeat	Run4	repeat/STIM_007.jpg	100
3215.843	0.859	858.6	repeat	Run4	repeat/STIM_007.jpg	100
3218.814	0.567	566.8	repeat	Run4	repeat/STIM_007.jpg	100
3221.565	0.849	848.8	repeat	Run4	repeat/STIM_008.jpg	100
3226.189	0.607	606.7	repeat	Run4	repeat/STIM_008.jpg	100
3230.272	0.921	921.4	repeat	Run4	repeat/STIM_008.jpg	100
3235.05	0.834	834.4	repeat	Run4	repeat/STIM_008.jpg	100
3238.535	0.731	731.4	repeat	Run4	repeat/STIM_008.jpg	99
3243.134	0.576	575.5	repeat	Run4	repeat/STIM_009.jpg	99
3247.319	0.568	567.7	repeat	Run4	repeat/STIM_009.jpg	100
3250.897	0.633	633.1	repeat	Run4	repeat/STIM_009.jpg	99
3253.613	0.632	631.6	repeat	Run4	repeat/STIM_009.jpg	99
3256.853	0.524	523.6	repeat	Run4	repeat/STIM_009.jpg	100
3260.448	0.597	597.0	repeat	Run4	repeat/STIM_010.jpg	99
3263.707	0.712	712.0	repeat	Run4	repeat/STIM_010.jpg	99
3268.003	0.93	929.8	repeat	Run4	repeat/STIM_010.jpg	100
3272.087	0.526	525.6	repeat	Run4	repeat/STIM_010.jpg	100
3274.885	0.838	838.0	repeat	Run4	repeat/STIM_010.jpg	100
3277.787	0.47	470.0	repeat	Run4	repeat/STIM_011.jpg	100
3281.369	0.784	783.8	repeat	Run4	repeat/STIM_011.jpg	99
3285.315	0.469	468.9	repeat	Run4	repeat/STIM_011.jpg	99
3288.121	0.512	512.1	repeat	Run4	repeat/STIM_011.jpg	100
3291.643	0.887	886.6	repeat	Run4	repeat/STIM_011.jpg	99
3295.708	0.737	736.7	repeat	Run4	repeat/STIM_012.jpg	100
3300.311	0.776	775.8	repeat	Run4	repeat/STIM_012.jpg	99
3304.658	0.816	816.0	repeat	Run4	repeat/STIM_012.jpg	99
3308.825	0.558	558.1	repeat	Run4	repeat/STIM_012.jpg	99
3313.242	0.862	862.2	repeat	Run4	repeat/STIM_012.jpg	99
3316.555	0.584	584.0	repeat	Run4	repeat/STIM_013.jpg	100
3320.227	0.577	577.2	repeat	Run4	repeat/STIM_013.jpg	99
3323.595	0.549	548.9	repeat	Run4	repeat/STIM_013.jpg	100
3326.895	0.569	568.7	repeat	Run4	repeat/STIM_013.jpg	100
3330.865	0.804	803.7	repeat	Run4	repeat/STIM_013.jpg	99
3333.7	0.536	535.9	repeat	Run4	repeat/STIM_014.jpg	99
3337.047	0.473	472.6	repeat	Run4	repeat/STIM_014.jpg	99
3339.837	0.631	631.4	repeat	Run4	repeat/STIM_014.jpg	99
3343.81	0.629	629.3	repeat	Run4	repeat/STIM_014.jpg	99
3346.631	0.717	716.7	repeat	Run4	repeat/STIM_014.jpg	99
