onset	duration	accuracy	trial_type	learning_stage	stimulus
0.0	1.412	correct	incongruent	Block1	incongruent/STIM_000.jpg
4.991	1.127	correct	incongruent	Block1	incongruent/STIM_000.jpg
8.927	1.187	correct	incongruent	Block1	incongruent/STIM_000.jpg
13.032	0.945	incorrect	incongruent	Block1	incongruent/STIM_000.jpg
17.907	1.373	correct	incongruent	Block1	incongruent/STIM_000.jpg
22.878	1.199	incorrect	incongruent	Block1	incongruent/STIM_001.jpg
27.685	0.859	incorrect	incongruent	Block1	incongruent/STIM_001.jpg
31.108	1.09	correct	incongruent	Block1	incongruent/STIM_001.jpg
34.818	1.389	incorrect	incongruent	Block1	incongruent/STIM_001.jpg
40.081	1.336	incorrect	incongruent	Block1	incongruent/STIM_001.jpg
43.791	1.214	correct	incongruent	Block1	incongruent/STIM_002.jpg
47.773	0.976	correct	incongruent	Block1	incongruent/STIM_002.jpg
51.824	1.456	correct	incongruent	Block1	incongruent/STIM_002.jpg
56.672	1.392	incorrect	incongruent	Block1	incongruent/STIM_002.jpg
61.719	1.009	correct	incongruent	Block1	incongruent/STIM_002.jpg
66.071	1.399	correct	incongruent	Block1	incongruent/STIM_003.jpg
69.733	0.924	correct	incongruent	Block1	incongruent/STIM_003.jpg
73.094	1.436	correct	incongruent	Block1	incongruent/STIM_003.jpg
76.733	1.425	correct	incongruent	Block1	incongruent/STIM_003.jpg
80.938	1.049	correct	incongruent	Block1	incongruent/STIM_003.jpg
84.249	1.194	correct	incongruent	Block1	incongruent/STIM_004.jpg
88.32	1.12	incorrect	incongruent	Block1	incongruent/STIM_004.jpg
93.025	1.446	correct	incongruent	Block1	incongruent/STIM_004.jpg
98.146	1.362	incorrect	incongruent	Block1	incongruent/STIM_004.jpg
103.126	1.217	incorrect	incongruent	Block1	incongruent/STIM_004.jpg
107.999	1.071	correct	incongruent	Block1	incongruent/STIM_005.jpg
112.801	1.567	incorrect	incongruent	Block1	incongruent/STIM_005.jpg
117.234	1.038	correct	incongruent	Block1	incongruent/STIM_005.jpg
121.364	0.751	incorrect	incongruent	Block1	incongruent/STIM_005.jpg
124.138	1.163	correct	incongruent	Block1	incongruent/STIM_005.jpg
129.082	0.972	correct	incongruent	Block1	incongruent/STIM_006.jpg
133.632	1.031	correct	incongruent	Block1	incongruent/STIM_006.jpg
138.012	1.248	correct	incongruent	Block1	incongruent/STIM_006.jpg
142.681	0.788	correct	incongruent	Block1	incongruent/STIM_006.jpg
146.969	1.211	incorrect	incongruent	Block1	incongruent/STIM_006.jpg
152.026	1.445	incorrect	incongruent	Block1	incongruent/STIM_007.jpg
155.94	1.383	incorrect	incongruent	Block1	incongruent/STIM_007.jpg
160.376	1.497	correct	incongruent	Block1	incongruent/STIM_007.jpg
165.231	1.408	incorrect	incongruent	Block1	incongruent/STIM_007.jpg
169.122	0.678	correct	incongruent	Block1	incongruent/STIM_007.jpg
172.218	0.959	incorrect	incongruent	Block1	incongruent/STIM_008.jpg
175.92	1.254	correct	incongruent	Block1	incongruent/STIM_008.jpg
179.378	1.046	correct	incongruent	Block1	incongruent/STIM_008.jpg
183.035	1.016	correct	incongruent	Block1	incongruent/STIM_008.jpg
187.006	1.221	incorrect	incongruent	Block1	incongruent/STIM_008.jpg
191.492	0.85	correct	incongruent	Block1	incongruent/STIM_009.jpg
196.006	1.467	correct	incongruent	Block1	incongruent/STIM_009.jpg
201.44	0.815	incorrect	incongruent	Block1	incongruent/STIM_009.jpg
205.46	1.014	correct	incongruent	Block1	incongruent/STIM_009.jpg
208.551	1.266	incorrect	incongruent	Block1	incongruent/STIM_009.jpg
212.512	1.165	correct	incongruent	Block1	incongruent/STIM_010.jpg
216.008	0.982	correct	incongruent	Block1	incongruent/STIM_010.jpg
220.691	1.197	incorrect	incongruent	Block1	incongruent/STIM_010.jpg
225.125	0.762	correct	incongruent	Block1	incongruent/STIM_010.jpg
227.979	1.2	correct	incongruent	Block1	incongruent/STIM_010.jpg
231.606	1.079	incorrect	incongruent	Block1	incongruent/STIM_011.jpg
235.828	1.016	correct	incongruent	Block1	incongruent/STIM_011.jpg
240.802	1.191	correct	incongruent	Block1	incongruent/STIM_011.jpg
244.504	1.23	correct	incongruent	Block1	incongruent/STIM_011.jpg
248.753	1.352	correct	incongruent	Block1	incongruent/STIM_011.jpg
252.108	1.364	correct	incongruent	Block1	incongruent/STIM_012.jpg
257.044	1.317	correct	incongruent	Block1	incongruent/STIM_012.jpg
262.195	1.09	correct	incongruent	Block1	incongruent/STIM_012.jpg
266.922	0.785	correct	incongruent	Block1	incongruent/STIM_012.jpg
270.876	0.942	correct	incongruent	Block1	incongruent/STIM_012.jpg
274.626	1.05	incorrect	incongruent	Block1	incongruent/STIM_013.jpg
279.646	1.22	correct	incongruent	Block1	incongruent/STIM_013.jpg
284.72	1.331	correct	incongruent	Block1	incongruent/STIM_013.jpg
288.429	0.789	incorrect	incongruent	Block1	incongruent/STIM_013.jpg
292.94	1.239	correct	incongruent	Block1	incongruent/STIM_013.jpg
297.03	1.24	correct	incongruent	Block1	incongruent/STIM_014.jpg
300.392	1.224	correct	incongruent	Block1	incongruent/STIM_014.jpg
304.663	1.0	correct	incongruent	Block1	incongruent/STIM_014.jpg
308.777	1.061	correct	incongruent	Block1	incongruent/STIM_014.jpg
313.599	1.275	correct	incongruent	Block1	incongruent/STIM_014.jpg
318.281	0.859	correct	incongruent	Block1	incongruent/STIM_015.jpg
321.707	1.269	correct	incongruent	Block1	incongruent/STIM_015.jpg
326.085	0.99	correct	incongruent	Block1	incongruent/STIM_015.jpg
329.206	0.931	correct	incongruent	Block1	incongruent/STIM_015.jpg
333.276	1.186	correct	incongruent	Block1	incongruent/STIM_015.jpg
337.55	1.546	correct	incongruent	Block1	incongruent/STIM_016.jpg
342.77	1.5	incorrect	incongruent	Block1	incongruent/STIM_016.jpg
346.679	1.478	incorrect	incongruent	Block1	incongruent/STIM_016.jpg
350.502	1.172	correct	incongruent	Block1	incongruent/STIM_016.jpg
355.532	1.231	incorrect	incongruent	Block1	incongruent/STIM_016.jpg
358.839	0.93	correct	incongruent	Block1	incongruent/STIM_017.jpg
363.377	0.941	correct	incongruent	Block1	incongruent/STIM_017.jpg
366.683	0.786	correct	incongruent	Block1	incongruent/STIM_017.jpg
369.675	1.239	correct	incongruent	Block1	incongruent/STIM_017.jpg
374.723	0.652	correct	incongruent	Block1	incongruent/STIM_017.jpg
377.995	1.514	correct	incongruent	Block1	incongruent/STIM_018.jpg
382.801	1.147	correct	incongruent	Block1	incongruent/STIM_018.jpg
386.291	1.424	correct	incongruent	Block1	incongruent/STIM_018.jpg
390.395	0.812	incorrect	incongruent	Block1	incongruent/STIM_018.jpg
393.374	0.773	correct	incongruent	Block1	incongruent/STIM_018.jpg
397.652	1.646	correct	incongruent	Block1	incongruent/STIM_019.jpg
402.121	1.555	incorrect	incongruent	Block1	incongruent/STIM_019.jpg
406.338	0.745	correct	incongruent	Block1	incongruent/STIM_019.jpg
410.955	0.869	incorrect	incongruent	Block1	incongruent/STIM_019.jpg
415.38	0.946	correct	incongruent	Block1	incongruent/STIM_019.jpg
419.446	0.909	correct	incongruent	Block1	incongruent/STIM_020.jpg
423.222	1.183	correct	incongruent	Block1	incongruent/STIM_020.jpg
427.279	1.505	correct	incongruent	Block1	incongruent/STIM_020.jpg
431.459	0.862	correct	incongruent	Block1	incongruent/STIM_020.jpg
434.634	1.147	incorrect	incongruent	Block1	incongruent/STIM_020.jpg
438.146	1.41	incorrect	incongruent	Block1	incongruent/STIM_021.jpg
442.113	0.94	correct	incongruent	Block1	incongruent/STIM_021.jpg
446.549	1.024	correct	incongruent	Block1	incongruent/STIM_021.jpg
450.032	0.818	incorrect	incongruent	Block1	incongruent/STIM_021.jpg
453.225	1.281	incorrect	incongruent	Block1	incongruent/STIM_021.jpg
456.902	1.331	correct	incongruent	Block1	incongruent/STIM_022.jpg
461.057	1.127	incorrect	incongruent	Block1	incongruent/STIM_022.jpg
464.864	1.004	correct	incongruent	Block1	incongruent/STIM_022.jpg
469.588	1.32	correct	incongruent	Block1	incongruent/STIM_022.jpg
474.511	1.379	correct	incongruent	Block1	incongruent/STIM_022.jpg
478.279	0.96	correct	incongruent	Block1	incongruent/STIM_023.jpg
482.381	1.267	correct	incongruent	Block1	incongruent/STIM_023.jpg
486.714	1.3	correct	incongruent	Block1	incongruent/STIM_023.jpg
490.934	0.913	correct	incongruent	Block1	incongruent/STIM_023.jpg
494.356	0.716	correct	incongruent	Block1	incongruent/STIM_023.jpg
498.298	0.966	correct	incongruent	Block1	incongruent/STIM_024.jpg
503.18	1.094	incorrect	incongruent	Block1	incongruent/STIM_024.jpg
506.569	1.042	correct	incongruent	Block1	incongruent/STIM_024.jpg
511.582	1.386	correct	incongruent	Block1	incongruent/STIM_024.jpg
516.235	1.019	correct	incongruent	Block1	incongruent/STIM_024.jpg
520.607	0.926	incorrect	incongruent	Block1	incongruent/STIM_025.jpg
524.249	1.248	correct	incongruent	Block1	incongruent/STIM_025.jpg
529.158	0.759	correct	incongruent	Block1	incongruent/STIM_025.jpg
532.15	1.072	correct	incongruent	Block1	incongruent/STIM_025.jpg
536.056	1.2	correct	incongruent	Block1	incongruent/STIM_025.jpg
539.502	1.278	incorrect	incongruent	Block1	incongruent/STIM_026.jpg
543.378	1.215	incorrect	incongruent	Block1	incongruent/STIM_026.jpg
548.021	0.893	incorrect	incongruent	Block1	incongruent/STIM_026.jpg
552.268	1.09	correct	incongruent	Block1	incongruent/STIM_026.jpg
556.124	1.258	correct	incongruent	Block1	incongruent/STIM_026.jpg
560.37	1.185	correct	incongruent	Block1	incongruent/STIM_027.jpg
565.149	0.853	correct	incongruent	Block1	incongruent/STIM_027.jpg
569.987	1.137	correct	incongruent	Block1	incongruent/STIM_027.jpg
574.706	1.167	correct	incongruent	Block1	incongruent/STIM_027.jpg
579.188	0.825	correct	incongruent	Block1	incongruent/STIM_027.jpg
582.66	1.586	correct	incongruent	Block1	incongruent/STIM_028.jpg
587.469	1.067	correct	incongruent	Block1	incongruent/STIM_028.jpg
591.681	0.966	correct	incongruent	Block1	incongruent/STIM_028.jpg
595.579	1.345	incorrect	incongruent	Block1	incongruent/STIM_028.jpg
600.007	1.374	incorrect	incongruent	Block1	incongruent/STIM_028.jpg
604.083	1.155	incorrect	incongruent	Block1	incongruent/STIM_029.jpg
607.988	0.882	correct	incongruent	Block1	incongruent/STIM_029.jpg
611.599	1.207	correct	incongruent	Block1	incongruent/STIM_029.jpg
615.343	1.293	correct	incongruent	Block1	incongruent/STIM_029.jpg
618.647	1.339	correct	incongruent	Block1	incongruent/STIM_029.jpg
622.331	0.689	correct	congruent	Block1	congruent/STIM_000.jpg
625.746	0.901	correct	congruent	Block1	congruent/STIM_000.jpg
629.256	0.845	correct	congruent	Block1	congruent/STIM_000.jpg
633.214	0.595	correct	congruent	Block1	congruent/STIM_000.jpg
636.476	0.592	correct	congruent	Block1	congruent/STIM_000.jpg
639.416	0.942	correct	congruent	Block1	congruent/STIM_001.jpg
643.263	0.693	correct	congruent	Block1	congruent/STIM_001.jpg
647.528	0.744	incorrect	congruent	Block1	congruent/STIM_001.jpg
650.386	1.003	correct	congruent	Block1	congruent/STIM_001.jpg
653.489	0.914	incorrect	congruent	Block1	congruent/STIM_001.jpg
657.404	0.86	correct	congruent	Block1	congruent/STIM_002.jpg
660.372	0.938	correct	congruent	Block1	congruent/STIM_002.jpg
663.339	0.602	correct	congruent	Block1	congruent/STIM_002.jpg
666.43	0.64	incorrect	congruent	Block1	congruent/STIM_002.jpg
670.337	0.831	incorrect	congruent	Block1	congruent/STIM_002.jpg
673.545	0.765	correct	congruent	Block1	congruent/STIM_003.jpg
676.763	0.861	correct	congruent	Block1	congruent/STIM_003.jpg
681.132	0.955	correct	congruent	Block1	congruent/STIM_003.jpg
685.241	0.666	correct	congruent	Block1	congruent/STIM_003.jpg
689.606	0.824	correct	congruent	Block1	congruent/STIM_003.jpg
694.262	0.75	correct	congruent	Block1	congruent/STIM_004.jpg
697.681	0.905	correct	congruent	Block1	congruent/STIM_004.jpg
702.023	0.657	correct	congruent	Block1	congruent/STIM_004.jpg
705.087	0.977	correct	congruent	Block1	congruent/STIM_004.jpg
708.19	1.027	correct	congruent	Block1	congruent/STIM_004.jpg
711.527	0.586	correct	congruent	Block1	congruent/STIM_005.jpg
714.189	0.882	correct	congruent	Block1	congruent/STIM_005.jpg
717.541	0.657	correct	congruent	Block1	congruent/STIM_005.jpg
720.432	0.728	incorrect	congruent	Block1	congruent/STIM_005.jpg
724.884	0.779	correct	congruent	Block1	congruent/STIM_005.jpg
727.77	0.63	correct	congruent	Block1	congruent/STIM_006.jpg
730.83	0.85	incorrect	congruent	Block1	congruent/STIM_006.jpg
735.202	0.895	correct	congruent	Block1	congruent/STIM_006.jpg
739.761	1.035	correct	congruent	Block1	congruent/STIM_006.jpg
744.142	0.772	correct	congruent	Block1	congruent/STIM_006.jpg
747.765	0.77	incorrect	congruent	Block1	congruent/STIM_007.jpg
751.041	0.66	incorrect	congruent	Block1	congruent/STIM_007.jpg
755.329	0.592	correct	congruent	Block1	congruent/STIM_007.jpg
758.159	0.959	incorrect	congruent	Block1	congruent/STIM_007.jpg
762.515	0.702	correct	congruent	Block1	congruent/STIM_007.jpg
765.304	0.817	correct	congruent	Block1	congruent/STIM_008.jpg
769.899	1.024	incorrect	congruent	Block1	congruent/STIM_008.jpg
772.983	0.895	correct	congruent	Block1	congruent/STIM_008.jpg
776.366	0.988	correct	congruent	Block1	congruent/STIM_008.jpg
779.482	0.754	correct	congruent	Block1	congruent/STIM_008.jpg
783.053	0.724	correct	congruent	Block1	congruent/STIM_009.jpg
787.741	0.716	incorrect	congruent	Block1	congruent/STIM_009.jpg
791.292	0.955	correct	congruent	Block1	congruent/STIM_009.jpg
795.082	0.704	incorrect	congruent	Block1	congruent/STIM_009.jpg
797.887	1.028	incorrect	congruent	Block1	congruent/STIM_009.jpg
801.706	0.844	correct	congruent	Block1	congruent/STIM_010.jpg
806.319	0.88	correct	congruent	Block1	congruent/STIM_010.jpg
810.343	1.016	correct	congruent	Block1	congruent/STIM_010.jpg
815.351	0.694	incorrect	congruent	Block1	congruent/STIM_010.jpg
818.924	0.598	correct	congruent	Block1	congruent/STIM_010.jpg
822.317	0.679	correct	congruent	Block1	congruent/STIM_011.jpg
825.158	0.894	incorrect	congruent	Block1	congruent/STIM_011.jpg
829.191	0.812	correct	congruent	Block1	congruent/STIM_011.jpg
833.208	0.706	correct	congruent	Block1	congruent/STIM_011.jpg
836.26	0.922	correct	congruent	Block1	congruent/STIM_011.jpg
839.291	0.887	incorrect	congruent	Block1	congruent/STIM_012.jpg
842.828	0.605	correct	congruent	Block1	congruent/STIM_012.jpg
847.129	1.013	correct	congruent	Block1	congruent/STIM_012.jpg
850.517	0.845	correct	congruent	Block1	congruent/STIM_012.jpg
853.905	0.772	incorrect	congruent	Block1	congruent/STIM_012.jpg
858.406	1.019	correct	congruent	Block1	congruent/STIM_013.jpg
863.062	0.632	correct	congruent	Block1	congruent/STIM_013.jpg
866.51	0.734	correct	congruent	Block1	congruent/STIM_013.jpg
871.069	1.02	correct	congruent	Block1	congruent/STIM_013.jpg
874.273	0.969	incorrect	congruent	Block1	congruent/STIM_013.jpg
877.347	0.865	incorrect	congruent	Block1	congruent/STIM_014.jpg
881.464	0.924	correct	congruent	Block1	congruent/STIM_014.jpg
884.415	0.91	correct	congruent	Block1	congruent/STIM_014.jpg
888.998	0.69	incorrect	congruent	Block1	congruent/STIM_014.jpg
892.471	0.977	correct	congruent	Block1	congruent/STIM_014.jpg
897.432	0.91	correct	congruent	Block1	congruent/STIM_015.jpg
902.274	0.604	correct	congruent	Block1	congruent/STIM_015.jpg
905.155	0.875	correct	congruent	Block1	congruent/STIM_015.jpg
909.187	0.937	correct	congruent	Block1	congruent/STIM_015.jpg
913.349	1.035	correct	congruent	Block1	congruent/STIM_015.jpg
917.446	0.99	correct	congruent	Block1	congruent/STIM_016.jpg
920.7	0.932	correct	congruent	Block1	congruent/STIM_016.jpg
923.701	0.984	correct	congruent	Block1	congruent/STIM_016.jpg
926.757	0.9	correct	congruent	Block1	congruent/STIM_016.jpg
930.841	0.836	correct	congruent	Block1	congruent/STIM_016.jpg
935.01	0.73	correct	congruent	Block1	congruent/STIM_017.jpg
939.418	0.887	incorrect	congruent	Block1	congruent/STIM_017.jpg
942.958	0.745	correct	congruent	Block1	congruent/STIM_017.jpg
945.914	0.987	correct	congruent	Block1	congruent/STIM_017.jpg
949.162	0.926	correct	congruent	Block1	congruent/STIM_017.jpg
952.604	0.94	incorrect	congruent	Block1	congruent/STIM_018.jpg
956.459	0.92	correct	congruent	Block1	congruent/STIM_018.jpg
960.605	0.598	correct	congruent	Block1	congruent/STIM_018.jpg
963.292	0.85	incorrect	congruent	Block1	congruent/STIM_018.jpg
966.398	1.022	correct	congruent	Block1	congruent/STIM_018.jpg
970.613	0.869	incorrect	congruent	Block1	congruent/STIM_019.jpg
975.009	0.62	correct	congruent	Block1	congruent/STIM_019.jpg
978.746	1.016	correct	congruent	Block1	congruent/STIM_019.jpg
983.507	0.981	correct	congruent	Block1	congruent/STIM_019.jpg
987.241	0.688	correct	congruent	Block1	congruent/STIM_019.jpg
990.213	0.862	correct	congruent	Block1	congruent/STIM_020.jpg
993.686	0.596	incorrect	congruent	Block1	congruent/STIM_020.jpg
997.143	1.037	correct	congruent	Block1	congruent/STIM_020.jpg
1002.007	0.678	correct	congruent	Block1	congruent/STIM_020.jpg
1006.277	0.732	correct	congruent	Block1	congruent/STIM_020.jpg
1009.067	0.616	correct	congruent	Block1	congruent/STIM_021.jpg
1011.697	0.629	correct	congruent	Block1	congruent/STIM_021.jpg
1015.605	0.666	incorrect	congruent	Block1	congruent/STIM_021.jpg
1019.543	0.839	correct	congruent	Block1	congruent/STIM_021.jpg
1022.485	0.937	correct	congruent	Block1	congruent/STIM_021.jpg
1027.006	1.007	correct	congruent	Block1	congruent/STIM_022.jpg
1031.848	0.918	correct	congruent	Block1	congruent/STIM_022.jpg
1035.404	0.993	correct	congruent	Block1	congruent/STIM_022.jpg
1038.98	0.642	correct	congruent	Block1	congruent/STIM_022.jpg
1042.584	1.014	incorrect	congruent	Block1	congruent/STIM_022.jpg
1047.418	0.743	correct	congruent	Block1	congruent/STIM_023.jpg
1050.916	0.687	correct	congruent	Block1	congruent/STIM_023.jpg
1055.585	1.021	incorrect	congruent	Block1	congruent/STIM_023.jpg
1059.699	0.952	incorrect	congruent	Block1	congruent/STIM_023.jpg
1064.15	0.774	correct	congruent	Block1	congruent/STIM_023.jpg
1068.656	0.919	incorrect	congruent	Block1	congruent/STIM_024.jpg
1071.686	0.792	correct	congruent	Block1	congruent/STIM_024.jpg
1075.489	0.683	correct	congruent	Block1	congruent/STIM_024.jpg
1078.39	0.875	incorrect	congruent	Block1	congruent/STIM_024.jpg
1082.357	1.026	correct	congruent	Block1	congruent/STIM_024.jpg
1086.731	1.04	correct	congruent	Block1	congruent/STIM_025.jpg
1091.728	0.869	correct	congruent	Block1	congruent/STIM_025.jpg
1096.538	0.739	correct	congruent	Block1	congruent/STIM_025.jpg
1099.788	0.824	incorrect	congruent	Block1	congruent/STIM_025.jpg
1102.835	0.83	incorrect	congruent	Block1	congruent/STIM_025.jpg
1106.215	0.84	incorrect	congruent	Block1	congruent/STIM_026.jpg
1110.295	0.581	correct	congruent	Block1	congruent/STIM_026.jpg
1114.066	0.64	correct	congruent	Block1	congruent/STIM_026.jpg
1117.493	0.822	correct	congruent	Block1	congruent/STIM_026.jpg
1120.805	0.699	correct	congruent	Block1	congruent/STIM_026.jpg
1124.375	0.756	correct	congruent	Block1	congruent/STIM_027.jpg
1128.9	0.731	incorrect	congruent	Block1	congruent/STIM_027.jpg
1132.339	0.898	correct	congruent	Block1	congruent/STIM_027.jpg
1136.125	1.005	correct	congruent	Block1	congruent/STIM_027.jpg
1140.008	0.886	correct	congruent	Block1	congruent/STIM_027.jpg
1144.207	0.732	correct	congruent	Block1	congruent/STIM_028.jpg
1147.441	0.973	correct	congruent	Block1	congruent/STIM_028.jpg
1152.246	0.905	correct	congruent	Block1	congruent/STIM_028.jpg
1155.946	0.819	correct	congruent	Block1	congruent/STIM_028.jpg
1160.689	0.78	correct	congruent	Block1	congruent/STIM_028.jpg
1163.958	1.024	incorrect	congruent	Block1	congruent/STIM_029.jpg
1168.956	0.948	correct	congruent	Block1	congruent/STIM_029.jpg
1172.121	0.666	correct	congruent	Block1	congruent/STIM_029.jpg
1174.986	0.61	incorrect	congruent	Block1	congruent/STIM_029.jpg
1179.508	0.875	incorrect	congruent	Block1	congruent/STIM_029.jpg
1183.627	1.127	correct	incongruent	Block2	incongruent/STIM_000.jpg
1188.412	1.148	correct	incongruent	Block2	incongruent/STIM_000.jpg
1192.386	0.722	correct	incongruent	Block2	incongruent/STIM_000.jpg
1195.569	0.929	correct	incongruent	Block2	incongruent/STIM_000.jpg
1198.609	1.172	correct	incongruent	Block2	incongruent/STIM_000.jpg
1202.871	1.25	correct	incongruent	Block2	incongruent/STIM_001.jpg
1206.97	1.246	correct	incongruent	Block2	incongruent/STIM_001.jpg
1211.747	0.887	correct	incongruent	Block2	incongruent/STIM_001.jpg
1215.994	0.822	correct	incongruent	Block2	incongruent/STIM_001.jpg
1219.209	0.783	correct	incongruent	Block2	incongruent/STIM_001.jpg
1223.153	1.166	correct	incongruent	Block2	incongruent/STIM_002.jpg
1227.44	0.837	correct	incongruent	Block2	incongruent/STIM_002.jpg
1231.21	0.997	incorrect	incongruent	Block2	incongruent/STIM_002.jpg
1235.79	0.754	correct	incongruent	Block2	incongruent/STIM_002.jpg
1240.363	0.826	correct	incongruent	Block2	incongruent/STIM_002.jpg
1244.071	0.736	correct	incongruent	Block2	incongruent/STIM_003.jpg
1248.024	1.174	correct	incongruent	Block2	incongruent/STIM_003.jpg
1252.94	1.034	correct	incongruent	Block2	incongruent/STIM_003.jpg
1256.257	0.756	correct	incongruent	Block2	incongruent/STIM_003.jpg
1259.311	0.646	correct	incongruent	Block2	incongruent/STIM_003.jpg
1262.788	1.109	correct	incongruent	Block2	incongruent/STIM_004.jpg
1265.978	0.996	incorrect	incongruent	Block2	incongruent/STIM_004.jpg
1270.022	1.213	correct	incongruent	Block2	incongruent/STIM_004.jpg
1273.652	1.073	correct	incongruent	Block2	incongruent/STIM_004.jpg
1277.242	0.703	correct	incongruent	Block2	incongruent/STIM_004.jpg
1281.722	1.244	incorrect	incongruent	Block2	incongruent/STIM_005.jpg
1285.801	0.937	correct	incongruent	Block2	incongruent/STIM_005.jpg
1288.857	1.157	correct	incongruent	Block2	incongruent/STIM_005.jpg
1292.651	1.144	correct	incongruent	Block2	incongruent/STIM_005.jpg
1297.081	0.689	correct	incongruent	Block2	incongruent/STIM_005.jpg
1301.61	1.385	incorrect	incongruent	Block2	incongruent/STIM_006.jpg
1305.772	0.896	correct	incongruent	Block2	incongruent/STIM_006.jpg
1309.304	1.01	incorrect	incongruent	Block2	incongruent/STIM_006.jpg
1312.421	0.913	incorrect	incongruent	Block2	incongruent/STIM_006.jpg
1317.299	0.633	correct	incongruent	Block2	incongruent/STIM_006.jpg
1321.692	1.099	incorrect	incongruent	Block2	incongruent/STIM_007.jpg
1326.789	1.066	correct	incongruent	Block2	incongruent/STIM_007.jpg
1331.0	0.862	correct	incongruent	Block2	incongruent/STIM_007.jpg
1335.462	0.752	correct	incongruent	Block2	incongruent/STIM_007.jpg
1339.709	1.115	correct	incongruent	Block2	incongruent/STIM_007.jpg
1343.803	1.459	incorrect	incongruent	Block2	incongruent/STIM_008.jpg
1347.863	1.069	correct	incongruent	Block2	incongruent/STIM_008.jpg
1352.443	1.216	correct	incongruent	Block2	incongruent/STIM_008.jpg
1356.346	0.946	correct	incongruent	Block2	incongruent/STIM_008.jpg
1359.331	0.874	correct	incongruent	Block2	incongruent/STIM_008.jpg
1362.437	1.087	correct	incongruent	Block2	incongruent/STIM_009.jpg
1366.633	1.165	incorrect	incongruent	Block2	incongruent/STIM_009.jpg
1370.677	0.745	correct	incongruent	Block2	incongruent/STIM_009.jpg
1375.192	1.127	correct	incongruent	Block2	incongruent/STIM_009.jpg
1378.86	0.966	correct	incongruent	Block2	incongruent/STIM_009.jpg
1383.227	1.168	correct	incongruent	Block2	incongruent/STIM_010.jpg
1387.063	0.812	correct	incongruent	Block2	incongruent/STIM_010.jpg
1390.291	1.031	incorrect	incongruent	Block2	incongruent/STIM_010.jpg
1394.379	0.591	correct	incongruent	Block2	incongruent/STIM_010.jpg
1398.878	0.784	incorrect	incongruent	Block2	incongruent/STIM_010.jpg
1402.393	1.21	correct	incongruent	Block2	incongruent/STIM_011.jpg
1407.602	0.79	incorrect	incongruent	Block2	incongruent/STIM_011.jpg
1412.322	0.823	correct	incongruent	Block2	incongruent/STIM_011.jpg
1416.674	1.046	correct	incongruent	Block2	incongruent/STIM_011.jpg
1421.482	0.95	correct	incongruent	Block2	incongruent/STIM_011.jpg
1424.721	1.12	correct	incongruent	Block2	incongruent/STIM_012.jpg
1429.472	1.166	correct	incongruent	Block2	incongruent/STIM_012.jpg
1434.055	0.98	correct	incongruent	Block2	incongruent/STIM_012.jpg
1438.581	1.188	incorrect	incongruent	Block2	incongruent/STIM_012.jpg
1442.613	1.199	correct	incongruent	Block2	incongruent/STIM_012.jpg
1446.947	1.018	correct	incongruent	Block2	incongruent/STIM_013.jpg
1451.66	0.781	correct	incongruent	Block2	incongruent/STIM_013.jpg
1455.336	1.121	incorrect	incongruent	Block2	incongruent/STIM_013.jpg
1459.025	0.921	correct	incongruent	Block2	incongruent/STIM_013.jpg
1462.129	0.87	incorrect	incongruent	Block2	incongruent/STIM_013.jpg
1466.715	1.315	incorrect	incongruent	Block2	incongruent/STIM_014.jpg
1470.659	1.186	correct	incongruent	Block2	incongruent/STIM_014.jpg
1475.622	1.07	incorrect	incongruent	Block2	incongruent/STIM_014.jpg
1480.185	0.918	correct	incongruent	Block2	incongruent/STIM_014.jpg
1484.224	0.831	correct	incongruent	Block2	incongruent/STIM_014.jpg
1488.576	1.091	correct	incongruent	Block2	incongruent/STIM_015.jpg
1493.153	1.202	incorrect	incongruent	Block2	incongruent/STIM_015.jpg
1497.229	0.632	correct	incongruent	Block2	incongruent/STIM_015.jpg
1500.661	1.008	correct	incongruent	Block2	incongruent/STIM_015.jpg
1505.569	1.151	incorrect	incongruent	Block2	incongruent/STIM_015.jpg
1508.939	1.383	correct	incongruent	Block2	incongruent/STIM_016.jpg
1512.933	1.381	correct	incongruent	Block2	incongruent/STIM_016.jpg
1516.65	1.29	correct	incongruent	Block2	incongruent/STIM_016.jpg
1520.998	0.662	correct	incongruent	Block2	incongruent/STIM_016.jpg
1525.43	0.833	correct	incongruent	Block2	incongruent/STIM_016.jpg
1529.432	0.796	correct	incongruent	Block2	incongruent/STIM_017.jpg
1532.447	1.04	correct	incongruent	Block2	incongruent/STIM_017.jpg
1536.25	0.723	correct	incongruent	Block2	incongruent/STIM_017.jpg
1539.362	0.735	correct	incongruent	Block2	incongruent/STIM_017.jpg
1542.591	0.948	correct	incongruent	Block2	incongruent/STIM_017.jpg
1545.577	0.757	correct	incongruent	Block2	incongruent/STIM_018.jpg
1549.329	1.025	correct	incongruent	Block2	incongruent/STIM_018.jpg
1553.384	0.72	correct	incongruent	Block2	incongruent/STIM_018.jpg
1556.29	0.656	correct	incongruent	Block2	incongruent/STIM_018.jpg
1560.243	0.832	correct	incongruent	Block2	incongruent/STIM_018.jpg
1563.52	0.855	correct	incongruent	Block2	incongruent/STIM_019.jpg
1567.084	1.293	correct	incongruent	Block2	incongruent/STIM_019.jpg
1570.951	0.804	correct	incongruent	Block2	incongruent/STIM_019.jpg
1575.157	1.053	incorrect	incongruent	Block2	incongruent/STIM_019.jpg
1578.952	0.931	correct	incongruent	Block2	incongruent/STIM_019.jpg
1583.841	1.112	incorrect	incongruent	Block2	incongruent/STIM_020.jpg
1587.974	0.835	correct	incongruent	Block2	incongruent/STIM_020.jpg
1591.601	1.025	incorrect	incongruent	Block2	incongruent/STIM_020.jpg
1596.505	0.793	correct	incongruent	Block2	incongruent/STIM_020.jpg
1600.453	0.643	correct	incongruent	Block2	incongruent/STIM_020.jpg
1604.389	1.39	correct	incongruent	Block2	incongruent/STIM_021.jpg
1608.38	1.063	incorrect	incongruent	Block2	incongruent/STIM_021.jpg
1611.945	0.971	correct	incongruent	Block2	incongruent/STIM_021.jpg
1616.254	1.103	correct	incongruent	Block2	incongruent/STIM_021.jpg
1619.706	1.192	correct	incongruent	Block2	incongruent/STIM_021.jpg
1624.254	1.142	correct	incongruent	Block2	incongruent/STIM_022.jpg
1628.973	0.892	correct	incongruent	Block2	incongruent/STIM_022.jpg
1632.342	1.086	incorrect	incongruent	Block2	incongruent/STIM_022.jpg
1636.04	0.992	correct	incongruent	Block2	incongruent/STIM_022.jpg
1640.121	0.852	correct	incongruent	Block2	incongruent/STIM_022.jpg
1644.87	0.7	correct	incongruent	Block2	incongruent/STIM_023.jpg
1648.806	0.698	correct	incongruent	Block2	incongruent/STIM_023.jpg
1651.76	0.884	correct	incongruent	Block2	incongruent/STIM_023.jpg
1656.53	0.711	correct	incongruent	Block2	incongruent/STIM_023.jpg
1660.274	1.178	incorrect	incongruent	Block2	incongruent/STIM_023.jpg
1664.466	1.086	correct	incongruent	Block2	incongruent/STIM_024.jpg
1668.971	0.896	incorrect	incongruent	Block2	incongruent/STIM_024.jpg
1671.988	1.201	correct	incongruent	Block2	incongruent/STIM_024.jpg
1676.22	0.63	correct	incongruent	Block2	incongruent/STIM_024.jpg
1680.406	0.956	correct	incongruent	Block2	incongruent/STIM_024.jpg
1683.497	0.792	incorrect	incongruent	Block2	incongruent/STIM_025.jpg
1686.874	1.184	correct	incongruent	Block2	incongruent/STIM_025.jpg
1691.969	1.223	correct	incongruent	Block2	incongruent/STIM_025.jpg
1695.579	0.64	incorrect	incongruent	Block2	incongruent/STIM_025.jpg
1698.342	0.894	correct	incongruent	Block2	incongruent/STIM_025.jpg
1702.883	0.978	incorrect	incongruent	Block2	incongruent/STIM_026.jpg
1707.799	1.055	correct	incongruent	Block2	incongruent/STIM_026.jpg
1711.665	1.194	correct	incongruent	Block2	incongruent/STIM_026.jpg
1715.384	0.687	correct	incongruent	Block2	incongruent/STIM_026.jpg
1718.941	0.638	correct	incongruent	Block2	incongruent/STIM_026.jpg
1722.228	1.39	correct	incongruent	Block2	incongruent/STIM_027.jpg
1726.65	1.37	correct	incongruent	Block2	incongruent/STIM_027.jpg
1731.565	0.954	correct	incongruent	Block2	incongruent/STIM_027.jpg
1736.238	0.946	correct	incongruent	Block2	incongruent/STIM_027.jpg
1740.409	0.823	correct	incongruent	Block2	incongruent/STIM_027.jpg
1744.055	1.152	correct	incongruent	Block2	incongruent/STIM_028.jpg
1748.009	1.343	correct	incongruent	Block2	incongruent/STIM_028.jpg
1753.029	1.115	correct	incongruent	Block2	incongruent/STIM_028.jpg
1756.579	0.784	correct	incongruent	Block2	incongruent/STIM_028.jpg
1760.94	0.883	incorrect	incongruent	Block2	incongruent/STIM_028.jpg
1765.06	1.381	incorrect	incongruent	Block2	incongruent/STIM_029.jpg
1770.281	1.264	correct	incongruent	Block2	incongruent/STIM_029.jpg
1774.36	1.287	incorrect	incongruent	Block2	incongruent/STIM_029.jpg
1778.224	0.801	correct	incongruent	Block2	incongruent/STIM_029.jpg
1782.459	0.91	correct	incongruent	Block2	incongruent/STIM_029.jpg
1786.253	0.942	correct	congruent	Block2	congruent/STIM_000.jpg
1790.951	1.021	correct	congruent	Block2	congruent/STIM_000.jpg
1794.728	0.617	incorrect	congruent	Block2	congruent/STIM_000.jpg
1797.601	0.929	correct	congruent	Block2	congruent/STIM_000.jpg
1802.168	0.784	correct	congruent	Block2	congruent/STIM_000.jpg
1806.221	0.796	correct	congruent	Block2	congruent/STIM_001.jpg
1810.989	0.708	correct	congruent	Block2	congruent/STIM_001.jpg
1814.345	0.965	correct	congruent	Block2	congruent/STIM_001.jpg
1819.243	0.879	correct	congruent	Block2	congruent/STIM_001.jpg
1823.479	0.766	incorrect	congruent	Block2	congruent/STIM_001.jpg
1826.963	1.04	incorrect	congruent	Block2	congruent/STIM_002.jpg
1830.712	0.969	correct	congruent	Block2	congruent/STIM_002.jpg
1834.279	0.8	incorrect	congruent	Block2	congruent/STIM_002.jpg
1838.383	0.923	incorrect	congruent	Block2	congruent/STIM_002.jpg
1843.219	0.946	correct	congruent	Block2	congruent/STIM_002.jpg
1847.817	0.655	correct	congruent	Block2	congruent/STIM_003.jpg
1850.651	0.92	incorrect	congruent	Block2	congruent/STIM_003.jpg
1853.726	0.59	incorrect	congruent	Block2	congruent/STIM_003.jpg
1858.115	0.771	correct	congruent	Block2	congruent/STIM_003.jpg
1861.382	0.783	incorrect	congruent	Block2	congruent/STIM_003.jpg
1864.736	0.638	correct	congruent	Block2	congruent/STIM_004.jpg
1867.401	0.954	correct	congruent	Block2	congruent/STIM_004.jpg
1871.556	0.789	correct	congruent	Block2	congruent/STIM_004.jpg
1875.065	0.986	correct	congruent	Block2	congruent/STIM_004.jpg
1879.215	0.852	correct	congruent	Block2	congruent/STIM_004.jpg
1882.949	0.647	correct	congruent	Block2	congruent/STIM_005.jpg
1885.621	0.636	correct	congruent	Block2	congruent/STIM_005.jpg
1890.2	0.795	correct	congruent	Block2	congruent/STIM_005.jpg
1893.203	0.904	correct	congruent	Block2	congruent/STIM_005.jpg
1897.652	0.792	incorrect	congruent	Block2	congruent/STIM_005.jpg
1900.855	0.727	correct	congruent	Block2	congruent/STIM_006.jpg
1904.444	0.666	correct	congruent	Block2	congruent/STIM_006.jpg
1907.187	0.896	correct	congruent	Block2	congruent/STIM_006.jpg
1911.72	0.852	correct	congruent	Block2	congruent/STIM_006.jpg
1916.382	0.67	correct	congruent	Block2	congruent/STIM_006.jpg
1919.075	0.982	incorrect	congruent	Block2	congruent/STIM_007.jpg
1922.083	0.914	correct	congruent	Block2	congruent/STIM_007.jpg
1925.222	0.686	correct	congruent	Block2	congruent/STIM_007.jpg
1928.097	0.706	correct	congruent	Block2	congruent/STIM_007.jpg
1931.661	0.985	incorrect	congruent	Block2	congruent/STIM_007.jpg
1935.124	0.944	correct	congruent	Block2	congruent/STIM_008.jpg
1939.601	0.74	correct	congruent	Block2	congruent/STIM_008.jpg
1943.197	0.612	correct	congruent	Block2	congruent/STIM_008.jpg
1946.335	0.76	incorrect	congruent	Block2	congruent/STIM_008.jpg
1950.401	1.031	correct	congruent	Block2	congruent/STIM_008.jpg
1953.875	0.616	correct	congruent	Block2	congruent/STIM_009.jpg
1958.125	0.693	correct	congruent	Block2	congruent/STIM_009.jpg
1961.123	0.666	correct	congruent	Block2	congruent/STIM_009.jpg
1964.146	0.909	correct	congruent	Block2	congruent/STIM_009.jpg
1967.385	0.851	correct	congruent	Block2	congruent/STIM_009.jpg
1972.037	0.784	correct	congruent	Block2	congruent/STIM_010.jpg
1975.877	0.742	incorrect	congruent	Block2	congruent/STIM_010.jpg
1980.246	0.959	correct	congruent	Block2	congruent/STIM_010.jpg
1985.115	0.661	correct	congruent	Block2	congruent/STIM_010.jpg
1988.756	0.621	correct	congruent	Block2	congruent/STIM_010.jpg
1992.48	1.039	incorrect	congruent	Block2	congruent/STIM_011.jpg
1997.286	1.011	correct	congruent	Block2	congruent/STIM_011.jpg
2000.505	0.675	correct	congruent	Block2	congruent/STIM_011.jpg
2003.994	1.033	incorrect	congruent	Block2	congruent/STIM_011.jpg
2008.054	0.899	correct	congruent	Block2	congruent/STIM_011.jpg
2012.565	0.819	correct	congruent	Block2	congruent/STIM_012.jpg
2017.184	0.583	correct	congruent	Block2	congruent/STIM_012.jpg
2021.493	1.01	correct	congruent	Block2	congruent/STIM_012.jpg
2026.077	0.875	correct	congruent	Block2	congruent/STIM_012.jpg
2029.11	0.848	incorrect	congruent	Block2	congruent/STIM_012.jpg
2033.102	0.866	correct	congruent	Block2	congruent/STIM_013.jpg
2037.833	0.83	correct	congruent	Block2	congruent/STIM_013.jpg
2040.993	0.695	correct	congruent	Block2	congruent/STIM_013.jpg
2044.676	0.742	correct	congruent	Block2	congruent/STIM_013.jpg
2047.548	0.904	incorrect	congruent	Block2	congruent/STIM_013.jpg
2050.87	0.712	correct	congruent	Block2	congruent/STIM_014.jpg
2055.448	0.836	correct	congruent	Block2	congruent/STIM_014.jpg
2058.865	1.024	incorrect	congruent	Block2	congruent/STIM_014.jpg
2063.096	0.674	incorrect	congruent	Block2	congruent/STIM_014.jpg
2067.427	0.668	incorrect	congruent	Block2	congruent/STIM_014.jpg
2071.518	0.628	correct	congruent	Block2	congruent/STIM_015.jpg
2074.966	0.88	correct	congruent	Block2	congruent/STIM_015.jpg
2077.999	0.583	correct	congruent	Block2	congruent/STIM_015.jpg
2081.096	0.769	correct	congruent	Block2	congruent/STIM_015.jpg
2085.656	0.653	correct	congruent	Block2	congruent/STIM_015.jpg
2090.129	1.039	incorrect	congruent	Block2	congruent/STIM_016.jpg
2094.0	0.957	incorrect	congruent	Block2	congruent/STIM_016.jpg
2097.016	0.701	correct	congruent	Block2	congruent/STIM_016.jpg
2101.058	0.75	correct	congruent	Block2	congruent/STIM_016.jpg
2104.381	0.639	correct	congruent	Block2	congruent/STIM_016.jpg
2108.54	0.856	incorrect	congruent	Block2	congruent/STIM_017.jpg
2111.931	0.649	incorrect	congruent	Block2	congruent/STIM_017.jpg
2116.316	0.787	incorrect	congruent	Block2	congruent/STIM_017.jpg
2119.112	0.759	correct	congruent	Block2	congruent/STIM_017.jpg
2123.078	1.036	correct	congruent	Block2	congruent/STIM_017.jpg
2127.61	0.96	correct	congruent	Block2	congruent/STIM_018.jpg
2132.227	1.002	correct	congruent	Block2	congruent/STIM_018.jpg
2136.733	0.609	incorrect	congruent	Block2	congruent/STIM_018.jpg
2140.365	0.66	correct	congruent	Block2	congruent/STIM_018.jpg
2143.767	0.648	correct	congruent	Block2	congruent/STIM_018.jpg
2147.181	1.011	incorrect	congruent	Block2	congruent/STIM_019.jpg
2151.338	0.801	correct	congruent	Block2	congruent/STIM_019.jpg
2154.525	0.897	incorrect	congruent	Block2	congruent/STIM_019.jpg
2158.14	1.017	correct	congruent	Block2	congruent/STIM_019.jpg
2162.136	0.651	correct	congruent	Block2	congruent/STIM_019.jpg
2165.745	0.687	correct	congruent	Block2	congruent/STIM_020.jpg
2170.146	0.952	correct	congruent	Block2	congruent/STIM_020.jpg
2174.144	0.874	correct	congruent	Block2	congruent/STIM_020.jpg
2178.915	0.897	incorrect	congruent	Block2	congruent/STIM_020.jpg
2183.783	0.798	correct	congruent	Block2	congruent/STIM_020.jpg
2186.963	0.671	correct	congruent	Block2	congruent/STIM_021.jpg
2189.784	0.76	incorrect	congruent	Block2	congruent/STIM_021.jpg
2193.49	0.813	incorrect	congruent	Block2	congruent/STIM_021.jpg
2197.134	0.591	correct	congruent	Block2	congruent/STIM_021.jpg
2201.258	0.763	correct	congruent	Block2	congruent/STIM_021.jpg
2205.827	0.942	correct	congruent	Block2	congruent/STIM_022.jpg
2210.74	1.015	incorrect	congruent	Block2	congruent/STIM_022.jpg
2214.837	0.844	correct	congruent	Block2	congruent/STIM_022.jpg
2219.425	0.59	correct	congruent	Block2	congruent/STIM_022.jpg
2222.705	0.998	incorrect	congruent	Block2	congruent/STIM_022.jpg
2226.476	0.641	correct	congruent	Block2	congruent/STIM_023.jpg
2230.102	0.897	incorrect	congruent	Block2	congruent/STIM_023.jpg
2233.595	0.933	incorrect	congruent	Block2	congruent/STIM_023.jpg
2237.203	0.729	correct	congruent	Block2	congruent/STIM_023.jpg
2241.045	0.838	correct	congruent	Block2	congruent/STIM_023.jpg
2244.377	0.66	correct	congruent	Block2	congruent/STIM_024.jpg
2248.045	0.656	correct	congruent	Block2	congruent/STIM_024.jpg
2251.697	0.588	correct	congruent	Block2	congruent/STIM_024.jpg
2255.059	0.894	correct	congruent	Block2	congruent/STIM_024.jpg
2259.322	0.928	correct	congruent	Block2	congruent/STIM_024.jpg
2263.827	0.951	incorrect	congruent	Block2	congruent/STIM_025.jpg
2266.842	0.742	correct	congruent	Block2	congruent/STIM_025.jpg
2270.619	0.84	incorrect	congruent	Block2	congruent/STIM_025.jpg
2274.625	0.608	incorrect	congruent	Block2	congruent/STIM_025.jpg
2277.869	0.65	correct	congruent	Block2	congruent/STIM_025.jpg
2280.942	0.649	incorrect	congruent	Block2	congruent/STIM_026.jpg
2284.932	0.736	correct	congruent	Block2	congruent/STIM_026.jpg
2288.222	0.953	correct	congruent	Block2	congruent/STIM_026.jpg
2292.726	0.72	correct	congruent	Block2	congruent/STIM_026.jpg
2297.083	0.794	correct	congruent	Block2	congruent/STIM_026.jpg
2301.562	0.701	correct	congruent	Block2	congruent/STIM_027.jpg
2304.729	0.633	correct	congruent	Block2	congruent/STIM_027.jpg
2308.995	1.026	correct	congruent	Block2	congruent/STIM_027.jpg
2313.449	0.914	correct	congruent	Block2	congruent/STIM_027.jpg
2317.138	0.833	correct	congruent	Block2	congruent/STIM_027.jpg
2321.953	0.862	incorrect	congruent	Block2	congruent/STIM_028.jpg
2325.221	1.039	correct	congruent	Block2	congruent/STIM_028.jpg
2329.281	0.984	correct	congruent	Block2	congruent/STIM_028.jpg
2334.022	0.738	incorrect	congruent	Block2	congruent/STIM_028.jpg
2337.493	0.63	correct	congruent	Block2	congruent/STIM_028.jpg
2340.784	0.904	incorrect	congruent	Block2	congruent/STIM_029.jpg
2345.04	0.794	correct	congruent	Block2	congruent/STIM_029.jpg
2347.891	0.621	incorrect	congruent	Block2	congruent/STIM_029.jpg
2351.522	0.738	correct	congruent	Block2	congruent/STIM_029.jpg
2356.054	0.58	correct	congruent	Block2	congruent/STIM_029.jpg
2359.214	0.865	correct	incongruent	Block3	incongruent/STIM_000.jpg
2363.824	1.212	correct	incongruent	Block3	incongruent/STIM_000.jpg
2368.237	0.869	correct	incongruent	Block3	incongruent/STIM_000.jpg
2372.242	0.828	incorrect	incongruent	Block3	incongruent/STIM_000.jpg
2375.277	1.075	correct	incongruent	Block3	incongruent/STIM_000.jpg
2379.899	1.005	correct	incongruent	Block3	incongruent/STIM_001.jpg
2384.122	1.066	correct	incongruent	Block3	incongruent/STIM_001.jpg
2389.107	0.619	incorrect	incongruent	Block3	incongruent/STIM_001.jpg
2392.884	0.877	incorrect	incongruent	Block3	incongruent/STIM_001.jpg
2396.525	1.061	correct	incongruent	Block3	incongruent/STIM_001.jpg
2399.952	0.789	correct	incongruent	Block3	incongruent/STIM_002.jpg
2403.95	1.073	correct	incongruent	Block3	incongruent/STIM_002.jpg
2408.244	0.766	correct	incongruent	Block3	incongruent/STIM_002.jpg
2411.578	0.862	correct	incongruent	Block3	incongruent/STIM_002.jpg
2414.951	0.76	correct	incongruent	Block3	incongruent/STIM_002.jpg
2417.962	1.146	correct	incongruent	Block3	incongruent/STIM_003.jpg
2422.082	0.69	correct	incongruent	Block3	incongruent/STIM_003.jpg
2425.515	1.192	correct	incongruent	Block3	incongruent/STIM_003.jpg
2428.778	0.666	correct	incongruent	Block3	incongruent/STIM_003.jpg
2431.956	1.131	correct	incongruent	Block3	incongruent/STIM_003.jpg
2435.346	1.035	incorrect	incongruent	Block3	incongruent/STIM_004.jpg
2438.593	0.879	incorrect	incongruent	Block3	incongruent/STIM_004.jpg
2442.288	0.689	correct	incongruent	Block3	incongruent/STIM_004.jpg
2445.285	1.17	correct	incongruent	Block3	incongruent/STIM_004.jpg
2450.142	0.96	correct	incongruent	Block3	incongruent/STIM_004.jpg
2454.032	1.127	incorrect	incongruent	Block3	incongruent/STIM_005.jpg
2458.687	1.194	correct	incongruent	Block3	incongruent/STIM_005.jpg
2462.968	0.981	correct	incongruent	Block3	incongruent/STIM_005.jpg
2466.619	0.866	correct	incongruent	Block3	incongruent/STIM_005.jpg
2469.847	0.954	correct	incongruent	Block3	incongruent/STIM_005.jpg
2474.051	0.83	correct	incongruent	Block3	incongruent/STIM_006.jpg
2478.014	1.199	correct	incongruent	Block3	incongruent/STIM_006.jpg
2481.903	0.944	correct	incongruent	Block3	incongruent/STIM_006.jpg
2485.491	0.981	correct	incongruent	Block3	incongruent/STIM_006.jpg
2489.201	0.659	correct	incongruent	Block3	incongruent/STIM_006.jpg
2493.292	0.944	correct	incongruent	Block3	incongruent/STIM_007.jpg
2497.115	0.759	incorrect	incongruent	Block3	incongruent/STIM_007.jpg
2501.688	0.976	incorrect	incongruent	Block3	incongruent/STIM_007.jpg
2505.14	1.185	correct	incongruent	Block3	incongruent/STIM_007.jpg
2508.515	0.746	correct	incongruent	Block3	incongruent/STIM_007.jpg
2511.756	1.018	correct	incongruent	Block3	incongruent/STIM_008.jpg
2516.757	0.937	correct	incongruent	Block3	incongruent/STIM_008.jpg
2520.707	0.777	incorrect	incongruent	Block3	incongruent/STIM_008.jpg
2525.016	1.043	correct	incongruent	Block3	incongruent/STIM_008.jpg
2528.942	0.593	correct	incongruent	Block3	incongruent/STIM_008.jpg
2532.669	0.795	incorrect	incongruent	Block3	incongruent/STIM_009.jpg
2536.861	1.137	incorrect	incongruent	Block3	incongruent/STIM_009.jpg
2540.122	0.92	correct	incongruent	Block3	incongruent/STIM_009.jpg
2543.28	0.582	correct	incongruent	Block3	incongruent/STIM_009.jpg
2546.548	0.762	correct	incongruent	Block3	incongruent/STIM_009.jpg
2550.547	0.848	correct	incongruent	Block3	incongruent/STIM_010.jpg
2554.62	1.105	correct	incongruent	Block3	incongruent/STIM_010.jpg
2558.797	0.827	correct	incongruent	Block3	incongruent/STIM_010.jpg
2562.93	0.725	correct	incongruent	Block3	incongruent/STIM_010.jpg
2567.389	0.886	correct	incongruent	Block3	incongruent/STIM_010.jpg
2570.776	1.204	correct	incongruent	Block3	incongruent/STIM_011.jpg
2574.92	0.705	incorrect	incongruent	Block3	incongruent/STIM_011.jpg
2578.998	0.694	correct	incongruent	Block3	incongruent/STIM_011.jpg
2582.973	1.152	correct	incongruent	Block3	incongruent/STIM_011.jpg
2586.899	0.626	correct	incongruent	Block3	incongruent/STIM_011.jpg
2591.036	0.882	correct	incongruent	Block3	incongruent/STIM_012.jpg
2594.07	0.617	incorrect	incongruent	Block3	incongruent/STIM_012.jpg
2597.276	0.82	correct	incongruent	Block3	incongruent/STIM_012.jpg
2602.08	0.771	correct	incongruent	Block3	incongruent/STIM_012.jpg
2606.092	0.886	correct	incongruent	Block3	incongruent/STIM_012.jpg
2609.501	0.943	correct	incongruent	Block3	incongruent/STIM_013.jpg
2614.071	0.994	correct	incongruent	Block3	incongruent/STIM_013.jpg
2617.588	0.943	correct	incongruent	Block3	incongruent/STIM_013.jpg
2620.741	1.178	correct	incongruent	Block3	incongruent/STIM_013.jpg
2623.938	1.156	incorrect	incongruent	Block3	incongruent/STIM_013.jpg
2628.413	0.602	correct	incongruent	Block3	incongruent/STIM_014.jpg
2632.539	1.005	correct	incongruent	Block3	incongruent/STIM_014.jpg
2636.242	1.193	correct	incongruent	Block3	incongruent/STIM_014.jpg
2640.014	0.946	correct	incongruent	Block3	incongruent/STIM_014.jpg
2644.304	0.68	correct	incongruent	Block3	incongruent/STIM_014.jpg
2648.789	0.612	incorrect	incongruent	Block3	incongruent/STIM_015.jpg
2652.652	0.653	incorrect	incongruent	Block3	incongruent/STIM_015.jpg
2656.945	1.054	correct	incongruent	Block3	incongruent/STIM_015.jpg
2661.786	0.812	correct	incongruent	Block3	incongruent/STIM_015.jpg
2665.848	0.914	correct	incongruent	Block3	incongruent/STIM_015.jpg
2669.734	0.927	correct	incongruent	Block3	incongruent/STIM_016.jpg
2674.398	0.711	correct	incongruent	Block3	incongruent/STIM_016.jpg
2677.253	0.949	correct	incongruent	Block3	incongruent/STIM_016.jpg
2680.879	1.207	correct	incongruent	Block3	incongruent/STIM_016.jpg
2685.507	0.807	correct	incongruent	Block3	incongruent/STIM_016.jpg
2689.135	1.092	incorrect	incongruent	Block3	incongruent/STIM_017.jpg
2693.055	1.131	correct	incongruent	Block3	incongruent/STIM_017.jpg
2696.256	0.569	correct	incongruent	Block3	incongruent/STIM_017.jpg
2700.626	0.978	correct	incongruent	Block3	incongruent/STIM_017.jpg
2704.879	1.122	correct	incongruent	Block3	incongruent/STIM_017.jpg
2709.489	0.891	correct	incongruent	Block3	incongruent/STIM_018.jpg
2712.83	0.597	incorrect	incongruent	Block3	incongruent/STIM_018.jpg
2717.24	0.9	correct	incongruent	Block3	incongruent/STIM_018.jpg
2720.486	1.088	correct	incongruent	Block3	incongruent/STIM_018.jpg
2725.453	0.833	correct	incongruent	Block3	incongruent/STIM_018.jpg
2729.057	0.993	correct	incongruent	Block3	incongruent/STIM_019.jpg
2733.675	0.864	correct	incongruent	Block3	incongruent/STIM_019.jpg
2738.456	1.143	correct	incongruent	Block3	incongruent/STIM_019.jpg
2742.306	0.748	correct	incongruent	Block3	incongruent/STIM_019.jpg
2745.459	0.594	correct	incongruent	Block3	incongruent/STIM_019.jpg
2748.448	0.793	correct	incongruent	Block3	incongruent/STIM_020.jpg
2753.086	0.7	incorrect	incongruent	Block3	incongruent/STIM_020.jpg
2756.374	1.095	correct	incongruent	Block3	incongruent/STIM_020.jpg
2760.873	0.832	correct	incongruent	Block3	incongruent/STIM_020.jpg
2764.68	1.073	correct	incongruent	Block3	incongruent/STIM_020.jpg
2768.072	1.174	correct	incongruent	Block3	incongruent/STIM_021.jpg
2772.17	0.659	correct	incongruent	Block3	incongruent/STIM_021.jpg
2776.5	0.836	correct	incongruent	Block3	incongruent/STIM_021.jpg
2780.998	0.665	correct	incongruent	Block3	incongruent/STIM_021.jpg
2783.884	1.08	correct	incongruent	Block3	incongruent/STIM_021.jpg
2788.092	1.085	correct	incongruent	Block3	incongruent/STIM_022.jpg
2791.479	0.646	correct	incongruent	Block3	incongruent/STIM_022.jpg
2794.445	0.625	correct	incongruent	Block3	incongruent/STIM_022.jpg
2797.727	0.651	correct	incongruent	Block3	incongruent/STIM_022.jpg
2801.234	0.698	correct	incongruent	Block3	incongruent/STIM_022.jpg
2805.033	1.023	correct	incongruent	Block3	incongruent/STIM_023.jpg
2809.333	0.881	correct	incongruent	Block3	incongruent/STIM_023.jpg
2812.911	0.577	correct	incongruent	Block3	incongruent/STIM_023.jpg
2816.853	1.208	correct	incongruent	Block3	incongruent/STIM_023.jpg
2821.866	0.628	correct	incongruent	Block3	incongruent/STIM_023.jpg
2825.367	0.802	correct	incongruent	Block3	incongruent/STIM_024.jpg
2829.554	0.687	correct	incongruent	Block3	incongruent/STIM_024.jpg
2832.635	0.858	correct	incongruent	Block3	incongruent/STIM_024.jpg
2837.416	0.714	incorrect	incongruent	Block3	incongruent/STIM_024.jpg
2840.137	0.981	correct	incongruent	Block3	incongruent/STIM_024.jpg
2845.099	1.014	correct	incongruent	Block3	incongruent/STIM_025.jpg
2848.26	0.713	correct	incongruent	Block3	incongruent/STIM_025.jpg
2851.405	0.938	correct	incongruent	Block3	incongruent/STIM_025.jpg
2854.765	0.781	correct	incongruent	Block3	incongruent/STIM_025.jpg
2858.993	0.782	correct	incongruent	Block3	incongruent/STIM_025.jpg
2862.507	0.79	correct	incongruent	Block3	incongruent/STIM_026.jpg
2866.785	0.955	incorrect	incongruent	Block3	incongruent/STIM_026.jpg
2870.98	1.142	incorrect	incongruent	Block3	incongruent/STIM_026.jpg
2875.104	0.571	correct	incongruent	Block3	incongruent/STIM_026.jpg
2879.496	0.682	correct	incongruent	Block3	incongruent/STIM_026.jpg
2883.04	0.689	correct	incongruent	Block3	incongruent/STIM_027.jpg
2887.704	0.885	correct	incongruent	Block3	incongruent/STIM_027.jpg
2892.252	0.936	correct	incongruent	Block3	incongruent/STIM_027.jpg
2895.831	1.154	correct	incongruent	Block3	incongruent/STIM_027.jpg
2900.093	1.048	correct	incongruent	Block3	incongruent/STIM_027.jpg
2904.906	0.585	correct	incongruent	Block3	incongruent/STIM_028.jpg
2907.62	1.186	incorrect	incongruent	Block3	incongruent/STIM_028.jpg
2911.391	0.906	correct	incongruent	Block3	incongruent/STIM_028.jpg
2915.025	0.705	correct	incongruent	Block3	incongruent/STIM_028.jpg
2919.131	0.8	correct	incongruent	Block3	incongruent/STIM_028.jpg
2923.309	1.067	correct	incongruent	Block3	incongruent/STIM_029.jpg
2928.354	0.848	incorrect	incongruent	Block3	incongruent/STIM_029.jpg
2932.718	1.13	incorrect	incongruent	Block3	incongruent/STIM_029.jpg
2937.017	0.881	correct	incongruent	Block3	incongruent/STIM_029.jpg
2940.263	1.188	correct	incongruent	Block3	incongruent/STIM_029.jpg
2943.861	0.638	correct	congruent	Block3	congruent/STIM_000.jpg
2947.003	0.756	correct	congruent	Block3	congruent/STIM_000.jpg
2950.156	0.69	correct	congruent	Block3	congruent/STIM_000.jpg
2953.293	0.722	incorrect	congruent	Block3	congruent/STIM_000.jpg
2957.877	1.034	incorrect	congruent	Block3	congruent/STIM_000.jpg
2962.3	0.931	incorrect	congruent	Block3	congruent/STIM_001.jpg
2966.781	1.022	correct	congruent	Block3	congruent/STIM_001.jpg
2971.526	0.675	correct	congruent	Block3	congruent/STIM_001.jpg
2975.269	0.632	incorrect	congruent	Block3	congruent/STIM_001.jpg
2978.585	0.59	correct	congruent	Block3	congruent/STIM_001.jpg
2982.122	0.598	correct	congruent	Block3	congruent/STIM_002.jpg
2986.118	0.656	correct	congruent	Block3	congruent/STIM_002.jpg
2990.261	0.623	correct	congruent	Block3	congruent/STIM_002.jpg
2994.489	0.669	correct	congruent	Block3	congruent/STIM_002.jpg
2998.707	1.031	correct	congruent	Block3	congruent/STIM_002.jpg
3002.06	0.778	correct	congruent	Block3	congruent/STIM_003.jpg
3006.666	0.781	incorrect	congruent	Block3	congruent/STIM_003.jpg
3011.096	0.961	incorrect	congruent	Block3	congruent/STIM_003.jpg
3015.768	1.035	incorrect	congruent	Block3	congruent/STIM_003.jpg
3020.039	1.004	correct	congruent	Block3	congruent/STIM_003.jpg
3024.063	0.94	correct	congruent	Block3	congruent/STIM_004.jpg
3028.874	1.025	incorrect	congruent	Block3	congruent/STIM_004.jpg
3032.216	0.956	correct	congruent	Block3	congruent/STIM_004.jpg
3036.131	0.873	incorrect	congruent	Block3	congruent/STIM_004.jpg
3039.633	1.014	correct	congruent	Block3	congruent/STIM_004.jpg
3043.614	0.779	incorrect	congruent	Block3	congruent/STIM_005.jpg
3046.524	1.024	incorrect	congruent	Block3	congruent/STIM_005.jpg
3051.204	0.84	correct	congruent	Block3	congruent/STIM_005.jpg
3055.436	0.796	correct	congruent	Block3	congruent/STIM_005.jpg
3058.804	0.949	correct	congruent	Block3	congruent/STIM_005.jpg
3062.62	0.743	incorrect	congruent	Block3	congruent/STIM_006.jpg
3066.231	0.88	correct	congruent	Block3	congruent/STIM_006.jpg
3070.119	1.034	incorrect	congruent	Block3	congruent/STIM_006.jpg
3074.948	1.008	correct	congruent	Block3	congruent/STIM_006.jpg
3079.501	0.758	correct	congruent	Block3	congruent/STIM_006.jpg
3082.533	0.632	incorrect	congruent	Block3	congruent/STIM_007.jpg
3085.707	0.629	correct	congruent	Block3	congruent/STIM_007.jpg
3088.579	0.741	correct	congruent	Block3	congruent/STIM_007.jpg
3092.167	0.688	correct	congruent	Block3	congruent/STIM_007.jpg
3096.791	0.584	correct	congruent	Block3	congruent/STIM_007.jpg
3100.118	0.624	correct	congruent	Block3	congruent/STIM_008.jpg
3103.489	0.62	correct	congruent	Block3	congruent/STIM_008.jpg
3106.716	0.879	correct	congruent	Block3	congruent/STIM_008.jpg
3109.991	0.843	correct	congruent	Block3	congruent/STIM_008.jpg
3114.317	0.812	correct	congruent	Block3	congruent/STIM_008.jpg
3117.918	0.815	correct	congruent	Block3	congruent/STIM_009.jpg
3120.779	0.963	correct	congruent	Block3	congruent/STIM_009.jpg
3125.351	1.04	correct	congruent	Block3	congruent/STIM_009.jpg
3129.52	0.658	correct	congruent	Block3	congruent/STIM_009.jpg
3133.068	0.816	correct	congruent	Block3	congruent/STIM_009.jpg
3137.245	0.633	correct	congruent	Block3	congruent/STIM_010.jpg
3141.589	0.898	correct	congruent	Block3	congruent/STIM_010.jpg
3146.29	0.633	correct	congruent	Block3	congruent/STIM_010.jpg
3149.572	0.799	correct	congruent	Block3	congruent/STIM_010.jpg
3154.046	0.941	correct	congruent	Block3	congruent/STIM_010.jpg
3158.714	0.709	correct	congruent	Block3	congruent/STIM_011.jpg
3163.137	0.988	incorrect	congruent	Block3	congruent/STIM_011.jpg
3166.71	0.993	correct	congruent	Block3	congruent/STIM_011.jpg
3170.612	0.837	incorrect	congruent	Block3	congruent/STIM_011.jpg
3174.461	0.667	incorrect	congruent	Block3	congruent/STIM_011.jpg
3178.521	0.72	correct	congruent	Block3	congruent/STIM_012.jpg
3182.934	0.662	incorrect	congruent	Block3	congruent/STIM_012.jpg
3186.832	0.659	correct	congruent	Block3	congruent/STIM_012.jpg
3189.927	0.753	correct	congruent	Block3	congruent/STIM_012.jpg
3194.586	0.629	correct	congruent	Block3	congruent/STIM_012.jpg
3198.866	0.751	correct	congruent	Block3	congruent/STIM_013.jpg
3201.647	0.938	correct	congruent	Block3	congruent/STIM_013.jpg
3205.605	0.95	correct	congruent	Block3	congruent/STIM_013.jpg
3209.429	0.607	incorrect	congruent	Block3	congruent/STIM_013.jpg
3212.753	0.741	correct	congruent	Block3	congruent/STIM_013.jpg
3215.566	1.009	correct	congruent	Block3	congruent/STIM_014.jpg
3218.761	0.69	correct	congruent	Block3	congruent/STIM_014.jpg
3222.07	0.778	incorrect	congruent	Block3	congruent/STIM_014.jpg
3226.548	0.594	correct	congruent	Block3	congruent/STIM_014.jpg
3230.699	0.708	incorrect	congruent	Block3	congruent/STIM_014.jpg
3235.142	0.617	incorrect	congruent	Block3	congruent/STIM_015.jpg
3239.43	1.024	incorrect	congruent	Block3	congruent/STIM_015.jpg
3242.579	0.633	correct	congruent	Block3	congruent/STIM_015.jpg
3246.884	0.618	correct	congruent	Block3	congruent/STIM_015.jpg
3249.878	0.595	correct	congruent	Block3	congruent/STIM_015.jpg
3253.373	0.648	correct	congruent	Block3	congruent/STIM_016.jpg
3257.602	0.777	incorrect	congruent	Block3	congruent/STIM_016.jpg
3261.009	0.765	incorrect	congruent	Block3	congruent/STIM_016.jpg
3265.624	0.581	incorrect	congruent	Block3	congruent/STIM_016.jpg
3270.146	1.04	correct	congruent	Block3	congruent/STIM_016.jpg
3274.506	0.657	incorrect	congruent	Block3	congruent/STIM_017.jpg
3278.878	0.695	correct	congruent	Block3	congruent/STIM_017.jpg
3283.168	0.72	correct	congruent	Block3	congruent/STIM_017.jpg
3287.213	0.749	correct	congruent	Block3	congruent/STIM_017.jpg
3291.387	0.733	correct	congruent	Block3	congruent/STIM_017.jpg
3294.81	0.91	correct	congruent	Block3	congruent/STIM_018.jpg
3297.862	0.912	correct	congruent	Block3	congruent/STIM_018.jpg
3301.091	0.601	correct	congruent	Block3	congruent/STIM_018.jpg
3304.389	0.686	incorrect	congruent	Block3	congruent/STIM_018.jpg
3307.083	0.613	correct	congruent	Block3	congruent/STIM_018.jpg
3309.757	0.706	correct	congruent	Block3	congruent/STIM_019.jpg
3313.293	0.925	incorrect	congruent	Block3	congruent/STIM_019.jpg
3317.11	0.723	correct	congruent	Block3	congruent/STIM_019.jpg
3319.929	0.932	incorrect	congruent	Block3	congruent/STIM_019.jpg
3324.029	0.744	correct	congruent	Block3	congruent/STIM_019.jpg
3326.895	0.69	incorrect	congruent	Block3	congruent/STIM_020.jpg
3329.811	0.956	correct	congruent	Block3	congruent/STIM_020.jpg
3334.595	0.967	incorrect	congruent	Block3	congruent/STIM_020.jpg
3338.297	0.874	correct	congruent	Block3	congruent/STIM_020.jpg
3342.973	0.892	correct	congruent	Block3	congruent/STIM_020.jpg
3345.965	0.73	incorrect	congruent	Block3	congruent/STIM_021.jpg
3349.852	0.662	correct	congruent	Block3	congruent/STIM_021.jpg
3353.294	0.87	incorrect	congruent	Block3	congruent/STIM_021.jpg
3357.907	0.682	incorrect	congruent	Block3	congruent/STIM_021.jpg
3360.727	0.86	correct	congruent	Block3	congruent/STIM_021.jpg
3364.354	0.658	correct	congruent	Block3	congruent/STIM_022.jpg
3367.607	0.901	correct	congruent	Block3	congruent/STIM_022.jpg
3370.875	0.953	correct	congruent	Block3	congruent/STIM_022.jpg
3374.954	0.862	incorrect	congruent	Block3	congruent/STIM_022.jpg
3378.909	0.838	correct	congruent	Block3	congruent/STIM_022.jpg
3382.003	0.728	incorrect	congruent	Block3	congruent/STIM_023.jpg
3384.87	1.012	correct	congruent	Block3	congruent/STIM_023.jpg
3388.093	0.674	correct	congruent	Block3	congruent/STIM_023.jpg
3391.47	0.944	incorrect	congruent	Block3	congruent/STIM_023.jpg
3395.923	0.637	correct	congruent	Block3	congruent/STIM_023.jpg
3399.996	0.667	correct	congruent	Block3	congruent/STIM_024.jpg
3402.774	1.041	correct	congruent	Block3	congruent/STIM_024.jpg
3405.913	0.744	correct	congruent	Block3	congruent/STIM_024.jpg
3410.582	0.984	incorrect	congruent	Block3	congruent/STIM_024.jpg
3414.247	0.629	correct	congruent	Block3	congruent/STIM_024.jpg
3417.868	0.939	correct	congruent	Block3	congruent/STIM_025.jpg
3421.15	0.608	correct	congruent	Block3	congruent/STIM_025.jpg
3425.193	0.916	correct	congruent	Block3	congruent/STIM_025.jpg
3429.892	0.77	correct	congruent	Block3	congruent/STIM_025.jpg
3432.732	0.651	incorrect	congruent	Block3	congruent/STIM_025.jpg
3436.934	0.682	incorrect	congruent	Block3	congruent/STIM_026.jpg
3441.022	1.011	correct	congruent	Block3	congruent/STIM_026.jpg
3445.506	1.026	incorrect	congruent	Block3	congruent/STIM_026.jpg
3450.217	0.739	correct	congruent	Block3	congruent/STIM_026.jpg
3453.029	0.688	incorrect	congruent	Block3	congruent/STIM_026.jpg
3457.528	0.74	correct	congruent	Block3	congruent/STIM_027.jpg
3460.627	0.716	incorrect	congruent	Block3	congruent/STIM_027.jpg
3464.014	0.994	correct	congruent	Block3	congruent/STIM_027.jpg
3467.288	1.027	correct	congruent	Block3	congruent/STIM_027.jpg
3471.179	0.894	correct	congruent	Block3	congruent/STIM_027.jpg
3475.625	1.033	correct	congruent	Block3	congruent/STIM_028.jpg
3479.398	0.964	correct	congruent	Block3	congruent/STIM_028.jpg
3482.599	0.856	incorrect	congruent	Block3	congruent/STIM_028.jpg
3487.452	0.869	correct	congruent	Block3	congruent/STIM_028.jpg
3492.151	0.619	incorrect	congruent	Block3	congruent/STIM_028.jpg
3495.049	0.92	correct	congruent	Block3	congruent/STIM_029.jpg
3498.608	0.638	correct	congruent	Block3	congruent/STIM_029.jpg
3503.181	0.899	correct	congruent	Block3	congruent/STIM_029.jpg
3506.439	1.009	incorrect	congruent	Block3	congruent/STIM_029.jpg
3511.069	0.705	correct	congruent	Block3	congruent/STIM_029.jpg
