onset	duration	accuracy	trial_type	learning_stage	stimulus
0.0	1.38	correct	incongruent	Block1	incongruent/STIM_000.jpg
4.571	1.038	correct	incongruent	Block1	incongruent/STIM_000.jpg
9.355	1.331	correct	incongruent	Block1	incongruent/STIM_000.jpg
12.969	1.067	correct	incongruent	Block1	incongruent/STIM_000.jpg
16.185	0.971	correct	incongruent	Block1	incongruent/STIM_000.jpg
20.219	1.384	incorrect	incongruent	Block1	incongruent/STIM_001.jpg
24.134	1.335	incorrect	incongruent	Block1	incongruent/STIM_001.jpg
28.934	1.302	correct	incongruent	Block1	incongruent/STIM_001.jpg
32.514	0.923	correct	incongruent	Block1	incongruent/STIM_001.jpg
35.767	0.794	correct	incongruent	Block1	incongruent/STIM_001.jpg
38.875	1.462	correct	incongruent	Block1	incongruent/STIM_002.jpg
43.582	0.95	correct	incongruent	Block1	incongruent/STIM_002.jpg
46.798	0.782	correct	incongruent	Block1	incongruent/STIM_002.jpg
50.441	1.147	incorrect	incongruent	Block1	incongruent/STIM_002.jpg
53.765	0.781	correct	incongruent	Block1	incongruent/STIM_002.jpg
58.342	1.271	correct	incongruent	Block1	incongruent/STIM_003.jpg
61.593	1.279	correct	incongruent	Block1	incongruent/STIM_003.jpg
65.053	1.255	correct	incongruent	Block1	incongruent/STIM_003.jpg
68.347	1.358	correct	incongruent	Block1	incongruent/STIM_003.jpg
72.164	1.132	correct	incongruent	Block1	incongruent/STIM_003.jpg
76.236	0.926	correct	incongruent	Block1	incongruent/STIM_004.jpg
79.125	1.086	correct	incongruent	Block1	incongruent/STIM_004.jpg
82.398	1.095	correct	incongruent	Block1	incongruent/STIM_004.jpg
86.437	1.007	correct	incongruent	Block1	incongruent/STIM_004.jpg
89.96	0.953	correct	incongruent	Block1	incongruent/STIM_004.jpg
93.999	0.981	correct	incongruent	Block1	incongruent/STIM_005.jpg
98.276	1.177	incorrect	incongruent	Block1	incongruent/STIM_005.jpg
102.729	1.283	correct	incongruent	Block1	incongruent/STIM_005.jpg
107.868	1.216	incorrect	incongruent	Block1	incongruent/STIM_005.jpg
112.744	0.804	correct	incongruent	Block1	incongruent/STIM_005.jpg
116.749	0.964	correct	incongruent	Block1	incongruent/STIM_006.jpg
120.226	1.396	correct	incongruent	Block1	incongruent/STIM_006.jpg
123.635	0.897	correct	incongruent	Block1	incongruent/STIM_006.jpg
127.408	1.11	correct	incongruent	Block1	incongruent/STIM_006.jpg
132.173	1.284	correct	incongruent	Block1	incongruent/STIM_006.jpg
137.026	1.152	incorrect	incongruent	Block1	incongruent/STIM_007.jpg
141.915	1.447	incorrect	incongruent	Block1	incongruent/STIM_007.jpg
145.22	1.008	correct	incongruent	Block1	incongruent/STIM_007.jpg
149.712	0.926	correct	incongruent	Block1	incongruent/STIM_007.jpg
152.968	0.652	correct	incongruent	Block1	incongruent/STIM_007.jpg
157.035	0.845	correct	incongruent	Block1	incongruent/STIM_008.jpg
160.087	0.879	correct	incongruent	Block1	incongruent/STIM_008.jpg
164.073	0.756	correct	incongruent	Block1	incongruent/STIM_008.jpg
167.101	1.011	correct	incongruent	Block1	incongruent/STIM_008.jpg
171.97	0.996	correct	incongruent	Block1	incongruent/STIM_008.jpg
175.73	1.489	correct	incongruent	Block1	incongruent/STIM_009.jpg
181.091	0.911	correct	incongruent	Block1	incongruent/STIM_009.jpg
185.133	0.883	correct	incongruent	Block1	incongruent/STIM_009.jpg
189.666	0.64	correct	incongruent	Block1	incongruent/STIM_009.jpg
193.701	0.675	correct	incongruent	Block1	incongruent/STIM_009.jpg
196.521	1.452	correct	incongruent	Block1	incongruent/STIM_010.jpg
200.49	1.452	correct	incongruent	Block1	incongruent/STIM_010.jpg
205.751	1.123	correct	incongruent	Block1	incongruent/STIM_010.jpg
208.853	0.913	correct	incongruent	Block1	incongruent/STIM_010.jpg
213.69	0.636	correct	incongruent	Block1	incongruent/STIM_010.jpg
217.913	1.459	correct	incongruent	Block1	incongruent/STIM_011.jpg
221.913	1.509	correct	incongruent	Block1	incongruent/STIM_011.jpg
225.735	1.243	correct	incongruent	Block1	incongruent/STIM_011.jpg
229.53	0.821	correct	incongruent	Block1	incongruent/STIM_011.jpg
233.265	0.803	correct	incongruent	Block1	incongruent/STIM_011.jpg
236.94	1.283	correct	incongruent	Block1	incongruent/STIM_012.jpg
241.214	1.046	correct	incongruent	Block1	incongruent/STIM_012.jpg
244.511	1.088	correct	incongruent	Block1	incongruent/STIM_012.jpg
249.373	0.992	correct	incongruent	Block1	incongruent/STIM_012.jpg
252.449	1.004	correct	incongruent	Block1	incongruent/STIM_012.jpg
256.923	1.186	incorrect	incongruent	Block1	incongruent/STIM_013.jpg
261.347	0.991	correct	incongruent	Block1	incongruent/STIM_013.jpg
265.125	1.214	correct	incongruent	Block1	incongruent/STIM_013.jpg
269.638	0.591	incorrect	incongruent	Block1	incongruent/STIM_013.jpg
273.224	1.025	correct	incongruent	Block1	incongruent/STIM_013.jpg
277.838	1.377	correct	incongruent	Block1	incongruent/STIM_014.jpg
281.663	0.765	correct	incongruent	Block1	incongruent/STIM_014.jpg
285.457	0.825	correct	incongruent	Block1	incongruent/STIM_014.jpg
289.097	0.666	correct	incongruent	Block1	incongruent/STIM_014.jpg
293.383	1.042	correct	incongruent	Block1	incongruent/STIM_014.jpg
298.057	1.631	correct	incongruent	Block1	incongruent/STIM_015.jpg
301.587	0.779	correct	incongruent	Block1	incongruent/STIM_015.jpg
305.264	0.971	correct	incongruent	Block1	incongruent/STIM_015.jpg
309.277	0.894	correct	incongruent	Block1	incongruent/STIM_015.jpg
312.757	0.774	correct	incongruent	Block1	incongruent/STIM_015.jpg
316.059	0.934	correct	incongruent	Block1	incongruent/STIM_016.jpg
319.905	0.685	correct	incongruent	Block1	incongruent/STIM_016.jpg
322.875	0.733	incorrect	incongruent	Block1	incongruent/STIM_016.jpg
326.269	1.008	correct	incongruent	Block1	incongruent/STIM_016.jpg
330.341	0.883	incorrect	incongruent	Block1	incongruent/STIM_016.jpg
334.17	0.806	correct	incongruent	Block1	incongruent/STIM_017.jpg
337.901	1.041	correct	incongruent	Block1	incongruent/STIM_017.jpg
342.587	0.793	correct	incongruent	Block1	incongruent/STIM_017.jpg
347.267	1.234	correct	incongruent	Block1	incongruent/STIM_017.jpg
350.786	1.163	correct	incongruent	Block1	incongruent/STIM_017.jpg
355.174	1.357	correct	incongruent	Block1	incongruent/STIM_018.jpg
360.156	1.126	correct	incongruent	Block1	incongruent/STIM_018.jpg
363.837	0.757	correct	incongruent	Block1	incongruent/STIM_018.jpg
368.101	1.318	correct	incongruent	Block1	incongruent/STIM_018.jpg
371.67	0.783	correct	incongruent	Block1	incongruent/STIM_018.jpg
375.903	1.046	correct	incongruent	Block1	incongruent/STIM_019.jpg
380.473	1.145	correct	incongruent	Block1	incongruent/STIM_019.jpg
383.74	0.953	correct	incongruent	Block1	incongruent/STIM_019.jpg
387.223	0.933	correct	incongruent	Block1	incongruent/STIM_019.jpg
390.574	1.041	correct	incongruent	Block1	incongruent/STIM_019.jpg
393.562	0.826	correct	incongruent	Block1	incongruent/STIM_020.jpg
398.293	0.933	correct	incongruent	Block1	incongruent/STIM_020.jpg
402.023	0.765	correct	incongruent	Block1	incongruent/STIM_020.jpg
406.23	0.784	correct	incongruent	Block1	incongruent/STIM_020.jpg
409.602	1.108	incorrect	incongruent	Block1	incongruent/STIM_020.jpg
412.728	1.534	incorrect	incongruent	Block1	incongruent/STIM_021.jpg
417.567	0.802	correct	incongruent	Block1	incongruent/STIM_021.jpg
420.273	1.308	correct	incongruent	Block1	incongruent/STIM_021.jpg
424.627	1.207	correct	incongruent	Block1	incongruent/STIM_021.jpg
428.725	0.993	correct	incongruent	Block1	incongruent/STIM_021.jpg
431.801	1.466	correct	incongruent	Block1	incongruent/STIM_022.jpg
436.491	1.37	incorrect	incongruent	Block1	incongruent/STIM_022.jpg
441.043	0.945	correct	incongruent	Block1	incongruent/STIM_022.jpg
444.287	0.735	correct	incongruent	Block1	incongruent/STIM_022.jpg
447.694	0.808	correct	incongruent	Block1	incongruent/STIM_022.jpg
452.115	0.866	correct	incongruent	Block1	incongruent/STIM_023.jpg
456.614	1.262	correct	incongruent	Block1	incongruent/STIM_023.jpg
460.746	1.092	correct	incongruent	Block1	incongruent/STIM_023.jpg
463.926	1.342	correct	incongruent	Block1	incongruent/STIM_023.jpg
468.34	1.147	correct	incongruent	Block1	incongruent/STIM_023.jpg
472.079	0.954	correct	incongruent	Block1	incongruent/STIM_024.jpg
475.873	1.194	correct	incongruent	Block1	incongruent/STIM_024.jpg
480.035	1.112	correct	incongruent	Block1	incongruent/STIM_024.jpg
484.837	1.194	correct	incongruent	Block1	incongruent/STIM_024.jpg
488.321	0.747	correct	incongruent	Block1	incongruent/STIM_024.jpg
491.765	1.239	correct	incongruent	Block1	incongruent/STIM_025.jpg
495.261	1.251	correct	incongruent	Block1	incongruent/STIM_025.jpg
500.35	1.404	correct	incongruent	Block1	incongruent/STIM_025.jpg
503.757	1.108	correct	incongruent	Block1	incongruent/STIM_025.jpg
508.272	0.73	correct	incongruent	Block1	incongruent/STIM_025.jpg
512.369	1.247	correct	incongruent	Block1	incongruent/STIM_026.jpg
516.609	0.875	correct	incongruent	Block1	incongruent/STIM_026.jpg
520.24	1.147	incorrect	incongruent	Block1	incongruent/STIM_026.jpg
524.906	1.022	correct	incongruent	Block1	incongruent/STIM_026.jpg
528.948	0.935	correct	incongruent	Block1	incongruent/STIM_026.jpg
533.198	0.985	correct	incongruent	Block1	incongruent/STIM_027.jpg
537.619	1.108	correct	incongruent	Block1	incongruent/STIM_027.jpg
541.048	1.371	correct	incongruent	Block1	incongruent/STIM_027.jpg
545.816	0.871	correct	incongruent	Block1	incongruent/STIM_027.jpg
548.735	0.935	correct	incongruent	Block1	incongruent/STIM_027.jpg
553.596	0.759	correct	incongruent	Block1	incongruent/STIM_028.jpg
557.237	1.366	correct	incongruent	Block1	incongruent/STIM_028.jpg
560.601	1.055	correct	incongruent	Block1	incongruent/STIM_028.jpg
565.139	0.817	correct	incongruent	Block1	incongruent/STIM_028.jpg
569.762	0.738	incorrect	incongruent	Block1	incongruent/STIM_028.jpg
573.092	1.337	incorrect	incongruent	Block1	incongruent/STIM_029.jpg
577.606	1.113	correct	incongruent	Block1	incongruent/STIM_029.jpg
582.168	1.032	correct	incongruent	Block1	incongruent/STIM_029.jpg
585.728	0.815	correct	incongruent	Block1	incongruent/STIM_029.jpg
589.356	0.762	correct	incongruent	Block1	incongruent/STIM_029.jpg
593.423	0.679	correct	congruent	Block1	congruent/STIM_000.jpg
596.858	0.906	correct	congruent	Block1	congruent/STIM_000.jpg
600.498	0.718	correct	congruent	Block1	congruent/STIM_000.jpg
603.157	0.78	correct	congruent	Block1	congruent/STIM_000.jpg
606.01	0.97	correct	congruent	Block1	congruent/STIM_000.jpg
609.357	0.786	correct	congruent	Block1	congruent/STIM_001.jpg
613.111	0.951	correct	congruent	Block1	congruent/STIM_001.jpg
616.061	0.636	correct	congruent	Block1	congruent/STIM_001.jpg
619.652	0.714	correct	congruent	Block1	congruent/STIM_001.jpg
624.081	0.919	correct	congruent	Block1	congruent/STIM_001.jpg
628.388	0.893	correct	congruent	Block1	congruent/STIM_002.jpg
631.362	0.892	correct	congruent	Block1	congruent/STIM_002.jpg
634.992	0.634	correct	congruent	Block1	congruent/STIM_002.jpg
638.247	0.463	incorrect	congruent	Block1	congruent/STIM_002.jpg
642.715	0.424	correct	congruent	Block1	congruent/STIM_002.jpg
645.999	0.806	correct	congruent	Block1	congruent/STIM_003.jpg
650.324	0.561	correct	congruent	Block1	congruent/STIM_003.jpg
654.268	0.803	correct	congruent	Block1	congruent/STIM_003.jpg
658.392	0.704	correct	congruent	Block1	congruent/STIM_003.jpg
662.58	0.924	correct	congruent	Block1	congruent/STIM_003.jpg
666.182	0.826	correct	congruent	Block1	congruent/STIM_004.jpg
669.637	0.962	correct	congruent	Block1	congruent/STIM_004.jpg
672.527	0.792	correct	congruent	Block1	congruent/STIM_004.jpg
675.635	0.548	correct	congruent	Block1	congruent/STIM_004.jpg
680.102	0.56	correct	congruent	Block1	congruent/STIM_004.jpg
683.564	0.614	correct	congruent	Block1	congruent/STIM_005.jpg
687.026	0.56	correct	congruent	Block1	congruent/STIM_005.jpg
691.528	0.719	correct	congruent	Block1	congruent/STIM_005.jpg
694.266	0.542	incorrect	congruent	Block1	congruent/STIM_005.jpg
697.445	0.718	correct	congruent	Block1	congruent/STIM_005.jpg
700.191	0.762	correct	congruent	Block1	congruent/STIM_006.jpg
704.288	0.819	correct	congruent	Block1	congruent/STIM_006.jpg
707.966	0.956	correct	congruent	Block1	congruent/STIM_006.jpg
711.027	0.497	correct	congruent	Block1	congruent/STIM_006.jpg
714.945	0.587	correct	congruent	Block1	congruent/STIM_006.jpg
719.063	0.664	correct	congruent	Block1	congruent/STIM_007.jpg
722.008	0.536	correct	congruent	Block1	congruent/STIM_007.jpg
725.349	0.844	correct	congruent	Block1	congruent/STIM_007.jpg
728.126	1.004	correct	congruent	Block1	congruent/STIM_007.jpg
732.025	0.589	correct	congruent	Block1	congruent/STIM_007.jpg
734.706	0.5	correct	congruent	Block1	congruent/STIM_008.jpg
738.864	0.76	correct	congruent	Block1	congruent/STIM_008.jpg
742.041	1.052	correct	congruent	Block1	congruent/STIM_008.jpg
745.187	0.88	correct	congruent	Block1	congruent/STIM_008.jpg
749.355	0.856	correct	congruent	Block1	congruent/STIM_008.jpg
752.516	0.922	correct	congruent	Block1	congruent/STIM_009.jpg
756.648	0.858	incorrect	congruent	Block1	congruent/STIM_009.jpg
760.685	0.747	correct	congruent	Block1	congruent/STIM_009.jpg
763.478	0.64	correct	congruent	Block1	congruent/STIM_009.jpg
767.883	0.722	incorrect	congruent	Block1	congruent/STIM_009.jpg
771.85	0.88	correct	congruent	Block1	congruent/STIM_010.jpg
776.072	0.904	correct	congruent	Block1	congruent/STIM_010.jpg
780.745	0.554	correct	congruent	Block1	congruent/STIM_010.jpg
783.999	0.557	correct	congruent	Block1	congruent/STIM_010.jpg
787.659	0.64	correct	congruent	Block1	congruent/STIM_010.jpg
791.847	0.684	correct	congruent	Block1	congruent/STIM_011.jpg
794.71	0.58	incorrect	congruent	Block1	congruent/STIM_011.jpg
799.231	0.568	correct	congruent	Block1	congruent/STIM_011.jpg
803.683	0.716	correct	congruent	Block1	congruent/STIM_011.jpg
807.857	0.787	correct	congruent	Block1	congruent/STIM_011.jpg
810.92	0.784	correct	congruent	Block1	congruent/STIM_012.jpg
815.108	0.612	correct	congruent	Block1	congruent/STIM_012.jpg
818.361	0.94	correct	congruent	Block1	congruent/STIM_012.jpg
822.691	0.788	correct	congruent	Block1	congruent/STIM_012.jpg
825.939	0.86	correct	congruent	Block1	congruent/STIM_012.jpg
829.071	0.709	correct	congruent	Block1	congruent/STIM_013.jpg
833.5	0.762	correct	congruent	Block1	congruent/STIM_013.jpg
837.873	0.738	correct	congruent	Block1	congruent/STIM_013.jpg
841.342	0.677	correct	congruent	Block1	congruent/STIM_013.jpg
844.472	0.538	correct	congruent	Block1	congruent/STIM_013.jpg
847.486	0.684	correct	congruent	Block1	congruent/STIM_014.jpg
851.337	0.776	correct	congruent	Block1	congruent/STIM_014.jpg
854.185	0.761	correct	congruent	Block1	congruent/STIM_014.jpg
857.017	0.848	correct	congruent	Block1	congruent/STIM_014.jpg
859.889	0.669	correct	congruent	Block1	congruent/STIM_014.jpg
863.571	0.658	correct	congruent	Block1	congruent/STIM_015.jpg
866.734	0.935	correct	congruent	Block1	congruent/STIM_015.jpg
871.05	0.562	correct	congruent	Block1	congruent/STIM_015.jpg
874.578	0.687	correct	congruent	Block1	congruent/STIM_015.jpg
879.031	0.568	correct	congruent	Block1	congruent/STIM_015.jpg
883.578	0.933	correct	congruent	Block1	congruent/STIM_016.jpg
888.238	0.672	correct	congruent	Block1	congruent/STIM_016.jpg
891.504	0.599	correct	congruent	Block1	congruent/STIM_016.jpg
895.986	0.835	correct	congruent	Block1	congruent/STIM_016.jpg
900.139	0.513	correct	congruent	Block1	congruent/STIM_016.jpg
902.683	0.909	correct	congruent	Block1	congruent/STIM_017.jpg
905.82	0.908	correct	congruent	Block1	congruent/STIM_017.jpg
910.229	0.926	correct	congruent	Block1	congruent/STIM_017.jpg
913.619	0.641	correct	congruent	Block1	congruent/STIM_017.jpg
916.284	0.788	correct	congruent	Block1	congruent/STIM_017.jpg
920.652	0.733	correct	congruent	Block1	congruent/STIM_018.jpg
924.315	0.79	correct	congruent	Block1	congruent/STIM_018.jpg
927.606	0.582	correct	congruent	Block1	congruent/STIM_018.jpg
930.656	0.808	incorrect	congruent	Block1	congruent/STIM_018.jpg
935.16	0.575	correct	congruent	Block1	congruent/STIM_018.jpg
938.835	0.604	correct	congruent	Block1	congruent/STIM_019.jpg
943.185	0.595	correct	congruent	Block1	congruent/STIM_019.jpg
946.923	0.684	correct	congruent	Block1	congruent/STIM_019.jpg
951.373	0.684	correct	congruent	Block1	congruent/STIM_019.jpg
955.542	0.835	correct	congruent	Block1	congruent/STIM_019.jpg
959.228	0.7	correct	congruent	Block1	congruent/STIM_020.jpg
962.117	0.486	incorrect	congruent	Block1	congruent/STIM_020.jpg
965.112	0.617	correct	congruent	Block1	congruent/STIM_020.jpg
967.648	0.955	correct	congruent	Block1	congruent/STIM_020.jpg
971.54	0.821	correct	congruent	Block1	congruent/STIM_020.jpg
974.515	0.964	correct	congruent	Block1	congruent/STIM_021.jpg
978.297	0.584	correct	congruent	Block1	congruent/STIM_021.jpg
980.917	0.792	correct	congruent	Block1	congruent/STIM_021.jpg
985.239	0.763	correct	congruent	Block1	congruent/STIM_021.jpg
989.67	0.885	correct	congruent	Block1	congruent/STIM_021.jpg
993.436	0.897	correct	congruent	Block1	congruent/STIM_022.jpg
997.773	0.658	correct	congruent	Block1	congruent/STIM_022.jpg
1002.067	0.52	correct	congruent	Block1	congruent/STIM_022.jpg
1006.283	0.81	correct	congruent	Block1	congruent/STIM_022.jpg
1010.903	0.792	correct	congruent	Block1	congruent/STIM_022.jpg
1014.38	0.601	correct	congruent	Block1	congruent/STIM_023.jpg
1017.193	0.849	correct	congruent	Block1	congruent/STIM_023.jpg
1020.95	0.666	correct	congruent	Block1	congruent/STIM_023.jpg
1025.526	0.762	correct	congruent	Block1	congruent/STIM_023.jpg
1029.018	0.914	correct	congruent	Block1	congruent/STIM_023.jpg
1032.431	0.691	correct	congruent	Block1	congruent/STIM_024.jpg
1036.634	0.946	correct	congruent	Block1	congruent/STIM_024.jpg
1039.785	0.467	correct	congruent	Block1	congruent/STIM_024.jpg
1042.957	0.872	correct	congruent	Block1	congruent/STIM_024.jpg
1046.365	1.019	correct	congruent	Block1	congruent/STIM_024.jpg
1050.232	0.654	correct	congruent	Block1	congruent/STIM_025.jpg
1054.228	0.669	correct	congruent	Block1	congruent/STIM_025.jpg
1058.41	0.675	correct	congruent	Block1	congruent/STIM_025.jpg
1062.023	0.783	correct	congruent	Block1	congruent/STIM_025.jpg
1066.019	0.577	correct	congruent	Block1	congruent/STIM_025.jpg
1069.3	0.778	correct	congruent	Block1	congruent/STIM_026.jpg
1072.201	0.725	correct	congruent	Block1	congruent/STIM_026.jpg
1075.811	0.596	correct	congruent	Block1	congruent/STIM_026.jpg
1079.18	0.858	correct	congruent	Block1	congruent/STIM_026.jpg
1083.648	0.562	correct	congruent	Block1	congruent/STIM_026.jpg
1087.429	0.84	correct	congruent	Block1	congruent/STIM_027.jpg
1091.46	0.963	correct	congruent	Block1	congruent/STIM_027.jpg
1094.364	0.539	correct	congruent	Block1	congruent/STIM_027.jpg
1097.094	0.66	correct	congruent	Block1	congruent/STIM_027.jpg
1101.174	0.696	correct	congruent	Block1	congruent/STIM_027.jpg
1105.39	0.735	correct	congruent	Block1	congruent/STIM_028.jpg
1109.049	0.737	correct	congruent	Block1	congruent/STIM_028.jpg
1112.374	0.597	correct	congruent	Block1	congruent/STIM_028.jpg
1114.969	0.566	correct	congruent	Block1	congruent/STIM_028.jpg
1118.684	0.551	correct	congruent	Block1	congruent/STIM_028.jpg
1121.919	0.651	correct	congruent	Block1	congruent/STIM_029.jpg
1125.453	0.679	correct	congruent	Block1	congruent/STIM_029.jpg
1128.834	0.942	correct	congruent	Block1	congruent/STIM_029.jpg
1133.489	0.716	correct	congruent	Block1	congruent/STIM_029.jpg
1136.773	0.595	correct	congruent	Block1	congruent/STIM_029.jpg
1140.278	1.141	correct	incongruent	Block2	incongruent/STIM_000.jpg
1144.882	1.091	correct	incongruent	Block2	incongruent/STIM_000.jpg
1148.726	0.948	correct	incongruent	Block2	incongruent/STIM_000.jpg
1151.733	0.678	correct	incongruent	Block2	incongruent/STIM_000.jpg
1154.567	1.015	correct	incongruent	Block2	incongruent/STIM_000.jpg
1158.635	1.037	correct	incongruent	Block2	incongruent/STIM_001.jpg
1163.175	0.835	correct	incongruent	Block2	incongruent/STIM_001.jpg
1166.205	0.916	correct	incongruent	Block2	incongruent/STIM_001.jpg
1170.034	0.986	correct	incongruent	Block2	incongruent/STIM_001.jpg
1174.415	1.072	correct	incongruent	Block2	incongruent/STIM_001.jpg
1178.619	1.217	correct	incongruent	Block2	incongruent/STIM_002.jpg
1183.61	0.816	correct	incongruent	Block2	incongruent/STIM_002.jpg
1188.096	1.196	correct	incongruent	Block2	incongruent/STIM_002.jpg
1192.947	1.107	correct	incongruent	Block2	incongruent/STIM_002.jpg
1195.986	0.796	correct	incongruent	Block2	incongruent/STIM_002.jpg
1199.957	1.201	correct	incongruent	Block2	incongruent/STIM_003.jpg
1203.317	0.849	correct	incongruent	Block2	incongruent/STIM_003.jpg
1207.925	1.0	correct	incongruent	Block2	incongruent/STIM_003.jpg
1211.455	0.789	correct	incongruent	Block2	incongruent/STIM_003.jpg
1214.438	0.934	correct	incongruent	Block2	incongruent/STIM_003.jpg
1218.13	1.315	correct	incongruent	Block2	incongruent/STIM_004.jpg
1222.621	0.564	correct	incongruent	Block2	incongruent/STIM_004.jpg
1226.468	0.76	correct	incongruent	Block2	incongruent/STIM_004.jpg
1230.979	0.634	correct	incongruent	Block2	incongruent/STIM_004.jpg
1233.739	0.71	correct	incongruent	Block2	incongruent/STIM_004.jpg
1236.479	1.12	correct	incongruent	Block2	incongruent/STIM_005.jpg
1241.32	0.583	correct	incongruent	Block2	incongruent/STIM_005.jpg
1244.364	0.925	correct	incongruent	Block2	incongruent/STIM_005.jpg
1247.982	0.873	correct	incongruent	Block2	incongruent/STIM_005.jpg
1252.486	0.504	correct	incongruent	Block2	incongruent/STIM_005.jpg
1255.165	0.827	incorrect	incongruent	Block2	incongruent/STIM_006.jpg
1258.392	1.066	correct	incongruent	Block2	incongruent/STIM_006.jpg
1261.77	1.021	correct	incongruent	Block2	incongruent/STIM_006.jpg
1265.572	0.844	correct	incongruent	Block2	incongruent/STIM_006.jpg
1268.685	0.803	correct	incongruent	Block2	incongruent/STIM_006.jpg
1273.073	1.07	correct	incongruent	Block2	incongruent/STIM_007.jpg
1276.967	1.21	correct	incongruent	Block2	incongruent/STIM_007.jpg
1280.554	0.802	correct	incongruent	Block2	incongruent/STIM_007.jpg
1284.845	0.557	correct	incongruent	Block2	incongruent/STIM_007.jpg
1288.276	0.613	correct	incongruent	Block2	incongruent/STIM_007.jpg
1292.533	1.014	incorrect	incongruent	Block2	incongruent/STIM_008.jpg
1295.574	1.065	correct	incongruent	Block2	incongruent/STIM_008.jpg
1299.664	0.673	correct	incongruent	Block2	incongruent/STIM_008.jpg
1303.234	0.738	correct	incongruent	Block2	incongruent/STIM_008.jpg
1306.965	0.716	correct	incongruent	Block2	incongruent/STIM_008.jpg
1311.2	1.027	correct	incongruent	Block2	incongruent/STIM_009.jpg
1314.797	1.301	correct	incongruent	Block2	incongruent/STIM_009.jpg
1319.443	0.908	correct	incongruent	Block2	incongruent/STIM_009.jpg
1323.809	0.733	correct	incongruent	Block2	incongruent/STIM_009.jpg
1326.753	0.685	correct	incongruent	Block2	incongruent/STIM_009.jpg
1330.932	0.742	correct	incongruent	Block2	incongruent/STIM_010.jpg
1334.913	0.804	correct	incongruent	Block2	incongruent/STIM_010.jpg
1338.147	1.032	correct	incongruent	Block2	incongruent/STIM_010.jpg
1341.835	0.772	correct	incongruent	Block2	incongruent/STIM_010.jpg
1345.944	0.768	correct	incongruent	Block2	incongruent/STIM_010.jpg
1349.6	1.147	correct	incongruent	Block2	incongruent/STIM_011.jpg
1352.892	1.233	correct	incongruent	Block2	incongruent/STIM_011.jpg
1357.054	1.067	correct	incongruent	Block2	incongruent/STIM_011.jpg
1361.221	0.622	correct	incongruent	Block2	incongruent/STIM_011.jpg
1365.088	1.087	correct	incongruent	Block2	incongruent/STIM_011.jpg
1368.292	0.701	correct	incongruent	Block2	incongruent/STIM_012.jpg
1371.637	0.705	correct	incongruent	Block2	incongruent/STIM_012.jpg
1374.958	1.133	correct	incongruent	Block2	incongruent/STIM_012.jpg
1379.13	1.007	incorrect	incongruent	Block2	incongruent/STIM_012.jpg
1382.978	0.92	correct	incongruent	Block2	incongruent/STIM_012.jpg
1387.382	0.975	correct	incongruent	Block2	incongruent/STIM_013.jpg
1391.024	1.037	correct	incongruent	Block2	incongruent/STIM_013.jpg
1394.616	0.559	incorrect	incongruent	Block2	incongruent/STIM_013.jpg
1398.78	0.958	correct	incongruent	Block2	incongruent/STIM_013.jpg
1402.375	0.688	correct	incongruent	Block2	incongruent/STIM_013.jpg
1405.07	1.328	correct	incongruent	Block2	incongruent/STIM_014.jpg
1408.609	0.72	correct	incongruent	Block2	incongruent/STIM_014.jpg
1411.653	0.952	correct	incongruent	Block2	incongruent/STIM_014.jpg
1414.924	1.036	correct	incongruent	Block2	incongruent/STIM_014.jpg
1418.958	0.846	correct	incongruent	Block2	incongruent/STIM_014.jpg
1422.661	0.918	correct	incongruent	Block2	incongruent/STIM_015.jpg
1426.785	0.917	correct	incongruent	Block2	incongruent/STIM_015.jpg
1431.274	0.671	correct	incongruent	Block2	incongruent/STIM_015.jpg
1434.749	0.53	correct	incongruent	Block2	incongruent/STIM_015.jpg
1437.511	0.66	correct	incongruent	Block2	incongruent/STIM_015.jpg
1440.464	1.122	correct	incongruent	Block2	incongruent/STIM_016.jpg
1443.967	1.343	correct	incongruent	Block2	incongruent/STIM_016.jpg
1447.499	1.137	correct	incongruent	Block2	incongruent/STIM_016.jpg
1451.406	1.103	correct	incongruent	Block2	incongruent/STIM_016.jpg
1454.776	0.618	correct	incongruent	Block2	incongruent/STIM_016.jpg
1458.751	0.854	correct	incongruent	Block2	incongruent/STIM_017.jpg
1461.701	0.974	correct	incongruent	Block2	incongruent/STIM_017.jpg
1466.117	1.039	correct	incongruent	Block2	incongruent/STIM_017.jpg
1470.537	0.646	correct	incongruent	Block2	incongruent/STIM_017.jpg
1474.43	0.743	correct	incongruent	Block2	incongruent/STIM_017.jpg
1478.051	1.354	correct	incongruent	Block2	incongruent/STIM_018.jpg
1482.269	1.043	correct	incongruent	Block2	incongruent/STIM_018.jpg
1485.672	0.886	correct	incongruent	Block2	incongruent/STIM_018.jpg
1489.202	0.842	correct	incongruent	Block2	incongruent/STIM_018.jpg
1492.392	0.969	correct	incongruent	Block2	incongruent/STIM_018.jpg
1496.805	0.577	correct	incongruent	Block2	incongruent/STIM_019.jpg
1501.264	1.094	correct	incongruent	Block2	incongruent/STIM_019.jpg
1505.941	0.932	correct	incongruent	Block2	incongruent/STIM_019.jpg
1509.27	0.583	incorrect	incongruent	Block2	incongruent/STIM_019.jpg
1512.302	0.926	correct	incongruent	Block2	incongruent/STIM_019.jpg
1515.368	1.182	correct	incongruent	Block2	incongruent/STIM_020.jpg
1518.923	0.98	correct	incongruent	Block2	incongruent/STIM_020.jpg
1523.459	0.746	correct	incongruent	Block2	incongruent/STIM_020.jpg
1528.189	0.615	correct	incongruent	Block2	incongruent/STIM_020.jpg
1532.116	0.736	correct	incongruent	Block2	incongruent/STIM_020.jpg
1535.637	1.392	correct	incongruent	Block2	incongruent/STIM_021.jpg
1540.312	1.29	correct	incongruent	Block2	incongruent/STIM_021.jpg
1544.414	0.9	correct	incongruent	Block2	incongruent/STIM_021.jpg
1548.555	0.666	correct	incongruent	Block2	incongruent/STIM_021.jpg
1551.817	0.669	correct	incongruent	Block2	incongruent/STIM_021.jpg
1555.755	1.215	correct	incongruent	Block2	incongruent/STIM_022.jpg
1560.72	0.925	correct	incongruent	Block2	incongruent/STIM_022.jpg
1563.958	0.905	correct	incongruent	Block2	incongruent/STIM_022.jpg
1567.445	0.863	correct	incongruent	Block2	incongruent/STIM_022.jpg
1570.822	0.639	correct	incongruent	Block2	incongruent/STIM_022.jpg
1573.669	0.905	correct	incongruent	Block2	incongruent/STIM_023.jpg
1577.507	1.126	correct	incongruent	Block2	incongruent/STIM_023.jpg
1581.741	0.526	correct	incongruent	Block2	incongruent/STIM_023.jpg
1585.633	1.073	correct	incongruent	Block2	incongruent/STIM_023.jpg
1589.641	0.512	correct	incongruent	Block2	incongruent/STIM_023.jpg
1592.494	1.124	correct	incongruent	Block2	incongruent/STIM_024.jpg
1595.683	0.668	correct	incongruent	Block2	incongruent/STIM_024.jpg
1598.777	0.7	correct	incongruent	Block2	incongruent/STIM_024.jpg
1602.79	1.044	correct	incongruent	Block2	incongruent/STIM_024.jpg
1606.766	1.051	correct	incongruent	Block2	incongruent/STIM_024.jpg
1610.067	1.051	correct	incongruent	Block2	incongruent/STIM_025.jpg
1614.531	0.658	correct	incongruent	Block2	incongruent/STIM_025.jpg
1617.375	0.748	correct	incongruent	Block2	incongruent/STIM_025.jpg
1621.286	0.96	correct	incongruent	Block2	incongruent/STIM_025.jpg
1625.7	0.763	correct	incongruent	Block2	incongruent/STIM_025.jpg
1629.359	0.953	incorrect	incongruent	Block2	incongruent/STIM_026.jpg
1634.079	1.008	correct	incongruent	Block2	incongruent/STIM_026.jpg
1637.341	0.804	correct	incongruent	Block2	incongruent/STIM_026.jpg
1641.279	0.811	correct	incongruent	Block2	incongruent/STIM_026.jpg
1644.442	0.6	correct	incongruent	Block2	incongruent/STIM_026.jpg
1647.039	1.003	correct	incongruent	Block2	incongruent/STIM_027.jpg
1651.517	0.843	correct	incongruent	Block2	incongruent/STIM_027.jpg
1654.999	0.632	correct	incongruent	Block2	incongruent/STIM_027.jpg
1658.952	0.674	correct	incongruent	Block2	incongruent/STIM_027.jpg
1661.657	0.742	correct	incongruent	Block2	incongruent/STIM_027.jpg
1664.827	1.321	correct	incongruent	Block2	incongruent/STIM_028.jpg
1669.175	1.034	correct	incongruent	Block2	incongruent/STIM_028.jpg
1673.257	0.724	correct	incongruent	Block2	incongruent/STIM_028.jpg
1676.718	1.046	correct	incongruent	Block2	incongruent/STIM_028.jpg
1681.244	0.708	correct	incongruent	Block2	incongruent/STIM_028.jpg
1685.026	1.138	incorrect	incongruent	Block2	incongruent/STIM_029.jpg
1689.042	1.049	correct	incongruent	Block2	incongruent/STIM_029.jpg
1692.749	0.806	correct	incongruent	Block2	incongruent/STIM_029.jpg
1695.89	0.521	correct	incongruent	Block2	incongruent/STIM_029.jpg
1698.473	1.184	correct	incongruent	Block2	incongruent/STIM_029.jpg
1702.072	0.897	correct	congruent	Block2	congruent/STIM_000.jpg
1704.865	0.658	correct	congruent	Block2	congruent/STIM_000.jpg
1709.227	0.593	correct	congruent	Block2	congruent/STIM_000.jpg
1712.957	0.67	correct	congruent	Block2	congruent/STIM_000.jpg
1716.785	0.769	correct	congruent	Block2	congruent/STIM_000.jpg
1719.98	0.643	correct	congruent	Block2	congruent/STIM_001.jpg
1723.527	0.789	correct	congruent	Block2	congruent/STIM_001.jpg
1727.961	0.596	correct	congruent	Block2	congruent/STIM_001.jpg
1730.712	0.908	correct	congruent	Block2	congruent/STIM_001.jpg
1734.97	0.652	correct	congruent	Block2	congruent/STIM_001.jpg
1739.411	0.493	correct	congruent	Block2	congruent/STIM_002.jpg
1742.145	0.701	correct	congruent	Block2	congruent/STIM_002.jpg
1745.033	0.78	correct	congruent	Block2	congruent/STIM_002.jpg
1747.833	0.9	correct	congruent	Block2	congruent/STIM_002.jpg
1752.109	0.98	correct	congruent	Block2	congruent/STIM_002.jpg
1755.193	0.602	correct	congruent	Block2	congruent/STIM_003.jpg
1759.297	0.798	correct	congruent	Block2	congruent/STIM_003.jpg
1762.052	0.856	correct	congruent	Block2	congruent/STIM_003.jpg
1764.949	0.989	correct	congruent	Block2	congruent/STIM_003.jpg
1769.056	0.877	correct	congruent	Block2	congruent/STIM_003.jpg
1772.828	0.873	correct	congruent	Block2	congruent/STIM_004.jpg
1776.744	0.584	correct	congruent	Block2	congruent/STIM_004.jpg
1781.106	0.939	correct	congruent	Block2	congruent/STIM_004.jpg
1785.938	0.904	correct	congruent	Block2	congruent/STIM_004.jpg
1790.038	0.806	correct	congruent	Block2	congruent/STIM_004.jpg
1793.606	0.697	correct	congruent	Block2	congruent/STIM_005.jpg
1797.306	0.857	correct	congruent	Block2	congruent/STIM_005.jpg
1800.76	0.86	correct	congruent	Block2	congruent/STIM_005.jpg
1804.44	0.849	correct	congruent	Block2	congruent/STIM_005.jpg
1808.5	1.046	correct	congruent	Block2	congruent/STIM_005.jpg
1812.86	0.597	correct	congruent	Block2	congruent/STIM_006.jpg
1816.792	0.824	correct	congruent	Block2	congruent/STIM_006.jpg
1820.506	0.576	correct	congruent	Block2	congruent/STIM_006.jpg
1824.665	0.892	correct	congruent	Block2	congruent/STIM_006.jpg
1828.114	0.623	correct	congruent	Block2	congruent/STIM_006.jpg
1832.096	0.592	correct	congruent	Block2	congruent/STIM_007.jpg
1835.121	0.671	correct	congruent	Block2	congruent/STIM_007.jpg
1838.619	0.818	correct	congruent	Block2	congruent/STIM_007.jpg
1843.288	0.94	correct	congruent	Block2	congruent/STIM_007.jpg
1846.745	0.823	correct	congruent	Block2	congruent/STIM_007.jpg
1850.598	0.773	correct	congruent	Block2	congruent/STIM_008.jpg
1854.481	0.628	correct	congruent	Block2	congruent/STIM_008.jpg
1857.401	0.8	correct	congruent	Block2	congruent/STIM_008.jpg
1860.637	0.812	correct	congruent	Block2	congruent/STIM_008.jpg
1864.956	0.694	correct	congruent	Block2	congruent/STIM_008.jpg
1869.376	0.894	correct	congruent	Block2	congruent/STIM_009.jpg
1873.554	0.919	correct	congruent	Block2	congruent/STIM_009.jpg
1876.611	0.846	correct	congruent	Block2	congruent/STIM_009.jpg
1879.987	0.703	correct	congruent	Block2	congruent/STIM_009.jpg
1882.84	0.642	correct	congruent	Block2	congruent/STIM_009.jpg
1885.555	0.98	correct	congruent	Block2	congruent/STIM_010.jpg
1888.515	1.014	correct	congruent	Block2	congruent/STIM_010.jpg
1893.262	0.834	correct	congruent	Block2	congruent/STIM_010.jpg
1897.325	0.828	correct	congruent	Block2	congruent/STIM_010.jpg
1901.557	0.698	correct	congruent	Block2	congruent/STIM_010.jpg
1906.092	0.721	correct	congruent	Block2	congruent/STIM_011.jpg
1909.08	0.781	correct	congruent	Block2	congruent/STIM_011.jpg
1911.857	0.581	correct	congruent	Block2	congruent/STIM_011.jpg
1915.13	0.718	correct	congruent	Block2	congruent/STIM_011.jpg
1917.987	0.682	correct	congruent	Block2	congruent/STIM_011.jpg
1922.426	0.587	correct	congruent	Block2	congruent/STIM_012.jpg
1925.297	0.841	correct	congruent	Block2	congruent/STIM_012.jpg
1928.28	0.52	correct	congruent	Block2	congruent/STIM_012.jpg
1930.838	0.692	correct	congruent	Block2	congruent/STIM_012.jpg
1934.943	0.886	correct	congruent	Block2	congruent/STIM_012.jpg
1938.264	1.039	correct	congruent	Block2	congruent/STIM_013.jpg
1942.467	0.615	correct	congruent	Block2	congruent/STIM_013.jpg
1945.532	0.961	correct	congruent	Block2	congruent/STIM_013.jpg
1949.159	0.934	correct	congruent	Block2	congruent/STIM_013.jpg
1952.367	0.815	correct	congruent	Block2	congruent/STIM_013.jpg
1955.374	0.618	correct	congruent	Block2	congruent/STIM_014.jpg
1958.921	0.621	correct	congruent	Block2	congruent/STIM_014.jpg
1961.879	0.914	correct	congruent	Block2	congruent/STIM_014.jpg
1966.614	0.801	correct	congruent	Block2	congruent/STIM_014.jpg
1970.906	0.682	correct	congruent	Block2	congruent/STIM_014.jpg
1975.522	0.911	correct	congruent	Block2	congruent/STIM_015.jpg
1978.412	0.512	correct	congruent	Block2	congruent/STIM_015.jpg
1981.197	0.897	correct	congruent	Block2	congruent/STIM_015.jpg
1985.657	0.727	correct	congruent	Block2	congruent/STIM_015.jpg
1989.225	0.557	correct	congruent	Block2	congruent/STIM_015.jpg
1992.291	0.832	correct	congruent	Block2	congruent/STIM_016.jpg
1995.634	0.7	incorrect	congruent	Block2	congruent/STIM_016.jpg
1999.334	0.75	correct	congruent	Block2	congruent/STIM_016.jpg
2002.796	0.889	correct	congruent	Block2	congruent/STIM_016.jpg
2005.874	0.751	correct	congruent	Block2	congruent/STIM_016.jpg
2010.15	0.75	incorrect	congruent	Block2	congruent/STIM_017.jpg
2014.843	0.969	incorrect	congruent	Block2	congruent/STIM_017.jpg
2018.981	0.735	correct	congruent	Block2	congruent/STIM_017.jpg
2022.688	0.708	correct	congruent	Block2	congruent/STIM_017.jpg
2025.727	0.791	correct	congruent	Block2	congruent/STIM_017.jpg
2028.481	0.63	correct	congruent	Block2	congruent/STIM_018.jpg
2032.113	0.874	correct	congruent	Block2	congruent/STIM_018.jpg
2036.2	0.834	correct	congruent	Block2	congruent/STIM_018.jpg
2040.507	0.617	correct	congruent	Block2	congruent/STIM_018.jpg
2044.74	0.999	correct	congruent	Block2	congruent/STIM_018.jpg
2049.607	0.823	correct	congruent	Block2	congruent/STIM_019.jpg
2053.734	0.597	correct	congruent	Block2	congruent/STIM_019.jpg
2057.475	0.868	correct	congruent	Block2	congruent/STIM_019.jpg
2061.973	0.498	correct	congruent	Block2	congruent/STIM_019.jpg
2065.146	0.868	correct	congruent	Block2	congruent/STIM_019.jpg
2068.29	0.704	correct	congruent	Block2	congruent/STIM_020.jpg
2072.83	0.637	correct	congruent	Block2	congruent/STIM_020.jpg
2076.176	0.872	correct	congruent	Block2	congruent/STIM_020.jpg
2080.674	0.688	correct	congruent	Block2	congruent/STIM_020.jpg
2083.614	0.708	correct	congruent	Block2	congruent/STIM_020.jpg
2087.415	0.547	correct	congruent	Block2	congruent/STIM_021.jpg
2091.7	0.552	correct	congruent	Block2	congruent/STIM_021.jpg
2094.714	0.726	correct	congruent	Block2	congruent/STIM_021.jpg
2097.644	0.712	correct	congruent	Block2	congruent/STIM_021.jpg
2100.966	0.591	correct	congruent	Block2	congruent/STIM_021.jpg
2104.712	0.732	correct	congruent	Block2	congruent/STIM_022.jpg
2109.356	0.603	correct	congruent	Block2	congruent/STIM_022.jpg
2113.584	0.829	correct	congruent	Block2	congruent/STIM_022.jpg
2117.954	0.56	correct	congruent	Block2	congruent/STIM_022.jpg
2120.801	0.906	correct	congruent	Block2	congruent/STIM_022.jpg
2124.264	0.68	correct	congruent	Block2	congruent/STIM_023.jpg
2127.473	0.852	correct	congruent	Block2	congruent/STIM_023.jpg
2130.385	0.831	correct	congruent	Block2	congruent/STIM_023.jpg
2134.617	0.658	correct	congruent	Block2	congruent/STIM_023.jpg
2139.259	0.745	correct	congruent	Block2	congruent/STIM_023.jpg
2143.882	0.768	correct	congruent	Block2	congruent/STIM_024.jpg
2147.212	0.593	correct	congruent	Block2	congruent/STIM_024.jpg
2150.764	0.52	correct	congruent	Block2	congruent/STIM_024.jpg
2153.7	0.827	correct	congruent	Block2	congruent/STIM_024.jpg
2157.613	0.573	correct	congruent	Block2	congruent/STIM_024.jpg
2160.907	0.946	correct	congruent	Block2	congruent/STIM_025.jpg
2164.242	0.698	correct	congruent	Block2	congruent/STIM_025.jpg
2167.661	0.641	incorrect	congruent	Block2	congruent/STIM_025.jpg
2170.758	0.603	incorrect	congruent	Block2	congruent/STIM_025.jpg
2175.266	0.587	correct	congruent	Block2	congruent/STIM_025.jpg
2178.571	0.679	correct	congruent	Block2	congruent/STIM_026.jpg
2181.658	0.585	correct	congruent	Block2	congruent/STIM_026.jpg
2184.286	0.881	correct	congruent	Block2	congruent/STIM_026.jpg
2188.655	0.519	correct	congruent	Block2	congruent/STIM_026.jpg
2192.716	0.706	correct	congruent	Block2	congruent/STIM_026.jpg
2196.601	0.917	correct	congruent	Block2	congruent/STIM_027.jpg
2200.424	0.865	correct	congruent	Block2	congruent/STIM_027.jpg
2204.53	0.814	correct	congruent	Block2	congruent/STIM_027.jpg
2209.117	0.818	correct	congruent	Block2	congruent/STIM_027.jpg
2212.433	0.766	correct	congruent	Block2	congruent/STIM_027.jpg
2216.127	0.885	correct	congruent	Block2	congruent/STIM_028.jpg
2219.719	0.726	correct	congruent	Block2	congruent/STIM_028.jpg
2223.968	0.868	correct	congruent	Block2	congruent/STIM_028.jpg
2227.565	0.646	correct	congruent	Block2	congruent/STIM_028.jpg
2231.05	0.746	correct	congruent	Block2	congruent/STIM_028.jpg
2235.397	0.978	correct	congruent	Block2	congruent/STIM_029.jpg
2238.385	0.877	correct	congruent	Block2	congruent/STIM_029.jpg
2242.001	0.662	incorrect	congruent	Block2	congruent/STIM_029.jpg
2246.358	0.704	correct	congruent	Block2	congruent/STIM_029.jpg
2249.254	0.695	correct	congruent	Block2	congruent/STIM_029.jpg
2252.117	0.732	correct	incongruent	Block3	incongruent/STIM_000.jpg
2256.657	0.75	correct	incongruent	Block3	incongruent/STIM_000.jpg
2259.994	0.55	correct	incongruent	Block3	incongruent/STIM_000.jpg
2264.168	0.604	correct	incongruent	Block3	incongruent/STIM_000.jpg
2266.934	1.008	correct	incongruent	Block3	incongruent/STIM_000.jpg
2270.384	0.764	correct	incongruent	Block3	incongruent/STIM_001.jpg
2274.979	0.665	correct	incongruent	Block3	incongruent/STIM_001.jpg
2278.821	0.892	correct	incongruent	Block3	incongruent/STIM_001.jpg
2283.344	0.741	correct	incongruent	Block3	incongruent/STIM_001.jpg
2286.633	0.724	correct	incongruent	Block3	incongruent/STIM_001.jpg
2290.469	0.99	correct	incongruent	Block3	incongruent/STIM_002.jpg
2293.793	0.642	correct	incongruent	Block3	incongruent/STIM_002.jpg
2298.38	0.999	correct	incongruent	Block3	incongruent/STIM_002.jpg
2302.987	1.058	correct	incongruent	Block3	incongruent/STIM_002.jpg
2306.161	1.006	correct	incongruent	Block3	incongruent/STIM_002.jpg
2310.741	0.875	correct	incongruent	Block3	incongruent/STIM_003.jpg
2314.218	0.906	correct	incongruent	Block3	incongruent/STIM_003.jpg
2318.872	0.933	correct	incongruent	Block3	incongruent/STIM_003.jpg
2322.631	0.802	correct	incongruent	Block3	incongruent/STIM_003.jpg
2326.041	0.828	correct	incongruent	Block3	incongruent/STIM_003.jpg
2329.684	1.078	incorrect	incongruent	Block3	incongruent/STIM_004.jpg
2334.572	0.81	correct	incongruent	Block3	incongruent/STIM_004.jpg
2338.862	0.68	correct	incongruent	Block3	incongruent/STIM_004.jpg
2341.671	0.49	correct	incongruent	Block3	incongruent/STIM_004.jpg
2344.76	0.753	correct	incongruent	Block3	incongruent/STIM_004.jpg
2349.097	0.621	correct	incongruent	Block3	incongruent/STIM_005.jpg
2352.896	0.6	correct	incongruent	Block3	incongruent/STIM_005.jpg
2356.308	1.026	correct	incongruent	Block3	incongruent/STIM_005.jpg
2359.317	1.184	correct	incongruent	Block3	incongruent/STIM_005.jpg
2362.612	0.964	correct	incongruent	Block3	incongruent/STIM_005.jpg
2365.854	1.096	correct	incongruent	Block3	incongruent/STIM_006.jpg
2369.752	0.651	correct	incongruent	Block3	incongruent/STIM_006.jpg
2373.594	0.632	correct	incongruent	Block3	incongruent/STIM_006.jpg
2376.827	0.861	correct	incongruent	Block3	incongruent/STIM_006.jpg
2379.645	0.978	correct	incongruent	Block3	incongruent/STIM_006.jpg
2383.799	1.159	correct	incongruent	Block3	incongruent/STIM_007.jpg
2387.856	0.723	correct	incongruent	Block3	incongruent/STIM_007.jpg
2391.289	1.13	correct	incongruent	Block3	incongruent/STIM_007.jpg
2395.757	0.656	correct	incongruent	Block3	incongruent/STIM_007.jpg
2398.948	0.788	correct	incongruent	Block3	incongruent/STIM_007.jpg
2402.318	0.752	correct	incongruent	Block3	incongruent/STIM_008.jpg
2405.373	0.992	correct	incongruent	Block3	incongruent/STIM_008.jpg
2410.085	0.833	correct	incongruent	Block3	incongruent/STIM_008.jpg
2412.95	0.65	correct	incongruent	Block3	incongruent/STIM_008.jpg
2417.195	0.533	correct	incongruent	Block3	incongruent/STIM_008.jpg
2420.496	0.833	correct	incongruent	Block3	incongruent/STIM_009.jpg
2423.502	0.685	correct	incongruent	Block3	incongruent/STIM_009.jpg
2427.864	1.131	correct	incongruent	Block3	incongruent/STIM_009.jpg
2432.867	1.093	correct	incongruent	Block3	incongruent/STIM_009.jpg
2436.187	1.087	correct	incongruent	Block3	incongruent/STIM_009.jpg
2440.184	0.795	correct	incongruent	Block3	incongruent/STIM_010.jpg
2443.713	0.941	correct	incongruent	Block3	incongruent/STIM_010.jpg
2448.464	0.957	correct	incongruent	Block3	incongruent/STIM_010.jpg
2452.414	0.76	correct	incongruent	Block3	incongruent/STIM_010.jpg
2455.368	0.902	correct	incongruent	Block3	incongruent/STIM_010.jpg
2458.886	0.993	correct	incongruent	Block3	incongruent/STIM_011.jpg
2463.274	0.687	correct	incongruent	Block3	incongruent/STIM_011.jpg
2467.6	1.015	correct	incongruent	Block3	incongruent/STIM_011.jpg
2471.666	1.007	correct	incongruent	Block3	incongruent/STIM_011.jpg
2475.065	0.531	correct	incongruent	Block3	incongruent/STIM_011.jpg
2478.733	0.525	correct	incongruent	Block3	incongruent/STIM_012.jpg
2481.241	1.132	correct	incongruent	Block3	incongruent/STIM_012.jpg
2485.967	0.839	correct	incongruent	Block3	incongruent/STIM_012.jpg
2489.761	0.7	correct	incongruent	Block3	incongruent/STIM_012.jpg
2492.831	0.724	correct	incongruent	Block3	incongruent/STIM_012.jpg
2495.846	0.636	correct	incongruent	Block3	incongruent/STIM_013.jpg
2498.797	0.863	correct	incongruent	Block3	incongruent/STIM_013.jpg
2502.633	0.95	correct	incongruent	Block3	incongruent/STIM_013.jpg
2506.159	0.626	correct	incongruent	Block3	incongruent/STIM_013.jpg
2509.349	0.633	correct	incongruent	Block3	incongruent/STIM_013.jpg
2512.973	0.965	correct	incongruent	Block3	incongruent/STIM_014.jpg
2516.815	0.712	correct	incongruent	Block3	incongruent/STIM_014.jpg
2520.197	0.568	correct	incongruent	Block3	incongruent/STIM_014.jpg
2524.396	1.129	correct	incongruent	Block3	incongruent/STIM_014.jpg
2529.183	0.974	correct	incongruent	Block3	incongruent/STIM_014.jpg
2532.165	0.808	correct	incongruent	Block3	incongruent/STIM_015.jpg
2535.164	0.826	correct	incongruent	Block3	incongruent/STIM_015.jpg
2539.689	0.589	correct	incongruent	Block3	incongruent/STIM_015.jpg
2542.585	0.749	correct	incongruent	Block3	incongruent/STIM_015.jpg
2546.618	0.886	correct	incongruent	Block3	incongruent/STIM_015.jpg
2549.648	0.681	correct	incongruent	Block3	incongruent/STIM_016.jpg
2553.817	0.877	correct	incongruent	Block3	incongruent/STIM_016.jpg
2557.944	0.569	correct	incongruent	Block3	incongruent/STIM_016.jpg
2562.213	0.987	correct	incongruent	Block3	incongruent/STIM_016.jpg
2565.515	0.563	correct	incongruent	Block3	incongruent/STIM_016.jpg
2569.657	0.727	correct	incongruent	Block3	incongruent/STIM_017.jpg
2573.656	1.066	correct	incongruent	Block3	incongruent/STIM_017.jpg
2578.588	0.912	correct	incongruent	Block3	incongruent/STIM_017.jpg
2582.649	0.562	correct	incongruent	Block3	incongruent/STIM_017.jpg
2585.75	0.838	correct	incongruent	Block3	incongruent/STIM_017.jpg
2589.835	0.782	correct	incongruent	Block3	incongruent/STIM_018.jpg
2593.182	0.662	correct	incongruent	Block3	incongruent/STIM_018.jpg
2596.801	0.701	correct	incongruent	Block3	incongruent/STIM_018.jpg
2600.043	0.767	correct	incongruent	Block3	incongruent/STIM_018.jpg
2604.159	0.952	correct	incongruent	Block3	incongruent/STIM_018.jpg
2608.277	0.988	correct	incongruent	Block3	incongruent/STIM_019.jpg
2612.439	0.659	correct	incongruent	Block3	incongruent/STIM_019.jpg
2616.027	1.061	correct	incongruent	Block3	incongruent/STIM_019.jpg
2620.206	0.758	correct	incongruent	Block3	incongruent/STIM_019.jpg
2624.485	0.621	correct	incongruent	Block3	incongruent/STIM_019.jpg
2628.221	0.58	correct	incongruent	Block3	incongruent/STIM_020.jpg
2630.896	0.967	correct	incongruent	Block3	incongruent/STIM_020.jpg
2635.207	1.039	correct	incongruent	Block3	incongruent/STIM_020.jpg
2638.769	0.91	correct	incongruent	Block3	incongruent/STIM_020.jpg
2642.659	0.936	correct	incongruent	Block3	incongruent/STIM_020.jpg
2647.072	0.598	correct	incongruent	Block3	incongruent/STIM_021.jpg
2650.61	1.021	correct	incongruent	Block3	incongruent/STIM_021.jpg
2654.152	0.883	correct	incongruent	Block3	incongruent/STIM_021.jpg
2658.867	0.576	correct	incongruent	Block3	incongruent/STIM_021.jpg
2662.098	1.152	correct	incongruent	Block3	incongruent/STIM_021.jpg
2665.617	0.539	correct	incongruent	Block3	incongruent/STIM_022.jpg
2669.371	0.612	correct	incongruent	Block3	incongruent/STIM_022.jpg
2673.577	0.926	correct	incongruent	Block3	incongruent/STIM_022.jpg
2676.913	1.15	correct	incongruent	Block3	incongruent/STIM_022.jpg
2680.414	0.541	correct	incongruent	Block3	incongruent/STIM_022.jpg
2684.18	0.726	correct	incongruent	Block3	incongruent/STIM_023.jpg
2688.052	0.927	correct	incongruent	Block3	incongruent/STIM_023.jpg
2691.861	0.667	correct	incongruent	Block3	incongruent/STIM_023.jpg
2695.982	0.951	correct	incongruent	Block3	incongruent/STIM_023.jpg
2700.378	0.659	correct	incongruent	Block3	incongruent/STIM_023.jpg
2704.673	1.035	correct	incongruent	Block3	incongruent/STIM_024.jpg
2707.839	1.0	correct	incongruent	Block3	incongruent/STIM_024.jpg
2712.073	1.127	correct	incongruent	Block3	incongruent/STIM_024.jpg
2716.493	0.534	incorrect	incongruent	Block3	incongruent/STIM_024.jpg
2719.767	1.074	correct	incongruent	Block3	incongruent/STIM_024.jpg
2723.471	0.584	correct	incongruent	Block3	incongruent/STIM_025.jpg
2726.15	1.016	correct	incongruent	Block3	incongruent/STIM_025.jpg
2730.944	0.691	correct	incongruent	Block3	incongruent/STIM_025.jpg
2734.431	0.647	correct	incongruent	Block3	incongruent/STIM_025.jpg
2737.41	0.594	correct	incongruent	Block3	incongruent/STIM_025.jpg
2740.242	1.09	correct	incongruent	Block3	incongruent/STIM_026.jpg
2744.609	0.659	correct	incongruent	Block3	incongruent/STIM_026.jpg
2748.109	1.058	correct	incongruent	Block3	incongruent/STIM_026.jpg
2751.928	1.143	correct	incongruent	Block3	incongruent/STIM_026.jpg
2756.184	0.767	correct	incongruent	Block3	incongruent/STIM_026.jpg
2760.688	0.818	correct	incongruent	Block3	incongruent/STIM_027.jpg
2764.417	0.567	correct	incongruent	Block3	incongruent/STIM_027.jpg
2768.606	0.833	correct	incongruent	Block3	incongruent/STIM_027.jpg
2772.905	0.818	correct	incongruent	Block3	incongruent/STIM_027.jpg
2776.082	0.605	correct	incongruent	Block3	incongruent/STIM_027.jpg
2780.403	1.102	correct	incongruent	Block3	incongruent/STIM_028.jpg
2785.065	0.894	correct	incongruent	Block3	incongruent/STIM_028.jpg
2788.432	0.556	correct	incongruent	Block3	incongruent/STIM_028.jpg
2792.678	1.06	correct	incongruent	Block3	incongruent/STIM_028.jpg
2796.998	1.186	correct	incongruent	Block3	incongruent/STIM_028.jpg
2800.655	0.886	correct	incongruent	Block3	incongruent/STIM_029.jpg
2804.308	1.002	correct	incongruent	Block3	incongruent/STIM_029.jpg
2808.018	0.725	correct	incongruent	Block3	incongruent/STIM_029.jpg
2811.477	0.569	correct	incongruent	Block3	incongruent/STIM_029.jpg
2815.621	0.841	correct	incongruent	Block3	incongruent/STIM_029.jpg
2818.691	0.679	correct	congruent	Block3	congruent/STIM_000.jpg
2823.306	0.699	correct	congruent	Block3	congruent/STIM_000.jpg
2826.958	0.691	correct	congruent	Block3	congruent/STIM_000.jpg
2830.17	0.502	correct	congruent	Block3	congruent/STIM_000.jpg
2833.678	0.942	correct	congruent	Block3	congruent/STIM_000.jpg
2837.046	0.767	correct	congruent	Block3	congruent/STIM_001.jpg
2840.885	0.806	correct	congruent	Block3	congruent/STIM_001.jpg
2844.876	0.738	correct	congruent	Block3	congruent/STIM_001.jpg
2847.817	0.778	correct	congruent	Block3	congruent/STIM_001.jpg
2851.866	0.972	correct	congruent	Block3	congruent/STIM_001.jpg
2855.934	0.854	correct	congruent	Block3	congruent/STIM_002.jpg
2859.76	0.722	correct	congruent	Block3	congruent/STIM_002.jpg
2862.758	0.875	correct	congruent	Block3	congruent/STIM_002.jpg
2866.786	0.751	correct	congruent	Block3	congruent/STIM_002.jpg
2869.656	0.787	correct	congruent	Block3	congruent/STIM_002.jpg
2872.607	0.57	correct	congruent	Block3	congruent/STIM_003.jpg
2876.375	0.727	correct	congruent	Block3	congruent/STIM_003.jpg
2880.339	0.597	correct	congruent	Block3	congruent/STIM_003.jpg
2883.708	0.577	correct	congruent	Block3	congruent/STIM_003.jpg
2887.692	0.663	correct	congruent	Block3	congruent/STIM_003.jpg
2890.586	0.937	correct	congruent	Block3	congruent/STIM_004.jpg
2894.442	0.735	correct	congruent	Block3	congruent/STIM_004.jpg
2897.154	0.706	correct	congruent	Block3	congruent/STIM_004.jpg
2900.073	0.837	correct	congruent	Block3	congruent/STIM_004.jpg
2903.362	0.807	correct	congruent	Block3	congruent/STIM_004.jpg
2906.231	0.656	correct	congruent	Block3	congruent/STIM_005.jpg
2909.042	0.533	correct	congruent	Block3	congruent/STIM_005.jpg
2911.738	0.782	correct	congruent	Block3	congruent/STIM_005.jpg
2914.877	0.932	correct	congruent	Block3	congruent/STIM_005.jpg
2918.362	0.685	correct	congruent	Block3	congruent/STIM_005.jpg
2921.992	0.648	incorrect	congruent	Block3	congruent/STIM_006.jpg
2925.348	0.624	correct	congruent	Block3	congruent/STIM_006.jpg
2929.054	0.834	correct	congruent	Block3	congruent/STIM_006.jpg
2932.073	0.617	correct	congruent	Block3	congruent/STIM_006.jpg
2936.438	0.588	correct	congruent	Block3	congruent/STIM_006.jpg
2939.877	0.861	correct	congruent	Block3	congruent/STIM_007.jpg
2942.896	0.91	correct	congruent	Block3	congruent/STIM_007.jpg
2946.838	0.899	correct	congruent	Block3	congruent/STIM_007.jpg
2949.894	0.697	correct	congruent	Block3	congruent/STIM_007.jpg
2953.559	0.822	correct	congruent	Block3	congruent/STIM_007.jpg
2957.955	0.804	correct	congruent	Block3	congruent/STIM_008.jpg
2962.305	0.822	correct	congruent	Block3	congruent/STIM_008.jpg
2965.656	0.888	correct	congruent	Block3	congruent/STIM_008.jpg
2969.985	0.87	correct	congruent	Block3	congruent/STIM_008.jpg
2973.496	0.766	correct	congruent	Block3	congruent/STIM_008.jpg
2978.115	0.981	correct	congruent	Block3	congruent/STIM_009.jpg
2981.505	0.74	correct	congruent	Block3	congruent/STIM_009.jpg
2985.158	0.763	correct	congruent	Block3	congruent/STIM_009.jpg
2987.939	0.815	correct	congruent	Block3	congruent/STIM_009.jpg
2992.004	0.716	correct	congruent	Block3	congruent/STIM_009.jpg
2996.521	0.713	correct	congruent	Block3	congruent/STIM_010.jpg
3001.148	0.88	correct	congruent	Block3	congruent/STIM_010.jpg
3004.765	0.625	correct	congruent	Block3	congruent/STIM_010.jpg
3008.168	0.702	correct	congruent	Block3	congruent/STIM_010.jpg
3011.715	0.653	correct	congruent	Block3	congruent/STIM_010.jpg
3015.362	0.853	correct	congruent	Block3	congruent/STIM_011.jpg
3019.87	0.72	correct	congruent	Block3	congruent/STIM_011.jpg
3023.714	0.775	correct	congruent	Block3	congruent/STIM_011.jpg
3027.612	0.576	correct	congruent	Block3	congruent/STIM_011.jpg
3032.084	0.718	correct	congruent	Block3	congruent/STIM_011.jpg
3036.426	0.873	correct	congruent	Block3	congruent/STIM_012.jpg
3039.885	0.949	correct	congruent	Block3	congruent/STIM_012.jpg
3043.939	0.79	correct	congruent	Block3	congruent/STIM_012.jpg
3048.571	0.8	correct	congruent	Block3	congruent/STIM_012.jpg
3051.719	0.801	correct	congruent	Block3	congruent/STIM_012.jpg
3054.93	0.711	correct	congruent	Block3	congruent/STIM_013.jpg
3058.253	0.959	correct	congruent	Block3	congruent/STIM_013.jpg
3061.153	0.629	correct	congruent	Block3	congruent/STIM_013.jpg
3064.007	0.68	incorrect	congruent	Block3	congruent/STIM_013.jpg
3066.696	0.61	correct	congruent	Block3	congruent/STIM_013.jpg
3069.589	0.94	correct	congruent	Block3	congruent/STIM_014.jpg
3072.806	0.85	correct	congruent	Block3	congruent/STIM_014.jpg
3076.266	0.974	correct	congruent	Block3	congruent/STIM_014.jpg
3079.473	0.894	correct	congruent	Block3	congruent/STIM_014.jpg
3082.844	0.667	correct	congruent	Block3	congruent/STIM_014.jpg
3087.014	0.761	correct	congruent	Block3	congruent/STIM_015.jpg
3089.925	0.531	correct	congruent	Block3	congruent/STIM_015.jpg
3092.608	0.528	correct	congruent	Block3	congruent/STIM_015.jpg
3095.586	0.868	correct	congruent	Block3	congruent/STIM_015.jpg
3099.158	0.647	correct	congruent	Block3	congruent/STIM_015.jpg
3102.542	0.539	correct	congruent	Block3	congruent/STIM_016.jpg
3106.795	0.868	correct	congruent	Block3	congruent/STIM_016.jpg
3110.968	0.87	correct	congruent	Block3	congruent/STIM_016.jpg
3113.906	0.771	incorrect	congruent	Block3	congruent/STIM_016.jpg
3117.265	0.992	correct	congruent	Block3	congruent/STIM_016.jpg
3120.305	0.816	correct	congruent	Block3	congruent/STIM_017.jpg
3123.817	0.884	correct	congruent	Block3	congruent/STIM_017.jpg
3128.192	0.656	correct	congruent	Block3	congruent/STIM_017.jpg
3132.346	0.709	correct	congruent	Block3	congruent/STIM_017.jpg
3134.952	0.616	correct	congruent	Block3	congruent/STIM_017.jpg
3139.381	0.744	correct	congruent	Block3	congruent/STIM_018.jpg
3142.271	0.56	correct	congruent	Block3	congruent/STIM_018.jpg
3146.775	0.906	correct	congruent	Block3	congruent/STIM_018.jpg
3151.017	0.706	correct	congruent	Block3	congruent/STIM_018.jpg
3155.632	0.922	correct	congruent	Block3	congruent/STIM_018.jpg
3159.211	0.626	correct	congruent	Block3	congruent/STIM_019.jpg
3162.713	0.7	correct	congruent	Block3	congruent/STIM_019.jpg
3165.562	0.762	correct	congruent	Block3	congruent/STIM_019.jpg
3169.156	0.832	incorrect	congruent	Block3	congruent/STIM_019.jpg
3173.792	0.758	correct	congruent	Block3	congruent/STIM_019.jpg
3177.778	0.98	correct	congruent	Block3	congruent/STIM_020.jpg
3181.35	0.714	correct	congruent	Block3	congruent/STIM_020.jpg
3185.426	0.773	correct	congruent	Block3	congruent/STIM_020.jpg
3189.569	0.726	correct	congruent	Block3	congruent/STIM_020.jpg
3192.393	0.631	correct	congruent	Block3	congruent/STIM_020.jpg
3195.265	0.937	correct	congruent	Block3	congruent/STIM_021.jpg
3199.715	0.865	correct	congruent	Block3	congruent/STIM_021.jpg
3204.435	0.677	correct	congruent	Block3	congruent/STIM_021.jpg
3207.508	0.718	correct	congruent	Block3	congruent/STIM_021.jpg
3211.621	0.547	correct	congruent	Block3	congruent/STIM_021.jpg
3214.964	0.847	correct	congruent	Block3	congruent/STIM_022.jpg
3219.459	0.868	correct	congruent	Block3	congruent/STIM_022.jpg
3223.186	0.797	correct	congruent	Block3	congruent/STIM_022.jpg
3227.628	0.566	correct	congruent	Block3	congruent/STIM_022.jpg
3232.078	0.664	correct	congruent	Block3	congruent/STIM_022.jpg
3235.531	0.643	correct	congruent	Block3	congruent/STIM_023.jpg
3239.666	0.558	correct	congruent	Block3	congruent/STIM_023.jpg
3243.742	0.924	correct	congruent	Block3	congruent/STIM_023.jpg
3248.348	0.703	incorrect	congruent	Block3	congruent/STIM_023.jpg
3252.212	0.828	correct	congruent	Block3	congruent/STIM_023.jpg
3256.772	0.735	correct	congruent	Block3	congruent/STIM_024.jpg
3259.507	0.731	correct	congruent	Block3	congruent/STIM_024.jpg
3263.897	0.655	correct	congruent	Block3	congruent/STIM_024.jpg
3268.441	0.633	correct	congruent	Block3	congruent/STIM_024.jpg
3271.532	0.72	correct	congruent	Block3	congruent/STIM_024.jpg
3275.954	0.735	correct	congruent	Block3	congruent/STIM_025.jpg
3279.035	0.702	correct	congruent	Block3	congruent/STIM_025.jpg
3281.94	0.924	correct	congruent	Block3	congruent/STIM_025.jpg
3286.46	0.798	correct	congruent	Block3	congruent/STIM_025.jpg
3289.384	0.891	correct	congruent	Block3	congruent/STIM_025.jpg
3293.739	0.522	incorrect	congruent	Block3	congruent/STIM_026.jpg
3296.317	0.713	correct	congruent	Block3	congruent/STIM_026.jpg
3299.904	0.605	correct	congruent	Block3	congruent/STIM_026.jpg
3303.99	0.765	correct	congruent	Block3	congruent/STIM_026.jpg
3307.606	0.791	incorrect	congruent	Block3	congruent/STIM_026.jpg
3310.765	0.748	correct	congruent	Block3	congruent/STIM_027.jpg
3315.245	0.837	correct	congruent	Block3	congruent/STIM_027.jpg
3318.54	0.636	correct	congruent	Block3	congruent/STIM_027.jpg
3321.491	0.922	correct	congruent	Block3	congruent/STIM_027.jpg
3325.136	0.931	correct	congruent	Block3	congruent/STIM_027.jpg
3329.091	0.635	correct	congruent	Block3	congruent/STIM_028.jpg
3332.812	0.544	correct	congruent	Block3	congruent/STIM_028.jpg
3336.991	0.835	incorrect	congruent	Block3	congruent/STIM_028.jpg
3340.656	0.518	correct	congruent	Block3	congruent/STIM_028.jpg
3344.955	0.886	correct	congruent	Block3	congruent/STIM_028.jpg
3348.977	0.714	correct	congruent	Block3	congruent/STIM_029.jpg
3351.915	0.749	correct	congruent	Block3	congruent/STIM_029.jpg
3354.82	0.858	correct	congruent	Block3	congruent/STIM_029.jpg
3359.206	0.628	correct	congruent	Block3	congruent/STIM_029.jpg
3362.132	0.723	correct	congruent	Block3	congruent/STIM_029.jpg
