onset	duration	response_time_ms	trial_type	learning_stage	stimulus	response_port
0.0	2.087	2087.3	navigation	Trial1	navigation/STIM_000.jpg	99
5.191	2.219	2219.2	navigation	Trial1	navigation/STIM_000.jpg	100
10.617	3.585	3584.9	navigation	Trial1	navigation/STIM_000.jpg	100
17.497	1.686	1686.5	navigation	Trial1	navigation/STIM_000.jpg	100
21.371	2.041	2040.6	navigation	Trial1	navigation/STIM_000.jpg	99
25.758	2.976	2975.8	navigation	Trial1	navigation/STIM_000.jpg	100
30.763	4.241	4241.4	navigation	Trial1	navigation/STIM_001.jpg	99
37.997	2.131	2130.9	navigation	Trial1	navigation/STIM_001.jpg	99
43.424	1.873	1873.2	navigation	Trial1	navigation/STIM_001.jpg	99
47.714	2.221	2220.8	navigation	Trial1	navigation/STIM_001.jpg	100
52.497	2.653	2652.8	navigation	Trial1	navigation/STIM_001.jpg	100
58.156	3.17	3170.0	navigation	Trial1	navigation/STIM_001.jpg	100
64.17	3.834	3834.0	navigation	Trial1	navigation/STIM_002.jpg	100
70.569	2.273	2272.9	navigation	Trial1	navigation/STIM_002.jpg	99
76.781	3.383	3383.2	navigation	Trial1	navigation/STIM_002.jpg	99
82.169	3.426	3426.1	navigation	Trial1	navigation/STIM_002.jpg	99
89.485	2.437	2437.0	navigation	Trial1	navigation/STIM_002.jpg	99
94.419	1.585	1584.8	navigation	Trial1	navigation/STIM_002.jpg	100
98.6	4.022	4022.5	navigation	Trial1	navigation/STIM_003.jpg	99
104.722	3.38	3380.3	navigation	Trial1	navigation/STIM_003.jpg	99
110.744	1.933	1933.1	navigation	Trial1	navigation/STIM_003.jpg	99
114.758	2.482	2482.2	navigation	Trial1	navigation/STIM_003.jpg	99
120.97	2.661	2660.6	navigation	Trial1	navigation/STIM_003.jpg	100
126.4	2.068	2068.5	navigation	Trial1	navigation/STIM_003.jpg	100
131.274	2.729	2729.4	navigation	Trial1	navigation/STIM_004.jpg	99
137.449	2.604	2604.2	navigation	Trial1	navigation/STIM_004.jpg	99
143.907	3.789	3789.3	navigation	Trial1	navigation/STIM_004.jpg	100
150.136	1.889	1889.3	navigation	Trial1	navigation/STIM_004.jpg	100
154.362	3.041	3040.8	navigation	Trial1	navigation/STIM_004.jpg	100
160.7	1.612	1612.2	navigation	Trial1	navigation/STIM_004.jpg	99
165.49	1.958	1957.5	navigation	Trial1	navigation/STIM_005.jpg	99
171.234	2.221	2220.8	navigation	Trial1	navigation/STIM_005.jpg	99
177.18	2.914	2914.1	navigation	Trial1	navigation/STIM_005.jpg	99
183.41	3.61	3610.2	navigation	Trial1	navigation/STIM_005.jpg	99
189.494	1.868	1868.1	navigation	Trial1	navigation/STIM_005.jpg	99
194.078	2.205	2205.0	navigation	Trial1	navigation/STIM_005.jpg	99
198.812	3.15	3149.7	navigation	Trial1	navigation/STIM_006.jpg	99
204.982	3.579	3579.4	navigation	Trial1	navigation/STIM_006.jpg	100
210.793	2.636	2635.8	navigation	Trial1	navigation/STIM_006.jpg	99
215.582	3.529	3529.3	navigation	Trial1	navigation/STIM_006.jpg	99
221.7	3.253	3253.0	navigation	Trial1	navigation/STIM_006.jpg	100
228.688	2.206	2205.6	navigation	Trial1	navigation/STIM_006.jpg	100
233.421	2.268	2268.2	navigation	Trial1	navigation/STIM_007.jpg	99
238.578	2.624	2623.9	navigation	Trial1	navigation/STIM_007.jpg	100
243.785	2.349	2349.4	navigation	Trial1	navigation/STIM_007.jpg	100
248.87	2.066	2066.0	navigation	Trial1	navigation/STIM_007.jpg	100
254.246	2.207	2207.3	navigation	Trial1	navigation/STIM_007.jpg	100
259.547	1.756	1755.7	navigation	Trial1	navigation/STIM_007.jpg	99
264.341	4.14	4139.7	navigation	Trial1	navigation/STIM_008.jpg	99
272.434	3.862	3861.5	navigation	Trial1	navigation/STIM_008.jpg	99
279.368	3.395	3395.2	navigation	Trial1	navigation/STIM_008.jpg	99
285.782	2.525	2525.3	navigation	Trial1	navigation/STIM_008.jpg	100
291.543	2.471	2470.6	navigation	Trial1	navigation/STIM_008.jpg	99
296.612	3.182	3181.7	navigation	Trial1	navigation/STIM_008.jpg	100
303.415	3.699	3699.3	navigation	Trial1	navigation/STIM_009.jpg	100
309.289	1.97	1969.5	navigation	Trial1	navigation/STIM_009.jpg	99
314.488	2.279	2279.4	navigation	Trial1	navigation/STIM_009.jpg	99
318.974	2.597	2597.2	navigation	Trial1	navigation/STIM_009.jpg	100
324.613	1.986	1985.5	navigation	Trial1	navigation/STIM_009.jpg	99
330.168	1.797	1797.3	navigation	Trial1	navigation/STIM_009.jpg	99
335.523	2.928	2927.8	navigation	Trial1	navigation/STIM_010.jpg	100
341.002	2.563	2563.4	navigation	Trial1	navigation/STIM_010.jpg	100
345.902	3.594	3593.9	navigation	Trial1	navigation/STIM_010.jpg	100
352.518	1.586	1586.5	navigation	Trial1	navigation/STIM_010.jpg	100
356.808	2.152	2151.5	navigation	Trial1	navigation/STIM_010.jpg	100
362.819	1.521	1521.0	navigation	Trial1	navigation/STIM_010.jpg	99
367.443	3.949	3948.7	navigation	Trial1	navigation/STIM_011.jpg	99
374.695	2.529	2528.8	navigation	Trial1	navigation/STIM_011.jpg	99
379.99	3.577	3576.6	navigation	Trial1	navigation/STIM_011.jpg	100
386.323	2.594	2594.0	navigation	Trial1	navigation/STIM_011.jpg	99
391.026	2.132	2132.2	navigation	Trial1	navigation/STIM_011.jpg	99
395.839	2.204	2204.1	navigation	Trial1	navigation/STIM_011.jpg	99
400.075	0.81	809.8	pointing	Trial1	pointing/STIM_000.jpg	99
404.23	1.044	1044.0	pointing	Trial1	pointing/STIM_000.jpg	99
409.214	1.217	1217.2	pointing	Trial1	pointing/STIM_000.jpg	100
413.821	0.855	855.3	pointing	Trial1	pointing/STIM_000.jpg	99
417.725	1.274	1274.2	pointing	Trial1	pointing/STIM_000.jpg	99
421.599	1.07	1070.4	pointing	Trial1	pointing/STIM_000.jpg	99
425.636	1.037	1036.6	pointing	Trial1	pointing/STIM_001.jpg	100
429.087	1.168	1168.2	pointing	Trial1	pointing/STIM_001.jpg	100
433.356	1.227	1226.6	pointing	Trial1	pointing/STIM_001.jpg	99
437.346	1.118	1117.9	pointing	Trial1	pointing/STIM_001.jpg	99
442.215	0.835	835.1	pointing	Trial1	pointing/STIM_001.jpg	99
446.48	1.24	1240.2	pointing	Trial1	pointing/STIM_001.jpg	99
451.507	1.109	1109.0	pointing	Trial1	pointing/STIM_002.jpg	99
455.757	1.234	1233.9	pointing	Trial1	pointing/STIM_002.jpg	100
459.674	1.154	1154.3	pointing	Trial1	pointing/STIM_002.jpg	99
464.775	1.1	1100.3	pointing	Trial1	pointing/STIM_002.jpg	99
468.632	0.718	718.5	pointing	Trial1	pointing/STIM_002.jpg	100
471.567	0.938	938.1	pointing	Trial1	pointing/STIM_002.jpg	99
474.65	0.782	781.7	pointing	Trial1	pointing/STIM_003.jpg	100
478.864	0.992	992.0	pointing	Trial1	pointing/STIM_003.jpg	100
482.837	0.718	717.7	pointing	Trial1	pointing/STIM_003.jpg	99
486.532	1.056	1055.7	pointing	Trial1	pointing/STIM_003.jpg	100
490.468	1.162	1161.7	pointing	Trial1	pointing/STIM_003.jpg	100
495.246	1.239	1238.8	pointing	Trial1	pointing/STIM_003.jpg	99
499.648	0.896	896.5	pointing	Trial1	pointing/STIM_004.jpg	99
504.283	0.834	833.7	pointing	Trial1	pointing/STIM_004.jpg	99
508.646	1.233	1232.7	pointing	Trial1	pointing/STIM_004.jpg	100
513.394	1.173	1172.8	pointing	Trial1	pointing/STIM_004.jpg	99
517.723	0.734	733.6	pointing	Trial1	pointing/STIM_004.jpg	100
521.791	1.07	1069.8	pointing	Trial1	pointing/STIM_004.jpg	100
525.743	1.025	1024.8	pointing	Trial1	pointing/STIM_005.jpg	100
529.544	1.112	1112.2	pointing	Trial1	pointing/STIM_005.jpg	99
533.003	1.158	1158.4	pointing	Trial1	pointing/STIM_005.jpg	100
536.391	1.099	1099.2	pointing	Trial1	pointing/STIM_005.jpg	99
541.008	0.921	921.0	pointing	Trial1	pointing/STIM_005.jpg	100
544.488	0.966	966.2	pointing	Trial1	pointing/STIM_005.jpg	100
548.025	0.926	926.5	pointing	Trial1	pointing/STIM_006.jpg	100
551.351	0.809	808.7	pointing	Trial1	pointing/STIM_006.jpg	100
554.867	0.902	902.5	pointing	Trial1	pointing/STIM_006.jpg	99
558.586	1.18	1179.9	pointing	Trial1	pointing/STIM_006.jpg	99
563.738	0.836	835.6	pointing	Trial1	pointing/STIM_006.jpg	99
566.941	1.154	1154.1	pointing	Trial1	pointing/STIM_006.jpg	99
570.306	0.976	976.0	pointing	Trial1	pointing/STIM_007.jpg	99
574.726	0.865	865.4	pointing	Trial1	pointing/STIM_007.jpg	99
577.935	0.725	724.9	pointing	Trial1	pointing/STIM_007.jpg	99
581.012	1.024	1024.1	pointing	Trial1	pointing/STIM_007.jpg	100
585.851	0.925	924.9	pointing	Trial1	pointing/STIM_007.jpg	100
590.684	0.87	869.5	pointing	Trial1	pointing/STIM_007.jpg	99
595.486	1.271	1271.3	pointing	Trial1	pointing/STIM_008.jpg	99
599.291	0.8	799.6	pointing	Trial1	pointing/STIM_008.jpg	100
602.899	0.984	984.1	pointing	Trial1	pointing/STIM_008.jpg	99
607.24	0.857	857.1	pointing	Trial1	pointing/STIM_008.jpg	99
610.181	0.906	906.0	pointing	Trial1	pointing/STIM_008.jpg	100
614.772	1.103	1103.1	pointing	Trial1	pointing/STIM_008.jpg	99
618.33	1.072	1072.1	pointing	Trial1	pointing/STIM_009.jpg	100
622.673	1.2	1199.5	pointing	Trial1	pointing/STIM_009.jpg	99
627.777	1.226	1226.1	pointing	Trial1	pointing/STIM_009.jpg	100
632.896	1.152	1151.5	pointing	Trial1	pointing/STIM_009.jpg	100
636.956	1.059	1059.2	pointing	Trial1	pointing/STIM_009.jpg	100
640.605	0.945	945.1	pointing	Trial1	pointing/STIM_009.jpg	100
644.392	0.744	744.2	pointing	Trial1	pointing/STIM_010.jpg	100
649.077	0.969	968.9	pointing	Trial1	pointing/STIM_010.jpg	100
652.177	0.95	950.1	pointing	Trial1	pointing/STIM_010.jpg	99
655.971	0.718	718.3	pointing	Trial1	pointing/STIM_010.jpg	99
660.188	1.113	1113.1	pointing	Trial1	pointing/STIM_010.jpg	100
664.155	0.774	774.0	pointing	Trial1	pointing/STIM_010.jpg	99
667.352	0.741	741.0	pointing	Trial1	pointing/STIM_011.jpg	99
671.901	0.762	761.7	pointing	Trial1	pointing/STIM_011.jpg	100
675.98	0.839	839.2	pointing	Trial1	pointing/STIM_011.jpg	100
680.725	1.184	1183.7	pointing	Trial1	pointing/STIM_011.jpg	99
684.774	0.853	852.6	pointing	Trial1	pointing/STIM_011.jpg	100
689.089	0.789	789.1	pointing	Trial1	pointing/STIM_011.jpg	99
693.729	2.333	2332.9	navigation	Trial2	navigation/STIM_000.jpg	99
698.177	2.476	2476.2	navigation	Trial2	navigation/STIM_000.jpg	100
703.906	2.246	2246.1	navigation	Trial2	navigation/STIM_000.jpg	100
709.469	2.827	2826.6	navigation	Trial2	navigation/STIM_000.jpg	100
715.928	1.841	1841.2	navigation	Trial2	navigation/STIM_000.jpg	99
720.541	1.643	1643.1	navigation	Trial2	navigation/STIM_000.jpg	100
724.861	3.012	3011.6	navigation	Trial2	navigation/STIM_001.jpg	99
731.174	2.65	2649.8	navigation	Trial2	navigation/STIM_001.jpg	99
736.325	2.083	2082.7	navigation	Trial2	navigation/STIM_001.jpg	99
740.829	2.551	2551.3	navigation	Trial2	navigation/STIM_001.jpg	100
746.156	2.748	2748.3	navigation	Trial2	navigation/STIM_001.jpg	100
752.249	1.992	1992.5	navigation	Trial2	navigation/STIM_001.jpg	100
756.564	3.664	3664.3	navigation	Trial2	navigation/STIM_002.jpg	100
762.326	1.546	1545.9	navigation	Trial2	navigation/STIM_002.jpg	100
767.105	2.912	2911.5	navigation	Trial2	navigation/STIM_002.jpg	100
772.581	1.913	1913.4	navigation	Trial2	navigation/STIM_002.jpg	100
776.668	2.942	2942.1	navigation	Trial2	navigation/STIM_002.jpg	100
783.216	1.597	1597.4	navigation	Trial2	navigation/STIM_002.jpg	100
787.462	2.812	2811.7	navigation	Trial2	navigation/STIM_003.jpg	99
794.097	1.418	1417.6	navigation	Trial2	navigation/STIM_003.jpg	99
798.983	1.789	1789.3	navigation	Trial2	navigation/STIM_003.jpg	100
804.658	1.942	1942.1	navigation	Trial2	navigation/STIM_003.jpg	99
809.905	1.4	1399.8	navigation	Trial2	navigation/STIM_003.jpg	100
815.252	2.351	2351.2	navigation	Trial2	navigation/STIM_003.jpg	100
819.748	2.173	2172.9	navigation	Trial2	navigation/STIM_004.jpg	100
825.614	3.42	3420.5	navigation	Trial2	navigation/STIM_004.jpg	99
832.255	1.42	1420.3	navigation	Trial2	navigation/STIM_004.jpg	99
836.101	2.981	2980.9	navigation	Trial2	navigation/STIM_004.jpg	100
841.085	2.616	2616.4	navigation	Trial2	navigation/STIM_004.jpg	100
846.475	2.683	2683.2	navigation	Trial2	navigation/STIM_004.jpg	100
852.156	3.161	3161.1	navigation	Trial2	navigation/STIM_005.jpg	99
858.568	2.236	2235.7	navigation	Trial2	navigation/STIM_005.jpg	99
863.56	3.014	3013.8	navigation	Trial2	navigation/STIM_005.jpg	100
869.387	1.686	1685.9	navigation	Trial2	navigation/STIM_005.jpg	100
874.793	2.834	2833.5	navigation	Trial2	navigation/STIM_005.jpg	100
881.445	1.339	1339.0	navigation	Trial2	navigation/STIM_005.jpg	99
886.307	2.58	2579.5	navigation	Trial2	navigation/STIM_006.jpg	100
892.268	2.332	2332.0	navigation	Trial2	navigation/STIM_006.jpg	99
896.903	2.048	2048.2	navigation	Trial2	navigation/STIM_006.jpg	99
901.61	1.636	1636.5	navigation	Trial2	navigation/STIM_006.jpg	100
907.0	1.573	1572.8	navigation	Trial2	navigation/STIM_006.jpg	100
911.439	2.978	2977.7	navigation	Trial2	navigation/STIM_006.jpg	99
918.075	2.171	2171.4	navigation	Trial2	navigation/STIM_007.jpg	99
922.564	2.424	2424.0	navigation	Trial2	navigation/STIM_007.jpg	99
928.88	2.9	2899.8	navigation	Trial2	navigation/STIM_007.jpg	100
934.589	2.221	2220.6	navigation	Trial2	navigation/STIM_007.jpg	99
939.786	1.616	1615.7	navigation	Trial2	navigation/STIM_007.jpg	99
943.775	2.142	2141.6	navigation	Trial2	navigation/STIM_007.jpg	99
948.09	1.67	1670.3	navigation	Trial2	navigation/STIM_008.jpg	100
952.938	2.239	2238.6	navigation	Trial2	navigation/STIM_008.jpg	99
958.536	1.801	1801.0	navigation	Trial2	navigation/STIM_008.jpg	100
963.695	1.437	1436.9	navigation	Trial2	navigation/STIM_008.jpg	100
968.471	2.442	2442.2	navigation	Trial2	navigation/STIM_008.jpg	100
973.294	2.725	2725.1	navigation	Trial2	navigation/STIM_008.jpg	99
978.352	3.547	3547.2	navigation	Trial2	navigation/STIM_009.jpg	100
984.892	2.588	2587.9	navigation	Trial2	navigation/STIM_009.jpg	100
990.798	2.725	2724.7	navigation	Trial2	navigation/STIM_009.jpg	100
996.108	2.965	2964.7	navigation	Trial2	navigation/STIM_009.jpg	100
1001.185	2.367	2367.3	navigation	Trial2	navigation/STIM_009.jpg	100
1007.342	2.093	2093.1	navigation	Trial2	navigation/STIM_009.jpg	99
1012.155	1.757	1756.7	navigation	Trial2	navigation/STIM_010.jpg	99
1017.388	1.688	1687.5	navigation	Trial2	navigation/STIM_010.jpg	100
1021.446	1.589	1589.0	navigation	Trial2	navigation/STIM_010.jpg	99
1026.963	1.511	1510.7	navigation	Trial2	navigation/STIM_010.jpg	100
1031.816	2.67	2670.3	navigation	Trial2	navigation/STIM_010.jpg	99
1037.03	2.779	2779.3	navigation	Trial2	navigation/STIM_010.jpg	100
1042.53	3.022	3022.4	navigation	Trial2	navigation/STIM_011.jpg	100
1049.43	3.397	3397.2	navigation	Trial2	navigation/STIM_011.jpg	99
1055.915	2.756	2755.7	navigation	Trial2	navigation/STIM_011.jpg	100
1061.203	1.623	1623.3	navigation	Trial2	navigation/STIM_011.jpg	100
1066.667	2.003	2003.0	navigation	Trial2	navigation/STIM_011.jpg	100
1071.654	2.365	2365.2	navigation	Trial2	navigation/STIM_011.jpg	100
1077.721	1.244	1244.3	pointing	Trial2	pointing/STIM_000.jpg	99
1081.363	1.077	1077.4	pointing	Trial2	pointing/STIM_000.jpg	99
1086.381	0.881	881.1	pointing	Trial2	pointing/STIM_000.jpg	100
1089.754	1.026	1026.3	pointing	Trial2	pointing/STIM_000.jpg	99
1093.3	0.984	984.2	pointing	Trial2	pointing/STIM_000.jpg	100
1097.773	1.274	1274.0	pointing	Trial2	pointing/STIM_000.jpg	99
1101.584	1.257	1256.8	pointing	Trial2	pointing/STIM_001.jpg	100
1106.678	0.812	812.3	pointing	Trial2	pointing/STIM_001.jpg	99
1109.821	1.248	1248.3	pointing	Trial2	pointing/STIM_001.jpg	99
1114.2	1.159	1159.0	pointing	Trial2	pointing/STIM_001.jpg	99
1118.788	0.804	804.1	pointing	Trial2	pointing/STIM_001.jpg	99
1121.648	1.243	1243.2	pointing	Trial2	pointing/STIM_001.jpg	100
1126.728	1.145	1145.3	pointing	Trial2	pointing/STIM_002.jpg	99
1130.64	1.172	1171.5	pointing	Trial2	pointing/STIM_002.jpg	99
1134.637	1.288	1288.3	pointing	Trial2	pointing/STIM_002.jpg	100
1139.46	1.125	1124.9	pointing	Trial2	pointing/STIM_002.jpg	99
1143.931	0.96	959.6	pointing	Trial2	pointing/STIM_002.jpg	100
1148.255	0.913	913.0	pointing	Trial2	pointing/STIM_002.jpg	100
1151.866	1.001	1001.0	pointing	Trial2	pointing/STIM_003.jpg	100
1155.021	0.786	785.9	pointing	Trial2	pointing/STIM_003.jpg	100
1158.257	1.074	1074.4	pointing	Trial2	pointing/STIM_003.jpg	100
1162.031	0.754	754.1	pointing	Trial2	pointing/STIM_003.jpg	99
1166.013	0.906	905.8	pointing	Trial2	pointing/STIM_003.jpg	99
1170.743	1.042	1042.5	pointing	Trial2	pointing/STIM_003.jpg	100
1175.737	1.109	1108.8	pointing	Trial2	pointing/STIM_004.jpg	100
1180.346	1.255	1254.8	pointing	Trial2	pointing/STIM_004.jpg	99
1183.909	1.098	1097.6	pointing	Trial2	pointing/STIM_004.jpg	99
1188.759	1.137	1136.8	pointing	Trial2	pointing/STIM_004.jpg	100
1193.374	0.906	906.1	pointing	Trial2	pointing/STIM_004.jpg	100
1197.411	1.06	1059.8	pointing	Trial2	pointing/STIM_004.jpg	100
1202.426	1.155	1155.1	pointing	Trial2	pointing/STIM_005.jpg	100
1206.361	1.271	1270.9	pointing	Trial2	pointing/STIM_005.jpg	99
1211.214	0.768	768.1	pointing	Trial2	pointing/STIM_005.jpg	100
1214.327	1.267	1266.8	pointing	Trial2	pointing/STIM_005.jpg	100
1217.906	1.24	1239.7	pointing	Trial2	pointing/STIM_005.jpg	100
1222.852	0.755	755.2	pointing	Trial2	pointing/STIM_005.jpg	100
1227.234	0.732	732.4	pointing	Trial2	pointing/STIM_006.jpg	100
1230.469	0.713	713.1	pointing	Trial2	pointing/STIM_006.jpg	99
1234.865	0.928	927.9	pointing	Trial2	pointing/STIM_006.jpg	100
1239.589	1.013	1013.2	pointing	Trial2	pointing/STIM_006.jpg	99
1244.181	1.136	1135.8	pointing	Trial2	pointing/STIM_006.jpg	99
1249.199	0.861	861.4	pointing	Trial2	pointing/STIM_006.jpg	100
1253.767	1.135	1135.0	pointing	Trial2	pointing/STIM_007.jpg	100
1258.436	0.942	942.3	pointing	Trial2	pointing/STIM_007.jpg	99
1261.444	0.724	724.2	pointing	Trial2	pointing/STIM_007.jpg	100
1265.392	1.183	1183.3	pointing	Trial2	pointing/STIM_007.jpg	99
1268.812	1.202	1201.7	pointing	Trial2	pointing/STIM_007.jpg	100
1272.096	1.231	1231.2	pointing	Trial2	pointing/STIM_007.jpg	100
1275.797	1.047	1047.0	pointing	Trial2	pointing/STIM_008.jpg	99
1280.092	1.045	1045.0	pointing	Trial2	pointing/STIM_008.jpg	99
1283.253	0.842	841.8	pointing	Trial2	pointing/STIM_008.jpg	100
1286.446	1.01	1009.6	pointing	Trial2	pointing/STIM_008.jpg	100
1289.559	1.076	1075.8	pointing	Trial2	pointing/STIM_008.jpg	99
1293.66	1.212	1212.0	pointing	Trial2	pointing/STIM_008.jpg	99
1296.879	1.018	1018.0	pointing	Trial2	pointing/STIM_009.jpg	99
1301.508	0.939	939.3	pointing	Trial2	pointing/STIM_009.jpg	99
1305.558	1.138	1138.1	pointing	Trial2	pointing/STIM_009.jpg	99
1309.376	0.758	758.3	pointing	Trial2	pointing/STIM_009.jpg	100
1312.278	1.15	1150.1	pointing	Trial2	pointing/STIM_009.jpg	99
1317.152	0.852	852.1	pointing	Trial2	pointing/STIM_009.jpg	99
1320.33	1.096	1096.5	pointing	Trial2	pointing/STIM_010.jpg	100
1324.823	0.932	932.3	pointing	Trial2	pointing/STIM_010.jpg	99
1328.366	1.058	1057.9	pointing	Trial2	pointing/STIM_010.jpg	100
1332.574	1.014	1014.4	pointing	Trial2	pointing/STIM_010.jpg	99
1337.343	0.715	715.2	pointing	Trial2	pointing/STIM_010.jpg	100
1341.628	1.005	1005.3	pointing	Trial2	pointing/STIM_010.jpg	100
1344.685	1.033	1033.3	pointing	Trial2	pointing/STIM_011.jpg	99
1349.216	0.962	962.5	pointing	Trial2	pointing/STIM_011.jpg	99
1352.847	0.932	931.7	pointing	Trial2	pointing/STIM_011.jpg	99
1356.505	0.726	725.5	pointing	Trial2	pointing/STIM_011.jpg	99
1359.502	1.148	1147.8	pointing	Trial2	pointing/STIM_011.jpg	99
1363.986	0.976	976.3	pointing	Trial2	pointing/STIM_011.jpg	99
1367.311	2.732	2732.5	navigation	Trial3	navigation/STIM_000.jpg	100
1372.476	1.784	1784.4	navigation	Trial3	navigation/STIM_000.jpg	100
1377.076	1.829	1829.3	navigation	Trial3	navigation/STIM_000.jpg	100
1382.877	2.872	2872.0	navigation	Trial3	navigation/STIM_000.jpg	99
1389.036	1.234	1233.9	navigation	Trial3	navigation/STIM_000.jpg	99
1392.349	1.54	1539.5	navigation	Trial3	navigation/STIM_000.jpg	99
1396.523	1.384	1383.5	navigation	Trial3	navigation/STIM_001.jpg	100
1401.785	2.018	2017.9	navigation	Trial3	navigation/STIM_001.jpg	100
1407.608	2.225	2224.8	navigation	Trial3	navigation/STIM_001.jpg	99
1412.852	1.389	1388.9	navigation	Trial3	navigation/STIM_001.jpg	100
1417.23	1.264	1264.5	navigation	Trial3	navigation/STIM_001.jpg	100
1420.969	2.671	2670.7	navigation	Trial3	navigation/STIM_001.jpg	99
1427.203	1.58	1580.4	navigation	Trial3	navigation/STIM_002.jpg	100
1431.368	2.924	2924.2	navigation	Trial3	navigation/STIM_002.jpg	100
1436.365	2.152	2152.2	navigation	Trial3	navigation/STIM_002.jpg	99
1440.841	2.456	2455.5	navigation	Trial3	navigation/STIM_002.jpg	99
1445.916	1.755	1755.2	navigation	Trial3	navigation/STIM_002.jpg	100
1449.983	2.221	2220.6	navigation	Trial3	navigation/STIM_002.jpg	99
1455.09	2.815	2815.0	navigation	Trial3	navigation/STIM_003.jpg	99
1460.737	2.909	2908.7	navigation	Trial3	navigation/STIM_003.jpg	100
1465.82	2.856	2855.5	navigation	Trial3	navigation/STIM_003.jpg	99
1472.362	2.86	2860.5	navigation	Trial3	navigation/STIM_003.jpg	100
1478.493	2.859	2859.4	navigation	Trial3	navigation/STIM_003.jpg	100
1483.625	1.663	1662.7	navigation	Trial3	navigation/STIM_003.jpg	99
1487.414	1.772	1772.4	navigation	Trial3	navigation/STIM_004.jpg	99
1492.614	1.507	1507.2	navigation	Trial3	navigation/STIM_004.jpg	100
1498.012	2.548	2547.5	navigation	Trial3	navigation/STIM_004.jpg	100
1504.135	2.217	2216.8	navigation	Trial3	navigation/STIM_004.jpg	99
1508.551	1.855	1855.2	navigation	Trial3	navigation/STIM_004.jpg	100
1513.373	2.417	2417.0	navigation	Trial3	navigation/STIM_004.jpg	100
1519.483	1.658	1657.5	navigation	Trial3	navigation/STIM_005.jpg	99
1525.137	1.979	1978.6	navigation	Trial3	navigation/STIM_005.jpg	99
1530.914	1.546	1545.9	navigation	Trial3	navigation/STIM_005.jpg	99
1536.414	2.464	2463.6	navigation	Trial3	navigation/STIM_005.jpg	100
1540.887	1.972	1972.0	navigation	Trial3	navigation/STIM_005.jpg	100
1544.965	2.098	2098.3	navigation	Trial3	navigation/STIM_005.jpg	100
1549.653	2.162	2162.2	navigation	Trial3	navigation/STIM_006.jpg	100
1554.502	1.952	1952.2	navigation	Trial3	navigation/STIM_006.jpg	100
1558.841	1.841	1840.9	navigation	Trial3	navigation/STIM_006.jpg	100
1562.874	1.232	1231.9	navigation	Trial3	navigation/STIM_006.jpg	100
1567.692	1.735	1734.7	navigation	Trial3	navigation/STIM_006.jpg	100
1572.971	1.708	1708.3	navigation	Trial3	navigation/STIM_006.jpg	99
1577.698	2.944	2943.6	navigation	Trial3	navigation/STIM_007.jpg	100
1583.819	2.314	2314.4	navigation	Trial3	navigation/STIM_007.jpg	100
1588.756	2.457	2457.4	navigation	Trial3	navigation/STIM_007.jpg	99
1594.335	2.729	2729.0	navigation	Trial3	navigation/STIM_007.jpg	100
1600.939	1.606	1605.5	navigation	Trial3	navigation/STIM_007.jpg	99
1605.353	2.058	2058.0	navigation	Trial3	navigation/STIM_007.jpg	100
1609.995	2.086	2086.5	navigation	Trial3	navigation/STIM_008.jpg	99
1615.572	1.268	1267.6	navigation	Trial3	navigation/STIM_008.jpg	99
1620.751	1.985	1985.4	navigation	Trial3	navigation/STIM_008.jpg	100
1626.484	2.89	2890.4	navigation	Trial3	navigation/STIM_008.jpg	100
1632.784	2.993	2993.4	navigation	Trial3	navigation/STIM_008.jpg	100
1639.751	1.69	1690.0	navigation	Trial3	navigation/STIM_008.jpg	100
1644.755	1.786	1785.6	navigation	Trial3	navigation/STIM_009.jpg	100
1648.767	1.661	1660.9	navigation	Trial3	navigation/STIM_009.jpg	100
1652.65	2.767	2767.4	navigation	Trial3	navigation/STIM_009.jpg	100
1658.323	2.837	2836.6	navigation	Trial3	navigation/STIM_009.jpg	99
1664.984	1.755	1754.6	navigation	Trial3	navigation/STIM_009.jpg	100
1669.74	1.808	1808.2	navigation	Trial3	navigation/STIM_009.jpg	100
1673.715	1.926	1926.3	navigation	Trial3	navigation/STIM_010.jpg	99
1678.428	2.289	2288.7	navigation	Trial3	navigation/STIM_010.jpg	100
1683.257	2.419	2418.7	navigation	Trial3	navigation/STIM_010.jpg	99
1687.921	2.485	2484.6	navigation	Trial3	navigation/STIM_010.jpg	99
1693.034	1.603	1603.4	navigation	Trial3	navigation/STIM_010.jpg	99
1696.749	2.604	2603.9	navigation	Trial3	navigation/STIM_010.jpg	100
1701.992	2.659	2659.4	navigation	Trial3	navigation/STIM_011.jpg	99
1708.193	1.586	1586.4	navigation	Trial3	navigation/STIM_011.jpg	99
1713.453	1.824	1824.5	navigation	Trial3	navigation/STIM_011.jpg	99
1718.52	2.484	2483.7	navigation	Trial3	navigation/STIM_011.jpg	100
1724.296	1.742	1741.7	navigation	Trial3	navigation/STIM_011.jpg	99
1729.794	2.323	2322.8	navigation	Trial3	navigation/STIM_011.jpg	100
1736.047	1.156	1155.9	pointing	Trial3	pointing/STIM_000.jpg	100
1739.494	0.837	837.0	pointing	Trial3	pointing/STIM_000.jpg	100
1743.816	1.282	1282.1	pointing	Trial3	pointing/STIM_000.jpg	99
1748.626	0.987	987.0	pointing	Trial3	pointing/STIM_000.jpg	99
1751.839	1.197	1197.1	pointing	Trial3	pointing/STIM_000.jpg	100
1755.959	0.845	845.4	pointing	Trial3	pointing/STIM_000.jpg	100
1759.708	0.729	729.2	pointing	Trial3	pointing/STIM_001.jpg	100
1763.664	0.979	979.2	pointing	Trial3	pointing/STIM_001.jpg	100
1767.767	0.784	783.8	pointing	Trial3	pointing/STIM_001.jpg	100
1772.235	1.202	1201.7	pointing	Trial3	pointing/STIM_001.jpg	100
1776.136	1.278	1278.3	pointing	Trial3	pointing/STIM_001.jpg	99
1780.6	1.1	1100.2	pointing	Trial3	pointing/STIM_001.jpg	100
1783.951	0.991	990.8	pointing	Trial3	pointing/STIM_002.jpg	100
1788.783	1.102	1102.0	pointing	Trial3	pointing/STIM_002.jpg	100
1793.292	1.005	1004.6	pointing	Trial3	pointing/STIM_002.jpg	99
1798.214	0.771	771.4	pointing	Trial3	pointing/STIM_002.jpg	99
1801.632	0.875	875.1	pointing	Trial3	pointing/STIM_002.jpg	99
1805.335	0.827	827.1	pointing	Trial3	pointing/STIM_002.jpg	100
1809.702	0.808	807.7	pointing	Trial3	pointing/STIM_003.jpg	100
1813.275	1.177	1177.1	pointing	Trial3	pointing/STIM_003.jpg	100
1818.182	0.789	789.2	pointing	Trial3	pointing/STIM_003.jpg	100
1822.484	1.201	1200.6	pointing	Trial3	pointing/STIM_003.jpg	100
1826.804	0.972	972.2	pointing	Trial3	pointing/STIM_003.jpg	99
1830.049	1.274	1273.7	pointing	Trial3	pointing/STIM_003.jpg	100
1834.407	1.24	1239.7	pointing	Trial3	pointing/STIM_004.jpg	99
1838.557	0.989	989.2	pointing	Trial3	pointing/STIM_004.jpg	99
1842.095	1.023	1023.3	pointing	Trial3	pointing/STIM_004.jpg	99
1845.576	0.876	875.9	pointing	Trial3	pointing/STIM_004.jpg	100
1849.204	1.006	1005.6	pointing	Trial3	pointing/STIM_004.jpg	99
1852.423	1.259	1258.6	pointing	Trial3	pointing/STIM_004.jpg	100
1856.182	0.781	781.0	pointing	Trial3	pointing/STIM_005.jpg	100
1860.688	1.092	1091.6	pointing	Trial3	pointing/STIM_005.jpg	99
1864.383	1.119	1119.2	pointing	Trial3	pointing/STIM_005.jpg	100
1868.095	1.091	1091.0	pointing	Trial3	pointing/STIM_005.jpg	100
1872.234	0.747	746.8	pointing	Trial3	pointing/STIM_005.jpg	100
1876.06	1.225	1224.7	pointing	Trial3	pointing/STIM_005.jpg	100
1881.048	1.228	1227.8	pointing	Trial3	pointing/STIM_006.jpg	99
1884.397	1.173	1173.2	pointing	Trial3	pointing/STIM_006.jpg	99
1888.267	1.21	1209.5	pointing	Trial3	pointing/STIM_006.jpg	100
1891.837	0.703	702.8	pointing	Trial3	pointing/STIM_006.jpg	99
1895.127	0.788	787.8	pointing	Trial3	pointing/STIM_006.jpg	100
1898.599	0.832	832.4	pointing	Trial3	pointing/STIM_006.jpg	100
1902.536	0.706	705.6	pointing	Trial3	pointing/STIM_007.jpg	100
1905.996	1.287	1287.4	pointing	Trial3	pointing/STIM_007.jpg	100
1909.452	1.272	1271.7	pointing	Trial3	pointing/STIM_007.jpg	99
1914.24	1.292	1292.0	pointing	Trial3	pointing/STIM_007.jpg	100
1918.205	1.199	1199.0	pointing	Trial3	pointing/STIM_007.jpg	99
1921.589	1.085	1084.6	pointing	Trial3	pointing/STIM_007.jpg	99
1926.548	1.078	1077.7	pointing	Trial3	pointing/STIM_008.jpg	100
1930.236	0.715	715.0	pointing	Trial3	pointing/STIM_008.jpg	100
1934.056	0.906	906.2	pointing	Trial3	pointing/STIM_008.jpg	100
1937.846	0.811	811.4	pointing	Trial3	pointing/STIM_008.jpg	99
1941.663	0.998	997.9	pointing	Trial3	pointing/STIM_008.jpg	99
1945.538	0.7	699.9	pointing	Trial3	pointing/STIM_008.jpg	99
1948.57	0.85	850.3	pointing	Trial3	pointing/STIM_009.jpg	99
1951.732	0.833	832.8	pointing	Trial3	pointing/STIM_009.jpg	99
1955.935	0.982	982.1	pointing	Trial3	pointing/STIM_009.jpg	99
1959.33	1.235	1234.6	pointing	Trial3	pointing/STIM_009.jpg	99
1963.484	0.78	780.3	pointing	Trial3	pointing/STIM_009.jpg	100
1968.264	0.943	943.3	pointing	Trial3	pointing/STIM_009.jpg	99
1972.823	1.099	1099.1	pointing	Trial3	pointing/STIM_010.jpg	100
1976.779	0.858	858.1	pointing	Trial3	pointing/STIM_010.jpg	100
1980.536	1.005	1004.7	pointing	Trial3	pointing/STIM_010.jpg	99
1984.645	1.207	1206.8	pointing	Trial3	pointing/STIM_010.jpg	100
1989.572	0.834	833.6	pointing	Trial3	pointing/STIM_010.jpg	99
1992.518	1.177	1177.0	pointing	Trial3	pointing/STIM_010.jpg	99
1996.29	1.239	1238.8	pointing	Trial3	pointing/STIM_011.jpg	99
2000.056	0.928	927.9	pointing	Trial3	pointing/STIM_011.jpg	100
2004.502	1.276	1275.7	pointing	Trial3	pointing/STIM_011.jpg	99
2008.35	1.05	1050.4	pointing	Trial3	pointing/STIM_011.jpg	99
2012.344	0.973	973.2	pointing	Trial3	pointing/STIM_011.jpg	99
2016.4	1.174	1174.5	pointing	Trial3	pointing/STIM_011.jpg	99
