onset	duration	accuracy	trial_type	learning_stage	stimulus
0.0	2.041	correct	generate	Run1	generate/STIM_000.jpg
5.533	1.07	incorrect	generate	Run1	generate/STIM_000.jpg
10.707	1.584	incorrect	generate	Run1	generate/STIM_000.jpg
15.383	1.76	incorrect	generate	Run1	generate/STIM_000.jpg
20.744	1.963	correct	generate	Run1	generate/STIM_000.jpg
26.752	2.346	correct	generate	Run1	generate/STIM_001.jpg
31.774	2.121	correct	generate	Run1	generate/STIM_001.jpg
38.045	1.245	correct	generate	Run1	generate/STIM_001.jpg
42.795	1.484	incorrect	generate	Run1	generate/STIM_001.jpg
47.53	1.487	incorrect	generate	Run1	generate/STIM_001.jpg
52.255	2.074	incorrect	generate	Run1	generate/STIM_002.jpg
57.644	1.749	correct	generate	Run1	generate/STIM_002.jpg
61.838	0.998	correct	generate	Run1	generate/STIM_002.jpg
65.126	1.35	incorrect	generate	Run1	generate/STIM_002.jpg
69.244	1.447	correct	generate	Run1	generate/STIM_002.jpg
73.065	1.136	incorrect	generate	Run1	generate/STIM_003.jpg
78.265	1.836	correct	generate	Run1	generate/STIM_003.jpg
82.686	1.422	incorrect	generate	Run1	generate/STIM_003.jpg
86.781	2.062	correct	generate	Run1	generate/STIM_003.jpg
92.573	1.334	correct	generate	Run1	generate/STIM_003.jpg
97.423	2.19	correct	generate	Run1	generate/STIM_004.jpg
103.082	1.063	correct	generate	Run1	generate/STIM_004.jpg
106.554	1.774	incorrect	generate	Run1	generate/STIM_004.jpg
112.467	1.027	correct	generate	Run1	generate/STIM_004.jpg
116.151	0.881	correct	generate	Run1	generate/STIM_004.jpg
121.055	1.758	incorrect	generate	Run1	generate/STIM_005.jpg
126.75	1.985	correct	generate	Run1	generate/STIM_005.jpg
132.413	1.713	correct	generate	Run1	generate/STIM_005.jpg
137.859	2.129	correct	generate	Run1	generate/STIM_005.jpg
144.069	1.507	incorrect	generate	Run1	generate/STIM_005.jpg
149.196	2.166	correct	generate	Run1	generate/STIM_006.jpg
153.678	1.498	correct	generate	Run1	generate/STIM_006.jpg
157.846	1.693	correct	generate	Run1	generate/STIM_006.jpg
163.537	2.119	incorrect	generate	Run1	generate/STIM_006.jpg
169.01	1.602	correct	generate	Run1	generate/STIM_006.jpg
174.664	2.273	incorrect	generate	Run1	generate/STIM_007.jpg
181.138	1.944	correct	generate	Run1	generate/STIM_007.jpg
185.568	1.169	correct	generate	Run1	generate/STIM_007.jpg
189.489	1.683	correct	generate	Run1	generate/STIM_007.jpg
194.075	1.948	correct	generate	Run1	generate/STIM_007.jpg
199.772	1.277	correct	generate	Run1	generate/STIM_008.jpg
204.302	1.285	correct	generate	Run1	generate/STIM_008.jpg
209.302	1.88	incorrect	generate	Run1	generate/STIM_008.jpg
214.44	2.177	correct	generate	Run1	generate/STIM_008.jpg
219.589	1.749	correct	generate	Run1	generate/STIM_008.jpg
224.417	1.674	incorrect	generate	Run1	generate/STIM_009.jpg
229.012	2.212	correct	generate	Run1	generate/STIM_009.jpg
234.978	1.896	correct	generate	Run1	generate/STIM_009.jpg
239.973	2.155	correct	generate	Run1	generate/STIM_009.jpg
245.546	1.714	incorrect	generate	Run1	generate/STIM_009.jpg
251.366	2.358	correct	generate	Run1	generate/STIM_010.jpg
257.869	1.056	correct	generate	Run1	generate/STIM_010.jpg
261.846	1.076	correct	generate	Run1	generate/STIM_010.jpg
265.456	1.062	correct	generate	Run1	generate/STIM_010.jpg
269.128	1.234	correct	generate	Run1	generate/STIM_010.jpg
274.339	1.017	correct	generate	Run1	generate/STIM_011.jpg
277.967	1.661	incorrect	generate	Run1	generate/STIM_011.jpg
283.5	2.236	incorrect	generate	Run1	generate/STIM_011.jpg
289.019	2.128	correct	generate	Run1	generate/STIM_011.jpg
294.136	0.976	correct	generate	Run1	generate/STIM_011.jpg
298.493	1.341	correct	generate	Run1	generate/STIM_012.jpg
302.726	2.35	correct	generate	Run1	generate/STIM_012.jpg
309.188	1.932	correct	generate	Run1	generate/STIM_012.jpg
315.108	1.962	correct	generate	Run1	generate/STIM_012.jpg
320.829	1.334	incorrect	generate	Run1	generate/STIM_012.jpg
325.141	1.478	incorrect	generate	Run1	generate/STIM_013.jpg
330.156	1.449	correct	generate	Run1	generate/STIM_013.jpg
335.686	1.43	correct	generate	Run1	generate/STIM_013.jpg
340.484	1.786	incorrect	generate	Run1	generate/STIM_013.jpg
346.251	1.809	correct	generate	Run1	generate/STIM_013.jpg
350.72	2.355	correct	generate	Run1	generate/STIM_014.jpg
357.17	2.203	correct	generate	Run1	generate/STIM_014.jpg
362.681	1.772	correct	generate	Run1	generate/STIM_014.jpg
368.528	2.275	correct	generate	Run1	generate/STIM_014.jpg
373.378	1.544	incorrect	generate	Run1	generate/STIM_014.jpg
379.01	1.256	correct	generate	Run1	generate/STIM_015.jpg
383.125	1.224	correct	generate	Run1	generate/STIM_015.jpg
387.785	2.059	incorrect	generate	Run1	generate/STIM_015.jpg
392.223	1.099	correct	generate	Run1	generate/STIM_015.jpg
396.746	1.939	correct	generate	Run1	generate/STIM_015.jpg
402.14	1.882	correct	generate	Run1	generate/STIM_016.jpg
407.144	1.311	correct	generate	Run1	generate/STIM_016.jpg
411.323	1.636	correct	generate	Run1	generate/STIM_016.jpg
415.36	1.507	incorrect	generate	Run1	generate/STIM_016.jpg
420.038	1.49	correct	generate	Run1	generate/STIM_016.jpg
424.143	1.298	incorrect	generate	Run1	generate/STIM_017.jpg
427.867	1.072	incorrect	generate	Run1	generate/STIM_017.jpg
433.097	1.802	correct	generate	Run1	generate/STIM_017.jpg
438.678	1.146	correct	generate	Run1	generate/STIM_017.jpg
443.305	2.158	correct	generate	Run1	generate/STIM_017.jpg
448.233	2.517	correct	generate	Run1	generate/STIM_018.jpg
454.692	1.867	correct	generate	Run1	generate/STIM_018.jpg
460.242	1.0	incorrect	generate	Run1	generate/STIM_018.jpg
465.46	1.492	incorrect	generate	Run1	generate/STIM_018.jpg
469.194	1.005	incorrect	generate	Run1	generate/STIM_018.jpg
473.906	2.097	correct	generate	Run1	generate/STIM_019.jpg
480.11	1.403	incorrect	generate	Run1	generate/STIM_019.jpg
485.141	0.997	correct	generate	Run1	generate/STIM_019.jpg
488.589	1.977	incorrect	generate	Run1	generate/STIM_019.jpg
493.229	1.282	incorrect	generate	Run1	generate/STIM_019.jpg
498.453	2.251	incorrect	generate	Run1	generate/STIM_020.jpg
505.005	2.398	correct	generate	Run1	generate/STIM_020.jpg
509.748	1.746	correct	generate	Run1	generate/STIM_020.jpg
514.935	1.154	correct	generate	Run1	generate/STIM_020.jpg
519.73	1.46	correct	generate	Run1	generate/STIM_020.jpg
523.975	1.687	incorrect	generate	Run1	generate/STIM_021.jpg
527.908	1.894	correct	generate	Run1	generate/STIM_021.jpg
533.357	1.808	incorrect	generate	Run1	generate/STIM_021.jpg
538.474	1.528	correct	generate	Run1	generate/STIM_021.jpg
542.462	1.724	correct	generate	Run1	generate/STIM_021.jpg
547.831	2.485	correct	generate	Run1	generate/STIM_022.jpg
553.712	1.98	incorrect	generate	Run1	generate/STIM_022.jpg
559.067	1.26	correct	generate	Run1	generate/STIM_022.jpg
564.274	1.425	incorrect	generate	Run1	generate/STIM_022.jpg
569.289	1.896	correct	generate	Run1	generate/STIM_022.jpg
573.766	2.128	correct	generate	Run1	generate/STIM_023.jpg
579.272	1.305	correct	generate	Run1	generate/STIM_023.jpg
584.091	1.352	incorrect	generate	Run1	generate/STIM_023.jpg
588.047	2.037	correct	generate	Run1	generate/STIM_023.jpg
594.367	1.927	correct	generate	Run1	generate/STIM_023.jpg
600.507	1.207	correct	generate	Run1	generate/STIM_024.jpg
604.908	2.003	incorrect	generate	Run1	generate/STIM_024.jpg
609.71	1.87	incorrect	generate	Run1	generate/STIM_024.jpg
614.52	1.106	incorrect	generate	Run1	generate/STIM_024.jpg
619.488	1.395	correct	generate	Run1	generate/STIM_024.jpg
623.097	0.737	correct	repeat	Run1	repeat/STIM_000.jpg
627.192	0.473	correct	repeat	Run1	repeat/STIM_000.jpg
631.093	0.741	correct	repeat	Run1	repeat/STIM_000.jpg
635.446	0.85	correct	repeat	Run1	repeat/STIM_000.jpg
640.266	0.686	correct	repeat	Run1	repeat/STIM_000.jpg
644.488	0.644	correct	repeat	Run1	repeat/STIM_001.jpg
648.596	0.636	incorrect	repeat	Run1	repeat/STIM_001.jpg
651.597	0.692	correct	repeat	Run1	repeat/STIM_001.jpg
656.317	0.757	correct	repeat	Run1	repeat/STIM_001.jpg
660.286	0.628	correct	repeat	Run1	repeat/STIM_001.jpg
664.705	0.418	correct	repeat	Run1	repeat/STIM_002.jpg
667.581	0.479	correct	repeat	Run1	repeat/STIM_002.jpg
671.152	0.528	correct	repeat	Run1	repeat/STIM_002.jpg
675.784	0.425	correct	repeat	Run1	repeat/STIM_002.jpg
679.798	0.895	correct	repeat	Run1	repeat/STIM_002.jpg
683.732	0.512	correct	repeat	Run1	repeat/STIM_003.jpg
687.648	0.75	correct	repeat	Run1	repeat/STIM_003.jpg
692.506	0.624	correct	repeat	Run1	repeat/STIM_003.jpg
696.381	0.469	correct	repeat	Run1	repeat/STIM_003.jpg
700.706	0.633	correct	repeat	Run1	repeat/STIM_003.jpg
704.551	0.602	correct	repeat	Run1	repeat/STIM_004.jpg
708.111	0.485	correct	repeat	Run1	repeat/STIM_004.jpg
712.611	0.786	correct	repeat	Run1	repeat/STIM_004.jpg
716.98	0.558	correct	repeat	Run1	repeat/STIM_004.jpg
719.98	0.496	correct	repeat	Run1	repeat/STIM_004.jpg
722.791	0.62	correct	repeat	Run1	repeat/STIM_005.jpg
726.88	0.67	correct	repeat	Run1	repeat/STIM_005.jpg
731.408	0.592	correct	repeat	Run1	repeat/STIM_005.jpg
734.15	0.797	incorrect	repeat	Run1	repeat/STIM_005.jpg
737.561	0.753	correct	repeat	Run1	repeat/STIM_005.jpg
740.4	0.779	incorrect	repeat	Run1	repeat/STIM_006.jpg
744.724	0.862	correct	repeat	Run1	repeat/STIM_006.jpg
749.176	0.525	correct	repeat	Run1	repeat/STIM_006.jpg
753.76	0.548	correct	repeat	Run1	repeat/STIM_006.jpg
758.213	0.69	correct	repeat	Run1	repeat/STIM_006.jpg
762.49	0.656	correct	repeat	Run1	repeat/STIM_007.jpg
766.273	0.666	correct	repeat	Run1	repeat/STIM_007.jpg
768.989	0.931	correct	repeat	Run1	repeat/STIM_007.jpg
772.538	0.595	incorrect	repeat	Run1	repeat/STIM_007.jpg
776.723	0.6	correct	repeat	Run1	repeat/STIM_007.jpg
781.332	0.777	correct	repeat	Run1	repeat/STIM_008.jpg
784.741	0.429	correct	repeat	Run1	repeat/STIM_008.jpg
788.239	0.698	correct	repeat	Run1	repeat/STIM_008.jpg
791.406	0.76	correct	repeat	Run1	repeat/STIM_008.jpg
794.794	0.481	correct	repeat	Run1	repeat/STIM_008.jpg
798.063	0.575	correct	repeat	Run1	repeat/STIM_009.jpg
801.268	0.479	correct	repeat	Run1	repeat/STIM_009.jpg
804.48	0.579	correct	repeat	Run1	repeat/STIM_009.jpg
808.089	0.732	correct	repeat	Run1	repeat/STIM_009.jpg
811.341	0.579	correct	repeat	Run1	repeat/STIM_009.jpg
815.633	0.747	correct	repeat	Run1	repeat/STIM_010.jpg
819.391	0.996	correct	repeat	Run1	repeat/STIM_010.jpg
822.711	0.756	correct	repeat	Run1	repeat/STIM_010.jpg
826.957	0.648	correct	repeat	Run1	repeat/STIM_010.jpg
831.054	0.771	correct	repeat	Run1	repeat/STIM_010.jpg
834.996	0.556	correct	repeat	Run1	repeat/STIM_011.jpg
839.626	0.783	correct	repeat	Run1	repeat/STIM_011.jpg
843.78	0.772	correct	repeat	Run1	repeat/STIM_011.jpg
847.122	0.505	correct	repeat	Run1	repeat/STIM_011.jpg
850.838	0.532	correct	repeat	Run1	repeat/STIM_011.jpg
853.739	0.479	correct	repeat	Run1	repeat/STIM_012.jpg
856.529	0.837	correct	repeat	Run1	repeat/STIM_012.jpg
860.153	0.449	correct	repeat	Run1	repeat/STIM_012.jpg
863.324	0.447	correct	repeat	Run1	repeat/STIM_012.jpg
866.527	0.877	correct	repeat	Run1	repeat/STIM_012.jpg
870.169	0.714	correct	repeat	Run1	repeat/STIM_013.jpg
873.426	0.468	correct	repeat	Run1	repeat/STIM_013.jpg
877.057	0.697	correct	repeat	Run1	repeat/STIM_013.jpg
880.843	0.486	correct	repeat	Run1	repeat/STIM_013.jpg
884.905	0.751	correct	repeat	Run1	repeat/STIM_013.jpg
888.612	0.573	correct	repeat	Run1	repeat/STIM_014.jpg
891.321	0.612	correct	repeat	Run1	repeat/STIM_014.jpg
894.653	0.528	correct	repeat	Run1	repeat/STIM_014.jpg
898.145	0.636	correct	repeat	Run1	repeat/STIM_014.jpg
902.5	0.817	correct	repeat	Run1	repeat/STIM_014.jpg
905.888	2.17	correct	generate	Run2	generate/STIM_000.jpg
911.456	1.694	correct	generate	Run2	generate/STIM_000.jpg
916.68	1.22	correct	generate	Run2	generate/STIM_000.jpg
921.971	1.701	correct	generate	Run2	generate/STIM_000.jpg
927.46	1.456	correct	generate	Run2	generate/STIM_000.jpg
932.473	1.832	correct	generate	Run2	generate/STIM_001.jpg
938.571	1.123	correct	generate	Run2	generate/STIM_001.jpg
942.201	1.356	correct	generate	Run2	generate/STIM_001.jpg
946.041	1.51	correct	generate	Run2	generate/STIM_001.jpg
950.9	0.794	correct	generate	Run2	generate/STIM_001.jpg
955.023	1.694	correct	generate	Run2	generate/STIM_002.jpg
960.434	1.267	correct	generate	Run2	generate/STIM_002.jpg
964.666	1.745	correct	generate	Run2	generate/STIM_002.jpg
968.973	1.268	incorrect	generate	Run2	generate/STIM_002.jpg
972.609	1.669	correct	generate	Run2	generate/STIM_002.jpg
977.056	0.864	incorrect	generate	Run2	generate/STIM_003.jpg
981.809	1.238	correct	generate	Run2	generate/STIM_003.jpg
985.73	1.036	correct	generate	Run2	generate/STIM_003.jpg
989.521	0.818	correct	generate	Run2	generate/STIM_003.jpg
993.847	1.312	correct	generate	Run2	generate/STIM_003.jpg
997.524	1.039	correct	generate	Run2	generate/STIM_004.jpg
1002.307	1.477	incorrect	generate	Run2	generate/STIM_004.jpg
1007.299	1.429	correct	generate	Run2	generate/STIM_004.jpg
1012.229	1.526	correct	generate	Run2	generate/STIM_004.jpg
1017.848	1.162	correct	generate	Run2	generate/STIM_004.jpg
1021.287	1.07	correct	generate	Run2	generate/STIM_005.jpg
1025.564	0.986	correct	generate	Run2	generate/STIM_005.jpg
1030.626	0.857	incorrect	generate	Run2	generate/STIM_005.jpg
1035.278	0.764	correct	generate	Run2	generate/STIM_005.jpg
1039.695	0.952	correct	generate	Run2	generate/STIM_005.jpg
1043.868	0.918	correct	generate	Run2	generate/STIM_006.jpg
1047.725	1.106	correct	generate	Run2	generate/STIM_006.jpg
1051.972	1.068	correct	generate	Run2	generate/STIM_006.jpg
1056.938	1.817	incorrect	generate	Run2	generate/STIM_006.jpg
1061.489	1.24	correct	generate	Run2	generate/STIM_006.jpg
1065.022	2.207	correct	generate	Run2	generate/STIM_007.jpg
1070.421	1.69	incorrect	generate	Run2	generate/STIM_007.jpg
1076.246	1.435	correct	generate	Run2	generate/STIM_007.jpg
1081.857	1.792	correct	generate	Run2	generate/STIM_007.jpg
1087.635	1.194	incorrect	generate	Run2	generate/STIM_007.jpg
1092.049	0.991	correct	generate	Run2	generate/STIM_008.jpg
1095.57	1.772	correct	generate	Run2	generate/STIM_008.jpg
1099.635	0.756	correct	generate	Run2	generate/STIM_008.jpg
1103.581	0.998	incorrect	generate	Run2	generate/STIM_008.jpg
1108.645	1.655	correct	generate	Run2	generate/STIM_008.jpg
1113.711	2.009	correct	generate	Run2	generate/STIM_009.jpg
1119.596	1.377	incorrect	generate	Run2	generate/STIM_009.jpg
1124.013	1.031	correct	generate	Run2	generate/STIM_009.jpg
1127.764	0.975	incorrect	generate	Run2	generate/STIM_009.jpg
1131.547	1.284	correct	generate	Run2	generate/STIM_009.jpg
1136.927	2.282	incorrect	generate	Run2	generate/STIM_010.jpg
1141.528	1.233	incorrect	generate	Run2	generate/STIM_010.jpg
1146.585	1.688	correct	generate	Run2	generate/STIM_010.jpg
1150.554	1.582	incorrect	generate	Run2	generate/STIM_010.jpg
1156.053	1.881	correct	generate	Run2	generate/STIM_010.jpg
1160.659	1.517	correct	generate	Run2	generate/STIM_011.jpg
1165.624	1.682	incorrect	generate	Run2	generate/STIM_011.jpg
1169.584	1.244	correct	generate	Run2	generate/STIM_011.jpg
1174.167	0.864	correct	generate	Run2	generate/STIM_011.jpg
1178.658	0.819	incorrect	generate	Run2	generate/STIM_011.jpg
1182.335	2.102	correct	generate	Run2	generate/STIM_012.jpg
1186.993	1.811	incorrect	generate	Run2	generate/STIM_012.jpg
1192.561	1.455	correct	generate	Run2	generate/STIM_012.jpg
1197.02	0.784	correct	generate	Run2	generate/STIM_012.jpg
1201.795	1.017	correct	generate	Run2	generate/STIM_012.jpg
1205.657	1.061	incorrect	generate	Run2	generate/STIM_013.jpg
1208.844	1.063	correct	generate	Run2	generate/STIM_013.jpg
1213.053	1.718	correct	generate	Run2	generate/STIM_013.jpg
1217.946	1.783	correct	generate	Run2	generate/STIM_013.jpg
1222.23	1.762	correct	generate	Run2	generate/STIM_013.jpg
1228.129	1.166	incorrect	generate	Run2	generate/STIM_014.jpg
1232.144	1.648	correct	generate	Run2	generate/STIM_014.jpg
1236.328	1.297	correct	generate	Run2	generate/STIM_014.jpg
1240.052	1.19	correct	generate	Run2	generate/STIM_014.jpg
1243.966	0.922	incorrect	generate	Run2	generate/STIM_014.jpg
1247.07	1.124	correct	generate	Run2	generate/STIM_015.jpg
1252.019	1.592	correct	generate	Run2	generate/STIM_015.jpg
1257.605	1.305	correct	generate	Run2	generate/STIM_015.jpg
1261.793	0.947	correct	generate	Run2	generate/STIM_015.jpg
1266.464	1.518	correct	generate	Run2	generate/STIM_015.jpg
1270.595	1.081	correct	generate	Run2	generate/STIM_016.jpg
1275.63	2.174	correct	generate	Run2	generate/STIM_016.jpg
1280.751	1.596	correct	generate	Run2	generate/STIM_016.jpg
1285.578	1.561	correct	generate	Run2	generate/STIM_016.jpg
1290.037	1.27	correct	generate	Run2	generate/STIM_016.jpg
1294.262	2.186	incorrect	generate	Run2	generate/STIM_017.jpg
1299.181	0.98	correct	generate	Run2	generate/STIM_017.jpg
1304.066	1.411	correct	generate	Run2	generate/STIM_017.jpg
1308.084	0.852	incorrect	generate	Run2	generate/STIM_017.jpg
1312.382	1.067	correct	generate	Run2	generate/STIM_017.jpg
1316.365	2.123	incorrect	generate	Run2	generate/STIM_018.jpg
1320.963	1.139	correct	generate	Run2	generate/STIM_018.jpg
1324.975	1.775	correct	generate	Run2	generate/STIM_018.jpg
1330.424	0.898	correct	generate	Run2	generate/STIM_018.jpg
1334.557	1.004	correct	generate	Run2	generate/STIM_018.jpg
1339.314	1.779	correct	generate	Run2	generate/STIM_019.jpg
1344.186	0.79	correct	generate	Run2	generate/STIM_019.jpg
1347.76	1.728	correct	generate	Run2	generate/STIM_019.jpg
1352.881	0.9	correct	generate	Run2	generate/STIM_019.jpg
1356.396	1.728	correct	generate	Run2	generate/STIM_019.jpg
1361.917	1.436	correct	generate	Run2	generate/STIM_020.jpg
1365.84	1.865	correct	generate	Run2	generate/STIM_020.jpg
1370.776	1.01	correct	generate	Run2	generate/STIM_020.jpg
1374.836	1.021	correct	generate	Run2	generate/STIM_020.jpg
1378.927	1.585	correct	generate	Run2	generate/STIM_020.jpg
1383.47	2.062	correct	generate	Run2	generate/STIM_021.jpg
1388.836	1.685	correct	generate	Run2	generate/STIM_021.jpg
1392.799	1.948	correct	generate	Run2	generate/STIM_021.jpg
1398.118	0.986	correct	generate	Run2	generate/STIM_021.jpg
1402.385	1.342	correct	generate	Run2	generate/STIM_021.jpg
1406.964	2.158	correct	generate	Run2	generate/STIM_022.jpg
1413.078	0.974	correct	generate	Run2	generate/STIM_022.jpg
1417.728	1.198	correct	generate	Run2	generate/STIM_022.jpg
1421.399	1.164	correct	generate	Run2	generate/STIM_022.jpg
1424.727	1.726	correct	generate	Run2	generate/STIM_022.jpg
1430.198	1.436	incorrect	generate	Run2	generate/STIM_023.jpg
1435.237	2.016	incorrect	generate	Run2	generate/STIM_023.jpg
1440.458	1.364	incorrect	generate	Run2	generate/STIM_023.jpg
1444.797	1.207	correct	generate	Run2	generate/STIM_023.jpg
1449.392	1.111	incorrect	generate	Run2	generate/STIM_023.jpg
1453.281	1.327	correct	generate	Run2	generate/STIM_024.jpg
1458.422	1.585	correct	generate	Run2	generate/STIM_024.jpg
1462.346	1.709	correct	generate	Run2	generate/STIM_024.jpg
1467.775	1.061	correct	generate	Run2	generate/STIM_024.jpg
1472.06	1.629	correct	generate	Run2	generate/STIM_024.jpg
1475.953	0.524	correct	repeat	Run2	repeat/STIM_000.jpg
1478.925	0.774	correct	repeat	Run2	repeat/STIM_000.jpg
1481.922	0.848	correct	repeat	Run2	repeat/STIM_000.jpg
1484.923	0.796	correct	repeat	Run2	repeat/STIM_000.jpg
1489.138	0.71	correct	repeat	Run2	repeat/STIM_000.jpg
1493.788	0.631	correct	repeat	Run2	repeat/STIM_001.jpg
1498.43	0.8	correct	repeat	Run2	repeat/STIM_001.jpg
1502.754	0.414	correct	repeat	Run2	repeat/STIM_001.jpg
1507.192	0.663	correct	repeat	Run2	repeat/STIM_001.jpg
1511.768	0.663	correct	repeat	Run2	repeat/STIM_001.jpg
1515.258	0.532	correct	repeat	Run2	repeat/STIM_002.jpg
1518.953	0.76	correct	repeat	Run2	repeat/STIM_002.jpg
1522.268	0.763	correct	repeat	Run2	repeat/STIM_002.jpg
1526.639	0.701	correct	repeat	Run2	repeat/STIM_002.jpg
1530.051	0.792	correct	repeat	Run2	repeat/STIM_002.jpg
1534.942	0.635	correct	repeat	Run2	repeat/STIM_003.jpg
1537.833	0.748	correct	repeat	Run2	repeat/STIM_003.jpg
1541.584	0.621	correct	repeat	Run2	repeat/STIM_003.jpg
1546.161	0.744	incorrect	repeat	Run2	repeat/STIM_003.jpg
1549.851	0.496	correct	repeat	Run2	repeat/STIM_003.jpg
1553.354	0.599	correct	repeat	Run2	repeat/STIM_004.jpg
1557.14	0.639	correct	repeat	Run2	repeat/STIM_004.jpg
1560.599	0.651	correct	repeat	Run2	repeat/STIM_004.jpg
1565.275	0.645	correct	repeat	Run2	repeat/STIM_004.jpg
1569.984	0.665	correct	repeat	Run2	repeat/STIM_004.jpg
1573.37	0.797	correct	repeat	Run2	repeat/STIM_005.jpg
1577.334	0.514	correct	repeat	Run2	repeat/STIM_005.jpg
1580.48	0.906	correct	repeat	Run2	repeat/STIM_005.jpg
1584.92	0.622	correct	repeat	Run2	repeat/STIM_005.jpg
1589.432	0.878	correct	repeat	Run2	repeat/STIM_005.jpg
1592.919	0.684	correct	repeat	Run2	repeat/STIM_006.jpg
1597.55	0.596	correct	repeat	Run2	repeat/STIM_006.jpg
1601.658	0.66	correct	repeat	Run2	repeat/STIM_006.jpg
1606.19	0.626	correct	repeat	Run2	repeat/STIM_006.jpg
1610.462	0.492	incorrect	repeat	Run2	repeat/STIM_006.jpg
1614.303	0.882	correct	repeat	Run2	repeat/STIM_007.jpg
1618.05	0.636	correct	repeat	Run2	repeat/STIM_007.jpg
1622.392	0.854	incorrect	repeat	Run2	repeat/STIM_007.jpg
1625.515	0.69	correct	repeat	Run2	repeat/STIM_007.jpg
1629.228	0.75	correct	repeat	Run2	repeat/STIM_007.jpg
1633.442	0.713	correct	repeat	Run2	repeat/STIM_008.jpg
1637.071	0.8	correct	repeat	Run2	repeat/STIM_008.jpg
1641.306	0.429	correct	repeat	Run2	repeat/STIM_008.jpg
1644.677	0.513	correct	repeat	Run2	repeat/STIM_008.jpg
1647.668	0.692	correct	repeat	Run2	repeat/STIM_008.jpg
1650.728	0.806	correct	repeat	Run2	repeat/STIM_009.jpg
1654.257	0.85	correct	repeat	Run2	repeat/STIM_009.jpg
1657.393	0.787	correct	repeat	Run2	repeat/STIM_009.jpg
1660.557	0.835	correct	repeat	Run2	repeat/STIM_009.jpg
1665.038	0.712	correct	repeat	Run2	repeat/STIM_009.jpg
1668.961	0.657	correct	repeat	Run2	repeat/STIM_010.jpg
1671.85	0.787	correct	repeat	Run2	repeat/STIM_010.jpg
1675.984	0.777	correct	repeat	Run2	repeat/STIM_010.jpg
1680.239	0.722	correct	repeat	Run2	repeat/STIM_010.jpg
1683.302	0.606	correct	repeat	Run2	repeat/STIM_010.jpg
1686.413	0.606	correct	repeat	Run2	repeat/STIM_011.jpg
1690.166	0.586	correct	repeat	Run2	repeat/STIM_011.jpg
1694.69	0.671	correct	repeat	Run2	repeat/STIM_011.jpg
1698.624	0.539	correct	repeat	Run2	repeat/STIM_011.jpg
1702.544	0.525	correct	repeat	Run2	repeat/STIM_011.jpg
1706.641	0.741	correct	repeat	Run2	repeat/STIM_012.jpg
1710.687	0.46	correct	repeat	Run2	repeat/STIM_012.jpg
1713.276	0.582	correct	repeat	Run2	repeat/STIM_012.jpg
1717.28	0.881	correct	repeat	Run2	repeat/STIM_012.jpg
1721.859	0.679	correct	repeat	Run2	repeat/STIM_012.jpg
1724.977	0.594	correct	repeat	Run2	repeat/STIM_013.jpg
1729.463	0.669	incorrect	repeat	Run2	repeat/STIM_013.jpg
1732.46	0.526	correct	repeat	Run2	repeat/STIM_013.jpg
1736.149	0.741	incorrect	repeat	Run2	repeat/STIM_013.jpg
1739.587	0.699	correct	repeat	Run2	repeat/STIM_013.jpg
1743.11	0.813	correct	repeat	Run2	repeat/STIM_014.jpg
1747.592	0.791	correct	repeat	Run2	repeat/STIM_014.jpg
1751.922	0.641	correct	repeat	Run2	repeat/STIM_014.jpg
1756.225	0.54	correct	repeat	Run2	repeat/STIM_014.jpg
1758.861	0.473	correct	repeat	Run2	repeat/STIM_014.jpg
1762.499	0.762	correct	generate	Run3	generate/STIM_000.jpg
1766.528	0.93	correct	generate	Run3	generate/STIM_000.jpg
1770.32	1.423	correct	generate	Run3	generate/STIM_000.jpg
1775.207	1.785	correct	generate	Run3	generate/STIM_000.jpg
1779.807	1.461	correct	generate	Run3	generate/STIM_000.jpg
1783.726	0.959	correct	generate	Run3	generate/STIM_001.jpg
1786.809	0.962	correct	generate	Run3	generate/STIM_001.jpg
1790.233	0.858	correct	generate	Run3	generate/STIM_001.jpg
1794.314	0.779	correct	generate	Run3	generate/STIM_001.jpg
1797.681	0.92	correct	generate	Run3	generate/STIM_001.jpg
1802.831	0.952	correct	generate	Run3	generate/STIM_002.jpg
1806.913	1.277	correct	generate	Run3	generate/STIM_002.jpg
1810.454	0.775	correct	generate	Run3	generate/STIM_002.jpg
1814.441	1.692	correct	generate	Run3	generate/STIM_002.jpg
1818.457	1.336	correct	generate	Run3	generate/STIM_002.jpg
1823.611	1.294	correct	generate	Run3	generate/STIM_003.jpg
1828.947	1.144	correct	generate	Run3	generate/STIM_003.jpg
1832.508	0.823	correct	generate	Run3	generate/STIM_003.jpg
1836.459	1.496	correct	generate	Run3	generate/STIM_003.jpg
1840.251	1.609	correct	generate	Run3	generate/STIM_003.jpg
1845.052	1.154	correct	generate	Run3	generate/STIM_004.jpg
1849.557	1.59	correct	generate	Run3	generate/STIM_004.jpg
1854.846	1.158	correct	generate	Run3	generate/STIM_004.jpg
1858.88	1.292	correct	generate	Run3	generate/STIM_004.jpg
1863.457	1.69	correct	generate	Run3	generate/STIM_004.jpg
1868.521	1.178	correct	generate	Run3	generate/STIM_005.jpg
1872.351	0.94	correct	generate	Run3	generate/STIM_005.jpg
1876.448	0.8	correct	generate	Run3	generate/STIM_005.jpg
1880.808	1.324	correct	generate	Run3	generate/STIM_005.jpg
1885.178	1.211	correct	generate	Run3	generate/STIM_005.jpg
1889.222	1.474	correct	generate	Run3	generate/STIM_006.jpg
1893.266	1.589	correct	generate	Run3	generate/STIM_006.jpg
1897.97	1.294	correct	generate	Run3	generate/STIM_006.jpg
1901.587	1.904	correct	generate	Run3	generate/STIM_006.jpg
1906.397	1.158	correct	generate	Run3	generate/STIM_006.jpg
1909.873	0.921	correct	generate	Run3	generate/STIM_007.jpg
1913.743	1.431	correct	generate	Run3	generate/STIM_007.jpg
1918.448	1.462	correct	generate	Run3	generate/STIM_007.jpg
1922.25	0.879	correct	generate	Run3	generate/STIM_007.jpg
1926.792	1.788	correct	generate	Run3	generate/STIM_007.jpg
1932.295	1.458	correct	generate	Run3	generate/STIM_008.jpg
1937.774	1.732	correct	generate	Run3	generate/STIM_008.jpg
1942.394	1.184	correct	generate	Run3	generate/STIM_008.jpg
1946.343	1.029	correct	generate	Run3	generate/STIM_008.jpg
1949.952	0.86	correct	generate	Run3	generate/STIM_008.jpg
1954.933	1.593	correct	generate	Run3	generate/STIM_009.jpg
1959.668	1.255	incorrect	generate	Run3	generate/STIM_009.jpg
1964.091	0.922	incorrect	generate	Run3	generate/STIM_009.jpg
1967.415	1.023	correct	generate	Run3	generate/STIM_009.jpg
1971.463	1.566	correct	generate	Run3	generate/STIM_009.jpg
1976.008	1.182	correct	generate	Run3	generate/STIM_010.jpg
1979.594	0.925	correct	generate	Run3	generate/STIM_010.jpg
1984.301	1.663	correct	generate	Run3	generate/STIM_010.jpg
1988.245	1.739	correct	generate	Run3	generate/STIM_010.jpg
1992.641	0.894	incorrect	generate	Run3	generate/STIM_010.jpg
1997.08	1.066	correct	generate	Run3	generate/STIM_011.jpg
2002.24	1.61	correct	generate	Run3	generate/STIM_011.jpg
2006.658	1.304	correct	generate	Run3	generate/STIM_011.jpg
2011.573	1.372	correct	generate	Run3	generate/STIM_011.jpg
2016.044	0.908	correct	generate	Run3	generate/STIM_011.jpg
2019.691	1.461	correct	generate	Run3	generate/STIM_012.jpg
2025.368	1.758	correct	generate	Run3	generate/STIM_012.jpg
2030.903	1.65	correct	generate	Run3	generate/STIM_012.jpg
2035.412	0.854	correct	generate	Run3	generate/STIM_012.jpg
2039.004	1.647	incorrect	generate	Run3	generate/STIM_012.jpg
2043.586	1.186	correct	generate	Run3	generate/STIM_013.jpg
2047.714	1.013	correct	generate	Run3	generate/STIM_013.jpg
2052.778	1.016	correct	generate	Run3	generate/STIM_013.jpg
2056.262	1.465	correct	generate	Run3	generate/STIM_013.jpg
2060.688	1.103	correct	generate	Run3	generate/STIM_013.jpg
2065.749	1.396	correct	generate	Run3	generate/STIM_014.jpg
2070.083	1.128	incorrect	generate	Run3	generate/STIM_014.jpg
2075.166	1.001	correct	generate	Run3	generate/STIM_014.jpg
2079.652	1.793	correct	generate	Run3	generate/STIM_014.jpg
2084.906	1.689	correct	generate	Run3	generate/STIM_014.jpg
2089.063	1.113	correct	generate	Run3	generate/STIM_015.jpg
2093.972	1.169	correct	generate	Run3	generate/STIM_015.jpg
2098.773	1.449	correct	generate	Run3	generate/STIM_015.jpg
2102.809	1.078	incorrect	generate	Run3	generate/STIM_015.jpg
2106.93	1.366	correct	generate	Run3	generate/STIM_015.jpg
2112.046	1.022	correct	generate	Run3	generate/STIM_016.jpg
2117.076	0.867	correct	generate	Run3	generate/STIM_016.jpg
2121.512	0.872	correct	generate	Run3	generate/STIM_016.jpg
2125.518	0.978	correct	generate	Run3	generate/STIM_016.jpg
2129.19	1.135	correct	generate	Run3	generate/STIM_016.jpg
2133.338	1.376	correct	generate	Run3	generate/STIM_017.jpg
2137.164	1.582	correct	generate	Run3	generate/STIM_017.jpg
2142.912	1.832	correct	generate	Run3	generate/STIM_017.jpg
2147.363	0.724	correct	generate	Run3	generate/STIM_017.jpg
2150.595	1.783	correct	generate	Run3	generate/STIM_017.jpg
2154.691	1.754	correct	generate	Run3	generate/STIM_018.jpg
2159.547	1.666	correct	generate	Run3	generate/STIM_018.jpg
2164.541	1.492	correct	generate	Run3	generate/STIM_018.jpg
2168.352	0.887	correct	generate	Run3	generate/STIM_018.jpg
2172.624	1.06	correct	generate	Run3	generate/STIM_018.jpg
2177.173	1.772	correct	generate	Run3	generate/STIM_019.jpg
2182.422	1.256	correct	generate	Run3	generate/STIM_019.jpg
2187.227	1.799	correct	generate	Run3	generate/STIM_019.jpg
2191.34	0.751	correct	generate	Run3	generate/STIM_019.jpg
2194.28	1.195	incorrect	generate	Run3	generate/STIM_019.jpg
2199.262	0.985	correct	generate	Run3	generate/STIM_020.jpg
2203.966	1.108	correct	generate	Run3	generate/STIM_020.jpg
2208.079	1.376	correct	generate	Run3	generate/STIM_020.jpg
2213.613	1.316	correct	generate	Run3	generate/STIM_020.jpg
2218.554	1.916	correct	generate	Run3	generate/STIM_020.jpg
2223.823	1.567	correct	generate	Run3	generate/STIM_021.jpg
2228.614	1.416	correct	generate	Run3	generate/STIM_021.jpg
2232.487	1.05	correct	generate	Run3	generate/STIM_021.jpg
2235.853	1.789	correct	generate	Run3	generate/STIM_021.jpg
2240.235	1.112	correct	generate	Run3	generate/STIM_021.jpg
2245.279	1.039	correct	generate	Run3	generate/STIM_022.jpg
2250.094	0.94	correct	generate	Run3	generate/STIM_022.jpg
2253.944	1.69	correct	generate	Run3	generate/STIM_022.jpg
2258.414	0.833	correct	generate	Run3	generate/STIM_022.jpg
2262.938	1.584	correct	generate	Run3	generate/STIM_022.jpg
2267.067	1.363	incorrect	generate	Run3	generate/STIM_023.jpg
2271.193	1.426	correct	generate	Run3	generate/STIM_023.jpg
2276.695	1.042	correct	generate	Run3	generate/STIM_023.jpg
2280.763	1.761	correct	generate	Run3	generate/STIM_023.jpg
2285.42	1.418	correct	generate	Run3	generate/STIM_023.jpg
2291.07	0.905	correct	generate	Run3	generate/STIM_024.jpg
2296.215	1.163	correct	generate	Run3	generate/STIM_024.jpg
2300.081	1.31	correct	generate	Run3	generate/STIM_024.jpg
2304.23	0.971	correct	generate	Run3	generate/STIM_024.jpg
2308.092	0.945	incorrect	generate	Run3	generate/STIM_024.jpg
2312.742	0.51	correct	repeat	Run3	repeat/STIM_000.jpg
2317.225	0.438	correct	repeat	Run3	repeat/STIM_000.jpg
2319.873	0.804	correct	repeat	Run3	repeat/STIM_000.jpg
2322.809	0.393	correct	repeat	Run3	repeat/STIM_000.jpg
2327.176	0.744	correct	repeat	Run3	repeat/STIM_000.jpg
2330.632	0.534	correct	repeat	Run3	repeat/STIM_001.jpg
2334.49	0.66	correct	repeat	Run3	repeat/STIM_001.jpg
2338.101	0.561	correct	repeat	Run3	repeat/STIM_001.jpg
2340.823	0.33	correct	repeat	Run3	repeat/STIM_001.jpg
2343.411	0.768	correct	repeat	Run3	repeat/STIM_001.jpg
2347.237	0.703	correct	repeat	Run3	repeat/STIM_002.jpg
2351.375	0.62	correct	repeat	Run3	repeat/STIM_002.jpg
2355.52	0.869	incorrect	repeat	Run3	repeat/STIM_002.jpg
2359.032	0.851	correct	repeat	Run3	repeat/STIM_002.jpg
2363.524	0.816	correct	repeat	Run3	repeat/STIM_002.jpg
2367.611	0.906	correct	repeat	Run3	repeat/STIM_003.jpg
2371.151	0.673	correct	repeat	Run3	repeat/STIM_003.jpg
2375.429	0.467	correct	repeat	Run3	repeat/STIM_003.jpg
2379.31	0.882	correct	repeat	Run3	repeat/STIM_003.jpg
2383.353	0.494	correct	repeat	Run3	repeat/STIM_003.jpg
2387.049	0.6	correct	repeat	Run3	repeat/STIM_004.jpg
2390.048	0.566	correct	repeat	Run3	repeat/STIM_004.jpg
2394.137	0.46	correct	repeat	Run3	repeat/STIM_004.jpg
2397.394	0.536	correct	repeat	Run3	repeat/STIM_004.jpg
2400.999	0.554	incorrect	repeat	Run3	repeat/STIM_004.jpg
2404.896	0.885	correct	repeat	Run3	repeat/STIM_005.jpg
2408.104	0.74	correct	repeat	Run3	repeat/STIM_005.jpg
2412.092	0.562	correct	repeat	Run3	repeat/STIM_005.jpg
2415.283	0.653	correct	repeat	Run3	repeat/STIM_005.jpg
2419.787	0.697	correct	repeat	Run3	repeat/STIM_005.jpg
2423.295	0.857	correct	repeat	Run3	repeat/STIM_006.jpg
2427.923	0.854	correct	repeat	Run3	repeat/STIM_006.jpg
2431.598	0.688	correct	repeat	Run3	repeat/STIM_006.jpg
2435.848	0.754	correct	repeat	Run3	repeat/STIM_006.jpg
2440.05	0.878	correct	repeat	Run3	repeat/STIM_006.jpg
2444.815	0.687	correct	repeat	Run3	repeat/STIM_007.jpg
2449.468	0.477	correct	repeat	Run3	repeat/STIM_007.jpg
2452.772	0.793	correct	repeat	Run3	repeat/STIM_007.jpg
2457.273	0.827	correct	repeat	Run3	repeat/STIM_007.jpg
2460.884	0.778	correct	repeat	Run3	repeat/STIM_007.jpg
2464.799	0.447	correct	repeat	Run3	repeat/STIM_008.jpg
2467.471	0.613	correct	repeat	Run3	repeat/STIM_008.jpg
2471.042	0.893	correct	repeat	Run3	repeat/STIM_008.jpg
2475.225	0.552	correct	repeat	Run3	repeat/STIM_008.jpg
2478.235	0.712	correct	repeat	Run3	repeat/STIM_008.jpg
2482.445	0.698	correct	repeat	Run3	repeat/STIM_009.jpg
2486.327	0.632	correct	repeat	Run3	repeat/STIM_009.jpg
2490.701	0.709	correct	repeat	Run3	repeat/STIM_009.jpg
2494.807	0.619	correct	repeat	Run3	repeat/STIM_009.jpg
2499.326	0.473	correct	repeat	Run3	repeat/STIM_009.jpg
2502.31	0.842	correct	repeat	Run3	repeat/STIM_010.jpg
2506.164	0.518	correct	repeat	Run3	repeat/STIM_010.jpg
2510.572	0.843	correct	repeat	Run3	repeat/STIM_010.jpg
2515.338	0.416	correct	repeat	Run3	repeat/STIM_010.jpg
2517.959	0.418	correct	repeat	Run3	repeat/STIM_010.jpg
2521.689	0.614	correct	repeat	Run3	repeat/STIM_011.jpg
2525.852	0.767	correct	repeat	Run3	repeat/STIM_011.jpg
2529.598	0.912	correct	repeat	Run3	repeat/STIM_011.jpg
2533.279	0.598	correct	repeat	Run3	repeat/STIM_011.jpg
2536.713	0.815	incorrect	repeat	Run3	repeat/STIM_011.jpg
2539.83	0.481	correct	repeat	Run3	repeat/STIM_012.jpg
2544.071	0.792	correct	repeat	Run3	repeat/STIM_012.jpg
2548.858	0.508	correct	repeat	Run3	repeat/STIM_012.jpg
2553.235	0.576	correct	repeat	Run3	repeat/STIM_012.jpg
2557.349	0.613	correct	repeat	Run3	repeat/STIM_012.jpg
2560.043	0.602	correct	repeat	Run3	repeat/STIM_013.jpg
2563.518	0.878	correct	repeat	Run3	repeat/STIM_013.jpg
2567.358	0.906	correct	repeat	Run3	repeat/STIM_013.jpg
2570.381	0.875	correct	repeat	Run3	repeat/STIM_013.jpg
2574.82	0.854	correct	repeat	Run3	repeat/STIM_013.jpg
2577.836	0.444	correct	repeat	Run3	repeat/STIM_014.jpg
2581.172	0.636	correct	repeat	Run3	repeat/STIM_014.jpg
2584.31	0.599	correct	repeat	Run3	repeat/STIM_014.jpg
2586.984	0.809	correct	repeat	Run3	repeat/STIM_014.jpg
2591.744	0.695	correct	repeat	Run3	repeat/STIM_014.jpg
2594.91	0.768	correct	generate	Run4	generate/STIM_000.jpg
2598.213	1.504	correct	generate	Run4	generate/STIM_000.jpg
2602.551	1.408	correct	generate	Run4	generate/STIM_000.jpg
2606.48	1.759	correct	generate	Run4	generate/STIM_000.jpg
2611.69	0.929	correct	generate	Run4	generate/STIM_000.jpg
2616.647	0.737	correct	generate	Run4	generate/STIM_001.jpg
2621.268	1.228	correct	generate	Run4	generate/STIM_001.jpg
2625.237	1.008	correct	generate	Run4	generate/STIM_001.jpg
2629.356	0.748	correct	generate	Run4	generate/STIM_001.jpg
2633.272	0.813	correct	generate	Run4	generate/STIM_001.jpg
2637.711	0.816	correct	generate	Run4	generate/STIM_002.jpg
2641.912	1.379	correct	generate	Run4	generate/STIM_002.jpg
2645.778	1.056	incorrect	generate	Run4	generate/STIM_002.jpg
2649.276	1.541	incorrect	generate	Run4	generate/STIM_002.jpg
2654.305	1.801	correct	generate	Run4	generate/STIM_002.jpg
2659.031	1.475	correct	generate	Run4	generate/STIM_003.jpg
2662.692	0.852	incorrect	generate	Run4	generate/STIM_003.jpg
2666.628	0.92	correct	generate	Run4	generate/STIM_003.jpg
2670.842	1.72	correct	generate	Run4	generate/STIM_003.jpg
2675.347	0.888	correct	generate	Run4	generate/STIM_003.jpg
2679.662	1.801	incorrect	generate	Run4	generate/STIM_004.jpg
2683.995	0.904	incorrect	generate	Run4	generate/STIM_004.jpg
2687.271	1.372	correct	generate	Run4	generate/STIM_004.jpg
2692.356	0.839	incorrect	generate	Run4	generate/STIM_004.jpg
2696.27	1.598	correct	generate	Run4	generate/STIM_004.jpg
2701.555	1.414	correct	generate	Run4	generate/STIM_005.jpg
2706.441	1.016	correct	generate	Run4	generate/STIM_005.jpg
2710.782	1.178	correct	generate	Run4	generate/STIM_005.jpg
2716.091	1.2	correct	generate	Run4	generate/STIM_005.jpg
2720.105	1.046	correct	generate	Run4	generate/STIM_005.jpg
2723.666	1.632	correct	generate	Run4	generate/STIM_006.jpg
2727.889	0.888	incorrect	generate	Run4	generate/STIM_006.jpg
2732.387	1.812	correct	generate	Run4	generate/STIM_006.jpg
2736.806	0.992	correct	generate	Run4	generate/STIM_006.jpg
2740.532	1.676	correct	generate	Run4	generate/STIM_006.jpg
2744.789	1.166	incorrect	generate	Run4	generate/STIM_007.jpg
2749.172	1.52	correct	generate	Run4	generate/STIM_007.jpg
2752.881	1.312	correct	generate	Run4	generate/STIM_007.jpg
2757.259	1.054	correct	generate	Run4	generate/STIM_007.jpg
2762.016	1.079	correct	generate	Run4	generate/STIM_007.jpg
2765.859	1.746	correct	generate	Run4	generate/STIM_008.jpg
2771.623	0.843	correct	generate	Run4	generate/STIM_008.jpg
2775.838	1.058	correct	generate	Run4	generate/STIM_008.jpg
2780.725	1.648	correct	generate	Run4	generate/STIM_008.jpg
2785.189	1.07	correct	generate	Run4	generate/STIM_008.jpg
2788.725	1.297	correct	generate	Run4	generate/STIM_009.jpg
2793.126	1.024	correct	generate	Run4	generate/STIM_009.jpg
2796.477	1.704	correct	generate	Run4	generate/STIM_009.jpg
2801.344	1.518	correct	generate	Run4	generate/STIM_009.jpg
2806.958	1.256	correct	generate	Run4	generate/STIM_009.jpg
2811.968	1.292	correct	generate	Run4	generate/STIM_010.jpg
2816.516	1.205	correct	generate	Run4	generate/STIM_010.jpg
2821.079	1.639	correct	generate	Run4	generate/STIM_010.jpg
2826.13	1.188	correct	generate	Run4	generate/STIM_010.jpg
2830.973	0.801	correct	generate	Run4	generate/STIM_010.jpg
2834.027	1.082	correct	generate	Run4	generate/STIM_011.jpg
2839.081	1.339	correct	generate	Run4	generate/STIM_011.jpg
2842.754	1.588	correct	generate	Run4	generate/STIM_011.jpg
2848.398	1.455	correct	generate	Run4	generate/STIM_011.jpg
2853.203	0.84	correct	generate	Run4	generate/STIM_011.jpg
2856.446	1.762	correct	generate	Run4	generate/STIM_012.jpg
2861.235	1.347	correct	generate	Run4	generate/STIM_012.jpg
2866.374	1.012	correct	generate	Run4	generate/STIM_012.jpg
2870.593	1.43	correct	generate	Run4	generate/STIM_012.jpg
2876.069	0.761	correct	generate	Run4	generate/STIM_012.jpg
2879.714	0.998	correct	generate	Run4	generate/STIM_013.jpg
2883.041	0.923	correct	generate	Run4	generate/STIM_013.jpg
2886.683	1.78	correct	generate	Run4	generate/STIM_013.jpg
2891.804	1.73	correct	generate	Run4	generate/STIM_013.jpg
2896.15	0.894	correct	generate	Run4	generate/STIM_013.jpg
2899.234	1.597	correct	generate	Run4	generate/STIM_014.jpg
2903.774	1.776	correct	generate	Run4	generate/STIM_014.jpg
2908.191	1.462	correct	generate	Run4	generate/STIM_014.jpg
2912.184	1.623	correct	generate	Run4	generate/STIM_014.jpg
2916.835	0.822	correct	generate	Run4	generate/STIM_014.jpg
2920.225	1.591	correct	generate	Run4	generate/STIM_015.jpg
2924.546	1.251	correct	generate	Run4	generate/STIM_015.jpg
2929.475	1.742	correct	generate	Run4	generate/STIM_015.jpg
2934.123	1.53	correct	generate	Run4	generate/STIM_015.jpg
2939.276	1.026	correct	generate	Run4	generate/STIM_015.jpg
2943.799	1.425	incorrect	generate	Run4	generate/STIM_016.jpg
2947.744	0.839	correct	generate	Run4	generate/STIM_016.jpg
2950.878	1.287	correct	generate	Run4	generate/STIM_016.jpg
2954.822	0.729	correct	generate	Run4	generate/STIM_016.jpg
2958.9	1.526	correct	generate	Run4	generate/STIM_016.jpg
2964.217	1.623	correct	generate	Run4	generate/STIM_017.jpg
2969.615	1.788	correct	generate	Run4	generate/STIM_017.jpg
2974.257	1.201	correct	generate	Run4	generate/STIM_017.jpg
2978.894	1.802	correct	generate	Run4	generate/STIM_017.jpg
2983.715	1.789	correct	generate	Run4	generate/STIM_017.jpg
2988.067	1.827	correct	generate	Run4	generate/STIM_018.jpg
2992.95	1.179	correct	generate	Run4	generate/STIM_018.jpg
2997.549	1.129	correct	generate	Run4	generate/STIM_018.jpg
3002.662	1.156	correct	generate	Run4	generate/STIM_018.jpg
3007.875	1.275	correct	generate	Run4	generate/STIM_018.jpg
3011.388	1.429	correct	generate	Run4	generate/STIM_019.jpg
3015.98	1.28	correct	generate	Run4	generate/STIM_019.jpg
3019.632	0.932	correct	generate	Run4	generate/STIM_019.jpg
3023.293	1.347	correct	generate	Run4	generate/STIM_019.jpg
3026.949	1.182	correct	generate	Run4	generate/STIM_019.jpg
3031.744	1.683	correct	generate	Run4	generate/STIM_020.jpg
3035.822	1.105	correct	generate	Run4	generate/STIM_020.jpg
3039.685	1.063	correct	generate	Run4	generate/STIM_020.jpg
3044.266	1.426	correct	generate	Run4	generate/STIM_020.jpg
3048.215	0.803	correct	generate	Run4	generate/STIM_020.jpg
3052.107	1.541	incorrect	generate	Run4	generate/STIM_021.jpg
3057.751	1.466	correct	generate	Run4	generate/STIM_021.jpg
3062.317	1.535	correct	generate	Run4	generate/STIM_021.jpg
3068.018	0.934	correct	generate	Run4	generate/STIM_021.jpg
3072.582	1.374	correct	generate	Run4	generate/STIM_021.jpg
3076.688	0.752	correct	generate	Run4	generate/STIM_022.jpg
3081.386	1.648	correct	generate	Run4	generate/STIM_022.jpg
3086.522	1.497	correct	generate	Run4	generate/STIM_022.jpg
3090.847	1.758	correct	generate	Run4	generate/STIM_022.jpg
3096.367	1.04	correct	generate	Run4	generate/STIM_022.jpg
3101.358	0.863	correct	generate	Run4	generate/STIM_023.jpg
3105.577	1.423	correct	generate	Run4	generate/STIM_023.jpg
3110.308	1.339	correct	generate	Run4	generate/STIM_023.jpg
3115.784	0.964	correct	generate	Run4	generate/STIM_023.jpg
3120.124	1.767	correct	generate	Run4	generate/STIM_023.jpg
3124.881	0.949	correct	generate	Run4	generate/STIM_024.jpg
3128.887	0.908	correct	generate	Run4	generate/STIM_024.jpg
3132.817	1.314	correct	generate	Run4	generate/STIM_024.jpg
3137.883	1.751	correct	generate	Run4	generate/STIM_024.jpg
3143.525	1.415	correct	generate	Run4	generate/STIM_024.jpg
3147.707	0.659	correct	repeat	Run4	repeat/STIM_000.jpg
3150.608	0.637	correct	repeat	Run4	repeat/STIM_000.jpg
3155.357	0.707	correct	repeat	Run4	repeat/STIM_000.jpg
3159.784	0.569	correct	repeat	Run4	repeat/STIM_000.jpg
3163.08	0.633	correct	repeat	Run4	repeat/STIM_000.jpg
3166.971	0.638	correct	repeat	Run4	repeat/STIM_001.jpg
3171.509	0.786	correct	repeat	Run4	repeat/STIM_001.jpg
3175.24	0.778	correct	repeat	Run4	repeat/STIM_001.jpg
3178.445	0.757	correct	repeat	Run4	repeat/STIM_001.jpg
3181.361	0.807	correct	repeat	Run4	repeat/STIM_001.jpg
3185.627	0.769	correct	repeat	Run4	repeat/STIM_002.jpg
3189.197	0.784	incorrect	repeat	Run4	repeat/STIM_002.jpg
3192.85	0.789	correct	repeat	Run4	repeat/STIM_002.jpg
3195.78	0.502	correct	repeat	Run4	repeat/STIM_002.jpg
3198.678	0.82	correct	repeat	Run4	repeat/STIM_002.jpg
3202.991	0.621	incorrect	repeat	Run4	repeat/STIM_003.jpg
3205.812	0.505	correct	repeat	Run4	repeat/STIM_003.jpg
3210.189	0.828	correct	repeat	Run4	repeat/STIM_003.jpg
3213.396	0.62	correct	repeat	Run4	repeat/STIM_003.jpg
3216.584	0.74	correct	repeat	Run4	repeat/STIM_003.jpg
3220.556	0.518	correct	repeat	Run4	repeat/STIM_004.jpg
3224.611	0.695	correct	repeat	Run4	repeat/STIM_004.jpg
3229.013	0.608	correct	repeat	Run4	repeat/STIM_004.jpg
3233.527	0.596	correct	repeat	Run4	repeat/STIM_004.jpg
3237.641	0.878	correct	repeat	Run4	repeat/STIM_004.jpg
3241.497	0.444	correct	repeat	Run4	repeat/STIM_005.jpg
3244.663	0.925	correct	repeat	Run4	repeat/STIM_005.jpg
3248.001	0.664	correct	repeat	Run4	repeat/STIM_005.jpg
3252.575	0.596	correct	repeat	Run4	repeat/STIM_005.jpg
3256.737	0.404	correct	repeat	Run4	repeat/STIM_005.jpg
3259.397	0.877	correct	repeat	Run4	repeat/STIM_006.jpg
3262.472	0.73	correct	repeat	Run4	repeat/STIM_006.jpg
3265.707	0.587	correct	repeat	Run4	repeat/STIM_006.jpg
3269.805	0.874	correct	repeat	Run4	repeat/STIM_006.jpg
3273.869	0.821	correct	repeat	Run4	repeat/STIM_006.jpg
3277.086	0.68	correct	repeat	Run4	repeat/STIM_007.jpg
3280.216	0.592	correct	repeat	Run4	repeat/STIM_007.jpg
3283.46	0.784	correct	repeat	Run4	repeat/STIM_007.jpg
3288.157	0.509	correct	repeat	Run4	repeat/STIM_007.jpg
3292.377	0.509	correct	repeat	Run4	repeat/STIM_007.jpg
3295.011	0.537	correct	repeat	Run4	repeat/STIM_008.jpg
3297.716	0.549	incorrect	repeat	Run4	repeat/STIM_008.jpg
3301.46	0.563	incorrect	repeat	Run4	repeat/STIM_008.jpg
3304.667	0.472	correct	repeat	Run4	repeat/STIM_008.jpg
3307.656	0.883	correct	repeat	Run4	repeat/STIM_008.jpg
3311.497	0.577	correct	repeat	Run4	repeat/STIM_009.jpg
3316.097	0.789	correct	repeat	Run4	repeat/STIM_009.jpg
3320.79	0.685	correct	repeat	Run4	repeat/STIM_009.jpg
3324.586	0.623	correct	repeat	Run4	repeat/STIM_009.jpg
3327.614	0.795	correct	repeat	Run4	repeat/STIM_009.jpg
3331.838	0.894	correct	repeat	Run4	repeat/STIM_010.jpg
3334.952	0.572	correct	repeat	Run4	repeat/STIM_010.jpg
3339.481	0.769	correct	repeat	Run4	repeat/STIM_010.jpg
3344.059	0.816	correct	repeat	Run4	repeat/STIM_010.jpg
3347.669	0.733	correct	repeat	Run4	repeat/STIM_010.jpg
3350.998	0.481	correct	repeat	Run4	repeat/STIM_011.jpg
3355.09	0.516	correct	repeat	Run4	repeat/STIM_011.jpg
3359.324	0.511	correct	repeat	Run4	repeat/STIM_011.jpg
3362.241	0.6	correct	repeat	Run4	repeat/STIM_011.jpg
3366.694	0.668	correct	repeat	Run4	repeat/STIM_011.jpg
3370.541	0.541	correct	repeat	Run4	repeat/STIM_012.jpg
3373.727	0.594	correct	repeat	Run4	repeat/STIM_012.jpg
3377.266	0.796	correct	repeat	Run4	repeat/STIM_012.jpg
3380.754	0.482	correct	repeat	Run4	repeat/STIM_012.jpg
3383.477	0.811	correct	repeat	Run4	repeat/STIM_012.jpg
3387.864	0.688	correct	repeat	Run4	repeat/STIM_013.jpg
3391.231	0.528	correct	repeat	Run4	repeat/STIM_013.jpg
3394.524	0.758	correct	repeat	Run4	repeat/STIM_013.jpg
3398.982	0.829	correct	repeat	Run4	repeat/STIM_013.jpg
3403.255	0.549	correct	repeat	Run4	repeat/STIM_013.jpg
3407.866	0.701	incorrect	repeat	Run4	repeat/STIM_014.jpg
3411.717	0.655	correct	repeat	Run4	repeat/STIM_014.jpg
3415.547	0.799	correct	repeat	Run4	repeat/STIM_014.jpg
3419.232	0.603	correct	repeat	Run4	repeat/STIM_014.jpg
3423.677	0.467	correct	repeat	Run4	repeat/STIM_014.jpg
