onset	duration	accuracy_binary	trial_type	learning_stage	stimulus
0.0	1.374	1	generate	Run1	generate/STIM_000.jpg
4.301	1.418	0	generate	Run1	generate/STIM_000.jpg
9.651	2.134	0	generate	Run1	generate/STIM_000.jpg
15.287	1.512	1	generate	Run1	generate/STIM_000.jpg
20.677	1.938	1	generate	Run1	generate/STIM_000.jpg
25.55	2.273	1	generate	Run1	generate/STIM_001.jpg
31.748	2.55	1	generate	Run1	generate/STIM_001.jpg
38.124	2.328	1	generate	Run1	generate/STIM_001.jpg
43.343	2.37	0	generate	Run1	generate/STIM_001.jpg
48.07	2.441	0	generate	Run1	generate/STIM_001.jpg
52.858	1.891	0	generate	Run1	generate/STIM_002.jpg
57.075	1.599	1	generate	Run1	generate/STIM_002.jpg
62.326	1.306	1	generate	Run1	generate/STIM_002.jpg
67.563	1.424	0	generate	Run1	generate/STIM_002.jpg
72.042	1.742	1	generate	Run1	generate/STIM_002.jpg
76.758	2.36	0	generate	Run1	generate/STIM_003.jpg
81.403	2.936	1	generate	Run1	generate/STIM_003.jpg
86.933	1.715	0	generate	Run1	generate/STIM_003.jpg
91.802	1.997	1	generate	Run1	generate/STIM_003.jpg
97.477	2.322	0	generate	Run1	generate/STIM_003.jpg
102.123	1.329	1	generate	Run1	generate/STIM_004.jpg
105.725	2.691	1	generate	Run1	generate/STIM_004.jpg
111.026	1.764	0	generate	Run1	generate/STIM_004.jpg
115.289	1.253	1	generate	Run1	generate/STIM_004.jpg
118.93	1.619	1	generate	Run1	generate/STIM_004.jpg
124.048	2.033	0	generate	Run1	generate/STIM_005.jpg
128.515	1.865	1	generate	Run1	generate/STIM_005.jpg
134.16	2.237	1	generate	Run1	generate/STIM_005.jpg
140.319	2.503	1	generate	Run1	generate/STIM_005.jpg
145.348	1.936	1	generate	Run1	generate/STIM_005.jpg
150.777	2.035	1	generate	Run1	generate/STIM_006.jpg
155.389	2.979	1	generate	Run1	generate/STIM_006.jpg
162.032	1.458	1	generate	Run1	generate/STIM_006.jpg
166.505	2.746	1	generate	Run1	generate/STIM_006.jpg
172.07	1.071	1	generate	Run1	generate/STIM_006.jpg
175.514	1.95	0	generate	Run1	generate/STIM_007.jpg
179.718	2.296	1	generate	Run1	generate/STIM_007.jpg
184.614	2.506	1	generate	Run1	generate/STIM_007.jpg
189.453	1.154	1	generate	Run1	generate/STIM_007.jpg
194.331	1.891	1	generate	Run1	generate/STIM_007.jpg
199.716	1.67	1	generate	Run1	generate/STIM_008.jpg
203.867	1.592	1	generate	Run1	generate/STIM_008.jpg
207.603	2.743	0	generate	Run1	generate/STIM_008.jpg
212.79	1.352	1	generate	Run1	generate/STIM_008.jpg
216.604	1.985	1	generate	Run1	generate/STIM_008.jpg
221.641	2.93	0	generate	Run1	generate/STIM_009.jpg
227.256	2.77	1	generate	Run1	generate/STIM_009.jpg
233.489	2.549	0	generate	Run1	generate/STIM_009.jpg
238.042	2.266	1	generate	Run1	generate/STIM_009.jpg
244.101	1.158	1	generate	Run1	generate/STIM_009.jpg
247.609	1.403	1	generate	Run1	generate/STIM_010.jpg
251.475	2.739	1	generate	Run1	generate/STIM_010.jpg
257.335	2.904	1	generate	Run1	generate/STIM_010.jpg
263.531	2.522	1	generate	Run1	generate/STIM_010.jpg
269.634	2.276	1	generate	Run1	generate/STIM_010.jpg
275.571	2.144	1	generate	Run1	generate/STIM_011.jpg
281.239	1.314	0	generate	Run1	generate/STIM_011.jpg
284.62	1.704	0	generate	Run1	generate/STIM_011.jpg
288.39	1.915	1	generate	Run1	generate/STIM_011.jpg
293.185	2.332	1	generate	Run1	generate/STIM_011.jpg
299.016	2.818	1	generate	Run1	generate/STIM_012.jpg
305.613	3.098	1	generate	Run1	generate/STIM_012.jpg
310.893	1.976	1	generate	Run1	generate/STIM_012.jpg
315.104	2.564	1	generate	Run1	generate/STIM_012.jpg
320.118	2.109	0	generate	Run1	generate/STIM_012.jpg
324.264	1.996	0	generate	Run1	generate/STIM_013.jpg
329.54	1.498	1	generate	Run1	generate/STIM_013.jpg
334.883	1.231	1	generate	Run1	generate/STIM_013.jpg
338.649	2.548	0	generate	Run1	generate/STIM_013.jpg
344.33	1.284	1	generate	Run1	generate/STIM_013.jpg
348.211	1.936	1	generate	Run1	generate/STIM_014.jpg
352.49	2.961	1	generate	Run1	generate/STIM_014.jpg
357.895	1.398	1	generate	Run1	generate/STIM_014.jpg
361.638	2.266	1	generate	Run1	generate/STIM_014.jpg
366.785	2.381	0	generate	Run1	generate/STIM_014.jpg
371.972	2.311	1	generate	Run1	generate/STIM_015.jpg
378.24	1.898	1	generate	Run1	generate/STIM_015.jpg
383.088	2.878	0	generate	Run1	generate/STIM_015.jpg
388.251	2.505	1	generate	Run1	generate/STIM_015.jpg
394.143	2.131	1	generate	Run1	generate/STIM_015.jpg
400.102	2.928	1	generate	Run1	generate/STIM_016.jpg
406.865	2.683	1	generate	Run1	generate/STIM_016.jpg
411.592	2.021	1	generate	Run1	generate/STIM_016.jpg
416.893	2.474	0	generate	Run1	generate/STIM_016.jpg
421.989	1.48	1	generate	Run1	generate/STIM_016.jpg
426.633	2.108	0	generate	Run1	generate/STIM_017.jpg
432.168	1.648	0	generate	Run1	generate/STIM_017.jpg
436.007	1.672	1	generate	Run1	generate/STIM_017.jpg
441.582	1.54	1	generate	Run1	generate/STIM_017.jpg
445.179	1.678	1	generate	Run1	generate/STIM_017.jpg
449.277	2.254	1	generate	Run1	generate/STIM_018.jpg
453.767	1.407	1	generate	Run1	generate/STIM_018.jpg
458.525	2.477	0	generate	Run1	generate/STIM_018.jpg
463.151	1.805	0	generate	Run1	generate/STIM_018.jpg
468.476	1.731	1	generate	Run1	generate/STIM_018.jpg
473.441	1.854	1	generate	Run1	generate/STIM_019.jpg
477.793	2.924	0	generate	Run1	generate/STIM_019.jpg
484.392	2.317	1	generate	Run1	generate/STIM_019.jpg
490.668	2.087	0	generate	Run1	generate/STIM_019.jpg
496.176	1.915	1	generate	Run1	generate/STIM_019.jpg
500.195	2.895	0	generate	Run1	generate/STIM_020.jpg
505.996	2.28	0	generate	Run1	generate/STIM_020.jpg
511.913	2.564	0	generate	Run1	generate/STIM_020.jpg
516.523	1.465	1	generate	Run1	generate/STIM_020.jpg
520.748	1.141	1	generate	Run1	generate/STIM_020.jpg
524.587	2.459	1	generate	Run1	generate/STIM_021.jpg
530.127	2.118	1	generate	Run1	generate/STIM_021.jpg
535.739	2.107	0	generate	Run1	generate/STIM_021.jpg
539.87	1.194	1	generate	Run1	generate/STIM_021.jpg
544.555	1.196	1	generate	Run1	generate/STIM_021.jpg
548.744	3.136	1	generate	Run1	generate/STIM_022.jpg
554.057	2.318	0	generate	Run1	generate/STIM_022.jpg
559.684	2.58	1	generate	Run1	generate/STIM_022.jpg
564.782	1.708	0	generate	Run1	generate/STIM_022.jpg
570.033	2.139	1	generate	Run1	generate/STIM_022.jpg
575.445	2.092	1	generate	Run1	generate/STIM_023.jpg
580.222	2.19	1	generate	Run1	generate/STIM_023.jpg
584.494	1.719	0	generate	Run1	generate/STIM_023.jpg
589.741	1.142	1	generate	Run1	generate/STIM_023.jpg
593.181	2.036	1	generate	Run1	generate/STIM_023.jpg
599.099	2.989	1	generate	Run1	generate/STIM_024.jpg
604.496	2.768	0	generate	Run1	generate/STIM_024.jpg
611.031	1.773	0	generate	Run1	generate/STIM_024.jpg
616.16	2.022	0	generate	Run1	generate/STIM_024.jpg
621.651	2.1	1	generate	Run1	generate/STIM_024.jpg
626.109	0.641	1	repeat	Run1	repeat/STIM_000.jpg
630.411	0.646	0	repeat	Run1	repeat/STIM_000.jpg
633.109	0.868	1	repeat	Run1	repeat/STIM_000.jpg
636.175	0.812	1	repeat	Run1	repeat/STIM_000.jpg
640.435	0.631	1	repeat	Run1	repeat/STIM_000.jpg
643.499	1.03	1	repeat	Run1	repeat/STIM_001.jpg
648.517	0.576	0	repeat	Run1	repeat/STIM_001.jpg
651.89	0.705	1	repeat	Run1	repeat/STIM_001.jpg
656.448	1.039	1	repeat	Run1	repeat/STIM_001.jpg
660.374	0.828	1	repeat	Run1	repeat/STIM_001.jpg
665.072	0.695	1	repeat	Run1	repeat/STIM_002.jpg
668.17	0.634	1	repeat	Run1	repeat/STIM_002.jpg
672.077	0.952	1	repeat	Run1	repeat/STIM_002.jpg
676.506	0.95	1	repeat	Run1	repeat/STIM_002.jpg
680.519	0.577	1	repeat	Run1	repeat/STIM_002.jpg
684.588	0.744	0	repeat	Run1	repeat/STIM_003.jpg
688.676	1.014	1	repeat	Run1	repeat/STIM_003.jpg
693.331	0.674	1	repeat	Run1	repeat/STIM_003.jpg
696.047	0.738	1	repeat	Run1	repeat/STIM_003.jpg
699.78	0.953	0	repeat	Run1	repeat/STIM_003.jpg
703.877	0.998	1	repeat	Run1	repeat/STIM_004.jpg
708.004	1.036	1	repeat	Run1	repeat/STIM_004.jpg
711.918	0.582	0	repeat	Run1	repeat/STIM_004.jpg
715.076	0.992	1	repeat	Run1	repeat/STIM_004.jpg
718.38	1.078	1	repeat	Run1	repeat/STIM_004.jpg
723.328	1.058	1	repeat	Run1	repeat/STIM_005.jpg
727.23	0.961	1	repeat	Run1	repeat/STIM_005.jpg
730.903	0.577	1	repeat	Run1	repeat/STIM_005.jpg
734.307	0.795	0	repeat	Run1	repeat/STIM_005.jpg
738.479	1.063	1	repeat	Run1	repeat/STIM_005.jpg
742.176	0.563	0	repeat	Run1	repeat/STIM_006.jpg
745.512	0.842	1	repeat	Run1	repeat/STIM_006.jpg
749.628	0.782	1	repeat	Run1	repeat/STIM_006.jpg
752.909	0.858	0	repeat	Run1	repeat/STIM_006.jpg
757.076	1.093	1	repeat	Run1	repeat/STIM_006.jpg
762.076	0.819	0	repeat	Run1	repeat/STIM_007.jpg
765.762	0.832	1	repeat	Run1	repeat/STIM_007.jpg
770.078	0.98	1	repeat	Run1	repeat/STIM_007.jpg
774.766	0.923	0	repeat	Run1	repeat/STIM_007.jpg
778.882	0.605	1	repeat	Run1	repeat/STIM_007.jpg
781.7	0.722	1	repeat	Run1	repeat/STIM_008.jpg
785.265	0.998	1	repeat	Run1	repeat/STIM_008.jpg
788.42	0.554	1	repeat	Run1	repeat/STIM_008.jpg
792.798	0.617	1	repeat	Run1	repeat/STIM_008.jpg
796.176	0.709	1	repeat	Run1	repeat/STIM_008.jpg
800.118	0.825	1	repeat	Run1	repeat/STIM_009.jpg
803.382	1.084	1	repeat	Run1	repeat/STIM_009.jpg
807.963	1.046	1	repeat	Run1	repeat/STIM_009.jpg
812.428	0.996	1	repeat	Run1	repeat/STIM_009.jpg
816.163	0.623	1	repeat	Run1	repeat/STIM_009.jpg
820.326	0.835	1	repeat	Run1	repeat/STIM_010.jpg
824.864	0.776	1	repeat	Run1	repeat/STIM_010.jpg
829.325	1.05	1	repeat	Run1	repeat/STIM_010.jpg
833.025	0.817	1	repeat	Run1	repeat/STIM_010.jpg
837.627	0.65	1	repeat	Run1	repeat/STIM_010.jpg
840.31	0.547	1	repeat	Run1	repeat/STIM_011.jpg
844.237	0.978	1	repeat	Run1	repeat/STIM_011.jpg
848.197	0.913	0	repeat	Run1	repeat/STIM_011.jpg
851.694	0.76	1	repeat	Run1	repeat/STIM_011.jpg
856.112	0.858	1	repeat	Run1	repeat/STIM_011.jpg
860.158	0.606	1	repeat	Run1	repeat/STIM_012.jpg
862.998	0.883	1	repeat	Run1	repeat/STIM_012.jpg
867.435	0.807	1	repeat	Run1	repeat/STIM_012.jpg
871.451	0.902	1	repeat	Run1	repeat/STIM_012.jpg
875.723	0.948	1	repeat	Run1	repeat/STIM_012.jpg
879.534	0.608	1	repeat	Run1	repeat/STIM_013.jpg
882.643	1.017	1	repeat	Run1	repeat/STIM_013.jpg
886.181	1.065	1	repeat	Run1	repeat/STIM_013.jpg
889.518	0.692	1	repeat	Run1	repeat/STIM_013.jpg
893.257	0.814	1	repeat	Run1	repeat/STIM_013.jpg
896.67	0.687	0	repeat	Run1	repeat/STIM_014.jpg
899.673	0.76	1	repeat	Run1	repeat/STIM_014.jpg
903.536	0.869	1	repeat	Run1	repeat/STIM_014.jpg
907.809	1.003	1	repeat	Run1	repeat/STIM_014.jpg
911.939	0.82	1	repeat	Run1	repeat/STIM_014.jpg
915.763	1.64	1	generate	Run2	generate/STIM_000.jpg
920.167	2.483	1	generate	Run2	generate/STIM_000.jpg
925.746	1.566	1	generate	Run2	generate/STIM_000.jpg
930.83	1.034	1	generate	Run2	generate/STIM_000.jpg
934.038	1.958	1	generate	Run2	generate/STIM_000.jpg
938.877	2.752	1	generate	Run2	generate/STIM_001.jpg
945.142	1.532	1	generate	Run2	generate/STIM_001.jpg
950.402	1.201	1	generate	Run2	generate/STIM_001.jpg
953.656	0.952	1	generate	Run2	generate/STIM_001.jpg
957.188	2.253	0	generate	Run2	generate/STIM_001.jpg
963.19	1.322	1	generate	Run2	generate/STIM_002.jpg
968.066	1.6	1	generate	Run2	generate/STIM_002.jpg
972.34	2.393	1	generate	Run2	generate/STIM_002.jpg
977.691	1.147	0	generate	Run2	generate/STIM_002.jpg
981.363	1.239	1	generate	Run2	generate/STIM_002.jpg
985.674	2.381	0	generate	Run2	generate/STIM_003.jpg
991.141	2.379	1	generate	Run2	generate/STIM_003.jpg
997.479	1.841	1	generate	Run2	generate/STIM_003.jpg
1002.308	2.106	1	generate	Run2	generate/STIM_003.jpg
1007.522	1.381	1	generate	Run2	generate/STIM_003.jpg
1012.063	1.877	1	generate	Run2	generate/STIM_004.jpg
1017.445	2.316	0	generate	Run2	generate/STIM_004.jpg
1021.827	2.44	1	generate	Run2	generate/STIM_004.jpg
1027.462	2.03	1	generate	Run2	generate/STIM_004.jpg
1033.123	1.961	1	generate	Run2	generate/STIM_004.jpg
1037.261	2.072	1	generate	Run2	generate/STIM_005.jpg
1043.274	1.496	1	generate	Run2	generate/STIM_005.jpg
1047.286	2.332	0	generate	Run2	generate/STIM_005.jpg
1052.022	1.383	1	generate	Run2	generate/STIM_005.jpg
1055.637	0.983	1	generate	Run2	generate/STIM_005.jpg
1060.374	1.513	1	generate	Run2	generate/STIM_006.jpg
1064.772	1.383	1	generate	Run2	generate/STIM_006.jpg
1070.062	2.035	1	generate	Run2	generate/STIM_006.jpg
1075.93	1.026	1	generate	Run2	generate/STIM_006.jpg
1079.364	1.287	1	generate	Run2	generate/STIM_006.jpg
1082.979	2.67	1	generate	Run2	generate/STIM_007.jpg
1089.222	1.472	0	generate	Run2	generate/STIM_007.jpg
1092.998	2.295	1	generate	Run2	generate/STIM_007.jpg
1098.287	1.895	1	generate	Run2	generate/STIM_007.jpg
1102.275	1.185	0	generate	Run2	generate/STIM_007.jpg
1105.96	2.52	1	generate	Run2	generate/STIM_008.jpg
1111.592	2.549	1	generate	Run2	generate/STIM_008.jpg
1116.162	2.108	1	generate	Run2	generate/STIM_008.jpg
1120.578	1.612	1	generate	Run2	generate/STIM_008.jpg
1124.627	1.333	1	generate	Run2	generate/STIM_008.jpg
1129.863	1.886	1	generate	Run2	generate/STIM_009.jpg
1135.089	2.274	0	generate	Run2	generate/STIM_009.jpg
1140.349	1.684	1	generate	Run2	generate/STIM_009.jpg
1145.317	1.246	0	generate	Run2	generate/STIM_009.jpg
1149.759	1.101	1	generate	Run2	generate/STIM_009.jpg
1154.506	1.159	1	generate	Run2	generate/STIM_010.jpg
1158.171	2.354	1	generate	Run2	generate/STIM_010.jpg
1162.873	1.665	1	generate	Run2	generate/STIM_010.jpg
1166.904	1.472	0	generate	Run2	generate/STIM_010.jpg
1170.627	1.766	1	generate	Run2	generate/STIM_010.jpg
1175.719	1.683	1	generate	Run2	generate/STIM_011.jpg
1181.379	2.276	0	generate	Run2	generate/STIM_011.jpg
1186.425	1.62	1	generate	Run2	generate/STIM_011.jpg
1191.154	1.104	1	generate	Run2	generate/STIM_011.jpg
1194.811	1.736	0	generate	Run2	generate/STIM_011.jpg
1199.37	2.165	1	generate	Run2	generate/STIM_012.jpg
1204.96	2.086	0	generate	Run2	generate/STIM_012.jpg
1210.732	2.409	1	generate	Run2	generate/STIM_012.jpg
1216.757	0.944	1	generate	Run2	generate/STIM_012.jpg
1219.878	1.067	0	generate	Run2	generate/STIM_012.jpg
1224.403	1.337	1	generate	Run2	generate/STIM_013.jpg
1229.17	1.208	0	generate	Run2	generate/STIM_013.jpg
1234.166	1.777	1	generate	Run2	generate/STIM_013.jpg
1239.852	2.012	1	generate	Run2	generate/STIM_013.jpg
1244.764	1.435	1	generate	Run2	generate/STIM_013.jpg
1248.665	2.42	0	generate	Run2	generate/STIM_014.jpg
1254.506	2.264	1	generate	Run2	generate/STIM_014.jpg
1259.156	1.828	1	generate	Run2	generate/STIM_014.jpg
1264.06	2.109	0	generate	Run2	generate/STIM_014.jpg
1268.599	2.178	1	generate	Run2	generate/STIM_014.jpg
1273.852	1.95	1	generate	Run2	generate/STIM_015.jpg
1278.305	1.919	1	generate	Run2	generate/STIM_015.jpg
1283.325	1.303	1	generate	Run2	generate/STIM_015.jpg
1288.179	2.059	1	generate	Run2	generate/STIM_015.jpg
1293.737	1.571	1	generate	Run2	generate/STIM_015.jpg
1298.794	1.987	1	generate	Run2	generate/STIM_016.jpg
1304.253	1.64	1	generate	Run2	generate/STIM_016.jpg
1308.887	1.552	1	generate	Run2	generate/STIM_016.jpg
1312.481	1.161	1	generate	Run2	generate/STIM_016.jpg
1317.318	1.416	1	generate	Run2	generate/STIM_016.jpg
1321.435	2.188	0	generate	Run2	generate/STIM_017.jpg
1327.317	1.597	1	generate	Run2	generate/STIM_017.jpg
1332.647	1.5	1	generate	Run2	generate/STIM_017.jpg
1337.525	1.951	1	generate	Run2	generate/STIM_017.jpg
1341.788	2.02	1	generate	Run2	generate/STIM_017.jpg
1347.535	2.166	0	generate	Run2	generate/STIM_018.jpg
1353.342	2.558	1	generate	Run2	generate/STIM_018.jpg
1358.831	2.161	1	generate	Run2	generate/STIM_018.jpg
1364.34	1.933	1	generate	Run2	generate/STIM_018.jpg
1368.812	1.038	1	generate	Run2	generate/STIM_018.jpg
1373.597	1.411	1	generate	Run2	generate/STIM_019.jpg
1377.671	1.198	1	generate	Run2	generate/STIM_019.jpg
1382.084	2.432	1	generate	Run2	generate/STIM_019.jpg
1387.352	1.329	0	generate	Run2	generate/STIM_019.jpg
1392.006	1.557	1	generate	Run2	generate/STIM_019.jpg
1395.777	1.178	1	generate	Run2	generate/STIM_020.jpg
1399.582	1.707	1	generate	Run2	generate/STIM_020.jpg
1404.749	2.159	1	generate	Run2	generate/STIM_020.jpg
1410.131	1.738	1	generate	Run2	generate/STIM_020.jpg
1415.455	1.18	1	generate	Run2	generate/STIM_020.jpg
1419.231	1.958	1	generate	Run2	generate/STIM_021.jpg
1423.424	1.543	1	generate	Run2	generate/STIM_021.jpg
1427.577	2.207	1	generate	Run2	generate/STIM_021.jpg
1432.477	2.012	1	generate	Run2	generate/STIM_021.jpg
1437.8	1.772	1	generate	Run2	generate/STIM_021.jpg
1441.902	2.316	1	generate	Run2	generate/STIM_022.jpg
1447.61	2.524	1	generate	Run2	generate/STIM_022.jpg
1453.779	1.182	1	generate	Run2	generate/STIM_022.jpg
1458.138	1.576	0	generate	Run2	generate/STIM_022.jpg
1463.574	1.928	1	generate	Run2	generate/STIM_022.jpg
1468.432	2.104	1	generate	Run2	generate/STIM_023.jpg
1472.914	1.508	1	generate	Run2	generate/STIM_023.jpg
1476.827	1.559	0	generate	Run2	generate/STIM_023.jpg
1482.132	1.068	1	generate	Run2	generate/STIM_023.jpg
1486.353	1.91	0	generate	Run2	generate/STIM_023.jpg
1490.326	2.465	1	generate	Run2	generate/STIM_024.jpg
1495.846	2.05	1	generate	Run2	generate/STIM_024.jpg
1501.034	2.096	1	generate	Run2	generate/STIM_024.jpg
1506.403	1.525	1	generate	Run2	generate/STIM_024.jpg
1511.366	1.18	1	generate	Run2	generate/STIM_024.jpg
1514.702	0.635	1	repeat	Run2	repeat/STIM_000.jpg
1517.465	0.558	1	repeat	Run2	repeat/STIM_000.jpg
1520.262	0.877	1	repeat	Run2	repeat/STIM_000.jpg
1524.884	0.885	1	repeat	Run2	repeat/STIM_000.jpg
1528.605	0.715	1	repeat	Run2	repeat/STIM_000.jpg
1533.294	0.769	1	repeat	Run2	repeat/STIM_001.jpg
1537.109	0.902	1	repeat	Run2	repeat/STIM_001.jpg
1541.14	0.74	1	repeat	Run2	repeat/STIM_001.jpg
1544.105	0.648	1	repeat	Run2	repeat/STIM_001.jpg
1548.499	0.963	1	repeat	Run2	repeat/STIM_001.jpg
1551.842	0.85	1	repeat	Run2	repeat/STIM_002.jpg
1554.734	0.579	1	repeat	Run2	repeat/STIM_002.jpg
1558.038	0.82	1	repeat	Run2	repeat/STIM_002.jpg
1561.355	0.925	1	repeat	Run2	repeat/STIM_002.jpg
1564.398	0.679	1	repeat	Run2	repeat/STIM_002.jpg
1567.193	0.65	1	repeat	Run2	repeat/STIM_003.jpg
1571.787	0.892	1	repeat	Run2	repeat/STIM_003.jpg
1574.688	0.627	1	repeat	Run2	repeat/STIM_003.jpg
1578.838	0.83	1	repeat	Run2	repeat/STIM_003.jpg
1582.364	0.865	0	repeat	Run2	repeat/STIM_003.jpg
1585.842	1.019	1	repeat	Run2	repeat/STIM_004.jpg
1590.111	1.032	1	repeat	Run2	repeat/STIM_004.jpg
1593.567	0.73	1	repeat	Run2	repeat/STIM_004.jpg
1597.413	0.756	1	repeat	Run2	repeat/STIM_004.jpg
1601.993	0.88	1	repeat	Run2	repeat/STIM_004.jpg
1605.315	0.822	1	repeat	Run2	repeat/STIM_005.jpg
1608.964	0.8	1	repeat	Run2	repeat/STIM_005.jpg
1613.248	0.724	1	repeat	Run2	repeat/STIM_005.jpg
1617.138	0.907	1	repeat	Run2	repeat/STIM_005.jpg
1621.762	0.859	1	repeat	Run2	repeat/STIM_005.jpg
1625.269	0.753	1	repeat	Run2	repeat/STIM_006.jpg
1628.095	0.788	1	repeat	Run2	repeat/STIM_006.jpg
1631.58	1.038	1	repeat	Run2	repeat/STIM_006.jpg
1635.53	0.587	1	repeat	Run2	repeat/STIM_006.jpg
1638.149	0.629	0	repeat	Run2	repeat/STIM_006.jpg
1642.146	0.968	1	repeat	Run2	repeat/STIM_007.jpg
1645.139	0.902	1	repeat	Run2	repeat/STIM_007.jpg
1648.343	1.045	0	repeat	Run2	repeat/STIM_007.jpg
1652.41	0.88	1	repeat	Run2	repeat/STIM_007.jpg
1656.665	0.765	1	repeat	Run2	repeat/STIM_007.jpg
1660.626	0.553	1	repeat	Run2	repeat/STIM_008.jpg
1664.538	0.754	1	repeat	Run2	repeat/STIM_008.jpg
1668.212	0.558	1	repeat	Run2	repeat/STIM_008.jpg
1672.229	0.999	1	repeat	Run2	repeat/STIM_008.jpg
1676.333	0.663	1	repeat	Run2	repeat/STIM_008.jpg
1679.389	1.043	1	repeat	Run2	repeat/STIM_009.jpg
1682.652	0.761	1	repeat	Run2	repeat/STIM_009.jpg
1686.205	0.613	1	repeat	Run2	repeat/STIM_009.jpg
1689.04	1.089	1	repeat	Run2	repeat/STIM_009.jpg
1693.847	0.744	0	repeat	Run2	repeat/STIM_009.jpg
1697.995	0.968	1	repeat	Run2	repeat/STIM_010.jpg
1701.957	1.082	1	repeat	Run2	repeat/STIM_010.jpg
1706.928	0.869	1	repeat	Run2	repeat/STIM_010.jpg
1709.81	0.894	1	repeat	Run2	repeat/STIM_010.jpg
1713.369	1.086	1	repeat	Run2	repeat/STIM_010.jpg
1716.787	0.55	1	repeat	Run2	repeat/STIM_011.jpg
1720.052	0.94	1	repeat	Run2	repeat/STIM_011.jpg
1724.426	0.643	1	repeat	Run2	repeat/STIM_011.jpg
1728.449	0.599	1	repeat	Run2	repeat/STIM_011.jpg
1732.846	0.78	1	repeat	Run2	repeat/STIM_011.jpg
1735.695	0.883	1	repeat	Run2	repeat/STIM_012.jpg
1738.879	0.586	1	repeat	Run2	repeat/STIM_012.jpg
1741.755	0.999	1	repeat	Run2	repeat/STIM_012.jpg
1746.071	0.658	1	repeat	Run2	repeat/STIM_012.jpg
1750.26	0.654	1	repeat	Run2	repeat/STIM_012.jpg
1754.771	0.665	1	repeat	Run2	repeat/STIM_013.jpg
1757.775	0.939	1	repeat	Run2	repeat/STIM_013.jpg
1761.211	1.005	1	repeat	Run2	repeat/STIM_013.jpg
1764.494	0.956	1	repeat	Run2	repeat/STIM_013.jpg
1767.745	0.728	1	repeat	Run2	repeat/STIM_013.jpg
1771.902	0.9	1	repeat	Run2	repeat/STIM_014.jpg
1775.227	0.823	1	repeat	Run2	repeat/STIM_014.jpg
1779.442	0.907	1	repeat	Run2	repeat/STIM_014.jpg
1782.988	0.582	1	repeat	Run2	repeat/STIM_014.jpg
1785.95	0.624	1	repeat	Run2	repeat/STIM_014.jpg
1790.018	1.939	1	generate	Run3	generate/STIM_000.jpg
1794.22	1.715	1	generate	Run3	generate/STIM_000.jpg
1798.366	2.09	1	generate	Run3	generate/STIM_000.jpg
1803.188	1.932	1	generate	Run3	generate/STIM_000.jpg
1807.89	0.943	1	generate	Run3	generate/STIM_000.jpg
1811.981	2.288	1	generate	Run3	generate/STIM_001.jpg
1816.796	2.087	1	generate	Run3	generate/STIM_001.jpg
1822.545	1.107	1	generate	Run3	generate/STIM_001.jpg
1827.088	2.221	1	generate	Run3	generate/STIM_001.jpg
1832.139	1.462	1	generate	Run3	generate/STIM_001.jpg
1836.838	2.15	1	generate	Run3	generate/STIM_002.jpg
1842.239	1.091	1	generate	Run3	generate/STIM_002.jpg
1847.049	2.256	1	generate	Run3	generate/STIM_002.jpg
1851.506	2.077	1	generate	Run3	generate/STIM_002.jpg
1855.828	1.912	1	generate	Run3	generate/STIM_002.jpg
1859.776	1.204	1	generate	Run3	generate/STIM_003.jpg
1864.882	1.116	1	generate	Run3	generate/STIM_003.jpg
1868.06	1.492	1	generate	Run3	generate/STIM_003.jpg
1871.754	1.503	1	generate	Run3	generate/STIM_003.jpg
1876.487	2.148	1	generate	Run3	generate/STIM_003.jpg
1880.924	1.902	1	generate	Run3	generate/STIM_004.jpg
1885.105	1.688	1	generate	Run3	generate/STIM_004.jpg
1889.532	0.976	1	generate	Run3	generate/STIM_004.jpg
1893.451	1.341	1	generate	Run3	generate/STIM_004.jpg
1898.758	1.201	1	generate	Run3	generate/STIM_004.jpg
1902.125	2.206	1	generate	Run3	generate/STIM_005.jpg
1906.663	1.002	1	generate	Run3	generate/STIM_005.jpg
1910.904	1.55	1	generate	Run3	generate/STIM_005.jpg
1916.202	1.314	1	generate	Run3	generate/STIM_005.jpg
1919.863	0.996	1	generate	Run3	generate/STIM_005.jpg
1924.353	1.864	1	generate	Run3	generate/STIM_006.jpg
1928.989	1.197	1	generate	Run3	generate/STIM_006.jpg
1932.431	2.21	1	generate	Run3	generate/STIM_006.jpg
1937.308	1.348	1	generate	Run3	generate/STIM_006.jpg
1940.963	1.545	1	generate	Run3	generate/STIM_006.jpg
1945.207	1.083	1	generate	Run3	generate/STIM_007.jpg
1948.299	1.834	1	generate	Run3	generate/STIM_007.jpg
1953.98	1.057	1	generate	Run3	generate/STIM_007.jpg
1957.275	1.094	1	generate	Run3	generate/STIM_007.jpg
1960.38	1.124	1	generate	Run3	generate/STIM_007.jpg
1963.918	2.034	1	generate	Run3	generate/STIM_008.jpg
1969.164	1.622	1	generate	Run3	generate/STIM_008.jpg
1973.346	2.115	1	generate	Run3	generate/STIM_008.jpg
1979.337	1.308	1	generate	Run3	generate/STIM_008.jpg
1983.465	1.746	1	generate	Run3	generate/STIM_008.jpg
1988.365	2.297	1	generate	Run3	generate/STIM_009.jpg
1993.42	0.951	0	generate	Run3	generate/STIM_009.jpg
1998.057	1.492	0	generate	Run3	generate/STIM_009.jpg
2003.477	1.727	1	generate	Run3	generate/STIM_009.jpg
2008.023	1.975	1	generate	Run3	generate/STIM_009.jpg
2012.495	1.906	1	generate	Run3	generate/STIM_010.jpg
2016.52	1.21	1	generate	Run3	generate/STIM_010.jpg
2020.454	1.486	1	generate	Run3	generate/STIM_010.jpg
2025.417	2.036	1	generate	Run3	generate/STIM_010.jpg
2031.001	1.33	0	generate	Run3	generate/STIM_010.jpg
2035.23	2.027	1	generate	Run3	generate/STIM_011.jpg
2041.128	1.768	1	generate	Run3	generate/STIM_011.jpg
2045.011	1.841	1	generate	Run3	generate/STIM_011.jpg
2049.933	1.046	1	generate	Run3	generate/STIM_011.jpg
2054.455	2.253	1	generate	Run3	generate/STIM_011.jpg
2060.032	1.774	1	generate	Run3	generate/STIM_012.jpg
2065.253	1.818	1	generate	Run3	generate/STIM_012.jpg
2069.687	1.808	1	generate	Run3	generate/STIM_012.jpg
2074.76	1.306	1	generate	Run3	generate/STIM_012.jpg
2078.453	1.089	1	generate	Run3	generate/STIM_012.jpg
2082.863	2.262	1	generate	Run3	generate/STIM_013.jpg
2088.21	1.658	1	generate	Run3	generate/STIM_013.jpg
2092.587	1.866	1	generate	Run3	generate/STIM_013.jpg
2097.523	1.107	1	generate	Run3	generate/STIM_013.jpg
2101.695	1.35	1	generate	Run3	generate/STIM_013.jpg
2106.229	1.642	1	generate	Run3	generate/STIM_014.jpg
2110.101	1.013	1	generate	Run3	generate/STIM_014.jpg
2114.392	2.044	1	generate	Run3	generate/STIM_014.jpg
2119.929	1.953	1	generate	Run3	generate/STIM_014.jpg
2124.76	1.371	1	generate	Run3	generate/STIM_014.jpg
2128.151	1.014	0	generate	Run3	generate/STIM_015.jpg
2132.775	2.07	1	generate	Run3	generate/STIM_015.jpg
2138.649	1.749	1	generate	Run3	generate/STIM_015.jpg
2143.094	2.233	1	generate	Run3	generate/STIM_015.jpg
2149.132	1.408	1	generate	Run3	generate/STIM_015.jpg
2154.518	1.186	1	generate	Run3	generate/STIM_016.jpg
2159.517	2.198	1	generate	Run3	generate/STIM_016.jpg
2165.329	2.141	1	generate	Run3	generate/STIM_016.jpg
2170.632	1.843	1	generate	Run3	generate/STIM_016.jpg
2175.402	1.877	1	generate	Run3	generate/STIM_016.jpg
2181.016	0.984	1	generate	Run3	generate/STIM_017.jpg
2184.605	1.074	1	generate	Run3	generate/STIM_017.jpg
2189.433	2.207	1	generate	Run3	generate/STIM_017.jpg
2195.39	2.077	1	generate	Run3	generate/STIM_017.jpg
2200.998	1.01	1	generate	Run3	generate/STIM_017.jpg
2204.991	1.365	1	generate	Run3	generate/STIM_018.jpg
2210.162	1.679	1	generate	Run3	generate/STIM_018.jpg
2214.038	1.576	1	generate	Run3	generate/STIM_018.jpg
2218.183	2.209	1	generate	Run3	generate/STIM_018.jpg
2222.859	1.098	1	generate	Run3	generate/STIM_018.jpg
2226.37	1.844	1	generate	Run3	generate/STIM_019.jpg
2231.186	2.28	1	generate	Run3	generate/STIM_019.jpg
2235.627	1.39	1	generate	Run3	generate/STIM_019.jpg
2240.504	1.317	1	generate	Run3	generate/STIM_019.jpg
2244.699	1.722	0	generate	Run3	generate/STIM_019.jpg
2250.165	0.958	1	generate	Run3	generate/STIM_020.jpg
2254.977	2.005	1	generate	Run3	generate/STIM_020.jpg
2260.343	1.826	1	generate	Run3	generate/STIM_020.jpg
2264.586	1.612	1	generate	Run3	generate/STIM_020.jpg
2269.85	1.19	1	generate	Run3	generate/STIM_020.jpg
2273.187	2.244	1	generate	Run3	generate/STIM_021.jpg
2278.841	1.911	1	generate	Run3	generate/STIM_021.jpg
2283.306	1.024	1	generate	Run3	generate/STIM_021.jpg
2286.878	1.894	1	generate	Run3	generate/STIM_021.jpg
2291.628	1.711	1	generate	Run3	generate/STIM_021.jpg
2297.323	1.552	1	generate	Run3	generate/STIM_022.jpg
2302.479	2.008	1	generate	Run3	generate/STIM_022.jpg
2307.486	1.96	1	generate	Run3	generate/STIM_022.jpg
2313.239	2.106	1	generate	Run3	generate/STIM_022.jpg
2317.967	2.006	1	generate	Run3	generate/STIM_022.jpg
2323.261	1.511	1	generate	Run3	generate/STIM_023.jpg
2327.508	1.997	1	generate	Run3	generate/STIM_023.jpg
2332.255	1.148	1	generate	Run3	generate/STIM_023.jpg
2336.72	1.774	1	generate	Run3	generate/STIM_023.jpg
2342.491	1.394	1	generate	Run3	generate/STIM_023.jpg
2347.209	1.605	1	generate	Run3	generate/STIM_024.jpg
2352.637	1.12	1	generate	Run3	generate/STIM_024.jpg
2356.871	1.802	1	generate	Run3	generate/STIM_024.jpg
2361.679	1.84	1	generate	Run3	generate/STIM_024.jpg
2366.723	2.241	0	generate	Run3	generate/STIM_024.jpg
2371.989	1.035	1	repeat	Run3	repeat/STIM_000.jpg
2375.283	0.566	1	repeat	Run3	repeat/STIM_000.jpg
2379.171	0.769	1	repeat	Run3	repeat/STIM_000.jpg
2383.643	0.988	1	repeat	Run3	repeat/STIM_000.jpg
2387.16	1.076	1	repeat	Run3	repeat/STIM_000.jpg
2390.668	1.083	1	repeat	Run3	repeat/STIM_001.jpg
2393.937	0.842	1	repeat	Run3	repeat/STIM_001.jpg
2398.285	0.588	1	repeat	Run3	repeat/STIM_001.jpg
2401.29	0.69	1	repeat	Run3	repeat/STIM_001.jpg
2405.335	0.884	1	repeat	Run3	repeat/STIM_001.jpg
2408.451	1.07	1	repeat	Run3	repeat/STIM_002.jpg
2412.657	1.033	1	repeat	Run3	repeat/STIM_002.jpg
2416.498	0.771	0	repeat	Run3	repeat/STIM_002.jpg
2419.677	0.58	1	repeat	Run3	repeat/STIM_002.jpg
2423.203	0.783	1	repeat	Run3	repeat/STIM_002.jpg
2426.247	0.971	1	repeat	Run3	repeat/STIM_003.jpg
2430.66	1.092	1	repeat	Run3	repeat/STIM_003.jpg
2433.806	0.549	1	repeat	Run3	repeat/STIM_003.jpg
2437.727	0.586	1	repeat	Run3	repeat/STIM_003.jpg
2441.648	0.7	1	repeat	Run3	repeat/STIM_003.jpg
2445.47	0.641	1	repeat	Run3	repeat/STIM_004.jpg
2449.13	1.067	1	repeat	Run3	repeat/STIM_004.jpg
2453.963	0.93	1	repeat	Run3	repeat/STIM_004.jpg
2458.742	0.974	1	repeat	Run3	repeat/STIM_004.jpg
2462.332	0.783	0	repeat	Run3	repeat/STIM_004.jpg
2465.758	0.685	1	repeat	Run3	repeat/STIM_005.jpg
2469.887	0.564	1	repeat	Run3	repeat/STIM_005.jpg
2472.597	0.752	1	repeat	Run3	repeat/STIM_005.jpg
2475.652	0.598	1	repeat	Run3	repeat/STIM_005.jpg
2478.676	0.989	1	repeat	Run3	repeat/STIM_005.jpg
2481.872	0.557	1	repeat	Run3	repeat/STIM_006.jpg
2484.817	0.955	1	repeat	Run3	repeat/STIM_006.jpg
2488.022	0.571	1	repeat	Run3	repeat/STIM_006.jpg
2491.589	0.676	1	repeat	Run3	repeat/STIM_006.jpg
2495.248	0.795	1	repeat	Run3	repeat/STIM_006.jpg
2499.556	0.964	1	repeat	Run3	repeat/STIM_007.jpg
2503.563	1.074	1	repeat	Run3	repeat/STIM_007.jpg
2508.637	0.698	1	repeat	Run3	repeat/STIM_007.jpg
2512.323	0.62	1	repeat	Run3	repeat/STIM_007.jpg
2515.207	0.99	1	repeat	Run3	repeat/STIM_007.jpg
2519.733	1.071	1	repeat	Run3	repeat/STIM_008.jpg
2524.234	1.04	1	repeat	Run3	repeat/STIM_008.jpg
2528.099	0.571	1	repeat	Run3	repeat/STIM_008.jpg
2531.396	0.586	1	repeat	Run3	repeat/STIM_008.jpg
2534.623	0.772	1	repeat	Run3	repeat/STIM_008.jpg
2539.013	0.645	1	repeat	Run3	repeat/STIM_009.jpg
2543.088	0.7	1	repeat	Run3	repeat/STIM_009.jpg
2547.773	0.842	1	repeat	Run3	repeat/STIM_009.jpg
2551.012	1.004	1	repeat	Run3	repeat/STIM_009.jpg
2554.976	0.642	1	repeat	Run3	repeat/STIM_009.jpg
2558.672	0.748	1	repeat	Run3	repeat/STIM_010.jpg
2562.496	0.621	1	repeat	Run3	repeat/STIM_010.jpg
2567.027	0.726	1	repeat	Run3	repeat/STIM_010.jpg
2570.895	0.775	1	repeat	Run3	repeat/STIM_010.jpg
2573.829	1.084	1	repeat	Run3	repeat/STIM_010.jpg
2578.228	0.618	1	repeat	Run3	repeat/STIM_011.jpg
2582.345	0.979	1	repeat	Run3	repeat/STIM_011.jpg
2586.074	0.911	1	repeat	Run3	repeat/STIM_011.jpg
2590.055	0.666	1	repeat	Run3	repeat/STIM_011.jpg
2594.353	1.053	1	repeat	Run3	repeat/STIM_011.jpg
2599.374	0.999	1	repeat	Run3	repeat/STIM_012.jpg
2603.399	0.586	1	repeat	Run3	repeat/STIM_012.jpg
2606.389	0.622	1	repeat	Run3	repeat/STIM_012.jpg
2610.788	0.819	1	repeat	Run3	repeat/STIM_012.jpg
2614.312	0.75	1	repeat	Run3	repeat/STIM_012.jpg
2618.356	0.919	1	repeat	Run3	repeat/STIM_013.jpg
2622.083	0.956	1	repeat	Run3	repeat/STIM_013.jpg
2626.214	0.921	1	repeat	Run3	repeat/STIM_013.jpg
2629.409	0.955	1	repeat	Run3	repeat/STIM_013.jpg
2633.151	0.548	1	repeat	Run3	repeat/STIM_013.jpg
2637.137	0.765	1	repeat	Run3	repeat/STIM_014.jpg
2639.987	0.59	0	repeat	Run3	repeat/STIM_014.jpg
2643.461	0.656	1	repeat	Run3	repeat/STIM_014.jpg
2646.18	1.044	1	repeat	Run3	repeat/STIM_014.jpg
2650.344	0.681	1	repeat	Run3	repeat/STIM_014.jpg
2654.029	1.397	1	generate	Run4	generate/STIM_000.jpg
2657.992	1.72	1	generate	Run4	generate/STIM_000.jpg
2662.851	1.509	1	generate	Run4	generate/STIM_000.jpg
2667.521	0.984	1	generate	Run4	generate/STIM_000.jpg
2671.137	1.828	1	generate	Run4	generate/STIM_000.jpg
2676.725	1.331	1	generate	Run4	generate/STIM_001.jpg
2681.363	1.668	1	generate	Run4	generate/STIM_001.jpg
2686.447	1.996	1	generate	Run4	generate/STIM_001.jpg
2690.931	1.904	1	generate	Run4	generate/STIM_001.jpg
2695.818	2.107	1	generate	Run4	generate/STIM_001.jpg
2701.811	1.63	1	generate	Run4	generate/STIM_002.jpg
2707.074	2.07	1	generate	Run4	generate/STIM_002.jpg
2711.394	2.047	0	generate	Run4	generate/STIM_002.jpg
2715.675	1.371	0	generate	Run4	generate/STIM_002.jpg
2719.935	1.432	1	generate	Run4	generate/STIM_002.jpg
2724.894	2.212	1	generate	Run4	generate/STIM_003.jpg
2729.962	1.855	0	generate	Run4	generate/STIM_003.jpg
2734.612	1.769	1	generate	Run4	generate/STIM_003.jpg
2739.042	1.732	1	generate	Run4	generate/STIM_003.jpg
2743.478	0.941	1	generate	Run4	generate/STIM_003.jpg
2747.013	1.998	0	generate	Run4	generate/STIM_004.jpg
2751.757	1.314	1	generate	Run4	generate/STIM_004.jpg
2755.601	1.016	1	generate	Run4	generate/STIM_004.jpg
2759.552	0.992	0	generate	Run4	generate/STIM_004.jpg
2763.795	1.103	1	generate	Run4	generate/STIM_004.jpg
2768.68	2.242	1	generate	Run4	generate/STIM_005.jpg
2774.531	1.467	1	generate	Run4	generate/STIM_005.jpg
2778.194	1.301	1	generate	Run4	generate/STIM_005.jpg
2781.616	1.15	1	generate	Run4	generate/STIM_005.jpg
2786.585	1.363	1	generate	Run4	generate/STIM_005.jpg
2791.779	2.264	1	generate	Run4	generate/STIM_006.jpg
2797.563	1.497	0	generate	Run4	generate/STIM_006.jpg
2802.05	1.548	1	generate	Run4	generate/STIM_006.jpg
2807.223	2.293	1	generate	Run4	generate/STIM_006.jpg
2813.178	1.123	1	generate	Run4	generate/STIM_006.jpg
2817.903	2.192	0	generate	Run4	generate/STIM_007.jpg
2823.654	2.01	1	generate	Run4	generate/STIM_007.jpg
2827.799	2.216	1	generate	Run4	generate/STIM_007.jpg
2832.779	1.04	1	generate	Run4	generate/STIM_007.jpg
2836.473	1.174	1	generate	Run4	generate/STIM_007.jpg
2840.181	0.964	1	generate	Run4	generate/STIM_008.jpg
2844.021	1.493	1	generate	Run4	generate/STIM_008.jpg
2848.099	1.502	1	generate	Run4	generate/STIM_008.jpg
2852.643	1.738	1	generate	Run4	generate/STIM_008.jpg
2856.819	1.469	1	generate	Run4	generate/STIM_008.jpg
2861.911	1.299	0	generate	Run4	generate/STIM_009.jpg
2865.865	2.054	1	generate	Run4	generate/STIM_009.jpg
2870.687	0.986	1	generate	Run4	generate/STIM_009.jpg
2874.064	1.023	1	generate	Run4	generate/STIM_009.jpg
2877.385	1.886	1	generate	Run4	generate/STIM_009.jpg
2882.457	1.167	1	generate	Run4	generate/STIM_010.jpg
2886.658	2.282	1	generate	Run4	generate/STIM_010.jpg
2892.493	1.097	1	generate	Run4	generate/STIM_010.jpg
2896.294	1.579	1	generate	Run4	generate/STIM_010.jpg
2900.531	2.28	1	generate	Run4	generate/STIM_010.jpg
2905.135	2.018	1	generate	Run4	generate/STIM_011.jpg
2909.38	1.146	1	generate	Run4	generate/STIM_011.jpg
2914.076	1.715	1	generate	Run4	generate/STIM_011.jpg
2918.629	1.226	1	generate	Run4	generate/STIM_011.jpg
2922.425	2.236	1	generate	Run4	generate/STIM_011.jpg
2926.8	1.773	1	generate	Run4	generate/STIM_012.jpg
2931.736	1.191	1	generate	Run4	generate/STIM_012.jpg
2935.517	1.204	1	generate	Run4	generate/STIM_012.jpg
2940.0	1.146	1	generate	Run4	generate/STIM_012.jpg
2943.289	1.962	1	generate	Run4	generate/STIM_012.jpg
2948.11	2.292	1	generate	Run4	generate/STIM_013.jpg
2953.111	1.299	1	generate	Run4	generate/STIM_013.jpg
2957.152	1.199	1	generate	Run4	generate/STIM_013.jpg
2961.811	1.44	1	generate	Run4	generate/STIM_013.jpg
2967.072	1.196	1	generate	Run4	generate/STIM_013.jpg
2971.164	2.167	1	generate	Run4	generate/STIM_014.jpg
2976.058	1.31	1	generate	Run4	generate/STIM_014.jpg
2980.594	2.055	1	generate	Run4	generate/STIM_014.jpg
2985.002	1.339	1	generate	Run4	generate/STIM_014.jpg
2989.832	1.756	1	generate	Run4	generate/STIM_014.jpg
2993.773	2.136	1	generate	Run4	generate/STIM_015.jpg
2999.624	1.633	1	generate	Run4	generate/STIM_015.jpg
3004.282	1.642	1	generate	Run4	generate/STIM_015.jpg
3008.055	1.57	1	generate	Run4	generate/STIM_015.jpg
3013.244	1.928	1	generate	Run4	generate/STIM_015.jpg
3017.942	2.281	1	generate	Run4	generate/STIM_016.jpg
3022.833	1.476	1	generate	Run4	generate/STIM_016.jpg
3027.059	1.671	1	generate	Run4	generate/STIM_016.jpg
3031.721	1.519	1	generate	Run4	generate/STIM_016.jpg
3036.861	1.161	1	generate	Run4	generate/STIM_016.jpg
3041.159	1.226	1	generate	Run4	generate/STIM_017.jpg
3046.023	1.998	1	generate	Run4	generate/STIM_017.jpg
3051.292	2.185	1	generate	Run4	generate/STIM_017.jpg
3056.931	1.248	1	generate	Run4	generate/STIM_017.jpg
3061.114	1.2	1	generate	Run4	generate/STIM_017.jpg
3065.399	0.991	1	generate	Run4	generate/STIM_018.jpg
3069.044	1.031	1	generate	Run4	generate/STIM_018.jpg
3072.506	1.533	1	generate	Run4	generate/STIM_018.jpg
3077.507	1.283	1	generate	Run4	generate/STIM_018.jpg
3081.044	1.531	1	generate	Run4	generate/STIM_018.jpg
3084.666	0.977	1	generate	Run4	generate/STIM_019.jpg
3089.012	2.17	1	generate	Run4	generate/STIM_019.jpg
3093.577	1.032	1	generate	Run4	generate/STIM_019.jpg
3097.738	1.105	1	generate	Run4	generate/STIM_019.jpg
3100.933	1.795	1	generate	Run4	generate/STIM_019.jpg
3104.869	1.21	0	generate	Run4	generate/STIM_020.jpg
3109.195	2.25	1	generate	Run4	generate/STIM_020.jpg
3114.746	1.241	1	generate	Run4	generate/STIM_020.jpg
3119.961	1.744	1	generate	Run4	generate/STIM_020.jpg
3123.997	1.203	1	generate	Run4	generate/STIM_020.jpg
3127.554	1.225	1	generate	Run4	generate/STIM_021.jpg
3131.737	1.018	1	generate	Run4	generate/STIM_021.jpg
3135.072	1.879	1	generate	Run4	generate/STIM_021.jpg
3139.283	1.774	1	generate	Run4	generate/STIM_021.jpg
3144.936	2.218	1	generate	Run4	generate/STIM_021.jpg
3150.686	1.982	1	generate	Run4	generate/STIM_022.jpg
3156.176	1.376	1	generate	Run4	generate/STIM_022.jpg
3159.919	1.222	1	generate	Run4	generate/STIM_022.jpg
3163.385	1.988	1	generate	Run4	generate/STIM_022.jpg
3168.369	1.568	1	generate	Run4	generate/STIM_022.jpg
3173.662	1.34	1	generate	Run4	generate/STIM_023.jpg
3177.718	2.059	1	generate	Run4	generate/STIM_023.jpg
3183.551	1.157	1	generate	Run4	generate/STIM_023.jpg
3187.661	1.895	1	generate	Run4	generate/STIM_023.jpg
3192.716	2.05	0	generate	Run4	generate/STIM_023.jpg
3198.635	1.028	1	generate	Run4	generate/STIM_024.jpg
3201.876	2.064	1	generate	Run4	generate/STIM_024.jpg
3206.942	0.956	1	generate	Run4	generate/STIM_024.jpg
3210.848	1.016	1	generate	Run4	generate/STIM_024.jpg
3214.047	1.893	1	generate	Run4	generate/STIM_024.jpg
3218.204	0.966	1	repeat	Run4	repeat/STIM_000.jpg
3221.746	0.654	1	repeat	Run4	repeat/STIM_000.jpg
3225.966	0.713	1	repeat	Run4	repeat/STIM_000.jpg
3228.707	0.709	1	repeat	Run4	repeat/STIM_000.jpg
3233.139	0.824	1	repeat	Run4	repeat/STIM_000.jpg
3237.657	0.995	1	repeat	Run4	repeat/STIM_001.jpg
3242.297	0.56	1	repeat	Run4	repeat/STIM_001.jpg
3246.52	0.643	1	repeat	Run4	repeat/STIM_001.jpg
3250.742	0.915	1	repeat	Run4	repeat/STIM_001.jpg
3253.812	0.571	1	repeat	Run4	repeat/STIM_001.jpg
3256.79	0.831	1	repeat	Run4	repeat/STIM_002.jpg
3260.999	0.566	0	repeat	Run4	repeat/STIM_002.jpg
3263.85	0.859	1	repeat	Run4	repeat/STIM_002.jpg
3267.926	0.813	1	repeat	Run4	repeat/STIM_002.jpg
3271.093	0.702	1	repeat	Run4	repeat/STIM_002.jpg
3275.587	0.861	0	repeat	Run4	repeat/STIM_003.jpg
3279.9	1.054	1	repeat	Run4	repeat/STIM_003.jpg
3284.235	0.853	1	repeat	Run4	repeat/STIM_003.jpg
3288.013	0.678	1	repeat	Run4	repeat/STIM_003.jpg
3290.765	0.652	1	repeat	Run4	repeat/STIM_003.jpg
3294.041	1.069	1	repeat	Run4	repeat/STIM_004.jpg
3298.704	0.654	1	repeat	Run4	repeat/STIM_004.jpg
3303.162	0.903	1	repeat	Run4	repeat/STIM_004.jpg
3307.157	0.579	1	repeat	Run4	repeat/STIM_004.jpg
3309.84	0.981	1	repeat	Run4	repeat/STIM_004.jpg
3313.924	0.968	1	repeat	Run4	repeat/STIM_005.jpg
3318.597	0.585	1	repeat	Run4	repeat/STIM_005.jpg
3323.123	0.672	1	repeat	Run4	repeat/STIM_005.jpg
3326.292	0.738	1	repeat	Run4	repeat/STIM_005.jpg
3330.368	0.912	1	repeat	Run4	repeat/STIM_005.jpg
3335.056	0.981	1	repeat	Run4	repeat/STIM_006.jpg
3340.033	1.012	1	repeat	Run4	repeat/STIM_006.jpg
3343.179	0.767	1	repeat	Run4	repeat/STIM_006.jpg
3346.126	0.887	1	repeat	Run4	repeat/STIM_006.jpg
3350.761	0.819	1	repeat	Run4	repeat/STIM_006.jpg
3354.437	0.722	1	repeat	Run4	repeat/STIM_007.jpg
3358.619	0.653	1	repeat	Run4	repeat/STIM_007.jpg
3362.155	0.573	1	repeat	Run4	repeat/STIM_007.jpg
3364.967	0.665	1	repeat	Run4	repeat/STIM_007.jpg
3368.634	0.567	1	repeat	Run4	repeat/STIM_007.jpg
3372.227	0.957	1	repeat	Run4	repeat/STIM_008.jpg
3376.089	0.897	0	repeat	Run4	repeat/STIM_008.jpg
3380.627	0.827	0	repeat	Run4	repeat/STIM_008.jpg
3384.432	0.79	1	repeat	Run4	repeat/STIM_008.jpg
3388.596	1.042	1	repeat	Run4	repeat/STIM_008.jpg
3391.903	0.569	1	repeat	Run4	repeat/STIM_009.jpg
3396.146	0.999	1	repeat	Run4	repeat/STIM_009.jpg
3400.673	0.654	1	repeat	Run4	repeat/STIM_009.jpg
3405.045	1.009	1	repeat	Run4	repeat/STIM_009.jpg
3409.655	0.671	1	repeat	Run4	repeat/STIM_009.jpg
3413.859	0.807	1	repeat	Run4	repeat/STIM_010.jpg
3418.657	0.832	1	repeat	Run4	repeat/STIM_010.jpg
3421.661	0.98	1	repeat	Run4	repeat/STIM_010.jpg
3426.237	0.77	1	repeat	Run4	repeat/STIM_010.jpg
3429.56	0.793	1	repeat	Run4	repeat/STIM_010.jpg
3432.431	0.771	1	repeat	Run4	repeat/STIM_011.jpg
3436.501	0.974	1	repeat	Run4	repeat/STIM_011.jpg
3440.179	0.556	1	repeat	Run4	repeat/STIM_011.jpg
3443.504	0.612	1	repeat	Run4	repeat/STIM_011.jpg
3447.222	0.983	1	repeat	Run4	repeat/STIM_011.jpg
3451.144	0.951	1	repeat	Run4	repeat/STIM_012.jpg
3454.186	0.626	1	repeat	Run4	repeat/STIM_012.jpg
3458.412	0.573	1	repeat	Run4	repeat/STIM_012.jpg
3462.37	0.635	1	repeat	Run4	repeat/STIM_012.jpg
3466.145	0.978	1	repeat	Run4	repeat/STIM_012.jpg
3470.551	0.85	1	repeat	Run4	repeat/STIM_013.jpg
3473.622	0.925	1	repeat	Run4	repeat/STIM_013.jpg
3478.261	0.813	1	repeat	Run4	repeat/STIM_013.jpg
3482.073	0.934	1	repeat	Run4	repeat/STIM_013.jpg
3486.484	0.986	1	repeat	Run4	repeat/STIM_013.jpg
3489.609	0.568	0	repeat	Run4	repeat/STIM_014.jpg
3493.146	0.982	1	repeat	Run4	repeat/STIM_014.jpg
3497.351	0.699	1	repeat	Run4	repeat/STIM_014.jpg
3500.933	0.554	1	repeat	Run4	repeat/STIM_014.jpg
3503.93	0.899	1	repeat	Run4	repeat/STIM_014.jpg
