onset	duration	response_time_ms	trial_type	learning_stage	stimulus	response_port
0.0	2.041	2040.7	generate	Run1	generate/STIM_000.jpg	100
5.533	1.07	1070.2	generate	Run1	generate/STIM_000.jpg	100
10.707	1.584	1583.9	generate	Run1	generate/STIM_000.jpg	99
15.383	1.76	1760.4	generate	Run1	generate/STIM_000.jpg	99
20.744	1.963	1963.0	generate	Run1	generate/STIM_000.jpg	99
26.752	2.346	2345.8	generate	Run1	generate/STIM_001.jpg	100
31.774	2.121	2121.4	generate	Run1	generate/STIM_001.jpg	100
38.045	1.245	1244.9	generate	Run1	generate/STIM_001.jpg	99
42.795	1.484	1483.7	generate	Run1	generate/STIM_001.jpg	99
47.53	1.487	1486.9	generate	Run1	generate/STIM_001.jpg	100
52.255	2.074	2074.5	generate	Run1	generate/STIM_002.jpg	99
57.644	1.749	1748.8	generate	Run1	generate/STIM_002.jpg	99
61.838	0.998	998.0	generate	Run1	generate/STIM_002.jpg	99
65.126	1.35	1349.8	generate	Run1	generate/STIM_002.jpg	99
69.244	1.447	1446.6	generate	Run1	generate/STIM_002.jpg	100
73.065	1.136	1135.8	generate	Run1	generate/STIM_003.jpg	99
78.265	1.836	1836.0	generate	Run1	generate/STIM_003.jpg	99
82.686	1.422	1422.2	generate	Run1	generate/STIM_003.jpg	99
86.781	2.062	2061.6	generate	Run1	generate/STIM_003.jpg	100
92.573	1.334	1334.5	generate	Run1	generate/STIM_003.jpg	99
97.423	2.19	2190.2	generate	Run1	generate/STIM_004.jpg	100
103.082	1.063	1063.4	generate	Run1	generate/STIM_004.jpg	99
106.554	1.774	1773.9	generate	Run1	generate/STIM_004.jpg	99
112.467	1.027	1026.9	generate	Run1	generate/STIM_004.jpg	100
116.151	0.881	881.0	generate	Run1	generate/STIM_004.jpg	100
121.055	1.758	1758.2	generate	Run1	generate/STIM_005.jpg	99
126.75	1.985	1985.2	generate	Run1	generate/STIM_005.jpg	99
132.413	1.713	1713.3	generate	Run1	generate/STIM_005.jpg	99
137.859	2.129	2129.1	generate	Run1	generate/STIM_005.jpg	99
144.069	1.507	1506.6	generate	Run1	generate/STIM_005.jpg	100
149.196	2.166	2165.5	generate	Run1	generate/STIM_006.jpg	99
153.678	1.498	1497.8	generate	Run1	generate/STIM_006.jpg	100
157.846	1.693	1692.9	generate	Run1	generate/STIM_006.jpg	99
163.537	2.119	2118.7	generate	Run1	generate/STIM_006.jpg	99
169.01	1.602	1602.5	generate	Run1	generate/STIM_006.jpg	100
174.664	2.273	2273.2	generate	Run1	generate/STIM_007.jpg	100
181.138	1.944	1944.2	generate	Run1	generate/STIM_007.jpg	99
185.568	1.169	1169.2	generate	Run1	generate/STIM_007.jpg	99
189.489	1.683	1683.1	generate	Run1	generate/STIM_007.jpg	99
194.075	1.948	1947.6	generate	Run1	generate/STIM_007.jpg	99
199.772	1.277	1276.7	generate	Run1	generate/STIM_008.jpg	99
204.302	1.285	1285.3	generate	Run1	generate/STIM_008.jpg	99
209.302	1.88	1880.1	generate	Run1	generate/STIM_008.jpg	99
214.44	2.177	2177.3	generate	Run1	generate/STIM_008.jpg	100
219.589	1.749	1749.4	generate	Run1	generate/STIM_008.jpg	99
224.417	1.674	1674.4	generate	Run1	generate/STIM_009.jpg	99
229.012	2.212	2211.9	generate	Run1	generate/STIM_009.jpg	99
234.978	1.896	1895.9	generate	Run1	generate/STIM_009.jpg	100
239.973	2.155	2155.4	generate	Run1	generate/STIM_009.jpg	100
245.546	1.714	1714.4	generate	Run1	generate/STIM_009.jpg	99
251.366	2.358	2358.3	generate	Run1	generate/STIM_010.jpg	99
257.869	1.056	1055.6	generate	Run1	generate/STIM_010.jpg	100
261.846	1.076	1075.5	generate	Run1	generate/STIM_010.jpg	100
265.456	1.062	1061.7	generate	Run1	generate/STIM_010.jpg	100
269.128	1.234	1234.0	generate	Run1	generate/STIM_010.jpg	100
274.339	1.017	1017.1	generate	Run1	generate/STIM_011.jpg	100
277.967	1.661	1660.7	generate	Run1	generate/STIM_011.jpg	100
283.5	2.236	2236.1	generate	Run1	generate/STIM_011.jpg	100
289.019	2.128	2127.8	generate	Run1	generate/STIM_011.jpg	100
294.136	0.976	975.6	generate	Run1	generate/STIM_011.jpg	99
298.493	1.341	1340.6	generate	Run1	generate/STIM_012.jpg	99
302.726	2.35	2350.0	generate	Run1	generate/STIM_012.jpg	99
309.188	1.932	1932.0	generate	Run1	generate/STIM_012.jpg	99
315.108	1.962	1961.7	generate	Run1	generate/STIM_012.jpg	100
320.829	1.334	1334.0	generate	Run1	generate/STIM_012.jpg	100
325.141	1.478	1478.0	generate	Run1	generate/STIM_013.jpg	100
330.156	1.449	1449.3	generate	Run1	generate/STIM_013.jpg	100
335.686	1.43	1429.8	generate	Run1	generate/STIM_013.jpg	99
340.484	1.786	1786.5	generate	Run1	generate/STIM_013.jpg	99
346.251	1.809	1809.0	generate	Run1	generate/STIM_013.jpg	99
350.72	2.355	2354.7	generate	Run1	generate/STIM_014.jpg	99
357.17	2.203	2202.6	generate	Run1	generate/STIM_014.jpg	100
362.681	1.772	1772.5	generate	Run1	generate/STIM_014.jpg	99
368.528	2.275	2274.6	generate	Run1	generate/STIM_014.jpg	99
373.378	1.544	1543.6	generate	Run1	generate/STIM_014.jpg	100
379.01	1.256	1255.7	generate	Run1	generate/STIM_015.jpg	99
383.125	1.224	1224.0	generate	Run1	generate/STIM_015.jpg	99
387.785	2.059	2058.6	generate	Run1	generate/STIM_015.jpg	100
392.223	1.099	1098.8	generate	Run1	generate/STIM_015.jpg	99
396.746	1.939	1939.1	generate	Run1	generate/STIM_015.jpg	99
402.14	1.882	1881.7	generate	Run1	generate/STIM_016.jpg	99
407.144	1.311	1311.4	generate	Run1	generate/STIM_016.jpg	100
411.323	1.636	1636.5	generate	Run1	generate/STIM_016.jpg	99
415.36	1.507	1507.4	generate	Run1	generate/STIM_016.jpg	99
420.038	1.49	1490.5	generate	Run1	generate/STIM_016.jpg	99
424.143	1.298	1297.8	generate	Run1	generate/STIM_017.jpg	100
427.867	1.072	1071.5	generate	Run1	generate/STIM_017.jpg	99
433.097	1.802	1801.5	generate	Run1	generate/STIM_017.jpg	100
438.678	1.146	1146.4	generate	Run1	generate/STIM_017.jpg	99
443.305	2.158	2157.8	generate	Run1	generate/STIM_017.jpg	99
448.233	2.517	2517.0	generate	Run1	generate/STIM_018.jpg	99
454.692	1.867	1867.0	generate	Run1	generate/STIM_018.jpg	99
460.242	1.0	1000.0	generate	Run1	generate/STIM_018.jpg	100
465.46	1.492	1492.0	generate	Run1	generate/STIM_018.jpg	100
469.194	1.005	1005.1	generate	Run1	generate/STIM_018.jpg	100
473.906	2.097	2096.9	generate	Run1	generate/STIM_019.jpg	100
480.11	1.403	1403.3	generate	Run1	generate/STIM_019.jpg	100
485.141	0.997	996.7	generate	Run1	generate/STIM_019.jpg	99
488.589	1.977	1977.1	generate	Run1	generate/STIM_019.jpg	99
493.229	1.282	1282.2	generate	Run1	generate/STIM_019.jpg	100
498.453	2.251	2250.8	generate	Run1	generate/STIM_020.jpg	99
505.005	2.398	2398.4	generate	Run1	generate/STIM_020.jpg	100
509.748	1.746	1745.7	generate	Run1	generate/STIM_020.jpg	99
514.935	1.154	1154.4	generate	Run1	generate/STIM_020.jpg	100
519.73	1.46	1460.3	generate	Run1	generate/STIM_020.jpg	99
523.975	1.687	1686.6	generate	Run1	generate/STIM_021.jpg	99
527.908	1.894	1893.8	generate	Run1	generate/STIM_021.jpg	100
533.357	1.808	1808.3	generate	Run1	generate/STIM_021.jpg	99
538.474	1.528	1527.8	generate	Run1	generate/STIM_021.jpg	100
542.462	1.724	1724.5	generate	Run1	generate/STIM_021.jpg	100
547.831	2.485	2485.2	generate	Run1	generate/STIM_022.jpg	99
553.712	1.98	1979.6	generate	Run1	generate/STIM_022.jpg	99
559.067	1.26	1259.7	generate	Run1	generate/STIM_022.jpg	99
564.274	1.425	1424.7	generate	Run1	generate/STIM_022.jpg	100
569.289	1.896	1895.7	generate	Run1	generate/STIM_022.jpg	100
573.766	2.128	2128.5	generate	Run1	generate/STIM_023.jpg	99
579.272	1.305	1304.8	generate	Run1	generate/STIM_023.jpg	99
584.091	1.352	1351.7	generate	Run1	generate/STIM_023.jpg	100
588.047	2.037	2037.1	generate	Run1	generate/STIM_023.jpg	100
594.367	1.927	1927.1	generate	Run1	generate/STIM_023.jpg	99
600.507	1.207	1207.4	generate	Run1	generate/STIM_024.jpg	100
604.908	2.003	2003.0	generate	Run1	generate/STIM_024.jpg	100
609.71	1.87	1870.4	generate	Run1	generate/STIM_024.jpg	100
614.52	1.106	1105.6	generate	Run1	generate/STIM_024.jpg	100
619.488	1.395	1395.3	generate	Run1	generate/STIM_024.jpg	100
623.097	0.737	736.6	repeat	Run1	repeat/STIM_000.jpg	100
627.192	0.473	473.4	repeat	Run1	repeat/STIM_000.jpg	100
631.093	0.741	741.1	repeat	Run1	repeat/STIM_000.jpg	100
635.446	0.85	849.5	repeat	Run1	repeat/STIM_000.jpg	100
640.266	0.686	686.2	repeat	Run1	repeat/STIM_000.jpg	100
644.488	0.644	644.1	repeat	Run1	repeat/STIM_001.jpg	99
648.596	0.636	635.6	repeat	Run1	repeat/STIM_001.jpg	99
651.597	0.692	692.2	repeat	Run1	repeat/STIM_001.jpg	100
656.317	0.757	757.1	repeat	Run1	repeat/STIM_001.jpg	100
660.286	0.628	627.5	repeat	Run1	repeat/STIM_001.jpg	99
664.705	0.418	417.9	repeat	Run1	repeat/STIM_002.jpg	100
667.581	0.479	479.0	repeat	Run1	repeat/STIM_002.jpg	99
671.152	0.528	527.6	repeat	Run1	repeat/STIM_002.jpg	99
675.784	0.425	424.6	repeat	Run1	repeat/STIM_002.jpg	99
679.798	0.895	895.2	repeat	Run1	repeat/STIM_002.jpg	100
683.732	0.512	512.4	repeat	Run1	repeat/STIM_003.jpg	100
687.648	0.75	749.5	repeat	Run1	repeat/STIM_003.jpg	99
692.506	0.624	624.4	repeat	Run1	repeat/STIM_003.jpg	100
696.381	0.469	469.3	repeat	Run1	repeat/STIM_003.jpg	100
700.706	0.633	633.4	repeat	Run1	repeat/STIM_003.jpg	100
704.551	0.602	602.5	repeat	Run1	repeat/STIM_004.jpg	100
708.111	0.485	484.6	repeat	Run1	repeat/STIM_004.jpg	100
712.611	0.786	786.2	repeat	Run1	repeat/STIM_004.jpg	100
716.98	0.558	558.2	repeat	Run1	repeat/STIM_004.jpg	99
719.98	0.496	496.0	repeat	Run1	repeat/STIM_004.jpg	99
722.791	0.62	619.8	repeat	Run1	repeat/STIM_005.jpg	100
726.88	0.67	669.9	repeat	Run1	repeat/STIM_005.jpg	99
731.408	0.592	591.7	repeat	Run1	repeat/STIM_005.jpg	100
734.15	0.797	797.0	repeat	Run1	repeat/STIM_005.jpg	99
737.561	0.753	753.0	repeat	Run1	repeat/STIM_005.jpg	100
740.4	0.779	779.1	repeat	Run1	repeat/STIM_006.jpg	100
744.724	0.862	861.7	repeat	Run1	repeat/STIM_006.jpg	100
749.176	0.525	525.1	repeat	Run1	repeat/STIM_006.jpg	99
753.76	0.548	547.6	repeat	Run1	repeat/STIM_006.jpg	99
758.213	0.69	690.5	repeat	Run1	repeat/STIM_006.jpg	99
762.49	0.656	655.5	repeat	Run1	repeat/STIM_007.jpg	99
766.273	0.666	665.6	repeat	Run1	repeat/STIM_007.jpg	99
768.989	0.931	931.2	repeat	Run1	repeat/STIM_007.jpg	99
772.538	0.595	594.7	repeat	Run1	repeat/STIM_007.jpg	99
776.723	0.6	600.4	repeat	Run1	repeat/STIM_007.jpg	99
781.332	0.777	776.7	repeat	Run1	repeat/STIM_008.jpg	100
784.741	0.429	428.8	repeat	Run1	repeat/STIM_008.jpg	99
788.239	0.698	697.7	repeat	Run1	repeat/STIM_008.jpg	99
791.406	0.76	759.6	repeat	Run1	repeat/STIM_008.jpg	99
794.794	0.481	481.1	repeat	Run1	repeat/STIM_008.jpg	100
798.063	0.575	575.1	repeat	Run1	repeat/STIM_009.jpg	100
801.268	0.479	478.9	repeat	Run1	repeat/STIM_009.jpg	100
804.48	0.579	579.0	repeat	Run1	repeat/STIM_009.jpg	99
808.089	0.732	732.5	repeat	Run1	repeat/STIM_009.jpg	99
811.341	0.579	579.3	repeat	Run1	repeat/STIM_009.jpg	99
815.633	0.747	747.2	repeat	Run1	repeat/STIM_010.jpg	99
819.391	0.996	995.5	repeat	Run1	repeat/STIM_010.jpg	99
822.711	0.756	755.8	repeat	Run1	repeat/STIM_010.jpg	100
826.957	0.648	648.1	repeat	Run1	repeat/STIM_010.jpg	99
831.054	0.771	770.7	repeat	Run1	repeat/STIM_010.jpg	100
834.996	0.556	556.5	repeat	Run1	repeat/STIM_011.jpg	99
839.626	0.783	782.6	repeat	Run1	repeat/STIM_011.jpg	100
843.78	0.772	771.9	repeat	Run1	repeat/STIM_011.jpg	99
847.122	0.505	504.9	repeat	Run1	repeat/STIM_011.jpg	99
850.838	0.532	532.2	repeat	Run1	repeat/STIM_011.jpg	100
853.739	0.479	479.4	repeat	Run1	repeat/STIM_012.jpg	100
856.529	0.837	837.1	repeat	Run1	repeat/STIM_012.jpg	100
860.153	0.449	448.7	repeat	Run1	repeat/STIM_012.jpg	100
863.324	0.447	447.3	repeat	Run1	repeat/STIM_012.jpg	100
866.527	0.877	877.1	repeat	Run1	repeat/STIM_012.jpg	99
870.169	0.714	714.3	repeat	Run1	repeat/STIM_013.jpg	100
873.426	0.468	467.9	repeat	Run1	repeat/STIM_013.jpg	99
877.057	0.697	697.2	repeat	Run1	repeat/STIM_013.jpg	100
880.843	0.486	486.4	repeat	Run1	repeat/STIM_013.jpg	100
884.905	0.751	751.0	repeat	Run1	repeat/STIM_013.jpg	99
888.612	0.573	572.9	repeat	Run1	repeat/STIM_014.jpg	99
891.321	0.612	612.4	repeat	Run1	repeat/STIM_014.jpg	99
894.653	0.528	527.7	repeat	Run1	repeat/STIM_014.jpg	100
898.145	0.636	635.5	repeat	Run1	repeat/STIM_014.jpg	99
902.5	0.817	816.8	repeat	Run1	repeat/STIM_014.jpg	99
905.888	2.17	2170.3	generate	Run2	generate/STIM_000.jpg	100
911.456	1.694	1694.2	generate	Run2	generate/STIM_000.jpg	100
916.68	1.22	1220.1	generate	Run2	generate/STIM_000.jpg	100
921.971	1.701	1700.7	generate	Run2	generate/STIM_000.jpg	99
927.46	1.456	1455.7	generate	Run2	generate/STIM_000.jpg	99
932.473	1.832	1832.4	generate	Run2	generate/STIM_001.jpg	100
938.571	1.123	1122.6	generate	Run2	generate/STIM_001.jpg	100
942.201	1.356	1356.0	generate	Run2	generate/STIM_001.jpg	100
946.041	1.51	1510.2	generate	Run2	generate/STIM_001.jpg	100
950.9	0.794	794.4	generate	Run2	generate/STIM_001.jpg	100
955.023	1.694	1693.8	generate	Run2	generate/STIM_002.jpg	100
960.434	1.267	1267.3	generate	Run2	generate/STIM_002.jpg	100
964.666	1.745	1745.2	generate	Run2	generate/STIM_002.jpg	99
968.973	1.268	1268.5	generate	Run2	generate/STIM_002.jpg	100
972.609	1.669	1669.4	generate	Run2	generate/STIM_002.jpg	100
977.056	0.864	863.9	generate	Run2	generate/STIM_003.jpg	100
981.809	1.238	1238.1	generate	Run2	generate/STIM_003.jpg	99
985.73	1.036	1035.9	generate	Run2	generate/STIM_003.jpg	99
989.521	0.818	817.8	generate	Run2	generate/STIM_003.jpg	100
993.847	1.312	1312.5	generate	Run2	generate/STIM_003.jpg	99
997.524	1.039	1038.6	generate	Run2	generate/STIM_004.jpg	99
1002.307	1.477	1477.1	generate	Run2	generate/STIM_004.jpg	100
1007.299	1.429	1429.0	generate	Run2	generate/STIM_004.jpg	100
1012.229	1.526	1526.5	generate	Run2	generate/STIM_004.jpg	100
1017.848	1.162	1162.3	generate	Run2	generate/STIM_004.jpg	100
1021.287	1.07	1070.0	generate	Run2	generate/STIM_005.jpg	100
1025.564	0.986	985.5	generate	Run2	generate/STIM_005.jpg	99
1030.626	0.857	857.2	generate	Run2	generate/STIM_005.jpg	99
1035.278	0.764	763.5	generate	Run2	generate/STIM_005.jpg	100
1039.695	0.952	951.7	generate	Run2	generate/STIM_005.jpg	100
1043.868	0.918	918.4	generate	Run2	generate/STIM_006.jpg	99
1047.725	1.106	1106.1	generate	Run2	generate/STIM_006.jpg	99
1051.972	1.068	1068.4	generate	Run2	generate/STIM_006.jpg	99
1056.938	1.817	1816.8	generate	Run2	generate/STIM_006.jpg	99
1061.489	1.24	1240.4	generate	Run2	generate/STIM_006.jpg	99
1065.022	2.207	2206.7	generate	Run2	generate/STIM_007.jpg	99
1070.421	1.69	1690.5	generate	Run2	generate/STIM_007.jpg	99
1076.246	1.435	1435.1	generate	Run2	generate/STIM_007.jpg	99
1081.857	1.792	1792.2	generate	Run2	generate/STIM_007.jpg	100
1087.635	1.194	1194.0	generate	Run2	generate/STIM_007.jpg	100
1092.049	0.991	990.9	generate	Run2	generate/STIM_008.jpg	100
1095.57	1.772	1771.6	generate	Run2	generate/STIM_008.jpg	99
1099.635	0.756	756.4	generate	Run2	generate/STIM_008.jpg	99
1103.581	0.998	998.3	generate	Run2	generate/STIM_008.jpg	100
1108.645	1.655	1655.1	generate	Run2	generate/STIM_008.jpg	100
1113.711	2.009	2008.6	generate	Run2	generate/STIM_009.jpg	99
1119.596	1.377	1377.0	generate	Run2	generate/STIM_009.jpg	100
1124.013	1.031	1030.7	generate	Run2	generate/STIM_009.jpg	99
1127.764	0.975	974.7	generate	Run2	generate/STIM_009.jpg	100
1131.547	1.284	1283.5	generate	Run2	generate/STIM_009.jpg	100
1136.927	2.282	2282.1	generate	Run2	generate/STIM_010.jpg	99
1141.528	1.233	1232.7	generate	Run2	generate/STIM_010.jpg	100
1146.585	1.688	1688.0	generate	Run2	generate/STIM_010.jpg	100
1150.554	1.582	1581.7	generate	Run2	generate/STIM_010.jpg	100
1156.053	1.881	1881.2	generate	Run2	generate/STIM_010.jpg	99
1160.659	1.517	1516.6	generate	Run2	generate/STIM_011.jpg	99
1165.624	1.682	1681.6	generate	Run2	generate/STIM_011.jpg	100
1169.584	1.244	1243.6	generate	Run2	generate/STIM_011.jpg	100
1174.167	0.864	864.0	generate	Run2	generate/STIM_011.jpg	100
1178.658	0.819	819.3	generate	Run2	generate/STIM_011.jpg	100
1182.335	2.102	2101.6	generate	Run2	generate/STIM_012.jpg	100
1186.993	1.811	1810.9	generate	Run2	generate/STIM_012.jpg	99
1192.561	1.455	1454.6	generate	Run2	generate/STIM_012.jpg	99
1197.02	0.784	783.7	generate	Run2	generate/STIM_012.jpg	99
1201.795	1.017	1016.8	generate	Run2	generate/STIM_012.jpg	100
1205.657	1.061	1061.1	generate	Run2	generate/STIM_013.jpg	100
1208.844	1.063	1063.2	generate	Run2	generate/STIM_013.jpg	100
1213.053	1.718	1718.2	generate	Run2	generate/STIM_013.jpg	99
1217.946	1.783	1782.6	generate	Run2	generate/STIM_013.jpg	100
1222.23	1.762	1762.5	generate	Run2	generate/STIM_013.jpg	99
1228.129	1.166	1166.1	generate	Run2	generate/STIM_014.jpg	99
1232.144	1.648	1648.4	generate	Run2	generate/STIM_014.jpg	100
1236.328	1.297	1297.3	generate	Run2	generate/STIM_014.jpg	99
1240.052	1.19	1189.5	generate	Run2	generate/STIM_014.jpg	99
1243.966	0.922	922.5	generate	Run2	generate/STIM_014.jpg	100
1247.07	1.124	1124.2	generate	Run2	generate/STIM_015.jpg	100
1252.019	1.592	1592.5	generate	Run2	generate/STIM_015.jpg	99
1257.605	1.305	1304.9	generate	Run2	generate/STIM_015.jpg	99
1261.793	0.947	946.6	generate	Run2	generate/STIM_015.jpg	99
1266.464	1.518	1518.1	generate	Run2	generate/STIM_015.jpg	100
1270.595	1.081	1081.2	generate	Run2	generate/STIM_016.jpg	100
1275.63	2.174	2174.5	generate	Run2	generate/STIM_016.jpg	100
1280.751	1.596	1595.8	generate	Run2	generate/STIM_016.jpg	99
1285.578	1.561	1561.4	generate	Run2	generate/STIM_016.jpg	100
1290.037	1.27	1270.4	generate	Run2	generate/STIM_016.jpg	100
1294.262	2.186	2186.1	generate	Run2	generate/STIM_017.jpg	99
1299.181	0.98	979.9	generate	Run2	generate/STIM_017.jpg	100
1304.066	1.411	1411.0	generate	Run2	generate/STIM_017.jpg	99
1308.084	0.852	852.3	generate	Run2	generate/STIM_017.jpg	99
1312.382	1.067	1066.9	generate	Run2	generate/STIM_017.jpg	100
1316.365	2.123	2123.1	generate	Run2	generate/STIM_018.jpg	100
1320.963	1.139	1138.6	generate	Run2	generate/STIM_018.jpg	99
1324.975	1.775	1775.4	generate	Run2	generate/STIM_018.jpg	100
1330.424	0.898	898.2	generate	Run2	generate/STIM_018.jpg	99
1334.557	1.004	1003.8	generate	Run2	generate/STIM_018.jpg	100
1339.314	1.779	1778.6	generate	Run2	generate/STIM_019.jpg	100
1344.186	0.79	789.7	generate	Run2	generate/STIM_019.jpg	99
1347.76	1.728	1727.6	generate	Run2	generate/STIM_019.jpg	99
1352.881	0.9	900.0	generate	Run2	generate/STIM_019.jpg	99
1356.396	1.728	1727.9	generate	Run2	generate/STIM_019.jpg	99
1361.917	1.436	1435.9	generate	Run2	generate/STIM_020.jpg	100
1365.84	1.865	1864.6	generate	Run2	generate/STIM_020.jpg	100
1370.776	1.01	1009.5	generate	Run2	generate/STIM_020.jpg	100
1374.836	1.021	1020.9	generate	Run2	generate/STIM_020.jpg	100
1378.927	1.585	1585.2	generate	Run2	generate/STIM_020.jpg	100
1383.47	2.062	2062.1	generate	Run2	generate/STIM_021.jpg	100
1388.836	1.685	1685.0	generate	Run2	generate/STIM_021.jpg	99
1392.799	1.948	1947.8	generate	Run2	generate/STIM_021.jpg	100
1398.118	0.986	986.4	generate	Run2	generate/STIM_021.jpg	99
1402.385	1.342	1342.5	generate	Run2	generate/STIM_021.jpg	100
1406.964	2.158	2158.5	generate	Run2	generate/STIM_022.jpg	100
1413.078	0.974	974.4	generate	Run2	generate/STIM_022.jpg	100
1417.728	1.198	1197.7	generate	Run2	generate/STIM_022.jpg	99
1421.399	1.164	1163.7	generate	Run2	generate/STIM_022.jpg	100
1424.727	1.726	1725.8	generate	Run2	generate/STIM_022.jpg	100
1430.198	1.436	1436.1	generate	Run2	generate/STIM_023.jpg	100
1435.237	2.016	2015.7	generate	Run2	generate/STIM_023.jpg	100
1440.458	1.364	1364.3	generate	Run2	generate/STIM_023.jpg	100
1444.797	1.207	1206.6	generate	Run2	generate/STIM_023.jpg	99
1449.392	1.111	1111.0	generate	Run2	generate/STIM_023.jpg	100
1453.281	1.327	1327.4	generate	Run2	generate/STIM_024.jpg	99
1458.422	1.585	1584.6	generate	Run2	generate/STIM_024.jpg	99
1462.346	1.709	1708.6	generate	Run2	generate/STIM_024.jpg	100
1467.775	1.061	1060.9	generate	Run2	generate/STIM_024.jpg	99
1472.06	1.629	1628.7	generate	Run2	generate/STIM_024.jpg	99
1475.953	0.524	523.7	repeat	Run2	repeat/STIM_000.jpg	100
1478.925	0.774	774.5	repeat	Run2	repeat/STIM_000.jpg	100
1481.922	0.848	847.9	repeat	Run2	repeat/STIM_000.jpg	99
1484.923	0.796	795.5	repeat	Run2	repeat/STIM_000.jpg	99
1489.138	0.71	709.8	repeat	Run2	repeat/STIM_000.jpg	99
1493.788	0.631	630.8	repeat	Run2	repeat/STIM_001.jpg	99
1498.43	0.8	800.1	repeat	Run2	repeat/STIM_001.jpg	100
1502.754	0.414	413.5	repeat	Run2	repeat/STIM_001.jpg	99
1507.192	0.663	662.7	repeat	Run2	repeat/STIM_001.jpg	99
1511.768	0.663	662.7	repeat	Run2	repeat/STIM_001.jpg	100
1515.258	0.532	532.5	repeat	Run2	repeat/STIM_002.jpg	99
1518.953	0.76	760.2	repeat	Run2	repeat/STIM_002.jpg	99
1522.268	0.763	763.1	repeat	Run2	repeat/STIM_002.jpg	100
1526.639	0.701	701.0	repeat	Run2	repeat/STIM_002.jpg	100
1530.051	0.792	791.5	repeat	Run2	repeat/STIM_002.jpg	100
1534.942	0.635	634.8	repeat	Run2	repeat/STIM_003.jpg	100
1537.833	0.748	747.7	repeat	Run2	repeat/STIM_003.jpg	100
1541.584	0.621	621.1	repeat	Run2	repeat/STIM_003.jpg	100
1546.161	0.744	744.3	repeat	Run2	repeat/STIM_003.jpg	99
1549.851	0.496	495.6	repeat	Run2	repeat/STIM_003.jpg	100
1553.354	0.599	599.0	repeat	Run2	repeat/STIM_004.jpg	99
1557.14	0.639	639.1	repeat	Run2	repeat/STIM_004.jpg	100
1560.599	0.651	651.4	repeat	Run2	repeat/STIM_004.jpg	99
1565.275	0.645	644.8	repeat	Run2	repeat/STIM_004.jpg	100
1569.984	0.665	665.1	repeat	Run2	repeat/STIM_004.jpg	100
1573.37	0.797	796.7	repeat	Run2	repeat/STIM_005.jpg	100
1577.334	0.514	514.5	repeat	Run2	repeat/STIM_005.jpg	100
1580.48	0.906	906.5	repeat	Run2	repeat/STIM_005.jpg	100
1584.92	0.622	621.9	repeat	Run2	repeat/STIM_005.jpg	100
1589.432	0.878	878.4	repeat	Run2	repeat/STIM_005.jpg	100
1592.919	0.684	683.8	repeat	Run2	repeat/STIM_006.jpg	100
1597.55	0.596	596.2	repeat	Run2	repeat/STIM_006.jpg	100
1601.658	0.66	660.2	repeat	Run2	repeat/STIM_006.jpg	99
1606.19	0.626	625.8	repeat	Run2	repeat/STIM_006.jpg	100
1610.462	0.492	491.6	repeat	Run2	repeat/STIM_006.jpg	99
1614.303	0.882	882.0	repeat	Run2	repeat/STIM_007.jpg	100
1618.05	0.636	636.5	repeat	Run2	repeat/STIM_007.jpg	99
1622.392	0.854	854.1	repeat	Run2	repeat/STIM_007.jpg	100
1625.515	0.69	690.0	repeat	Run2	repeat/STIM_007.jpg	99
1629.228	0.75	749.5	repeat	Run2	repeat/STIM_007.jpg	99
1633.442	0.713	713.4	repeat	Run2	repeat/STIM_008.jpg	99
1637.071	0.8	799.7	repeat	Run2	repeat/STIM_008.jpg	99
1641.306	0.429	429.0	repeat	Run2	repeat/STIM_008.jpg	100
1644.677	0.513	513.3	repeat	Run2	repeat/STIM_008.jpg	99
1647.668	0.692	692.2	repeat	Run2	repeat/STIM_008.jpg	99
1650.728	0.806	805.6	repeat	Run2	repeat/STIM_009.jpg	100
1654.257	0.85	849.5	repeat	Run2	repeat/STIM_009.jpg	100
1657.393	0.787	786.7	repeat	Run2	repeat/STIM_009.jpg	99
1660.557	0.835	835.0	repeat	Run2	repeat/STIM_009.jpg	99
1665.038	0.712	712.3	repeat	Run2	repeat/STIM_009.jpg	99
1668.961	0.657	656.6	repeat	Run2	repeat/STIM_010.jpg	100
1671.85	0.787	787.4	repeat	Run2	repeat/STIM_010.jpg	100
1675.984	0.777	776.8	repeat	Run2	repeat/STIM_010.jpg	99
1680.239	0.722	722.3	repeat	Run2	repeat/STIM_010.jpg	100
1683.302	0.606	605.6	repeat	Run2	repeat/STIM_010.jpg	100
1686.413	0.606	605.5	repeat	Run2	repeat/STIM_011.jpg	100
1690.166	0.586	585.9	repeat	Run2	repeat/STIM_011.jpg	100
1694.69	0.671	670.7	repeat	Run2	repeat/STIM_011.jpg	99
1698.624	0.539	538.7	repeat	Run2	repeat/STIM_011.jpg	99
1702.544	0.525	524.8	repeat	Run2	repeat/STIM_011.jpg	99
1706.641	0.741	740.6	repeat	Run2	repeat/STIM_012.jpg	99
1710.687	0.46	459.8	repeat	Run2	repeat/STIM_012.jpg	100
1713.276	0.582	582.5	repeat	Run2	repeat/STIM_012.jpg	100
1717.28	0.881	880.6	repeat	Run2	repeat/STIM_012.jpg	100
1721.859	0.679	679.3	repeat	Run2	repeat/STIM_012.jpg	99
1724.977	0.594	594.3	repeat	Run2	repeat/STIM_013.jpg	99
1729.463	0.669	669.3	repeat	Run2	repeat/STIM_013.jpg	99
1732.46	0.526	526.4	repeat	Run2	repeat/STIM_013.jpg	100
1736.149	0.741	741.4	repeat	Run2	repeat/STIM_013.jpg	100
1739.587	0.699	698.7	repeat	Run2	repeat/STIM_013.jpg	99
1743.11	0.813	813.3	repeat	Run2	repeat/STIM_014.jpg	99
1747.592	0.791	790.9	repeat	Run2	repeat/STIM_014.jpg	100
1751.922	0.641	641.1	repeat	Run2	repeat/STIM_014.jpg	100
1756.225	0.54	540.0	repeat	Run2	repeat/STIM_014.jpg	99
1758.861	0.473	473.0	repeat	Run2	repeat/STIM_014.jpg	99
1762.499	0.762	762.1	generate	Run3	generate/STIM_000.jpg	99
1766.528	0.93	930.3	generate	Run3	generate/STIM_000.jpg	100
1770.32	1.423	1422.7	generate	Run3	generate/STIM_000.jpg	100
1775.207	1.785	1785.4	generate	Run3	generate/STIM_000.jpg	99
1779.807	1.461	1461.2	generate	Run3	generate/STIM_000.jpg	100
1783.726	0.959	958.9	generate	Run3	generate/STIM_001.jpg	99
1786.809	0.962	962.5	generate	Run3	generate/STIM_001.jpg	99
1790.233	0.858	858.2	generate	Run3	generate/STIM_001.jpg	100
1794.314	0.779	778.6	generate	Run3	generate/STIM_001.jpg	100
1797.681	0.92	920.0	generate	Run3	generate/STIM_001.jpg	99
1802.831	0.952	951.9	generate	Run3	generate/STIM_002.jpg	100
1806.913	1.277	1276.8	generate	Run3	generate/STIM_002.jpg	99
1810.454	0.775	775.3	generate	Run3	generate/STIM_002.jpg	100
1814.441	1.692	1692.0	generate	Run3	generate/STIM_002.jpg	99
1818.457	1.336	1336.0	generate	Run3	generate/STIM_002.jpg	99
1823.611	1.294	1294.1	generate	Run3	generate/STIM_003.jpg	99
1828.947	1.144	1143.5	generate	Run3	generate/STIM_003.jpg	99
1832.508	0.823	823.4	generate	Run3	generate/STIM_003.jpg	99
1836.459	1.496	1496.0	generate	Run3	generate/STIM_003.jpg	100
1840.251	1.609	1609.4	generate	Run3	generate/STIM_003.jpg	100
1845.052	1.154	1153.7	generate	Run3	generate/STIM_004.jpg	100
1849.557	1.59	1589.5	generate	Run3	generate/STIM_004.jpg	100
1854.846	1.158	1157.6	generate	Run3	generate/STIM_004.jpg	99
1858.88	1.292	1292.1	generate	Run3	generate/STIM_004.jpg	100
1863.457	1.69	1689.5	generate	Run3	generate/STIM_004.jpg	100
1868.521	1.178	1178.2	generate	Run3	generate/STIM_005.jpg	99
1872.351	0.94	940.2	generate	Run3	generate/STIM_005.jpg	100
1876.448	0.8	800.1	generate	Run3	generate/STIM_005.jpg	100
1880.808	1.324	1324.1	generate	Run3	generate/STIM_005.jpg	99
1885.178	1.211	1211.3	generate	Run3	generate/STIM_005.jpg	99
1889.222	1.474	1474.0	generate	Run3	generate/STIM_006.jpg	100
1893.266	1.589	1589.3	generate	Run3	generate/STIM_006.jpg	100
1897.97	1.294	1293.5	generate	Run3	generate/STIM_006.jpg	100
1901.587	1.904	1904.5	generate	Run3	generate/STIM_006.jpg	99
1906.397	1.158	1158.0	generate	Run3	generate/STIM_006.jpg	99
1909.873	0.921	921.2	generate	Run3	generate/STIM_007.jpg	99
1913.743	1.431	1431.4	generate	Run3	generate/STIM_007.jpg	99
1918.448	1.462	1462.2	generate	Run3	generate/STIM_007.jpg	100
1922.25	0.879	879.3	generate	Run3	generate/STIM_007.jpg	99
1926.792	1.788	1788.5	generate	Run3	generate/STIM_007.jpg	100
1932.295	1.458	1458.4	generate	Run3	generate/STIM_008.jpg	99
1937.774	1.732	1732.3	generate	Run3	generate/STIM_008.jpg	100
1942.394	1.184	1184.2	generate	Run3	generate/STIM_008.jpg	99
1946.343	1.029	1028.6	generate	Run3	generate/STIM_008.jpg	100
1949.952	0.86	859.9	generate	Run3	generate/STIM_008.jpg	100
1954.933	1.593	1592.9	generate	Run3	generate/STIM_009.jpg	99
1959.668	1.255	1254.7	generate	Run3	generate/STIM_009.jpg	99
1964.091	0.922	922.2	generate	Run3	generate/STIM_009.jpg	99
1967.415	1.023	1023.3	generate	Run3	generate/STIM_009.jpg	100
1971.463	1.566	1566.3	generate	Run3	generate/STIM_009.jpg	100
1976.008	1.182	1181.9	generate	Run3	generate/STIM_010.jpg	100
1979.594	0.925	924.9	generate	Run3	generate/STIM_010.jpg	100
1984.301	1.663	1662.9	generate	Run3	generate/STIM_010.jpg	100
1988.245	1.739	1739.1	generate	Run3	generate/STIM_010.jpg	100
1992.641	0.894	894.5	generate	Run3	generate/STIM_010.jpg	99
1997.08	1.066	1066.5	generate	Run3	generate/STIM_011.jpg	100
2002.24	1.61	1609.7	generate	Run3	generate/STIM_011.jpg	99
2006.658	1.304	1304.4	generate	Run3	generate/STIM_011.jpg	99
2011.573	1.372	1372.0	generate	Run3	generate/STIM_011.jpg	99
2016.044	0.908	907.5	generate	Run3	generate/STIM_011.jpg	100
2019.691	1.461	1460.6	generate	Run3	generate/STIM_012.jpg	99
2025.368	1.758	1757.9	generate	Run3	generate/STIM_012.jpg	100
2030.903	1.65	1650.0	generate	Run3	generate/STIM_012.jpg	100
2035.412	0.854	853.7	generate	Run3	generate/STIM_012.jpg	99
2039.004	1.647	1646.7	generate	Run3	generate/STIM_012.jpg	100
2043.586	1.186	1185.7	generate	Run3	generate/STIM_013.jpg	100
2047.714	1.013	1012.9	generate	Run3	generate/STIM_013.jpg	99
2052.778	1.016	1016.3	generate	Run3	generate/STIM_013.jpg	100
2056.262	1.465	1465.2	generate	Run3	generate/STIM_013.jpg	100
2060.688	1.103	1102.7	generate	Run3	generate/STIM_013.jpg	100
2065.749	1.396	1396.3	generate	Run3	generate/STIM_014.jpg	99
2070.083	1.128	1127.8	generate	Run3	generate/STIM_014.jpg	100
2075.166	1.001	1000.7	generate	Run3	generate/STIM_014.jpg	99
2079.652	1.793	1793.1	generate	Run3	generate/STIM_014.jpg	100
2084.906	1.689	1689.2	generate	Run3	generate/STIM_014.jpg	100
2089.063	1.113	1112.8	generate	Run3	generate/STIM_015.jpg	100
2093.972	1.169	1169.1	generate	Run3	generate/STIM_015.jpg	100
2098.773	1.449	1448.6	generate	Run3	generate/STIM_015.jpg	100
2102.809	1.078	1078.2	generate	Run3	generate/STIM_015.jpg	99
2106.93	1.366	1365.5	generate	Run3	generate/STIM_015.jpg	99
2112.046	1.022	1022.2	generate	Run3	generate/STIM_016.jpg	99
2117.076	0.867	866.9	generate	Run3	generate/STIM_016.jpg	99
2121.512	0.872	871.9	generate	Run3	generate/STIM_016.jpg	100
2125.518	0.978	977.9	generate	Run3	generate/STIM_016.jpg	100
2129.19	1.135	1135.1	generate	Run3	generate/STIM_016.jpg	99
2133.338	1.376	1375.9	generate	Run3	generate/STIM_017.jpg	99
2137.164	1.582	1581.5	generate	Run3	generate/STIM_017.jpg	100
2142.912	1.832	1832.4	generate	Run3	generate/STIM_017.jpg	99
2147.363	0.724	723.8	generate	Run3	generate/STIM_017.jpg	99
2150.595	1.783	1783.4	generate	Run3	generate/STIM_017.jpg	100
2154.691	1.754	1754.2	generate	Run3	generate/STIM_018.jpg	100
2159.547	1.666	1666.3	generate	Run3	generate/STIM_018.jpg	100
2164.541	1.492	1491.9	generate	Run3	generate/STIM_018.jpg	99
2168.352	0.887	886.7	generate	Run3	generate/STIM_018.jpg	99
2172.624	1.06	1059.5	generate	Run3	generate/STIM_018.jpg	99
2177.173	1.772	1772.5	generate	Run3	generate/STIM_019.jpg	99
2182.422	1.256	1256.0	generate	Run3	generate/STIM_019.jpg	99
2187.227	1.799	1798.9	generate	Run3	generate/STIM_019.jpg	99
2191.34	0.751	751.3	generate	Run3	generate/STIM_019.jpg	99
2194.28	1.195	1194.9	generate	Run3	generate/STIM_019.jpg	99
2199.262	0.985	985.2	generate	Run3	generate/STIM_020.jpg	99
2203.966	1.108	1107.5	generate	Run3	generate/STIM_020.jpg	100
2208.079	1.376	1376.3	generate	Run3	generate/STIM_020.jpg	99
2213.613	1.316	1316.5	generate	Run3	generate/STIM_020.jpg	99
2218.554	1.916	1916.2	generate	Run3	generate/STIM_020.jpg	100
2223.823	1.567	1566.8	generate	Run3	generate/STIM_021.jpg	100
2228.614	1.416	1415.6	generate	Run3	generate/STIM_021.jpg	99
2232.487	1.05	1049.5	generate	Run3	generate/STIM_021.jpg	100
2235.853	1.789	1788.8	generate	Run3	generate/STIM_021.jpg	100
2240.235	1.112	1112.2	generate	Run3	generate/STIM_021.jpg	99
2245.279	1.039	1039.2	generate	Run3	generate/STIM_022.jpg	99
2250.094	0.94	940.2	generate	Run3	generate/STIM_022.jpg	99
2253.944	1.69	1689.8	generate	Run3	generate/STIM_022.jpg	99
2258.414	0.833	833.2	generate	Run3	generate/STIM_022.jpg	100
2262.938	1.584	1583.9	generate	Run3	generate/STIM_022.jpg	99
2267.067	1.363	1363.4	generate	Run3	generate/STIM_023.jpg	100
2271.193	1.426	1425.9	generate	Run3	generate/STIM_023.jpg	99
2276.695	1.042	1042.5	generate	Run3	generate/STIM_023.jpg	100
2280.763	1.761	1761.0	generate	Run3	generate/STIM_023.jpg	100
2285.42	1.418	1418.2	generate	Run3	generate/STIM_023.jpg	100
2291.07	0.905	905.4	generate	Run3	generate/STIM_024.jpg	99
2296.215	1.163	1162.8	generate	Run3	generate/STIM_024.jpg	99
2300.081	1.31	1309.6	generate	Run3	generate/STIM_024.jpg	99
2304.23	0.971	970.9	generate	Run3	generate/STIM_024.jpg	99
2308.092	0.945	945.0	generate	Run3	generate/STIM_024.jpg	100
2312.742	0.51	509.9	repeat	Run3	repeat/STIM_000.jpg	100
2317.225	0.438	437.9	repeat	Run3	repeat/STIM_000.jpg	100
2319.873	0.804	803.5	repeat	Run3	repeat/STIM_000.jpg	100
2322.809	0.393	392.6	repeat	Run3	repeat/STIM_000.jpg	99
2327.176	0.744	744.3	repeat	Run3	repeat/STIM_000.jpg	100
2330.632	0.534	533.6	repeat	Run3	repeat/STIM_001.jpg	100
2334.49	0.66	660.5	repeat	Run3	repeat/STIM_001.jpg	99
2338.101	0.561	561.0	repeat	Run3	repeat/STIM_001.jpg	99
2340.823	0.33	329.9	repeat	Run3	repeat/STIM_001.jpg	99
2343.411	0.768	767.6	repeat	Run3	repeat/STIM_001.jpg	100
2347.237	0.703	702.7	repeat	Run3	repeat/STIM_002.jpg	100
2351.375	0.62	620.2	repeat	Run3	repeat/STIM_002.jpg	99
2355.52	0.869	868.8	repeat	Run3	repeat/STIM_002.jpg	99
2359.032	0.851	850.6	repeat	Run3	repeat/STIM_002.jpg	100
2363.524	0.816	816.2	repeat	Run3	repeat/STIM_002.jpg	100
2367.611	0.906	906.4	repeat	Run3	repeat/STIM_003.jpg	99
2371.151	0.673	673.3	repeat	Run3	repeat/STIM_003.jpg	99
2375.429	0.467	467.0	repeat	Run3	repeat/STIM_003.jpg	99
2379.31	0.882	881.7	repeat	Run3	repeat/STIM_003.jpg	100
2383.353	0.494	493.6	repeat	Run3	repeat/STIM_003.jpg	100
2387.049	0.6	600.5	repeat	Run3	repeat/STIM_004.jpg	100
2390.048	0.566	566.4	repeat	Run3	repeat/STIM_004.jpg	100
2394.137	0.46	459.8	repeat	Run3	repeat/STIM_004.jpg	99
2397.394	0.536	536.4	repeat	Run3	repeat/STIM_004.jpg	99
2400.999	0.554	554.4	repeat	Run3	repeat/STIM_004.jpg	99
2404.896	0.885	885.3	repeat	Run3	repeat/STIM_005.jpg	99
2408.104	0.74	739.6	repeat	Run3	repeat/STIM_005.jpg	100
2412.092	0.562	561.6	repeat	Run3	repeat/STIM_005.jpg	99
2415.283	0.653	652.8	repeat	Run3	repeat/STIM_005.jpg	100
2419.787	0.697	697.3	repeat	Run3	repeat/STIM_005.jpg	99
2423.295	0.857	857.3	repeat	Run3	repeat/STIM_006.jpg	100
2427.923	0.854	854.2	repeat	Run3	repeat/STIM_006.jpg	99
2431.598	0.688	688.1	repeat	Run3	repeat/STIM_006.jpg	100
2435.848	0.754	754.5	repeat	Run3	repeat/STIM_006.jpg	99
2440.05	0.878	877.8	repeat	Run3	repeat/STIM_006.jpg	100
2444.815	0.687	687.1	repeat	Run3	repeat/STIM_007.jpg	100
2449.468	0.477	477.3	repeat	Run3	repeat/STIM_007.jpg	99
2452.772	0.793	793.2	repeat	Run3	repeat/STIM_007.jpg	99
2457.273	0.827	826.6	repeat	Run3	repeat/STIM_007.jpg	99
2460.884	0.778	777.6	repeat	Run3	repeat/STIM_007.jpg	99
2464.799	0.447	447.1	repeat	Run3	repeat/STIM_008.jpg	99
2467.471	0.613	612.8	repeat	Run3	repeat/STIM_008.jpg	100
2471.042	0.893	892.6	repeat	Run3	repeat/STIM_008.jpg	99
2475.225	0.552	551.9	repeat	Run3	repeat/STIM_008.jpg	99
2478.235	0.712	712.0	repeat	Run3	repeat/STIM_008.jpg	100
2482.445	0.698	698.5	repeat	Run3	repeat/STIM_009.jpg	100
2486.327	0.632	631.6	repeat	Run3	repeat/STIM_009.jpg	99
2490.701	0.709	709.3	repeat	Run3	repeat/STIM_009.jpg	100
2494.807	0.619	618.6	repeat	Run3	repeat/STIM_009.jpg	100
2499.326	0.473	473.2	repeat	Run3	repeat/STIM_009.jpg	100
2502.31	0.842	842.0	repeat	Run3	repeat/STIM_010.jpg	100
2506.164	0.518	518.2	repeat	Run3	repeat/STIM_010.jpg	99
2510.572	0.843	843.1	repeat	Run3	repeat/STIM_010.jpg	99
2515.338	0.416	416.2	repeat	Run3	repeat/STIM_010.jpg	99
2517.959	0.418	418.5	repeat	Run3	repeat/STIM_010.jpg	99
2521.689	0.614	614.0	repeat	Run3	repeat/STIM_011.jpg	100
2525.852	0.767	767.2	repeat	Run3	repeat/STIM_011.jpg	99
2529.598	0.912	912.3	repeat	Run3	repeat/STIM_011.jpg	99
2533.279	0.598	597.9	repeat	Run3	repeat/STIM_011.jpg	99
2536.713	0.815	814.9	repeat	Run3	repeat/STIM_011.jpg	99
2539.83	0.481	481.0	repeat	Run3	repeat/STIM_012.jpg	99
2544.071	0.792	791.6	repeat	Run3	repeat/STIM_012.jpg	99
2548.858	0.508	508.4	repeat	Run3	repeat/STIM_012.jpg	100
2553.235	0.576	576.1	repeat	Run3	repeat/STIM_012.jpg	100
2557.349	0.613	613.0	repeat	Run3	repeat/STIM_012.jpg	99
2560.043	0.602	602.1	repeat	Run3	repeat/STIM_013.jpg	100
2563.518	0.878	878.2	repeat	Run3	repeat/STIM_013.jpg	100
2567.358	0.906	906.4	repeat	Run3	repeat/STIM_013.jpg	100
2570.381	0.875	874.8	repeat	Run3	repeat/STIM_013.jpg	100
2574.82	0.854	853.8	repeat	Run3	repeat/STIM_013.jpg	100
2577.836	0.444	444.3	repeat	Run3	repeat/STIM_014.jpg	99
2581.172	0.636	636.3	repeat	Run3	repeat/STIM_014.jpg	100
2584.31	0.599	598.9	repeat	Run3	repeat/STIM_014.jpg	100
2586.984	0.809	808.7	repeat	Run3	repeat/STIM_014.jpg	100
2591.744	0.695	695.4	repeat	Run3	repeat/STIM_014.jpg	99
2594.91	0.768	768.0	generate	Run4	generate/STIM_000.jpg	99
2598.213	1.504	1503.8	generate	Run4	generate/STIM_000.jpg	99
2602.551	1.408	1407.7	generate	Run4	generate/STIM_000.jpg	100
2606.48	1.759	1759.1	generate	Run4	generate/STIM_000.jpg	99
2611.69	0.929	929.3	generate	Run4	generate/STIM_000.jpg	100
2616.647	0.737	737.1	generate	Run4	generate/STIM_001.jpg	99
2621.268	1.228	1228.5	generate	Run4	generate/STIM_001.jpg	99
2625.237	1.008	1008.0	generate	Run4	generate/STIM_001.jpg	100
2629.356	0.748	747.5	generate	Run4	generate/STIM_001.jpg	99
2633.272	0.813	812.7	generate	Run4	generate/STIM_001.jpg	99
2637.711	0.816	816.3	generate	Run4	generate/STIM_002.jpg	99
2641.912	1.379	1379.1	generate	Run4	generate/STIM_002.jpg	100
2645.778	1.056	1055.9	generate	Run4	generate/STIM_002.jpg	100
2649.276	1.541	1541.1	generate	Run4	generate/STIM_002.jpg	100
2654.305	1.801	1800.8	generate	Run4	generate/STIM_002.jpg	100
2659.031	1.475	1475.4	generate	Run4	generate/STIM_003.jpg	100
2662.692	0.852	851.7	generate	Run4	generate/STIM_003.jpg	99
2666.628	0.92	919.7	generate	Run4	generate/STIM_003.jpg	99
2670.842	1.72	1719.5	generate	Run4	generate/STIM_003.jpg	99
2675.347	0.888	888.0	generate	Run4	generate/STIM_003.jpg	100
2679.662	1.801	1800.9	generate	Run4	generate/STIM_004.jpg	100
2683.995	0.904	903.6	generate	Run4	generate/STIM_004.jpg	99
2687.271	1.372	1372.2	generate	Run4	generate/STIM_004.jpg	99
2692.356	0.839	838.8	generate	Run4	generate/STIM_004.jpg	99
2696.27	1.598	1597.5	generate	Run4	generate/STIM_004.jpg	99
2701.555	1.414	1414.3	generate	Run4	generate/STIM_005.jpg	99
2706.441	1.016	1016.5	generate	Run4	generate/STIM_005.jpg	100
2710.782	1.178	1178.0	generate	Run4	generate/STIM_005.jpg	99
2716.091	1.2	1200.0	generate	Run4	generate/STIM_005.jpg	100
2720.105	1.046	1046.0	generate	Run4	generate/STIM_005.jpg	100
2723.666	1.632	1631.9	generate	Run4	generate/STIM_006.jpg	99
2727.889	0.888	888.2	generate	Run4	generate/STIM_006.jpg	100
2732.387	1.812	1811.8	generate	Run4	generate/STIM_006.jpg	100
2736.806	0.992	992.0	generate	Run4	generate/STIM_006.jpg	99
2740.532	1.676	1675.7	generate	Run4	generate/STIM_006.jpg	100
2744.789	1.166	1165.8	generate	Run4	generate/STIM_007.jpg	100
2749.172	1.52	1520.4	generate	Run4	generate/STIM_007.jpg	100
2752.881	1.312	1311.9	generate	Run4	generate/STIM_007.jpg	99
2757.259	1.054	1054.1	generate	Run4	generate/STIM_007.jpg	99
2762.016	1.079	1078.8	generate	Run4	generate/STIM_007.jpg	99
2765.859	1.746	1745.5	generate	Run4	generate/STIM_008.jpg	99
2771.623	0.843	842.8	generate	Run4	generate/STIM_008.jpg	99
2775.838	1.058	1058.2	generate	Run4	generate/STIM_008.jpg	100
2780.725	1.648	1648.5	generate	Run4	generate/STIM_008.jpg	99
2785.189	1.07	1070.4	generate	Run4	generate/STIM_008.jpg	99
2788.725	1.297	1297.4	generate	Run4	generate/STIM_009.jpg	100
2793.126	1.024	1024.0	generate	Run4	generate/STIM_009.jpg	99
2796.477	1.704	1703.7	generate	Run4	generate/STIM_009.jpg	100
2801.344	1.518	1518.5	generate	Run4	generate/STIM_009.jpg	99
2806.958	1.256	1255.6	generate	Run4	generate/STIM_009.jpg	99
2811.968	1.292	1292.3	generate	Run4	generate/STIM_010.jpg	100
2816.516	1.205	1205.3	generate	Run4	generate/STIM_010.jpg	100
2821.079	1.639	1638.7	generate	Run4	generate/STIM_010.jpg	99
2826.13	1.188	1188.5	generate	Run4	generate/STIM_010.jpg	100
2830.973	0.801	801.4	generate	Run4	generate/STIM_010.jpg	99
2834.027	1.082	1082.3	generate	Run4	generate/STIM_011.jpg	99
2839.081	1.339	1338.7	generate	Run4	generate/STIM_011.jpg	99
2842.754	1.588	1587.5	generate	Run4	generate/STIM_011.jpg	100
2848.398	1.455	1454.6	generate	Run4	generate/STIM_011.jpg	99
2853.203	0.84	839.9	generate	Run4	generate/STIM_011.jpg	99
2856.446	1.762	1762.0	generate	Run4	generate/STIM_012.jpg	99
2861.235	1.347	1346.6	generate	Run4	generate/STIM_012.jpg	100
2866.374	1.012	1012.3	generate	Run4	generate/STIM_012.jpg	100
2870.593	1.43	1430.0	generate	Run4	generate/STIM_012.jpg	99
2876.069	0.761	761.1	generate	Run4	generate/STIM_012.jpg	100
2879.714	0.998	998.2	generate	Run4	generate/STIM_013.jpg	99
2883.041	0.923	922.9	generate	Run4	generate/STIM_013.jpg	99
2886.683	1.78	1780.5	generate	Run4	generate/STIM_013.jpg	100
2891.804	1.73	1729.7	generate	Run4	generate/STIM_013.jpg	100
2896.15	0.894	893.6	generate	Run4	generate/STIM_013.jpg	99
2899.234	1.597	1596.9	generate	Run4	generate/STIM_014.jpg	100
2903.774	1.776	1775.5	generate	Run4	generate/STIM_014.jpg	99
2908.191	1.462	1462.4	generate	Run4	generate/STIM_014.jpg	99
2912.184	1.623	1622.7	generate	Run4	generate/STIM_014.jpg	99
2916.835	0.822	822.1	generate	Run4	generate/STIM_014.jpg	99
2920.225	1.591	1590.6	generate	Run4	generate/STIM_015.jpg	99
2924.546	1.251	1250.9	generate	Run4	generate/STIM_015.jpg	99
2929.475	1.742	1742.0	generate	Run4	generate/STIM_015.jpg	100
2934.123	1.53	1529.9	generate	Run4	generate/STIM_015.jpg	100
2939.276	1.026	1025.5	generate	Run4	generate/STIM_015.jpg	99
2943.799	1.425	1424.7	generate	Run4	generate/STIM_016.jpg	100
2947.744	0.839	839.2	generate	Run4	generate/STIM_016.jpg	99
2950.878	1.287	1287.0	generate	Run4	generate/STIM_016.jpg	99
2954.822	0.729	728.9	generate	Run4	generate/STIM_016.jpg	99
2958.9	1.526	1525.8	generate	Run4	generate/STIM_016.jpg	99
2964.217	1.623	1622.6	generate	Run4	generate/STIM_017.jpg	99
2969.615	1.788	1788.0	generate	Run4	generate/STIM_017.jpg	99
2974.257	1.201	1201.1	generate	Run4	generate/STIM_017.jpg	99
2978.894	1.802	1801.8	generate	Run4	generate/STIM_017.jpg	100
2983.715	1.789	1789.3	generate	Run4	generate/STIM_017.jpg	100
2988.067	1.827	1826.6	generate	Run4	generate/STIM_018.jpg	100
2992.95	1.179	1179.2	generate	Run4	generate/STIM_018.jpg	99
2997.549	1.129	1129.3	generate	Run4	generate/STIM_018.jpg	100
3002.662	1.156	1156.2	generate	Run4	generate/STIM_018.jpg	99
3007.875	1.275	1275.2	generate	Run4	generate/STIM_018.jpg	99
3011.388	1.429	1428.7	generate	Run4	generate/STIM_019.jpg	99
3015.98	1.28	1279.5	generate	Run4	generate/STIM_019.jpg	99
3019.632	0.932	932.4	generate	Run4	generate/STIM_019.jpg	100
3023.293	1.347	1346.7	generate	Run4	generate/STIM_019.jpg	100
3026.949	1.182	1181.9	generate	Run4	generate/STIM_019.jpg	99
3031.744	1.683	1682.8	generate	Run4	generate/STIM_020.jpg	99
3035.822	1.105	1105.1	generate	Run4	generate/STIM_020.jpg	99
3039.685	1.063	1062.7	generate	Run4	generate/STIM_020.jpg	100
3044.266	1.426	1425.9	generate	Run4	generate/STIM_020.jpg	100
3048.215	0.803	802.7	generate	Run4	generate/STIM_020.jpg	100
3052.107	1.541	1541.0	generate	Run4	generate/STIM_021.jpg	100
3057.751	1.466	1465.9	generate	Run4	generate/STIM_021.jpg	99
3062.317	1.535	1535.2	generate	Run4	generate/STIM_021.jpg	99
3068.018	0.934	934.3	generate	Run4	generate/STIM_021.jpg	100
3072.582	1.374	1373.6	generate	Run4	generate/STIM_021.jpg	100
3076.688	0.752	752.3	generate	Run4	generate/STIM_022.jpg	100
3081.386	1.648	1648.2	generate	Run4	generate/STIM_022.jpg	99
3086.522	1.497	1497.0	generate	Run4	generate/STIM_022.jpg	99
3090.847	1.758	1758.4	generate	Run4	generate/STIM_022.jpg	100
3096.367	1.04	1040.5	generate	Run4	generate/STIM_022.jpg	100
3101.358	0.863	862.8	generate	Run4	generate/STIM_023.jpg	99
3105.577	1.423	1423.2	generate	Run4	generate/STIM_023.jpg	99
3110.308	1.339	1339.0	generate	Run4	generate/STIM_023.jpg	100
3115.784	0.964	964.3	generate	Run4	generate/STIM_023.jpg	99
3120.124	1.767	1766.7	generate	Run4	generate/STIM_023.jpg	99
3124.881	0.949	949.3	generate	Run4	generate/STIM_024.jpg	100
3128.887	0.908	907.9	generate	Run4	generate/STIM_024.jpg	100
3132.817	1.314	1314.5	generate	Run4	generate/STIM_024.jpg	99
3137.883	1.751	1750.8	generate	Run4	generate/STIM_024.jpg	100
3143.525	1.415	1415.0	generate	Run4	generate/STIM_024.jpg	100
3147.707	0.659	658.6	repeat	Run4	repeat/STIM_000.jpg	99
3150.608	0.637	637.4	repeat	Run4	repeat/STIM_000.jpg	99
3155.357	0.707	707.4	repeat	Run4	repeat/STIM_000.jpg	100
3159.784	0.569	569.2	repeat	Run4	repeat/STIM_000.jpg	99
3163.08	0.633	632.8	repeat	Run4	repeat/STIM_000.jpg	100
3166.971	0.638	637.6	repeat	Run4	repeat/STIM_001.jpg	100
3171.509	0.786	785.8	repeat	Run4	repeat/STIM_001.jpg	99
3175.24	0.778	778.1	repeat	Run4	repeat/STIM_001.jpg	99
3178.445	0.757	757.1	repeat	Run4	repeat/STIM_001.jpg	100
3181.361	0.807	807.0	repeat	Run4	repeat/STIM_001.jpg	99
3185.627	0.769	769.3	repeat	Run4	repeat/STIM_002.jpg	100
3189.197	0.784	783.7	repeat	Run4	repeat/STIM_002.jpg	99
3192.85	0.789	789.3	repeat	Run4	repeat/STIM_002.jpg	100
3195.78	0.502	502.2	repeat	Run4	repeat/STIM_002.jpg	99
3198.678	0.82	820.2	repeat	Run4	repeat/STIM_002.jpg	100
3202.991	0.621	620.6	repeat	Run4	repeat/STIM_003.jpg	100
3205.812	0.505	504.9	repeat	Run4	repeat/STIM_003.jpg	99
3210.189	0.828	827.8	repeat	Run4	repeat/STIM_003.jpg	100
3213.396	0.62	620.4	repeat	Run4	repeat/STIM_003.jpg	99
3216.584	0.74	740.2	repeat	Run4	repeat/STIM_003.jpg	100
3220.556	0.518	518.1	repeat	Run4	repeat/STIM_004.jpg	99
3224.611	0.695	694.6	repeat	Run4	repeat/STIM_004.jpg	99
3229.013	0.608	608.2	repeat	Run4	repeat/STIM_004.jpg	100
3233.527	0.596	595.6	repeat	Run4	repeat/STIM_004.jpg	99
3237.641	0.878	878.5	repeat	Run4	repeat/STIM_004.jpg	99
3241.497	0.444	444.5	repeat	Run4	repeat/STIM_005.jpg	100
3244.663	0.925	925.3	repeat	Run4	repeat/STIM_005.jpg	99
3248.001	0.664	663.9	repeat	Run4	repeat/STIM_005.jpg	99
3252.575	0.596	595.9	repeat	Run4	repeat/STIM_005.jpg	100
3256.737	0.404	404.5	repeat	Run4	repeat/STIM_005.jpg	99
3259.397	0.877	877.0	repeat	Run4	repeat/STIM_006.jpg	99
3262.472	0.73	730.5	repeat	Run4	repeat/STIM_006.jpg	100
3265.707	0.587	587.0	repeat	Run4	repeat/STIM_006.jpg	100
3269.805	0.874	873.7	repeat	Run4	repeat/STIM_006.jpg	100
3273.869	0.821	820.9	repeat	Run4	repeat/STIM_006.jpg	99
3277.086	0.68	679.5	repeat	Run4	repeat/STIM_007.jpg	100
3280.216	0.592	592.2	repeat	Run4	repeat/STIM_007.jpg	100
3283.46	0.784	784.2	repeat	Run4	repeat/STIM_007.jpg	99
3288.157	0.509	508.7	repeat	Run4	repeat/STIM_007.jpg	100
3292.377	0.509	509.4	repeat	Run4	repeat/STIM_007.jpg	99
3295.011	0.537	537.3	repeat	Run4	repeat/STIM_008.jpg	100
3297.716	0.549	548.7	repeat	Run4	repeat/STIM_008.jpg	99
3301.46	0.563	563.4	repeat	Run4	repeat/STIM_008.jpg	100
3304.667	0.472	471.8	repeat	Run4	repeat/STIM_008.jpg	100
3307.656	0.883	882.7	repeat	Run4	repeat/STIM_008.jpg	100
3311.497	0.577	576.6	repeat	Run4	repeat/STIM_009.jpg	99
3316.097	0.789	788.9	repeat	Run4	repeat/STIM_009.jpg	99
3320.79	0.685	684.6	repeat	Run4	repeat/STIM_009.jpg	99
3324.586	0.623	623.0	repeat	Run4	repeat/STIM_009.jpg	100
3327.614	0.795	794.7	repeat	Run4	repeat/STIM_009.jpg	100
3331.838	0.894	893.7	repeat	Run4	repeat/STIM_010.jpg	100
3334.952	0.572	572.5	repeat	Run4	repeat/STIM_010.jpg	100
3339.481	0.769	768.9	repeat	Run4	repeat/STIM_010.jpg	99
3344.059	0.816	816.0	repeat	Run4	repeat/STIM_010.jpg	100
3347.669	0.733	733.0	repeat	Run4	repeat/STIM_010.jpg	100
3350.998	0.481	480.7	repeat	Run4	repeat/STIM_011.jpg	100
3355.09	0.516	516.4	repeat	Run4	repeat/STIM_011.jpg	100
3359.324	0.511	511.4	repeat	Run4	repeat/STIM_011.jpg	100
3362.241	0.6	599.8	repeat	Run4	repeat/STIM_011.jpg	99
3366.694	0.668	668.0	repeat	Run4	repeat/STIM_011.jpg	100
3370.541	0.541	540.6	repeat	Run4	repeat/STIM_012.jpg	99
3373.727	0.594	593.8	repeat	Run4	repeat/STIM_012.jpg	99
3377.266	0.796	795.7	repeat	Run4	repeat/STIM_012.jpg	100
3380.754	0.482	482.0	repeat	Run4	repeat/STIM_012.jpg	100
3383.477	0.811	810.6	repeat	Run4	repeat/STIM_012.jpg	99
3387.864	0.688	687.8	repeat	Run4	repeat/STIM_013.jpg	100
3391.231	0.528	528.5	repeat	Run4	repeat/STIM_013.jpg	99
3394.524	0.758	758.1	repeat	Run4	repeat/STIM_013.jpg	100
3398.982	0.829	829.1	repeat	Run4	repeat/STIM_013.jpg	100
3403.255	0.549	548.6	repeat	Run4	repeat/STIM_013.jpg	99
3407.866	0.701	701.3	repeat	Run4	repeat/STIM_014.jpg	99
3411.717	0.655	655.0	repeat	Run4	repeat/STIM_014.jpg	99
3415.547	0.799	798.9	repeat	Run4	repeat/STIM_014.jpg	99
3419.232	0.603	603.3	repeat	Run4	repeat/STIM_014.jpg	100
3423.677	0.467	466.6	repeat	Run4	repeat/STIM_014.jpg	99
