onset	duration	accuracy	trial_type	learning_stage	stimulus
0.0	0.782	correct	incongruent	Block1	incongruent/STIM_000.jpg
2.844	0.985	correct	incongruent	Block1	incongruent/STIM_000.jpg
6.57	0.984	incorrect	incongruent	Block1	incongruent/STIM_000.jpg
10.135	1.249	correct	incongruent	Block1	incongruent/STIM_000.jpg
15.324	0.914	correct	incongruent	Block1	incongruent/STIM_000.jpg
19.245	1.007	incorrect	incongruent	Block1	incongruent/STIM_001.jpg
24.159	0.906	correct	incongruent	Block1	incongruent/STIM_001.jpg
27.988	0.78	correct	incongruent	Block1	incongruent/STIM_001.jpg
30.799	1.228	incorrect	incongruent	Block1	incongruent/STIM_001.jpg
35.865	1.05	incorrect	incongruent	Block1	incongruent/STIM_001.jpg
39.011	1.121	correct	incongruent	Block1	incongruent/STIM_002.jpg
43.683	0.695	correct	incongruent	Block1	incongruent/STIM_002.jpg
46.989	0.927	incorrect	incongruent	Block1	incongruent/STIM_002.jpg
50.821	1.223	correct	incongruent	Block1	incongruent/STIM_002.jpg
54.303	1.12	correct	incongruent	Block1	incongruent/STIM_002.jpg
57.464	1.197	correct	incongruent	Block1	incongruent/STIM_003.jpg
61.203	1.02	incorrect	incongruent	Block1	incongruent/STIM_003.jpg
64.923	1.266	correct	incongruent	Block1	incongruent/STIM_003.jpg
69.987	0.836	correct	incongruent	Block1	incongruent/STIM_003.jpg
74.757	0.723	correct	incongruent	Block1	incongruent/STIM_003.jpg
79.095	1.504	correct	incongruent	Block1	incongruent/STIM_004.jpg
83.729	0.939	correct	incongruent	Block1	incongruent/STIM_004.jpg
87.723	1.035	correct	incongruent	Block1	incongruent/STIM_004.jpg
91.103	0.884	correct	incongruent	Block1	incongruent/STIM_004.jpg
94.418	1.072	correct	incongruent	Block1	incongruent/STIM_004.jpg
97.699	1.53	correct	incongruent	Block1	incongruent/STIM_005.jpg
101.246	1.415	correct	incongruent	Block1	incongruent/STIM_005.jpg
105.714	0.933	correct	incongruent	Block1	incongruent/STIM_005.jpg
110.311	0.623	correct	incongruent	Block1	incongruent/STIM_005.jpg
114.34	1.184	correct	incongruent	Block1	incongruent/STIM_005.jpg
118.002	0.826	correct	incongruent	Block1	incongruent/STIM_006.jpg
121.769	0.822	correct	incongruent	Block1	incongruent/STIM_006.jpg
124.71	0.785	correct	incongruent	Block1	incongruent/STIM_006.jpg
127.648	0.968	correct	incongruent	Block1	incongruent/STIM_006.jpg
131.641	1.054	correct	incongruent	Block1	incongruent/STIM_006.jpg
136.091	1.546	correct	incongruent	Block1	incongruent/STIM_007.jpg
141.292	1.329	correct	incongruent	Block1	incongruent/STIM_007.jpg
145.594	1.097	correct	incongruent	Block1	incongruent/STIM_007.jpg
149.68	0.744	correct	incongruent	Block1	incongruent/STIM_007.jpg
152.721	0.601	correct	incongruent	Block1	incongruent/STIM_007.jpg
156.166	1.183	correct	incongruent	Block1	incongruent/STIM_008.jpg
159.724	0.72	correct	incongruent	Block1	incongruent/STIM_008.jpg
163.017	1.188	incorrect	incongruent	Block1	incongruent/STIM_008.jpg
167.095	1.219	correct	incongruent	Block1	incongruent/STIM_008.jpg
171.823	0.858	correct	incongruent	Block1	incongruent/STIM_008.jpg
175.842	1.516	correct	incongruent	Block1	incongruent/STIM_009.jpg
181.228	1.278	correct	incongruent	Block1	incongruent/STIM_009.jpg
186.364	0.891	correct	incongruent	Block1	incongruent/STIM_009.jpg
190.121	1.172	correct	incongruent	Block1	incongruent/STIM_009.jpg
194.003	1.09	correct	incongruent	Block1	incongruent/STIM_009.jpg
197.13	1.427	correct	incongruent	Block1	incongruent/STIM_010.jpg
201.092	1.08	correct	incongruent	Block1	incongruent/STIM_010.jpg
205.308	0.753	correct	incongruent	Block1	incongruent/STIM_010.jpg
209.823	1.0	correct	incongruent	Block1	incongruent/STIM_010.jpg
213.267	0.987	correct	incongruent	Block1	incongruent/STIM_010.jpg
216.549	1.353	correct	incongruent	Block1	incongruent/STIM_011.jpg
220.922	1.049	correct	incongruent	Block1	incongruent/STIM_011.jpg
225.831	1.225	correct	incongruent	Block1	incongruent/STIM_011.jpg
230.005	0.769	correct	incongruent	Block1	incongruent/STIM_011.jpg
233.996	1.066	correct	incongruent	Block1	incongruent/STIM_011.jpg
238.482	0.732	correct	incongruent	Block1	incongruent/STIM_012.jpg
242.76	0.926	correct	incongruent	Block1	incongruent/STIM_012.jpg
247.426	1.297	correct	incongruent	Block1	incongruent/STIM_012.jpg
251.352	0.74	correct	incongruent	Block1	incongruent/STIM_012.jpg
254.614	0.988	correct	incongruent	Block1	incongruent/STIM_012.jpg
258.792	1.238	correct	incongruent	Block1	incongruent/STIM_013.jpg
264.005	1.362	correct	incongruent	Block1	incongruent/STIM_013.jpg
268.297	1.251	correct	incongruent	Block1	incongruent/STIM_013.jpg
272.542	0.816	correct	incongruent	Block1	incongruent/STIM_013.jpg
276.994	0.791	correct	incongruent	Block1	incongruent/STIM_013.jpg
280.646	0.767	incorrect	incongruent	Block1	incongruent/STIM_014.jpg
284.842	0.937	correct	incongruent	Block1	incongruent/STIM_014.jpg
289.61	1.016	correct	incongruent	Block1	incongruent/STIM_014.jpg
293.652	1.08	correct	incongruent	Block1	incongruent/STIM_014.jpg
297.505	1.086	correct	incongruent	Block1	incongruent/STIM_014.jpg
301.752	0.814	incorrect	incongruent	Block1	incongruent/STIM_015.jpg
304.736	0.777	correct	incongruent	Block1	incongruent/STIM_015.jpg
309.174	0.886	correct	incongruent	Block1	incongruent/STIM_015.jpg
313.328	1.118	correct	incongruent	Block1	incongruent/STIM_015.jpg
316.825	0.59	correct	incongruent	Block1	incongruent/STIM_015.jpg
319.807	1.286	correct	incongruent	Block1	incongruent/STIM_016.jpg
323.169	0.931	correct	incongruent	Block1	incongruent/STIM_016.jpg
326.665	0.732	correct	incongruent	Block1	incongruent/STIM_016.jpg
330.584	0.722	incorrect	incongruent	Block1	incongruent/STIM_016.jpg
333.732	0.611	correct	incongruent	Block1	incongruent/STIM_016.jpg
336.993	0.924	correct	incongruent	Block1	incongruent/STIM_017.jpg
341.792	1.157	correct	incongruent	Block1	incongruent/STIM_017.jpg
345.374	1.241	correct	incongruent	Block1	incongruent/STIM_017.jpg
349.905	0.949	correct	incongruent	Block1	incongruent/STIM_017.jpg
353.168	1.162	correct	incongruent	Block1	incongruent/STIM_017.jpg
357.057	1.2	incorrect	incongruent	Block1	incongruent/STIM_018.jpg
361.552	0.808	incorrect	incongruent	Block1	incongruent/STIM_018.jpg
366.195	0.727	correct	incongruent	Block1	incongruent/STIM_018.jpg
370.332	0.816	incorrect	incongruent	Block1	incongruent/STIM_018.jpg
374.028	1.114	correct	incongruent	Block1	incongruent/STIM_018.jpg
377.733	1.351	correct	incongruent	Block1	incongruent/STIM_019.jpg
382.769	1.308	correct	incongruent	Block1	incongruent/STIM_019.jpg
387.937	1.222	incorrect	incongruent	Block1	incongruent/STIM_019.jpg
391.718	1.12	correct	incongruent	Block1	incongruent/STIM_019.jpg
394.87	0.992	correct	incongruent	Block1	incongruent/STIM_019.jpg
398.402	1.104	correct	incongruent	Block1	incongruent/STIM_020.jpg
403.357	1.348	correct	incongruent	Block1	incongruent/STIM_020.jpg
407.455	0.702	incorrect	incongruent	Block1	incongruent/STIM_020.jpg
411.227	0.846	correct	incongruent	Block1	incongruent/STIM_020.jpg
415.296	0.772	correct	incongruent	Block1	incongruent/STIM_020.jpg
419.708	0.891	incorrect	incongruent	Block1	incongruent/STIM_021.jpg
423.703	1.195	incorrect	incongruent	Block1	incongruent/STIM_021.jpg
427.407	1.3	correct	incongruent	Block1	incongruent/STIM_021.jpg
431.832	0.876	correct	incongruent	Block1	incongruent/STIM_021.jpg
436.568	0.889	correct	incongruent	Block1	incongruent/STIM_021.jpg
439.467	1.062	incorrect	incongruent	Block1	incongruent/STIM_022.jpg
442.776	1.455	incorrect	incongruent	Block1	incongruent/STIM_022.jpg
446.758	0.918	incorrect	incongruent	Block1	incongruent/STIM_022.jpg
451.285	0.954	correct	incongruent	Block1	incongruent/STIM_022.jpg
455.52	0.627	correct	incongruent	Block1	incongruent/STIM_022.jpg
458.283	1.397	correct	incongruent	Block1	incongruent/STIM_023.jpg
462.939	1.129	correct	incongruent	Block1	incongruent/STIM_023.jpg
467.636	0.927	correct	incongruent	Block1	incongruent/STIM_023.jpg
472.51	0.931	correct	incongruent	Block1	incongruent/STIM_023.jpg
477.31	1.009	correct	incongruent	Block1	incongruent/STIM_023.jpg
481.86	1.243	correct	incongruent	Block1	incongruent/STIM_024.jpg
486.529	0.828	correct	incongruent	Block1	incongruent/STIM_024.jpg
490.873	0.738	correct	incongruent	Block1	incongruent/STIM_024.jpg
494.544	0.846	correct	incongruent	Block1	incongruent/STIM_024.jpg
497.811	1.22	correct	incongruent	Block1	incongruent/STIM_024.jpg
502.967	1.211	correct	incongruent	Block1	incongruent/STIM_025.jpg
506.319	1.315	correct	incongruent	Block1	incongruent/STIM_025.jpg
509.85	0.694	incorrect	incongruent	Block1	incongruent/STIM_025.jpg
513.566	1.079	correct	incongruent	Block1	incongruent/STIM_025.jpg
517.177	0.704	correct	incongruent	Block1	incongruent/STIM_025.jpg
521.331	1.501	correct	incongruent	Block1	incongruent/STIM_026.jpg
525.26	1.095	correct	incongruent	Block1	incongruent/STIM_026.jpg
528.939	1.029	correct	incongruent	Block1	incongruent/STIM_026.jpg
532.499	0.637	correct	incongruent	Block1	incongruent/STIM_026.jpg
536.023	1.009	correct	incongruent	Block1	incongruent/STIM_026.jpg
540.651	1.488	correct	incongruent	Block1	incongruent/STIM_027.jpg
544.43	1.164	correct	incongruent	Block1	incongruent/STIM_027.jpg
548.439	1.197	correct	incongruent	Block1	incongruent/STIM_027.jpg
552.335	1.178	correct	incongruent	Block1	incongruent/STIM_027.jpg
555.646	0.925	correct	incongruent	Block1	incongruent/STIM_027.jpg
560.174	1.199	correct	incongruent	Block1	incongruent/STIM_028.jpg
565.184	1.04	correct	incongruent	Block1	incongruent/STIM_028.jpg
568.613	1.347	correct	incongruent	Block1	incongruent/STIM_028.jpg
572.698	0.875	correct	incongruent	Block1	incongruent/STIM_028.jpg
576.749	0.98	correct	incongruent	Block1	incongruent/STIM_028.jpg
579.752	1.497	correct	incongruent	Block1	incongruent/STIM_029.jpg
584.352	0.77	correct	incongruent	Block1	incongruent/STIM_029.jpg
587.287	0.908	correct	incongruent	Block1	incongruent/STIM_029.jpg
590.207	0.649	correct	incongruent	Block1	incongruent/STIM_029.jpg
593.904	0.814	correct	incongruent	Block1	incongruent/STIM_029.jpg
596.939	0.604	correct	congruent	Block1	congruent/STIM_000.jpg
600.179	0.572	incorrect	congruent	Block1	congruent/STIM_000.jpg
604.585	0.654	correct	congruent	Block1	congruent/STIM_000.jpg
608.492	0.912	correct	congruent	Block1	congruent/STIM_000.jpg
612.144	0.618	correct	congruent	Block1	congruent/STIM_000.jpg
616.083	0.523	correct	congruent	Block1	congruent/STIM_001.jpg
619.869	0.917	incorrect	congruent	Block1	congruent/STIM_001.jpg
623.948	0.867	correct	congruent	Block1	congruent/STIM_001.jpg
627.326	0.63	correct	congruent	Block1	congruent/STIM_001.jpg
630.382	0.561	correct	congruent	Block1	congruent/STIM_001.jpg
634.917	0.642	correct	congruent	Block1	congruent/STIM_002.jpg
638.22	0.844	correct	congruent	Block1	congruent/STIM_002.jpg
642.584	0.553	correct	congruent	Block1	congruent/STIM_002.jpg
646.249	0.63	correct	congruent	Block1	congruent/STIM_002.jpg
650.569	0.757	correct	congruent	Block1	congruent/STIM_002.jpg
655.079	0.651	correct	congruent	Block1	congruent/STIM_003.jpg
659.013	0.609	correct	congruent	Block1	congruent/STIM_003.jpg
663.262	0.648	correct	congruent	Block1	congruent/STIM_003.jpg
667.128	0.684	correct	congruent	Block1	congruent/STIM_003.jpg
671.774	0.725	correct	congruent	Block1	congruent/STIM_003.jpg
675.339	0.738	correct	congruent	Block1	congruent/STIM_004.jpg
679.488	0.517	correct	congruent	Block1	congruent/STIM_004.jpg
683.064	0.583	correct	congruent	Block1	congruent/STIM_004.jpg
687.295	0.592	correct	congruent	Block1	congruent/STIM_004.jpg
690.894	0.611	correct	congruent	Block1	congruent/STIM_004.jpg
694.317	0.522	correct	congruent	Block1	congruent/STIM_005.jpg
697.305	0.912	correct	congruent	Block1	congruent/STIM_005.jpg
701.11	0.737	correct	congruent	Block1	congruent/STIM_005.jpg
704.464	0.702	correct	congruent	Block1	congruent/STIM_005.jpg
708.74	0.9	correct	congruent	Block1	congruent/STIM_005.jpg
711.862	0.673	correct	congruent	Block1	congruent/STIM_006.jpg
714.866	0.73	correct	congruent	Block1	congruent/STIM_006.jpg
718.79	0.828	correct	congruent	Block1	congruent/STIM_006.jpg
722.861	0.676	correct	congruent	Block1	congruent/STIM_006.jpg
725.805	0.547	correct	congruent	Block1	congruent/STIM_006.jpg
728.577	0.638	correct	congruent	Block1	congruent/STIM_007.jpg
732.282	0.698	incorrect	congruent	Block1	congruent/STIM_007.jpg
736.051	0.852	correct	congruent	Block1	congruent/STIM_007.jpg
739.757	0.592	correct	congruent	Block1	congruent/STIM_007.jpg
743.523	0.861	correct	congruent	Block1	congruent/STIM_007.jpg
747.579	0.535	correct	congruent	Block1	congruent/STIM_008.jpg
751.594	0.799	correct	congruent	Block1	congruent/STIM_008.jpg
756.064	0.574	correct	congruent	Block1	congruent/STIM_008.jpg
759.752	0.671	correct	congruent	Block1	congruent/STIM_008.jpg
763.083	0.697	correct	congruent	Block1	congruent/STIM_008.jpg
767.442	0.621	correct	congruent	Block1	congruent/STIM_009.jpg
770.851	0.617	correct	congruent	Block1	congruent/STIM_009.jpg
775.154	0.849	correct	congruent	Block1	congruent/STIM_009.jpg
779.655	0.867	correct	congruent	Block1	congruent/STIM_009.jpg
782.694	0.862	correct	congruent	Block1	congruent/STIM_009.jpg
786.394	0.599	correct	congruent	Block1	congruent/STIM_010.jpg
790.027	0.521	correct	congruent	Block1	congruent/STIM_010.jpg
792.893	0.82	correct	congruent	Block1	congruent/STIM_010.jpg
797.657	0.759	correct	congruent	Block1	congruent/STIM_010.jpg
801.954	0.918	incorrect	congruent	Block1	congruent/STIM_010.jpg
805.742	0.662	correct	congruent	Block1	congruent/STIM_011.jpg
809.567	0.793	correct	congruent	Block1	congruent/STIM_011.jpg
812.85	0.897	correct	congruent	Block1	congruent/STIM_011.jpg
816.833	0.84	correct	congruent	Block1	congruent/STIM_011.jpg
820.024	0.841	correct	congruent	Block1	congruent/STIM_011.jpg
824.469	0.925	correct	congruent	Block1	congruent/STIM_012.jpg
829.241	0.769	correct	congruent	Block1	congruent/STIM_012.jpg
833.498	0.53	correct	congruent	Block1	congruent/STIM_012.jpg
838.006	0.74	correct	congruent	Block1	congruent/STIM_012.jpg
841.053	0.912	correct	congruent	Block1	congruent/STIM_012.jpg
844.901	0.583	correct	congruent	Block1	congruent/STIM_013.jpg
847.601	0.834	incorrect	congruent	Block1	congruent/STIM_013.jpg
852.24	0.604	correct	congruent	Block1	congruent/STIM_013.jpg
855.897	0.741	correct	congruent	Block1	congruent/STIM_013.jpg
860.408	0.779	correct	congruent	Block1	congruent/STIM_013.jpg
864.333	0.741	correct	congruent	Block1	congruent/STIM_014.jpg
867.736	0.916	correct	congruent	Block1	congruent/STIM_014.jpg
871.843	0.626	correct	congruent	Block1	congruent/STIM_014.jpg
874.764	0.566	correct	congruent	Block1	congruent/STIM_014.jpg
878.989	0.668	correct	congruent	Block1	congruent/STIM_014.jpg
883.358	0.879	correct	congruent	Block1	congruent/STIM_015.jpg
888.061	0.785	correct	congruent	Block1	congruent/STIM_015.jpg
892.116	0.926	correct	congruent	Block1	congruent/STIM_015.jpg
895.06	0.66	correct	congruent	Block1	congruent/STIM_015.jpg
898.119	0.647	correct	congruent	Block1	congruent/STIM_015.jpg
902.503	0.789	correct	congruent	Block1	congruent/STIM_016.jpg
906.282	0.518	correct	congruent	Block1	congruent/STIM_016.jpg
909.817	0.651	correct	congruent	Block1	congruent/STIM_016.jpg
913.794	0.771	correct	congruent	Block1	congruent/STIM_016.jpg
916.873	0.828	correct	congruent	Block1	congruent/STIM_016.jpg
920.077	0.78	correct	congruent	Block1	congruent/STIM_017.jpg
923.423	0.875	correct	congruent	Block1	congruent/STIM_017.jpg
926.991	0.606	correct	congruent	Block1	congruent/STIM_017.jpg
931.159	0.824	correct	congruent	Block1	congruent/STIM_017.jpg
934.451	0.916	correct	congruent	Block1	congruent/STIM_017.jpg
939.193	0.696	correct	congruent	Block1	congruent/STIM_018.jpg
942.911	0.897	correct	congruent	Block1	congruent/STIM_018.jpg
946.48	0.87	correct	congruent	Block1	congruent/STIM_018.jpg
951.214	0.834	correct	congruent	Block1	congruent/STIM_018.jpg
955.245	0.616	correct	congruent	Block1	congruent/STIM_018.jpg
959.85	0.807	incorrect	congruent	Block1	congruent/STIM_019.jpg
963.137	0.668	correct	congruent	Block1	congruent/STIM_019.jpg
965.846	0.857	correct	congruent	Block1	congruent/STIM_019.jpg
970.547	0.913	incorrect	congruent	Block1	congruent/STIM_019.jpg
974.474	0.885	correct	congruent	Block1	congruent/STIM_019.jpg
978.382	0.531	correct	congruent	Block1	congruent/STIM_020.jpg
981.302	0.569	correct	congruent	Block1	congruent/STIM_020.jpg
984.025	0.531	correct	congruent	Block1	congruent/STIM_020.jpg
988.11	0.727	correct	congruent	Block1	congruent/STIM_020.jpg
991.759	0.801	correct	congruent	Block1	congruent/STIM_020.jpg
995.128	0.623	correct	congruent	Block1	congruent/STIM_021.jpg
999.253	0.794	correct	congruent	Block1	congruent/STIM_021.jpg
1003.163	0.73	correct	congruent	Block1	congruent/STIM_021.jpg
1006.418	0.709	incorrect	congruent	Block1	congruent/STIM_021.jpg
1010.611	0.847	correct	congruent	Block1	congruent/STIM_021.jpg
1014.752	0.68	correct	congruent	Block1	congruent/STIM_022.jpg
1017.861	0.813	correct	congruent	Block1	congruent/STIM_022.jpg
1020.846	0.686	correct	congruent	Block1	congruent/STIM_022.jpg
1024.13	0.69	correct	congruent	Block1	congruent/STIM_022.jpg
1028.27	0.864	correct	congruent	Block1	congruent/STIM_022.jpg
1032.845	0.777	correct	congruent	Block1	congruent/STIM_023.jpg
1036.642	0.718	correct	congruent	Block1	congruent/STIM_023.jpg
1040.43	0.898	correct	congruent	Block1	congruent/STIM_023.jpg
1043.505	0.826	correct	congruent	Block1	congruent/STIM_023.jpg
1046.334	0.671	correct	congruent	Block1	congruent/STIM_023.jpg
1049.161	0.627	correct	congruent	Block1	congruent/STIM_024.jpg
1052.009	0.598	correct	congruent	Block1	congruent/STIM_024.jpg
1056.333	0.546	correct	congruent	Block1	congruent/STIM_024.jpg
1060.291	0.767	correct	congruent	Block1	congruent/STIM_024.jpg
1063.426	0.579	correct	congruent	Block1	congruent/STIM_024.jpg
1067.488	0.702	correct	congruent	Block1	congruent/STIM_025.jpg
1072.142	0.608	correct	congruent	Block1	congruent/STIM_025.jpg
1076.526	0.633	correct	congruent	Block1	congruent/STIM_025.jpg
1080.42	0.605	correct	congruent	Block1	congruent/STIM_025.jpg
1083.257	0.768	correct	congruent	Block1	congruent/STIM_025.jpg
1086.049	0.759	correct	congruent	Block1	congruent/STIM_026.jpg
1089.958	0.92	correct	congruent	Block1	congruent/STIM_026.jpg
1093.877	0.649	correct	congruent	Block1	congruent/STIM_026.jpg
1097.332	0.747	correct	congruent	Block1	congruent/STIM_026.jpg
1101.018	0.599	correct	congruent	Block1	congruent/STIM_026.jpg
1104.439	0.865	correct	congruent	Block1	congruent/STIM_027.jpg
1108.505	0.804	correct	congruent	Block1	congruent/STIM_027.jpg
1111.96	0.865	correct	congruent	Block1	congruent/STIM_027.jpg
1116.042	0.912	correct	congruent	Block1	congruent/STIM_027.jpg
1119.768	0.566	correct	congruent	Block1	congruent/STIM_027.jpg
1123.982	0.781	correct	congruent	Block1	congruent/STIM_028.jpg
1128.277	0.652	correct	congruent	Block1	congruent/STIM_028.jpg
1132.115	0.656	correct	congruent	Block1	congruent/STIM_028.jpg
1136.304	0.757	correct	congruent	Block1	congruent/STIM_028.jpg
1139.809	0.747	correct	congruent	Block1	congruent/STIM_028.jpg
1143.352	0.778	correct	congruent	Block1	congruent/STIM_029.jpg
1146.79	0.612	correct	congruent	Block1	congruent/STIM_029.jpg
1150.713	0.613	correct	congruent	Block1	congruent/STIM_029.jpg
1154.399	0.81	correct	congruent	Block1	congruent/STIM_029.jpg
1157.928	0.758	correct	congruent	Block1	congruent/STIM_029.jpg
1161.451	1.061	correct	incongruent	Block2	incongruent/STIM_000.jpg
1165.45	1.043	correct	incongruent	Block2	incongruent/STIM_000.jpg
1169.387	0.696	correct	incongruent	Block2	incongruent/STIM_000.jpg
1172.516	0.663	correct	incongruent	Block2	incongruent/STIM_000.jpg
1176.365	0.603	correct	incongruent	Block2	incongruent/STIM_000.jpg
1180.907	0.915	correct	incongruent	Block2	incongruent/STIM_001.jpg
1184.948	0.63	correct	incongruent	Block2	incongruent/STIM_001.jpg
1189.134	0.83	correct	incongruent	Block2	incongruent/STIM_001.jpg
1192.945	0.558	correct	incongruent	Block2	incongruent/STIM_001.jpg
1195.941	0.829	correct	incongruent	Block2	incongruent/STIM_001.jpg
1200.459	1.046	correct	incongruent	Block2	incongruent/STIM_002.jpg
1203.687	0.945	correct	incongruent	Block2	incongruent/STIM_002.jpg
1207.076	0.985	correct	incongruent	Block2	incongruent/STIM_002.jpg
1211.423	0.992	correct	incongruent	Block2	incongruent/STIM_002.jpg
1216.341	0.976	incorrect	incongruent	Block2	incongruent/STIM_002.jpg
1219.336	1.292	incorrect	incongruent	Block2	incongruent/STIM_003.jpg
1223.411	0.952	correct	incongruent	Block2	incongruent/STIM_003.jpg
1226.484	0.546	correct	incongruent	Block2	incongruent/STIM_003.jpg
1230.754	1.015	correct	incongruent	Block2	incongruent/STIM_003.jpg
1235.632	1.041	correct	incongruent	Block2	incongruent/STIM_003.jpg
1238.793	0.634	correct	incongruent	Block2	incongruent/STIM_004.jpg
1242.368	0.824	correct	incongruent	Block2	incongruent/STIM_004.jpg
1247.029	1.1	correct	incongruent	Block2	incongruent/STIM_004.jpg
1250.37	0.779	correct	incongruent	Block2	incongruent/STIM_004.jpg
1254.681	0.61	correct	incongruent	Block2	incongruent/STIM_004.jpg
1258.791	0.793	correct	incongruent	Block2	incongruent/STIM_005.jpg
1263.584	0.804	correct	incongruent	Block2	incongruent/STIM_005.jpg
1267.839	0.547	correct	incongruent	Block2	incongruent/STIM_005.jpg
1271.135	0.911	correct	incongruent	Block2	incongruent/STIM_005.jpg
1274.339	0.51	correct	incongruent	Block2	incongruent/STIM_005.jpg
1277.964	1.115	correct	incongruent	Block2	incongruent/STIM_006.jpg
1281.45	1.139	correct	incongruent	Block2	incongruent/STIM_006.jpg
1284.976	0.718	correct	incongruent	Block2	incongruent/STIM_006.jpg
1288.517	1.083	correct	incongruent	Block2	incongruent/STIM_006.jpg
1293.56	0.902	correct	incongruent	Block2	incongruent/STIM_006.jpg
1297.607	0.925	correct	incongruent	Block2	incongruent/STIM_007.jpg
1300.682	0.71	correct	incongruent	Block2	incongruent/STIM_007.jpg
1304.601	0.862	correct	incongruent	Block2	incongruent/STIM_007.jpg
1308.584	0.627	correct	incongruent	Block2	incongruent/STIM_007.jpg
1312.66	0.64	correct	incongruent	Block2	incongruent/STIM_007.jpg
1316.545	0.845	correct	incongruent	Block2	incongruent/STIM_008.jpg
1320.49	1.046	correct	incongruent	Block2	incongruent/STIM_008.jpg
1323.904	0.875	incorrect	incongruent	Block2	incongruent/STIM_008.jpg
1327.109	0.849	correct	incongruent	Block2	incongruent/STIM_008.jpg
1331.647	0.745	correct	incongruent	Block2	incongruent/STIM_008.jpg
1335.949	0.655	correct	incongruent	Block2	incongruent/STIM_009.jpg
1339.807	0.845	correct	incongruent	Block2	incongruent/STIM_009.jpg
1344.003	1.102	correct	incongruent	Block2	incongruent/STIM_009.jpg
1348.499	0.593	correct	incongruent	Block2	incongruent/STIM_009.jpg
1351.371	1.083	correct	incongruent	Block2	incongruent/STIM_009.jpg
1355.755	0.923	correct	incongruent	Block2	incongruent/STIM_010.jpg
1359.721	1.019	correct	incongruent	Block2	incongruent/STIM_010.jpg
1364.31	0.93	correct	incongruent	Block2	incongruent/STIM_010.jpg
1368.072	0.671	correct	incongruent	Block2	incongruent/STIM_010.jpg
1372.695	0.689	correct	incongruent	Block2	incongruent/STIM_010.jpg
1376.672	0.98	correct	incongruent	Block2	incongruent/STIM_011.jpg
1381.043	0.683	correct	incongruent	Block2	incongruent/STIM_011.jpg
1383.943	1.068	correct	incongruent	Block2	incongruent/STIM_011.jpg
1387.428	0.657	correct	incongruent	Block2	incongruent/STIM_011.jpg
1390.775	0.543	correct	incongruent	Block2	incongruent/STIM_011.jpg
1395.161	1.078	correct	incongruent	Block2	incongruent/STIM_012.jpg
1398.43	1.06	correct	incongruent	Block2	incongruent/STIM_012.jpg
1401.504	0.713	correct	incongruent	Block2	incongruent/STIM_012.jpg
1405.405	0.66	correct	incongruent	Block2	incongruent/STIM_012.jpg
1408.437	0.851	correct	incongruent	Block2	incongruent/STIM_012.jpg
1411.339	0.654	correct	incongruent	Block2	incongruent/STIM_013.jpg
1414.47	1.179	correct	incongruent	Block2	incongruent/STIM_013.jpg
1419.297	1.074	correct	incongruent	Block2	incongruent/STIM_013.jpg
1424.229	0.665	correct	incongruent	Block2	incongruent/STIM_013.jpg
1428.436	0.889	correct	incongruent	Block2	incongruent/STIM_013.jpg
1433.048	0.844	correct	incongruent	Block2	incongruent/STIM_014.jpg
1437.876	1.148	correct	incongruent	Block2	incongruent/STIM_014.jpg
1442.918	0.956	correct	incongruent	Block2	incongruent/STIM_014.jpg
1445.925	1.031	correct	incongruent	Block2	incongruent/STIM_014.jpg
1450.729	0.876	correct	incongruent	Block2	incongruent/STIM_014.jpg
1454.04	0.624	correct	incongruent	Block2	incongruent/STIM_015.jpg
1457.185	1.211	correct	incongruent	Block2	incongruent/STIM_015.jpg
1460.536	1.137	correct	incongruent	Block2	incongruent/STIM_015.jpg
1463.958	0.676	correct	incongruent	Block2	incongruent/STIM_015.jpg
1468.593	0.603	correct	incongruent	Block2	incongruent/STIM_015.jpg
1471.492	1.27	correct	incongruent	Block2	incongruent/STIM_016.jpg
1475.293	1.223	correct	incongruent	Block2	incongruent/STIM_016.jpg
1480.292	0.885	incorrect	incongruent	Block2	incongruent/STIM_016.jpg
1483.713	1.066	correct	incongruent	Block2	incongruent/STIM_016.jpg
1487.425	0.832	correct	incongruent	Block2	incongruent/STIM_016.jpg
1491.372	1.104	correct	incongruent	Block2	incongruent/STIM_017.jpg
1495.226	0.975	correct	incongruent	Block2	incongruent/STIM_017.jpg
1498.799	0.747	correct	incongruent	Block2	incongruent/STIM_017.jpg
1502.384	0.807	correct	incongruent	Block2	incongruent/STIM_017.jpg
1506.322	0.736	correct	incongruent	Block2	incongruent/STIM_017.jpg
1510.357	1.054	correct	incongruent	Block2	incongruent/STIM_018.jpg
1515.309	1.192	correct	incongruent	Block2	incongruent/STIM_018.jpg
1519.24	0.548	correct	incongruent	Block2	incongruent/STIM_018.jpg
1522.397	0.906	correct	incongruent	Block2	incongruent/STIM_018.jpg
1526.636	0.617	correct	incongruent	Block2	incongruent/STIM_018.jpg
1530.411	1.043	correct	incongruent	Block2	incongruent/STIM_019.jpg
1533.536	0.746	correct	incongruent	Block2	incongruent/STIM_019.jpg
1536.52	0.697	correct	incongruent	Block2	incongruent/STIM_019.jpg
1539.306	0.782	correct	incongruent	Block2	incongruent/STIM_019.jpg
1543.068	1.02	incorrect	incongruent	Block2	incongruent/STIM_019.jpg
1547.536	0.719	incorrect	incongruent	Block2	incongruent/STIM_020.jpg
1552.14	0.712	correct	incongruent	Block2	incongruent/STIM_020.jpg
1556.529	1.052	correct	incongruent	Block2	incongruent/STIM_020.jpg
1560.142	0.698	correct	incongruent	Block2	incongruent/STIM_020.jpg
1563.52	1.07	correct	incongruent	Block2	incongruent/STIM_020.jpg
1566.997	0.931	correct	incongruent	Block2	incongruent/STIM_021.jpg
1570.033	0.935	correct	incongruent	Block2	incongruent/STIM_021.jpg
1573.269	1.042	correct	incongruent	Block2	incongruent/STIM_021.jpg
1577.308	0.988	correct	incongruent	Block2	incongruent/STIM_021.jpg
1581.169	0.566	correct	incongruent	Block2	incongruent/STIM_021.jpg
1583.79	0.811	correct	incongruent	Block2	incongruent/STIM_022.jpg
1588.34	0.781	correct	incongruent	Block2	incongruent/STIM_022.jpg
1592.422	0.942	correct	incongruent	Block2	incongruent/STIM_022.jpg
1597.094	0.981	correct	incongruent	Block2	incongruent/STIM_022.jpg
1601.067	0.975	correct	incongruent	Block2	incongruent/STIM_022.jpg
1605.886	1.039	correct	incongruent	Block2	incongruent/STIM_023.jpg
1609.676	0.968	correct	incongruent	Block2	incongruent/STIM_023.jpg
1614.201	0.854	incorrect	incongruent	Block2	incongruent/STIM_023.jpg
1617.613	0.798	correct	incongruent	Block2	incongruent/STIM_023.jpg
1621.369	0.856	correct	incongruent	Block2	incongruent/STIM_023.jpg
1625.42	0.866	correct	incongruent	Block2	incongruent/STIM_024.jpg
1628.943	0.984	correct	incongruent	Block2	incongruent/STIM_024.jpg
1632.157	0.895	correct	incongruent	Block2	incongruent/STIM_024.jpg
1635.32	0.516	correct	incongruent	Block2	incongruent/STIM_024.jpg
1638.763	0.68	correct	incongruent	Block2	incongruent/STIM_024.jpg
1642.294	0.904	correct	incongruent	Block2	incongruent/STIM_025.jpg
1646.431	0.676	correct	incongruent	Block2	incongruent/STIM_025.jpg
1650.468	0.645	correct	incongruent	Block2	incongruent/STIM_025.jpg
1654.15	0.876	correct	incongruent	Block2	incongruent/STIM_025.jpg
1658.424	0.699	correct	incongruent	Block2	incongruent/STIM_025.jpg
1662.762	1.095	correct	incongruent	Block2	incongruent/STIM_026.jpg
1667.477	0.766	correct	incongruent	Block2	incongruent/STIM_026.jpg
1671.007	0.852	correct	incongruent	Block2	incongruent/STIM_026.jpg
1675.419	0.535	correct	incongruent	Block2	incongruent/STIM_026.jpg
1679.079	1.085	correct	incongruent	Block2	incongruent/STIM_026.jpg
1684.139	0.807	correct	incongruent	Block2	incongruent/STIM_027.jpg
1687.661	0.791	correct	incongruent	Block2	incongruent/STIM_027.jpg
1690.82	0.769	correct	incongruent	Block2	incongruent/STIM_027.jpg
1694.691	1.002	correct	incongruent	Block2	incongruent/STIM_027.jpg
1698.449	0.761	correct	incongruent	Block2	incongruent/STIM_027.jpg
1703.004	0.868	correct	incongruent	Block2	incongruent/STIM_028.jpg
1706.937	0.6	incorrect	incongruent	Block2	incongruent/STIM_028.jpg
1711.194	0.877	correct	incongruent	Block2	incongruent/STIM_028.jpg
1715.245	0.783	correct	incongruent	Block2	incongruent/STIM_028.jpg
1718.262	1.037	correct	incongruent	Block2	incongruent/STIM_028.jpg
1723.242	1.216	correct	incongruent	Block2	incongruent/STIM_029.jpg
1727.146	1.185	correct	incongruent	Block2	incongruent/STIM_029.jpg
1730.717	0.944	correct	incongruent	Block2	incongruent/STIM_029.jpg
1735.462	0.55	correct	incongruent	Block2	incongruent/STIM_029.jpg
1739.815	0.683	correct	incongruent	Block2	incongruent/STIM_029.jpg
1743.017	0.774	correct	congruent	Block2	congruent/STIM_000.jpg
1747.238	0.552	correct	congruent	Block2	congruent/STIM_000.jpg
1751.092	0.842	correct	congruent	Block2	congruent/STIM_000.jpg
1754.823	0.586	correct	congruent	Block2	congruent/STIM_000.jpg
1758.092	0.554	correct	congruent	Block2	congruent/STIM_000.jpg
1762.501	0.812	correct	congruent	Block2	congruent/STIM_001.jpg
1767.27	0.576	correct	congruent	Block2	congruent/STIM_001.jpg
1770.247	0.655	correct	congruent	Block2	congruent/STIM_001.jpg
1774.856	0.574	correct	congruent	Block2	congruent/STIM_001.jpg
1778.43	0.921	correct	congruent	Block2	congruent/STIM_001.jpg
1781.878	0.57	correct	congruent	Block2	congruent/STIM_002.jpg
1785.649	0.678	correct	congruent	Block2	congruent/STIM_002.jpg
1788.523	0.921	correct	congruent	Block2	congruent/STIM_002.jpg
1791.664	0.75	correct	congruent	Block2	congruent/STIM_002.jpg
1795.225	0.576	correct	congruent	Block2	congruent/STIM_002.jpg
1797.924	0.548	correct	congruent	Block2	congruent/STIM_003.jpg
1801.412	0.771	correct	congruent	Block2	congruent/STIM_003.jpg
1805.443	0.699	correct	congruent	Block2	congruent/STIM_003.jpg
1809.385	0.806	correct	congruent	Block2	congruent/STIM_003.jpg
1813.428	0.814	correct	congruent	Block2	congruent/STIM_003.jpg
1816.839	0.892	correct	congruent	Block2	congruent/STIM_004.jpg
1821.54	0.902	correct	congruent	Block2	congruent/STIM_004.jpg
1824.914	0.758	correct	congruent	Block2	congruent/STIM_004.jpg
1828.954	0.601	correct	congruent	Block2	congruent/STIM_004.jpg
1833.142	0.666	correct	congruent	Block2	congruent/STIM_004.jpg
1836.625	0.629	correct	congruent	Block2	congruent/STIM_005.jpg
1839.785	0.56	correct	congruent	Block2	congruent/STIM_005.jpg
1843.174	0.705	correct	congruent	Block2	congruent/STIM_005.jpg
1847.69	0.548	correct	congruent	Block2	congruent/STIM_005.jpg
1850.911	0.618	correct	congruent	Block2	congruent/STIM_005.jpg
1854.804	0.566	correct	congruent	Block2	congruent/STIM_006.jpg
1858.396	0.55	correct	congruent	Block2	congruent/STIM_006.jpg
1862.778	0.568	correct	congruent	Block2	congruent/STIM_006.jpg
1867.214	0.658	correct	congruent	Block2	congruent/STIM_006.jpg
1870.998	0.81	correct	congruent	Block2	congruent/STIM_006.jpg
1873.975	0.682	correct	congruent	Block2	congruent/STIM_007.jpg
1877.22	0.617	correct	congruent	Block2	congruent/STIM_007.jpg
1881.578	0.761	correct	congruent	Block2	congruent/STIM_007.jpg
1885.596	0.674	correct	congruent	Block2	congruent/STIM_007.jpg
1888.97	0.578	correct	congruent	Block2	congruent/STIM_007.jpg
1893.505	0.736	correct	congruent	Block2	congruent/STIM_008.jpg
1897.905	0.87	correct	congruent	Block2	congruent/STIM_008.jpg
1901.731	0.875	correct	congruent	Block2	congruent/STIM_008.jpg
1906.243	0.872	correct	congruent	Block2	congruent/STIM_008.jpg
1910.855	0.644	correct	congruent	Block2	congruent/STIM_008.jpg
1915.302	0.92	correct	congruent	Block2	congruent/STIM_009.jpg
1920.054	0.524	incorrect	congruent	Block2	congruent/STIM_009.jpg
1924.527	0.922	correct	congruent	Block2	congruent/STIM_009.jpg
1928.062	0.605	correct	congruent	Block2	congruent/STIM_009.jpg
1932.575	0.659	correct	congruent	Block2	congruent/STIM_009.jpg
1936.251	0.577	correct	congruent	Block2	congruent/STIM_010.jpg
1940.153	0.824	correct	congruent	Block2	congruent/STIM_010.jpg
1944.962	0.918	correct	congruent	Block2	congruent/STIM_010.jpg
1948.979	0.666	correct	congruent	Block2	congruent/STIM_010.jpg
1953.295	0.53	correct	congruent	Block2	congruent/STIM_010.jpg
1955.857	0.678	correct	congruent	Block2	congruent/STIM_011.jpg
1959.525	0.909	correct	congruent	Block2	congruent/STIM_011.jpg
1962.946	0.652	correct	congruent	Block2	congruent/STIM_011.jpg
1966.872	0.641	correct	congruent	Block2	congruent/STIM_011.jpg
1969.639	0.596	correct	congruent	Block2	congruent/STIM_011.jpg
1973.209	0.648	correct	congruent	Block2	congruent/STIM_012.jpg
1977.655	0.824	correct	congruent	Block2	congruent/STIM_012.jpg
1982.058	0.641	correct	congruent	Block2	congruent/STIM_012.jpg
1986.394	0.756	correct	congruent	Block2	congruent/STIM_012.jpg
1990.765	0.925	correct	congruent	Block2	congruent/STIM_012.jpg
1994.104	0.596	correct	congruent	Block2	congruent/STIM_013.jpg
1997.901	0.759	correct	congruent	Block2	congruent/STIM_013.jpg
2002.512	0.888	correct	congruent	Block2	congruent/STIM_013.jpg
2005.602	0.92	correct	congruent	Block2	congruent/STIM_013.jpg
2010.241	0.667	correct	congruent	Block2	congruent/STIM_013.jpg
2013.274	0.579	correct	congruent	Block2	congruent/STIM_014.jpg
2016.916	0.646	correct	congruent	Block2	congruent/STIM_014.jpg
2019.897	0.629	correct	congruent	Block2	congruent/STIM_014.jpg
2023.682	0.808	correct	congruent	Block2	congruent/STIM_014.jpg
2027.792	0.877	correct	congruent	Block2	congruent/STIM_014.jpg
2031.484	0.663	correct	congruent	Block2	congruent/STIM_015.jpg
2036.065	0.704	correct	congruent	Block2	congruent/STIM_015.jpg
2039.376	0.873	correct	congruent	Block2	congruent/STIM_015.jpg
2044.012	0.923	correct	congruent	Block2	congruent/STIM_015.jpg
2047.656	0.565	correct	congruent	Block2	congruent/STIM_015.jpg
2051.504	0.827	correct	congruent	Block2	congruent/STIM_016.jpg
2056.174	0.798	correct	congruent	Block2	congruent/STIM_016.jpg
2060.637	0.534	correct	congruent	Block2	congruent/STIM_016.jpg
2064.432	0.61	correct	congruent	Block2	congruent/STIM_016.jpg
2068.537	0.813	correct	congruent	Block2	congruent/STIM_016.jpg
2072.682	0.606	correct	congruent	Block2	congruent/STIM_017.jpg
2076.065	0.574	correct	congruent	Block2	congruent/STIM_017.jpg
2079.858	0.796	correct	congruent	Block2	congruent/STIM_017.jpg
2083.684	0.71	correct	congruent	Block2	congruent/STIM_017.jpg
2087.843	0.687	correct	congruent	Block2	congruent/STIM_017.jpg
2091.238	0.593	correct	congruent	Block2	congruent/STIM_018.jpg
2093.925	0.796	correct	congruent	Block2	congruent/STIM_018.jpg
2097.515	0.646	correct	congruent	Block2	congruent/STIM_018.jpg
2102.104	0.559	correct	congruent	Block2	congruent/STIM_018.jpg
2104.924	0.73	correct	congruent	Block2	congruent/STIM_018.jpg
2108.798	0.602	incorrect	congruent	Block2	congruent/STIM_019.jpg
2112.782	0.586	correct	congruent	Block2	congruent/STIM_019.jpg
2116.936	0.804	incorrect	congruent	Block2	congruent/STIM_019.jpg
2120.224	0.745	correct	congruent	Block2	congruent/STIM_019.jpg
2124.91	0.847	correct	congruent	Block2	congruent/STIM_019.jpg
2129.177	0.795	correct	congruent	Block2	congruent/STIM_020.jpg
2133.257	0.67	correct	congruent	Block2	congruent/STIM_020.jpg
2137.877	0.775	correct	congruent	Block2	congruent/STIM_020.jpg
2141.71	0.575	correct	congruent	Block2	congruent/STIM_020.jpg
2145.241	0.549	correct	congruent	Block2	congruent/STIM_020.jpg
2148.627	0.766	correct	congruent	Block2	congruent/STIM_021.jpg
2152.757	0.524	incorrect	congruent	Block2	congruent/STIM_021.jpg
2157.164	0.807	correct	congruent	Block2	congruent/STIM_021.jpg
2161.532	0.554	correct	congruent	Block2	congruent/STIM_021.jpg
2164.991	0.637	correct	congruent	Block2	congruent/STIM_021.jpg
2168.366	0.68	correct	congruent	Block2	congruent/STIM_022.jpg
2171.981	0.798	correct	congruent	Block2	congruent/STIM_022.jpg
2176.351	0.546	correct	congruent	Block2	congruent/STIM_022.jpg
2180.778	0.55	correct	congruent	Block2	congruent/STIM_022.jpg
2184.602	0.632	correct	congruent	Block2	congruent/STIM_022.jpg
2187.489	0.594	correct	congruent	Block2	congruent/STIM_023.jpg
2190.32	0.571	correct	congruent	Block2	congruent/STIM_023.jpg
2193.64	0.921	correct	congruent	Block2	congruent/STIM_023.jpg
2197.621	0.607	correct	congruent	Block2	congruent/STIM_023.jpg
2200.741	0.624	correct	congruent	Block2	congruent/STIM_023.jpg
2205.018	0.576	correct	congruent	Block2	congruent/STIM_024.jpg
2209.574	0.68	correct	congruent	Block2	congruent/STIM_024.jpg
2212.764	0.734	correct	congruent	Block2	congruent/STIM_024.jpg
2216.033	0.898	correct	congruent	Block2	congruent/STIM_024.jpg
2219.265	0.928	correct	congruent	Block2	congruent/STIM_024.jpg
2223.765	0.576	correct	congruent	Block2	congruent/STIM_025.jpg
2227.781	0.826	incorrect	congruent	Block2	congruent/STIM_025.jpg
2231.45	0.882	correct	congruent	Block2	congruent/STIM_025.jpg
2234.703	0.779	correct	congruent	Block2	congruent/STIM_025.jpg
2238.112	0.809	correct	congruent	Block2	congruent/STIM_025.jpg
2241.321	0.894	correct	congruent	Block2	congruent/STIM_026.jpg
2244.265	0.756	correct	congruent	Block2	congruent/STIM_026.jpg
2247.346	0.614	correct	congruent	Block2	congruent/STIM_026.jpg
2250.079	0.642	correct	congruent	Block2	congruent/STIM_026.jpg
2254.156	0.667	correct	congruent	Block2	congruent/STIM_026.jpg
2257.105	0.896	correct	congruent	Block2	congruent/STIM_027.jpg
2260.141	0.585	correct	congruent	Block2	congruent/STIM_027.jpg
2264.08	0.538	correct	congruent	Block2	congruent/STIM_027.jpg
2267.667	0.653	correct	congruent	Block2	congruent/STIM_027.jpg
2271.69	0.752	correct	congruent	Block2	congruent/STIM_027.jpg
2275.443	0.613	correct	congruent	Block2	congruent/STIM_028.jpg
2279.619	0.771	correct	congruent	Block2	congruent/STIM_028.jpg
2284.265	0.53	correct	congruent	Block2	congruent/STIM_028.jpg
2288.035	0.887	correct	congruent	Block2	congruent/STIM_028.jpg
2291.673	0.522	correct	congruent	Block2	congruent/STIM_028.jpg
2294.257	0.73	correct	congruent	Block2	congruent/STIM_029.jpg
2297.764	0.825	correct	congruent	Block2	congruent/STIM_029.jpg
2301.263	0.582	correct	congruent	Block2	congruent/STIM_029.jpg
2305.367	0.551	correct	congruent	Block2	congruent/STIM_029.jpg
2308.113	0.867	correct	congruent	Block2	congruent/STIM_029.jpg
2311.166	0.53	correct	incongruent	Block3	incongruent/STIM_000.jpg
2314.427	0.65	correct	incongruent	Block3	incongruent/STIM_000.jpg
2318.135	0.934	correct	incongruent	Block3	incongruent/STIM_000.jpg
2322.059	0.63	correct	incongruent	Block3	incongruent/STIM_000.jpg
2326.538	0.904	correct	incongruent	Block3	incongruent/STIM_000.jpg
2330.75	1.024	correct	incongruent	Block3	incongruent/STIM_001.jpg
2334.197	0.817	correct	incongruent	Block3	incongruent/STIM_001.jpg
2337.602	0.786	correct	incongruent	Block3	incongruent/STIM_001.jpg
2341.744	0.548	correct	incongruent	Block3	incongruent/STIM_001.jpg
2344.778	0.609	correct	incongruent	Block3	incongruent/STIM_001.jpg
2348.263	1.009	correct	incongruent	Block3	incongruent/STIM_002.jpg
2352.355	1.06	correct	incongruent	Block3	incongruent/STIM_002.jpg
2355.838	0.722	correct	incongruent	Block3	incongruent/STIM_002.jpg
2358.563	0.934	correct	incongruent	Block3	incongruent/STIM_002.jpg
2361.753	0.561	correct	incongruent	Block3	incongruent/STIM_002.jpg
2365.946	1.001	correct	incongruent	Block3	incongruent/STIM_003.jpg
2369.344	0.681	correct	incongruent	Block3	incongruent/STIM_003.jpg
2373.903	0.982	correct	incongruent	Block3	incongruent/STIM_003.jpg
2377.913	0.757	correct	incongruent	Block3	incongruent/STIM_003.jpg
2382.083	0.556	correct	incongruent	Block3	incongruent/STIM_003.jpg
2386.275	0.838	correct	incongruent	Block3	incongruent/STIM_004.jpg
2390.536	0.714	correct	incongruent	Block3	incongruent/STIM_004.jpg
2394.151	0.664	correct	incongruent	Block3	incongruent/STIM_004.jpg
2397.063	0.946	correct	incongruent	Block3	incongruent/STIM_004.jpg
2401.63	1.042	correct	incongruent	Block3	incongruent/STIM_004.jpg
2405.01	0.566	correct	incongruent	Block3	incongruent/STIM_005.jpg
2408.783	0.951	correct	incongruent	Block3	incongruent/STIM_005.jpg
2412.895	1.019	correct	incongruent	Block3	incongruent/STIM_005.jpg
2417.457	0.654	correct	incongruent	Block3	incongruent/STIM_005.jpg
2421.3	0.57	correct	incongruent	Block3	incongruent/STIM_005.jpg
2424.541	0.576	correct	incongruent	Block3	incongruent/STIM_006.jpg
2428.029	0.833	correct	incongruent	Block3	incongruent/STIM_006.jpg
2432.425	0.636	correct	incongruent	Block3	incongruent/STIM_006.jpg
2436.058	0.89	correct	incongruent	Block3	incongruent/STIM_006.jpg
2439.434	1.002	correct	incongruent	Block3	incongruent/STIM_006.jpg
2443.672	0.523	incorrect	incongruent	Block3	incongruent/STIM_007.jpg
2447.305	1.0	correct	incongruent	Block3	incongruent/STIM_007.jpg
2450.753	0.764	correct	incongruent	Block3	incongruent/STIM_007.jpg
2454.518	0.909	correct	incongruent	Block3	incongruent/STIM_007.jpg
2457.802	0.86	correct	incongruent	Block3	incongruent/STIM_007.jpg
2461.81	0.952	correct	incongruent	Block3	incongruent/STIM_008.jpg
2465.841	1.015	correct	incongruent	Block3	incongruent/STIM_008.jpg
2469.637	0.7	correct	incongruent	Block3	incongruent/STIM_008.jpg
2472.462	0.65	correct	incongruent	Block3	incongruent/STIM_008.jpg
2475.442	0.556	correct	incongruent	Block3	incongruent/STIM_008.jpg
2479.038	0.802	correct	incongruent	Block3	incongruent/STIM_009.jpg
2482.977	1.062	correct	incongruent	Block3	incongruent/STIM_009.jpg
2486.501	0.86	correct	incongruent	Block3	incongruent/STIM_009.jpg
2489.971	0.851	correct	incongruent	Block3	incongruent/STIM_009.jpg
2494.155	1.024	correct	incongruent	Block3	incongruent/STIM_009.jpg
2498.787	0.979	correct	incongruent	Block3	incongruent/STIM_010.jpg
2501.942	0.808	correct	incongruent	Block3	incongruent/STIM_010.jpg
2506.115	0.978	correct	incongruent	Block3	incongruent/STIM_010.jpg
2509.854	0.574	correct	incongruent	Block3	incongruent/STIM_010.jpg
2513.013	0.992	correct	incongruent	Block3	incongruent/STIM_010.jpg
2516.452	1.068	correct	incongruent	Block3	incongruent/STIM_011.jpg
2520.397	0.745	correct	incongruent	Block3	incongruent/STIM_011.jpg
2525.123	0.868	correct	incongruent	Block3	incongruent/STIM_011.jpg
2529.903	0.754	correct	incongruent	Block3	incongruent/STIM_011.jpg
2533.012	0.654	correct	incongruent	Block3	incongruent/STIM_011.jpg
2536.907	0.966	correct	incongruent	Block3	incongruent/STIM_012.jpg
2541.107	0.58	correct	incongruent	Block3	incongruent/STIM_012.jpg
2544.601	0.942	correct	incongruent	Block3	incongruent/STIM_012.jpg
2548.397	0.858	correct	incongruent	Block3	incongruent/STIM_012.jpg
2552.358	0.822	correct	incongruent	Block3	incongruent/STIM_012.jpg
2556.266	0.581	correct	incongruent	Block3	incongruent/STIM_013.jpg
2560.034	0.956	correct	incongruent	Block3	incongruent/STIM_013.jpg
2563.324	0.597	correct	incongruent	Block3	incongruent/STIM_013.jpg
2567.021	0.891	correct	incongruent	Block3	incongruent/STIM_013.jpg
2570.127	0.683	correct	incongruent	Block3	incongruent/STIM_013.jpg
2573.644	0.999	correct	incongruent	Block3	incongruent/STIM_014.jpg
2576.893	0.897	correct	incongruent	Block3	incongruent/STIM_014.jpg
2581.732	0.646	correct	incongruent	Block3	incongruent/STIM_014.jpg
2584.582	0.678	correct	incongruent	Block3	incongruent/STIM_014.jpg
2588.117	0.822	correct	incongruent	Block3	incongruent/STIM_014.jpg
2592.49	0.657	correct	incongruent	Block3	incongruent/STIM_015.jpg
2596.42	0.739	correct	incongruent	Block3	incongruent/STIM_015.jpg
2600.683	0.717	correct	incongruent	Block3	incongruent/STIM_015.jpg
2603.769	0.844	correct	incongruent	Block3	incongruent/STIM_015.jpg
2608.318	0.723	correct	incongruent	Block3	incongruent/STIM_015.jpg
2612.605	0.974	correct	incongruent	Block3	incongruent/STIM_016.jpg
2615.651	0.634	correct	incongruent	Block3	incongruent/STIM_016.jpg
2618.447	0.978	correct	incongruent	Block3	incongruent/STIM_016.jpg
2621.922	0.568	correct	incongruent	Block3	incongruent/STIM_016.jpg
2625.02	0.976	correct	incongruent	Block3	incongruent/STIM_016.jpg
2628.074	0.515	correct	incongruent	Block3	incongruent/STIM_017.jpg
2632.302	0.675	correct	incongruent	Block3	incongruent/STIM_017.jpg
2635.075	0.585	correct	incongruent	Block3	incongruent/STIM_017.jpg
2639.282	0.793	correct	incongruent	Block3	incongruent/STIM_017.jpg
2643.113	0.84	correct	incongruent	Block3	incongruent/STIM_017.jpg
2647.929	1.021	correct	incongruent	Block3	incongruent/STIM_018.jpg
2651.027	0.903	correct	incongruent	Block3	incongruent/STIM_018.jpg
2654.778	0.574	correct	incongruent	Block3	incongruent/STIM_018.jpg
2657.53	0.875	correct	incongruent	Block3	incongruent/STIM_018.jpg
2661.604	0.815	correct	incongruent	Block3	incongruent/STIM_018.jpg
2665.65	0.661	correct	incongruent	Block3	incongruent/STIM_019.jpg
2669.672	0.701	correct	incongruent	Block3	incongruent/STIM_019.jpg
2674.009	0.675	correct	incongruent	Block3	incongruent/STIM_019.jpg
2678.018	0.568	correct	incongruent	Block3	incongruent/STIM_019.jpg
2681.139	0.803	correct	incongruent	Block3	incongruent/STIM_019.jpg
2685.41	0.964	correct	incongruent	Block3	incongruent/STIM_020.jpg
2689.654	0.71	correct	incongruent	Block3	incongruent/STIM_020.jpg
2693.068	0.997	correct	incongruent	Block3	incongruent/STIM_020.jpg
2697.897	0.798	correct	incongruent	Block3	incongruent/STIM_020.jpg
2701.589	0.788	correct	incongruent	Block3	incongruent/STIM_020.jpg
2704.797	0.515	correct	incongruent	Block3	incongruent/STIM_021.jpg
2709.258	0.753	correct	incongruent	Block3	incongruent/STIM_021.jpg
2713.448	0.554	correct	incongruent	Block3	incongruent/STIM_021.jpg
2717.914	0.85	correct	incongruent	Block3	incongruent/STIM_021.jpg
2722.148	0.523	correct	incongruent	Block3	incongruent/STIM_021.jpg
2725.575	1.078	correct	incongruent	Block3	incongruent/STIM_022.jpg
2728.798	0.734	correct	incongruent	Block3	incongruent/STIM_022.jpg
2732.914	0.855	correct	incongruent	Block3	incongruent/STIM_022.jpg
2735.858	0.982	correct	incongruent	Block3	incongruent/STIM_022.jpg
2740.122	0.511	correct	incongruent	Block3	incongruent/STIM_022.jpg
2743.876	1.022	correct	incongruent	Block3	incongruent/STIM_023.jpg
2748.632	1.07	correct	incongruent	Block3	incongruent/STIM_023.jpg
2753.392	1.004	correct	incongruent	Block3	incongruent/STIM_023.jpg
2757.43	0.746	correct	incongruent	Block3	incongruent/STIM_023.jpg
2761.297	0.953	correct	incongruent	Block3	incongruent/STIM_023.jpg
2764.319	0.904	correct	incongruent	Block3	incongruent/STIM_024.jpg
2767.946	0.725	incorrect	incongruent	Block3	incongruent/STIM_024.jpg
2772.228	0.638	correct	incongruent	Block3	incongruent/STIM_024.jpg
2776.508	1.006	correct	incongruent	Block3	incongruent/STIM_024.jpg
2781.507	0.656	correct	incongruent	Block3	incongruent/STIM_024.jpg
2784.446	0.735	correct	incongruent	Block3	incongruent/STIM_025.jpg
2787.838	0.762	correct	incongruent	Block3	incongruent/STIM_025.jpg
2792.29	0.81	correct	incongruent	Block3	incongruent/STIM_025.jpg
2796.007	1.064	correct	incongruent	Block3	incongruent/STIM_025.jpg
2799.218	0.796	correct	incongruent	Block3	incongruent/STIM_025.jpg
2803.128	0.718	correct	incongruent	Block3	incongruent/STIM_026.jpg
2805.884	0.884	correct	incongruent	Block3	incongruent/STIM_026.jpg
2810.747	0.773	correct	incongruent	Block3	incongruent/STIM_026.jpg
2813.853	0.605	correct	incongruent	Block3	incongruent/STIM_026.jpg
2817.04	1.019	correct	incongruent	Block3	incongruent/STIM_026.jpg
2821.691	1.031	correct	incongruent	Block3	incongruent/STIM_027.jpg
2824.898	0.998	correct	incongruent	Block3	incongruent/STIM_027.jpg
2829.034	0.8	correct	incongruent	Block3	incongruent/STIM_027.jpg
2831.856	0.854	correct	incongruent	Block3	incongruent/STIM_027.jpg
2835.657	0.973	correct	incongruent	Block3	incongruent/STIM_027.jpg
2839.37	0.633	correct	incongruent	Block3	incongruent/STIM_028.jpg
2843.927	0.772	correct	incongruent	Block3	incongruent/STIM_028.jpg
2847.648	1.025	correct	incongruent	Block3	incongruent/STIM_028.jpg
2851.541	0.803	correct	incongruent	Block3	incongruent/STIM_028.jpg
2856.216	1.071	correct	incongruent	Block3	incongruent/STIM_028.jpg
2860.456	0.676	correct	incongruent	Block3	incongruent/STIM_029.jpg
2864.325	0.991	correct	incongruent	Block3	incongruent/STIM_029.jpg
2867.607	0.643	correct	incongruent	Block3	incongruent/STIM_029.jpg
2872.12	1.011	correct	incongruent	Block3	incongruent/STIM_029.jpg
2876.09	0.788	correct	incongruent	Block3	incongruent/STIM_029.jpg
2879.188	0.724	correct	congruent	Block3	congruent/STIM_000.jpg
2883.825	0.647	correct	congruent	Block3	congruent/STIM_000.jpg
2887.299	0.762	correct	congruent	Block3	congruent/STIM_000.jpg
2891.979	0.638	correct	congruent	Block3	congruent/STIM_000.jpg
2896.125	0.726	correct	congruent	Block3	congruent/STIM_000.jpg
2900.452	0.589	correct	congruent	Block3	congruent/STIM_001.jpg
2903.955	0.887	incorrect	congruent	Block3	congruent/STIM_001.jpg
2907.604	0.621	correct	congruent	Block3	congruent/STIM_001.jpg
2910.582	0.707	correct	congruent	Block3	congruent/STIM_001.jpg
2914.899	0.843	correct	congruent	Block3	congruent/STIM_001.jpg
2917.856	0.86	correct	congruent	Block3	congruent/STIM_002.jpg
2921.319	0.69	correct	congruent	Block3	congruent/STIM_002.jpg
2924.822	0.597	correct	congruent	Block3	congruent/STIM_002.jpg
2929.236	0.895	correct	congruent	Block3	congruent/STIM_002.jpg
2932.275	0.707	correct	congruent	Block3	congruent/STIM_002.jpg
2936.469	0.762	correct	congruent	Block3	congruent/STIM_003.jpg
2940.848	0.798	correct	congruent	Block3	congruent/STIM_003.jpg
2944.872	0.668	correct	congruent	Block3	congruent/STIM_003.jpg
2949.306	0.671	correct	congruent	Block3	congruent/STIM_003.jpg
2953.278	0.924	correct	congruent	Block3	congruent/STIM_003.jpg
2957.288	0.65	incorrect	congruent	Block3	congruent/STIM_004.jpg
2960.62	0.837	correct	congruent	Block3	congruent/STIM_004.jpg
2963.957	0.562	correct	congruent	Block3	congruent/STIM_004.jpg
2967.72	0.851	correct	congruent	Block3	congruent/STIM_004.jpg
2970.678	0.589	correct	congruent	Block3	congruent/STIM_004.jpg
2974.504	0.559	incorrect	congruent	Block3	congruent/STIM_005.jpg
2978.719	0.884	correct	congruent	Block3	congruent/STIM_005.jpg
2981.815	0.662	correct	congruent	Block3	congruent/STIM_005.jpg
2984.632	0.575	correct	congruent	Block3	congruent/STIM_005.jpg
2987.787	0.643	correct	congruent	Block3	congruent/STIM_005.jpg
2990.728	0.554	correct	congruent	Block3	congruent/STIM_006.jpg
2993.367	0.592	correct	congruent	Block3	congruent/STIM_006.jpg
2997.066	0.843	correct	congruent	Block3	congruent/STIM_006.jpg
3000.624	0.604	correct	congruent	Block3	congruent/STIM_006.jpg
3003.668	0.787	correct	congruent	Block3	congruent/STIM_006.jpg
3007.646	0.617	correct	congruent	Block3	congruent/STIM_007.jpg
3011.3	0.915	correct	congruent	Block3	congruent/STIM_007.jpg
3015.842	0.581	correct	congruent	Block3	congruent/STIM_007.jpg
3019.168	0.702	correct	congruent	Block3	congruent/STIM_007.jpg
3023.814	0.666	correct	congruent	Block3	congruent/STIM_007.jpg
3028.085	0.793	correct	congruent	Block3	congruent/STIM_008.jpg
3031.798	0.597	correct	congruent	Block3	congruent/STIM_008.jpg
3035.46	0.733	correct	congruent	Block3	congruent/STIM_008.jpg
3039.775	0.873	correct	congruent	Block3	congruent/STIM_008.jpg
3042.974	0.592	correct	congruent	Block3	congruent/STIM_008.jpg
3046.282	0.872	correct	congruent	Block3	congruent/STIM_009.jpg
3050.132	0.517	correct	congruent	Block3	congruent/STIM_009.jpg
3053.58	0.852	correct	congruent	Block3	congruent/STIM_009.jpg
3056.477	0.634	correct	congruent	Block3	congruent/STIM_009.jpg
3060.596	0.561	correct	congruent	Block3	congruent/STIM_009.jpg
3064.545	0.898	correct	congruent	Block3	congruent/STIM_010.jpg
3068.615	0.833	correct	congruent	Block3	congruent/STIM_010.jpg
3072.361	0.624	correct	congruent	Block3	congruent/STIM_010.jpg
3075.374	0.601	correct	congruent	Block3	congruent/STIM_010.jpg
3079.792	0.738	correct	congruent	Block3	congruent/STIM_010.jpg
3082.736	0.856	correct	congruent	Block3	congruent/STIM_011.jpg
3085.709	0.564	correct	congruent	Block3	congruent/STIM_011.jpg
3090.263	0.861	correct	congruent	Block3	congruent/STIM_011.jpg
3093.222	0.869	correct	congruent	Block3	congruent/STIM_011.jpg
3097.474	0.631	correct	congruent	Block3	congruent/STIM_011.jpg
3101.885	0.769	correct	congruent	Block3	congruent/STIM_012.jpg
3106.59	0.924	correct	congruent	Block3	congruent/STIM_012.jpg
3110.662	0.795	correct	congruent	Block3	congruent/STIM_012.jpg
3114.21	0.555	correct	congruent	Block3	congruent/STIM_012.jpg
3117.854	0.92	correct	congruent	Block3	congruent/STIM_012.jpg
3122.609	0.649	correct	congruent	Block3	congruent/STIM_013.jpg
3125.671	0.782	correct	congruent	Block3	congruent/STIM_013.jpg
3130.366	0.644	correct	congruent	Block3	congruent/STIM_013.jpg
3133.089	0.71	correct	congruent	Block3	congruent/STIM_013.jpg
3136.709	0.573	correct	congruent	Block3	congruent/STIM_013.jpg
3140.638	0.825	correct	congruent	Block3	congruent/STIM_014.jpg
3144.348	0.908	correct	congruent	Block3	congruent/STIM_014.jpg
3147.526	0.571	correct	congruent	Block3	congruent/STIM_014.jpg
3151.799	0.783	correct	congruent	Block3	congruent/STIM_014.jpg
3155.914	0.658	correct	congruent	Block3	congruent/STIM_014.jpg
3160.179	0.562	incorrect	congruent	Block3	congruent/STIM_015.jpg
3163.736	0.832	correct	congruent	Block3	congruent/STIM_015.jpg
3167.751	0.728	correct	congruent	Block3	congruent/STIM_015.jpg
3171.05	0.662	correct	congruent	Block3	congruent/STIM_015.jpg
3173.714	0.671	correct	congruent	Block3	congruent/STIM_015.jpg
3177.966	0.848	incorrect	congruent	Block3	congruent/STIM_016.jpg
3180.896	0.858	correct	congruent	Block3	congruent/STIM_016.jpg
3184.608	0.897	correct	congruent	Block3	congruent/STIM_016.jpg
3188.277	0.636	incorrect	congruent	Block3	congruent/STIM_016.jpg
3191.187	0.546	correct	congruent	Block3	congruent/STIM_016.jpg
3194.685	0.889	correct	congruent	Block3	congruent/STIM_017.jpg
3198.195	0.608	correct	congruent	Block3	congruent/STIM_017.jpg
3201.903	0.783	correct	congruent	Block3	congruent/STIM_017.jpg
3205.648	0.827	incorrect	congruent	Block3	congruent/STIM_017.jpg
3208.78	0.54	correct	congruent	Block3	congruent/STIM_017.jpg
3212.486	0.726	correct	congruent	Block3	congruent/STIM_018.jpg
3216.128	0.866	correct	congruent	Block3	congruent/STIM_018.jpg
3219.7	0.878	correct	congruent	Block3	congruent/STIM_018.jpg
3224.107	0.82	correct	congruent	Block3	congruent/STIM_018.jpg
3228.082	0.661	correct	congruent	Block3	congruent/STIM_018.jpg
3232.239	0.626	correct	congruent	Block3	congruent/STIM_019.jpg
3236.614	0.579	correct	congruent	Block3	congruent/STIM_019.jpg
3239.961	0.603	correct	congruent	Block3	congruent/STIM_019.jpg
3243.146	0.854	correct	congruent	Block3	congruent/STIM_019.jpg
3246.8	0.739	correct	congruent	Block3	congruent/STIM_019.jpg
3249.562	0.701	correct	congruent	Block3	congruent/STIM_020.jpg
3254.143	0.711	correct	congruent	Block3	congruent/STIM_020.jpg
3258.727	0.888	correct	congruent	Block3	congruent/STIM_020.jpg
3262.279	0.896	correct	congruent	Block3	congruent/STIM_020.jpg
3265.581	0.728	correct	congruent	Block3	congruent/STIM_020.jpg
3268.798	0.872	correct	congruent	Block3	congruent/STIM_021.jpg
3271.983	0.72	incorrect	congruent	Block3	congruent/STIM_021.jpg
3276.139	0.842	correct	congruent	Block3	congruent/STIM_021.jpg
3279.27	0.799	correct	congruent	Block3	congruent/STIM_021.jpg
3282.871	0.568	correct	congruent	Block3	congruent/STIM_021.jpg
3287.319	0.885	correct	congruent	Block3	congruent/STIM_022.jpg
3291.695	0.61	correct	congruent	Block3	congruent/STIM_022.jpg
3295.43	0.653	correct	congruent	Block3	congruent/STIM_022.jpg
3299.995	0.888	correct	congruent	Block3	congruent/STIM_022.jpg
3303.198	0.9	correct	congruent	Block3	congruent/STIM_022.jpg
3307.785	0.91	correct	congruent	Block3	congruent/STIM_023.jpg
3311.682	0.923	correct	congruent	Block3	congruent/STIM_023.jpg
3315.221	0.531	correct	congruent	Block3	congruent/STIM_023.jpg
3319.227	0.854	correct	congruent	Block3	congruent/STIM_023.jpg
3323.489	0.608	correct	congruent	Block3	congruent/STIM_023.jpg
3326.583	0.699	correct	congruent	Block3	congruent/STIM_024.jpg
3329.999	0.703	correct	congruent	Block3	congruent/STIM_024.jpg
3333.92	0.75	correct	congruent	Block3	congruent/STIM_024.jpg
3336.784	0.547	correct	congruent	Block3	congruent/STIM_024.jpg
3340.976	0.52	correct	congruent	Block3	congruent/STIM_024.jpg
3344.99	0.718	correct	congruent	Block3	congruent/STIM_025.jpg
3348.986	0.591	correct	congruent	Block3	congruent/STIM_025.jpg
3353.571	0.766	correct	congruent	Block3	congruent/STIM_025.jpg
3357.26	0.603	correct	congruent	Block3	congruent/STIM_025.jpg
3360.211	0.719	correct	congruent	Block3	congruent/STIM_025.jpg
3364.69	0.758	correct	congruent	Block3	congruent/STIM_026.jpg
3368.851	0.691	correct	congruent	Block3	congruent/STIM_026.jpg
3373.283	0.887	correct	congruent	Block3	congruent/STIM_026.jpg
3376.777	0.805	correct	congruent	Block3	congruent/STIM_026.jpg
3381.18	0.746	correct	congruent	Block3	congruent/STIM_026.jpg
3385.503	0.85	correct	congruent	Block3	congruent/STIM_027.jpg
3388.844	0.553	correct	congruent	Block3	congruent/STIM_027.jpg
3391.52	0.706	correct	congruent	Block3	congruent/STIM_027.jpg
3394.752	0.922	correct	congruent	Block3	congruent/STIM_027.jpg
3397.969	0.887	incorrect	congruent	Block3	congruent/STIM_027.jpg
3401.241	0.928	correct	congruent	Block3	congruent/STIM_028.jpg
3406.007	0.636	correct	congruent	Block3	congruent/STIM_028.jpg
3409.202	0.815	correct	congruent	Block3	congruent/STIM_028.jpg
3413.506	0.707	correct	congruent	Block3	congruent/STIM_028.jpg
3417.763	0.909	correct	congruent	Block3	congruent/STIM_028.jpg
3421.761	0.79	correct	congruent	Block3	congruent/STIM_029.jpg
3424.803	0.564	correct	congruent	Block3	congruent/STIM_029.jpg
3427.39	0.734	correct	congruent	Block3	congruent/STIM_029.jpg
3431.466	0.577	incorrect	congruent	Block3	congruent/STIM_029.jpg
3435.756	0.533	correct	congruent	Block3	congruent/STIM_029.jpg
