onset	duration	response_time_ms	trial_type	learning_stage	stimulus	response_port
0.0	0.782	782.3	incongruent	Block1	incongruent/STIM_000.jpg	100
2.844	0.985	984.8	incongruent	Block1	incongruent/STIM_000.jpg	99
6.57	0.984	983.8	incongruent	Block1	incongruent/STIM_000.jpg	99
10.135	1.249	1248.8	incongruent	Block1	incongruent/STIM_000.jpg	100
15.324	0.914	914.1	incongruent	Block1	incongruent/STIM_000.jpg	100
19.245	1.007	1007.3	incongruent	Block1	incongruent/STIM_001.jpg	99
24.159	0.906	906.3	incongruent	Block1	incongruent/STIM_001.jpg	99
27.988	0.78	780.2	incongruent	Block1	incongruent/STIM_001.jpg	100
30.799	1.228	1228.0	incongruent	Block1	incongruent/STIM_001.jpg	100
35.865	1.05	1049.7	incongruent	Block1	incongruent/STIM_001.jpg	99
39.011	1.121	1120.7	incongruent	Block1	incongruent/STIM_002.jpg	100
43.683	0.695	694.9	incongruent	Block1	incongruent/STIM_002.jpg	100
46.989	0.927	927.0	incongruent	Block1	incongruent/STIM_002.jpg	100
50.821	1.223	1222.9	incongruent	Block1	incongruent/STIM_002.jpg	100
54.303	1.12	1120.5	incongruent	Block1	incongruent/STIM_002.jpg	100
57.464	1.197	1196.7	incongruent	Block1	incongruent/STIM_003.jpg	100
61.203	1.02	1019.6	incongruent	Block1	incongruent/STIM_003.jpg	100
64.923	1.266	1266.5	incongruent	Block1	incongruent/STIM_003.jpg	100
69.987	0.836	835.5	incongruent	Block1	incongruent/STIM_003.jpg	99
74.757	0.723	723.2	incongruent	Block1	incongruent/STIM_003.jpg	100
79.095	1.504	1504.2	incongruent	Block1	incongruent/STIM_004.jpg	99
83.729	0.939	939.1	incongruent	Block1	incongruent/STIM_004.jpg	99
87.723	1.035	1035.3	incongruent	Block1	incongruent/STIM_004.jpg	99
91.103	0.884	883.9	incongruent	Block1	incongruent/STIM_004.jpg	99
94.418	1.072	1072.3	incongruent	Block1	incongruent/STIM_004.jpg	100
97.699	1.53	1529.7	incongruent	Block1	incongruent/STIM_005.jpg	99
101.246	1.415	1414.6	incongruent	Block1	incongruent/STIM_005.jpg	99
105.714	0.933	933.2	incongruent	Block1	incongruent/STIM_005.jpg	100
110.311	0.623	622.7	incongruent	Block1	incongruent/STIM_005.jpg	100
114.34	1.184	1183.5	incongruent	Block1	incongruent/STIM_005.jpg	100
118.002	0.826	825.8	incongruent	Block1	incongruent/STIM_006.jpg	100
121.769	0.822	822.1	incongruent	Block1	incongruent/STIM_006.jpg	100
124.71	0.785	785.4	incongruent	Block1	incongruent/STIM_006.jpg	99
127.648	0.968	968.5	incongruent	Block1	incongruent/STIM_006.jpg	100
131.641	1.054	1053.5	incongruent	Block1	incongruent/STIM_006.jpg	100
136.091	1.546	1545.9	incongruent	Block1	incongruent/STIM_007.jpg	99
141.292	1.329	1328.7	incongruent	Block1	incongruent/STIM_007.jpg	100
145.594	1.097	1097.0	incongruent	Block1	incongruent/STIM_007.jpg	99
149.68	0.744	744.5	incongruent	Block1	incongruent/STIM_007.jpg	100
152.721	0.601	600.9	incongruent	Block1	incongruent/STIM_007.jpg	99
156.166	1.183	1182.9	incongruent	Block1	incongruent/STIM_008.jpg	100
159.724	0.72	720.0	incongruent	Block1	incongruent/STIM_008.jpg	99
163.017	1.188	1187.6	incongruent	Block1	incongruent/STIM_008.jpg	100
167.095	1.219	1218.7	incongruent	Block1	incongruent/STIM_008.jpg	100
171.823	0.858	858.3	incongruent	Block1	incongruent/STIM_008.jpg	100
175.842	1.516	1515.8	incongruent	Block1	incongruent/STIM_009.jpg	100
181.228	1.278	1278.4	incongruent	Block1	incongruent/STIM_009.jpg	99
186.364	0.891	891.1	incongruent	Block1	incongruent/STIM_009.jpg	100
190.121	1.172	1172.5	incongruent	Block1	incongruent/STIM_009.jpg	99
194.003	1.09	1090.5	incongruent	Block1	incongruent/STIM_009.jpg	99
197.13	1.427	1427.3	incongruent	Block1	incongruent/STIM_010.jpg	100
201.092	1.08	1079.8	incongruent	Block1	incongruent/STIM_010.jpg	100
205.308	0.753	753.4	incongruent	Block1	incongruent/STIM_010.jpg	99
209.823	1.0	999.6	incongruent	Block1	incongruent/STIM_010.jpg	99
213.267	0.987	987.2	incongruent	Block1	incongruent/STIM_010.jpg	100
216.549	1.353	1353.0	incongruent	Block1	incongruent/STIM_011.jpg	99
220.922	1.049	1049.4	incongruent	Block1	incongruent/STIM_011.jpg	100
225.831	1.225	1225.4	incongruent	Block1	incongruent/STIM_011.jpg	99
230.005	0.769	768.8	incongruent	Block1	incongruent/STIM_011.jpg	99
233.996	1.066	1066.1	incongruent	Block1	incongruent/STIM_011.jpg	99
238.482	0.732	732.5	incongruent	Block1	incongruent/STIM_012.jpg	100
242.76	0.926	925.8	incongruent	Block1	incongruent/STIM_012.jpg	100
247.426	1.297	1297.4	incongruent	Block1	incongruent/STIM_012.jpg	100
251.352	0.74	740.3	incongruent	Block1	incongruent/STIM_012.jpg	99
254.614	0.988	988.3	incongruent	Block1	incongruent/STIM_012.jpg	99
258.792	1.238	1238.4	incongruent	Block1	incongruent/STIM_013.jpg	99
264.005	1.362	1362.1	incongruent	Block1	incongruent/STIM_013.jpg	100
268.297	1.251	1251.3	incongruent	Block1	incongruent/STIM_013.jpg	100
272.542	0.816	815.9	incongruent	Block1	incongruent/STIM_013.jpg	100
276.994	0.791	790.6	incongruent	Block1	incongruent/STIM_013.jpg	99
280.646	0.767	767.2	incongruent	Block1	incongruent/STIM_014.jpg	99
284.842	0.937	937.1	incongruent	Block1	incongruent/STIM_014.jpg	100
289.61	1.016	1016.3	incongruent	Block1	incongruent/STIM_014.jpg	100
293.652	1.08	1080.0	incongruent	Block1	incongruent/STIM_014.jpg	100
297.505	1.086	1086.3	incongruent	Block1	incongruent/STIM_014.jpg	100
301.752	0.814	814.0	incongruent	Block1	incongruent/STIM_015.jpg	100
304.736	0.777	777.0	incongruent	Block1	incongruent/STIM_015.jpg	99
309.174	0.886	885.9	incongruent	Block1	incongruent/STIM_015.jpg	100
313.328	1.118	1118.5	incongruent	Block1	incongruent/STIM_015.jpg	100
316.825	0.59	590.0	incongruent	Block1	incongruent/STIM_015.jpg	99
319.807	1.286	1285.5	incongruent	Block1	incongruent/STIM_016.jpg	99
323.169	0.931	930.8	incongruent	Block1	incongruent/STIM_016.jpg	100
326.665	0.732	731.6	incongruent	Block1	incongruent/STIM_016.jpg	99
330.584	0.722	721.9	incongruent	Block1	incongruent/STIM_016.jpg	99
333.732	0.611	610.9	incongruent	Block1	incongruent/STIM_016.jpg	99
336.993	0.924	924.0	incongruent	Block1	incongruent/STIM_017.jpg	100
341.792	1.157	1156.9	incongruent	Block1	incongruent/STIM_017.jpg	99
345.374	1.241	1240.8	incongruent	Block1	incongruent/STIM_017.jpg	99
349.905	0.949	948.6	incongruent	Block1	incongruent/STIM_017.jpg	99
353.168	1.162	1161.8	incongruent	Block1	incongruent/STIM_017.jpg	99
357.057	1.2	1199.5	incongruent	Block1	incongruent/STIM_018.jpg	100
361.552	0.808	808.2	incongruent	Block1	incongruent/STIM_018.jpg	100
366.195	0.727	727.2	incongruent	Block1	incongruent/STIM_018.jpg	99
370.332	0.816	815.8	incongruent	Block1	incongruent/STIM_018.jpg	100
374.028	1.114	1114.2	incongruent	Block1	incongruent/STIM_018.jpg	100
377.733	1.351	1350.7	incongruent	Block1	incongruent/STIM_019.jpg	100
382.769	1.308	1308.0	incongruent	Block1	incongruent/STIM_019.jpg	99
387.937	1.222	1222.1	incongruent	Block1	incongruent/STIM_019.jpg	100
391.718	1.12	1120.3	incongruent	Block1	incongruent/STIM_019.jpg	100
394.87	0.992	992.0	incongruent	Block1	incongruent/STIM_019.jpg	100
398.402	1.104	1104.4	incongruent	Block1	incongruent/STIM_020.jpg	100
403.357	1.348	1348.1	incongruent	Block1	incongruent/STIM_020.jpg	99
407.455	0.702	702.2	incongruent	Block1	incongruent/STIM_020.jpg	100
411.227	0.846	846.2	incongruent	Block1	incongruent/STIM_020.jpg	99
415.296	0.772	772.4	incongruent	Block1	incongruent/STIM_020.jpg	99
419.708	0.891	890.7	incongruent	Block1	incongruent/STIM_021.jpg	99
423.703	1.195	1195.2	incongruent	Block1	incongruent/STIM_021.jpg	99
427.407	1.3	1299.7	incongruent	Block1	incongruent/STIM_021.jpg	100
431.832	0.876	875.7	incongruent	Block1	incongruent/STIM_021.jpg	99
436.568	0.889	889.0	incongruent	Block1	incongruent/STIM_021.jpg	99
439.467	1.062	1062.2	incongruent	Block1	incongruent/STIM_022.jpg	100
442.776	1.455	1455.2	incongruent	Block1	incongruent/STIM_022.jpg	100
446.758	0.918	917.7	incongruent	Block1	incongruent/STIM_022.jpg	100
451.285	0.954	953.8	incongruent	Block1	incongruent/STIM_022.jpg	99
455.52	0.627	627.0	incongruent	Block1	incongruent/STIM_022.jpg	99
458.283	1.397	1396.9	incongruent	Block1	incongruent/STIM_023.jpg	99
462.939	1.129	1129.2	incongruent	Block1	incongruent/STIM_023.jpg	99
467.636	0.927	927.4	incongruent	Block1	incongruent/STIM_023.jpg	100
472.51	0.931	930.9	incongruent	Block1	incongruent/STIM_023.jpg	99
477.31	1.009	1008.9	incongruent	Block1	incongruent/STIM_023.jpg	99
481.86	1.243	1243.3	incongruent	Block1	incongruent/STIM_024.jpg	100
486.529	0.828	827.9	incongruent	Block1	incongruent/STIM_024.jpg	100
490.873	0.738	737.6	incongruent	Block1	incongruent/STIM_024.jpg	99
494.544	0.846	845.6	incongruent	Block1	incongruent/STIM_024.jpg	99
497.811	1.22	1220.2	incongruent	Block1	incongruent/STIM_024.jpg	100
502.967	1.211	1210.7	incongruent	Block1	incongruent/STIM_025.jpg	100
506.319	1.315	1314.9	incongruent	Block1	incongruent/STIM_025.jpg	99
509.85	0.694	693.9	incongruent	Block1	incongruent/STIM_025.jpg	100
513.566	1.079	1079.1	incongruent	Block1	incongruent/STIM_025.jpg	99
517.177	0.704	703.8	incongruent	Block1	incongruent/STIM_025.jpg	100
521.331	1.501	1501.0	incongruent	Block1	incongruent/STIM_026.jpg	99
525.26	1.095	1095.1	incongruent	Block1	incongruent/STIM_026.jpg	100
528.939	1.029	1029.4	incongruent	Block1	incongruent/STIM_026.jpg	100
532.499	0.637	636.7	incongruent	Block1	incongruent/STIM_026.jpg	100
536.023	1.009	1008.9	incongruent	Block1	incongruent/STIM_026.jpg	100
540.651	1.488	1488.3	incongruent	Block1	incongruent/STIM_027.jpg	99
544.43	1.164	1163.8	incongruent	Block1	incongruent/STIM_027.jpg	100
548.439	1.197	1197.4	incongruent	Block1	incongruent/STIM_027.jpg	99
552.335	1.178	1178.2	incongruent	Block1	incongruent/STIM_027.jpg	100
555.646	0.925	925.4	incongruent	Block1	incongruent/STIM_027.jpg	99
560.174	1.199	1198.8	incongruent	Block1	incongruent/STIM_028.jpg	100
565.184	1.04	1039.6	incongruent	Block1	incongruent/STIM_028.jpg	99
568.613	1.347	1346.6	incongruent	Block1	incongruent/STIM_028.jpg	99
572.698	0.875	875.4	incongruent	Block1	incongruent/STIM_028.jpg	100
576.749	0.98	979.6	incongruent	Block1	incongruent/STIM_028.jpg	99
579.752	1.497	1497.3	incongruent	Block1	incongruent/STIM_029.jpg	100
584.352	0.77	770.5	incongruent	Block1	incongruent/STIM_029.jpg	99
587.287	0.908	907.6	incongruent	Block1	incongruent/STIM_029.jpg	99
590.207	0.649	648.8	incongruent	Block1	incongruent/STIM_029.jpg	100
593.904	0.814	814.4	incongruent	Block1	incongruent/STIM_029.jpg	100
596.939	0.604	603.8	congruent	Block1	congruent/STIM_000.jpg	100
600.179	0.572	572.5	congruent	Block1	congruent/STIM_000.jpg	99
604.585	0.654	653.6	congruent	Block1	congruent/STIM_000.jpg	99
608.492	0.912	912.5	congruent	Block1	congruent/STIM_000.jpg	100
612.144	0.618	618.5	congruent	Block1	congruent/STIM_000.jpg	100
616.083	0.523	522.8	congruent	Block1	congruent/STIM_001.jpg	99
619.869	0.917	917.1	congruent	Block1	congruent/STIM_001.jpg	99
623.948	0.867	866.7	congruent	Block1	congruent/STIM_001.jpg	99
627.326	0.63	630.3	congruent	Block1	congruent/STIM_001.jpg	99
630.382	0.561	560.7	congruent	Block1	congruent/STIM_001.jpg	99
634.917	0.642	641.7	congruent	Block1	congruent/STIM_002.jpg	100
638.22	0.844	843.9	congruent	Block1	congruent/STIM_002.jpg	99
642.584	0.553	552.9	congruent	Block1	congruent/STIM_002.jpg	100
646.249	0.63	630.4	congruent	Block1	congruent/STIM_002.jpg	100
650.569	0.757	756.9	congruent	Block1	congruent/STIM_002.jpg	99
655.079	0.651	650.9	congruent	Block1	congruent/STIM_003.jpg	99
659.013	0.609	609.1	congruent	Block1	congruent/STIM_003.jpg	99
663.262	0.648	647.7	congruent	Block1	congruent/STIM_003.jpg	100
667.128	0.684	684.2	congruent	Block1	congruent/STIM_003.jpg	100
671.774	0.725	724.8	congruent	Block1	congruent/STIM_003.jpg	99
675.339	0.738	738.5	congruent	Block1	congruent/STIM_004.jpg	100
679.488	0.517	516.9	congruent	Block1	congruent/STIM_004.jpg	99
683.064	0.583	582.9	congruent	Block1	congruent/STIM_004.jpg	99
687.295	0.592	591.6	congruent	Block1	congruent/STIM_004.jpg	99
690.894	0.611	610.7	congruent	Block1	congruent/STIM_004.jpg	100
694.317	0.522	521.6	congruent	Block1	congruent/STIM_005.jpg	100
697.305	0.912	912.3	congruent	Block1	congruent/STIM_005.jpg	99
701.11	0.737	737.4	congruent	Block1	congruent/STIM_005.jpg	100
704.464	0.702	701.9	congruent	Block1	congruent/STIM_005.jpg	99
708.74	0.9	899.7	congruent	Block1	congruent/STIM_005.jpg	99
711.862	0.673	672.6	congruent	Block1	congruent/STIM_006.jpg	100
714.866	0.73	730.1	congruent	Block1	congruent/STIM_006.jpg	100
718.79	0.828	827.5	congruent	Block1	congruent/STIM_006.jpg	99
722.861	0.676	675.9	congruent	Block1	congruent/STIM_006.jpg	99
725.805	0.547	547.2	congruent	Block1	congruent/STIM_006.jpg	99
728.577	0.638	637.7	congruent	Block1	congruent/STIM_007.jpg	100
732.282	0.698	697.5	congruent	Block1	congruent/STIM_007.jpg	100
736.051	0.852	852.0	congruent	Block1	congruent/STIM_007.jpg	100
739.757	0.592	592.4	congruent	Block1	congruent/STIM_007.jpg	99
743.523	0.861	860.9	congruent	Block1	congruent/STIM_007.jpg	100
747.579	0.535	535.3	congruent	Block1	congruent/STIM_008.jpg	99
751.594	0.799	799.4	congruent	Block1	congruent/STIM_008.jpg	100
756.064	0.574	574.3	congruent	Block1	congruent/STIM_008.jpg	99
759.752	0.671	671.4	congruent	Block1	congruent/STIM_008.jpg	100
763.083	0.697	697.3	congruent	Block1	congruent/STIM_008.jpg	100
767.442	0.621	621.0	congruent	Block1	congruent/STIM_009.jpg	100
770.851	0.617	617.2	congruent	Block1	congruent/STIM_009.jpg	99
775.154	0.849	848.6	congruent	Block1	congruent/STIM_009.jpg	99
779.655	0.867	866.6	congruent	Block1	congruent/STIM_009.jpg	100
782.694	0.862	862.0	congruent	Block1	congruent/STIM_009.jpg	99
786.394	0.599	599.2	congruent	Block1	congruent/STIM_010.jpg	100
790.027	0.521	520.8	congruent	Block1	congruent/STIM_010.jpg	99
792.893	0.82	820.1	congruent	Block1	congruent/STIM_010.jpg	100
797.657	0.759	758.9	congruent	Block1	congruent/STIM_010.jpg	99
801.954	0.918	918.2	congruent	Block1	congruent/STIM_010.jpg	99
805.742	0.662	662.2	congruent	Block1	congruent/STIM_011.jpg	100
809.567	0.793	793.0	congruent	Block1	congruent/STIM_011.jpg	99
812.85	0.897	897.2	congruent	Block1	congruent/STIM_011.jpg	100
816.833	0.84	840.1	congruent	Block1	congruent/STIM_011.jpg	99
820.024	0.841	841.1	congruent	Block1	congruent/STIM_011.jpg	99
824.469	0.925	925.4	congruent	Block1	congruent/STIM_012.jpg	100
829.241	0.769	768.7	congruent	Block1	congruent/STIM_012.jpg	100
833.498	0.53	529.8	congruent	Block1	congruent/STIM_012.jpg	99
838.006	0.74	739.7	congruent	Block1	congruent/STIM_012.jpg	100
841.053	0.912	912.5	congruent	Block1	congruent/STIM_012.jpg	100
844.901	0.583	583.0	congruent	Block1	congruent/STIM_013.jpg	100
847.601	0.834	833.8	congruent	Block1	congruent/STIM_013.jpg	99
852.24	0.604	604.4	congruent	Block1	congruent/STIM_013.jpg	100
855.897	0.741	740.9	congruent	Block1	congruent/STIM_013.jpg	99
860.408	0.779	778.6	congruent	Block1	congruent/STIM_013.jpg	100
864.333	0.741	741.0	congruent	Block1	congruent/STIM_014.jpg	99
867.736	0.916	916.5	congruent	Block1	congruent/STIM_014.jpg	99
871.843	0.626	626.2	congruent	Block1	congruent/STIM_014.jpg	99
874.764	0.566	566.1	congruent	Block1	congruent/STIM_014.jpg	100
878.989	0.668	668.2	congruent	Block1	congruent/STIM_014.jpg	99
883.358	0.879	879.2	congruent	Block1	congruent/STIM_015.jpg	100
888.061	0.785	784.6	congruent	Block1	congruent/STIM_015.jpg	100
892.116	0.926	925.8	congruent	Block1	congruent/STIM_015.jpg	99
895.06	0.66	660.2	congruent	Block1	congruent/STIM_015.jpg	99
898.119	0.647	646.6	congruent	Block1	congruent/STIM_015.jpg	99
902.503	0.789	789.1	congruent	Block1	congruent/STIM_016.jpg	99
906.282	0.518	517.5	congruent	Block1	congruent/STIM_016.jpg	99
909.817	0.651	651.3	congruent	Block1	congruent/STIM_016.jpg	99
913.794	0.771	770.7	congruent	Block1	congruent/STIM_016.jpg	99
916.873	0.828	828.3	congruent	Block1	congruent/STIM_016.jpg	99
920.077	0.78	780.4	congruent	Block1	congruent/STIM_017.jpg	100
923.423	0.875	874.8	congruent	Block1	congruent/STIM_017.jpg	99
926.991	0.606	605.5	congruent	Block1	congruent/STIM_017.jpg	100
931.159	0.824	824.3	congruent	Block1	congruent/STIM_017.jpg	100
934.451	0.916	915.5	congruent	Block1	congruent/STIM_017.jpg	99
939.193	0.696	696.0	congruent	Block1	congruent/STIM_018.jpg	99
942.911	0.897	896.9	congruent	Block1	congruent/STIM_018.jpg	100
946.48	0.87	869.9	congruent	Block1	congruent/STIM_018.jpg	99
951.214	0.834	833.5	congruent	Block1	congruent/STIM_018.jpg	100
955.245	0.616	616.4	congruent	Block1	congruent/STIM_018.jpg	100
959.85	0.807	807.3	congruent	Block1	congruent/STIM_019.jpg	100
963.137	0.668	667.8	congruent	Block1	congruent/STIM_019.jpg	99
965.846	0.857	857.3	congruent	Block1	congruent/STIM_019.jpg	100
970.547	0.913	913.4	congruent	Block1	congruent/STIM_019.jpg	100
974.474	0.885	885.3	congruent	Block1	congruent/STIM_019.jpg	100
978.382	0.531	530.7	congruent	Block1	congruent/STIM_020.jpg	100
981.302	0.569	568.7	congruent	Block1	congruent/STIM_020.jpg	99
984.025	0.531	531.4	congruent	Block1	congruent/STIM_020.jpg	99
988.11	0.727	727.3	congruent	Block1	congruent/STIM_020.jpg	99
991.759	0.801	801.0	congruent	Block1	congruent/STIM_020.jpg	99
995.128	0.623	622.8	congruent	Block1	congruent/STIM_021.jpg	99
999.253	0.794	794.0	congruent	Block1	congruent/STIM_021.jpg	100
1003.163	0.73	730.1	congruent	Block1	congruent/STIM_021.jpg	100
1006.418	0.709	708.9	congruent	Block1	congruent/STIM_021.jpg	99
1010.611	0.847	846.7	congruent	Block1	congruent/STIM_021.jpg	100
1014.752	0.68	679.7	congruent	Block1	congruent/STIM_022.jpg	100
1017.861	0.813	813.0	congruent	Block1	congruent/STIM_022.jpg	99
1020.846	0.686	685.5	congruent	Block1	congruent/STIM_022.jpg	100
1024.13	0.69	689.6	congruent	Block1	congruent/STIM_022.jpg	99
1028.27	0.864	863.6	congruent	Block1	congruent/STIM_022.jpg	99
1032.845	0.777	776.6	congruent	Block1	congruent/STIM_023.jpg	99
1036.642	0.718	718.4	congruent	Block1	congruent/STIM_023.jpg	100
1040.43	0.898	898.2	congruent	Block1	congruent/STIM_023.jpg	99
1043.505	0.826	825.8	congruent	Block1	congruent/STIM_023.jpg	100
1046.334	0.671	670.7	congruent	Block1	congruent/STIM_023.jpg	100
1049.161	0.627	627.0	congruent	Block1	congruent/STIM_024.jpg	100
1052.009	0.598	597.9	congruent	Block1	congruent/STIM_024.jpg	99
1056.333	0.546	545.7	congruent	Block1	congruent/STIM_024.jpg	99
1060.291	0.767	766.7	congruent	Block1	congruent/STIM_024.jpg	100
1063.426	0.579	579.2	congruent	Block1	congruent/STIM_024.jpg	100
1067.488	0.702	702.0	congruent	Block1	congruent/STIM_025.jpg	99
1072.142	0.608	607.5	congruent	Block1	congruent/STIM_025.jpg	99
1076.526	0.633	632.7	congruent	Block1	congruent/STIM_025.jpg	100
1080.42	0.605	605.1	congruent	Block1	congruent/STIM_025.jpg	100
1083.257	0.768	767.5	congruent	Block1	congruent/STIM_025.jpg	99
1086.049	0.759	758.9	congruent	Block1	congruent/STIM_026.jpg	100
1089.958	0.92	920.4	congruent	Block1	congruent/STIM_026.jpg	100
1093.877	0.649	649.2	congruent	Block1	congruent/STIM_026.jpg	99
1097.332	0.747	747.2	congruent	Block1	congruent/STIM_026.jpg	99
1101.018	0.599	599.1	congruent	Block1	congruent/STIM_026.jpg	99
1104.439	0.865	864.6	congruent	Block1	congruent/STIM_027.jpg	100
1108.505	0.804	804.4	congruent	Block1	congruent/STIM_027.jpg	99
1111.96	0.865	865.3	congruent	Block1	congruent/STIM_027.jpg	100
1116.042	0.912	912.5	congruent	Block1	congruent/STIM_027.jpg	99
1119.768	0.566	566.4	congruent	Block1	congruent/STIM_027.jpg	100
1123.982	0.781	781.2	congruent	Block1	congruent/STIM_028.jpg	100
1128.277	0.652	652.1	congruent	Block1	congruent/STIM_028.jpg	99
1132.115	0.656	656.2	congruent	Block1	congruent/STIM_028.jpg	100
1136.304	0.757	756.7	congruent	Block1	congruent/STIM_028.jpg	99
1139.809	0.747	747.2	congruent	Block1	congruent/STIM_028.jpg	99
1143.352	0.778	777.9	congruent	Block1	congruent/STIM_029.jpg	100
1146.79	0.612	612.4	congruent	Block1	congruent/STIM_029.jpg	100
1150.713	0.613	612.6	congruent	Block1	congruent/STIM_029.jpg	100
1154.399	0.81	810.4	congruent	Block1	congruent/STIM_029.jpg	99
1157.928	0.758	757.9	congruent	Block1	congruent/STIM_029.jpg	100
1161.451	1.061	1061.2	incongruent	Block2	incongruent/STIM_000.jpg	99
1165.45	1.043	1042.6	incongruent	Block2	incongruent/STIM_000.jpg	99
1169.387	0.696	695.8	incongruent	Block2	incongruent/STIM_000.jpg	100
1172.516	0.663	663.1	incongruent	Block2	incongruent/STIM_000.jpg	99
1176.365	0.603	602.6	incongruent	Block2	incongruent/STIM_000.jpg	100
1180.907	0.915	914.6	incongruent	Block2	incongruent/STIM_001.jpg	99
1184.948	0.63	630.0	incongruent	Block2	incongruent/STIM_001.jpg	99
1189.134	0.83	830.1	incongruent	Block2	incongruent/STIM_001.jpg	100
1192.945	0.558	557.7	incongruent	Block2	incongruent/STIM_001.jpg	100
1195.941	0.829	829.2	incongruent	Block2	incongruent/STIM_001.jpg	100
1200.459	1.046	1045.6	incongruent	Block2	incongruent/STIM_002.jpg	99
1203.687	0.945	945.1	incongruent	Block2	incongruent/STIM_002.jpg	99
1207.076	0.985	984.7	incongruent	Block2	incongruent/STIM_002.jpg	99
1211.423	0.992	992.0	incongruent	Block2	incongruent/STIM_002.jpg	100
1216.341	0.976	975.9	incongruent	Block2	incongruent/STIM_002.jpg	100
1219.336	1.292	1292.3	incongruent	Block2	incongruent/STIM_003.jpg	99
1223.411	0.952	952.2	incongruent	Block2	incongruent/STIM_003.jpg	100
1226.484	0.546	545.5	incongruent	Block2	incongruent/STIM_003.jpg	100
1230.754	1.015	1015.0	incongruent	Block2	incongruent/STIM_003.jpg	100
1235.632	1.041	1040.9	incongruent	Block2	incongruent/STIM_003.jpg	99
1238.793	0.634	633.6	incongruent	Block2	incongruent/STIM_004.jpg	99
1242.368	0.824	824.5	incongruent	Block2	incongruent/STIM_004.jpg	99
1247.029	1.1	1100.4	incongruent	Block2	incongruent/STIM_004.jpg	99
1250.37	0.779	779.0	incongruent	Block2	incongruent/STIM_004.jpg	99
1254.681	0.61	610.4	incongruent	Block2	incongruent/STIM_004.jpg	100
1258.791	0.793	793.4	incongruent	Block2	incongruent/STIM_005.jpg	100
1263.584	0.804	804.5	incongruent	Block2	incongruent/STIM_005.jpg	100
1267.839	0.547	547.2	incongruent	Block2	incongruent/STIM_005.jpg	99
1271.135	0.911	910.6	incongruent	Block2	incongruent/STIM_005.jpg	99
1274.339	0.51	510.2	incongruent	Block2	incongruent/STIM_005.jpg	99
1277.964	1.115	1114.9	incongruent	Block2	incongruent/STIM_006.jpg	100
1281.45	1.139	1139.2	incongruent	Block2	incongruent/STIM_006.jpg	100
1284.976	0.718	717.5	incongruent	Block2	incongruent/STIM_006.jpg	100
1288.517	1.083	1082.8	incongruent	Block2	incongruent/STIM_006.jpg	99
1293.56	0.902	902.2	incongruent	Block2	incongruent/STIM_006.jpg	99
1297.607	0.925	924.8	incongruent	Block2	incongruent/STIM_007.jpg	100
1300.682	0.71	709.8	incongruent	Block2	incongruent/STIM_007.jpg	100
1304.601	0.862	862.0	incongruent	Block2	incongruent/STIM_007.jpg	100
1308.584	0.627	626.9	incongruent	Block2	incongruent/STIM_007.jpg	99
1312.66	0.64	639.7	incongruent	Block2	incongruent/STIM_007.jpg	99
1316.545	0.845	844.8	incongruent	Block2	incongruent/STIM_008.jpg	100
1320.49	1.046	1046.4	incongruent	Block2	incongruent/STIM_008.jpg	99
1323.904	0.875	874.9	incongruent	Block2	incongruent/STIM_008.jpg	100
1327.109	0.849	848.7	incongruent	Block2	incongruent/STIM_008.jpg	99
1331.647	0.745	744.7	incongruent	Block2	incongruent/STIM_008.jpg	100
1335.949	0.655	654.8	incongruent	Block2	incongruent/STIM_009.jpg	100
1339.807	0.845	845.1	incongruent	Block2	incongruent/STIM_009.jpg	100
1344.003	1.102	1101.5	incongruent	Block2	incongruent/STIM_009.jpg	100
1348.499	0.593	593.4	incongruent	Block2	incongruent/STIM_009.jpg	99
1351.371	1.083	1083.0	incongruent	Block2	incongruent/STIM_009.jpg	99
1355.755	0.923	923.2	incongruent	Block2	incongruent/STIM_010.jpg	99
1359.721	1.019	1018.9	incongruent	Block2	incongruent/STIM_010.jpg	99
1364.31	0.93	930.3	incongruent	Block2	incongruent/STIM_010.jpg	100
1368.072	0.671	671.2	incongruent	Block2	incongruent/STIM_010.jpg	100
1372.695	0.689	688.7	incongruent	Block2	incongruent/STIM_010.jpg	100
1376.672	0.98	980.5	incongruent	Block2	incongruent/STIM_011.jpg	100
1381.043	0.683	683.4	incongruent	Block2	incongruent/STIM_011.jpg	100
1383.943	1.068	1067.6	incongruent	Block2	incongruent/STIM_011.jpg	100
1387.428	0.657	657.4	incongruent	Block2	incongruent/STIM_011.jpg	99
1390.775	0.543	542.8	incongruent	Block2	incongruent/STIM_011.jpg	99
1395.161	1.078	1078.4	incongruent	Block2	incongruent/STIM_012.jpg	99
1398.43	1.06	1059.5	incongruent	Block2	incongruent/STIM_012.jpg	99
1401.504	0.713	713.0	incongruent	Block2	incongruent/STIM_012.jpg	100
1405.405	0.66	660.3	incongruent	Block2	incongruent/STIM_012.jpg	100
1408.437	0.851	851.3	incongruent	Block2	incongruent/STIM_012.jpg	100
1411.339	0.654	654.5	incongruent	Block2	incongruent/STIM_013.jpg	100
1414.47	1.179	1178.7	incongruent	Block2	incongruent/STIM_013.jpg	100
1419.297	1.074	1073.8	incongruent	Block2	incongruent/STIM_013.jpg	100
1424.229	0.665	664.9	incongruent	Block2	incongruent/STIM_013.jpg	99
1428.436	0.889	888.8	incongruent	Block2	incongruent/STIM_013.jpg	99
1433.048	0.844	844.4	incongruent	Block2	incongruent/STIM_014.jpg	100
1437.876	1.148	1147.5	incongruent	Block2	incongruent/STIM_014.jpg	100
1442.918	0.956	955.7	incongruent	Block2	incongruent/STIM_014.jpg	100
1445.925	1.031	1031.0	incongruent	Block2	incongruent/STIM_014.jpg	100
1450.729	0.876	875.6	incongruent	Block2	incongruent/STIM_014.jpg	99
1454.04	0.624	624.4	incongruent	Block2	incongruent/STIM_015.jpg	99
1457.185	1.211	1211.4	incongruent	Block2	incongruent/STIM_015.jpg	99
1460.536	1.137	1136.7	incongruent	Block2	incongruent/STIM_015.jpg	100
1463.958	0.676	676.0	incongruent	Block2	incongruent/STIM_015.jpg	100
1468.593	0.603	603.2	incongruent	Block2	incongruent/STIM_015.jpg	100
1471.492	1.27	1270.2	incongruent	Block2	incongruent/STIM_016.jpg	99
1475.293	1.223	1223.2	incongruent	Block2	incongruent/STIM_016.jpg	99
1480.292	0.885	885.3	incongruent	Block2	incongruent/STIM_016.jpg	100
1483.713	1.066	1066.5	incongruent	Block2	incongruent/STIM_016.jpg	100
1487.425	0.832	831.6	incongruent	Block2	incongruent/STIM_016.jpg	100
1491.372	1.104	1103.6	incongruent	Block2	incongruent/STIM_017.jpg	99
1495.226	0.975	974.8	incongruent	Block2	incongruent/STIM_017.jpg	99
1498.799	0.747	747.0	incongruent	Block2	incongruent/STIM_017.jpg	99
1502.384	0.807	807.4	incongruent	Block2	incongruent/STIM_017.jpg	100
1506.322	0.736	736.0	incongruent	Block2	incongruent/STIM_017.jpg	100
1510.357	1.054	1054.3	incongruent	Block2	incongruent/STIM_018.jpg	100
1515.309	1.192	1191.9	incongruent	Block2	incongruent/STIM_018.jpg	99
1519.24	0.548	547.8	incongruent	Block2	incongruent/STIM_018.jpg	99
1522.397	0.906	906.3	incongruent	Block2	incongruent/STIM_018.jpg	100
1526.636	0.617	617.0	incongruent	Block2	incongruent/STIM_018.jpg	99
1530.411	1.043	1042.6	incongruent	Block2	incongruent/STIM_019.jpg	100
1533.536	0.746	745.9	incongruent	Block2	incongruent/STIM_019.jpg	99
1536.52	0.697	697.1	incongruent	Block2	incongruent/STIM_019.jpg	99
1539.306	0.782	781.7	incongruent	Block2	incongruent/STIM_019.jpg	100
1543.068	1.02	1019.9	incongruent	Block2	incongruent/STIM_019.jpg	100
1547.536	0.719	718.6	incongruent	Block2	incongruent/STIM_020.jpg	99
1552.14	0.712	711.6	incongruent	Block2	incongruent/STIM_020.jpg	100
1556.529	1.052	1052.2	incongruent	Block2	incongruent/STIM_020.jpg	100
1560.142	0.698	698.3	incongruent	Block2	incongruent/STIM_020.jpg	99
1563.52	1.07	1070.0	incongruent	Block2	incongruent/STIM_020.jpg	100
1566.997	0.931	931.0	incongruent	Block2	incongruent/STIM_021.jpg	100
1570.033	0.935	934.7	incongruent	Block2	incongruent/STIM_021.jpg	99
1573.269	1.042	1042.2	incongruent	Block2	incongruent/STIM_021.jpg	99
1577.308	0.988	988.1	incongruent	Block2	incongruent/STIM_021.jpg	100
1581.169	0.566	565.9	incongruent	Block2	incongruent/STIM_021.jpg	99
1583.79	0.811	810.6	incongruent	Block2	incongruent/STIM_022.jpg	99
1588.34	0.781	781.3	incongruent	Block2	incongruent/STIM_022.jpg	100
1592.422	0.942	941.6	incongruent	Block2	incongruent/STIM_022.jpg	100
1597.094	0.981	980.6	incongruent	Block2	incongruent/STIM_022.jpg	99
1601.067	0.975	974.8	incongruent	Block2	incongruent/STIM_022.jpg	100
1605.886	1.039	1039.2	incongruent	Block2	incongruent/STIM_023.jpg	99
1609.676	0.968	967.5	incongruent	Block2	incongruent/STIM_023.jpg	100
1614.201	0.854	854.3	incongruent	Block2	incongruent/STIM_023.jpg	100
1617.613	0.798	797.7	incongruent	Block2	incongruent/STIM_023.jpg	99
1621.369	0.856	855.5	incongruent	Block2	incongruent/STIM_023.jpg	99
1625.42	0.866	866.4	incongruent	Block2	incongruent/STIM_024.jpg	100
1628.943	0.984	983.5	incongruent	Block2	incongruent/STIM_024.jpg	100
1632.157	0.895	895.3	incongruent	Block2	incongruent/STIM_024.jpg	99
1635.32	0.516	516.0	incongruent	Block2	incongruent/STIM_024.jpg	100
1638.763	0.68	679.9	incongruent	Block2	incongruent/STIM_024.jpg	100
1642.294	0.904	903.5	incongruent	Block2	incongruent/STIM_025.jpg	99
1646.431	0.676	675.9	incongruent	Block2	incongruent/STIM_025.jpg	100
1650.468	0.645	644.9	incongruent	Block2	incongruent/STIM_025.jpg	99
1654.15	0.876	875.6	incongruent	Block2	incongruent/STIM_025.jpg	99
1658.424	0.699	698.9	incongruent	Block2	incongruent/STIM_025.jpg	99
1662.762	1.095	1094.7	incongruent	Block2	incongruent/STIM_026.jpg	99
1667.477	0.766	766.1	incongruent	Block2	incongruent/STIM_026.jpg	99
1671.007	0.852	852.4	incongruent	Block2	incongruent/STIM_026.jpg	100
1675.419	0.535	535.4	incongruent	Block2	incongruent/STIM_026.jpg	100
1679.079	1.085	1084.9	incongruent	Block2	incongruent/STIM_026.jpg	99
1684.139	0.807	807.2	incongruent	Block2	incongruent/STIM_027.jpg	99
1687.661	0.791	791.2	incongruent	Block2	incongruent/STIM_027.jpg	100
1690.82	0.769	769.2	incongruent	Block2	incongruent/STIM_027.jpg	100
1694.691	1.002	1002.3	incongruent	Block2	incongruent/STIM_027.jpg	100
1698.449	0.761	761.4	incongruent	Block2	incongruent/STIM_027.jpg	99
1703.004	0.868	868.5	incongruent	Block2	incongruent/STIM_028.jpg	100
1706.937	0.6	600.5	incongruent	Block2	incongruent/STIM_028.jpg	100
1711.194	0.877	876.6	incongruent	Block2	incongruent/STIM_028.jpg	100
1715.245	0.783	782.7	incongruent	Block2	incongruent/STIM_028.jpg	100
1718.262	1.037	1037.2	incongruent	Block2	incongruent/STIM_028.jpg	100
1723.242	1.216	1216.3	incongruent	Block2	incongruent/STIM_029.jpg	100
1727.146	1.185	1185.0	incongruent	Block2	incongruent/STIM_029.jpg	100
1730.717	0.944	944.2	incongruent	Block2	incongruent/STIM_029.jpg	99
1735.462	0.55	550.4	incongruent	Block2	incongruent/STIM_029.jpg	99
1739.815	0.683	683.3	incongruent	Block2	incongruent/STIM_029.jpg	100
1743.017	0.774	773.7	congruent	Block2	congruent/STIM_000.jpg	99
1747.238	0.552	551.6	congruent	Block2	congruent/STIM_000.jpg	99
1751.092	0.842	842.4	congruent	Block2	congruent/STIM_000.jpg	100
1754.823	0.586	586.1	congruent	Block2	congruent/STIM_000.jpg	99
1758.092	0.554	554.5	congruent	Block2	congruent/STIM_000.jpg	99
1762.501	0.812	812.2	congruent	Block2	congruent/STIM_001.jpg	99
1767.27	0.576	575.6	congruent	Block2	congruent/STIM_001.jpg	100
1770.247	0.655	655.2	congruent	Block2	congruent/STIM_001.jpg	100
1774.856	0.574	573.6	congruent	Block2	congruent/STIM_001.jpg	100
1778.43	0.921	921.3	congruent	Block2	congruent/STIM_001.jpg	99
1781.878	0.57	569.5	congruent	Block2	congruent/STIM_002.jpg	100
1785.649	0.678	677.5	congruent	Block2	congruent/STIM_002.jpg	99
1788.523	0.921	920.9	congruent	Block2	congruent/STIM_002.jpg	99
1791.664	0.75	749.5	congruent	Block2	congruent/STIM_002.jpg	99
1795.225	0.576	576.0	congruent	Block2	congruent/STIM_002.jpg	99
1797.924	0.548	548.2	congruent	Block2	congruent/STIM_003.jpg	100
1801.412	0.771	771.1	congruent	Block2	congruent/STIM_003.jpg	100
1805.443	0.699	699.0	congruent	Block2	congruent/STIM_003.jpg	99
1809.385	0.806	806.0	congruent	Block2	congruent/STIM_003.jpg	100
1813.428	0.814	813.9	congruent	Block2	congruent/STIM_003.jpg	99
1816.839	0.892	892.0	congruent	Block2	congruent/STIM_004.jpg	99
1821.54	0.902	902.5	congruent	Block2	congruent/STIM_004.jpg	100
1824.914	0.758	758.0	congruent	Block2	congruent/STIM_004.jpg	100
1828.954	0.601	601.4	congruent	Block2	congruent/STIM_004.jpg	100
1833.142	0.666	665.7	congruent	Block2	congruent/STIM_004.jpg	100
1836.625	0.629	629.2	congruent	Block2	congruent/STIM_005.jpg	99
1839.785	0.56	560.5	congruent	Block2	congruent/STIM_005.jpg	99
1843.174	0.705	704.9	congruent	Block2	congruent/STIM_005.jpg	100
1847.69	0.548	548.3	congruent	Block2	congruent/STIM_005.jpg	99
1850.911	0.618	618.5	congruent	Block2	congruent/STIM_005.jpg	99
1854.804	0.566	566.1	congruent	Block2	congruent/STIM_006.jpg	99
1858.396	0.55	549.7	congruent	Block2	congruent/STIM_006.jpg	100
1862.778	0.568	568.4	congruent	Block2	congruent/STIM_006.jpg	99
1867.214	0.658	658.0	congruent	Block2	congruent/STIM_006.jpg	100
1870.998	0.81	810.4	congruent	Block2	congruent/STIM_006.jpg	99
1873.975	0.682	682.5	congruent	Block2	congruent/STIM_007.jpg	99
1877.22	0.617	616.7	congruent	Block2	congruent/STIM_007.jpg	99
1881.578	0.761	760.6	congruent	Block2	congruent/STIM_007.jpg	99
1885.596	0.674	674.5	congruent	Block2	congruent/STIM_007.jpg	99
1888.97	0.578	577.7	congruent	Block2	congruent/STIM_007.jpg	100
1893.505	0.736	735.5	congruent	Block2	congruent/STIM_008.jpg	100
1897.905	0.87	870.2	congruent	Block2	congruent/STIM_008.jpg	99
1901.731	0.875	874.9	congruent	Block2	congruent/STIM_008.jpg	99
1906.243	0.872	872.1	congruent	Block2	congruent/STIM_008.jpg	100
1910.855	0.644	644.4	congruent	Block2	congruent/STIM_008.jpg	99
1915.302	0.92	919.9	congruent	Block2	congruent/STIM_009.jpg	99
1920.054	0.524	524.0	congruent	Block2	congruent/STIM_009.jpg	100
1924.527	0.922	921.6	congruent	Block2	congruent/STIM_009.jpg	100
1928.062	0.605	604.9	congruent	Block2	congruent/STIM_009.jpg	100
1932.575	0.659	659.1	congruent	Block2	congruent/STIM_009.jpg	99
1936.251	0.577	577.1	congruent	Block2	congruent/STIM_010.jpg	99
1940.153	0.824	824.2	congruent	Block2	congruent/STIM_010.jpg	100
1944.962	0.918	917.7	congruent	Block2	congruent/STIM_010.jpg	100
1948.979	0.666	665.8	congruent	Block2	congruent/STIM_010.jpg	100
1953.295	0.53	529.6	congruent	Block2	congruent/STIM_010.jpg	100
1955.857	0.678	678.0	congruent	Block2	congruent/STIM_011.jpg	100
1959.525	0.909	909.0	congruent	Block2	congruent/STIM_011.jpg	99
1962.946	0.652	652.3	congruent	Block2	congruent/STIM_011.jpg	100
1966.872	0.641	640.7	congruent	Block2	congruent/STIM_011.jpg	100
1969.639	0.596	596.2	congruent	Block2	congruent/STIM_011.jpg	99
1973.209	0.648	648.2	congruent	Block2	congruent/STIM_012.jpg	100
1977.655	0.824	823.5	congruent	Block2	congruent/STIM_012.jpg	99
1982.058	0.641	640.6	congruent	Block2	congruent/STIM_012.jpg	99
1986.394	0.756	756.5	congruent	Block2	congruent/STIM_012.jpg	99
1990.765	0.925	925.0	congruent	Block2	congruent/STIM_012.jpg	100
1994.104	0.596	596.4	congruent	Block2	congruent/STIM_013.jpg	100
1997.901	0.759	758.7	congruent	Block2	congruent/STIM_013.jpg	100
2002.512	0.888	888.2	congruent	Block2	congruent/STIM_013.jpg	100
2005.602	0.92	920.1	congruent	Block2	congruent/STIM_013.jpg	99
2010.241	0.667	666.6	congruent	Block2	congruent/STIM_013.jpg	100
2013.274	0.579	579.1	congruent	Block2	congruent/STIM_014.jpg	99
2016.916	0.646	645.5	congruent	Block2	congruent/STIM_014.jpg	100
2019.897	0.629	628.9	congruent	Block2	congruent/STIM_014.jpg	99
2023.682	0.808	808.5	congruent	Block2	congruent/STIM_014.jpg	100
2027.792	0.877	876.9	congruent	Block2	congruent/STIM_014.jpg	100
2031.484	0.663	662.9	congruent	Block2	congruent/STIM_015.jpg	99
2036.065	0.704	703.5	congruent	Block2	congruent/STIM_015.jpg	100
2039.376	0.873	872.7	congruent	Block2	congruent/STIM_015.jpg	99
2044.012	0.923	922.9	congruent	Block2	congruent/STIM_015.jpg	99
2047.656	0.565	565.2	congruent	Block2	congruent/STIM_015.jpg	100
2051.504	0.827	827.1	congruent	Block2	congruent/STIM_016.jpg	100
2056.174	0.798	797.8	congruent	Block2	congruent/STIM_016.jpg	100
2060.637	0.534	534.4	congruent	Block2	congruent/STIM_016.jpg	99
2064.432	0.61	609.5	congruent	Block2	congruent/STIM_016.jpg	100
2068.537	0.813	813.4	congruent	Block2	congruent/STIM_016.jpg	100
2072.682	0.606	606.0	congruent	Block2	congruent/STIM_017.jpg	100
2076.065	0.574	574.3	congruent	Block2	congruent/STIM_017.jpg	100
2079.858	0.796	796.0	congruent	Block2	congruent/STIM_017.jpg	100
2083.684	0.71	710.2	congruent	Block2	congruent/STIM_017.jpg	100
2087.843	0.687	686.8	congruent	Block2	congruent/STIM_017.jpg	99
2091.238	0.593	592.9	congruent	Block2	congruent/STIM_018.jpg	100
2093.925	0.796	795.5	congruent	Block2	congruent/STIM_018.jpg	100
2097.515	0.646	645.8	congruent	Block2	congruent/STIM_018.jpg	99
2102.104	0.559	559.3	congruent	Block2	congruent/STIM_018.jpg	100
2104.924	0.73	729.5	congruent	Block2	congruent/STIM_018.jpg	100
2108.798	0.602	601.8	congruent	Block2	congruent/STIM_019.jpg	99
2112.782	0.586	586.3	congruent	Block2	congruent/STIM_019.jpg	99
2116.936	0.804	804.2	congruent	Block2	congruent/STIM_019.jpg	99
2120.224	0.745	744.8	congruent	Block2	congruent/STIM_019.jpg	99
2124.91	0.847	847.4	congruent	Block2	congruent/STIM_019.jpg	99
2129.177	0.795	794.8	congruent	Block2	congruent/STIM_020.jpg	100
2133.257	0.67	669.7	congruent	Block2	congruent/STIM_020.jpg	99
2137.877	0.775	774.7	congruent	Block2	congruent/STIM_020.jpg	99
2141.71	0.575	574.8	congruent	Block2	congruent/STIM_020.jpg	99
2145.241	0.549	548.7	congruent	Block2	congruent/STIM_020.jpg	99
2148.627	0.766	766.4	congruent	Block2	congruent/STIM_021.jpg	99
2152.757	0.524	524.5	congruent	Block2	congruent/STIM_021.jpg	100
2157.164	0.807	806.9	congruent	Block2	congruent/STIM_021.jpg	100
2161.532	0.554	554.0	congruent	Block2	congruent/STIM_021.jpg	100
2164.991	0.637	636.6	congruent	Block2	congruent/STIM_021.jpg	100
2168.366	0.68	680.1	congruent	Block2	congruent/STIM_022.jpg	100
2171.981	0.798	797.5	congruent	Block2	congruent/STIM_022.jpg	100
2176.351	0.546	546.2	congruent	Block2	congruent/STIM_022.jpg	100
2180.778	0.55	549.8	congruent	Block2	congruent/STIM_022.jpg	99
2184.602	0.632	631.8	congruent	Block2	congruent/STIM_022.jpg	99
2187.489	0.594	594.4	congruent	Block2	congruent/STIM_023.jpg	100
2190.32	0.571	570.7	congruent	Block2	congruent/STIM_023.jpg	99
2193.64	0.921	921.3	congruent	Block2	congruent/STIM_023.jpg	99
2197.621	0.607	607.2	congruent	Block2	congruent/STIM_023.jpg	99
2200.741	0.624	624.0	congruent	Block2	congruent/STIM_023.jpg	99
2205.018	0.576	576.2	congruent	Block2	congruent/STIM_024.jpg	100
2209.574	0.68	679.9	congruent	Block2	congruent/STIM_024.jpg	99
2212.764	0.734	734.3	congruent	Block2	congruent/STIM_024.jpg	100
2216.033	0.898	897.7	congruent	Block2	congruent/STIM_024.jpg	100
2219.265	0.928	928.5	congruent	Block2	congruent/STIM_024.jpg	99
2223.765	0.576	576.0	congruent	Block2	congruent/STIM_025.jpg	99
2227.781	0.826	825.9	congruent	Block2	congruent/STIM_025.jpg	99
2231.45	0.882	882.2	congruent	Block2	congruent/STIM_025.jpg	100
2234.703	0.779	779.3	congruent	Block2	congruent/STIM_025.jpg	100
2238.112	0.809	808.8	congruent	Block2	congruent/STIM_025.jpg	99
2241.321	0.894	894.4	congruent	Block2	congruent/STIM_026.jpg	99
2244.265	0.756	755.5	congruent	Block2	congruent/STIM_026.jpg	100
2247.346	0.614	613.6	congruent	Block2	congruent/STIM_026.jpg	100
2250.079	0.642	642.0	congruent	Block2	congruent/STIM_026.jpg	100
2254.156	0.667	666.8	congruent	Block2	congruent/STIM_026.jpg	100
2257.105	0.896	895.9	congruent	Block2	congruent/STIM_027.jpg	99
2260.141	0.585	584.9	congruent	Block2	congruent/STIM_027.jpg	99
2264.08	0.538	537.5	congruent	Block2	congruent/STIM_027.jpg	100
2267.667	0.653	653.2	congruent	Block2	congruent/STIM_027.jpg	99
2271.69	0.752	752.5	congruent	Block2	congruent/STIM_027.jpg	99
2275.443	0.613	613.4	congruent	Block2	congruent/STIM_028.jpg	99
2279.619	0.771	770.7	congruent	Block2	congruent/STIM_028.jpg	99
2284.265	0.53	529.5	congruent	Block2	congruent/STIM_028.jpg	100
2288.035	0.887	886.6	congruent	Block2	congruent/STIM_028.jpg	99
2291.673	0.522	522.4	congruent	Block2	congruent/STIM_028.jpg	99
2294.257	0.73	730.2	congruent	Block2	congruent/STIM_029.jpg	99
2297.764	0.825	824.9	congruent	Block2	congruent/STIM_029.jpg	100
2301.263	0.582	582.2	congruent	Block2	congruent/STIM_029.jpg	100
2305.367	0.551	550.7	congruent	Block2	congruent/STIM_029.jpg	100
2308.113	0.867	867.3	congruent	Block2	congruent/STIM_029.jpg	100
2311.166	0.53	529.7	incongruent	Block3	incongruent/STIM_000.jpg	99
2314.427	0.65	650.0	incongruent	Block3	incongruent/STIM_000.jpg	100
2318.135	0.934	934.1	incongruent	Block3	incongruent/STIM_000.jpg	99
2322.059	0.63	630.2	incongruent	Block3	incongruent/STIM_000.jpg	99
2326.538	0.904	904.0	incongruent	Block3	incongruent/STIM_000.jpg	100
2330.75	1.024	1023.9	incongruent	Block3	incongruent/STIM_001.jpg	99
2334.197	0.817	816.6	incongruent	Block3	incongruent/STIM_001.jpg	100
2337.602	0.786	786.5	incongruent	Block3	incongruent/STIM_001.jpg	100
2341.744	0.548	548.5	incongruent	Block3	incongruent/STIM_001.jpg	100
2344.778	0.609	609.0	incongruent	Block3	incongruent/STIM_001.jpg	99
2348.263	1.009	1009.0	incongruent	Block3	incongruent/STIM_002.jpg	99
2352.355	1.06	1059.8	incongruent	Block3	incongruent/STIM_002.jpg	99
2355.838	0.722	722.3	incongruent	Block3	incongruent/STIM_002.jpg	100
2358.563	0.934	933.5	incongruent	Block3	incongruent/STIM_002.jpg	99
2361.753	0.561	561.4	incongruent	Block3	incongruent/STIM_002.jpg	100
2365.946	1.001	1000.7	incongruent	Block3	incongruent/STIM_003.jpg	99
2369.344	0.681	680.9	incongruent	Block3	incongruent/STIM_003.jpg	100
2373.903	0.982	982.5	incongruent	Block3	incongruent/STIM_003.jpg	100
2377.913	0.757	757.2	incongruent	Block3	incongruent/STIM_003.jpg	99
2382.083	0.556	556.4	incongruent	Block3	incongruent/STIM_003.jpg	100
2386.275	0.838	837.8	incongruent	Block3	incongruent/STIM_004.jpg	100
2390.536	0.714	714.3	incongruent	Block3	incongruent/STIM_004.jpg	99
2394.151	0.664	664.3	incongruent	Block3	incongruent/STIM_004.jpg	99
2397.063	0.946	945.7	incongruent	Block3	incongruent/STIM_004.jpg	99
2401.63	1.042	1041.7	incongruent	Block3	incongruent/STIM_004.jpg	100
2405.01	0.566	566.1	incongruent	Block3	incongruent/STIM_005.jpg	100
2408.783	0.951	951.2	incongruent	Block3	incongruent/STIM_005.jpg	99
2412.895	1.019	1019.1	incongruent	Block3	incongruent/STIM_005.jpg	99
2417.457	0.654	653.5	incongruent	Block3	incongruent/STIM_005.jpg	99
2421.3	0.57	569.7	incongruent	Block3	incongruent/STIM_005.jpg	99
2424.541	0.576	575.5	incongruent	Block3	incongruent/STIM_006.jpg	99
2428.029	0.833	833.4	incongruent	Block3	incongruent/STIM_006.jpg	99
2432.425	0.636	636.2	incongruent	Block3	incongruent/STIM_006.jpg	100
2436.058	0.89	889.9	incongruent	Block3	incongruent/STIM_006.jpg	100
2439.434	1.002	1002.4	incongruent	Block3	incongruent/STIM_006.jpg	99
2443.672	0.523	523.4	incongruent	Block3	incongruent/STIM_007.jpg	100
2447.305	1.0	999.6	incongruent	Block3	incongruent/STIM_007.jpg	99
2450.753	0.764	764.1	incongruent	Block3	incongruent/STIM_007.jpg	100
2454.518	0.909	909.1	incongruent	Block3	incongruent/STIM_007.jpg	100
2457.802	0.86	859.7	incongruent	Block3	incongruent/STIM_007.jpg	99
2461.81	0.952	952.1	incongruent	Block3	incongruent/STIM_008.jpg	100
2465.841	1.015	1014.9	incongruent	Block3	incongruent/STIM_008.jpg	99
2469.637	0.7	700.4	incongruent	Block3	incongruent/STIM_008.jpg	99
2472.462	0.65	650.4	incongruent	Block3	incongruent/STIM_008.jpg	99
2475.442	0.556	556.0	incongruent	Block3	incongruent/STIM_008.jpg	99
2479.038	0.802	801.7	incongruent	Block3	incongruent/STIM_009.jpg	100
2482.977	1.062	1061.7	incongruent	Block3	incongruent/STIM_009.jpg	100
2486.501	0.86	860.5	incongruent	Block3	incongruent/STIM_009.jpg	100
2489.971	0.851	850.7	incongruent	Block3	incongruent/STIM_009.jpg	99
2494.155	1.024	1023.5	incongruent	Block3	incongruent/STIM_009.jpg	100
2498.787	0.979	978.8	incongruent	Block3	incongruent/STIM_010.jpg	99
2501.942	0.808	807.6	incongruent	Block3	incongruent/STIM_010.jpg	100
2506.115	0.978	978.3	incongruent	Block3	incongruent/STIM_010.jpg	100
2509.854	0.574	573.6	incongruent	Block3	incongruent/STIM_010.jpg	99
2513.013	0.992	992.5	incongruent	Block3	incongruent/STIM_010.jpg	100
2516.452	1.068	1068.2	incongruent	Block3	incongruent/STIM_011.jpg	100
2520.397	0.745	744.7	incongruent	Block3	incongruent/STIM_011.jpg	100
2525.123	0.868	867.7	incongruent	Block3	incongruent/STIM_011.jpg	100
2529.903	0.754	753.9	incongruent	Block3	incongruent/STIM_011.jpg	99
2533.012	0.654	654.2	incongruent	Block3	incongruent/STIM_011.jpg	100
2536.907	0.966	966.3	incongruent	Block3	incongruent/STIM_012.jpg	100
2541.107	0.58	580.2	incongruent	Block3	incongruent/STIM_012.jpg	99
2544.601	0.942	942.3	incongruent	Block3	incongruent/STIM_012.jpg	100
2548.397	0.858	858.5	incongruent	Block3	incongruent/STIM_012.jpg	100
2552.358	0.822	821.7	incongruent	Block3	incongruent/STIM_012.jpg	99
2556.266	0.581	580.7	incongruent	Block3	incongruent/STIM_013.jpg	100
2560.034	0.956	956.2	incongruent	Block3	incongruent/STIM_013.jpg	99
2563.324	0.597	597.0	incongruent	Block3	incongruent/STIM_013.jpg	100
2567.021	0.891	890.6	incongruent	Block3	incongruent/STIM_013.jpg	99
2570.127	0.683	683.4	incongruent	Block3	incongruent/STIM_013.jpg	99
2573.644	0.999	999.0	incongruent	Block3	incongruent/STIM_014.jpg	99
2576.893	0.897	896.7	incongruent	Block3	incongruent/STIM_014.jpg	99
2581.732	0.646	646.1	incongruent	Block3	incongruent/STIM_014.jpg	99
2584.582	0.678	677.5	incongruent	Block3	incongruent/STIM_014.jpg	99
2588.117	0.822	822.0	incongruent	Block3	incongruent/STIM_014.jpg	100
2592.49	0.657	657.1	incongruent	Block3	incongruent/STIM_015.jpg	99
2596.42	0.739	738.6	incongruent	Block3	incongruent/STIM_015.jpg	99
2600.683	0.717	716.7	incongruent	Block3	incongruent/STIM_015.jpg	100
2603.769	0.844	844.3	incongruent	Block3	incongruent/STIM_015.jpg	99
2608.318	0.723	722.6	incongruent	Block3	incongruent/STIM_015.jpg	100
2612.605	0.974	974.4	incongruent	Block3	incongruent/STIM_016.jpg	100
2615.651	0.634	634.1	incongruent	Block3	incongruent/STIM_016.jpg	100
2618.447	0.978	977.5	incongruent	Block3	incongruent/STIM_016.jpg	99
2621.922	0.568	568.4	incongruent	Block3	incongruent/STIM_016.jpg	100
2625.02	0.976	975.8	incongruent	Block3	incongruent/STIM_016.jpg	100
2628.074	0.515	515.1	incongruent	Block3	incongruent/STIM_017.jpg	99
2632.302	0.675	675.1	incongruent	Block3	incongruent/STIM_017.jpg	100
2635.075	0.585	585.1	incongruent	Block3	incongruent/STIM_017.jpg	100
2639.282	0.793	792.9	incongruent	Block3	incongruent/STIM_017.jpg	99
2643.113	0.84	840.4	incongruent	Block3	incongruent/STIM_017.jpg	100
2647.929	1.021	1021.0	incongruent	Block3	incongruent/STIM_018.jpg	100
2651.027	0.903	903.2	incongruent	Block3	incongruent/STIM_018.jpg	99
2654.778	0.574	574.5	incongruent	Block3	incongruent/STIM_018.jpg	99
2657.53	0.875	874.6	incongruent	Block3	incongruent/STIM_018.jpg	99
2661.604	0.815	815.0	incongruent	Block3	incongruent/STIM_018.jpg	99
2665.65	0.661	660.6	incongruent	Block3	incongruent/STIM_019.jpg	100
2669.672	0.701	701.2	incongruent	Block3	incongruent/STIM_019.jpg	100
2674.009	0.675	674.7	incongruent	Block3	incongruent/STIM_019.jpg	99
2678.018	0.568	567.8	incongruent	Block3	incongruent/STIM_019.jpg	100
2681.139	0.803	803.1	incongruent	Block3	incongruent/STIM_019.jpg	99
2685.41	0.964	964.2	incongruent	Block3	incongruent/STIM_020.jpg	100
2689.654	0.71	710.3	incongruent	Block3	incongruent/STIM_020.jpg	100
2693.068	0.997	997.0	incongruent	Block3	incongruent/STIM_020.jpg	100
2697.897	0.798	798.1	incongruent	Block3	incongruent/STIM_020.jpg	100
2701.589	0.788	788.2	incongruent	Block3	incongruent/STIM_020.jpg	99
2704.797	0.515	514.7	incongruent	Block3	incongruent/STIM_021.jpg	99
2709.258	0.753	752.8	incongruent	Block3	incongruent/STIM_021.jpg	99
2713.448	0.554	554.1	incongruent	Block3	incongruent/STIM_021.jpg	100
2717.914	0.85	849.5	incongruent	Block3	incongruent/STIM_021.jpg	100
2722.148	0.523	523.2	incongruent	Block3	incongruent/STIM_021.jpg	100
2725.575	1.078	1078.1	incongruent	Block3	incongruent/STIM_022.jpg	99
2728.798	0.734	734.5	incongruent	Block3	incongruent/STIM_022.jpg	100
2732.914	0.855	855.0	incongruent	Block3	incongruent/STIM_022.jpg	100
2735.858	0.982	981.5	incongruent	Block3	incongruent/STIM_022.jpg	100
2740.122	0.511	510.8	incongruent	Block3	incongruent/STIM_022.jpg	100
2743.876	1.022	1021.7	incongruent	Block3	incongruent/STIM_023.jpg	99
2748.632	1.07	1069.5	incongruent	Block3	incongruent/STIM_023.jpg	99
2753.392	1.004	1003.6	incongruent	Block3	incongruent/STIM_023.jpg	100
2757.43	0.746	746.4	incongruent	Block3	incongruent/STIM_023.jpg	99
2761.297	0.953	953.3	incongruent	Block3	incongruent/STIM_023.jpg	100
2764.319	0.904	904.2	incongruent	Block3	incongruent/STIM_024.jpg	100
2767.946	0.725	724.6	incongruent	Block3	incongruent/STIM_024.jpg	99
2772.228	0.638	637.7	incongruent	Block3	incongruent/STIM_024.jpg	100
2776.508	1.006	1005.5	incongruent	Block3	incongruent/STIM_024.jpg	99
2781.507	0.656	655.9	incongruent	Block3	incongruent/STIM_024.jpg	99
2784.446	0.735	734.8	incongruent	Block3	incongruent/STIM_025.jpg	100
2787.838	0.762	762.1	incongruent	Block3	incongruent/STIM_025.jpg	99
2792.29	0.81	809.9	incongruent	Block3	incongruent/STIM_025.jpg	99
2796.007	1.064	1063.8	incongruent	Block3	incongruent/STIM_025.jpg	99
2799.218	0.796	795.7	incongruent	Block3	incongruent/STIM_025.jpg	100
2803.128	0.718	717.5	incongruent	Block3	incongruent/STIM_026.jpg	100
2805.884	0.884	884.1	incongruent	Block3	incongruent/STIM_026.jpg	99
2810.747	0.773	773.4	incongruent	Block3	incongruent/STIM_026.jpg	99
2813.853	0.605	605.1	incongruent	Block3	incongruent/STIM_026.jpg	100
2817.04	1.019	1018.6	incongruent	Block3	incongruent/STIM_026.jpg	99
2821.691	1.031	1031.0	incongruent	Block3	incongruent/STIM_027.jpg	99
2824.898	0.998	998.1	incongruent	Block3	incongruent/STIM_027.jpg	100
2829.034	0.8	800.4	incongruent	Block3	incongruent/STIM_027.jpg	100
2831.856	0.854	854.3	incongruent	Block3	incongruent/STIM_027.jpg	99
2835.657	0.973	973.0	incongruent	Block3	incongruent/STIM_027.jpg	99
2839.37	0.633	632.6	incongruent	Block3	incongruent/STIM_028.jpg	100
2843.927	0.772	771.7	incongruent	Block3	incongruent/STIM_028.jpg	100
2847.648	1.025	1025.4	incongruent	Block3	incongruent/STIM_028.jpg	99
2851.541	0.803	803.4	incongruent	Block3	incongruent/STIM_028.jpg	99
2856.216	1.071	1071.4	incongruent	Block3	incongruent/STIM_028.jpg	99
2860.456	0.676	676.5	incongruent	Block3	incongruent/STIM_029.jpg	99
2864.325	0.991	990.9	incongruent	Block3	incongruent/STIM_029.jpg	99
2867.607	0.643	642.8	incongruent	Block3	incongruent/STIM_029.jpg	100
2872.12	1.011	1010.9	incongruent	Block3	incongruent/STIM_029.jpg	100
2876.09	0.788	788.1	incongruent	Block3	incongruent/STIM_029.jpg	100
2879.188	0.724	724.4	congruent	Block3	congruent/STIM_000.jpg	100
2883.825	0.647	647.2	congruent	Block3	congruent/STIM_000.jpg	99
2887.299	0.762	761.8	congruent	Block3	congruent/STIM_000.jpg	100
2891.979	0.638	638.2	congruent	Block3	congruent/STIM_000.jpg	100
2896.125	0.726	726.4	congruent	Block3	congruent/STIM_000.jpg	99
2900.452	0.589	589.0	congruent	Block3	congruent/STIM_001.jpg	100
2903.955	0.887	887.3	congruent	Block3	congruent/STIM_001.jpg	100
2907.604	0.621	621.1	congruent	Block3	congruent/STIM_001.jpg	99
2910.582	0.707	707.3	congruent	Block3	congruent/STIM_001.jpg	100
2914.899	0.843	843.0	congruent	Block3	congruent/STIM_001.jpg	100
2917.856	0.86	859.5	congruent	Block3	congruent/STIM_002.jpg	100
2921.319	0.69	689.5	congruent	Block3	congruent/STIM_002.jpg	99
2924.822	0.597	597.0	congruent	Block3	congruent/STIM_002.jpg	100
2929.236	0.895	895.0	congruent	Block3	congruent/STIM_002.jpg	100
2932.275	0.707	706.7	congruent	Block3	congruent/STIM_002.jpg	100
2936.469	0.762	762.0	congruent	Block3	congruent/STIM_003.jpg	100
2940.848	0.798	798.5	congruent	Block3	congruent/STIM_003.jpg	100
2944.872	0.668	668.0	congruent	Block3	congruent/STIM_003.jpg	100
2949.306	0.671	670.8	congruent	Block3	congruent/STIM_003.jpg	100
2953.278	0.924	924.0	congruent	Block3	congruent/STIM_003.jpg	99
2957.288	0.65	650.0	congruent	Block3	congruent/STIM_004.jpg	100
2960.62	0.837	836.6	congruent	Block3	congruent/STIM_004.jpg	99
2963.957	0.562	562.0	congruent	Block3	congruent/STIM_004.jpg	100
2967.72	0.851	850.7	congruent	Block3	congruent/STIM_004.jpg	99
2970.678	0.589	589.0	congruent	Block3	congruent/STIM_004.jpg	99
2974.504	0.559	558.6	congruent	Block3	congruent/STIM_005.jpg	100
2978.719	0.884	884.4	congruent	Block3	congruent/STIM_005.jpg	100
2981.815	0.662	662.4	congruent	Block3	congruent/STIM_005.jpg	99
2984.632	0.575	575.1	congruent	Block3	congruent/STIM_005.jpg	100
2987.787	0.643	643.4	congruent	Block3	congruent/STIM_005.jpg	100
2990.728	0.554	553.9	congruent	Block3	congruent/STIM_006.jpg	99
2993.367	0.592	591.7	congruent	Block3	congruent/STIM_006.jpg	100
2997.066	0.843	843.3	congruent	Block3	congruent/STIM_006.jpg	100
3000.624	0.604	603.6	congruent	Block3	congruent/STIM_006.jpg	100
3003.668	0.787	787.4	congruent	Block3	congruent/STIM_006.jpg	100
3007.646	0.617	616.8	congruent	Block3	congruent/STIM_007.jpg	99
3011.3	0.915	915.2	congruent	Block3	congruent/STIM_007.jpg	100
3015.842	0.581	580.9	congruent	Block3	congruent/STIM_007.jpg	99
3019.168	0.702	702.4	congruent	Block3	congruent/STIM_007.jpg	99
3023.814	0.666	666.4	congruent	Block3	congruent/STIM_007.jpg	99
3028.085	0.793	792.9	congruent	Block3	congruent/STIM_008.jpg	100
3031.798	0.597	596.6	congruent	Block3	congruent/STIM_008.jpg	100
3035.46	0.733	732.6	congruent	Block3	congruent/STIM_008.jpg	100
3039.775	0.873	872.7	congruent	Block3	congruent/STIM_008.jpg	99
3042.974	0.592	591.6	congruent	Block3	congruent/STIM_008.jpg	100
3046.282	0.872	871.8	congruent	Block3	congruent/STIM_009.jpg	99
3050.132	0.517	517.4	congruent	Block3	congruent/STIM_009.jpg	99
3053.58	0.852	852.1	congruent	Block3	congruent/STIM_009.jpg	99
3056.477	0.634	634.2	congruent	Block3	congruent/STIM_009.jpg	99
3060.596	0.561	561.1	congruent	Block3	congruent/STIM_009.jpg	100
3064.545	0.898	897.6	congruent	Block3	congruent/STIM_010.jpg	100
3068.615	0.833	833.1	congruent	Block3	congruent/STIM_010.jpg	99
3072.361	0.624	624.4	congruent	Block3	congruent/STIM_010.jpg	99
3075.374	0.601	600.8	congruent	Block3	congruent/STIM_010.jpg	100
3079.792	0.738	738.3	congruent	Block3	congruent/STIM_010.jpg	100
3082.736	0.856	856.0	congruent	Block3	congruent/STIM_011.jpg	99
3085.709	0.564	563.5	congruent	Block3	congruent/STIM_011.jpg	100
3090.263	0.861	860.9	congruent	Block3	congruent/STIM_011.jpg	100
3093.222	0.869	869.2	congruent	Block3	congruent/STIM_011.jpg	100
3097.474	0.631	630.7	congruent	Block3	congruent/STIM_011.jpg	100
3101.885	0.769	768.9	congruent	Block3	congruent/STIM_012.jpg	99
3106.59	0.924	924.0	congruent	Block3	congruent/STIM_012.jpg	100
3110.662	0.795	794.9	congruent	Block3	congruent/STIM_012.jpg	99
3114.21	0.555	555.0	congruent	Block3	congruent/STIM_012.jpg	99
3117.854	0.92	919.5	congruent	Block3	congruent/STIM_012.jpg	100
3122.609	0.649	649.0	congruent	Block3	congruent/STIM_013.jpg	100
3125.671	0.782	781.5	congruent	Block3	congruent/STIM_013.jpg	100
3130.366	0.644	643.5	congruent	Block3	congruent/STIM_013.jpg	99
3133.089	0.71	710.0	congruent	Block3	congruent/STIM_013.jpg	100
3136.709	0.573	573.2	congruent	Block3	congruent/STIM_013.jpg	100
3140.638	0.825	824.7	congruent	Block3	congruent/STIM_014.jpg	99
3144.348	0.908	908.2	congruent	Block3	congruent/STIM_014.jpg	99
3147.526	0.571	571.3	congruent	Block3	congruent/STIM_014.jpg	100
3151.799	0.783	783.0	congruent	Block3	congruent/STIM_014.jpg	99
3155.914	0.658	658.1	congruent	Block3	congruent/STIM_014.jpg	99
3160.179	0.562	562.3	congruent	Block3	congruent/STIM_015.jpg	99
3163.736	0.832	832.2	congruent	Block3	congruent/STIM_015.jpg	100
3167.751	0.728	727.8	congruent	Block3	congruent/STIM_015.jpg	99
3171.05	0.662	662.5	congruent	Block3	congruent/STIM_015.jpg	99
3173.714	0.671	670.6	congruent	Block3	congruent/STIM_015.jpg	99
3177.966	0.848	847.6	congruent	Block3	congruent/STIM_016.jpg	99
3180.896	0.858	857.6	congruent	Block3	congruent/STIM_016.jpg	99
3184.608	0.897	896.9	congruent	Block3	congruent/STIM_016.jpg	99
3188.277	0.636	636.3	congruent	Block3	congruent/STIM_016.jpg	99
3191.187	0.546	545.8	congruent	Block3	congruent/STIM_016.jpg	100
3194.685	0.889	888.7	congruent	Block3	congruent/STIM_017.jpg	100
3198.195	0.608	608.2	congruent	Block3	congruent/STIM_017.jpg	100
3201.903	0.783	782.7	congruent	Block3	congruent/STIM_017.jpg	99
3205.648	0.827	826.8	congruent	Block3	congruent/STIM_017.jpg	100
3208.78	0.54	540.2	congruent	Block3	congruent/STIM_017.jpg	100
3212.486	0.726	726.5	congruent	Block3	congruent/STIM_018.jpg	99
3216.128	0.866	865.6	congruent	Block3	congruent/STIM_018.jpg	100
3219.7	0.878	877.5	congruent	Block3	congruent/STIM_018.jpg	100
3224.107	0.82	819.5	congruent	Block3	congruent/STIM_018.jpg	100
3228.082	0.661	661.0	congruent	Block3	congruent/STIM_018.jpg	99
3232.239	0.626	625.5	congruent	Block3	congruent/STIM_019.jpg	100
3236.614	0.579	578.8	congruent	Block3	congruent/STIM_019.jpg	99
3239.961	0.603	603.0	congruent	Block3	congruent/STIM_019.jpg	100
3243.146	0.854	853.8	congruent	Block3	congruent/STIM_019.jpg	99
3246.8	0.739	738.7	congruent	Block3	congruent/STIM_019.jpg	99
3249.562	0.701	701.1	congruent	Block3	congruent/STIM_020.jpg	100
3254.143	0.711	711.3	congruent	Block3	congruent/STIM_020.jpg	100
3258.727	0.888	888.4	congruent	Block3	congruent/STIM_020.jpg	100
3262.279	0.896	896.3	congruent	Block3	congruent/STIM_020.jpg	99
3265.581	0.728	727.9	congruent	Block3	congruent/STIM_020.jpg	100
3268.798	0.872	872.1	congruent	Block3	congruent/STIM_021.jpg	99
3271.983	0.72	719.7	congruent	Block3	congruent/STIM_021.jpg	100
3276.139	0.842	841.5	congruent	Block3	congruent/STIM_021.jpg	99
3279.27	0.799	798.8	congruent	Block3	congruent/STIM_021.jpg	99
3282.871	0.568	568.2	congruent	Block3	congruent/STIM_021.jpg	99
3287.319	0.885	885.0	congruent	Block3	congruent/STIM_022.jpg	100
3291.695	0.61	609.5	congruent	Block3	congruent/STIM_022.jpg	100
3295.43	0.653	653.1	congruent	Block3	congruent/STIM_022.jpg	100
3299.995	0.888	888.2	congruent	Block3	congruent/STIM_022.jpg	99
3303.198	0.9	900.5	congruent	Block3	congruent/STIM_022.jpg	99
3307.785	0.91	910.2	congruent	Block3	congruent/STIM_023.jpg	100
3311.682	0.923	922.7	congruent	Block3	congruent/STIM_023.jpg	99
3315.221	0.531	531.2	congruent	Block3	congruent/STIM_023.jpg	100
3319.227	0.854	853.7	congruent	Block3	congruent/STIM_023.jpg	100
3323.489	0.608	608.5	congruent	Block3	congruent/STIM_023.jpg	99
3326.583	0.699	699.0	congruent	Block3	congruent/STIM_024.jpg	99
3329.999	0.703	703.0	congruent	Block3	congruent/STIM_024.jpg	99
3333.92	0.75	750.2	congruent	Block3	congruent/STIM_024.jpg	99
3336.784	0.547	546.8	congruent	Block3	congruent/STIM_024.jpg	99
3340.976	0.52	520.0	congruent	Block3	congruent/STIM_024.jpg	100
3344.99	0.718	718.2	congruent	Block3	congruent/STIM_025.jpg	100
3348.986	0.591	591.3	congruent	Block3	congruent/STIM_025.jpg	99
3353.571	0.766	765.5	congruent	Block3	congruent/STIM_025.jpg	99
3357.26	0.603	602.6	congruent	Block3	congruent/STIM_025.jpg	100
3360.211	0.719	718.6	congruent	Block3	congruent/STIM_025.jpg	99
3364.69	0.758	757.8	congruent	Block3	congruent/STIM_026.jpg	100
3368.851	0.691	690.9	congruent	Block3	congruent/STIM_026.jpg	99
3373.283	0.887	886.8	congruent	Block3	congruent/STIM_026.jpg	100
3376.777	0.805	805.2	congruent	Block3	congruent/STIM_026.jpg	100
3381.18	0.746	746.0	congruent	Block3	congruent/STIM_026.jpg	100
3385.503	0.85	849.6	congruent	Block3	congruent/STIM_027.jpg	99
3388.844	0.553	553.2	congruent	Block3	congruent/STIM_027.jpg	100
3391.52	0.706	706.5	congruent	Block3	congruent/STIM_027.jpg	99
3394.752	0.922	921.8	congruent	Block3	congruent/STIM_027.jpg	99
3397.969	0.887	886.8	congruent	Block3	congruent/STIM_027.jpg	99
3401.241	0.928	928.3	congruent	Block3	congruent/STIM_028.jpg	99
3406.007	0.636	635.5	congruent	Block3	congruent/STIM_028.jpg	100
3409.202	0.815	815.1	congruent	Block3	congruent/STIM_028.jpg	99
3413.506	0.707	707.1	congruent	Block3	congruent/STIM_028.jpg	100
3417.763	0.909	908.7	congruent	Block3	congruent/STIM_028.jpg	99
3421.761	0.79	789.9	congruent	Block3	congruent/STIM_029.jpg	100
3424.803	0.564	563.8	congruent	Block3	congruent/STIM_029.jpg	99
3427.39	0.734	733.8	congruent	Block3	congruent/STIM_029.jpg	100
3431.466	0.577	577.2	congruent	Block3	congruent/STIM_029.jpg	100
3435.756	0.533	533.1	congruent	Block3	congruent/STIM_029.jpg	100
