onset	duration	accuracy_binary	trial_type	learning_stage	stimulus
0.0	1.095	1	incongruent	Block1	incongruent/STIM_000.jpg
4.503	0.755	1	incongruent	Block1	incongruent/STIM_000.jpg
8.474	0.498	0	incongruent	Block1	incongruent/STIM_000.jpg
11.185	1.034	1	incongruent	Block1	incongruent/STIM_000.jpg
14.687	0.504	1	incongruent	Block1	incongruent/STIM_000.jpg
18.598	0.705	0	incongruent	Block1	incongruent/STIM_001.jpg
23.311	1.057	1	incongruent	Block1	incongruent/STIM_001.jpg
27.501	0.926	1	incongruent	Block1	incongruent/STIM_001.jpg
31.757	0.931	0	incongruent	Block1	incongruent/STIM_001.jpg
36.675	0.598	1	incongruent	Block1	incongruent/STIM_001.jpg
40.32	1.018	1	incongruent	Block1	incongruent/STIM_002.jpg
44.13	0.614	1	incongruent	Block1	incongruent/STIM_002.jpg
48.614	0.453	1	incongruent	Block1	incongruent/STIM_002.jpg
52.855	0.73	1	incongruent	Block1	incongruent/STIM_002.jpg
56.935	0.698	1	incongruent	Block1	incongruent/STIM_002.jpg
59.72	1.278	1	incongruent	Block1	incongruent/STIM_003.jpg
64.257	0.67	0	incongruent	Block1	incongruent/STIM_003.jpg
68.405	1.155	1	incongruent	Block1	incongruent/STIM_003.jpg
72.484	0.917	1	incongruent	Block1	incongruent/STIM_003.jpg
76.001	0.732	1	incongruent	Block1	incongruent/STIM_003.jpg
79.863	0.852	1	incongruent	Block1	incongruent/STIM_004.jpg
83.354	1.107	1	incongruent	Block1	incongruent/STIM_004.jpg
87.381	1.066	1	incongruent	Block1	incongruent/STIM_004.jpg
92.509	0.498	1	incongruent	Block1	incongruent/STIM_004.jpg
96.966	0.723	1	incongruent	Block1	incongruent/STIM_004.jpg
101.781	1.16	1	incongruent	Block1	incongruent/STIM_005.jpg
107.033	1.209	1	incongruent	Block1	incongruent/STIM_005.jpg
110.741	0.985	1	incongruent	Block1	incongruent/STIM_005.jpg
114.576	0.651	1	incongruent	Block1	incongruent/STIM_005.jpg
117.597	0.71	1	incongruent	Block1	incongruent/STIM_005.jpg
121.948	0.973	1	incongruent	Block1	incongruent/STIM_006.jpg
125.209	0.792	1	incongruent	Block1	incongruent/STIM_006.jpg
128.905	0.88	1	incongruent	Block1	incongruent/STIM_006.jpg
133.358	0.985	1	incongruent	Block1	incongruent/STIM_006.jpg
137.639	0.704	1	incongruent	Block1	incongruent/STIM_006.jpg
141.624	0.584	1	incongruent	Block1	incongruent/STIM_007.jpg
145.113	0.646	1	incongruent	Block1	incongruent/STIM_007.jpg
149.741	0.797	1	incongruent	Block1	incongruent/STIM_007.jpg
153.55	0.7	1	incongruent	Block1	incongruent/STIM_007.jpg
156.385	0.685	1	incongruent	Block1	incongruent/STIM_007.jpg
160.793	0.737	1	incongruent	Block1	incongruent/STIM_008.jpg
164.93	0.959	1	incongruent	Block1	incongruent/STIM_008.jpg
168.26	0.678	1	incongruent	Block1	incongruent/STIM_008.jpg
172.862	0.569	1	incongruent	Block1	incongruent/STIM_008.jpg
176.057	0.703	1	incongruent	Block1	incongruent/STIM_008.jpg
178.934	0.6	1	incongruent	Block1	incongruent/STIM_009.jpg
183.26	1.214	1	incongruent	Block1	incongruent/STIM_009.jpg
186.889	1.119	1	incongruent	Block1	incongruent/STIM_009.jpg
191.923	0.741	1	incongruent	Block1	incongruent/STIM_009.jpg
196.533	0.612	1	incongruent	Block1	incongruent/STIM_009.jpg
199.575	0.97	1	incongruent	Block1	incongruent/STIM_010.jpg
203.152	1.152	1	incongruent	Block1	incongruent/STIM_010.jpg
207.439	0.869	1	incongruent	Block1	incongruent/STIM_010.jpg
211.026	0.99	1	incongruent	Block1	incongruent/STIM_010.jpg
215.335	0.547	1	incongruent	Block1	incongruent/STIM_010.jpg
219.656	1.008	1	incongruent	Block1	incongruent/STIM_011.jpg
223.066	0.792	1	incongruent	Block1	incongruent/STIM_011.jpg
226.49	0.952	1	incongruent	Block1	incongruent/STIM_011.jpg
229.705	0.987	1	incongruent	Block1	incongruent/STIM_011.jpg
234.15	0.937	1	incongruent	Block1	incongruent/STIM_011.jpg
237.687	1.062	1	incongruent	Block1	incongruent/STIM_012.jpg
242.459	0.71	1	incongruent	Block1	incongruent/STIM_012.jpg
246.346	0.815	1	incongruent	Block1	incongruent/STIM_012.jpg
251.027	0.812	1	incongruent	Block1	incongruent/STIM_012.jpg
254.824	1.029	1	incongruent	Block1	incongruent/STIM_012.jpg
258.23	1.022	1	incongruent	Block1	incongruent/STIM_013.jpg
261.586	0.678	1	incongruent	Block1	incongruent/STIM_013.jpg
265.099	0.892	1	incongruent	Block1	incongruent/STIM_013.jpg
268.549	0.547	0	incongruent	Block1	incongruent/STIM_013.jpg
271.388	0.742	1	incongruent	Block1	incongruent/STIM_013.jpg
276.009	1.123	0	incongruent	Block1	incongruent/STIM_014.jpg
279.961	1.096	1	incongruent	Block1	incongruent/STIM_014.jpg
283.364	0.631	1	incongruent	Block1	incongruent/STIM_014.jpg
287.578	0.549	1	incongruent	Block1	incongruent/STIM_014.jpg
291.452	0.782	1	incongruent	Block1	incongruent/STIM_014.jpg
294.328	1.341	0	incongruent	Block1	incongruent/STIM_015.jpg
299.247	1.011	1	incongruent	Block1	incongruent/STIM_015.jpg
302.994	0.717	1	incongruent	Block1	incongruent/STIM_015.jpg
307.43	0.898	1	incongruent	Block1	incongruent/STIM_015.jpg
312.049	0.886	1	incongruent	Block1	incongruent/STIM_015.jpg
315.331	0.734	1	incongruent	Block1	incongruent/STIM_016.jpg
319.033	0.96	1	incongruent	Block1	incongruent/STIM_016.jpg
323.287	0.655	1	incongruent	Block1	incongruent/STIM_016.jpg
326.4	0.916	0	incongruent	Block1	incongruent/STIM_016.jpg
330.788	0.452	1	incongruent	Block1	incongruent/STIM_016.jpg
333.534	1.241	1	incongruent	Block1	incongruent/STIM_017.jpg
338.393	0.786	1	incongruent	Block1	incongruent/STIM_017.jpg
341.85	0.736	1	incongruent	Block1	incongruent/STIM_017.jpg
345.447	0.604	1	incongruent	Block1	incongruent/STIM_017.jpg
348.298	0.672	1	incongruent	Block1	incongruent/STIM_017.jpg
351.347	1.067	0	incongruent	Block1	incongruent/STIM_018.jpg
356.341	0.923	0	incongruent	Block1	incongruent/STIM_018.jpg
360.516	0.998	1	incongruent	Block1	incongruent/STIM_018.jpg
365.635	0.964	1	incongruent	Block1	incongruent/STIM_018.jpg
370.519	0.672	1	incongruent	Block1	incongruent/STIM_018.jpg
374.395	0.609	1	incongruent	Block1	incongruent/STIM_019.jpg
379.05	0.885	1	incongruent	Block1	incongruent/STIM_019.jpg
383.075	0.669	1	incongruent	Block1	incongruent/STIM_019.jpg
387.349	0.589	1	incongruent	Block1	incongruent/STIM_019.jpg
390.894	0.67	1	incongruent	Block1	incongruent/STIM_019.jpg
395.22	0.898	1	incongruent	Block1	incongruent/STIM_020.jpg
398.374	1.007	1	incongruent	Block1	incongruent/STIM_020.jpg
402.787	0.678	1	incongruent	Block1	incongruent/STIM_020.jpg
406.862	0.633	1	incongruent	Block1	incongruent/STIM_020.jpg
410.294	0.972	1	incongruent	Block1	incongruent/STIM_020.jpg
413.711	1.094	0	incongruent	Block1	incongruent/STIM_021.jpg
417.218	0.979	0	incongruent	Block1	incongruent/STIM_021.jpg
420.826	0.557	1	incongruent	Block1	incongruent/STIM_021.jpg
424.333	0.793	1	incongruent	Block1	incongruent/STIM_021.jpg
429.023	0.785	1	incongruent	Block1	incongruent/STIM_021.jpg
433.618	1.176	0	incongruent	Block1	incongruent/STIM_022.jpg
437.978	0.72	1	incongruent	Block1	incongruent/STIM_022.jpg
442.796	1.027	1	incongruent	Block1	incongruent/STIM_022.jpg
447.743	1.037	1	incongruent	Block1	incongruent/STIM_022.jpg
452.24	0.536	0	incongruent	Block1	incongruent/STIM_022.jpg
455.433	0.667	1	incongruent	Block1	incongruent/STIM_023.jpg
459.931	1.196	1	incongruent	Block1	incongruent/STIM_023.jpg
464.312	0.654	1	incongruent	Block1	incongruent/STIM_023.jpg
467.062	0.649	1	incongruent	Block1	incongruent/STIM_023.jpg
470.031	0.591	1	incongruent	Block1	incongruent/STIM_023.jpg
472.97	0.87	1	incongruent	Block1	incongruent/STIM_024.jpg
476.368	0.723	1	incongruent	Block1	incongruent/STIM_024.jpg
480.509	0.682	0	incongruent	Block1	incongruent/STIM_024.jpg
484.926	0.815	1	incongruent	Block1	incongruent/STIM_024.jpg
489.657	0.603	1	incongruent	Block1	incongruent/STIM_024.jpg
493.417	0.919	1	incongruent	Block1	incongruent/STIM_025.jpg
497.203	0.608	1	incongruent	Block1	incongruent/STIM_025.jpg
501.487	0.602	1	incongruent	Block1	incongruent/STIM_025.jpg
505.71	0.989	1	incongruent	Block1	incongruent/STIM_025.jpg
510.267	0.726	1	incongruent	Block1	incongruent/STIM_025.jpg
513.21	0.876	1	incongruent	Block1	incongruent/STIM_026.jpg
517.086	1.203	1	incongruent	Block1	incongruent/STIM_026.jpg
521.498	1.067	1	incongruent	Block1	incongruent/STIM_026.jpg
525.926	0.588	1	incongruent	Block1	incongruent/STIM_026.jpg
529.439	0.501	1	incongruent	Block1	incongruent/STIM_026.jpg
532.809	0.921	1	incongruent	Block1	incongruent/STIM_027.jpg
537.156	0.855	1	incongruent	Block1	incongruent/STIM_027.jpg
540.962	0.882	1	incongruent	Block1	incongruent/STIM_027.jpg
545.932	0.812	1	incongruent	Block1	incongruent/STIM_027.jpg
550.06	0.811	1	incongruent	Block1	incongruent/STIM_027.jpg
554.657	0.748	1	incongruent	Block1	incongruent/STIM_028.jpg
559.235	0.692	1	incongruent	Block1	incongruent/STIM_028.jpg
562.172	0.884	1	incongruent	Block1	incongruent/STIM_028.jpg
566.355	1.062	1	incongruent	Block1	incongruent/STIM_028.jpg
569.908	0.921	1	incongruent	Block1	incongruent/STIM_028.jpg
574.647	1.15	1	incongruent	Block1	incongruent/STIM_029.jpg
579.54	0.677	1	incongruent	Block1	incongruent/STIM_029.jpg
582.873	0.623	1	incongruent	Block1	incongruent/STIM_029.jpg
586.558	0.899	1	incongruent	Block1	incongruent/STIM_029.jpg
589.908	1.004	1	incongruent	Block1	incongruent/STIM_029.jpg
594.082	0.5	1	congruent	Block1	congruent/STIM_000.jpg
596.763	0.452	0	congruent	Block1	congruent/STIM_000.jpg
599.713	0.57	1	congruent	Block1	congruent/STIM_000.jpg
603.217	0.66	1	congruent	Block1	congruent/STIM_000.jpg
606.616	0.399	1	congruent	Block1	congruent/STIM_000.jpg
609.885	0.775	1	congruent	Block1	congruent/STIM_001.jpg
612.977	0.698	0	congruent	Block1	congruent/STIM_001.jpg
617.685	0.849	1	congruent	Block1	congruent/STIM_001.jpg
622.426	0.735	1	congruent	Block1	congruent/STIM_001.jpg
626.055	0.483	1	congruent	Block1	congruent/STIM_001.jpg
629.964	0.477	1	congruent	Block1	congruent/STIM_002.jpg
634.123	0.556	1	congruent	Block1	congruent/STIM_002.jpg
637.397	0.429	1	congruent	Block1	congruent/STIM_002.jpg
640.119	0.644	1	congruent	Block1	congruent/STIM_002.jpg
643.395	0.813	1	congruent	Block1	congruent/STIM_002.jpg
646.287	0.751	1	congruent	Block1	congruent/STIM_003.jpg
650.145	0.644	1	congruent	Block1	congruent/STIM_003.jpg
653.296	0.727	1	congruent	Block1	congruent/STIM_003.jpg
656.511	0.693	1	congruent	Block1	congruent/STIM_003.jpg
660.119	0.542	1	congruent	Block1	congruent/STIM_003.jpg
664.34	0.554	1	congruent	Block1	congruent/STIM_004.jpg
667.504	0.568	1	congruent	Block1	congruent/STIM_004.jpg
670.219	0.757	1	congruent	Block1	congruent/STIM_004.jpg
674.856	0.676	1	congruent	Block1	congruent/STIM_004.jpg
678.363	0.745	1	congruent	Block1	congruent/STIM_004.jpg
682.902	0.474	1	congruent	Block1	congruent/STIM_005.jpg
686.598	0.598	1	congruent	Block1	congruent/STIM_005.jpg
689.604	0.638	1	congruent	Block1	congruent/STIM_005.jpg
692.599	0.486	1	congruent	Block1	congruent/STIM_005.jpg
696.002	0.43	1	congruent	Block1	congruent/STIM_005.jpg
698.764	0.629	1	congruent	Block1	congruent/STIM_006.jpg
702.457	0.576	1	congruent	Block1	congruent/STIM_006.jpg
706.257	0.349	1	congruent	Block1	congruent/STIM_006.jpg
708.855	0.685	1	congruent	Block1	congruent/STIM_006.jpg
712.515	0.662	1	congruent	Block1	congruent/STIM_006.jpg
715.422	0.728	1	congruent	Block1	congruent/STIM_007.jpg
719.856	0.51	0	congruent	Block1	congruent/STIM_007.jpg
723.585	0.545	1	congruent	Block1	congruent/STIM_007.jpg
728.104	0.826	1	congruent	Block1	congruent/STIM_007.jpg
731.833	0.554	1	congruent	Block1	congruent/STIM_007.jpg
735.272	0.578	1	congruent	Block1	congruent/STIM_008.jpg
739.021	0.736	1	congruent	Block1	congruent/STIM_008.jpg
741.935	0.774	1	congruent	Block1	congruent/STIM_008.jpg
745.013	0.568	1	congruent	Block1	congruent/STIM_008.jpg
748.685	0.616	1	congruent	Block1	congruent/STIM_008.jpg
751.658	0.592	1	congruent	Block1	congruent/STIM_009.jpg
756.166	0.64	1	congruent	Block1	congruent/STIM_009.jpg
760.768	0.58	1	congruent	Block1	congruent/STIM_009.jpg
764.655	0.574	1	congruent	Block1	congruent/STIM_009.jpg
769.293	0.512	1	congruent	Block1	congruent/STIM_009.jpg
773.704	0.713	1	congruent	Block1	congruent/STIM_010.jpg
777.484	0.532	1	congruent	Block1	congruent/STIM_010.jpg
781.928	0.42	1	congruent	Block1	congruent/STIM_010.jpg
785.063	0.563	1	congruent	Block1	congruent/STIM_010.jpg
788.872	0.527	1	congruent	Block1	congruent/STIM_010.jpg
792.032	0.742	1	congruent	Block1	congruent/STIM_011.jpg
796.417	0.414	1	congruent	Block1	congruent/STIM_011.jpg
800.245	0.538	1	congruent	Block1	congruent/STIM_011.jpg
803.738	0.806	1	congruent	Block1	congruent/STIM_011.jpg
808.286	0.794	1	congruent	Block1	congruent/STIM_011.jpg
811.743	0.561	1	congruent	Block1	congruent/STIM_012.jpg
815.046	0.712	1	congruent	Block1	congruent/STIM_012.jpg
818.505	0.637	1	congruent	Block1	congruent/STIM_012.jpg
822.074	0.662	1	congruent	Block1	congruent/STIM_012.jpg
826.318	0.46	1	congruent	Block1	congruent/STIM_012.jpg
829.467	0.654	1	congruent	Block1	congruent/STIM_013.jpg
832.678	0.548	1	congruent	Block1	congruent/STIM_013.jpg
835.988	0.599	1	congruent	Block1	congruent/STIM_013.jpg
840.564	0.497	1	congruent	Block1	congruent/STIM_013.jpg
843.435	0.649	1	congruent	Block1	congruent/STIM_013.jpg
846.555	0.434	1	congruent	Block1	congruent/STIM_014.jpg
849.173	0.64	1	congruent	Block1	congruent/STIM_014.jpg
852.698	0.725	1	congruent	Block1	congruent/STIM_014.jpg
857.227	0.784	1	congruent	Block1	congruent/STIM_014.jpg
860.17	0.46	1	congruent	Block1	congruent/STIM_014.jpg
863.963	0.649	1	congruent	Block1	congruent/STIM_015.jpg
867.984	0.556	1	congruent	Block1	congruent/STIM_015.jpg
872.363	0.703	1	congruent	Block1	congruent/STIM_015.jpg
875.896	0.642	1	congruent	Block1	congruent/STIM_015.jpg
879.457	0.712	1	congruent	Block1	congruent/STIM_015.jpg
883.928	0.744	1	congruent	Block1	congruent/STIM_016.jpg
888.191	0.582	1	congruent	Block1	congruent/STIM_016.jpg
892.106	0.443	1	congruent	Block1	congruent/STIM_016.jpg
895.665	0.547	1	congruent	Block1	congruent/STIM_016.jpg
900.08	0.604	1	congruent	Block1	congruent/STIM_016.jpg
904.68	0.462	1	congruent	Block1	congruent/STIM_017.jpg
908.162	0.549	1	congruent	Block1	congruent/STIM_017.jpg
912.477	0.557	1	congruent	Block1	congruent/STIM_017.jpg
915.539	0.701	1	congruent	Block1	congruent/STIM_017.jpg
919.243	0.682	1	congruent	Block1	congruent/STIM_017.jpg
922.701	0.692	1	congruent	Block1	congruent/STIM_018.jpg
927.278	0.641	1	congruent	Block1	congruent/STIM_018.jpg
930.258	0.66	1	congruent	Block1	congruent/STIM_018.jpg
934.649	0.664	1	congruent	Block1	congruent/STIM_018.jpg
938.107	0.443	1	congruent	Block1	congruent/STIM_018.jpg
942.288	0.72	0	congruent	Block1	congruent/STIM_019.jpg
946.932	0.453	1	congruent	Block1	congruent/STIM_019.jpg
951.421	0.511	1	congruent	Block1	congruent/STIM_019.jpg
954.361	0.412	0	congruent	Block1	congruent/STIM_019.jpg
958.768	0.414	1	congruent	Block1	congruent/STIM_019.jpg
962.679	0.492	1	congruent	Block1	congruent/STIM_020.jpg
965.406	0.63	1	congruent	Block1	congruent/STIM_020.jpg
969.584	0.677	1	congruent	Block1	congruent/STIM_020.jpg
973.225	0.649	1	congruent	Block1	congruent/STIM_020.jpg
976.077	0.648	1	congruent	Block1	congruent/STIM_020.jpg
978.958	0.43	0	congruent	Block1	congruent/STIM_021.jpg
983.426	0.7	1	congruent	Block1	congruent/STIM_021.jpg
986.641	0.556	1	congruent	Block1	congruent/STIM_021.jpg
990.576	0.516	1	congruent	Block1	congruent/STIM_021.jpg
995.015	0.401	1	congruent	Block1	congruent/STIM_021.jpg
999.05	0.474	1	congruent	Block1	congruent/STIM_022.jpg
1002.567	0.514	1	congruent	Block1	congruent/STIM_022.jpg
1006.465	0.566	1	congruent	Block1	congruent/STIM_022.jpg
1010.633	0.56	1	congruent	Block1	congruent/STIM_022.jpg
1014.392	0.751	1	congruent	Block1	congruent/STIM_022.jpg
1019.244	0.81	1	congruent	Block1	congruent/STIM_023.jpg
1023.589	0.432	1	congruent	Block1	congruent/STIM_023.jpg
1027.004	0.568	1	congruent	Block1	congruent/STIM_023.jpg
1030.28	0.636	1	congruent	Block1	congruent/STIM_023.jpg
1034.094	0.476	1	congruent	Block1	congruent/STIM_023.jpg
1038.318	0.522	1	congruent	Block1	congruent/STIM_024.jpg
1042.342	0.609	1	congruent	Block1	congruent/STIM_024.jpg
1047.014	0.676	1	congruent	Block1	congruent/STIM_024.jpg
1050.313	0.457	1	congruent	Block1	congruent/STIM_024.jpg
1053.101	0.486	1	congruent	Block1	congruent/STIM_024.jpg
1056.864	0.403	1	congruent	Block1	congruent/STIM_025.jpg
1060.257	0.646	1	congruent	Block1	congruent/STIM_025.jpg
1063.832	0.583	1	congruent	Block1	congruent/STIM_025.jpg
1066.461	0.605	1	congruent	Block1	congruent/STIM_025.jpg
1069.297	0.544	1	congruent	Block1	congruent/STIM_025.jpg
1073.792	0.726	1	congruent	Block1	congruent/STIM_026.jpg
1076.997	0.517	1	congruent	Block1	congruent/STIM_026.jpg
1080.492	0.582	1	congruent	Block1	congruent/STIM_026.jpg
1084.121	0.408	1	congruent	Block1	congruent/STIM_026.jpg
1088.068	0.551	1	congruent	Block1	congruent/STIM_026.jpg
1092.14	0.672	1	congruent	Block1	congruent/STIM_027.jpg
1096.052	0.718	1	congruent	Block1	congruent/STIM_027.jpg
1100.051	0.409	1	congruent	Block1	congruent/STIM_027.jpg
1103.753	0.488	1	congruent	Block1	congruent/STIM_027.jpg
1108.299	0.559	1	congruent	Block1	congruent/STIM_027.jpg
1111.358	0.689	1	congruent	Block1	congruent/STIM_028.jpg
1116.236	0.588	1	congruent	Block1	congruent/STIM_028.jpg
1119.56	0.62	1	congruent	Block1	congruent/STIM_028.jpg
1122.564	0.652	1	congruent	Block1	congruent/STIM_028.jpg
1125.526	0.695	1	congruent	Block1	congruent/STIM_028.jpg
1130.085	0.846	1	congruent	Block1	congruent/STIM_029.jpg
1134.095	0.501	1	congruent	Block1	congruent/STIM_029.jpg
1137.037	0.498	1	congruent	Block1	congruent/STIM_029.jpg
1139.82	0.783	1	congruent	Block1	congruent/STIM_029.jpg
1144.387	0.651	1	congruent	Block1	congruent/STIM_029.jpg
1147.753	0.928	0	incongruent	Block2	incongruent/STIM_000.jpg
1151.767	0.661	1	incongruent	Block2	incongruent/STIM_000.jpg
1155.084	0.706	1	incongruent	Block2	incongruent/STIM_000.jpg
1159.875	0.615	1	incongruent	Block2	incongruent/STIM_000.jpg
1163.386	0.707	1	incongruent	Block2	incongruent/STIM_000.jpg
1166.493	0.676	1	incongruent	Block2	incongruent/STIM_001.jpg
1169.539	0.522	1	incongruent	Block2	incongruent/STIM_001.jpg
1172.379	0.668	1	incongruent	Block2	incongruent/STIM_001.jpg
1176.243	0.48	1	incongruent	Block2	incongruent/STIM_001.jpg
1180.803	0.449	1	incongruent	Block2	incongruent/STIM_001.jpg
1184.326	0.856	1	incongruent	Block2	incongruent/STIM_002.jpg
1188.227	0.653	1	incongruent	Block2	incongruent/STIM_002.jpg
1191.395	0.729	1	incongruent	Block2	incongruent/STIM_002.jpg
1195.443	0.753	1	incongruent	Block2	incongruent/STIM_002.jpg
1200.27	0.792	0	incongruent	Block2	incongruent/STIM_002.jpg
1203.863	0.768	0	incongruent	Block2	incongruent/STIM_003.jpg
1206.981	0.768	1	incongruent	Block2	incongruent/STIM_003.jpg
1211.309	0.604	1	incongruent	Block2	incongruent/STIM_003.jpg
1214.58	0.79	1	incongruent	Block2	incongruent/STIM_003.jpg
1219.133	0.764	1	incongruent	Block2	incongruent/STIM_003.jpg
1223.462	0.7	0	incongruent	Block2	incongruent/STIM_004.jpg
1227.029	0.963	1	incongruent	Block2	incongruent/STIM_004.jpg
1230.913	0.767	1	incongruent	Block2	incongruent/STIM_004.jpg
1235.023	0.5	1	incongruent	Block2	incongruent/STIM_004.jpg
1238.812	0.88	1	incongruent	Block2	incongruent/STIM_004.jpg
1242.629	0.548	1	incongruent	Block2	incongruent/STIM_005.jpg
1246.412	0.972	1	incongruent	Block2	incongruent/STIM_005.jpg
1251.046	0.524	1	incongruent	Block2	incongruent/STIM_005.jpg
1254.008	0.808	1	incongruent	Block2	incongruent/STIM_005.jpg
1258.785	0.508	1	incongruent	Block2	incongruent/STIM_005.jpg
1261.754	0.634	1	incongruent	Block2	incongruent/STIM_006.jpg
1266.534	0.512	1	incongruent	Block2	incongruent/STIM_006.jpg
1269.423	0.591	1	incongruent	Block2	incongruent/STIM_006.jpg
1272.315	0.822	1	incongruent	Block2	incongruent/STIM_006.jpg
1276.885	0.432	1	incongruent	Block2	incongruent/STIM_006.jpg
1280.128	1.031	1	incongruent	Block2	incongruent/STIM_007.jpg
1283.328	1.05	1	incongruent	Block2	incongruent/STIM_007.jpg
1287.117	0.913	1	incongruent	Block2	incongruent/STIM_007.jpg
1291.377	0.643	1	incongruent	Block2	incongruent/STIM_007.jpg
1295.624	0.743	1	incongruent	Block2	incongruent/STIM_007.jpg
1299.796	0.964	1	incongruent	Block2	incongruent/STIM_008.jpg
1303.761	0.872	1	incongruent	Block2	incongruent/STIM_008.jpg
1307.536	0.425	0	incongruent	Block2	incongruent/STIM_008.jpg
1311.248	0.54	1	incongruent	Block2	incongruent/STIM_008.jpg
1315.541	0.383	1	incongruent	Block2	incongruent/STIM_008.jpg
1318.823	0.587	1	incongruent	Block2	incongruent/STIM_009.jpg
1322.931	0.979	1	incongruent	Block2	incongruent/STIM_009.jpg
1327.354	0.566	1	incongruent	Block2	incongruent/STIM_009.jpg
1330.016	0.416	1	incongruent	Block2	incongruent/STIM_009.jpg
1333.476	0.62	1	incongruent	Block2	incongruent/STIM_009.jpg
1337.471	0.963	1	incongruent	Block2	incongruent/STIM_010.jpg
1342.365	0.976	1	incongruent	Block2	incongruent/STIM_010.jpg
1346.202	0.879	1	incongruent	Block2	incongruent/STIM_010.jpg
1350.355	0.793	1	incongruent	Block2	incongruent/STIM_010.jpg
1355.173	0.584	1	incongruent	Block2	incongruent/STIM_010.jpg
1359.254	0.792	1	incongruent	Block2	incongruent/STIM_011.jpg
1363.7	0.603	1	incongruent	Block2	incongruent/STIM_011.jpg
1366.656	0.555	1	incongruent	Block2	incongruent/STIM_011.jpg
1371.377	0.548	1	incongruent	Block2	incongruent/STIM_011.jpg
1375.124	0.868	1	incongruent	Block2	incongruent/STIM_011.jpg
1380.027	0.976	1	incongruent	Block2	incongruent/STIM_012.jpg
1383.41	0.584	1	incongruent	Block2	incongruent/STIM_012.jpg
1386.503	0.565	1	incongruent	Block2	incongruent/STIM_012.jpg
1389.525	0.661	1	incongruent	Block2	incongruent/STIM_012.jpg
1392.584	0.58	1	incongruent	Block2	incongruent/STIM_012.jpg
1395.55	0.92	1	incongruent	Block2	incongruent/STIM_013.jpg
1400.645	0.914	1	incongruent	Block2	incongruent/STIM_013.jpg
1404.827	0.845	1	incongruent	Block2	incongruent/STIM_013.jpg
1408.608	0.901	1	incongruent	Block2	incongruent/STIM_013.jpg
1412.355	0.716	1	incongruent	Block2	incongruent/STIM_013.jpg
1415.205	0.678	1	incongruent	Block2	incongruent/STIM_014.jpg
1419.114	0.591	1	incongruent	Block2	incongruent/STIM_014.jpg
1421.983	0.617	1	incongruent	Block2	incongruent/STIM_014.jpg
1425.906	0.703	1	incongruent	Block2	incongruent/STIM_014.jpg
1430.732	0.858	1	incongruent	Block2	incongruent/STIM_014.jpg
1434.744	1.027	1	incongruent	Block2	incongruent/STIM_015.jpg
1438.017	0.886	1	incongruent	Block2	incongruent/STIM_015.jpg
1441.653	0.683	1	incongruent	Block2	incongruent/STIM_015.jpg
1444.894	0.601	1	incongruent	Block2	incongruent/STIM_015.jpg
1448.753	0.483	1	incongruent	Block2	incongruent/STIM_015.jpg
1453.06	0.517	1	incongruent	Block2	incongruent/STIM_016.jpg
1456.591	0.779	1	incongruent	Block2	incongruent/STIM_016.jpg
1460.457	0.887	0	incongruent	Block2	incongruent/STIM_016.jpg
1465.184	0.793	1	incongruent	Block2	incongruent/STIM_016.jpg
1468.938	0.459	1	incongruent	Block2	incongruent/STIM_016.jpg
1471.535	1.052	1	incongruent	Block2	incongruent/STIM_017.jpg
1476.319	0.711	1	incongruent	Block2	incongruent/STIM_017.jpg
1479.827	0.726	1	incongruent	Block2	incongruent/STIM_017.jpg
1482.934	0.452	1	incongruent	Block2	incongruent/STIM_017.jpg
1486.694	0.76	1	incongruent	Block2	incongruent/STIM_017.jpg
1491.128	0.948	1	incongruent	Block2	incongruent/STIM_018.jpg
1495.248	0.966	0	incongruent	Block2	incongruent/STIM_018.jpg
1498.935	0.601	1	incongruent	Block2	incongruent/STIM_018.jpg
1502.835	0.63	1	incongruent	Block2	incongruent/STIM_018.jpg
1506.399	0.377	1	incongruent	Block2	incongruent/STIM_018.jpg
1509.823	0.902	1	incongruent	Block2	incongruent/STIM_019.jpg
1514.071	0.981	1	incongruent	Block2	incongruent/STIM_019.jpg
1518.049	0.808	1	incongruent	Block2	incongruent/STIM_019.jpg
1521.779	0.705	1	incongruent	Block2	incongruent/STIM_019.jpg
1524.671	0.606	0	incongruent	Block2	incongruent/STIM_019.jpg
1528.609	0.47	1	incongruent	Block2	incongruent/STIM_020.jpg
1531.733	0.68	1	incongruent	Block2	incongruent/STIM_020.jpg
1535.945	0.493	1	incongruent	Block2	incongruent/STIM_020.jpg
1538.999	0.533	1	incongruent	Block2	incongruent/STIM_020.jpg
1543.331	0.718	1	incongruent	Block2	incongruent/STIM_020.jpg
1547.452	0.524	1	incongruent	Block2	incongruent/STIM_021.jpg
1550.666	0.48	0	incongruent	Block2	incongruent/STIM_021.jpg
1554.391	0.634	1	incongruent	Block2	incongruent/STIM_021.jpg
1558.506	0.425	1	incongruent	Block2	incongruent/STIM_021.jpg
1562.261	0.871	1	incongruent	Block2	incongruent/STIM_021.jpg
1566.368	1.035	1	incongruent	Block2	incongruent/STIM_022.jpg
1569.609	0.483	1	incongruent	Block2	incongruent/STIM_022.jpg
1572.357	0.941	1	incongruent	Block2	incongruent/STIM_022.jpg
1576.055	0.736	1	incongruent	Block2	incongruent/STIM_022.jpg
1580.593	0.606	1	incongruent	Block2	incongruent/STIM_022.jpg
1583.923	1.032	1	incongruent	Block2	incongruent/STIM_023.jpg
1588.959	0.782	1	incongruent	Block2	incongruent/STIM_023.jpg
1592.4	0.831	0	incongruent	Block2	incongruent/STIM_023.jpg
1595.491	0.719	1	incongruent	Block2	incongruent/STIM_023.jpg
1598.527	0.846	1	incongruent	Block2	incongruent/STIM_023.jpg
1603.007	1.061	1	incongruent	Block2	incongruent/STIM_024.jpg
1607.095	0.746	1	incongruent	Block2	incongruent/STIM_024.jpg
1610.559	0.542	1	incongruent	Block2	incongruent/STIM_024.jpg
1613.779	0.558	1	incongruent	Block2	incongruent/STIM_024.jpg
1616.752	0.419	1	incongruent	Block2	incongruent/STIM_024.jpg
1620.918	0.865	1	incongruent	Block2	incongruent/STIM_025.jpg
1625.59	0.775	1	incongruent	Block2	incongruent/STIM_025.jpg
1629.837	0.701	1	incongruent	Block2	incongruent/STIM_025.jpg
1634.224	0.504	0	incongruent	Block2	incongruent/STIM_025.jpg
1638.55	0.78	1	incongruent	Block2	incongruent/STIM_025.jpg
1642.093	0.753	1	incongruent	Block2	incongruent/STIM_026.jpg
1646.735	0.909	1	incongruent	Block2	incongruent/STIM_026.jpg
1651.035	0.525	1	incongruent	Block2	incongruent/STIM_026.jpg
1653.784	0.633	1	incongruent	Block2	incongruent/STIM_026.jpg
1658.057	0.741	1	incongruent	Block2	incongruent/STIM_026.jpg
1662.554	1.124	1	incongruent	Block2	incongruent/STIM_027.jpg
1665.854	0.475	1	incongruent	Block2	incongruent/STIM_027.jpg
1669.474	0.829	1	incongruent	Block2	incongruent/STIM_027.jpg
1673.012	0.708	1	incongruent	Block2	incongruent/STIM_027.jpg
1676.457	0.881	1	incongruent	Block2	incongruent/STIM_027.jpg
1679.627	1.056	1	incongruent	Block2	incongruent/STIM_028.jpg
1683.353	0.701	0	incongruent	Block2	incongruent/STIM_028.jpg
1686.519	0.814	1	incongruent	Block2	incongruent/STIM_028.jpg
1689.93	0.59	1	incongruent	Block2	incongruent/STIM_028.jpg
1692.774	0.826	1	incongruent	Block2	incongruent/STIM_028.jpg
1695.918	0.815	1	incongruent	Block2	incongruent/STIM_029.jpg
1700.628	0.978	1	incongruent	Block2	incongruent/STIM_029.jpg
1704.736	0.876	1	incongruent	Block2	incongruent/STIM_029.jpg
1708.02	0.431	1	incongruent	Block2	incongruent/STIM_029.jpg
1711.829	0.52	1	incongruent	Block2	incongruent/STIM_029.jpg
1715.552	0.561	1	congruent	Block2	congruent/STIM_000.jpg
1718.726	0.566	1	congruent	Block2	congruent/STIM_000.jpg
1723.081	0.467	1	congruent	Block2	congruent/STIM_000.jpg
1725.771	0.617	1	congruent	Block2	congruent/STIM_000.jpg
1729.068	0.652	1	congruent	Block2	congruent/STIM_000.jpg
1733.735	0.728	1	congruent	Block2	congruent/STIM_001.jpg
1738.07	0.592	1	congruent	Block2	congruent/STIM_001.jpg
1741.491	0.502	1	congruent	Block2	congruent/STIM_001.jpg
1745.144	0.67	1	congruent	Block2	congruent/STIM_001.jpg
1749.703	0.737	1	congruent	Block2	congruent/STIM_001.jpg
1753.628	0.476	1	congruent	Block2	congruent/STIM_002.jpg
1756.659	0.488	1	congruent	Block2	congruent/STIM_002.jpg
1760.243	0.509	1	congruent	Block2	congruent/STIM_002.jpg
1764.581	0.607	1	congruent	Block2	congruent/STIM_002.jpg
1767.457	0.644	1	congruent	Block2	congruent/STIM_002.jpg
1770.481	0.734	1	congruent	Block2	congruent/STIM_003.jpg
1775.085	0.601	1	congruent	Block2	congruent/STIM_003.jpg
1778.231	0.394	1	congruent	Block2	congruent/STIM_003.jpg
1782.697	0.7	1	congruent	Block2	congruent/STIM_003.jpg
1787.148	0.552	1	congruent	Block2	congruent/STIM_003.jpg
1791.62	0.463	1	congruent	Block2	congruent/STIM_004.jpg
1795.29	0.757	1	congruent	Block2	congruent/STIM_004.jpg
1798.282	0.642	1	congruent	Block2	congruent/STIM_004.jpg
1802.27	0.518	1	congruent	Block2	congruent/STIM_004.jpg
1806.06	0.66	1	congruent	Block2	congruent/STIM_004.jpg
1809.961	0.581	1	congruent	Block2	congruent/STIM_005.jpg
1814.494	0.871	1	congruent	Block2	congruent/STIM_005.jpg
1817.882	0.46	1	congruent	Block2	congruent/STIM_005.jpg
1822.126	0.43	1	congruent	Block2	congruent/STIM_005.jpg
1825.99	0.649	1	congruent	Block2	congruent/STIM_005.jpg
1829.556	0.518	1	congruent	Block2	congruent/STIM_006.jpg
1833.798	0.751	1	congruent	Block2	congruent/STIM_006.jpg
1837.043	0.739	1	congruent	Block2	congruent/STIM_006.jpg
1840.876	0.623	1	congruent	Block2	congruent/STIM_006.jpg
1844.948	0.686	0	congruent	Block2	congruent/STIM_006.jpg
1848.315	0.586	0	congruent	Block2	congruent/STIM_007.jpg
1851.957	0.701	1	congruent	Block2	congruent/STIM_007.jpg
1856.682	0.369	1	congruent	Block2	congruent/STIM_007.jpg
1860.083	0.469	1	congruent	Block2	congruent/STIM_007.jpg
1862.682	0.661	1	congruent	Block2	congruent/STIM_007.jpg
1866.999	0.515	1	congruent	Block2	congruent/STIM_008.jpg
1871.118	0.586	1	congruent	Block2	congruent/STIM_008.jpg
1875.206	0.439	1	congruent	Block2	congruent/STIM_008.jpg
1879.236	0.7	1	congruent	Block2	congruent/STIM_008.jpg
1882.401	0.54	1	congruent	Block2	congruent/STIM_008.jpg
1886.82	0.537	1	congruent	Block2	congruent/STIM_009.jpg
1890.62	0.415	1	congruent	Block2	congruent/STIM_009.jpg
1895.148	0.552	1	congruent	Block2	congruent/STIM_009.jpg
1899.034	0.59	1	congruent	Block2	congruent/STIM_009.jpg
1903.246	0.524	1	congruent	Block2	congruent/STIM_009.jpg
1906.986	0.602	1	congruent	Block2	congruent/STIM_010.jpg
1911.334	0.548	1	congruent	Block2	congruent/STIM_010.jpg
1914.649	0.538	1	congruent	Block2	congruent/STIM_010.jpg
1917.798	0.704	1	congruent	Block2	congruent/STIM_010.jpg
1921.796	0.468	1	congruent	Block2	congruent/STIM_010.jpg
1924.433	0.508	1	congruent	Block2	congruent/STIM_011.jpg
1928.394	0.851	1	congruent	Block2	congruent/STIM_011.jpg
1932.21	0.52	1	congruent	Block2	congruent/STIM_011.jpg
1936.273	0.56	1	congruent	Block2	congruent/STIM_011.jpg
1939.331	0.418	1	congruent	Block2	congruent/STIM_011.jpg
1943.287	0.446	1	congruent	Block2	congruent/STIM_012.jpg
1947.088	0.52	1	congruent	Block2	congruent/STIM_012.jpg
1950.511	0.703	1	congruent	Block2	congruent/STIM_012.jpg
1954.308	0.599	1	congruent	Block2	congruent/STIM_012.jpg
1958.083	0.627	1	congruent	Block2	congruent/STIM_012.jpg
1961.995	0.59	1	congruent	Block2	congruent/STIM_013.jpg
1965.598	0.648	1	congruent	Block2	congruent/STIM_013.jpg
1969.386	0.58	1	congruent	Block2	congruent/STIM_013.jpg
1972.813	0.406	1	congruent	Block2	congruent/STIM_013.jpg
1975.352	0.546	1	congruent	Block2	congruent/STIM_013.jpg
1978.571	0.583	1	congruent	Block2	congruent/STIM_014.jpg
1981.571	0.642	1	congruent	Block2	congruent/STIM_014.jpg
1984.314	0.592	1	congruent	Block2	congruent/STIM_014.jpg
1988.187	0.415	1	congruent	Block2	congruent/STIM_014.jpg
1991.01	0.634	1	congruent	Block2	congruent/STIM_014.jpg
1995.607	0.768	1	congruent	Block2	congruent/STIM_015.jpg
1999.042	0.652	1	congruent	Block2	congruent/STIM_015.jpg
2003.325	0.568	1	congruent	Block2	congruent/STIM_015.jpg
2007.588	0.46	1	congruent	Block2	congruent/STIM_015.jpg
2011.479	0.662	1	congruent	Block2	congruent/STIM_015.jpg
2016.216	0.527	1	congruent	Block2	congruent/STIM_016.jpg
2020.807	0.73	1	congruent	Block2	congruent/STIM_016.jpg
2025.001	0.782	1	congruent	Block2	congruent/STIM_016.jpg
2028.284	0.46	1	congruent	Block2	congruent/STIM_016.jpg
2031.794	0.64	1	congruent	Block2	congruent/STIM_016.jpg
2034.833	0.685	1	congruent	Block2	congruent/STIM_017.jpg
2038.823	0.75	1	congruent	Block2	congruent/STIM_017.jpg
2042.403	0.613	1	congruent	Block2	congruent/STIM_017.jpg
2046.812	0.509	1	congruent	Block2	congruent/STIM_017.jpg
2049.516	0.504	1	congruent	Block2	congruent/STIM_017.jpg
2053.435	0.6	1	congruent	Block2	congruent/STIM_018.jpg
2056.895	0.68	0	congruent	Block2	congruent/STIM_018.jpg
2061.584	0.541	1	congruent	Block2	congruent/STIM_018.jpg
2065.993	0.449	1	congruent	Block2	congruent/STIM_018.jpg
2068.818	0.69	1	congruent	Block2	congruent/STIM_018.jpg
2073.035	0.661	0	congruent	Block2	congruent/STIM_019.jpg
2076.831	0.576	1	congruent	Block2	congruent/STIM_019.jpg
2080.342	0.647	0	congruent	Block2	congruent/STIM_019.jpg
2084.116	0.675	1	congruent	Block2	congruent/STIM_019.jpg
2087.638	0.443	1	congruent	Block2	congruent/STIM_019.jpg
2091.093	0.702	1	congruent	Block2	congruent/STIM_020.jpg
2094.254	0.542	1	congruent	Block2	congruent/STIM_020.jpg
2097.458	0.524	1	congruent	Block2	congruent/STIM_020.jpg
2100.664	0.5	1	congruent	Block2	congruent/STIM_020.jpg
2104.238	0.692	1	congruent	Block2	congruent/STIM_020.jpg
2107.982	0.622	1	congruent	Block2	congruent/STIM_021.jpg
2111.551	0.748	0	congruent	Block2	congruent/STIM_021.jpg
2114.927	0.573	1	congruent	Block2	congruent/STIM_021.jpg
2118.921	0.446	1	congruent	Block2	congruent/STIM_021.jpg
2122.879	0.638	1	congruent	Block2	congruent/STIM_021.jpg
2125.693	0.56	1	congruent	Block2	congruent/STIM_022.jpg
2129.426	0.503	1	congruent	Block2	congruent/STIM_022.jpg
2132.26	0.402	1	congruent	Block2	congruent/STIM_022.jpg
2135.04	0.466	1	congruent	Block2	congruent/STIM_022.jpg
2138.59	0.7	1	congruent	Block2	congruent/STIM_022.jpg
2141.619	0.703	1	congruent	Block2	congruent/STIM_023.jpg
2144.804	0.521	1	congruent	Block2	congruent/STIM_023.jpg
2147.997	0.672	1	congruent	Block2	congruent/STIM_023.jpg
2151.556	0.535	1	congruent	Block2	congruent/STIM_023.jpg
2155.78	0.423	1	congruent	Block2	congruent/STIM_023.jpg
2158.503	0.537	1	congruent	Block2	congruent/STIM_024.jpg
2161.971	0.441	1	congruent	Block2	congruent/STIM_024.jpg
2164.629	0.47	1	congruent	Block2	congruent/STIM_024.jpg
2167.687	0.432	1	congruent	Block2	congruent/STIM_024.jpg
2170.451	0.706	1	congruent	Block2	congruent/STIM_024.jpg
2173.561	0.521	1	congruent	Block2	congruent/STIM_025.jpg
2176.985	0.66	0	congruent	Block2	congruent/STIM_025.jpg
2180.629	0.591	1	congruent	Block2	congruent/STIM_025.jpg
2184.077	0.696	1	congruent	Block2	congruent/STIM_025.jpg
2188.859	0.725	1	congruent	Block2	congruent/STIM_025.jpg
2192.499	0.676	1	congruent	Block2	congruent/STIM_026.jpg
2195.551	0.768	1	congruent	Block2	congruent/STIM_026.jpg
2198.392	0.566	1	congruent	Block2	congruent/STIM_026.jpg
2202.971	0.822	1	congruent	Block2	congruent/STIM_026.jpg
2206.189	0.686	1	congruent	Block2	congruent/STIM_026.jpg
2210.09	0.765	1	congruent	Block2	congruent/STIM_027.jpg
2213.842	0.726	1	congruent	Block2	congruent/STIM_027.jpg
2218.725	0.687	1	congruent	Block2	congruent/STIM_027.jpg
2221.741	0.577	1	congruent	Block2	congruent/STIM_027.jpg
2226.059	0.562	1	congruent	Block2	congruent/STIM_027.jpg
2229.547	0.668	1	congruent	Block2	congruent/STIM_028.jpg
2234.217	0.525	1	congruent	Block2	congruent/STIM_028.jpg
2238.677	0.608	1	congruent	Block2	congruent/STIM_028.jpg
2243.451	0.724	1	congruent	Block2	congruent/STIM_028.jpg
2247.039	0.725	1	congruent	Block2	congruent/STIM_028.jpg
2250.631	0.49	1	congruent	Block2	congruent/STIM_029.jpg
2255.129	0.484	1	congruent	Block2	congruent/STIM_029.jpg
2259.171	0.686	1	congruent	Block2	congruent/STIM_029.jpg
2263.022	0.797	1	congruent	Block2	congruent/STIM_029.jpg
2267.31	0.761	1	congruent	Block2	congruent/STIM_029.jpg
2271.166	0.476	1	incongruent	Block3	incongruent/STIM_000.jpg
2274.755	0.622	1	incongruent	Block3	incongruent/STIM_000.jpg
2277.726	0.545	1	incongruent	Block3	incongruent/STIM_000.jpg
2281.779	0.443	1	incongruent	Block3	incongruent/STIM_000.jpg
2285.446	0.776	1	incongruent	Block3	incongruent/STIM_000.jpg
2288.552	0.765	1	incongruent	Block3	incongruent/STIM_001.jpg
2293.038	0.58	1	incongruent	Block3	incongruent/STIM_001.jpg
2295.856	0.863	1	incongruent	Block3	incongruent/STIM_001.jpg
2300.324	0.594	1	incongruent	Block3	incongruent/STIM_001.jpg
2303.439	0.418	1	incongruent	Block3	incongruent/STIM_001.jpg
2307.735	0.569	1	incongruent	Block3	incongruent/STIM_002.jpg
2311.577	0.69	1	incongruent	Block3	incongruent/STIM_002.jpg
2315.034	0.918	1	incongruent	Block3	incongruent/STIM_002.jpg
2319.476	0.828	1	incongruent	Block3	incongruent/STIM_002.jpg
2323.675	0.595	1	incongruent	Block3	incongruent/STIM_002.jpg
2327.183	0.496	1	incongruent	Block3	incongruent/STIM_003.jpg
2330.449	0.525	1	incongruent	Block3	incongruent/STIM_003.jpg
2334.666	0.75	1	incongruent	Block3	incongruent/STIM_003.jpg
2337.999	0.596	1	incongruent	Block3	incongruent/STIM_003.jpg
2340.659	0.614	1	incongruent	Block3	incongruent/STIM_003.jpg
2343.599	0.899	1	incongruent	Block3	incongruent/STIM_004.jpg
2348.072	0.448	1	incongruent	Block3	incongruent/STIM_004.jpg
2351.6	0.4	1	incongruent	Block3	incongruent/STIM_004.jpg
2355.301	0.594	1	incongruent	Block3	incongruent/STIM_004.jpg
2359.036	0.489	1	incongruent	Block3	incongruent/STIM_004.jpg
2361.691	0.851	1	incongruent	Block3	incongruent/STIM_005.jpg
2365.288	0.388	1	incongruent	Block3	incongruent/STIM_005.jpg
2368.193	0.631	1	incongruent	Block3	incongruent/STIM_005.jpg
2371.495	0.637	1	incongruent	Block3	incongruent/STIM_005.jpg
2374.677	0.646	1	incongruent	Block3	incongruent/STIM_005.jpg
2378.198	0.819	1	incongruent	Block3	incongruent/STIM_006.jpg
2381.759	0.665	1	incongruent	Block3	incongruent/STIM_006.jpg
2384.675	0.545	1	incongruent	Block3	incongruent/STIM_006.jpg
2388.285	0.475	1	incongruent	Block3	incongruent/STIM_006.jpg
2391.259	0.706	1	incongruent	Block3	incongruent/STIM_006.jpg
2396.064	0.477	0	incongruent	Block3	incongruent/STIM_007.jpg
2398.908	0.555	1	incongruent	Block3	incongruent/STIM_007.jpg
2401.687	0.766	1	incongruent	Block3	incongruent/STIM_007.jpg
2405.097	0.66	1	incongruent	Block3	incongruent/STIM_007.jpg
2409.882	0.49	1	incongruent	Block3	incongruent/STIM_007.jpg
2414.064	0.883	1	incongruent	Block3	incongruent/STIM_008.jpg
2418.637	0.612	1	incongruent	Block3	incongruent/STIM_008.jpg
2422.914	0.696	1	incongruent	Block3	incongruent/STIM_008.jpg
2427.088	0.771	1	incongruent	Block3	incongruent/STIM_008.jpg
2431.15	0.663	1	incongruent	Block3	incongruent/STIM_008.jpg
2435.815	0.65	1	incongruent	Block3	incongruent/STIM_009.jpg
2440.091	0.779	1	incongruent	Block3	incongruent/STIM_009.jpg
2444.576	0.399	1	incongruent	Block3	incongruent/STIM_009.jpg
2448.148	0.76	1	incongruent	Block3	incongruent/STIM_009.jpg
2452.14	0.711	1	incongruent	Block3	incongruent/STIM_009.jpg
2455.447	0.66	1	incongruent	Block3	incongruent/STIM_010.jpg
2458.479	0.808	1	incongruent	Block3	incongruent/STIM_010.jpg
2463.107	0.596	1	incongruent	Block3	incongruent/STIM_010.jpg
2466.607	0.756	1	incongruent	Block3	incongruent/STIM_010.jpg
2470.884	0.47	1	incongruent	Block3	incongruent/STIM_010.jpg
2474.587	0.562	1	incongruent	Block3	incongruent/STIM_011.jpg
2478.178	0.915	1	incongruent	Block3	incongruent/STIM_011.jpg
2481.889	0.848	1	incongruent	Block3	incongruent/STIM_011.jpg
2485.971	0.916	1	incongruent	Block3	incongruent/STIM_011.jpg
2489.583	0.694	1	incongruent	Block3	incongruent/STIM_011.jpg
2493.352	0.814	1	incongruent	Block3	incongruent/STIM_012.jpg
2496.942	0.496	1	incongruent	Block3	incongruent/STIM_012.jpg
2500.326	0.631	1	incongruent	Block3	incongruent/STIM_012.jpg
2503.541	0.782	1	incongruent	Block3	incongruent/STIM_012.jpg
2507.305	0.453	1	incongruent	Block3	incongruent/STIM_012.jpg
2511.197	0.889	1	incongruent	Block3	incongruent/STIM_013.jpg
2514.885	0.845	1	incongruent	Block3	incongruent/STIM_013.jpg
2518.894	0.393	1	incongruent	Block3	incongruent/STIM_013.jpg
2522.876	0.722	1	incongruent	Block3	incongruent/STIM_013.jpg
2526.224	0.737	1	incongruent	Block3	incongruent/STIM_013.jpg
2529.818	0.669	1	incongruent	Block3	incongruent/STIM_014.jpg
2533.48	0.603	1	incongruent	Block3	incongruent/STIM_014.jpg
2537.583	0.574	1	incongruent	Block3	incongruent/STIM_014.jpg
2540.942	0.575	1	incongruent	Block3	incongruent/STIM_014.jpg
2544.309	0.706	1	incongruent	Block3	incongruent/STIM_014.jpg
2548.879	0.567	1	incongruent	Block3	incongruent/STIM_015.jpg
2552.765	0.504	1	incongruent	Block3	incongruent/STIM_015.jpg
2555.611	0.363	1	incongruent	Block3	incongruent/STIM_015.jpg
2558.496	0.473	1	incongruent	Block3	incongruent/STIM_015.jpg
2561.761	0.764	1	incongruent	Block3	incongruent/STIM_015.jpg
2566.263	0.866	1	incongruent	Block3	incongruent/STIM_016.jpg
2569.743	0.649	1	incongruent	Block3	incongruent/STIM_016.jpg
2574.133	0.83	1	incongruent	Block3	incongruent/STIM_016.jpg
2578.955	0.534	1	incongruent	Block3	incongruent/STIM_016.jpg
2582.357	0.676	1	incongruent	Block3	incongruent/STIM_016.jpg
2586.123	0.452	1	incongruent	Block3	incongruent/STIM_017.jpg
2589.025	0.733	1	incongruent	Block3	incongruent/STIM_017.jpg
2592.856	0.714	1	incongruent	Block3	incongruent/STIM_017.jpg
2596.838	0.492	1	incongruent	Block3	incongruent/STIM_017.jpg
2599.683	0.43	1	incongruent	Block3	incongruent/STIM_017.jpg
2602.314	0.927	1	incongruent	Block3	incongruent/STIM_018.jpg
2605.551	0.697	1	incongruent	Block3	incongruent/STIM_018.jpg
2610.154	0.759	1	incongruent	Block3	incongruent/STIM_018.jpg
2613.358	0.592	1	incongruent	Block3	incongruent/STIM_018.jpg
2617.346	0.815	1	incongruent	Block3	incongruent/STIM_018.jpg
2621.134	0.675	1	incongruent	Block3	incongruent/STIM_019.jpg
2624.122	0.388	1	incongruent	Block3	incongruent/STIM_019.jpg
2627.171	0.73	1	incongruent	Block3	incongruent/STIM_019.jpg
2631.883	0.902	1	incongruent	Block3	incongruent/STIM_019.jpg
2635.601	0.349	1	incongruent	Block3	incongruent/STIM_019.jpg
2638.971	0.646	1	incongruent	Block3	incongruent/STIM_020.jpg
2642.24	0.779	1	incongruent	Block3	incongruent/STIM_020.jpg
2646.704	0.711	1	incongruent	Block3	incongruent/STIM_020.jpg
2651.036	0.906	1	incongruent	Block3	incongruent/STIM_020.jpg
2654.339	0.39	1	incongruent	Block3	incongruent/STIM_020.jpg
2657.495	0.665	1	incongruent	Block3	incongruent/STIM_021.jpg
2661.486	0.473	1	incongruent	Block3	incongruent/STIM_021.jpg
2665.623	0.692	1	incongruent	Block3	incongruent/STIM_021.jpg
2668.676	0.792	1	incongruent	Block3	incongruent/STIM_021.jpg
2673.584	0.648	1	incongruent	Block3	incongruent/STIM_021.jpg
2677.255	0.584	1	incongruent	Block3	incongruent/STIM_022.jpg
2681.494	0.509	1	incongruent	Block3	incongruent/STIM_022.jpg
2684.427	0.802	1	incongruent	Block3	incongruent/STIM_022.jpg
2689.077	0.481	1	incongruent	Block3	incongruent/STIM_022.jpg
2693.358	0.916	1	incongruent	Block3	incongruent/STIM_022.jpg
2697.646	0.651	1	incongruent	Block3	incongruent/STIM_023.jpg
2701.586	0.432	1	incongruent	Block3	incongruent/STIM_023.jpg
2704.597	0.771	1	incongruent	Block3	incongruent/STIM_023.jpg
2707.479	0.589	1	incongruent	Block3	incongruent/STIM_023.jpg
2712.06	0.69	1	incongruent	Block3	incongruent/STIM_023.jpg
2715.171	0.455	1	incongruent	Block3	incongruent/STIM_024.jpg
2719.486	0.841	0	incongruent	Block3	incongruent/STIM_024.jpg
2722.494	0.412	1	incongruent	Block3	incongruent/STIM_024.jpg
2725.897	0.747	1	incongruent	Block3	incongruent/STIM_024.jpg
2729.491	0.768	1	incongruent	Block3	incongruent/STIM_024.jpg
2733.107	0.382	1	incongruent	Block3	incongruent/STIM_025.jpg
2736.253	0.646	1	incongruent	Block3	incongruent/STIM_025.jpg
2739.7	0.552	1	incongruent	Block3	incongruent/STIM_025.jpg
2742.808	0.833	1	incongruent	Block3	incongruent/STIM_025.jpg
2746.012	0.717	1	incongruent	Block3	incongruent/STIM_025.jpg
2749.745	0.5	1	incongruent	Block3	incongruent/STIM_026.jpg
2752.386	0.699	1	incongruent	Block3	incongruent/STIM_026.jpg
2755.551	0.458	1	incongruent	Block3	incongruent/STIM_026.jpg
2759.228	0.831	1	incongruent	Block3	incongruent/STIM_026.jpg
2762.524	0.448	1	incongruent	Block3	incongruent/STIM_026.jpg
2765.312	0.728	1	incongruent	Block3	incongruent/STIM_027.jpg
2769.419	0.495	1	incongruent	Block3	incongruent/STIM_027.jpg
2772.229	0.708	1	incongruent	Block3	incongruent/STIM_027.jpg
2775.718	0.652	1	incongruent	Block3	incongruent/STIM_027.jpg
2779.806	0.72	1	incongruent	Block3	incongruent/STIM_027.jpg
2782.756	0.719	1	incongruent	Block3	incongruent/STIM_028.jpg
2785.645	0.462	1	incongruent	Block3	incongruent/STIM_028.jpg
2788.552	0.454	1	incongruent	Block3	incongruent/STIM_028.jpg
2791.499	0.801	1	incongruent	Block3	incongruent/STIM_028.jpg
2795.729	0.421	1	incongruent	Block3	incongruent/STIM_028.jpg
2800.029	0.751	1	incongruent	Block3	incongruent/STIM_029.jpg
2802.936	0.759	1	incongruent	Block3	incongruent/STIM_029.jpg
2806.635	0.473	1	incongruent	Block3	incongruent/STIM_029.jpg
2810.297	0.807	1	incongruent	Block3	incongruent/STIM_029.jpg
2813.324	0.582	1	incongruent	Block3	incongruent/STIM_029.jpg
2817.416	0.542	1	congruent	Block3	congruent/STIM_000.jpg
2821.047	0.492	1	congruent	Block3	congruent/STIM_000.jpg
2823.978	0.72	1	congruent	Block3	congruent/STIM_000.jpg
2828.746	0.6	1	congruent	Block3	congruent/STIM_000.jpg
2831.952	0.524	1	congruent	Block3	congruent/STIM_000.jpg
2835.518	0.578	1	congruent	Block3	congruent/STIM_001.jpg
2839.295	0.59	1	congruent	Block3	congruent/STIM_001.jpg
2843.556	0.529	1	congruent	Block3	congruent/STIM_001.jpg
2848.108	0.745	1	congruent	Block3	congruent/STIM_001.jpg
2851.92	0.447	1	congruent	Block3	congruent/STIM_001.jpg
2854.66	0.616	1	congruent	Block3	congruent/STIM_002.jpg
2858.094	0.416	1	congruent	Block3	congruent/STIM_002.jpg
2861.698	0.578	1	congruent	Block3	congruent/STIM_002.jpg
2866.12	0.615	1	congruent	Block3	congruent/STIM_002.jpg
2868.876	0.671	1	congruent	Block3	congruent/STIM_002.jpg
2872.723	0.642	1	congruent	Block3	congruent/STIM_003.jpg
2876.775	0.806	1	congruent	Block3	congruent/STIM_003.jpg
2880.982	0.765	1	congruent	Block3	congruent/STIM_003.jpg
2884.559	0.787	1	congruent	Block3	congruent/STIM_003.jpg
2889.055	0.415	1	congruent	Block3	congruent/STIM_003.jpg
2891.982	0.603	0	congruent	Block3	congruent/STIM_004.jpg
2895.751	0.471	1	congruent	Block3	congruent/STIM_004.jpg
2900.303	0.655	1	congruent	Block3	congruent/STIM_004.jpg
2903.567	0.639	1	congruent	Block3	congruent/STIM_004.jpg
2907.812	0.73	1	congruent	Block3	congruent/STIM_004.jpg
2911.364	0.594	1	congruent	Block3	congruent/STIM_005.jpg
2914.37	0.459	1	congruent	Block3	congruent/STIM_005.jpg
2918.756	0.611	1	congruent	Block3	congruent/STIM_005.jpg
2922.111	0.757	1	congruent	Block3	congruent/STIM_005.jpg
2925.288	0.696	1	congruent	Block3	congruent/STIM_005.jpg
2928.136	0.679	1	congruent	Block3	congruent/STIM_006.jpg
2931.543	0.67	1	congruent	Block3	congruent/STIM_006.jpg
2936.006	0.494	1	congruent	Block3	congruent/STIM_006.jpg
2940.218	0.629	1	congruent	Block3	congruent/STIM_006.jpg
2944.498	0.47	1	congruent	Block3	congruent/STIM_006.jpg
2947.142	0.488	1	congruent	Block3	congruent/STIM_007.jpg
2949.778	0.458	1	congruent	Block3	congruent/STIM_007.jpg
2952.828	0.444	1	congruent	Block3	congruent/STIM_007.jpg
2956.909	0.66	1	congruent	Block3	congruent/STIM_007.jpg
2960.118	0.642	1	congruent	Block3	congruent/STIM_007.jpg
2964.826	0.656	1	congruent	Block3	congruent/STIM_008.jpg
2968.639	0.627	1	congruent	Block3	congruent/STIM_008.jpg
2972.569	0.818	1	congruent	Block3	congruent/STIM_008.jpg
2976.313	0.708	1	congruent	Block3	congruent/STIM_008.jpg
2980.908	0.661	1	congruent	Block3	congruent/STIM_008.jpg
2983.986	0.528	1	congruent	Block3	congruent/STIM_009.jpg
2987.716	0.68	1	congruent	Block3	congruent/STIM_009.jpg
2992.018	0.732	1	congruent	Block3	congruent/STIM_009.jpg
2994.927	0.674	1	congruent	Block3	congruent/STIM_009.jpg
2997.824	0.561	1	congruent	Block3	congruent/STIM_009.jpg
3001.597	0.64	1	congruent	Block3	congruent/STIM_010.jpg
3004.772	0.485	1	congruent	Block3	congruent/STIM_010.jpg
3007.923	0.704	1	congruent	Block3	congruent/STIM_010.jpg
3012.425	0.546	1	congruent	Block3	congruent/STIM_010.jpg
3016.648	0.561	1	congruent	Block3	congruent/STIM_010.jpg
3021.178	0.481	1	congruent	Block3	congruent/STIM_011.jpg
3024.301	0.644	1	congruent	Block3	congruent/STIM_011.jpg
3027.362	0.674	1	congruent	Block3	congruent/STIM_011.jpg
3030.774	0.606	1	congruent	Block3	congruent/STIM_011.jpg
3033.522	0.696	1	congruent	Block3	congruent/STIM_011.jpg
3036.934	0.596	1	congruent	Block3	congruent/STIM_012.jpg
3039.701	0.677	1	congruent	Block3	congruent/STIM_012.jpg
3042.867	0.703	1	congruent	Block3	congruent/STIM_012.jpg
3047.082	0.413	1	congruent	Block3	congruent/STIM_012.jpg
3050.549	0.634	1	congruent	Block3	congruent/STIM_012.jpg
3054.9	0.688	1	congruent	Block3	congruent/STIM_013.jpg
3059.373	0.644	1	congruent	Block3	congruent/STIM_013.jpg
3064.012	0.468	1	congruent	Block3	congruent/STIM_013.jpg
3068.343	0.477	1	congruent	Block3	congruent/STIM_013.jpg
3072.384	0.644	1	congruent	Block3	congruent/STIM_013.jpg
3076.343	0.441	1	congruent	Block3	congruent/STIM_014.jpg
3079.832	0.699	1	congruent	Block3	congruent/STIM_014.jpg
3082.715	0.482	1	congruent	Block3	congruent/STIM_014.jpg
3085.532	0.456	1	congruent	Block3	congruent/STIM_014.jpg
3089.828	0.819	1	congruent	Block3	congruent/STIM_014.jpg
3092.789	0.55	0	congruent	Block3	congruent/STIM_015.jpg
3096.141	0.473	1	congruent	Block3	congruent/STIM_015.jpg
3098.83	0.468	1	congruent	Block3	congruent/STIM_015.jpg
3101.668	0.496	1	congruent	Block3	congruent/STIM_015.jpg
3105.501	0.462	1	congruent	Block3	congruent/STIM_015.jpg
3108.799	0.53	1	congruent	Block3	congruent/STIM_016.jpg
3112.575	0.47	1	congruent	Block3	congruent/STIM_016.jpg
3115.493	0.514	1	congruent	Block3	congruent/STIM_016.jpg
3118.341	0.632	0	congruent	Block3	congruent/STIM_016.jpg
3122.051	0.512	1	congruent	Block3	congruent/STIM_016.jpg
3126.45	0.701	1	congruent	Block3	congruent/STIM_017.jpg
3129.869	0.605	1	congruent	Block3	congruent/STIM_017.jpg
3132.661	0.412	1	congruent	Block3	congruent/STIM_017.jpg
3135.736	0.631	0	congruent	Block3	congruent/STIM_017.jpg
3140.212	0.6	1	congruent	Block3	congruent/STIM_017.jpg
3143.662	0.575	1	congruent	Block3	congruent/STIM_018.jpg
3146.812	0.521	1	congruent	Block3	congruent/STIM_018.jpg
3149.795	0.617	1	congruent	Block3	congruent/STIM_018.jpg
3153.224	0.401	0	congruent	Block3	congruent/STIM_018.jpg
3156.407	0.609	1	congruent	Block3	congruent/STIM_018.jpg
3159.622	0.829	1	congruent	Block3	congruent/STIM_019.jpg
3163.664	0.518	1	congruent	Block3	congruent/STIM_019.jpg
3166.722	0.454	1	congruent	Block3	congruent/STIM_019.jpg
3170.644	0.747	1	congruent	Block3	congruent/STIM_019.jpg
3173.701	0.621	1	congruent	Block3	congruent/STIM_019.jpg
3176.703	0.457	1	congruent	Block3	congruent/STIM_020.jpg
3179.477	0.67	1	congruent	Block3	congruent/STIM_020.jpg
3182.546	0.586	1	congruent	Block3	congruent/STIM_020.jpg
3187.166	0.553	1	congruent	Block3	congruent/STIM_020.jpg
3190.043	0.438	1	congruent	Block3	congruent/STIM_020.jpg
3193.27	0.715	1	congruent	Block3	congruent/STIM_021.jpg
3197.29	0.818	1	congruent	Block3	congruent/STIM_021.jpg
3202.076	0.706	1	congruent	Block3	congruent/STIM_021.jpg
3205.392	0.543	1	congruent	Block3	congruent/STIM_021.jpg
3209.498	0.525	1	congruent	Block3	congruent/STIM_021.jpg
3213.91	0.736	1	congruent	Block3	congruent/STIM_022.jpg
3217.157	0.674	0	congruent	Block3	congruent/STIM_022.jpg
3221.527	0.419	1	congruent	Block3	congruent/STIM_022.jpg
3225.727	0.386	1	congruent	Block3	congruent/STIM_022.jpg
3229.504	0.411	1	congruent	Block3	congruent/STIM_022.jpg
3232.163	0.62	1	congruent	Block3	congruent/STIM_023.jpg
3235.41	0.652	1	congruent	Block3	congruent/STIM_023.jpg
3239.093	0.635	1	congruent	Block3	congruent/STIM_023.jpg
3242.116	0.506	1	congruent	Block3	congruent/STIM_023.jpg
3246.388	0.463	1	congruent	Block3	congruent/STIM_023.jpg
3250.839	0.744	1	congruent	Block3	congruent/STIM_024.jpg
3254.536	0.669	1	congruent	Block3	congruent/STIM_024.jpg
3257.48	0.45	1	congruent	Block3	congruent/STIM_024.jpg
3261.744	0.509	0	congruent	Block3	congruent/STIM_024.jpg
3265.421	0.674	1	congruent	Block3	congruent/STIM_024.jpg
3269.811	0.431	1	congruent	Block3	congruent/STIM_025.jpg
3273.339	0.664	1	congruent	Block3	congruent/STIM_025.jpg
3278.063	0.73	1	congruent	Block3	congruent/STIM_025.jpg
3282.221	0.503	1	congruent	Block3	congruent/STIM_025.jpg
3285.364	0.745	1	congruent	Block3	congruent/STIM_025.jpg
3289.398	0.6	1	congruent	Block3	congruent/STIM_026.jpg
3293.774	0.723	1	congruent	Block3	congruent/STIM_026.jpg
3296.78	0.7	1	congruent	Block3	congruent/STIM_026.jpg
3300.238	0.712	1	congruent	Block3	congruent/STIM_026.jpg
3303.615	0.559	1	congruent	Block3	congruent/STIM_026.jpg
3306.593	0.698	1	congruent	Block3	congruent/STIM_027.jpg
3310.067	0.558	1	congruent	Block3	congruent/STIM_027.jpg
3313.512	0.553	1	congruent	Block3	congruent/STIM_027.jpg
3316.5	0.633	1	congruent	Block3	congruent/STIM_027.jpg
3321.148	0.55	0	congruent	Block3	congruent/STIM_027.jpg
3324.587	0.624	1	congruent	Block3	congruent/STIM_028.jpg
3328.934	0.436	1	congruent	Block3	congruent/STIM_028.jpg
3332.258	0.726	1	congruent	Block3	congruent/STIM_028.jpg
3335.813	0.541	1	congruent	Block3	congruent/STIM_028.jpg
3340.225	0.73	1	congruent	Block3	congruent/STIM_028.jpg
3343.354	0.442	1	congruent	Block3	congruent/STIM_029.jpg
3347.835	0.557	1	congruent	Block3	congruent/STIM_029.jpg
3351.119	0.731	1	congruent	Block3	congruent/STIM_029.jpg
3354.145	0.576	0	congruent	Block3	congruent/STIM_029.jpg
3358.115	0.667	1	congruent	Block3	congruent/STIM_029.jpg
