onset	duration	response_time_ms	trial_type	learning_stage	stimulus	response_port
0.0	1.677	1676.6	regulate	Run1	regulate/STIM_000.jpg	99
4.083	3.176	3175.7	regulate	Run1	regulate/STIM_000.jpg	99
10.602	1.639	1639.4	regulate	Run1	regulate/STIM_000.jpg	100
15.911	1.834	1834.3	regulate	Run1	regulate/STIM_000.jpg	99
21.512	3.278	3278.2	regulate	Run1	regulate/STIM_001.jpg	99
28.506	3.295	3295.4	regulate	Run1	regulate/STIM_001.jpg	100
35.721	3.077	3077.1	regulate	Run1	regulate/STIM_001.jpg	99
41.752	2.585	2584.8	regulate	Run1	regulate/STIM_001.jpg	99
47.38	2.316	2316.0	regulate	Run1	regulate/STIM_002.jpg	99
53.13	1.664	1663.6	regulate	Run1	regulate/STIM_002.jpg	99
57.046	2.552	2552.4	regulate	Run1	regulate/STIM_002.jpg	100
62.978	1.412	1411.8	regulate	Run1	regulate/STIM_002.jpg	100
66.577	1.53	1530.0	regulate	Run1	regulate/STIM_003.jpg	100
70.896	1.77	1769.5	regulate	Run1	regulate/STIM_003.jpg	99
75.945	2.916	2916.1	regulate	Run1	regulate/STIM_003.jpg	100
82.157	2.655	2654.9	regulate	Run1	regulate/STIM_003.jpg	100
87.011	3.524	3524.5	regulate	Run1	regulate/STIM_004.jpg	99
94.386	2.775	2774.7	regulate	Run1	regulate/STIM_004.jpg	99
100.918	3.128	3127.9	regulate	Run1	regulate/STIM_004.jpg	99
107.131	1.516	1515.7	regulate	Run1	regulate/STIM_004.jpg	99
111.175	2.711	2710.6	regulate	Run1	regulate/STIM_005.jpg	100
116.335	1.494	1494.0	regulate	Run1	regulate/STIM_005.jpg	99
121.533	1.948	1948.1	regulate	Run1	regulate/STIM_005.jpg	100
126.771	2.401	2401.2	regulate	Run1	regulate/STIM_005.jpg	99
131.355	3.119	3119.3	regulate	Run1	regulate/STIM_006.jpg	99
136.482	2.957	2957.4	regulate	Run1	regulate/STIM_006.jpg	99
141.713	3.158	3157.9	regulate	Run1	regulate/STIM_006.jpg	100
147.209	2.987	2987.3	regulate	Run1	regulate/STIM_006.jpg	99
152.827	2.854	2854.3	regulate	Run1	regulate/STIM_007.jpg	99
157.984	1.897	1897.0	regulate	Run1	regulate/STIM_007.jpg	100
162.218	2.769	2769.4	regulate	Run1	regulate/STIM_007.jpg	100
167.042	2.526	2525.6	regulate	Run1	regulate/STIM_007.jpg	100
172.045	2.879	2879.1	regulate	Run1	regulate/STIM_008.jpg	99
177.161	2.678	2678.0	regulate	Run1	regulate/STIM_008.jpg	99
182.1	1.702	1702.0	regulate	Run1	regulate/STIM_008.jpg	99
187.575	1.736	1736.3	regulate	Run1	regulate/STIM_008.jpg	100
192.285	2.555	2555.3	regulate	Run1	regulate/STIM_009.jpg	99
198.708	2.031	2030.8	regulate	Run1	regulate/STIM_009.jpg	99
202.94	2.79	2789.6	regulate	Run1	regulate/STIM_009.jpg	100
209.147	1.533	1532.7	regulate	Run1	regulate/STIM_009.jpg	99
213.863	1.66	1659.6	regulate	Run1	regulate/STIM_010.jpg	99
218.126	2.98	2980.4	regulate	Run1	regulate/STIM_010.jpg	100
223.118	2.583	2582.8	regulate	Run1	regulate/STIM_010.jpg	100
228.485	2.434	2433.5	regulate	Run1	regulate/STIM_010.jpg	99
234.84	2.296	2295.5	regulate	Run1	regulate/STIM_011.jpg	99
240.494	2.444	2444.3	regulate	Run1	regulate/STIM_011.jpg	100
245.991	1.436	1435.6	regulate	Run1	regulate/STIM_011.jpg	99
250.022	2.875	2874.9	regulate	Run1	regulate/STIM_011.jpg	100
256.433	2.916	2916.1	regulate	Run1	regulate/STIM_012.jpg	99
261.526	3.104	3103.5	regulate	Run1	regulate/STIM_012.jpg	100
268.628	2.47	2470.3	regulate	Run1	regulate/STIM_012.jpg	100
274.822	1.658	1657.7	regulate	Run1	regulate/STIM_012.jpg	99
278.825	1.933	1932.7	regulate	Run1	regulate/STIM_013.jpg	100
284.756	1.994	1994.1	regulate	Run1	regulate/STIM_013.jpg	100
289.093	1.936	1935.8	regulate	Run1	regulate/STIM_013.jpg	99
294.258	1.313	1312.7	regulate	Run1	regulate/STIM_013.jpg	99
297.867	2.562	2561.5	regulate	Run1	regulate/STIM_014.jpg	100
303.046	1.452	1451.9	regulate	Run1	regulate/STIM_014.jpg	100
307.349	2.379	2379.2	regulate	Run1	regulate/STIM_014.jpg	100
313.266	2.289	2289.0	regulate	Run1	regulate/STIM_014.jpg	100
319.234	3.158	3158.0	regulate	Run1	regulate/STIM_015.jpg	99
325.592	1.78	1780.4	regulate	Run1	regulate/STIM_015.jpg	99
330.387	2.784	2784.4	regulate	Run1	regulate/STIM_015.jpg	99
335.74	1.513	1513.2	regulate	Run1	regulate/STIM_015.jpg	99
340.195	3.155	3154.6	regulate	Run1	regulate/STIM_016.jpg	100
345.611	2.673	2673.3	regulate	Run1	regulate/STIM_016.jpg	100
352.064	2.913	2912.7	regulate	Run1	regulate/STIM_016.jpg	99
357.736	1.588	1587.7	regulate	Run1	regulate/STIM_016.jpg	99
363.094	2.764	2763.6	regulate	Run1	regulate/STIM_017.jpg	99
368.107	2.834	2833.5	regulate	Run1	regulate/STIM_017.jpg	99
373.324	2.017	2017.3	regulate	Run1	regulate/STIM_017.jpg	99
378.205	2.674	2674.0	regulate	Run1	regulate/STIM_017.jpg	100
383.599	1.765	1765.1	regulate	Run1	regulate/STIM_018.jpg	99
387.852	2.544	2544.2	regulate	Run1	regulate/STIM_018.jpg	100
392.986	1.918	1918.4	regulate	Run1	regulate/STIM_018.jpg	100
396.991	2.778	2777.9	regulate	Run1	regulate/STIM_018.jpg	100
401.899	1.662	1661.6	regulate	Run1	regulate/STIM_019.jpg	100
406.2	1.922	1922.5	regulate	Run1	regulate/STIM_019.jpg	100
411.075	2.6	2599.8	regulate	Run1	regulate/STIM_019.jpg	100
416.389	2.568	2568.4	regulate	Run1	regulate/STIM_019.jpg	99
421.129	2.405	2404.9	regulate	Run1	regulate/STIM_020.jpg	100
427.396	2.88	2879.6	regulate	Run1	regulate/STIM_020.jpg	100
432.561	1.394	1393.5	regulate	Run1	regulate/STIM_020.jpg	99
437.924	1.702	1702.1	regulate	Run1	regulate/STIM_020.jpg	99
442.731	2.411	2410.9	regulate	Run1	regulate/STIM_021.jpg	99
447.526	2.189	2188.7	regulate	Run1	regulate/STIM_021.jpg	100
452.956	2.64	2639.5	regulate	Run1	regulate/STIM_021.jpg	100
457.656	2.805	2805.4	regulate	Run1	regulate/STIM_021.jpg	99
464.365	2.092	2092.1	regulate	Run1	regulate/STIM_022.jpg	100
469.335	3.007	3006.8	regulate	Run1	regulate/STIM_022.jpg	99
474.581	2.975	2974.9	regulate	Run1	regulate/STIM_022.jpg	100
480.464	1.362	1361.9	regulate	Run1	regulate/STIM_022.jpg	99
484.186	2.863	2863.0	regulate	Run1	regulate/STIM_023.jpg	99
490.541	2.912	2912.4	regulate	Run1	regulate/STIM_023.jpg	99
495.492	1.924	1924.1	regulate	Run1	regulate/STIM_023.jpg	100
500.579	1.847	1846.8	regulate	Run1	regulate/STIM_023.jpg	100
504.753	2.373	2373.2	regulate	Run1	regulate/STIM_024.jpg	100
509.758	3.273	3273.4	regulate	Run1	regulate/STIM_024.jpg	100
515.773	2.723	2723.2	regulate	Run1	regulate/STIM_024.jpg	100
520.515	1.726	1725.6	regulate	Run1	regulate/STIM_024.jpg	99
526.026	1.527	1527.4	regulate	Run1	regulate/STIM_025.jpg	99
531.155	2.503	2502.7	regulate	Run1	regulate/STIM_025.jpg	100
535.664	2.708	2707.6	regulate	Run1	regulate/STIM_025.jpg	100
541.46	2.412	2412.1	regulate	Run1	regulate/STIM_025.jpg	99
546.169	3.024	3024.2	regulate	Run1	regulate/STIM_026.jpg	100
551.593	3.112	3111.6	regulate	Run1	regulate/STIM_026.jpg	100
557.023	2.972	2972.0	regulate	Run1	regulate/STIM_026.jpg	99
562.058	2.902	2902.1	regulate	Run1	regulate/STIM_026.jpg	99
568.299	3.158	3158.5	regulate	Run1	regulate/STIM_027.jpg	99
574.502	3.135	3135.3	regulate	Run1	regulate/STIM_027.jpg	100
580.388	2.759	2758.6	regulate	Run1	regulate/STIM_027.jpg	99
586.139	2.454	2454.3	regulate	Run1	regulate/STIM_027.jpg	100
591.536	3.043	3043.4	regulate	Run1	regulate/STIM_028.jpg	100
596.681	1.484	1484.1	regulate	Run1	regulate/STIM_028.jpg	100
601.659	1.62	1620.1	regulate	Run1	regulate/STIM_028.jpg	99
606.014	2.353	2352.9	regulate	Run1	regulate/STIM_028.jpg	99
610.661	3.215	3214.6	regulate	Run1	regulate/STIM_029.jpg	99
617.868	1.785	1784.9	regulate	Run1	regulate/STIM_029.jpg	100
622.541	2.81	2810.5	regulate	Run1	regulate/STIM_029.jpg	99
628.965	2.502	2501.8	regulate	Run1	regulate/STIM_029.jpg	99
635.182	1.185	1184.9	observe	Run1	observe/STIM_000.jpg	100
639.738	1.118	1118.1	observe	Run1	observe/STIM_000.jpg	99
644.378	1.429	1428.8	observe	Run1	observe/STIM_000.jpg	100
647.93	1.215	1215.4	observe	Run1	observe/STIM_000.jpg	99
652.639	1.406	1405.6	observe	Run1	observe/STIM_001.jpg	99
656.97	1.26	1259.8	observe	Run1	observe/STIM_001.jpg	100
660.486	1.29	1289.7	observe	Run1	observe/STIM_001.jpg	100
664.06	1.199	1199.1	observe	Run1	observe/STIM_001.jpg	100
667.278	1.332	1332.3	observe	Run1	observe/STIM_002.jpg	100
672.579	0.825	824.6	observe	Run1	observe/STIM_002.jpg	99
677.216	1.338	1338.4	observe	Run1	observe/STIM_002.jpg	100
680.928	0.818	818.5	observe	Run1	observe/STIM_002.jpg	99
685.232	1.03	1030.3	observe	Run1	observe/STIM_003.jpg	100
688.719	0.835	834.9	observe	Run1	observe/STIM_003.jpg	99
692.42	1.209	1208.8	observe	Run1	observe/STIM_003.jpg	100
696.768	1.569	1569.1	observe	Run1	observe/STIM_003.jpg	100
702.335	1.445	1445.1	observe	Run1	observe/STIM_004.jpg	99
706.427	0.994	994.5	observe	Run1	observe/STIM_004.jpg	100
711.07	1.117	1116.9	observe	Run1	observe/STIM_004.jpg	99
715.66	1.573	1572.9	observe	Run1	observe/STIM_004.jpg	100
720.712	1.061	1060.8	observe	Run1	observe/STIM_005.jpg	100
725.447	1.209	1209.1	observe	Run1	observe/STIM_005.jpg	99
730.583	1.582	1582.4	observe	Run1	observe/STIM_005.jpg	99
735.983	1.392	1392.1	observe	Run1	observe/STIM_005.jpg	100
740.859	0.967	966.7	observe	Run1	observe/STIM_006.jpg	99
744.155	0.92	919.8	observe	Run1	observe/STIM_006.jpg	99
748.095	1.069	1069.3	observe	Run1	observe/STIM_006.jpg	99
751.238	0.954	953.5	observe	Run1	observe/STIM_006.jpg	100
756.149	1.548	1547.7	observe	Run1	observe/STIM_007.jpg	100
760.937	1.429	1429.0	observe	Run1	observe/STIM_007.jpg	99
765.289	1.617	1616.7	observe	Run1	observe/STIM_007.jpg	99
769.038	0.826	825.6	observe	Run1	observe/STIM_007.jpg	100
773.201	1.419	1419.1	observe	Run1	observe/STIM_008.jpg	100
777.176	1.542	1542.3	observe	Run1	observe/STIM_008.jpg	100
781.141	1.291	1290.8	observe	Run1	observe/STIM_008.jpg	100
784.728	1.388	1388.2	observe	Run1	observe/STIM_008.jpg	100
789.183	0.856	856.2	observe	Run1	observe/STIM_009.jpg	100
792.991	1.53	1529.8	observe	Run1	observe/STIM_009.jpg	99
797.509	1.532	1531.9	observe	Run1	observe/STIM_009.jpg	100
802.465	1.086	1085.7	observe	Run1	observe/STIM_009.jpg	100
806.208	0.888	887.6	observe	Run1	observe/STIM_010.jpg	99
810.214	1.294	1294.0	observe	Run1	observe/STIM_010.jpg	100
814.622	1.4	1399.5	observe	Run1	observe/STIM_010.jpg	99
819.505	1.421	1420.6	observe	Run1	observe/STIM_010.jpg	100
823.142	0.871	871.0	observe	Run1	observe/STIM_011.jpg	99
827.642	1.065	1065.0	observe	Run1	observe/STIM_011.jpg	100
832.567	1.096	1095.5	observe	Run1	observe/STIM_011.jpg	99
836.332	1.062	1061.7	observe	Run1	observe/STIM_011.jpg	100
840.411	1.601	1600.7	observe	Run1	observe/STIM_012.jpg	100
845.655	0.983	983.2	observe	Run1	observe/STIM_012.jpg	100
849.798	1.196	1195.6	observe	Run1	observe/STIM_012.jpg	100
854.54	1.139	1139.2	observe	Run1	observe/STIM_012.jpg	99
859.201	1.584	1583.8	observe	Run1	observe/STIM_013.jpg	100
862.793	0.984	983.5	observe	Run1	observe/STIM_013.jpg	100
866.493	1.347	1347.1	observe	Run1	observe/STIM_013.jpg	99
869.961	0.988	987.5	observe	Run1	observe/STIM_013.jpg	100
873.433	1.464	1464.1	observe	Run1	observe/STIM_014.jpg	99
877.108	1.329	1329.4	observe	Run1	observe/STIM_014.jpg	100
880.575	1.494	1493.7	observe	Run1	observe/STIM_014.jpg	99
885.639	1.525	1524.8	observe	Run1	observe/STIM_014.jpg	100
889.949	0.826	825.5	observe	Run1	observe/STIM_015.jpg	100
894.31	1.313	1312.7	observe	Run1	observe/STIM_015.jpg	99
897.724	1.404	1403.8	observe	Run1	observe/STIM_015.jpg	99
902.767	1.081	1080.8	observe	Run1	observe/STIM_015.jpg	100
907.465	1.621	1621.1	observe	Run1	observe/STIM_016.jpg	100
912.428	1.356	1355.8	observe	Run1	observe/STIM_016.jpg	100
916.995	1.187	1186.6	observe	Run1	observe/STIM_016.jpg	100
921.104	1.574	1573.6	observe	Run1	observe/STIM_016.jpg	100
925.428	1.123	1122.8	observe	Run1	observe/STIM_017.jpg	100
928.843	1.263	1263.1	observe	Run1	observe/STIM_017.jpg	100
933.075	1.361	1361.1	observe	Run1	observe/STIM_017.jpg	99
937.882	1.041	1041.4	observe	Run1	observe/STIM_017.jpg	100
942.505	1.438	1437.9	observe	Run1	observe/STIM_018.jpg	100
946.543	1.127	1127.1	observe	Run1	observe/STIM_018.jpg	100
950.239	1.021	1020.7	observe	Run1	observe/STIM_018.jpg	100
955.236	1.46	1460.0	observe	Run1	observe/STIM_018.jpg	100
960.197	0.891	890.9	observe	Run1	observe/STIM_019.jpg	100
965.041	0.987	986.8	observe	Run1	observe/STIM_019.jpg	100
968.749	1.416	1415.6	observe	Run1	observe/STIM_019.jpg	99
972.364	1.359	1358.9	observe	Run1	observe/STIM_019.jpg	99
976.513	1.832	1831.7	regulate	Run2	regulate/STIM_000.jpg	100
982.067	1.338	1337.6	regulate	Run2	regulate/STIM_000.jpg	100
987.169	1.356	1356.1	regulate	Run2	regulate/STIM_000.jpg	100
992.306	1.468	1467.9	regulate	Run2	regulate/STIM_000.jpg	100
996.401	1.415	1415.4	regulate	Run2	regulate/STIM_001.jpg	100
1001.715	2.153	2152.7	regulate	Run2	regulate/STIM_001.jpg	99
1006.497	2.238	2238.5	regulate	Run2	regulate/STIM_001.jpg	100
1012.704	1.08	1080.0	regulate	Run2	regulate/STIM_001.jpg	99
1017.363	2.346	2345.8	regulate	Run2	regulate/STIM_002.jpg	100
1023.408	1.426	1426.1	regulate	Run2	regulate/STIM_002.jpg	100
1027.353	1.595	1594.9	regulate	Run2	regulate/STIM_002.jpg	100
1031.657	1.096	1096.4	regulate	Run2	regulate/STIM_002.jpg	100
1035.58	2.357	2357.4	regulate	Run2	regulate/STIM_003.jpg	100
1040.602	1.592	1591.7	regulate	Run2	regulate/STIM_003.jpg	99
1044.695	2.311	2311.4	regulate	Run2	regulate/STIM_003.jpg	100
1050.961	1.786	1785.8	regulate	Run2	regulate/STIM_003.jpg	100
1054.854	2.974	2973.5	regulate	Run2	regulate/STIM_004.jpg	100
1059.869	2.126	2125.9	regulate	Run2	regulate/STIM_004.jpg	99
1064.251	2.325	2325.0	regulate	Run2	regulate/STIM_004.jpg	100
1068.628	1.33	1329.5	regulate	Run2	regulate/STIM_004.jpg	100
1072.558	2.986	2986.2	regulate	Run2	regulate/STIM_005.jpg	100
1078.211	1.274	1274.4	regulate	Run2	regulate/STIM_005.jpg	100
1081.884	1.875	1874.7	regulate	Run2	regulate/STIM_005.jpg	99
1086.372	2.323	2323.4	regulate	Run2	regulate/STIM_005.jpg	100
1091.34	1.664	1664.4	regulate	Run2	regulate/STIM_006.jpg	100
1095.98	1.406	1405.5	regulate	Run2	regulate/STIM_006.jpg	100
1100.432	1.887	1887.2	regulate	Run2	regulate/STIM_006.jpg	100
1105.953	1.875	1875.0	regulate	Run2	regulate/STIM_006.jpg	100
1110.382	1.995	1994.9	regulate	Run2	regulate/STIM_007.jpg	100
1115.134	2.426	2426.4	regulate	Run2	regulate/STIM_007.jpg	100
1119.598	2.313	2312.7	regulate	Run2	regulate/STIM_007.jpg	99
1125.365	2.112	2112.3	regulate	Run2	regulate/STIM_007.jpg	100
1131.324	2.686	2685.5	regulate	Run2	regulate/STIM_008.jpg	100
1136.086	1.321	1320.9	regulate	Run2	regulate/STIM_008.jpg	99
1140.298	1.351	1351.2	regulate	Run2	regulate/STIM_008.jpg	100
1144.786	1.416	1415.8	regulate	Run2	regulate/STIM_008.jpg	99
1148.54	2.411	2411.3	regulate	Run2	regulate/STIM_009.jpg	100
1153.93	2.116	2116.4	regulate	Run2	regulate/STIM_009.jpg	100
1158.417	1.903	1903.1	regulate	Run2	regulate/STIM_009.jpg	99
1163.378	1.701	1701.1	regulate	Run2	regulate/STIM_009.jpg	99
1168.022	2.26	2259.9	regulate	Run2	regulate/STIM_010.jpg	99
1172.406	1.886	1885.6	regulate	Run2	regulate/STIM_010.jpg	99
1177.032	2.516	2516.4	regulate	Run2	regulate/STIM_010.jpg	99
1182.767	2.47	2469.7	regulate	Run2	regulate/STIM_010.jpg	100
1187.588	2.446	2446.1	regulate	Run2	regulate/STIM_011.jpg	99
1193.699	1.828	1827.8	regulate	Run2	regulate/STIM_011.jpg	100
1197.718	1.3	1300.3	regulate	Run2	regulate/STIM_011.jpg	99
1202.096	1.714	1713.5	regulate	Run2	regulate/STIM_011.jpg	100
1206.986	1.789	1788.6	regulate	Run2	regulate/STIM_012.jpg	99
1212.675	2.541	2541.3	regulate	Run2	regulate/STIM_012.jpg	99
1217.939	1.423	1423.4	regulate	Run2	regulate/STIM_012.jpg	99
1223.143	1.973	1973.0	regulate	Run2	regulate/STIM_012.jpg	99
1228.231	2.019	2019.0	regulate	Run2	regulate/STIM_013.jpg	99
1233.233	1.478	1478.5	regulate	Run2	regulate/STIM_013.jpg	100
1237.894	2.15	2150.0	regulate	Run2	regulate/STIM_013.jpg	100
1242.802	1.326	1326.2	regulate	Run2	regulate/STIM_013.jpg	99
1248.048	2.085	2085.4	regulate	Run2	regulate/STIM_014.jpg	100
1252.746	1.917	1916.9	regulate	Run2	regulate/STIM_014.jpg	100
1257.225	1.598	1597.6	regulate	Run2	regulate/STIM_014.jpg	100
1260.989	1.486	1486.2	regulate	Run2	regulate/STIM_014.jpg	100
1265.677	2.428	2427.9	regulate	Run2	regulate/STIM_015.jpg	99
1271.086	1.562	1561.6	regulate	Run2	regulate/STIM_015.jpg	99
1276.315	1.393	1392.7	regulate	Run2	regulate/STIM_015.jpg	100
1279.845	1.504	1504.0	regulate	Run2	regulate/STIM_015.jpg	99
1283.404	2.034	2034.3	regulate	Run2	regulate/STIM_016.jpg	99
1288.101	1.515	1515.1	regulate	Run2	regulate/STIM_016.jpg	100
1293.043	1.59	1590.3	regulate	Run2	regulate/STIM_016.jpg	99
1298.612	1.425	1424.6	regulate	Run2	regulate/STIM_016.jpg	100
1303.484	2.142	2142.0	regulate	Run2	regulate/STIM_017.jpg	100
1309.383	2.702	2702.4	regulate	Run2	regulate/STIM_017.jpg	99
1314.321	1.847	1847.4	regulate	Run2	regulate/STIM_017.jpg	100
1320.14	1.235	1235.3	regulate	Run2	regulate/STIM_017.jpg	99
1324.468	1.686	1685.5	regulate	Run2	regulate/STIM_018.jpg	100
1329.084	2.475	2474.8	regulate	Run2	regulate/STIM_018.jpg	100
1335.155	1.523	1522.7	regulate	Run2	regulate/STIM_018.jpg	100
1339.125	2.042	2042.2	regulate	Run2	regulate/STIM_018.jpg	100
1343.425	1.902	1902.0	regulate	Run2	regulate/STIM_019.jpg	100
1347.523	1.833	1833.2	regulate	Run2	regulate/STIM_019.jpg	99
1352.757	1.868	1868.0	regulate	Run2	regulate/STIM_019.jpg	99
1358.208	1.179	1178.6	regulate	Run2	regulate/STIM_019.jpg	100
1361.396	1.721	1721.3	regulate	Run2	regulate/STIM_020.jpg	99
1366.639	1.276	1276.4	regulate	Run2	regulate/STIM_020.jpg	100
1370.356	2.399	2398.6	regulate	Run2	regulate/STIM_020.jpg	100
1376.271	1.13	1130.0	regulate	Run2	regulate/STIM_020.jpg	100
1381.102	1.43	1429.6	regulate	Run2	regulate/STIM_021.jpg	99
1385.242	1.834	1834.0	regulate	Run2	regulate/STIM_021.jpg	99
1390.974	1.888	1888.2	regulate	Run2	regulate/STIM_021.jpg	100
1395.652	1.629	1629.2	regulate	Run2	regulate/STIM_021.jpg	100
1401.016	2.528	2528.5	regulate	Run2	regulate/STIM_022.jpg	100
1406.267	1.953	1952.6	regulate	Run2	regulate/STIM_022.jpg	100
1411.361	1.515	1514.6	regulate	Run2	regulate/STIM_022.jpg	100
1416.644	1.842	1842.3	regulate	Run2	regulate/STIM_022.jpg	100
1420.932	1.603	1602.9	regulate	Run2	regulate/STIM_023.jpg	100
1425.061	2.362	2361.7	regulate	Run2	regulate/STIM_023.jpg	100
1430.605	2.012	2012.1	regulate	Run2	regulate/STIM_023.jpg	99
1436.057	2.321	2321.4	regulate	Run2	regulate/STIM_023.jpg	99
1442.156	2.751	2750.9	regulate	Run2	regulate/STIM_024.jpg	99
1448.557	2.586	2585.5	regulate	Run2	regulate/STIM_024.jpg	100
1454.88	1.202	1202.4	regulate	Run2	regulate/STIM_024.jpg	99
1458.659	1.991	1990.9	regulate	Run2	regulate/STIM_024.jpg	99
1462.954	2.261	2260.8	regulate	Run2	regulate/STIM_025.jpg	99
1469.085	1.656	1656.2	regulate	Run2	regulate/STIM_025.jpg	100
1474.578	1.974	1974.4	regulate	Run2	regulate/STIM_025.jpg	100
1479.422	1.485	1484.7	regulate	Run2	regulate/STIM_025.jpg	99
1483.244	2.892	2891.7	regulate	Run2	regulate/STIM_026.jpg	99
1488.651	1.932	1932.0	regulate	Run2	regulate/STIM_026.jpg	99
1492.793	2.59	2589.5	regulate	Run2	regulate/STIM_026.jpg	99
1497.806	1.444	1444.2	regulate	Run2	regulate/STIM_026.jpg	99
1501.836	2.959	2959.0	regulate	Run2	regulate/STIM_027.jpg	100
1507.589	1.333	1332.9	regulate	Run2	regulate/STIM_027.jpg	99
1512.06	1.663	1662.7	regulate	Run2	regulate/STIM_027.jpg	99
1517.375	2.232	2232.0	regulate	Run2	regulate/STIM_027.jpg	99
1523.07	2.371	2370.7	regulate	Run2	regulate/STIM_028.jpg	99
1528.177	2.182	2181.9	regulate	Run2	regulate/STIM_028.jpg	100
1532.498	2.256	2256.4	regulate	Run2	regulate/STIM_028.jpg	99
1537.414	1.611	1611.2	regulate	Run2	regulate/STIM_028.jpg	100
1542.945	2.808	2808.3	regulate	Run2	regulate/STIM_029.jpg	100
1547.785	2.346	2346.1	regulate	Run2	regulate/STIM_029.jpg	100
1552.206	2.493	2493.4	regulate	Run2	regulate/STIM_029.jpg	99
1557.075	2.295	2295.3	regulate	Run2	regulate/STIM_029.jpg	99
1561.534	1.502	1502.1	observe	Run2	observe/STIM_000.jpg	100
1566.629	1.252	1252.5	observe	Run2	observe/STIM_000.jpg	100
1571.248	1.114	1114.3	observe	Run2	observe/STIM_000.jpg	99
1575.194	1.014	1014.5	observe	Run2	observe/STIM_000.jpg	99
1579.327	1.136	1136.0	observe	Run2	observe/STIM_001.jpg	100
1582.546	1.17	1170.1	observe	Run2	observe/STIM_001.jpg	99
1586.556	1.566	1566.2	observe	Run2	observe/STIM_001.jpg	99
1590.77	1.193	1193.2	observe	Run2	observe/STIM_001.jpg	99
1595.862	1.108	1107.7	observe	Run2	observe/STIM_002.jpg	99
1599.748	1.318	1317.7	observe	Run2	observe/STIM_002.jpg	100
1603.841	1.388	1388.4	observe	Run2	observe/STIM_002.jpg	100
1608.186	0.845	845.0	observe	Run2	observe/STIM_002.jpg	99
1611.092	1.137	1137.0	observe	Run2	observe/STIM_003.jpg	99
1615.564	1.569	1569.1	observe	Run2	observe/STIM_003.jpg	99
1619.171	1.035	1035.2	observe	Run2	observe/STIM_003.jpg	100
1622.232	1.018	1018.5	observe	Run2	observe/STIM_003.jpg	99
1625.45	0.933	932.9	observe	Run2	observe/STIM_004.jpg	99
1628.524	1.129	1129.0	observe	Run2	observe/STIM_004.jpg	99
1632.511	1.106	1106.3	observe	Run2	observe/STIM_004.jpg	99
1637.357	1.402	1402.0	observe	Run2	observe/STIM_004.jpg	100
1642.563	1.052	1051.7	observe	Run2	observe/STIM_005.jpg	100
1646.437	1.467	1467.0	observe	Run2	observe/STIM_005.jpg	99
1651.701	1.088	1088.3	observe	Run2	observe/STIM_005.jpg	100
1656.7	1.279	1279.1	observe	Run2	observe/STIM_005.jpg	99
1660.289	1.553	1553.4	observe	Run2	observe/STIM_006.jpg	99
1664.195	1.622	1621.7	observe	Run2	observe/STIM_006.jpg	99
1667.887	0.918	917.8	observe	Run2	observe/STIM_006.jpg	99
1671.934	1.469	1469.2	observe	Run2	observe/STIM_006.jpg	99
1675.595	1.4	1399.8	observe	Run2	observe/STIM_007.jpg	100
1679.76	1.212	1211.7	observe	Run2	observe/STIM_007.jpg	100
1683.83	0.964	963.7	observe	Run2	observe/STIM_007.jpg	100
1687.553	1.045	1045.4	observe	Run2	observe/STIM_007.jpg	99
1691.68	1.268	1267.9	observe	Run2	observe/STIM_008.jpg	99
1696.068	1.34	1340.4	observe	Run2	observe/STIM_008.jpg	99
1701.108	1.125	1124.7	observe	Run2	observe/STIM_008.jpg	100
1705.512	1.361	1361.0	observe	Run2	observe/STIM_008.jpg	100
1710.052	1.269	1269.3	observe	Run2	observe/STIM_009.jpg	100
1714.134	1.404	1404.1	observe	Run2	observe/STIM_009.jpg	100
1719.104	1.416	1416.1	observe	Run2	observe/STIM_009.jpg	100
1723.413	1.297	1296.9	observe	Run2	observe/STIM_009.jpg	99
1728.315	1.621	1620.9	observe	Run2	observe/STIM_010.jpg	99
1733.91	1.258	1257.8	observe	Run2	observe/STIM_010.jpg	100
1738.143	1.273	1273.1	observe	Run2	observe/STIM_010.jpg	99
1742.247	1.604	1604.0	observe	Run2	observe/STIM_010.jpg	99
1747.311	0.982	982.0	observe	Run2	observe/STIM_011.jpg	99
1752.064	0.997	997.1	observe	Run2	observe/STIM_011.jpg	99
1756.884	0.923	922.6	observe	Run2	observe/STIM_011.jpg	99
1761.18	1.485	1485.1	observe	Run2	observe/STIM_011.jpg	99
1765.684	1.198	1198.2	observe	Run2	observe/STIM_012.jpg	100
1768.974	0.819	818.7	observe	Run2	observe/STIM_012.jpg	100
1772.691	1.126	1126.3	observe	Run2	observe/STIM_012.jpg	100
1777.011	0.886	885.6	observe	Run2	observe/STIM_012.jpg	100
1780.759	1.337	1336.6	observe	Run2	observe/STIM_013.jpg	99
1785.147	0.911	910.9	observe	Run2	observe/STIM_013.jpg	99
1789.242	1.075	1074.6	observe	Run2	observe/STIM_013.jpg	99
1792.77	1.51	1509.7	observe	Run2	observe/STIM_013.jpg	99
1797.369	1.115	1114.6	observe	Run2	observe/STIM_014.jpg	99
1802.364	1.35	1350.0	observe	Run2	observe/STIM_014.jpg	100
1805.802	0.82	819.7	observe	Run2	observe/STIM_014.jpg	99
1810.186	1.245	1245.1	observe	Run2	observe/STIM_014.jpg	99
1813.586	1.501	1500.7	observe	Run2	observe/STIM_015.jpg	99
1817.238	1.156	1156.5	observe	Run2	observe/STIM_015.jpg	99
1821.039	1.456	1455.8	observe	Run2	observe/STIM_015.jpg	99
1824.649	1.552	1552.1	observe	Run2	observe/STIM_015.jpg	99
1829.35	0.863	862.6	observe	Run2	observe/STIM_016.jpg	99
1833.813	1.523	1523.4	observe	Run2	observe/STIM_016.jpg	99
1838.997	1.61	1609.7	observe	Run2	observe/STIM_016.jpg	99
1844.527	1.228	1227.8	observe	Run2	observe/STIM_016.jpg	99
1849.212	0.855	855.4	observe	Run2	observe/STIM_017.jpg	99
1853.809	1.22	1220.5	observe	Run2	observe/STIM_017.jpg	100
1858.523	1.074	1074.4	observe	Run2	observe/STIM_017.jpg	100
1862.729	1.085	1084.8	observe	Run2	observe/STIM_017.jpg	99
1867.103	1.48	1479.8	observe	Run2	observe/STIM_018.jpg	99
1871.975	1.524	1523.7	observe	Run2	observe/STIM_018.jpg	99
1876.087	1.517	1516.9	observe	Run2	observe/STIM_018.jpg	99
1879.972	1.534	1533.6	observe	Run2	observe/STIM_018.jpg	99
1883.889	1.417	1416.6	observe	Run2	observe/STIM_019.jpg	99
1887.501	1.434	1433.9	observe	Run2	observe/STIM_019.jpg	99
1891.053	1.078	1078.3	observe	Run2	observe/STIM_019.jpg	100
1896.095	1.44	1440.1	observe	Run2	observe/STIM_019.jpg	99
1901.022	1.17	1170.3	regulate	Run3	regulate/STIM_000.jpg	100
1905.762	2.455	2454.7	regulate	Run3	regulate/STIM_000.jpg	100
1911.334	2.133	2133.3	regulate	Run3	regulate/STIM_000.jpg	100
1915.739	1.832	1832.1	regulate	Run3	regulate/STIM_000.jpg	100
1919.673	1.149	1149.1	regulate	Run3	regulate/STIM_001.jpg	99
1922.981	1.607	1607.1	regulate	Run3	regulate/STIM_001.jpg	99
1926.991	2.24	2239.5	regulate	Run3	regulate/STIM_001.jpg	99
1931.805	1.414	1414.2	regulate	Run3	regulate/STIM_001.jpg	99
1935.529	1.999	1998.9	regulate	Run3	regulate/STIM_002.jpg	99
1940.569	2.067	2066.6	regulate	Run3	regulate/STIM_002.jpg	100
1944.787	1.594	1593.8	regulate	Run3	regulate/STIM_002.jpg	100
1949.627	1.681	1680.7	regulate	Run3	regulate/STIM_002.jpg	99
1953.819	1.847	1846.9	regulate	Run3	regulate/STIM_003.jpg	100
1958.886	1.745	1745.0	regulate	Run3	regulate/STIM_003.jpg	100
1962.709	1.263	1263.0	regulate	Run3	regulate/STIM_003.jpg	99
1967.009	1.566	1566.0	regulate	Run3	regulate/STIM_003.jpg	100
1971.952	2.161	2161.4	regulate	Run3	regulate/STIM_004.jpg	100
1976.684	2.11	2110.1	regulate	Run3	regulate/STIM_004.jpg	99
1981.666	1.658	1657.7	regulate	Run3	regulate/STIM_004.jpg	99
1985.886	1.924	1924.4	regulate	Run3	regulate/STIM_004.jpg	100
1990.923	1.779	1778.6	regulate	Run3	regulate/STIM_005.jpg	100
1995.477	1.544	1543.5	regulate	Run3	regulate/STIM_005.jpg	100
2000.353	2.287	2286.9	regulate	Run3	regulate/STIM_005.jpg	99
2005.264	2.423	2422.9	regulate	Run3	regulate/STIM_005.jpg	100
2011.345	2.239	2239.2	regulate	Run3	regulate/STIM_006.jpg	99
2017.017	1.551	1551.4	regulate	Run3	regulate/STIM_006.jpg	100
2021.734	2.372	2371.7	regulate	Run3	regulate/STIM_006.jpg	99
2027.734	1.625	1624.6	regulate	Run3	regulate/STIM_006.jpg	99
2033.245	1.883	1883.3	regulate	Run3	regulate/STIM_007.jpg	100
2038.629	1.603	1602.7	regulate	Run3	regulate/STIM_007.jpg	100
2042.375	1.916	1916.4	regulate	Run3	regulate/STIM_007.jpg	99
2046.372	1.572	1572.4	regulate	Run3	regulate/STIM_007.jpg	99
2051.268	2.286	2286.1	regulate	Run3	regulate/STIM_008.jpg	99
2056.526	1.238	1237.9	regulate	Run3	regulate/STIM_008.jpg	99
2061.244	2.005	2005.4	regulate	Run3	regulate/STIM_008.jpg	99
2067.043	1.868	1867.8	regulate	Run3	regulate/STIM_008.jpg	100
2072.598	1.727	1727.4	regulate	Run3	regulate/STIM_009.jpg	100
2077.813	1.814	1813.8	regulate	Run3	regulate/STIM_009.jpg	99
2082.794	1.627	1627.2	regulate	Run3	regulate/STIM_009.jpg	100
2088.225	2.124	2123.6	regulate	Run3	regulate/STIM_009.jpg	99
2093.428	1.996	1995.8	regulate	Run3	regulate/STIM_010.jpg	100
2098.368	1.124	1123.8	regulate	Run3	regulate/STIM_010.jpg	100
2102.007	1.164	1163.5	regulate	Run3	regulate/STIM_010.jpg	99
2105.177	2.261	2260.6	regulate	Run3	regulate/STIM_010.jpg	100
2111.399	1.995	1994.6	regulate	Run3	regulate/STIM_011.jpg	100
2116.12	1.54	1539.7	regulate	Run3	regulate/STIM_011.jpg	100
2120.001	2.068	2068.4	regulate	Run3	regulate/STIM_011.jpg	100
2124.415	1.875	1874.9	regulate	Run3	regulate/STIM_011.jpg	99
2129.711	2.346	2346.0	regulate	Run3	regulate/STIM_012.jpg	99
2136.027	2.121	2121.4	regulate	Run3	regulate/STIM_012.jpg	99
2141.879	1.372	1371.6	regulate	Run3	regulate/STIM_012.jpg	99
2145.573	2.416	2416.3	regulate	Run3	regulate/STIM_012.jpg	100
2151.786	2.185	2184.7	regulate	Run3	regulate/STIM_013.jpg	100
2157.101	1.344	1343.7	regulate	Run3	regulate/STIM_013.jpg	100
2161.413	2.208	2208.1	regulate	Run3	regulate/STIM_013.jpg	100
2166.524	2.119	2118.7	regulate	Run3	regulate/STIM_013.jpg	100
2171.722	1.618	1617.9	regulate	Run3	regulate/STIM_014.jpg	99
2177.143	1.579	1578.8	regulate	Run3	regulate/STIM_014.jpg	100
2181.976	2.128	2127.5	regulate	Run3	regulate/STIM_014.jpg	99
2186.644	2.283	2282.8	regulate	Run3	regulate/STIM_014.jpg	99
2192.157	1.086	1086.5	regulate	Run3	regulate/STIM_015.jpg	99
2196.915	2.255	2255.1	regulate	Run3	regulate/STIM_015.jpg	100
2202.734	1.092	1091.5	regulate	Run3	regulate/STIM_015.jpg	99
2206.954	2.431	2430.8	regulate	Run3	regulate/STIM_015.jpg	99
2212.036	1.243	1242.8	regulate	Run3	regulate/STIM_016.jpg	99
2217.094	1.35	1349.9	regulate	Run3	regulate/STIM_016.jpg	100
2222.395	1.805	1804.9	regulate	Run3	regulate/STIM_016.jpg	99
2226.711	1.386	1385.7	regulate	Run3	regulate/STIM_016.jpg	99
2231.784	1.799	1798.6	regulate	Run3	regulate/STIM_017.jpg	99
2236.241	2.163	2163.3	regulate	Run3	regulate/STIM_017.jpg	100
2241.858	2.102	2101.9	regulate	Run3	regulate/STIM_017.jpg	99
2247.608	1.39	1390.4	regulate	Run3	regulate/STIM_017.jpg	100
2252.911	2.022	2022.0	regulate	Run3	regulate/STIM_018.jpg	99
2258.819	2.425	2425.0	regulate	Run3	regulate/STIM_018.jpg	99
2264.713	1.151	1151.2	regulate	Run3	regulate/STIM_018.jpg	99
2267.986	2.434	2434.3	regulate	Run3	regulate/STIM_018.jpg	100
2272.842	2.014	2014.5	regulate	Run3	regulate/STIM_019.jpg	100
2277.535	1.795	1795.0	regulate	Run3	regulate/STIM_019.jpg	100
2283.033	1.548	1547.5	regulate	Run3	regulate/STIM_019.jpg	99
2287.476	1.824	1824.4	regulate	Run3	regulate/STIM_019.jpg	100
2292.113	2.276	2275.5	regulate	Run3	regulate/STIM_020.jpg	100
2297.327	1.092	1092.3	regulate	Run3	regulate/STIM_020.jpg	99
2302.385	1.086	1086.5	regulate	Run3	regulate/STIM_020.jpg	100
2306.137	1.884	1883.5	regulate	Run3	regulate/STIM_020.jpg	99
2310.798	2.268	2267.8	regulate	Run3	regulate/STIM_021.jpg	99
2315.934	1.224	1223.5	regulate	Run3	regulate/STIM_021.jpg	100
2320.194	2.463	2462.7	regulate	Run3	regulate/STIM_021.jpg	100
2325.973	1.993	1992.6	regulate	Run3	regulate/STIM_021.jpg	100
2330.872	1.761	1760.6	regulate	Run3	regulate/STIM_022.jpg	99
2336.332	2.408	2407.8	regulate	Run3	regulate/STIM_022.jpg	100
2342.577	1.383	1383.4	regulate	Run3	regulate/STIM_022.jpg	99
2346.771	1.624	1623.8	regulate	Run3	regulate/STIM_022.jpg	100
2351.611	1.259	1259.0	regulate	Run3	regulate/STIM_023.jpg	100
2356.457	1.578	1577.7	regulate	Run3	regulate/STIM_023.jpg	99
2360.448	1.658	1658.3	regulate	Run3	regulate/STIM_023.jpg	100
2365.213	2.225	2224.6	regulate	Run3	regulate/STIM_023.jpg	100
2370.887	1.77	1769.5	regulate	Run3	regulate/STIM_024.jpg	100
2374.815	2.415	2415.1	regulate	Run3	regulate/STIM_024.jpg	99
2380.673	1.591	1591.2	regulate	Run3	regulate/STIM_024.jpg	100
2385.609	1.581	1581.3	regulate	Run3	regulate/STIM_024.jpg	100
2390.038	1.883	1882.8	regulate	Run3	regulate/STIM_025.jpg	100
2394.588	1.791	1791.2	regulate	Run3	regulate/STIM_025.jpg	99
2399.817	1.736	1735.8	regulate	Run3	regulate/STIM_025.jpg	100
2404.531	2.007	2006.9	regulate	Run3	regulate/STIM_025.jpg	100
2410.037	2.296	2296.4	regulate	Run3	regulate/STIM_026.jpg	99
2415.463	1.257	1257.2	regulate	Run3	regulate/STIM_026.jpg	99
2419.596	2.186	2185.9	regulate	Run3	regulate/STIM_026.jpg	99
2424.873	2.411	2411.4	regulate	Run3	regulate/STIM_026.jpg	100
2430.495	1.211	1210.7	regulate	Run3	regulate/STIM_027.jpg	100
2435.051	2.239	2238.9	regulate	Run3	regulate/STIM_027.jpg	100
2439.738	1.521	1521.4	regulate	Run3	regulate/STIM_027.jpg	100
2444.055	2.214	2214.2	regulate	Run3	regulate/STIM_027.jpg	100
2449.765	1.307	1307.4	regulate	Run3	regulate/STIM_028.jpg	100
2453.254	1.932	1931.9	regulate	Run3	regulate/STIM_028.jpg	99
2458.56	1.28	1280.5	regulate	Run3	regulate/STIM_028.jpg	100
2463.456	1.112	1112.0	regulate	Run3	regulate/STIM_028.jpg	100
2467.616	1.261	1261.1	regulate	Run3	regulate/STIM_029.jpg	100
2472.543	1.82	1820.0	regulate	Run3	regulate/STIM_029.jpg	100
2477.031	1.291	1290.8	regulate	Run3	regulate/STIM_029.jpg	99
2480.869	2.058	2057.7	regulate	Run3	regulate/STIM_029.jpg	100
2486.668	0.948	948.5	observe	Run3	observe/STIM_000.jpg	99
2490.593	1.315	1314.8	observe	Run3	observe/STIM_000.jpg	100
2495.46	1.153	1152.6	observe	Run3	observe/STIM_000.jpg	100
2498.975	1.462	1462.4	observe	Run3	observe/STIM_000.jpg	99
2502.759	1.468	1468.1	observe	Run3	observe/STIM_001.jpg	100
2506.229	0.864	863.7	observe	Run3	observe/STIM_001.jpg	99
2509.312	1.621	1620.9	observe	Run3	observe/STIM_001.jpg	100
2513.6	1.253	1253.0	observe	Run3	observe/STIM_001.jpg	99
2518.357	1.594	1593.9	observe	Run3	observe/STIM_002.jpg	99
2523.034	0.905	905.1	observe	Run3	observe/STIM_002.jpg	99
2526.562	1.528	1527.7	observe	Run3	observe/STIM_002.jpg	100
2531.387	0.897	896.8	observe	Run3	observe/STIM_002.jpg	99
2534.769	1.159	1158.6	observe	Run3	observe/STIM_003.jpg	99
2539.551	1.34	1340.2	observe	Run3	observe/STIM_003.jpg	100
2542.989	1.27	1269.6	observe	Run3	observe/STIM_003.jpg	99
2547.799	1.302	1301.9	observe	Run3	observe/STIM_003.jpg	99
2553.002	1.127	1127.1	observe	Run3	observe/STIM_004.jpg	100
2557.998	1.098	1097.8	observe	Run3	observe/STIM_004.jpg	99
2561.388	1.439	1438.6	observe	Run3	observe/STIM_004.jpg	100
2566.35	1.246	1245.7	observe	Run3	observe/STIM_004.jpg	99
2570.815	1.53	1530.1	observe	Run3	observe/STIM_005.jpg	99
2576.121	1.21	1210.3	observe	Run3	observe/STIM_005.jpg	100
2580.314	1.08	1080.0	observe	Run3	observe/STIM_005.jpg	100
2583.473	1.373	1372.8	observe	Run3	observe/STIM_005.jpg	100
2588.218	1.474	1473.7	observe	Run3	observe/STIM_006.jpg	99
2592.764	0.872	872.1	observe	Run3	observe/STIM_006.jpg	100
2597.171	1.24	1240.4	observe	Run3	observe/STIM_006.jpg	100
2601.986	0.85	850.1	observe	Run3	observe/STIM_006.jpg	99
2606.048	1.288	1288.1	observe	Run3	observe/STIM_007.jpg	100
2610.922	1.186	1185.7	observe	Run3	observe/STIM_007.jpg	99
2615.047	1.611	1611.2	observe	Run3	observe/STIM_007.jpg	99
2618.724	0.973	973.3	observe	Run3	observe/STIM_007.jpg	100
2622.874	1.355	1355.0	observe	Run3	observe/STIM_008.jpg	99
2628.137	1.205	1205.2	observe	Run3	observe/STIM_008.jpg	99
2633.165	0.928	927.8	observe	Run3	observe/STIM_008.jpg	99
2637.882	1.021	1021.3	observe	Run3	observe/STIM_008.jpg	100
2641.378	1.053	1052.7	observe	Run3	observe/STIM_009.jpg	99
2646.082	1.173	1172.8	observe	Run3	observe/STIM_009.jpg	99
2649.586	0.932	932.3	observe	Run3	observe/STIM_009.jpg	100
2653.333	1.365	1365.2	observe	Run3	observe/STIM_009.jpg	99
2658.22	0.879	879.0	observe	Run3	observe/STIM_010.jpg	100
2661.353	0.872	871.7	observe	Run3	observe/STIM_010.jpg	99
2665.24	1.31	1310.0	observe	Run3	observe/STIM_010.jpg	100
2669.475	1.51	1509.8	observe	Run3	observe/STIM_010.jpg	100
2674.947	1.358	1357.6	observe	Run3	observe/STIM_011.jpg	100
2680.021	1.316	1316.1	observe	Run3	observe/STIM_011.jpg	100
2684.507	1.126	1125.5	observe	Run3	observe/STIM_011.jpg	99
2688.482	1.482	1482.4	observe	Run3	observe/STIM_011.jpg	100
2692.643	0.916	916.5	observe	Run3	observe/STIM_012.jpg	99
2697.049	1.542	1542.1	observe	Run3	observe/STIM_012.jpg	100
2700.904	1.579	1579.2	observe	Run3	observe/STIM_012.jpg	99
2705.405	1.526	1526.5	observe	Run3	observe/STIM_012.jpg	99
2710.637	1.158	1158.0	observe	Run3	observe/STIM_013.jpg	100
2714.785	1.062	1062.3	observe	Run3	observe/STIM_013.jpg	100
2719.656	1.036	1036.3	observe	Run3	observe/STIM_013.jpg	100
2723.412	1.195	1194.7	observe	Run3	observe/STIM_013.jpg	99
2728.547	1.617	1617.3	observe	Run3	observe/STIM_014.jpg	99
2733.825	1.178	1178.3	observe	Run3	observe/STIM_014.jpg	99
2738.378	1.326	1326.0	observe	Run3	observe/STIM_014.jpg	99
2742.202	1.606	1605.6	observe	Run3	observe/STIM_014.jpg	99
2747.313	1.006	1005.6	observe	Run3	observe/STIM_015.jpg	99
2751.67	1.29	1290.3	observe	Run3	observe/STIM_015.jpg	100
2756.67	0.95	949.6	observe	Run3	observe/STIM_015.jpg	100
2760.842	1.05	1049.5	observe	Run3	observe/STIM_015.jpg	99
2764.565	1.08	1079.5	observe	Run3	observe/STIM_016.jpg	100
2768.534	1.125	1125.1	observe	Run3	observe/STIM_016.jpg	99
2773.155	1.332	1332.1	observe	Run3	observe/STIM_016.jpg	100
2777.309	0.88	880.2	observe	Run3	observe/STIM_016.jpg	99
2780.618	1.382	1381.6	observe	Run3	observe/STIM_017.jpg	100
2784.484	0.974	974.4	observe	Run3	observe/STIM_017.jpg	100
2788.095	0.889	889.2	observe	Run3	observe/STIM_017.jpg	99
2792.718	1.156	1156.2	observe	Run3	observe/STIM_017.jpg	99
2797.436	0.841	841.3	observe	Run3	observe/STIM_018.jpg	99
2801.888	1.431	1430.8	observe	Run3	observe/STIM_018.jpg	99
2807.11	1.242	1242.0	observe	Run3	observe/STIM_018.jpg	100
2811.139	0.953	953.2	observe	Run3	observe/STIM_018.jpg	100
2815.156	1.223	1223.3	observe	Run3	observe/STIM_019.jpg	99
2819.975	1.177	1176.7	observe	Run3	observe/STIM_019.jpg	99
2823.892	1.538	1537.8	observe	Run3	observe/STIM_019.jpg	100
2828.462	0.869	869.2	observe	Run3	observe/STIM_019.jpg	99
