onset	duration	response_time_ms	trial_type	learning_stage	stimulus	response_port
0.0	2.907	2906.6	regulate	Run1	regulate/STIM_000.jpg	99
5.484	2.923	2922.7	regulate	Run1	regulate/STIM_000.jpg	99
10.304	3.358	3358.1	regulate	Run1	regulate/STIM_000.jpg	100
16.947	3.108	3108.0	regulate	Run1	regulate/STIM_000.jpg	99
22.682	3.461	3461.3	regulate	Run1	regulate/STIM_001.jpg	99
28.28	3.039	3039.1	regulate	Run1	regulate/STIM_001.jpg	100
34.602	3.089	3089.2	regulate	Run1	regulate/STIM_001.jpg	99
39.678	2.536	2535.5	regulate	Run1	regulate/STIM_001.jpg	99
45.458	2.293	2292.8	regulate	Run1	regulate/STIM_002.jpg	99
51.582	1.693	1693.3	regulate	Run1	regulate/STIM_002.jpg	99
55.826	2.437	2437.0	regulate	Run1	regulate/STIM_002.jpg	100
60.822	1.649	1648.8	regulate	Run1	regulate/STIM_002.jpg	100
64.427	3.771	3770.8	regulate	Run1	regulate/STIM_003.jpg	100
70.765	2.075	2074.7	regulate	Run1	regulate/STIM_003.jpg	99
74.876	2.058	2058.1	regulate	Run1	regulate/STIM_003.jpg	100
80.069	1.524	1524.0	regulate	Run1	regulate/STIM_003.jpg	100
85.029	3.773	3772.8	regulate	Run1	regulate/STIM_004.jpg	99
91.591	3.518	3518.4	regulate	Run1	regulate/STIM_004.jpg	99
97.291	2.356	2355.8	regulate	Run1	regulate/STIM_004.jpg	99
102.347	2.99	2990.4	regulate	Run1	regulate/STIM_004.jpg	99
108.756	2.225	2224.9	regulate	Run1	regulate/STIM_005.jpg	100
113.659	1.936	1936.5	regulate	Run1	regulate/STIM_005.jpg	99
118.06	2.261	2261.0	regulate	Run1	regulate/STIM_005.jpg	100
123.461	1.786	1786.4	regulate	Run1	regulate/STIM_005.jpg	99
128.167	2.232	2232.0	regulate	Run1	regulate/STIM_006.jpg	99
132.205	2.423	2422.9	regulate	Run1	regulate/STIM_006.jpg	99
138.163	1.827	1826.7	regulate	Run1	regulate/STIM_006.jpg	100
142.926	2.343	2342.8	regulate	Run1	regulate/STIM_006.jpg	99
147.628	2.69	2689.7	regulate	Run1	regulate/STIM_007.jpg	99
152.714	1.996	1996.1	regulate	Run1	regulate/STIM_007.jpg	100
158.179	3.044	3043.5	regulate	Run1	regulate/STIM_007.jpg	100
163.251	2.084	2083.7	regulate	Run1	regulate/STIM_007.jpg	100
167.84	3.007	3007.2	regulate	Run1	regulate/STIM_008.jpg	99
174.413	3.506	3505.8	regulate	Run1	regulate/STIM_008.jpg	99
181.31	3.419	3418.9	regulate	Run1	regulate/STIM_008.jpg	99
187.868	2.896	2895.7	regulate	Run1	regulate/STIM_008.jpg	100
193.711	3.523	3523.2	regulate	Run1	regulate/STIM_009.jpg	99
199.996	1.595	1594.6	regulate	Run1	regulate/STIM_009.jpg	99
205.113	2.348	2348.2	regulate	Run1	regulate/STIM_009.jpg	100
209.776	3.286	3286.2	regulate	Run1	regulate/STIM_009.jpg	99
214.737	3.224	3223.6	regulate	Run1	regulate/STIM_010.jpg	99
220.979	2.095	2094.9	regulate	Run1	regulate/STIM_010.jpg	100
225.213	1.62	1619.7	regulate	Run1	regulate/STIM_010.jpg	100
230.346	1.736	1735.7	regulate	Run1	regulate/STIM_010.jpg	99
235.148	1.599	1598.6	regulate	Run1	regulate/STIM_011.jpg	99
240.46	3.178	3178.0	regulate	Run1	regulate/STIM_011.jpg	100
245.595	2.854	2853.7	regulate	Run1	regulate/STIM_011.jpg	99
250.817	2.91	2910.0	regulate	Run1	regulate/STIM_011.jpg	100
255.885	3.434	3433.5	regulate	Run1	regulate/STIM_012.jpg	99
261.063	2.432	2431.5	regulate	Run1	regulate/STIM_012.jpg	100
266.422	3.235	3235.0	regulate	Run1	regulate/STIM_012.jpg	100
273.043	2.471	2470.7	regulate	Run1	regulate/STIM_012.jpg	99
278.08	3.808	3807.9	regulate	Run1	regulate/STIM_013.jpg	100
284.64	2.588	2588.0	regulate	Run1	regulate/STIM_013.jpg	100
290.552	2.342	2342.2	regulate	Run1	regulate/STIM_013.jpg	99
295.847	1.645	1645.2	regulate	Run1	regulate/STIM_013.jpg	99
301.242	3.781	3781.0	regulate	Run1	regulate/STIM_014.jpg	100
308.535	3.412	3411.8	regulate	Run1	regulate/STIM_014.jpg	100
313.774	2.721	2720.9	regulate	Run1	regulate/STIM_014.jpg	100
319.298	1.774	1773.6	regulate	Run1	regulate/STIM_014.jpg	100
324.048	2.322	2322.2	regulate	Run1	regulate/STIM_015.jpg	99
329.292	1.88	1879.6	regulate	Run1	regulate/STIM_015.jpg	99
335.028	3.228	3228.0	regulate	Run1	regulate/STIM_015.jpg	99
340.208	2.004	2004.4	regulate	Run1	regulate/STIM_015.jpg	99
344.144	1.843	1842.8	regulate	Run1	regulate/STIM_016.jpg	100
349.285	1.916	1915.7	regulate	Run1	regulate/STIM_016.jpg	100
354.447	3.435	3434.9	regulate	Run1	regulate/STIM_016.jpg	99
360.727	2.495	2494.7	regulate	Run1	regulate/STIM_016.jpg	99
366.066	3.047	3047.1	regulate	Run1	regulate/STIM_017.jpg	99
371.914	1.89	1890.2	regulate	Run1	regulate/STIM_017.jpg	99
376.917	2.848	2848.3	regulate	Run1	regulate/STIM_017.jpg	99
382.998	1.524	1524.5	regulate	Run1	regulate/STIM_017.jpg	100
386.872	2.803	2802.9	regulate	Run1	regulate/STIM_018.jpg	99
391.881	2.046	2045.7	regulate	Run1	regulate/STIM_018.jpg	100
396.056	2.724	2724.3	regulate	Run1	regulate/STIM_018.jpg	100
401.067	1.446	1446.3	regulate	Run1	regulate/STIM_018.jpg	100
406.201	2.203	2202.8	regulate	Run1	regulate/STIM_019.jpg	100
410.663	3.005	3005.1	regulate	Run1	regulate/STIM_019.jpg	100
415.803	3.267	3267.2	regulate	Run1	regulate/STIM_019.jpg	100
420.81	2.832	2832.3	regulate	Run1	regulate/STIM_019.jpg	99
427.09	2.396	2395.8	regulate	Run1	regulate/STIM_020.jpg	100
431.861	3.64	3640.3	regulate	Run1	regulate/STIM_020.jpg	100
437.537	3.249	3249.4	regulate	Run1	regulate/STIM_020.jpg	99
443.741	2.531	2531.1	regulate	Run1	regulate/STIM_020.jpg	99
450.02	3.223	3223.1	regulate	Run1	regulate/STIM_021.jpg	99
455.306	2.232	2232.2	regulate	Run1	regulate/STIM_021.jpg	100
460.899	3.062	3062.1	regulate	Run1	regulate/STIM_021.jpg	100
467.17	2.249	2248.6	regulate	Run1	regulate/STIM_021.jpg	99
472.602	2.072	2072.3	regulate	Run1	regulate/STIM_022.jpg	100
477.61	2.659	2659.4	regulate	Run1	regulate/STIM_022.jpg	99
483.848	2.302	2302.0	regulate	Run1	regulate/STIM_022.jpg	100
489.388	2.947	2947.3	regulate	Run1	regulate/STIM_022.jpg	99
494.721	3.612	3611.5	regulate	Run1	regulate/STIM_023.jpg	99
500.422	2.788	2787.5	regulate	Run1	regulate/STIM_023.jpg	99
505.549	1.723	1723.1	regulate	Run1	regulate/STIM_023.jpg	100
510.344	2.555	2554.8	regulate	Run1	regulate/STIM_023.jpg	100
515.01	3.497	3496.9	regulate	Run1	regulate/STIM_024.jpg	100
520.341	2.491	2491.1	regulate	Run1	regulate/STIM_024.jpg	100
525.351	2.933	2932.9	regulate	Run1	regulate/STIM_024.jpg	100
531.246	2.576	2575.9	regulate	Run1	regulate/STIM_024.jpg	99
536.701	1.99	1990.2	regulate	Run1	regulate/STIM_025.jpg	99
541.711	2.833	2833.1	regulate	Run1	regulate/STIM_025.jpg	100
547.788	1.955	1955.2	regulate	Run1	regulate/STIM_025.jpg	100
553.287	2.7	2700.4	regulate	Run1	regulate/STIM_025.jpg	99
557.884	1.998	1998.3	regulate	Run1	regulate/STIM_026.jpg	100
562.915	2.136	2135.5	regulate	Run1	regulate/STIM_026.jpg	100
567.651	2.487	2487.0	regulate	Run1	regulate/STIM_026.jpg	99
573.388	2.26	2259.9	regulate	Run1	regulate/STIM_026.jpg	99
578.712	3.5	3500.3	regulate	Run1	regulate/STIM_027.jpg	99
584.03	2.119	2119.0	regulate	Run1	regulate/STIM_027.jpg	100
588.02	1.559	1558.7	regulate	Run1	regulate/STIM_027.jpg	99
592.812	2.241	2241.0	regulate	Run1	regulate/STIM_027.jpg	100
597.229	3.095	3095.4	regulate	Run1	regulate/STIM_028.jpg	100
603.078	2.093	2092.6	regulate	Run1	regulate/STIM_028.jpg	100
609.049	3.133	3132.8	regulate	Run1	regulate/STIM_028.jpg	99
614.367	2.75	2750.3	regulate	Run1	regulate/STIM_028.jpg	99
619.88	3.473	3473.0	regulate	Run1	regulate/STIM_029.jpg	99
625.556	2.691	2690.6	regulate	Run1	regulate/STIM_029.jpg	100
631.405	3.064	3064.5	regulate	Run1	regulate/STIM_029.jpg	99
636.758	1.961	1961.2	regulate	Run1	regulate/STIM_029.jpg	99
640.697	1.297	1297.3	observe	Run1	observe/STIM_000.jpg	100
645.064	1.183	1183.1	observe	Run1	observe/STIM_000.jpg	99
649.444	1.458	1457.9	observe	Run1	observe/STIM_000.jpg	100
653.318	1.607	1606.8	observe	Run1	observe/STIM_000.jpg	99
657.692	1.059	1059.4	observe	Run1	observe/STIM_001.jpg	99
660.917	1.431	1430.8	observe	Run1	observe/STIM_001.jpg	100
665.038	1.106	1105.7	observe	Run1	observe/STIM_001.jpg	100
668.91	1.621	1621.1	observe	Run1	observe/STIM_001.jpg	100
673.423	1.441	1440.8	observe	Run1	observe/STIM_002.jpg	100
676.856	1.014	1013.9	observe	Run1	observe/STIM_002.jpg	99
680.894	1.332	1332.2	observe	Run1	observe/STIM_002.jpg	100
685.872	0.962	962.4	observe	Run1	observe/STIM_002.jpg	99
690.141	0.921	920.7	observe	Run1	observe/STIM_003.jpg	100
694.685	1.148	1147.6	observe	Run1	observe/STIM_003.jpg	99
698.859	1.533	1533.4	observe	Run1	observe/STIM_003.jpg	100
703.445	1.505	1505.3	observe	Run1	observe/STIM_003.jpg	100
708.529	1.181	1181.0	observe	Run1	observe/STIM_004.jpg	99
711.798	0.849	848.9	observe	Run1	observe/STIM_004.jpg	100
716.23	1.672	1671.7	observe	Run1	observe/STIM_004.jpg	99
719.88	1.67	1670.0	observe	Run1	observe/STIM_004.jpg	100
723.989	1.36	1359.9	observe	Run1	observe/STIM_005.jpg	100
727.881	1.685	1685.2	observe	Run1	observe/STIM_005.jpg	99
732.77	1.413	1413.4	observe	Run1	observe/STIM_005.jpg	99
737.704	1.47	1469.8	observe	Run1	observe/STIM_005.jpg	100
741.653	1.012	1011.9	observe	Run1	observe/STIM_006.jpg	99
746.421	1.0	1000.3	observe	Run1	observe/STIM_006.jpg	99
750.496	1.279	1278.7	observe	Run1	observe/STIM_006.jpg	99
754.075	1.224	1223.9	observe	Run1	observe/STIM_006.jpg	100
759.001	1.624	1624.4	observe	Run1	observe/STIM_007.jpg	100
764.271	1.472	1472.2	observe	Run1	observe/STIM_007.jpg	99
769.546	1.169	1168.9	observe	Run1	observe/STIM_007.jpg	99
772.745	1.67	1669.8	observe	Run1	observe/STIM_007.jpg	100
777.191	1.557	1557.1	observe	Run1	observe/STIM_008.jpg	100
781.5	1.454	1454.2	observe	Run1	observe/STIM_008.jpg	100
785.644	0.844	844.3	observe	Run1	observe/STIM_008.jpg	100
789.628	1.433	1433.4	observe	Run1	observe/STIM_008.jpg	100
794.583	1.544	1544.3	observe	Run1	observe/STIM_009.jpg	100
799.06	1.23	1230.2	observe	Run1	observe/STIM_009.jpg	99
803.034	1.001	1001.3	observe	Run1	observe/STIM_009.jpg	100
806.332	1.555	1555.0	observe	Run1	observe/STIM_009.jpg	100
811.555	0.916	916.0	observe	Run1	observe/STIM_010.jpg	99
814.433	1.116	1116.5	observe	Run1	observe/STIM_010.jpg	100
818.414	0.87	870.4	observe	Run1	observe/STIM_010.jpg	99
821.273	1.416	1416.3	observe	Run1	observe/STIM_010.jpg	100
824.988	1.241	1241.1	observe	Run1	observe/STIM_011.jpg	99
828.901	1.739	1738.6	observe	Run1	observe/STIM_011.jpg	100
832.571	1.435	1435.1	observe	Run1	observe/STIM_011.jpg	99
836.772	1.598	1597.7	observe	Run1	observe/STIM_011.jpg	100
841.228	1.002	1001.8	observe	Run1	observe/STIM_012.jpg	100
845.074	1.466	1465.5	observe	Run1	observe/STIM_012.jpg	100
848.573	1.727	1727.4	observe	Run1	observe/STIM_012.jpg	100
853.373	1.269	1269.4	observe	Run1	observe/STIM_012.jpg	99
857.359	1.177	1177.1	observe	Run1	observe/STIM_013.jpg	100
861.387	1.67	1669.8	observe	Run1	observe/STIM_013.jpg	100
865.422	1.67	1669.6	observe	Run1	observe/STIM_013.jpg	99
869.15	1.736	1736.4	observe	Run1	observe/STIM_013.jpg	100
873.14	0.955	954.9	observe	Run1	observe/STIM_014.jpg	99
877.581	1.692	1691.7	observe	Run1	observe/STIM_014.jpg	100
882.018	1.33	1329.8	observe	Run1	observe/STIM_014.jpg	99
885.549	1.322	1321.5	observe	Run1	observe/STIM_014.jpg	100
889.509	1.671	1671.0	observe	Run1	observe/STIM_015.jpg	100
894.288	0.992	992.4	observe	Run1	observe/STIM_015.jpg	99
897.484	1.736	1735.7	observe	Run1	observe/STIM_015.jpg	99
903.024	1.309	1308.8	observe	Run1	observe/STIM_015.jpg	100
906.311	1.551	1551.4	observe	Run1	observe/STIM_016.jpg	100
910.333	1.721	1720.6	observe	Run1	observe/STIM_016.jpg	100
914.205	1.458	1458.0	observe	Run1	observe/STIM_016.jpg	100
917.825	1.428	1427.7	observe	Run1	observe/STIM_016.jpg	100
922.655	1.498	1497.6	observe	Run1	observe/STIM_017.jpg	100
926.623	1.245	1244.9	observe	Run1	observe/STIM_017.jpg	100
931.124	1.134	1134.3	observe	Run1	observe/STIM_017.jpg	99
935.025	1.002	1002.3	observe	Run1	observe/STIM_017.jpg	100
939.287	0.925	924.9	observe	Run1	observe/STIM_018.jpg	100
943.042	1.486	1486.5	observe	Run1	observe/STIM_018.jpg	100
947.404	1.506	1506.1	observe	Run1	observe/STIM_018.jpg	100
951.389	1.041	1041.4	observe	Run1	observe/STIM_018.jpg	100
956.146	1.157	1157.3	observe	Run1	observe/STIM_019.jpg	100
960.279	1.619	1619.0	observe	Run1	observe/STIM_019.jpg	100
964.598	1.746	1745.7	observe	Run1	observe/STIM_019.jpg	99
968.448	1.425	1425.3	observe	Run1	observe/STIM_019.jpg	99
972.606	1.693	1692.7	regulate	Run2	regulate/STIM_000.jpg	100
977.969	2.974	2974.4	regulate	Run2	regulate/STIM_000.jpg	100
982.726	1.459	1458.6	regulate	Run2	regulate/STIM_000.jpg	100
986.733	1.186	1186.3	regulate	Run2	regulate/STIM_000.jpg	100
990.332	2.611	2610.9	regulate	Run2	regulate/STIM_001.jpg	100
995.137	2.945	2945.4	regulate	Run2	regulate/STIM_001.jpg	99
1001.322	2.013	2012.8	regulate	Run2	regulate/STIM_001.jpg	100
1005.179	2.102	2101.6	regulate	Run2	regulate/STIM_001.jpg	99
1010.958	2.72	2720.0	regulate	Run2	regulate/STIM_002.jpg	100
1016.724	1.732	1731.8	regulate	Run2	regulate/STIM_002.jpg	100
1021.142	2.732	2732.5	regulate	Run2	regulate/STIM_002.jpg	100
1026.221	2.413	2413.2	regulate	Run2	regulate/STIM_002.jpg	100
1032.232	1.695	1695.4	regulate	Run2	regulate/STIM_003.jpg	100
1037.606	2.185	2185.2	regulate	Run2	regulate/STIM_003.jpg	99
1043.484	2.462	2461.6	regulate	Run2	regulate/STIM_003.jpg	100
1049.249	1.352	1352.2	regulate	Run2	regulate/STIM_003.jpg	100
1053.826	1.985	1984.9	regulate	Run2	regulate/STIM_004.jpg	100
1059.623	2.957	2956.6	regulate	Run2	regulate/STIM_004.jpg	99
1064.74	1.508	1507.7	regulate	Run2	regulate/STIM_004.jpg	100
1068.162	2.228	2227.9	regulate	Run2	regulate/STIM_004.jpg	100
1073.589	2.131	2130.9	regulate	Run2	regulate/STIM_005.jpg	100
1078.323	2.931	2931.3	regulate	Run2	regulate/STIM_005.jpg	100
1084.721	1.841	1840.6	regulate	Run2	regulate/STIM_005.jpg	99
1090.329	2.49	2490.2	regulate	Run2	regulate/STIM_005.jpg	100
1094.738	3.237	3236.6	regulate	Run2	regulate/STIM_006.jpg	100
1100.063	1.617	1617.2	regulate	Run2	regulate/STIM_006.jpg	100
1104.689	1.966	1965.6	regulate	Run2	regulate/STIM_006.jpg	100
1110.472	2.549	2549.3	regulate	Run2	regulate/STIM_006.jpg	100
1115.843	3.127	3126.9	regulate	Run2	regulate/STIM_007.jpg	100
1122.375	2.114	2114.4	regulate	Run2	regulate/STIM_007.jpg	100
1127.416	2.012	2012.2	regulate	Run2	regulate/STIM_007.jpg	99
1132.801	1.884	1884.1	regulate	Run2	regulate/STIM_007.jpg	100
1138.033	1.456	1455.9	regulate	Run2	regulate/STIM_008.jpg	100
1141.623	1.903	1902.8	regulate	Run2	regulate/STIM_008.jpg	99
1145.418	2.118	2117.9	regulate	Run2	regulate/STIM_008.jpg	100
1149.711	1.556	1556.3	regulate	Run2	regulate/STIM_008.jpg	99
1153.822	2.973	2973.0	regulate	Run2	regulate/STIM_009.jpg	100
1159.851	1.434	1433.8	regulate	Run2	regulate/STIM_009.jpg	100
1164.686	2.111	2111.0	regulate	Run2	regulate/STIM_009.jpg	99
1169.654	2.431	2430.6	regulate	Run2	regulate/STIM_009.jpg	99
1175.067	3.19	3189.8	regulate	Run2	regulate/STIM_010.jpg	99
1181.361	2.483	2482.6	regulate	Run2	regulate/STIM_010.jpg	99
1186.283	2.163	2163.4	regulate	Run2	regulate/STIM_010.jpg	99
1191.985	2.437	2437.3	regulate	Run2	regulate/STIM_010.jpg	100
1196.884	1.517	1517.2	regulate	Run2	regulate/STIM_011.jpg	99
1200.527	2.094	2093.7	regulate	Run2	regulate/STIM_011.jpg	100
1204.53	1.748	1748.2	regulate	Run2	regulate/STIM_011.jpg	99
1209.76	2.518	2518.4	regulate	Run2	regulate/STIM_011.jpg	100
1214.113	3.171	3171.1	regulate	Run2	regulate/STIM_012.jpg	99
1220.032	2.472	2471.5	regulate	Run2	regulate/STIM_012.jpg	99
1225.779	1.755	1755.0	regulate	Run2	regulate/STIM_012.jpg	99
1230.768	2.128	2127.8	regulate	Run2	regulate/STIM_012.jpg	99
1236.391	2.856	2855.5	regulate	Run2	regulate/STIM_013.jpg	99
1242.678	2.113	2113.2	regulate	Run2	regulate/STIM_013.jpg	100
1246.855	2.34	2340.1	regulate	Run2	regulate/STIM_013.jpg	100
1252.338	2.13	2130.5	regulate	Run2	regulate/STIM_013.jpg	99
1256.561	1.659	1658.9	regulate	Run2	regulate/STIM_014.jpg	100
1260.249	2.928	2928.1	regulate	Run2	regulate/STIM_014.jpg	100
1264.905	1.916	1915.8	regulate	Run2	regulate/STIM_014.jpg	100
1270.638	1.29	1290.5	regulate	Run2	regulate/STIM_014.jpg	100
1274.661	2.443	2442.9	regulate	Run2	regulate/STIM_015.jpg	99
1279.177	1.562	1562.1	regulate	Run2	regulate/STIM_015.jpg	99
1283.582	1.551	1551.1	regulate	Run2	regulate/STIM_015.jpg	100
1288.902	2.552	2551.7	regulate	Run2	regulate/STIM_015.jpg	99
1293.403	3.117	3116.7	regulate	Run2	regulate/STIM_016.jpg	99
1299.295	1.637	1636.9	regulate	Run2	regulate/STIM_016.jpg	100
1302.995	1.915	1914.8	regulate	Run2	regulate/STIM_016.jpg	99
1308.202	1.775	1775.1	regulate	Run2	regulate/STIM_016.jpg	100
1312.592	3.105	3105.1	regulate	Run2	regulate/STIM_017.jpg	100
1318.806	2.43	2429.7	regulate	Run2	regulate/STIM_017.jpg	99
1323.126	2.207	2206.7	regulate	Run2	regulate/STIM_017.jpg	100
1327.159	1.339	1338.7	regulate	Run2	regulate/STIM_017.jpg	99
1332.154	2.559	2559.2	regulate	Run2	regulate/STIM_018.jpg	100
1338.03	1.991	1991.0	regulate	Run2	regulate/STIM_018.jpg	100
1343.292	1.719	1719.1	regulate	Run2	regulate/STIM_018.jpg	100
1347.715	2.485	2484.8	regulate	Run2	regulate/STIM_018.jpg	100
1352.461	1.618	1618.2	regulate	Run2	regulate/STIM_019.jpg	100
1357.761	1.685	1684.8	regulate	Run2	regulate/STIM_019.jpg	99
1362.588	1.588	1588.0	regulate	Run2	regulate/STIM_019.jpg	99
1366.959	1.866	1865.8	regulate	Run2	regulate/STIM_019.jpg	100
1372.114	3.133	3132.7	regulate	Run2	regulate/STIM_020.jpg	99
1377.716	1.468	1468.3	regulate	Run2	regulate/STIM_020.jpg	100
1381.134	2.293	2293.1	regulate	Run2	regulate/STIM_020.jpg	100
1386.967	1.92	1920.4	regulate	Run2	regulate/STIM_020.jpg	100
1392.235	2.073	2072.6	regulate	Run2	regulate/STIM_021.jpg	99
1398.175	2.483	2483.2	regulate	Run2	regulate/STIM_021.jpg	99
1403.601	1.616	1616.3	regulate	Run2	regulate/STIM_021.jpg	100
1407.267	2.725	2725.4	regulate	Run2	regulate/STIM_021.jpg	100
1412.495	3.003	3003.3	regulate	Run2	regulate/STIM_022.jpg	100
1418.73	2.534	2533.9	regulate	Run2	regulate/STIM_022.jpg	100
1424.931	1.493	1492.7	regulate	Run2	regulate/STIM_022.jpg	100
1428.492	1.807	1807.1	regulate	Run2	regulate/STIM_022.jpg	100
1433.707	3.012	3012.5	regulate	Run2	regulate/STIM_023.jpg	100
1438.819	2.009	2009.0	regulate	Run2	regulate/STIM_023.jpg	100
1443.36	1.796	1796.4	regulate	Run2	regulate/STIM_023.jpg	99
1447.539	1.39	1389.8	regulate	Run2	regulate/STIM_023.jpg	99
1451.711	2.593	2593.2	regulate	Run2	regulate/STIM_024.jpg	99
1457.115	1.335	1335.3	regulate	Run2	regulate/STIM_024.jpg	100
1460.978	2.546	2545.5	regulate	Run2	regulate/STIM_024.jpg	99
1466.754	2.427	2426.6	regulate	Run2	regulate/STIM_024.jpg	99
1472.504	1.535	1534.6	regulate	Run2	regulate/STIM_025.jpg	99
1476.912	1.548	1548.4	regulate	Run2	regulate/STIM_025.jpg	100
1482.212	2.801	2800.6	regulate	Run2	regulate/STIM_025.jpg	100
1487.404	2.623	2623.0	regulate	Run2	regulate/STIM_025.jpg	99
1492.403	2.391	2390.7	regulate	Run2	regulate/STIM_026.jpg	99
1496.88	2.112	2111.8	regulate	Run2	regulate/STIM_026.jpg	99
1501.364	1.647	1647.0	regulate	Run2	regulate/STIM_026.jpg	99
1506.619	1.22	1220.2	regulate	Run2	regulate/STIM_026.jpg	99
1511.517	2.292	2292.0	regulate	Run2	regulate/STIM_027.jpg	100
1516.536	2.046	2046.1	regulate	Run2	regulate/STIM_027.jpg	99
1520.605	2.684	2683.8	regulate	Run2	regulate/STIM_027.jpg	99
1525.181	2.133	2132.8	regulate	Run2	regulate/STIM_027.jpg	99
1530.797	2.523	2523.0	regulate	Run2	regulate/STIM_028.jpg	99
1536.873	1.79	1790.3	regulate	Run2	regulate/STIM_028.jpg	100
1541.688	1.667	1666.9	regulate	Run2	regulate/STIM_028.jpg	99
1545.682	2.393	2393.2	regulate	Run2	regulate/STIM_028.jpg	100
1550.444	2.642	2641.6	regulate	Run2	regulate/STIM_029.jpg	100
1556.716	2.973	2972.9	regulate	Run2	regulate/STIM_029.jpg	100
1562.843	2.206	2206.0	regulate	Run2	regulate/STIM_029.jpg	99
1567.946	2.361	2360.7	regulate	Run2	regulate/STIM_029.jpg	99
1573.91	1.281	1281.2	observe	Run2	observe/STIM_000.jpg	100
1578.852	1.237	1237.0	observe	Run2	observe/STIM_000.jpg	100
1583.978	1.5	1500.5	observe	Run2	observe/STIM_000.jpg	99
1588.174	1.307	1307.2	observe	Run2	observe/STIM_000.jpg	99
1592.937	1.099	1098.9	observe	Run2	observe/STIM_001.jpg	100
1597.89	1.301	1301.1	observe	Run2	observe/STIM_001.jpg	99
1601.368	1.642	1641.6	observe	Run2	observe/STIM_001.jpg	99
1606.413	1.488	1487.8	observe	Run2	observe/STIM_001.jpg	99
1610.722	0.87	869.6	observe	Run2	observe/STIM_002.jpg	99
1614.653	1.232	1231.8	observe	Run2	observe/STIM_002.jpg	100
1618.118	1.537	1537.2	observe	Run2	observe/STIM_002.jpg	100
1621.811	0.87	869.9	observe	Run2	observe/STIM_002.jpg	99
1626.109	0.865	864.7	observe	Run2	observe/STIM_003.jpg	99
1630.628	1.342	1342.1	observe	Run2	observe/STIM_003.jpg	99
1634.565	1.112	1112.5	observe	Run2	observe/STIM_003.jpg	100
1639.028	1.159	1159.2	observe	Run2	observe/STIM_003.jpg	99
1644.054	1.326	1326.1	observe	Run2	observe/STIM_004.jpg	99
1648.314	1.405	1405.0	observe	Run2	observe/STIM_004.jpg	99
1652.198	1.572	1572.1	observe	Run2	observe/STIM_004.jpg	99
1655.809	1.643	1642.9	observe	Run2	observe/STIM_004.jpg	100
1661.345	1.032	1032.2	observe	Run2	observe/STIM_005.jpg	100
1665.493	1.477	1477.2	observe	Run2	observe/STIM_005.jpg	99
1669.139	1.075	1075.2	observe	Run2	observe/STIM_005.jpg	100
1672.403	1.482	1482.0	observe	Run2	observe/STIM_005.jpg	99
1676.534	1.575	1574.6	observe	Run2	observe/STIM_006.jpg	99
1681.214	1.748	1748.1	observe	Run2	observe/STIM_006.jpg	99
1686.304	0.918	918.1	observe	Run2	observe/STIM_006.jpg	99
1689.184	1.318	1317.8	observe	Run2	observe/STIM_006.jpg	99
1693.805	1.448	1447.6	observe	Run2	observe/STIM_007.jpg	100
1697.929	0.968	967.9	observe	Run2	observe/STIM_007.jpg	100
1702.759	1.643	1643.4	observe	Run2	observe/STIM_007.jpg	100
1706.56	1.314	1314.4	observe	Run2	observe/STIM_007.jpg	99
1711.401	1.014	1013.8	observe	Run2	observe/STIM_008.jpg	99
1716.224	1.213	1212.6	observe	Run2	observe/STIM_008.jpg	99
1719.551	1.708	1708.3	observe	Run2	observe/STIM_008.jpg	100
1723.16	1.306	1306.3	observe	Run2	observe/STIM_008.jpg	100
1726.469	1.372	1372.5	observe	Run2	observe/STIM_009.jpg	100
1730.868	1.523	1523.0	observe	Run2	observe/STIM_009.jpg	100
1735.353	1.34	1339.7	observe	Run2	observe/STIM_009.jpg	100
1739.418	1.518	1518.2	observe	Run2	observe/STIM_009.jpg	99
1743.337	1.518	1518.1	observe	Run2	observe/STIM_010.jpg	99
1747.362	1.158	1157.9	observe	Run2	observe/STIM_010.jpg	100
1750.796	1.537	1537.0	observe	Run2	observe/STIM_010.jpg	99
1754.807	1.66	1659.7	observe	Run2	observe/STIM_010.jpg	99
1760.099	1.005	1005.2	observe	Run2	observe/STIM_011.jpg	99
1764.427	1.603	1602.6	observe	Run2	observe/STIM_011.jpg	99
1769.612	1.604	1604.3	observe	Run2	observe/STIM_011.jpg	99
1773.453	1.223	1222.7	observe	Run2	observe/STIM_011.jpg	99
1777.966	1.397	1396.7	observe	Run2	observe/STIM_012.jpg	100
1782.979	1.502	1501.8	observe	Run2	observe/STIM_012.jpg	100
1787.514	1.115	1114.9	observe	Run2	observe/STIM_012.jpg	100
1792.252	1.698	1698.0	observe	Run2	observe/STIM_012.jpg	100
1796.016	1.361	1361.3	observe	Run2	observe/STIM_013.jpg	99
1799.489	1.481	1480.7	observe	Run2	observe/STIM_013.jpg	99
1803.624	1.345	1345.0	observe	Run2	observe/STIM_013.jpg	99
1808.662	0.977	977.0	observe	Run2	observe/STIM_013.jpg	99
1812.762	1.75	1750.5	observe	Run2	observe/STIM_014.jpg	99
1817.14	0.968	967.9	observe	Run2	observe/STIM_014.jpg	100
1821.434	1.072	1072.5	observe	Run2	observe/STIM_014.jpg	99
1825.171	1.172	1171.8	observe	Run2	observe/STIM_014.jpg	99
1828.755	1.623	1623.1	observe	Run2	observe/STIM_015.jpg	99
1832.709	1.156	1155.8	observe	Run2	observe/STIM_015.jpg	99
1835.882	1.479	1478.8	observe	Run2	observe/STIM_015.jpg	99
1840.648	0.977	977.4	observe	Run2	observe/STIM_015.jpg	99
1844.38	1.069	1068.7	observe	Run2	observe/STIM_016.jpg	99
1848.48	1.554	1554.2	observe	Run2	observe/STIM_016.jpg	99
1852.518	1.537	1537.2	observe	Run2	observe/STIM_016.jpg	99
1856.967	1.711	1711.0	observe	Run2	observe/STIM_016.jpg	99
1861.72	1.247	1247.1	observe	Run2	observe/STIM_017.jpg	99
1865.439	1.237	1237.3	observe	Run2	observe/STIM_017.jpg	100
1870.095	1.078	1077.9	observe	Run2	observe/STIM_017.jpg	100
1873.362	1.691	1691.0	observe	Run2	observe/STIM_017.jpg	99
1878.491	1.362	1361.7	observe	Run2	observe/STIM_018.jpg	99
1883.061	1.676	1676.4	observe	Run2	observe/STIM_018.jpg	99
1888.216	1.631	1630.7	observe	Run2	observe/STIM_018.jpg	99
1892.372	1.62	1620.4	observe	Run2	observe/STIM_018.jpg	99
1897.056	1.378	1377.9	observe	Run2	observe/STIM_019.jpg	99
1901.738	1.267	1266.8	observe	Run2	observe/STIM_019.jpg	99
1906.036	1.584	1583.7	observe	Run2	observe/STIM_019.jpg	100
1911.194	1.294	1294.0	observe	Run2	observe/STIM_019.jpg	99
1915.064	2.539	2538.8	regulate	Run3	regulate/STIM_000.jpg	100
1920.909	1.69	1690.4	regulate	Run3	regulate/STIM_000.jpg	100
1925.333	2.464	2464.0	regulate	Run3	regulate/STIM_000.jpg	100
1930.947	2.294	2293.7	regulate	Run3	regulate/STIM_000.jpg	100
1935.956	1.349	1349.4	regulate	Run3	regulate/STIM_001.jpg	99
1941.044	1.926	1926.1	regulate	Run3	regulate/STIM_001.jpg	99
1946.761	1.571	1571.0	regulate	Run3	regulate/STIM_001.jpg	99
1951.247	1.516	1516.5	regulate	Run3	regulate/STIM_001.jpg	99
1955.933	1.743	1742.6	regulate	Run3	regulate/STIM_002.jpg	99
1961.489	2.249	2249.0	regulate	Run3	regulate/STIM_002.jpg	100
1967.124	2.67	2669.7	regulate	Run3	regulate/STIM_002.jpg	100
1972.16	2.692	2691.9	regulate	Run3	regulate/STIM_002.jpg	99
1978.206	2.63	2630.4	regulate	Run3	regulate/STIM_003.jpg	100
1984.267	2.276	2275.7	regulate	Run3	regulate/STIM_003.jpg	100
1990.017	2.684	2683.7	regulate	Run3	regulate/STIM_003.jpg	99
1994.741	1.448	1447.9	regulate	Run3	regulate/STIM_003.jpg	100
1998.994	2.388	2388.4	regulate	Run3	regulate/STIM_004.jpg	100
2005.097	2.458	2457.5	regulate	Run3	regulate/STIM_004.jpg	99
2009.894	2.461	2460.9	regulate	Run3	regulate/STIM_004.jpg	99
2015.146	2.282	2281.6	regulate	Run3	regulate/STIM_004.jpg	100
2020.327	1.444	1444.4	regulate	Run3	regulate/STIM_005.jpg	100
2025.386	2.122	2122.1	regulate	Run3	regulate/STIM_005.jpg	100
2031.077	1.286	1285.5	regulate	Run3	regulate/STIM_005.jpg	99
2035.023	2.606	2606.5	regulate	Run3	regulate/STIM_005.jpg	100
2039.93	1.536	1536.4	regulate	Run3	regulate/STIM_006.jpg	99
2043.988	2.008	2008.3	regulate	Run3	regulate/STIM_006.jpg	100
2048.176	1.246	1245.5	regulate	Run3	regulate/STIM_006.jpg	99
2052.955	2.434	2434.5	regulate	Run3	regulate/STIM_006.jpg	99
2058.351	2.268	2267.9	regulate	Run3	regulate/STIM_007.jpg	100
2062.835	2.635	2635.0	regulate	Run3	regulate/STIM_007.jpg	100
2067.638	1.751	1751.0	regulate	Run3	regulate/STIM_007.jpg	99
2072.352	2.201	2201.0	regulate	Run3	regulate/STIM_007.jpg	99
2077.371	2.378	2377.5	regulate	Run3	regulate/STIM_008.jpg	99
2081.941	2.312	2311.9	regulate	Run3	regulate/STIM_008.jpg	99
2086.581	1.617	1616.6	regulate	Run3	regulate/STIM_008.jpg	99
2091.705	1.425	1425.0	regulate	Run3	regulate/STIM_008.jpg	100
2096.136	1.816	1815.9	regulate	Run3	regulate/STIM_009.jpg	100
2100.741	2.618	2618.2	regulate	Run3	regulate/STIM_009.jpg	99
2106.943	1.374	1373.5	regulate	Run3	regulate/STIM_009.jpg	100
2111.545	2.046	2046.5	regulate	Run3	regulate/STIM_009.jpg	99
2115.773	1.847	1846.9	regulate	Run3	regulate/STIM_010.jpg	100
2121.079	1.63	1629.6	regulate	Run3	regulate/STIM_010.jpg	100
2126.16	1.549	1548.7	regulate	Run3	regulate/STIM_010.jpg	99
2131.242	1.376	1375.5	regulate	Run3	regulate/STIM_010.jpg	100
2135.576	2.086	2085.9	regulate	Run3	regulate/STIM_011.jpg	100
2140.729	2.012	2011.7	regulate	Run3	regulate/STIM_011.jpg	100
2145.952	2.253	2253.1	regulate	Run3	regulate/STIM_011.jpg	100
2150.579	1.364	1364.2	regulate	Run3	regulate/STIM_011.jpg	99
2155.005	2.158	2157.8	regulate	Run3	regulate/STIM_012.jpg	99
2160.585	1.278	1277.9	regulate	Run3	regulate/STIM_012.jpg	99
2165.341	1.198	1197.7	regulate	Run3	regulate/STIM_012.jpg	99
2170.047	1.6	1599.8	regulate	Run3	regulate/STIM_012.jpg	100
2174.128	1.741	1741.2	regulate	Run3	regulate/STIM_013.jpg	100
2177.758	1.459	1459.3	regulate	Run3	regulate/STIM_013.jpg	100
2182.125	1.322	1322.5	regulate	Run3	regulate/STIM_013.jpg	100
2187.252	2.456	2456.4	regulate	Run3	regulate/STIM_013.jpg	100
2193.024	1.584	1583.6	regulate	Run3	regulate/STIM_014.jpg	99
2197.85	2.532	2532.1	regulate	Run3	regulate/STIM_014.jpg	100
2204.154	2.055	2055.0	regulate	Run3	regulate/STIM_014.jpg	99
2209.121	1.863	1862.6	regulate	Run3	regulate/STIM_014.jpg	99
2214.687	1.821	1820.9	regulate	Run3	regulate/STIM_015.jpg	99
2219.141	1.392	1391.6	regulate	Run3	regulate/STIM_015.jpg	100
2222.908	2.063	2063.3	regulate	Run3	regulate/STIM_015.jpg	99
2227.586	1.196	1196.3	regulate	Run3	regulate/STIM_015.jpg	99
2231.543	1.694	1693.5	regulate	Run3	regulate/STIM_016.jpg	99
2235.986	1.816	1815.6	regulate	Run3	regulate/STIM_016.jpg	100
2241.571	2.027	2026.9	regulate	Run3	regulate/STIM_016.jpg	99
2246.228	2.439	2439.4	regulate	Run3	regulate/STIM_016.jpg	99
2251.115	1.747	1746.9	regulate	Run3	regulate/STIM_017.jpg	99
2256.076	2.015	2015.3	regulate	Run3	regulate/STIM_017.jpg	100
2260.114	1.323	1323.4	regulate	Run3	regulate/STIM_017.jpg	99
2263.76	1.762	1762.5	regulate	Run3	regulate/STIM_017.jpg	100
2268.2	1.682	1682.2	regulate	Run3	regulate/STIM_018.jpg	99
2273.5	1.425	1425.2	regulate	Run3	regulate/STIM_018.jpg	99
2277.21	1.838	1837.8	regulate	Run3	regulate/STIM_018.jpg	99
2280.913	2.131	2131.3	regulate	Run3	regulate/STIM_018.jpg	100
2286.036	2.446	2445.7	regulate	Run3	regulate/STIM_019.jpg	100
2291.66	1.92	1920.3	regulate	Run3	regulate/STIM_019.jpg	100
2296.005	1.404	1404.0	regulate	Run3	regulate/STIM_019.jpg	99
2299.358	1.159	1159.3	regulate	Run3	regulate/STIM_019.jpg	100
2304.379	2.282	2282.0	regulate	Run3	regulate/STIM_020.jpg	100
2310.237	1.898	1898.5	regulate	Run3	regulate/STIM_020.jpg	99
2315.382	1.436	1435.6	regulate	Run3	regulate/STIM_020.jpg	100
2318.902	2.188	2187.7	regulate	Run3	regulate/STIM_020.jpg	99
2324.013	1.91	1910.5	regulate	Run3	regulate/STIM_021.jpg	99
2329.084	1.172	1171.8	regulate	Run3	regulate/STIM_021.jpg	100
2332.679	2.35	2349.9	regulate	Run3	regulate/STIM_021.jpg	100
2336.94	2.603	2603.1	regulate	Run3	regulate/STIM_021.jpg	100
2342.27	1.529	1528.9	regulate	Run3	regulate/STIM_022.jpg	99
2346.347	1.931	1930.8	regulate	Run3	regulate/STIM_022.jpg	100
2351.277	1.7	1699.8	regulate	Run3	regulate/STIM_022.jpg	99
2355.7	2.019	2019.5	regulate	Run3	regulate/STIM_022.jpg	100
2360.047	2.021	2021.0	regulate	Run3	regulate/STIM_023.jpg	100
2365.626	2.304	2304.3	regulate	Run3	regulate/STIM_023.jpg	99
2370.789	1.472	1472.5	regulate	Run3	regulate/STIM_023.jpg	100
2374.309	1.834	1833.8	regulate	Run3	regulate/STIM_023.jpg	100
2379.388	2.308	2307.5	regulate	Run3	regulate/STIM_024.jpg	100
2384.531	1.967	1967.0	regulate	Run3	regulate/STIM_024.jpg	99
2389.159	2.452	2452.2	regulate	Run3	regulate/STIM_024.jpg	100
2394.384	1.339	1338.8	regulate	Run3	regulate/STIM_024.jpg	100
2398.255	2.642	2642.4	regulate	Run3	regulate/STIM_025.jpg	100
2403.973	1.566	1566.2	regulate	Run3	regulate/STIM_025.jpg	99
2408.964	2.686	2686.5	regulate	Run3	regulate/STIM_025.jpg	100
2413.808	1.296	1295.9	regulate	Run3	regulate/STIM_025.jpg	100
2417.368	1.729	1729.0	regulate	Run3	regulate/STIM_026.jpg	99
2422.807	2.647	2647.2	regulate	Run3	regulate/STIM_026.jpg	99
2429.144	2.237	2236.6	regulate	Run3	regulate/STIM_026.jpg	99
2433.271	2.215	2214.9	regulate	Run3	regulate/STIM_026.jpg	100
2438.212	1.317	1317.0	regulate	Run3	regulate/STIM_027.jpg	100
2443.14	2.183	2183.3	regulate	Run3	regulate/STIM_027.jpg	100
2447.538	2.327	2326.8	regulate	Run3	regulate/STIM_027.jpg	100
2453.272	1.647	1646.7	regulate	Run3	regulate/STIM_027.jpg	100
2457.198	1.375	1374.9	regulate	Run3	regulate/STIM_028.jpg	100
2461.386	2.26	2259.6	regulate	Run3	regulate/STIM_028.jpg	99
2466.422	2.317	2317.0	regulate	Run3	regulate/STIM_028.jpg	100
2472.291	1.449	1449.2	regulate	Run3	regulate/STIM_028.jpg	100
2475.795	2.318	2318.5	regulate	Run3	regulate/STIM_029.jpg	100
2480.065	1.42	1420.3	regulate	Run3	regulate/STIM_029.jpg	100
2484.447	1.467	1466.8	regulate	Run3	regulate/STIM_029.jpg	99
2488.249	2.214	2213.5	regulate	Run3	regulate/STIM_029.jpg	100
2492.393	1.43	1430.3	observe	Run3	observe/STIM_000.jpg	99
2496.711	1.792	1792.3	observe	Run3	observe/STIM_000.jpg	100
2500.505	1.231	1231.0	observe	Run3	observe/STIM_000.jpg	100
2504.037	1.617	1616.9	observe	Run3	observe/STIM_000.jpg	99
2509.366	1.574	1573.9	observe	Run3	observe/STIM_001.jpg	100
2513.244	0.93	930.5	observe	Run3	observe/STIM_001.jpg	99
2517.625	1.546	1545.7	observe	Run3	observe/STIM_001.jpg	100
2521.025	1.559	1559.3	observe	Run3	observe/STIM_001.jpg	99
2525.277	1.765	1765.0	observe	Run3	observe/STIM_002.jpg	99
2529.55	1.279	1278.9	observe	Run3	observe/STIM_002.jpg	99
2533.761	1.532	1532.0	observe	Run3	observe/STIM_002.jpg	100
2537.889	1.233	1233.4	observe	Run3	observe/STIM_002.jpg	99
2541.796	1.36	1359.6	observe	Run3	observe/STIM_003.jpg	99
2545.477	1.508	1508.1	observe	Run3	observe/STIM_003.jpg	100
2550.419	1.578	1577.9	observe	Run3	observe/STIM_003.jpg	99
2553.991	1.648	1648.2	observe	Run3	observe/STIM_003.jpg	99
2557.897	1.793	1792.6	observe	Run3	observe/STIM_004.jpg	100
2562.372	0.875	874.8	observe	Run3	observe/STIM_004.jpg	99
2565.328	1.182	1182.2	observe	Run3	observe/STIM_004.jpg	100
2569.615	1.103	1103.1	observe	Run3	observe/STIM_004.jpg	99
2573.197	1.109	1109.4	observe	Run3	observe/STIM_005.jpg	99
2577.532	0.943	942.6	observe	Run3	observe/STIM_005.jpg	100
2581.246	1.195	1195.0	observe	Run3	observe/STIM_005.jpg	100
2585.769	1.672	1671.7	observe	Run3	observe/STIM_005.jpg	100
2589.31	1.412	1411.7	observe	Run3	observe/STIM_006.jpg	99
2593.621	1.733	1733.2	observe	Run3	observe/STIM_006.jpg	100
2598.281	1.399	1398.7	observe	Run3	observe/STIM_006.jpg	100
2602.612	1.204	1204.1	observe	Run3	observe/STIM_006.jpg	99
2605.792	0.953	953.0	observe	Run3	observe/STIM_007.jpg	100
2610.006	0.962	961.5	observe	Run3	observe/STIM_007.jpg	99
2614.447	0.905	905.1	observe	Run3	observe/STIM_007.jpg	99
2618.1	1.635	1635.1	observe	Run3	observe/STIM_007.jpg	100
2622.71	1.099	1099.4	observe	Run3	observe/STIM_008.jpg	99
2627.177	1.603	1603.4	observe	Run3	observe/STIM_008.jpg	99
2632.435	1.266	1266.4	observe	Run3	observe/STIM_008.jpg	99
2636.545	0.986	985.9	observe	Run3	observe/STIM_008.jpg	100
2640.239	1.104	1103.9	observe	Run3	observe/STIM_009.jpg	99
2644.076	0.857	856.9	observe	Run3	observe/STIM_009.jpg	99
2647.426	1.084	1083.5	observe	Run3	observe/STIM_009.jpg	100
2652.414	1.239	1238.8	observe	Run3	observe/STIM_009.jpg	99
2656.749	1.403	1403.2	observe	Run3	observe/STIM_010.jpg	100
2661.557	1.08	1079.7	observe	Run3	observe/STIM_010.jpg	99
2666.352	1.582	1582.5	observe	Run3	observe/STIM_010.jpg	100
2670.418	1.076	1076.3	observe	Run3	observe/STIM_010.jpg	100
2673.968	1.256	1255.9	observe	Run3	observe/STIM_011.jpg	100
2678.07	1.625	1625.3	observe	Run3	observe/STIM_011.jpg	100
2682.211	1.38	1380.3	observe	Run3	observe/STIM_011.jpg	99
2686.127	0.928	928.2	observe	Run3	observe/STIM_011.jpg	100
2690.729	1.079	1078.8	observe	Run3	observe/STIM_012.jpg	99
2695.076	1.69	1690.3	observe	Run3	observe/STIM_012.jpg	100
2700.024	1.037	1036.8	observe	Run3	observe/STIM_012.jpg	99
2704.569	1.501	1501.1	observe	Run3	observe/STIM_012.jpg	99
2709.155	1.704	1704.5	observe	Run3	observe/STIM_013.jpg	100
2713.526	0.867	866.7	observe	Run3	observe/STIM_013.jpg	100
2718.193	1.263	1263.1	observe	Run3	observe/STIM_013.jpg	100
2721.732	1.154	1153.7	observe	Run3	observe/STIM_013.jpg	99
2725.007	1.183	1182.9	observe	Run3	observe/STIM_014.jpg	99
2728.196	1.749	1748.9	observe	Run3	observe/STIM_014.jpg	99
2732.842	1.199	1198.7	observe	Run3	observe/STIM_014.jpg	99
2737.403	1.527	1526.9	observe	Run3	observe/STIM_014.jpg	99
2742.429	1.193	1193.4	observe	Run3	observe/STIM_015.jpg	99
2746.025	1.338	1337.5	observe	Run3	observe/STIM_015.jpg	100
2750.627	0.978	977.7	observe	Run3	observe/STIM_015.jpg	100
2753.927	1.356	1355.8	observe	Run3	observe/STIM_015.jpg	99
2759.232	1.661	1661.1	observe	Run3	observe/STIM_016.jpg	100
2763.57	1.555	1555.4	observe	Run3	observe/STIM_016.jpg	99
2767.816	1.122	1121.9	observe	Run3	observe/STIM_016.jpg	100
2772.69	1.488	1487.6	observe	Run3	observe/STIM_016.jpg	99
2777.826	1.37	1370.0	observe	Run3	observe/STIM_017.jpg	100
2782.42	1.715	1714.6	observe	Run3	observe/STIM_017.jpg	100
2787.179	1.001	1000.9	observe	Run3	observe/STIM_017.jpg	99
2790.611	1.24	1240.2	observe	Run3	observe/STIM_017.jpg	99
2794.269	1.533	1532.9	observe	Run3	observe/STIM_018.jpg	99
2799.637	1.423	1423.0	observe	Run3	observe/STIM_018.jpg	99
2803.388	1.602	1602.4	observe	Run3	observe/STIM_018.jpg	100
2808.044	0.918	917.5	observe	Run3	observe/STIM_018.jpg	100
2812.128	1.133	1133.3	observe	Run3	observe/STIM_019.jpg	99
2816.155	1.564	1563.6	observe	Run3	observe/STIM_019.jpg	99
2820.8	1.17	1169.6	observe	Run3	observe/STIM_019.jpg	100
2824.41	1.292	1291.6	observe	Run3	observe/STIM_019.jpg	99
