onset	duration	response_time_ms	trial_type	learning_stage	stimulus	response_port
0.0	1.102	1102.4	study	Phase1	study/STIM_000.jpg	99
4.141	0.817	816.9	study	Phase1	study/STIM_000.jpg	99
8.869	0.751	750.6	study	Phase1	study/STIM_000.jpg	100
13.081	0.838	837.7	study	Phase1	study/STIM_001.jpg	100
17.408	0.721	720.6	study	Phase1	study/STIM_001.jpg	99
20.201	0.911	911.0	study	Phase1	study/STIM_001.jpg	100
24.783	0.723	723.2	study	Phase1	study/STIM_002.jpg	99
28.504	1.352	1352.4	study	Phase1	study/STIM_002.jpg	99
33.371	0.783	782.6	study	Phase1	study/STIM_002.jpg	99
37.592	1.513	1513.2	study	Phase1	study/STIM_003.jpg	100
43.031	0.712	712.1	study	Phase1	study/STIM_003.jpg	99
46.577	0.916	915.6	study	Phase1	study/STIM_003.jpg	100
50.029	1.231	1231.1	study	Phase1	study/STIM_004.jpg	99
54.462	0.96	959.8	study	Phase1	study/STIM_004.jpg	100
58.74	1.387	1386.7	study	Phase1	study/STIM_004.jpg	99
63.458	1.68	1679.5	study	Phase1	study/STIM_005.jpg	99
68.564	1.312	1312.0	study	Phase1	study/STIM_005.jpg	100
73.404	1.112	1111.8	study	Phase1	study/STIM_005.jpg	99
77.304	1.327	1327.4	study	Phase1	study/STIM_006.jpg	100
82.568	1.477	1477.3	study	Phase1	study/STIM_006.jpg	100
87.252	1.221	1221.4	study	Phase1	study/STIM_006.jpg	100
92.134	0.78	779.7	study	Phase1	study/STIM_007.jpg	100
95.396	1.436	1436.0	study	Phase1	study/STIM_007.jpg	99
99.452	1.461	1461.1	study	Phase1	study/STIM_007.jpg	99
103.94	1.328	1328.3	study	Phase1	study/STIM_008.jpg	99
108.698	0.741	741.3	study	Phase1	study/STIM_008.jpg	100
113.03	1.272	1272.3	study	Phase1	study/STIM_008.jpg	99
118.301	1.157	1156.6	study	Phase1	study/STIM_009.jpg	99
123.273	0.737	737.3	study	Phase1	study/STIM_009.jpg	99
127.707	0.991	991.1	study	Phase1	study/STIM_009.jpg	100
131.063	0.886	886.0	study	Phase1	study/STIM_010.jpg	99
134.198	0.854	854.1	study	Phase1	study/STIM_010.jpg	99
138.313	1.295	1295.4	study	Phase1	study/STIM_010.jpg	100
143.595	1.0	999.8	study	Phase1	study/STIM_011.jpg	99
146.976	1.43	1430.0	study	Phase1	study/STIM_011.jpg	99
150.758	1.33	1329.5	study	Phase1	study/STIM_011.jpg	100
155.675	1.354	1354.2	study	Phase1	study/STIM_012.jpg	100
160.354	0.792	792.1	study	Phase1	study/STIM_012.jpg	100
165.169	1.447	1446.6	study	Phase1	study/STIM_012.jpg	99
170.559	1.066	1065.6	study	Phase1	study/STIM_013.jpg	100
173.972	1.274	1274.2	study	Phase1	study/STIM_013.jpg	99
177.934	1.139	1138.9	study	Phase1	study/STIM_013.jpg	99
181.676	1.157	1157.4	study	Phase1	study/STIM_014.jpg	99
186.446	1.142	1142.4	study	Phase1	study/STIM_014.jpg	100
191.249	1.175	1174.6	study	Phase1	study/STIM_014.jpg	100
195.605	1.288	1288.2	study	Phase1	study/STIM_015.jpg	100
199.478	1.364	1363.8	study	Phase1	study/STIM_015.jpg	99
203.553	1.171	1170.8	study	Phase1	study/STIM_015.jpg	100
206.955	1.136	1135.6	study	Phase1	study/STIM_016.jpg	100
211.294	0.956	955.9	study	Phase1	study/STIM_016.jpg	99
214.942	1.132	1132.3	study	Phase1	study/STIM_016.jpg	99
219.046	1.597	1597.1	study	Phase1	study/STIM_017.jpg	99
223.025	0.915	914.9	study	Phase1	study/STIM_017.jpg	100
227.948	1.199	1199.4	study	Phase1	study/STIM_017.jpg	99
231.461	0.914	914.4	study	Phase1	study/STIM_018.jpg	99
235.24	1.108	1107.6	study	Phase1	study/STIM_018.jpg	100
239.635	0.934	934.1	study	Phase1	study/STIM_018.jpg	100
243.826	0.7	700.1	study	Phase1	study/STIM_019.jpg	100
247.102	0.798	797.5	study	Phase1	study/STIM_019.jpg	100
250.471	1.192	1192.5	study	Phase1	study/STIM_019.jpg	100
254.681	1.206	1205.9	study	Phase1	study/STIM_020.jpg	99
259.478	1.529	1529.3	study	Phase1	study/STIM_020.jpg	99
264.067	1.11	1110.4	study	Phase1	study/STIM_020.jpg	100
268.736	0.983	982.9	study	Phase1	study/STIM_021.jpg	100
273.316	1.437	1437.2	study	Phase1	study/STIM_021.jpg	99
277.859	1.196	1195.5	study	Phase1	study/STIM_021.jpg	100
282.7	1.392	1391.9	study	Phase1	study/STIM_022.jpg	99
287.382	1.384	1384.4	study	Phase1	study/STIM_022.jpg	99
291.859	0.997	997.0	study	Phase1	study/STIM_022.jpg	100
296.804	1.192	1191.9	study	Phase1	study/STIM_023.jpg	100
301.607	1.215	1215.4	study	Phase1	study/STIM_023.jpg	99
306.627	0.63	629.6	study	Phase1	study/STIM_023.jpg	99
310.692	1.3	1299.5	study	Phase1	study/STIM_024.jpg	100
314.613	0.77	769.7	study	Phase1	study/STIM_024.jpg	99
319.373	1.109	1109.2	study	Phase1	study/STIM_024.jpg	100
324.24	1.364	1363.6	study	Phase1	study/STIM_025.jpg	100
327.813	0.977	977.0	study	Phase1	study/STIM_025.jpg	99
332.605	0.679	678.8	study	Phase1	study/STIM_025.jpg	100
335.502	0.695	695.2	study	Phase1	study/STIM_026.jpg	100
338.866	0.914	913.7	study	Phase1	study/STIM_026.jpg	99
343.349	0.784	783.6	study	Phase1	study/STIM_026.jpg	99
346.646	0.783	783.0	study	Phase1	study/STIM_027.jpg	99
350.512	1.296	1296.2	study	Phase1	study/STIM_027.jpg	100
354.803	1.036	1036.0	study	Phase1	study/STIM_027.jpg	99
359.683	1.288	1288.3	study	Phase1	study/STIM_028.jpg	100
364.379	0.68	679.8	study	Phase1	study/STIM_028.jpg	100
367.433	1.095	1094.8	study	Phase1	study/STIM_028.jpg	100
370.68	1.386	1385.7	study	Phase1	study/STIM_029.jpg	99
375.559	0.944	943.5	study	Phase1	study/STIM_029.jpg	99
379.731	1.004	1004.1	study	Phase1	study/STIM_029.jpg	99
383.691	1.024	1023.8	test	Phase1	test/STIM_000.jpg	99
388.289	0.581	580.7	test	Phase1	test/STIM_000.jpg	99
392.713	0.742	742.4	test	Phase1	test/STIM_000.jpg	100
396.134	1.145	1145.2	test	Phase1	test/STIM_001.jpg	99
400.153	0.732	732.1	test	Phase1	test/STIM_001.jpg	100
404.476	0.821	821.4	test	Phase1	test/STIM_001.jpg	100
408.238	0.875	874.6	test	Phase1	test/STIM_002.jpg	100
412.16	1.07	1069.7	test	Phase1	test/STIM_002.jpg	100
415.873	0.941	941.4	test	Phase1	test/STIM_002.jpg	99
419.734	0.74	740.4	test	Phase1	test/STIM_003.jpg	100
423.035	1.041	1041.1	test	Phase1	test/STIM_003.jpg	100
428.049	0.982	982.1	test	Phase1	test/STIM_003.jpg	100
431.458	0.866	865.7	test	Phase1	test/STIM_004.jpg	99
436.288	1.028	1027.8	test	Phase1	test/STIM_004.jpg	99
439.709	0.962	962.0	test	Phase1	test/STIM_004.jpg	99
442.974	0.625	624.6	test	Phase1	test/STIM_005.jpg	100
446.156	0.607	606.6	test	Phase1	test/STIM_005.jpg	100
450.701	0.978	978.4	test	Phase1	test/STIM_005.jpg	100
454.703	0.677	677.3	test	Phase1	test/STIM_006.jpg	100
458.947	1.093	1093.2	test	Phase1	test/STIM_006.jpg	99
462.268	1.012	1011.5	test	Phase1	test/STIM_006.jpg	100
466.416	1.095	1095.0	test	Phase1	test/STIM_007.jpg	99
470.803	0.831	831.2	test	Phase1	test/STIM_007.jpg	99
474.159	1.016	1016.0	test	Phase1	test/STIM_007.jpg	100
478.655	0.782	781.5	test	Phase1	test/STIM_008.jpg	100
482.856	1.091	1090.8	test	Phase1	test/STIM_008.jpg	99
487.446	0.972	972.3	test	Phase1	test/STIM_008.jpg	99
491.578	0.748	747.9	test	Phase1	test/STIM_009.jpg	100
496.338	0.657	657.1	test	Phase1	test/STIM_009.jpg	100
500.595	0.97	970.3	test	Phase1	test/STIM_009.jpg	100
504.739	1.251	1251.2	test	Phase1	test/STIM_010.jpg	100
508.778	0.622	621.5	test	Phase1	test/STIM_010.jpg	99
511.429	0.981	980.7	test	Phase1	test/STIM_010.jpg	100
514.59	0.788	788.0	test	Phase1	test/STIM_011.jpg	99
519.248	1.062	1062.2	test	Phase1	test/STIM_011.jpg	99
523.817	1.196	1196.3	test	Phase1	test/STIM_011.jpg	100
528.549	0.897	896.8	test	Phase1	test/STIM_012.jpg	99
531.581	0.881	880.6	test	Phase1	test/STIM_012.jpg	100
536.455	0.869	868.7	test	Phase1	test/STIM_012.jpg	99
540.228	0.917	916.7	test	Phase1	test/STIM_013.jpg	99
543.6	1.038	1038.3	test	Phase1	test/STIM_013.jpg	99
546.971	1.183	1182.8	test	Phase1	test/STIM_013.jpg	99
551.314	1.084	1084.4	test	Phase1	test/STIM_014.jpg	100
555.376	0.692	692.5	test	Phase1	test/STIM_014.jpg	99
559.058	0.723	722.8	test	Phase1	test/STIM_014.jpg	99
563.831	1.004	1004.1	test	Phase1	test/STIM_015.jpg	100
568.004	0.848	848.3	test	Phase1	test/STIM_015.jpg	100
572.099	1.029	1028.7	test	Phase1	test/STIM_015.jpg	100
575.444	0.708	707.5	test	Phase1	test/STIM_016.jpg	100
580.061	1.088	1087.6	test	Phase1	test/STIM_016.jpg	99
584.242	1.184	1184.4	test	Phase1	test/STIM_016.jpg	99
588.399	1.036	1036.3	test	Phase1	test/STIM_017.jpg	100
592.805	0.603	603.3	test	Phase1	test/STIM_017.jpg	100
597.224	0.774	774.4	test	Phase1	test/STIM_017.jpg	100
601.149	0.601	600.6	test	Phase1	test/STIM_018.jpg	99
603.989	0.617	617.3	test	Phase1	test/STIM_018.jpg	100
606.902	0.888	888.2	test	Phase1	test/STIM_018.jpg	100
611.253	0.521	521.1	test	Phase1	test/STIM_019.jpg	99
614.815	0.56	560.0	test	Phase1	test/STIM_019.jpg	99
617.709	1.092	1092.2	test	Phase1	test/STIM_019.jpg	99
621.625	0.928	928.2	test	Phase1	test/STIM_020.jpg	99
626.23	1.013	1012.7	test	Phase1	test/STIM_020.jpg	100
631.276	0.828	828.2	test	Phase1	test/STIM_020.jpg	100
635.396	0.847	846.8	test	Phase1	test/STIM_021.jpg	99
639.147	0.708	707.8	test	Phase1	test/STIM_021.jpg	99
642.224	0.968	968.4	test	Phase1	test/STIM_021.jpg	99
646.791	1.15	1150.2	test	Phase1	test/STIM_022.jpg	99
650.783	0.83	830.1	test	Phase1	test/STIM_022.jpg	99
654.075	0.84	839.8	test	Phase1	test/STIM_022.jpg	100
657.328	0.603	602.7	test	Phase1	test/STIM_023.jpg	99
660.099	0.946	945.8	test	Phase1	test/STIM_023.jpg	100
663.59	0.565	564.9	test	Phase1	test/STIM_023.jpg	99
667.765	0.918	918.4	test	Phase1	test/STIM_024.jpg	99
671.675	0.74	739.9	test	Phase1	test/STIM_024.jpg	99
674.771	0.897	897.0	test	Phase1	test/STIM_024.jpg	100
678.646	1.046	1046.0	test	Phase1	test/STIM_025.jpg	100
682.247	0.717	716.9	test	Phase1	test/STIM_025.jpg	99
686.091	0.582	582.5	test	Phase1	test/STIM_025.jpg	100
690.003	1.024	1023.9	test	Phase1	test/STIM_026.jpg	99
693.987	0.691	691.0	test	Phase1	test/STIM_026.jpg	99
698.255	0.508	507.8	test	Phase1	test/STIM_026.jpg	99
701.184	1.221	1221.1	test	Phase1	test/STIM_027.jpg	100
705.828	0.923	923.3	test	Phase1	test/STIM_027.jpg	100
710.236	1.028	1028.3	test	Phase1	test/STIM_027.jpg	99
714.695	0.53	530.3	test	Phase1	test/STIM_028.jpg	99
718.504	0.818	818.5	test	Phase1	test/STIM_028.jpg	99
723.271	0.801	800.9	test	Phase1	test/STIM_028.jpg	100
726.262	0.854	854.2	test	Phase1	test/STIM_029.jpg	100
730.539	0.938	937.9	test	Phase1	test/STIM_029.jpg	100
734.836	1.147	1146.9	test	Phase1	test/STIM_029.jpg	99
738.193	1.216	1216.1	study	Phase2	study/STIM_000.jpg	99
741.627	0.615	615.1	study	Phase2	study/STIM_000.jpg	99
745.571	0.492	491.7	study	Phase2	study/STIM_000.jpg	100
750.173	1.37	1370.1	study	Phase2	study/STIM_001.jpg	99
755.428	1.188	1187.8	study	Phase2	study/STIM_001.jpg	99
758.904	1.068	1067.6	study	Phase2	study/STIM_001.jpg	100
763.995	1.323	1323.2	study	Phase2	study/STIM_002.jpg	99
767.859	1.132	1132.2	study	Phase2	study/STIM_002.jpg	99
772.622	0.655	654.6	study	Phase2	study/STIM_002.jpg	99
777.265	1.065	1065.1	study	Phase2	study/STIM_003.jpg	99
781.518	0.946	946.4	study	Phase2	study/STIM_003.jpg	100
784.761	1.046	1045.6	study	Phase2	study/STIM_003.jpg	100
788.787	0.644	643.7	study	Phase2	study/STIM_004.jpg	100
791.869	0.939	939.1	study	Phase2	study/STIM_004.jpg	99
796.037	1.05	1049.8	study	Phase2	study/STIM_004.jpg	100
800.375	1.379	1379.3	study	Phase2	study/STIM_005.jpg	100
804.773	0.992	991.7	study	Phase2	study/STIM_005.jpg	100
808.807	0.578	577.5	study	Phase2	study/STIM_005.jpg	100
812.054	0.757	757.4	study	Phase2	study/STIM_006.jpg	99
814.887	0.889	888.9	study	Phase2	study/STIM_006.jpg	100
818.437	0.894	894.4	study	Phase2	study/STIM_006.jpg	99
822.185	0.814	813.7	study	Phase2	study/STIM_007.jpg	100
826.757	1.007	1007.2	study	Phase2	study/STIM_007.jpg	99
829.847	0.635	635.3	study	Phase2	study/STIM_007.jpg	99
834.168	0.736	735.8	study	Phase2	study/STIM_008.jpg	100
838.218	1.062	1061.5	study	Phase2	study/STIM_008.jpg	99
842.424	0.482	482.4	study	Phase2	study/STIM_008.jpg	100
846.921	0.79	789.5	study	Phase2	study/STIM_009.jpg	100
849.815	0.652	651.6	study	Phase2	study/STIM_009.jpg	100
852.876	0.934	934.3	study	Phase2	study/STIM_009.jpg	100
857.601	0.828	827.9	study	Phase2	study/STIM_010.jpg	100
861.945	0.714	714.2	study	Phase2	study/STIM_010.jpg	100
865.112	1.197	1196.8	study	Phase2	study/STIM_010.jpg	100
869.709	0.676	675.6	study	Phase2	study/STIM_011.jpg	100
873.126	0.567	567.0	study	Phase2	study/STIM_011.jpg	99
876.219	0.563	562.7	study	Phase2	study/STIM_011.jpg	99
879.825	1.209	1208.9	study	Phase2	study/STIM_012.jpg	100
884.239	0.72	720.2	study	Phase2	study/STIM_012.jpg	100
887.938	0.939	939.0	study	Phase2	study/STIM_012.jpg	99
892.628	0.918	917.6	study	Phase2	study/STIM_013.jpg	100
897.505	1.24	1239.7	study	Phase2	study/STIM_013.jpg	100
902.799	1.139	1138.7	study	Phase2	study/STIM_013.jpg	99
906.605	1.108	1108.1	study	Phase2	study/STIM_014.jpg	99
910.942	0.689	689.1	study	Phase2	study/STIM_014.jpg	100
913.744	0.709	708.6	study	Phase2	study/STIM_014.jpg	99
918.219	0.987	987.2	study	Phase2	study/STIM_015.jpg	99
921.999	1.151	1150.9	study	Phase2	study/STIM_015.jpg	99
926.968	0.783	783.4	study	Phase2	study/STIM_015.jpg	100
930.759	0.903	902.8	study	Phase2	study/STIM_016.jpg	100
934.659	0.678	678.2	study	Phase2	study/STIM_016.jpg	99
937.863	0.578	578.3	study	Phase2	study/STIM_016.jpg	100
941.097	0.7	699.9	study	Phase2	study/STIM_017.jpg	99
945.146	1.052	1051.9	study	Phase2	study/STIM_017.jpg	100
948.649	0.561	560.6	study	Phase2	study/STIM_017.jpg	100
951.613	0.819	819.1	study	Phase2	study/STIM_018.jpg	99
955.922	0.882	881.6	study	Phase2	study/STIM_018.jpg	99
960.792	0.585	585.0	study	Phase2	study/STIM_018.jpg	100
964.676	0.84	839.8	study	Phase2	study/STIM_019.jpg	100
968.816	0.882	882.5	study	Phase2	study/STIM_019.jpg	100
973.387	0.618	617.5	study	Phase2	study/STIM_019.jpg	100
978.037	0.983	983.3	study	Phase2	study/STIM_020.jpg	100
981.809	0.606	606.1	study	Phase2	study/STIM_020.jpg	100
984.651	0.656	656.4	study	Phase2	study/STIM_020.jpg	99
989.047	1.302	1302.1	study	Phase2	study/STIM_021.jpg	99
993.104	0.927	926.7	study	Phase2	study/STIM_021.jpg	100
997.32	1.102	1101.5	study	Phase2	study/STIM_021.jpg	99
1001.304	0.977	977.2	study	Phase2	study/STIM_022.jpg	99
1005.712	0.993	993.3	study	Phase2	study/STIM_022.jpg	99
1009.637	1.144	1143.7	study	Phase2	study/STIM_022.jpg	100
1014.159	0.807	806.9	study	Phase2	study/STIM_023.jpg	99
1018.168	1.282	1282.3	study	Phase2	study/STIM_023.jpg	100
1023.108	1.148	1148.2	study	Phase2	study/STIM_023.jpg	100
1027.684	1.092	1092.3	study	Phase2	study/STIM_024.jpg	99
1031.128	0.947	947.0	study	Phase2	study/STIM_024.jpg	99
1034.442	0.702	701.7	study	Phase2	study/STIM_024.jpg	100
1037.302	0.64	639.7	study	Phase2	study/STIM_025.jpg	99
1040.643	0.535	534.7	study	Phase2	study/STIM_025.jpg	100
1045.028	0.567	567.1	study	Phase2	study/STIM_025.jpg	100
1048.899	1.072	1072.3	study	Phase2	study/STIM_026.jpg	99
1052.132	0.908	907.9	study	Phase2	study/STIM_026.jpg	100
1055.433	1.194	1194.2	study	Phase2	study/STIM_026.jpg	100
1060.171	1.394	1394.4	study	Phase2	study/STIM_027.jpg	100
1064.29	0.859	859.0	study	Phase2	study/STIM_027.jpg	99
1068.184	1.143	1142.9	study	Phase2	study/STIM_027.jpg	100
1071.899	0.899	898.6	study	Phase2	study/STIM_028.jpg	100
1075.263	0.67	669.5	study	Phase2	study/STIM_028.jpg	99
1079.867	0.895	895.0	study	Phase2	study/STIM_028.jpg	100
1083.382	0.995	995.4	study	Phase2	study/STIM_029.jpg	100
1086.85	1.281	1281.2	study	Phase2	study/STIM_029.jpg	99
1090.912	0.66	659.9	study	Phase2	study/STIM_029.jpg	99
1093.753	0.674	674.5	test	Phase2	test/STIM_000.jpg	100
1097.216	1.014	1013.5	test	Phase2	test/STIM_000.jpg	99
1100.638	0.636	635.7	test	Phase2	test/STIM_000.jpg	99
1104.651	1.136	1135.9	test	Phase2	test/STIM_001.jpg	100
1108.669	1.022	1021.9	test	Phase2	test/STIM_001.jpg	100
1113.415	1.153	1152.6	test	Phase2	test/STIM_001.jpg	99
1117.474	1.016	1015.6	test	Phase2	test/STIM_002.jpg	100
1121.357	0.819	818.8	test	Phase2	test/STIM_002.jpg	99
1125.384	1.126	1125.6	test	Phase2	test/STIM_002.jpg	100
1128.826	0.772	772.2	test	Phase2	test/STIM_003.jpg	100
1133.151	0.972	972.2	test	Phase2	test/STIM_003.jpg	99
1137.65	0.941	941.0	test	Phase2	test/STIM_003.jpg	99
1142.464	0.854	854.3	test	Phase2	test/STIM_004.jpg	100
1147.237	0.941	940.8	test	Phase2	test/STIM_004.jpg	100
1151.476	0.565	564.9	test	Phase2	test/STIM_004.jpg	100
1154.968	1.039	1038.7	test	Phase2	test/STIM_005.jpg	99
1159.637	0.624	623.5	test	Phase2	test/STIM_005.jpg	99
1164.307	0.851	851.1	test	Phase2	test/STIM_005.jpg	100
1168.723	1.126	1125.5	test	Phase2	test/STIM_006.jpg	100
1172.625	0.538	537.8	test	Phase2	test/STIM_006.jpg	99
1175.864	1.076	1075.5	test	Phase2	test/STIM_006.jpg	100
1179.689	0.687	687.0	test	Phase2	test/STIM_007.jpg	100
1182.863	0.807	806.6	test	Phase2	test/STIM_007.jpg	99
1186.588	0.882	882.1	test	Phase2	test/STIM_007.jpg	100
1190.297	0.799	798.8	test	Phase2	test/STIM_008.jpg	100
1194.989	0.554	553.6	test	Phase2	test/STIM_008.jpg	99
1198.566	1.128	1127.7	test	Phase2	test/STIM_008.jpg	99
1203.289	1.184	1184.0	test	Phase2	test/STIM_009.jpg	99
1208.481	1.02	1020.0	test	Phase2	test/STIM_009.jpg	99
1213.498	0.792	792.1	test	Phase2	test/STIM_009.jpg	99
1216.565	0.879	878.6	test	Phase2	test/STIM_010.jpg	99
1220.719	0.959	958.6	test	Phase2	test/STIM_010.jpg	99
1223.813	0.948	948.0	test	Phase2	test/STIM_010.jpg	100
1228.692	0.731	731.0	test	Phase2	test/STIM_011.jpg	100
1233.384	0.983	983.1	test	Phase2	test/STIM_011.jpg	100
1237.334	1.119	1119.1	test	Phase2	test/STIM_011.jpg	99
1241.975	0.634	634.2	test	Phase2	test/STIM_012.jpg	99
1245.239	0.738	738.3	test	Phase2	test/STIM_012.jpg	99
1249.897	0.659	659.3	test	Phase2	test/STIM_012.jpg	99
1254.423	0.9	900.5	test	Phase2	test/STIM_013.jpg	99
1257.515	0.768	767.9	test	Phase2	test/STIM_013.jpg	100
1261.72	0.546	546.3	test	Phase2	test/STIM_013.jpg	99
1265.06	1.124	1123.7	test	Phase2	test/STIM_014.jpg	99
1268.89	0.942	942.0	test	Phase2	test/STIM_014.jpg	100
1273.256	0.964	964.4	test	Phase2	test/STIM_014.jpg	100
1276.528	0.501	500.6	test	Phase2	test/STIM_015.jpg	99
1279.434	0.69	689.5	test	Phase2	test/STIM_015.jpg	100
1284.026	0.971	971.3	test	Phase2	test/STIM_015.jpg	99
1287.987	0.994	993.9	test	Phase2	test/STIM_016.jpg	99
1292.627	0.836	836.3	test	Phase2	test/STIM_016.jpg	99
1296.358	0.69	690.1	test	Phase2	test/STIM_016.jpg	99
1300.461	0.728	728.5	test	Phase2	test/STIM_017.jpg	99
1304.05	0.599	599.4	test	Phase2	test/STIM_017.jpg	100
1306.972	1.264	1263.8	test	Phase2	test/STIM_017.jpg	100
1311.901	0.576	576.0	test	Phase2	test/STIM_018.jpg	99
1315.274	0.982	981.6	test	Phase2	test/STIM_018.jpg	99
1319.138	0.901	901.4	test	Phase2	test/STIM_018.jpg	100
1323.848	0.6	600.2	test	Phase2	test/STIM_019.jpg	100
1327.872	0.545	544.7	test	Phase2	test/STIM_019.jpg	100
1332.034	0.807	806.9	test	Phase2	test/STIM_019.jpg	100
1336.326	1.162	1161.8	test	Phase2	test/STIM_020.jpg	100
1341.112	0.65	650.5	test	Phase2	test/STIM_020.jpg	99
1343.975	1.093	1092.7	test	Phase2	test/STIM_020.jpg	99
1348.647	1.189	1189.2	test	Phase2	test/STIM_021.jpg	99
1353.31	0.6	600.2	test	Phase2	test/STIM_021.jpg	100
1357.565	0.526	525.9	test	Phase2	test/STIM_021.jpg	99
1360.8	1.096	1095.9	test	Phase2	test/STIM_022.jpg	100
1364.822	0.661	661.4	test	Phase2	test/STIM_022.jpg	100
1368.727	0.884	883.5	test	Phase2	test/STIM_022.jpg	100
1372.949	0.927	926.8	test	Phase2	test/STIM_023.jpg	99
1376.694	0.645	644.8	test	Phase2	test/STIM_023.jpg	99
1381.191	0.839	839.3	test	Phase2	test/STIM_023.jpg	99
1384.693	1.226	1225.6	test	Phase2	test/STIM_024.jpg	99
1389.824	0.627	626.7	test	Phase2	test/STIM_024.jpg	100
1393.365	1.13	1130.5	test	Phase2	test/STIM_024.jpg	99
1398.259	1.15	1150.0	test	Phase2	test/STIM_025.jpg	99
1403.4	0.945	944.8	test	Phase2	test/STIM_025.jpg	100
1408.173	0.828	828.5	test	Phase2	test/STIM_025.jpg	100
1412.319	0.537	537.1	test	Phase2	test/STIM_026.jpg	100
1416.539	1.021	1020.9	test	Phase2	test/STIM_026.jpg	100
1420.038	0.534	534.0	test	Phase2	test/STIM_026.jpg	99
1424.471	1.174	1173.8	test	Phase2	test/STIM_027.jpg	99
1429.319	0.836	836.1	test	Phase2	test/STIM_027.jpg	99
1433.728	0.778	777.8	test	Phase2	test/STIM_027.jpg	100
1437.647	0.969	969.2	test	Phase2	test/STIM_028.jpg	100
1441.462	0.948	947.8	test	Phase2	test/STIM_028.jpg	99
1445.46	0.775	775.2	test	Phase2	test/STIM_028.jpg	99
1449.351	1.066	1066.3	test	Phase2	test/STIM_029.jpg	99
1454.484	1.209	1209.2	test	Phase2	test/STIM_029.jpg	99
1458.909	1.178	1178.5	test	Phase2	test/STIM_029.jpg	99
1464.164	1.001	1001.3	study	Phase3	study/STIM_000.jpg	100
1467.796	1.102	1102.1	study	Phase3	study/STIM_000.jpg	99
1471.278	0.816	816.4	study	Phase3	study/STIM_000.jpg	99
1474.541	0.536	536.3	study	Phase3	study/STIM_001.jpg	99
1478.964	0.922	922.4	study	Phase3	study/STIM_001.jpg	100
1482.352	0.536	536.5	study	Phase3	study/STIM_001.jpg	99
1485.981	0.62	620.5	study	Phase3	study/STIM_002.jpg	99
1490.174	0.64	639.7	study	Phase3	study/STIM_002.jpg	99
1493.338	0.88	880.3	study	Phase3	study/STIM_002.jpg	100
1496.956	0.982	982.0	study	Phase3	study/STIM_003.jpg	100
1500.94	0.912	912.2	study	Phase3	study/STIM_003.jpg	99
1504.936	0.625	624.9	study	Phase3	study/STIM_003.jpg	100
1509.245	0.598	597.6	study	Phase3	study/STIM_004.jpg	100
1512.192	0.975	975.0	study	Phase3	study/STIM_004.jpg	100
1516.954	0.659	659.0	study	Phase3	study/STIM_004.jpg	99
1521.391	1.076	1076.0	study	Phase3	study/STIM_005.jpg	100
1526.458	0.62	619.7	study	Phase3	study/STIM_005.jpg	99
1530.913	1.029	1029.0	study	Phase3	study/STIM_005.jpg	100
1535.105	0.748	747.8	study	Phase3	study/STIM_006.jpg	99
1538.364	1.066	1066.2	study	Phase3	study/STIM_006.jpg	100
1541.628	0.756	756.3	study	Phase3	study/STIM_006.jpg	100
1544.625	0.917	916.8	study	Phase3	study/STIM_007.jpg	99
1547.896	0.799	798.8	study	Phase3	study/STIM_007.jpg	100
1551.494	0.628	627.8	study	Phase3	study/STIM_007.jpg	99
1554.356	1.122	1122.4	study	Phase3	study/STIM_008.jpg	100
1559.315	1.13	1130.0	study	Phase3	study/STIM_008.jpg	99
1563.418	0.573	573.2	study	Phase3	study/STIM_008.jpg	99
1566.331	0.705	705.3	study	Phase3	study/STIM_009.jpg	100
1569.732	0.798	798.5	study	Phase3	study/STIM_009.jpg	100
1573.932	0.839	838.8	study	Phase3	study/STIM_009.jpg	99
1577.252	0.618	618.3	study	Phase3	study/STIM_010.jpg	99
1581.153	0.666	666.2	study	Phase3	study/STIM_010.jpg	100
1584.952	0.965	964.7	study	Phase3	study/STIM_010.jpg	99
1588.917	0.894	894.2	study	Phase3	study/STIM_011.jpg	99
1592.333	0.49	489.9	study	Phase3	study/STIM_011.jpg	100
1596.857	0.549	549.2	study	Phase3	study/STIM_011.jpg	100
1600.561	1.211	1211.1	study	Phase3	study/STIM_012.jpg	99
1605.297	0.856	855.6	study	Phase3	study/STIM_012.jpg	99
1608.643	0.901	900.7	study	Phase3	study/STIM_012.jpg	100
1612.637	0.965	965.4	study	Phase3	study/STIM_013.jpg	100
1616.535	0.862	862.2	study	Phase3	study/STIM_013.jpg	100
1620.048	0.681	680.6	study	Phase3	study/STIM_013.jpg	100
1624.558	0.764	763.6	study	Phase3	study/STIM_014.jpg	99
1629.261	1.187	1186.8	study	Phase3	study/STIM_014.jpg	100
1633.796	0.655	654.6	study	Phase3	study/STIM_014.jpg	99
1636.542	0.939	938.8	study	Phase3	study/STIM_015.jpg	99
1640.741	0.573	572.7	study	Phase3	study/STIM_015.jpg	99
1644.669	0.653	652.9	study	Phase3	study/STIM_015.jpg	99
1647.37	0.618	618.4	study	Phase3	study/STIM_016.jpg	99
1651.827	1.004	1004.2	study	Phase3	study/STIM_016.jpg	99
1656.465	0.873	873.4	study	Phase3	study/STIM_016.jpg	100
1660.732	0.864	863.9	study	Phase3	study/STIM_017.jpg	99
1663.913	0.778	777.7	study	Phase3	study/STIM_017.jpg	99
1668.337	0.828	827.6	study	Phase3	study/STIM_017.jpg	100
1672.309	0.562	561.5	study	Phase3	study/STIM_018.jpg	100
1676.168	0.939	939.1	study	Phase3	study/STIM_018.jpg	100
1680.303	1.073	1072.6	study	Phase3	study/STIM_018.jpg	100
1684.662	0.648	648.0	study	Phase3	study/STIM_019.jpg	100
1689.202	0.547	546.7	study	Phase3	study/STIM_019.jpg	99
1693.768	1.163	1163.2	study	Phase3	study/STIM_019.jpg	99
1697.485	0.866	865.8	study	Phase3	study/STIM_020.jpg	100
1702.063	0.62	620.3	study	Phase3	study/STIM_020.jpg	100
1706.65	1.165	1165.1	study	Phase3	study/STIM_020.jpg	100
1711.006	0.639	638.6	study	Phase3	study/STIM_021.jpg	99
1714.03	0.562	562.4	study	Phase3	study/STIM_021.jpg	100
1717.925	0.937	936.8	study	Phase3	study/STIM_021.jpg	99
1722.408	0.596	595.5	study	Phase3	study/STIM_022.jpg	100
1725.526	0.668	668.2	study	Phase3	study/STIM_022.jpg	100
1728.9	0.731	731.0	study	Phase3	study/STIM_022.jpg	100
1733.621	0.663	663.1	study	Phase3	study/STIM_023.jpg	100
1737.487	0.479	479.2	study	Phase3	study/STIM_023.jpg	99
1741.947	0.92	919.5	study	Phase3	study/STIM_023.jpg	99
1745.719	0.867	867.0	study	Phase3	study/STIM_024.jpg	100
1748.926	0.518	517.8	study	Phase3	study/STIM_024.jpg	99
1752.623	1.006	1006.1	study	Phase3	study/STIM_024.jpg	100
1756.709	0.929	929.1	study	Phase3	study/STIM_025.jpg	99
1761.098	0.999	999.2	study	Phase3	study/STIM_025.jpg	100
1764.257	0.912	911.5	study	Phase3	study/STIM_025.jpg	100
1767.333	0.769	768.8	study	Phase3	study/STIM_026.jpg	100
1771.897	0.648	647.5	study	Phase3	study/STIM_026.jpg	99
1774.618	0.863	863.0	study	Phase3	study/STIM_026.jpg	99
1777.737	0.949	949.0	study	Phase3	study/STIM_027.jpg	99
1780.945	0.536	535.8	study	Phase3	study/STIM_027.jpg	99
1783.945	0.54	540.0	study	Phase3	study/STIM_027.jpg	99
1788.241	0.447	447.4	study	Phase3	study/STIM_028.jpg	100
1792.427	0.908	907.6	study	Phase3	study/STIM_028.jpg	100
1796.229	0.537	536.8	study	Phase3	study/STIM_028.jpg	100
1799.252	0.949	949.4	study	Phase3	study/STIM_029.jpg	100
1802.731	0.755	755.1	study	Phase3	study/STIM_029.jpg	99
1805.933	0.598	597.9	study	Phase3	study/STIM_029.jpg	99
1810.446	1.076	1076.3	test	Phase3	test/STIM_000.jpg	100
1815.443	0.848	847.8	test	Phase3	test/STIM_000.jpg	100
1819.647	0.995	994.7	test	Phase3	test/STIM_000.jpg	100
1823.515	0.69	689.8	test	Phase3	test/STIM_001.jpg	99
1827.49	0.841	841.4	test	Phase3	test/STIM_001.jpg	100
1830.653	0.733	733.3	test	Phase3	test/STIM_001.jpg	100
1834.826	0.777	777.3	test	Phase3	test/STIM_002.jpg	100
1838.777	0.938	938.0	test	Phase3	test/STIM_002.jpg	99
1843.667	0.9	899.8	test	Phase3	test/STIM_002.jpg	100
1847.14	0.764	763.8	test	Phase3	test/STIM_003.jpg	100
1851.727	0.752	752.5	test	Phase3	test/STIM_003.jpg	100
1856.297	0.84	839.7	test	Phase3	test/STIM_003.jpg	100
1860.198	1.155	1154.6	test	Phase3	test/STIM_004.jpg	100
1864.616	0.639	639.1	test	Phase3	test/STIM_004.jpg	100
1869.064	1.092	1092.2	test	Phase3	test/STIM_004.jpg	100
1872.991	1.114	1114.3	test	Phase3	test/STIM_005.jpg	99
1877.923	1.13	1130.5	test	Phase3	test/STIM_005.jpg	99
1882.925	1.038	1038.2	test	Phase3	test/STIM_005.jpg	100
1886.236	0.504	504.4	test	Phase3	test/STIM_006.jpg	100
1889.579	0.819	818.7	test	Phase3	test/STIM_006.jpg	100
1892.87	1.071	1070.8	test	Phase3	test/STIM_006.jpg	99
1897.759	0.641	641.4	test	Phase3	test/STIM_007.jpg	99
1901.23	1.113	1113.4	test	Phase3	test/STIM_007.jpg	99
1905.751	0.983	983.2	test	Phase3	test/STIM_007.jpg	100
1909.791	1.098	1098.4	test	Phase3	test/STIM_008.jpg	99
1914.367	0.976	976.1	test	Phase3	test/STIM_008.jpg	100
1918.732	0.725	724.8	test	Phase3	test/STIM_008.jpg	99
1923.422	0.817	816.8	test	Phase3	test/STIM_009.jpg	100
1927.254	0.766	765.5	test	Phase3	test/STIM_009.jpg	100
1930.761	0.554	553.6	test	Phase3	test/STIM_009.jpg	100
1935.316	0.902	901.6	test	Phase3	test/STIM_010.jpg	100
1939.462	0.853	853.1	test	Phase3	test/STIM_010.jpg	100
1943.453	1.152	1152.4	test	Phase3	test/STIM_010.jpg	99
1948.135	0.692	692.2	test	Phase3	test/STIM_011.jpg	100
1952.079	0.887	886.6	test	Phase3	test/STIM_011.jpg	99
1955.398	0.552	551.5	test	Phase3	test/STIM_011.jpg	99
1958.46	0.797	796.6	test	Phase3	test/STIM_012.jpg	99
1963.009	1.162	1162.2	test	Phase3	test/STIM_012.jpg	100
1966.745	0.933	932.7	test	Phase3	test/STIM_012.jpg	100
1971.0	0.554	553.7	test	Phase3	test/STIM_013.jpg	99
1974.899	1.009	1009.2	test	Phase3	test/STIM_013.jpg	100
1979.539	0.703	703.3	test	Phase3	test/STIM_013.jpg	100
1983.837	1.103	1102.9	test	Phase3	test/STIM_014.jpg	100
1988.512	0.63	630.0	test	Phase3	test/STIM_014.jpg	99
1992.71	1.114	1113.5	test	Phase3	test/STIM_014.jpg	99
1997.702	0.846	846.5	test	Phase3	test/STIM_015.jpg	100
2001.54	0.758	757.5	test	Phase3	test/STIM_015.jpg	100
2005.682	1.156	1155.9	test	Phase3	test/STIM_015.jpg	99
2010.072	0.673	673.4	test	Phase3	test/STIM_016.jpg	100
2013.313	0.973	972.7	test	Phase3	test/STIM_016.jpg	99
2017.322	0.891	891.4	test	Phase3	test/STIM_016.jpg	99
2021.932	0.952	951.6	test	Phase3	test/STIM_017.jpg	100
2026.804	0.959	958.7	test	Phase3	test/STIM_017.jpg	99
2031.641	0.978	978.3	test	Phase3	test/STIM_017.jpg	99
2036.658	0.666	666.4	test	Phase3	test/STIM_018.jpg	99
2040.958	1.092	1092.1	test	Phase3	test/STIM_018.jpg	100
2045.486	0.957	956.8	test	Phase3	test/STIM_018.jpg	100
2050.522	0.633	632.7	test	Phase3	test/STIM_019.jpg	99
2053.657	1.022	1022.4	test	Phase3	test/STIM_019.jpg	100
2057.083	0.753	753.4	test	Phase3	test/STIM_019.jpg	100
2060.821	1.13	1130.2	test	Phase3	test/STIM_020.jpg	99
2064.404	1.107	1106.6	test	Phase3	test/STIM_020.jpg	100
2068.249	0.808	808.2	test	Phase3	test/STIM_020.jpg	99
2071.283	0.792	791.7	test	Phase3	test/STIM_021.jpg	99
2075.548	0.845	844.8	test	Phase3	test/STIM_021.jpg	100
2080.214	0.681	680.7	test	Phase3	test/STIM_021.jpg	99
2083.214	0.965	964.6	test	Phase3	test/STIM_022.jpg	100
2087.71	1.003	1003.1	test	Phase3	test/STIM_022.jpg	100
2091.305	0.774	774.1	test	Phase3	test/STIM_022.jpg	100
2094.391	1.079	1079.2	test	Phase3	test/STIM_023.jpg	100
2098.687	1.26	1260.0	test	Phase3	test/STIM_023.jpg	100
2103.463	1.214	1214.3	test	Phase3	test/STIM_023.jpg	99
2106.972	1.141	1140.6	test	Phase3	test/STIM_024.jpg	99
2112.057	0.713	712.8	test	Phase3	test/STIM_024.jpg	100
2116.665	0.649	649.0	test	Phase3	test/STIM_024.jpg	100
2120.72	1.12	1120.5	test	Phase3	test/STIM_025.jpg	100
2125.569	1.213	1212.8	test	Phase3	test/STIM_025.jpg	99
2129.746	0.912	912.5	test	Phase3	test/STIM_025.jpg	100
2134.568	0.817	816.8	test	Phase3	test/STIM_026.jpg	100
2137.583	0.73	730.3	test	Phase3	test/STIM_026.jpg	100
2141.474	0.96	960.3	test	Phase3	test/STIM_026.jpg	99
2144.696	0.992	991.5	test	Phase3	test/STIM_027.jpg	99
2148.756	0.982	981.9	test	Phase3	test/STIM_027.jpg	99
2152.472	0.57	569.7	test	Phase3	test/STIM_027.jpg	100
2155.207	0.69	690.1	test	Phase3	test/STIM_028.jpg	99
2158.545	1.094	1093.7	test	Phase3	test/STIM_028.jpg	100
2162.98	0.878	878.5	test	Phase3	test/STIM_028.jpg	100
2167.593	0.638	637.6	test	Phase3	test/STIM_029.jpg	99
2171.359	0.907	907.1	test	Phase3	test/STIM_029.jpg	100
2175.319	0.863	862.8	test	Phase3	test/STIM_029.jpg	99
