onset	duration	accuracy_binary	trial_type	learning_stage	stimulus
0.0	1.102	1	study	Phase1	study/STIM_000.jpg
4.141	0.817	1	study	Phase1	study/STIM_000.jpg
8.869	0.751	1	study	Phase1	study/STIM_000.jpg
13.081	0.838	0	study	Phase1	study/STIM_001.jpg
17.408	0.721	1	study	Phase1	study/STIM_001.jpg
20.201	0.911	1	study	Phase1	study/STIM_001.jpg
24.783	0.723	1	study	Phase1	study/STIM_002.jpg
28.504	1.352	0	study	Phase1	study/STIM_002.jpg
33.371	0.783	1	study	Phase1	study/STIM_002.jpg
37.592	1.513	0	study	Phase1	study/STIM_003.jpg
43.031	0.712	0	study	Phase1	study/STIM_003.jpg
46.577	0.916	1	study	Phase1	study/STIM_003.jpg
50.029	1.231	1	study	Phase1	study/STIM_004.jpg
54.462	0.96	1	study	Phase1	study/STIM_004.jpg
58.74	1.387	1	study	Phase1	study/STIM_004.jpg
63.458	1.68	0	study	Phase1	study/STIM_005.jpg
68.564	1.312	1	study	Phase1	study/STIM_005.jpg
73.404	1.112	1	study	Phase1	study/STIM_005.jpg
77.304	1.327	1	study	Phase1	study/STIM_006.jpg
82.568	1.477	1	study	Phase1	study/STIM_006.jpg
87.252	1.221	1	study	Phase1	study/STIM_006.jpg
92.134	0.78	1	study	Phase1	study/STIM_007.jpg
95.396	1.436	1	study	Phase1	study/STIM_007.jpg
99.452	1.461	0	study	Phase1	study/STIM_007.jpg
103.94	1.328	1	study	Phase1	study/STIM_008.jpg
108.698	0.741	1	study	Phase1	study/STIM_008.jpg
113.03	1.272	1	study	Phase1	study/STIM_008.jpg
118.301	1.157	1	study	Phase1	study/STIM_009.jpg
123.273	0.737	1	study	Phase1	study/STIM_009.jpg
127.707	0.991	1	study	Phase1	study/STIM_009.jpg
131.063	0.886	1	study	Phase1	study/STIM_010.jpg
134.198	0.854	1	study	Phase1	study/STIM_010.jpg
138.313	1.295	1	study	Phase1	study/STIM_010.jpg
143.595	1.0	1	study	Phase1	study/STIM_011.jpg
146.976	1.43	1	study	Phase1	study/STIM_011.jpg
150.758	1.33	1	study	Phase1	study/STIM_011.jpg
155.675	1.354	1	study	Phase1	study/STIM_012.jpg
160.354	0.792	0	study	Phase1	study/STIM_012.jpg
165.169	1.447	1	study	Phase1	study/STIM_012.jpg
170.559	1.066	1	study	Phase1	study/STIM_013.jpg
173.972	1.274	1	study	Phase1	study/STIM_013.jpg
177.934	1.139	0	study	Phase1	study/STIM_013.jpg
181.676	1.157	0	study	Phase1	study/STIM_014.jpg
186.446	1.142	1	study	Phase1	study/STIM_014.jpg
191.249	1.175	1	study	Phase1	study/STIM_014.jpg
195.605	1.288	1	study	Phase1	study/STIM_015.jpg
199.478	1.364	0	study	Phase1	study/STIM_015.jpg
203.553	1.171	1	study	Phase1	study/STIM_015.jpg
206.955	1.136	1	study	Phase1	study/STIM_016.jpg
211.294	0.956	1	study	Phase1	study/STIM_016.jpg
214.942	1.132	1	study	Phase1	study/STIM_016.jpg
219.046	1.597	1	study	Phase1	study/STIM_017.jpg
223.025	0.915	1	study	Phase1	study/STIM_017.jpg
227.948	1.199	1	study	Phase1	study/STIM_017.jpg
231.461	0.914	1	study	Phase1	study/STIM_018.jpg
235.24	1.108	1	study	Phase1	study/STIM_018.jpg
239.635	0.934	1	study	Phase1	study/STIM_018.jpg
243.826	0.7	1	study	Phase1	study/STIM_019.jpg
247.102	0.798	1	study	Phase1	study/STIM_019.jpg
250.471	1.192	1	study	Phase1	study/STIM_019.jpg
254.681	1.206	1	study	Phase1	study/STIM_020.jpg
259.478	1.529	1	study	Phase1	study/STIM_020.jpg
264.067	1.11	1	study	Phase1	study/STIM_020.jpg
268.736	0.983	1	study	Phase1	study/STIM_021.jpg
273.316	1.437	1	study	Phase1	study/STIM_021.jpg
277.859	1.196	1	study	Phase1	study/STIM_021.jpg
282.7	1.392	1	study	Phase1	study/STIM_022.jpg
287.382	1.384	0	study	Phase1	study/STIM_022.jpg
291.859	0.997	1	study	Phase1	study/STIM_022.jpg
296.804	1.192	0	study	Phase1	study/STIM_023.jpg
301.607	1.215	1	study	Phase1	study/STIM_023.jpg
306.627	0.63	1	study	Phase1	study/STIM_023.jpg
310.692	1.3	1	study	Phase1	study/STIM_024.jpg
314.613	0.77	1	study	Phase1	study/STIM_024.jpg
319.373	1.109	1	study	Phase1	study/STIM_024.jpg
324.24	1.364	0	study	Phase1	study/STIM_025.jpg
327.813	0.977	1	study	Phase1	study/STIM_025.jpg
332.605	0.679	1	study	Phase1	study/STIM_025.jpg
335.502	0.695	1	study	Phase1	study/STIM_026.jpg
338.866	0.914	1	study	Phase1	study/STIM_026.jpg
343.349	0.784	1	study	Phase1	study/STIM_026.jpg
346.646	0.783	1	study	Phase1	study/STIM_027.jpg
350.512	1.296	1	study	Phase1	study/STIM_027.jpg
354.803	1.036	1	study	Phase1	study/STIM_027.jpg
359.683	1.288	1	study	Phase1	study/STIM_028.jpg
364.379	0.68	1	study	Phase1	study/STIM_028.jpg
367.433	1.095	1	study	Phase1	study/STIM_028.jpg
370.68	1.386	1	study	Phase1	study/STIM_029.jpg
375.559	0.944	0	study	Phase1	study/STIM_029.jpg
379.731	1.004	1	study	Phase1	study/STIM_029.jpg
383.691	1.024	1	test	Phase1	test/STIM_000.jpg
388.289	0.581	1	test	Phase1	test/STIM_000.jpg
392.713	0.742	1	test	Phase1	test/STIM_000.jpg
396.134	1.145	1	test	Phase1	test/STIM_001.jpg
400.153	0.732	1	test	Phase1	test/STIM_001.jpg
404.476	0.821	1	test	Phase1	test/STIM_001.jpg
408.238	0.875	0	test	Phase1	test/STIM_002.jpg
412.16	1.07	1	test	Phase1	test/STIM_002.jpg
415.873	0.941	1	test	Phase1	test/STIM_002.jpg
419.734	0.74	1	test	Phase1	test/STIM_003.jpg
423.035	1.041	1	test	Phase1	test/STIM_003.jpg
428.049	0.982	1	test	Phase1	test/STIM_003.jpg
431.458	0.866	1	test	Phase1	test/STIM_004.jpg
436.288	1.028	1	test	Phase1	test/STIM_004.jpg
439.709	0.962	1	test	Phase1	test/STIM_004.jpg
442.974	0.625	1	test	Phase1	test/STIM_005.jpg
446.156	0.607	1	test	Phase1	test/STIM_005.jpg
450.701	0.978	1	test	Phase1	test/STIM_005.jpg
454.703	0.677	1	test	Phase1	test/STIM_006.jpg
458.947	1.093	1	test	Phase1	test/STIM_006.jpg
462.268	1.012	1	test	Phase1	test/STIM_006.jpg
466.416	1.095	1	test	Phase1	test/STIM_007.jpg
470.803	0.831	1	test	Phase1	test/STIM_007.jpg
474.159	1.016	1	test	Phase1	test/STIM_007.jpg
478.655	0.782	1	test	Phase1	test/STIM_008.jpg
482.856	1.091	1	test	Phase1	test/STIM_008.jpg
487.446	0.972	1	test	Phase1	test/STIM_008.jpg
491.578	0.748	1	test	Phase1	test/STIM_009.jpg
496.338	0.657	1	test	Phase1	test/STIM_009.jpg
500.595	0.97	1	test	Phase1	test/STIM_009.jpg
504.739	1.251	1	test	Phase1	test/STIM_010.jpg
508.778	0.622	1	test	Phase1	test/STIM_010.jpg
511.429	0.981	1	test	Phase1	test/STIM_010.jpg
514.59	0.788	1	test	Phase1	test/STIM_011.jpg
519.248	1.062	1	test	Phase1	test/STIM_011.jpg
523.817	1.196	1	test	Phase1	test/STIM_011.jpg
528.549	0.897	1	test	Phase1	test/STIM_012.jpg
531.581	0.881	1	test	Phase1	test/STIM_012.jpg
536.455	0.869	1	test	Phase1	test/STIM_012.jpg
540.228	0.917	1	test	Phase1	test/STIM_013.jpg
543.6	1.038	0	test	Phase1	test/STIM_013.jpg
546.971	1.183	1	test	Phase1	test/STIM_013.jpg
551.314	1.084	0	test	Phase1	test/STIM_014.jpg
555.376	0.692	1	test	Phase1	test/STIM_014.jpg
559.058	0.723	1	test	Phase1	test/STIM_014.jpg
563.831	1.004	1	test	Phase1	test/STIM_015.jpg
568.004	0.848	1	test	Phase1	test/STIM_015.jpg
572.099	1.029	1	test	Phase1	test/STIM_015.jpg
575.444	0.708	1	test	Phase1	test/STIM_016.jpg
580.061	1.088	0	test	Phase1	test/STIM_016.jpg
584.242	1.184	1	test	Phase1	test/STIM_016.jpg
588.399	1.036	1	test	Phase1	test/STIM_017.jpg
592.805	0.603	1	test	Phase1	test/STIM_017.jpg
597.224	0.774	1	test	Phase1	test/STIM_017.jpg
601.149	0.601	1	test	Phase1	test/STIM_018.jpg
603.989	0.617	1	test	Phase1	test/STIM_018.jpg
606.902	0.888	1	test	Phase1	test/STIM_018.jpg
611.253	0.521	1	test	Phase1	test/STIM_019.jpg
614.815	0.56	1	test	Phase1	test/STIM_019.jpg
617.709	1.092	1	test	Phase1	test/STIM_019.jpg
621.625	0.928	1	test	Phase1	test/STIM_020.jpg
626.23	1.013	1	test	Phase1	test/STIM_020.jpg
631.276	0.828	1	test	Phase1	test/STIM_020.jpg
635.396	0.847	1	test	Phase1	test/STIM_021.jpg
639.147	0.708	1	test	Phase1	test/STIM_021.jpg
642.224	0.968	1	test	Phase1	test/STIM_021.jpg
646.791	1.15	1	test	Phase1	test/STIM_022.jpg
650.783	0.83	1	test	Phase1	test/STIM_022.jpg
654.075	0.84	1	test	Phase1	test/STIM_022.jpg
657.328	0.603	0	test	Phase1	test/STIM_023.jpg
660.099	0.946	1	test	Phase1	test/STIM_023.jpg
663.59	0.565	1	test	Phase1	test/STIM_023.jpg
667.765	0.918	1	test	Phase1	test/STIM_024.jpg
671.675	0.74	1	test	Phase1	test/STIM_024.jpg
674.771	0.897	1	test	Phase1	test/STIM_024.jpg
678.646	1.046	1	test	Phase1	test/STIM_025.jpg
682.247	0.717	1	test	Phase1	test/STIM_025.jpg
686.091	0.582	1	test	Phase1	test/STIM_025.jpg
690.003	1.024	1	test	Phase1	test/STIM_026.jpg
693.987	0.691	1	test	Phase1	test/STIM_026.jpg
698.255	0.508	1	test	Phase1	test/STIM_026.jpg
701.184	1.221	1	test	Phase1	test/STIM_027.jpg
705.828	0.923	1	test	Phase1	test/STIM_027.jpg
710.236	1.028	1	test	Phase1	test/STIM_027.jpg
714.695	0.53	1	test	Phase1	test/STIM_028.jpg
718.504	0.818	1	test	Phase1	test/STIM_028.jpg
723.271	0.801	0	test	Phase1	test/STIM_028.jpg
726.262	0.854	1	test	Phase1	test/STIM_029.jpg
730.539	0.938	1	test	Phase1	test/STIM_029.jpg
734.836	1.147	1	test	Phase1	test/STIM_029.jpg
738.193	1.216	1	study	Phase2	study/STIM_000.jpg
741.627	0.615	0	study	Phase2	study/STIM_000.jpg
745.571	0.492	1	study	Phase2	study/STIM_000.jpg
750.173	1.37	1	study	Phase2	study/STIM_001.jpg
755.428	1.188	1	study	Phase2	study/STIM_001.jpg
758.904	1.068	1	study	Phase2	study/STIM_001.jpg
763.995	1.323	1	study	Phase2	study/STIM_002.jpg
767.859	1.132	1	study	Phase2	study/STIM_002.jpg
772.622	0.655	1	study	Phase2	study/STIM_002.jpg
777.265	1.065	1	study	Phase2	study/STIM_003.jpg
781.518	0.946	1	study	Phase2	study/STIM_003.jpg
784.761	1.046	0	study	Phase2	study/STIM_003.jpg
788.787	0.644	1	study	Phase2	study/STIM_004.jpg
791.869	0.939	1	study	Phase2	study/STIM_004.jpg
796.037	1.05	1	study	Phase2	study/STIM_004.jpg
800.375	1.379	1	study	Phase2	study/STIM_005.jpg
804.773	0.992	1	study	Phase2	study/STIM_005.jpg
808.807	0.578	1	study	Phase2	study/STIM_005.jpg
812.054	0.757	1	study	Phase2	study/STIM_006.jpg
814.887	0.889	1	study	Phase2	study/STIM_006.jpg
818.437	0.894	1	study	Phase2	study/STIM_006.jpg
822.185	0.814	1	study	Phase2	study/STIM_007.jpg
826.757	1.007	1	study	Phase2	study/STIM_007.jpg
829.847	0.635	1	study	Phase2	study/STIM_007.jpg
834.168	0.736	1	study	Phase2	study/STIM_008.jpg
838.218	1.062	1	study	Phase2	study/STIM_008.jpg
842.424	0.482	1	study	Phase2	study/STIM_008.jpg
846.921	0.79	1	study	Phase2	study/STIM_009.jpg
849.815	0.652	1	study	Phase2	study/STIM_009.jpg
852.876	0.934	0	study	Phase2	study/STIM_009.jpg
857.601	0.828	1	study	Phase2	study/STIM_010.jpg
861.945	0.714	1	study	Phase2	study/STIM_010.jpg
865.112	1.197	1	study	Phase2	study/STIM_010.jpg
869.709	0.676	1	study	Phase2	study/STIM_011.jpg
873.126	0.567	1	study	Phase2	study/STIM_011.jpg
876.219	0.563	1	study	Phase2	study/STIM_011.jpg
879.825	1.209	1	study	Phase2	study/STIM_012.jpg
884.239	0.72	1	study	Phase2	study/STIM_012.jpg
887.938	0.939	1	study	Phase2	study/STIM_012.jpg
892.628	0.918	1	study	Phase2	study/STIM_013.jpg
897.505	1.24	1	study	Phase2	study/STIM_013.jpg
902.799	1.139	1	study	Phase2	study/STIM_013.jpg
906.605	1.108	1	study	Phase2	study/STIM_014.jpg
910.942	0.689	1	study	Phase2	study/STIM_014.jpg
913.744	0.709	1	study	Phase2	study/STIM_014.jpg
918.219	0.987	1	study	Phase2	study/STIM_015.jpg
921.999	1.151	1	study	Phase2	study/STIM_015.jpg
926.968	0.783	1	study	Phase2	study/STIM_015.jpg
930.759	0.903	1	study	Phase2	study/STIM_016.jpg
934.659	0.678	1	study	Phase2	study/STIM_016.jpg
937.863	0.578	1	study	Phase2	study/STIM_016.jpg
941.097	0.7	1	study	Phase2	study/STIM_017.jpg
945.146	1.052	1	study	Phase2	study/STIM_017.jpg
948.649	0.561	1	study	Phase2	study/STIM_017.jpg
951.613	0.819	1	study	Phase2	study/STIM_018.jpg
955.922	0.882	1	study	Phase2	study/STIM_018.jpg
960.792	0.585	1	study	Phase2	study/STIM_018.jpg
964.676	0.84	1	study	Phase2	study/STIM_019.jpg
968.816	0.882	1	study	Phase2	study/STIM_019.jpg
973.387	0.618	1	study	Phase2	study/STIM_019.jpg
978.037	0.983	1	study	Phase2	study/STIM_020.jpg
981.809	0.606	1	study	Phase2	study/STIM_020.jpg
984.651	0.656	1	study	Phase2	study/STIM_020.jpg
989.047	1.302	1	study	Phase2	study/STIM_021.jpg
993.104	0.927	1	study	Phase2	study/STIM_021.jpg
997.32	1.102	1	study	Phase2	study/STIM_021.jpg
1001.304	0.977	1	study	Phase2	study/STIM_022.jpg
1005.712	0.993	1	study	Phase2	study/STIM_022.jpg
1009.637	1.144	1	study	Phase2	study/STIM_022.jpg
1014.159	0.807	1	study	Phase2	study/STIM_023.jpg
1018.168	1.282	1	study	Phase2	study/STIM_023.jpg
1023.108	1.148	1	study	Phase2	study/STIM_023.jpg
1027.684	1.092	1	study	Phase2	study/STIM_024.jpg
1031.128	0.947	1	study	Phase2	study/STIM_024.jpg
1034.442	0.702	1	study	Phase2	study/STIM_024.jpg
1037.302	0.64	1	study	Phase2	study/STIM_025.jpg
1040.643	0.535	1	study	Phase2	study/STIM_025.jpg
1045.028	0.567	1	study	Phase2	study/STIM_025.jpg
1048.899	1.072	1	study	Phase2	study/STIM_026.jpg
1052.132	0.908	1	study	Phase2	study/STIM_026.jpg
1055.433	1.194	1	study	Phase2	study/STIM_026.jpg
1060.171	1.394	1	study	Phase2	study/STIM_027.jpg
1064.29	0.859	0	study	Phase2	study/STIM_027.jpg
1068.184	1.143	1	study	Phase2	study/STIM_027.jpg
1071.899	0.899	1	study	Phase2	study/STIM_028.jpg
1075.263	0.67	0	study	Phase2	study/STIM_028.jpg
1079.867	0.895	1	study	Phase2	study/STIM_028.jpg
1083.382	0.995	1	study	Phase2	study/STIM_029.jpg
1086.85	1.281	1	study	Phase2	study/STIM_029.jpg
1090.912	0.66	1	study	Phase2	study/STIM_029.jpg
1093.753	0.674	1	test	Phase2	test/STIM_000.jpg
1097.216	1.014	1	test	Phase2	test/STIM_000.jpg
1100.638	0.636	1	test	Phase2	test/STIM_000.jpg
1104.651	1.136	1	test	Phase2	test/STIM_001.jpg
1108.669	1.022	1	test	Phase2	test/STIM_001.jpg
1113.415	1.153	1	test	Phase2	test/STIM_001.jpg
1117.474	1.016	1	test	Phase2	test/STIM_002.jpg
1121.357	0.819	1	test	Phase2	test/STIM_002.jpg
1125.384	1.126	1	test	Phase2	test/STIM_002.jpg
1128.826	0.772	1	test	Phase2	test/STIM_003.jpg
1133.151	0.972	1	test	Phase2	test/STIM_003.jpg
1137.65	0.941	1	test	Phase2	test/STIM_003.jpg
1142.464	0.854	1	test	Phase2	test/STIM_004.jpg
1147.237	0.941	1	test	Phase2	test/STIM_004.jpg
1151.476	0.565	1	test	Phase2	test/STIM_004.jpg
1154.968	1.039	1	test	Phase2	test/STIM_005.jpg
1159.637	0.624	1	test	Phase2	test/STIM_005.jpg
1164.307	0.851	1	test	Phase2	test/STIM_005.jpg
1168.723	1.126	1	test	Phase2	test/STIM_006.jpg
1172.625	0.538	1	test	Phase2	test/STIM_006.jpg
1175.864	1.076	1	test	Phase2	test/STIM_006.jpg
1179.689	0.687	1	test	Phase2	test/STIM_007.jpg
1182.863	0.807	1	test	Phase2	test/STIM_007.jpg
1186.588	0.882	1	test	Phase2	test/STIM_007.jpg
1190.297	0.799	1	test	Phase2	test/STIM_008.jpg
1194.989	0.554	1	test	Phase2	test/STIM_008.jpg
1198.566	1.128	1	test	Phase2	test/STIM_008.jpg
1203.289	1.184	1	test	Phase2	test/STIM_009.jpg
1208.481	1.02	1	test	Phase2	test/STIM_009.jpg
1213.498	0.792	1	test	Phase2	test/STIM_009.jpg
1216.565	0.879	1	test	Phase2	test/STIM_010.jpg
1220.719	0.959	1	test	Phase2	test/STIM_010.jpg
1223.813	0.948	1	test	Phase2	test/STIM_010.jpg
1228.692	0.731	1	test	Phase2	test/STIM_011.jpg
1233.384	0.983	1	test	Phase2	test/STIM_011.jpg
1237.334	1.119	0	test	Phase2	test/STIM_011.jpg
1241.975	0.634	1	test	Phase2	test/STIM_012.jpg
1245.239	0.738	1	test	Phase2	test/STIM_012.jpg
1249.897	0.659	1	test	Phase2	test/STIM_012.jpg
1254.423	0.9	1	test	Phase2	test/STIM_013.jpg
1257.515	0.768	1	test	Phase2	test/STIM_013.jpg
1261.72	0.546	1	test	Phase2	test/STIM_013.jpg
1265.06	1.124	0	test	Phase2	test/STIM_014.jpg
1268.89	0.942	1	test	Phase2	test/STIM_014.jpg
1273.256	0.964	1	test	Phase2	test/STIM_014.jpg
1276.528	0.501	1	test	Phase2	test/STIM_015.jpg
1279.434	0.69	1	test	Phase2	test/STIM_015.jpg
1284.026	0.971	1	test	Phase2	test/STIM_015.jpg
1287.987	0.994	1	test	Phase2	test/STIM_016.jpg
1292.627	0.836	1	test	Phase2	test/STIM_016.jpg
1296.358	0.69	0	test	Phase2	test/STIM_016.jpg
1300.461	0.728	1	test	Phase2	test/STIM_017.jpg
1304.05	0.599	1	test	Phase2	test/STIM_017.jpg
1306.972	1.264	1	test	Phase2	test/STIM_017.jpg
1311.901	0.576	1	test	Phase2	test/STIM_018.jpg
1315.274	0.982	1	test	Phase2	test/STIM_018.jpg
1319.138	0.901	1	test	Phase2	test/STIM_018.jpg
1323.848	0.6	1	test	Phase2	test/STIM_019.jpg
1327.872	0.545	1	test	Phase2	test/STIM_019.jpg
1332.034	0.807	1	test	Phase2	test/STIM_019.jpg
1336.326	1.162	1	test	Phase2	test/STIM_020.jpg
1341.112	0.65	1	test	Phase2	test/STIM_020.jpg
1343.975	1.093	1	test	Phase2	test/STIM_020.jpg
1348.647	1.189	1	test	Phase2	test/STIM_021.jpg
1353.31	0.6	1	test	Phase2	test/STIM_021.jpg
1357.565	0.526	1	test	Phase2	test/STIM_021.jpg
1360.8	1.096	0	test	Phase2	test/STIM_022.jpg
1364.822	0.661	1	test	Phase2	test/STIM_022.jpg
1368.727	0.884	1	test	Phase2	test/STIM_022.jpg
1372.949	0.927	1	test	Phase2	test/STIM_023.jpg
1376.694	0.645	1	test	Phase2	test/STIM_023.jpg
1381.191	0.839	0	test	Phase2	test/STIM_023.jpg
1384.693	1.226	1	test	Phase2	test/STIM_024.jpg
1389.824	0.627	1	test	Phase2	test/STIM_024.jpg
1393.365	1.13	1	test	Phase2	test/STIM_024.jpg
1398.259	1.15	1	test	Phase2	test/STIM_025.jpg
1403.4	0.945	1	test	Phase2	test/STIM_025.jpg
1408.173	0.828	1	test	Phase2	test/STIM_025.jpg
1412.319	0.537	1	test	Phase2	test/STIM_026.jpg
1416.539	1.021	1	test	Phase2	test/STIM_026.jpg
1420.038	0.534	1	test	Phase2	test/STIM_026.jpg
1424.471	1.174	1	test	Phase2	test/STIM_027.jpg
1429.319	0.836	1	test	Phase2	test/STIM_027.jpg
1433.728	0.778	1	test	Phase2	test/STIM_027.jpg
1437.647	0.969	1	test	Phase2	test/STIM_028.jpg
1441.462	0.948	1	test	Phase2	test/STIM_028.jpg
1445.46	0.775	1	test	Phase2	test/STIM_028.jpg
1449.351	1.066	1	test	Phase2	test/STIM_029.jpg
1454.484	1.209	1	test	Phase2	test/STIM_029.jpg
1458.909	1.178	1	test	Phase2	test/STIM_029.jpg
1464.164	1.001	1	study	Phase3	study/STIM_000.jpg
1467.796	1.102	1	study	Phase3	study/STIM_000.jpg
1471.278	0.816	1	study	Phase3	study/STIM_000.jpg
1474.541	0.536	1	study	Phase3	study/STIM_001.jpg
1478.964	0.922	1	study	Phase3	study/STIM_001.jpg
1482.352	0.536	1	study	Phase3	study/STIM_001.jpg
1485.981	0.62	1	study	Phase3	study/STIM_002.jpg
1490.174	0.64	1	study	Phase3	study/STIM_002.jpg
1493.338	0.88	1	study	Phase3	study/STIM_002.jpg
1496.956	0.982	1	study	Phase3	study/STIM_003.jpg
1500.94	0.912	1	study	Phase3	study/STIM_003.jpg
1504.936	0.625	1	study	Phase3	study/STIM_003.jpg
1509.245	0.598	1	study	Phase3	study/STIM_004.jpg
1512.192	0.975	1	study	Phase3	study/STIM_004.jpg
1516.954	0.659	1	study	Phase3	study/STIM_004.jpg
1521.391	1.076	1	study	Phase3	study/STIM_005.jpg
1526.458	0.62	1	study	Phase3	study/STIM_005.jpg
1530.913	1.029	1	study	Phase3	study/STIM_005.jpg
1535.105	0.748	1	study	Phase3	study/STIM_006.jpg
1538.364	1.066	1	study	Phase3	study/STIM_006.jpg
1541.628	0.756	1	study	Phase3	study/STIM_006.jpg
1544.625	0.917	1	study	Phase3	study/STIM_007.jpg
1547.896	0.799	1	study	Phase3	study/STIM_007.jpg
1551.494	0.628	1	study	Phase3	study/STIM_007.jpg
1554.356	1.122	1	study	Phase3	study/STIM_008.jpg
1559.315	1.13	1	study	Phase3	study/STIM_008.jpg
1563.418	0.573	1	study	Phase3	study/STIM_008.jpg
1566.331	0.705	1	study	Phase3	study/STIM_009.jpg
1569.732	0.798	1	study	Phase3	study/STIM_009.jpg
1573.932	0.839	1	study	Phase3	study/STIM_009.jpg
1577.252	0.618	1	study	Phase3	study/STIM_010.jpg
1581.153	0.666	1	study	Phase3	study/STIM_010.jpg
1584.952	0.965	1	study	Phase3	study/STIM_010.jpg
1588.917	0.894	1	study	Phase3	study/STIM_011.jpg
1592.333	0.49	1	study	Phase3	study/STIM_011.jpg
1596.857	0.549	1	study	Phase3	study/STIM_011.jpg
1600.561	1.211	1	study	Phase3	study/STIM_012.jpg
1605.297	0.856	1	study	Phase3	study/STIM_012.jpg
1608.643	0.901	1	study	Phase3	study/STIM_012.jpg
1612.637	0.965	1	study	Phase3	study/STIM_013.jpg
1616.535	0.862	1	study	Phase3	study/STIM_013.jpg
1620.048	0.681	1	study	Phase3	study/STIM_013.jpg
1624.558	0.764	1	study	Phase3	study/STIM_014.jpg
1629.261	1.187	1	study	Phase3	study/STIM_014.jpg
1633.796	0.655	1	study	Phase3	study/STIM_014.jpg
1636.542	0.939	0	study	Phase3	study/STIM_015.jpg
1640.741	0.573	1	study	Phase3	study/STIM_015.jpg
1644.669	0.653	1	study	Phase3	study/STIM_015.jpg
1647.37	0.618	1	study	Phase3	study/STIM_016.jpg
1651.827	1.004	1	study	Phase3	study/STIM_016.jpg
1656.465	0.873	1	study	Phase3	study/STIM_016.jpg
1660.732	0.864	1	study	Phase3	study/STIM_017.jpg
1663.913	0.778	1	study	Phase3	study/STIM_017.jpg
1668.337	0.828	1	study	Phase3	study/STIM_017.jpg
1672.309	0.562	1	study	Phase3	study/STIM_018.jpg
1676.168	0.939	1	study	Phase3	study/STIM_018.jpg
1680.303	1.073	1	study	Phase3	study/STIM_018.jpg
1684.662	0.648	1	study	Phase3	study/STIM_019.jpg
1689.202	0.547	1	study	Phase3	study/STIM_019.jpg
1693.768	1.163	1	study	Phase3	study/STIM_019.jpg
1697.485	0.866	1	study	Phase3	study/STIM_020.jpg
1702.063	0.62	1	study	Phase3	study/STIM_020.jpg
1706.65	1.165	1	study	Phase3	study/STIM_020.jpg
1711.006	0.639	1	study	Phase3	study/STIM_021.jpg
1714.03	0.562	1	study	Phase3	study/STIM_021.jpg
1717.925	0.937	1	study	Phase3	study/STIM_021.jpg
1722.408	0.596	1	study	Phase3	study/STIM_022.jpg
1725.526	0.668	1	study	Phase3	study/STIM_022.jpg
1728.9	0.731	1	study	Phase3	study/STIM_022.jpg
1733.621	0.663	1	study	Phase3	study/STIM_023.jpg
1737.487	0.479	0	study	Phase3	study/STIM_023.jpg
1741.947	0.92	1	study	Phase3	study/STIM_023.jpg
1745.719	0.867	1	study	Phase3	study/STIM_024.jpg
1748.926	0.518	1	study	Phase3	study/STIM_024.jpg
1752.623	1.006	1	study	Phase3	study/STIM_024.jpg
1756.709	0.929	1	study	Phase3	study/STIM_025.jpg
1761.098	0.999	1	study	Phase3	study/STIM_025.jpg
1764.257	0.912	1	study	Phase3	study/STIM_025.jpg
1767.333	0.769	1	study	Phase3	study/STIM_026.jpg
1771.897	0.648	1	study	Phase3	study/STIM_026.jpg
1774.618	0.863	0	study	Phase3	study/STIM_026.jpg
1777.737	0.949	1	study	Phase3	study/STIM_027.jpg
1780.945	0.536	1	study	Phase3	study/STIM_027.jpg
1783.945	0.54	1	study	Phase3	study/STIM_027.jpg
1788.241	0.447	1	study	Phase3	study/STIM_028.jpg
1792.427	0.908	1	study	Phase3	study/STIM_028.jpg
1796.229	0.537	1	study	Phase3	study/STIM_028.jpg
1799.252	0.949	1	study	Phase3	study/STIM_029.jpg
1802.731	0.755	1	study	Phase3	study/STIM_029.jpg
1805.933	0.598	1	study	Phase3	study/STIM_029.jpg
1810.446	1.076	1	test	Phase3	test/STIM_000.jpg
1815.443	0.848	1	test	Phase3	test/STIM_000.jpg
1819.647	0.995	0	test	Phase3	test/STIM_000.jpg
1823.515	0.69	1	test	Phase3	test/STIM_001.jpg
1827.49	0.841	1	test	Phase3	test/STIM_001.jpg
1830.653	0.733	1	test	Phase3	test/STIM_001.jpg
1834.826	0.777	1	test	Phase3	test/STIM_002.jpg
1838.777	0.938	1	test	Phase3	test/STIM_002.jpg
1843.667	0.9	1	test	Phase3	test/STIM_002.jpg
1847.14	0.764	1	test	Phase3	test/STIM_003.jpg
1851.727	0.752	1	test	Phase3	test/STIM_003.jpg
1856.297	0.84	1	test	Phase3	test/STIM_003.jpg
1860.198	1.155	1	test	Phase3	test/STIM_004.jpg
1864.616	0.639	1	test	Phase3	test/STIM_004.jpg
1869.064	1.092	1	test	Phase3	test/STIM_004.jpg
1872.991	1.114	1	test	Phase3	test/STIM_005.jpg
1877.923	1.13	1	test	Phase3	test/STIM_005.jpg
1882.925	1.038	1	test	Phase3	test/STIM_005.jpg
1886.236	0.504	1	test	Phase3	test/STIM_006.jpg
1889.579	0.819	1	test	Phase3	test/STIM_006.jpg
1892.87	1.071	1	test	Phase3	test/STIM_006.jpg
1897.759	0.641	1	test	Phase3	test/STIM_007.jpg
1901.23	1.113	1	test	Phase3	test/STIM_007.jpg
1905.751	0.983	1	test	Phase3	test/STIM_007.jpg
1909.791	1.098	1	test	Phase3	test/STIM_008.jpg
1914.367	0.976	1	test	Phase3	test/STIM_008.jpg
1918.732	0.725	1	test	Phase3	test/STIM_008.jpg
1923.422	0.817	1	test	Phase3	test/STIM_009.jpg
1927.254	0.766	1	test	Phase3	test/STIM_009.jpg
1930.761	0.554	1	test	Phase3	test/STIM_009.jpg
1935.316	0.902	0	test	Phase3	test/STIM_010.jpg
1939.462	0.853	1	test	Phase3	test/STIM_010.jpg
1943.453	1.152	1	test	Phase3	test/STIM_010.jpg
1948.135	0.692	1	test	Phase3	test/STIM_011.jpg
1952.079	0.887	1	test	Phase3	test/STIM_011.jpg
1955.398	0.552	1	test	Phase3	test/STIM_011.jpg
1958.46	0.797	1	test	Phase3	test/STIM_012.jpg
1963.009	1.162	1	test	Phase3	test/STIM_012.jpg
1966.745	0.933	1	test	Phase3	test/STIM_012.jpg
1971.0	0.554	1	test	Phase3	test/STIM_013.jpg
1974.899	1.009	1	test	Phase3	test/STIM_013.jpg
1979.539	0.703	1	test	Phase3	test/STIM_013.jpg
1983.837	1.103	1	test	Phase3	test/STIM_014.jpg
1988.512	0.63	1	test	Phase3	test/STIM_014.jpg
1992.71	1.114	0	test	Phase3	test/STIM_014.jpg
1997.702	0.846	1	test	Phase3	test/STIM_015.jpg
2001.54	0.758	1	test	Phase3	test/STIM_015.jpg
2005.682	1.156	1	test	Phase3	test/STIM_015.jpg
2010.072	0.673	1	test	Phase3	test/STIM_016.jpg
2013.313	0.973	1	test	Phase3	test/STIM_016.jpg
2017.322	0.891	1	test	Phase3	test/STIM_016.jpg
2021.932	0.952	1	test	Phase3	test/STIM_017.jpg
2026.804	0.959	1	test	Phase3	test/STIM_017.jpg
2031.641	0.978	1	test	Phase3	test/STIM_017.jpg
2036.658	0.666	1	test	Phase3	test/STIM_018.jpg
2040.958	1.092	1	test	Phase3	test/STIM_018.jpg
2045.486	0.957	1	test	Phase3	test/STIM_018.jpg
2050.522	0.633	1	test	Phase3	test/STIM_019.jpg
2053.657	1.022	1	test	Phase3	test/STIM_019.jpg
2057.083	0.753	1	test	Phase3	test/STIM_019.jpg
2060.821	1.13	1	test	Phase3	test/STIM_020.jpg
2064.404	1.107	1	test	Phase3	test/STIM_020.jpg
2068.249	0.808	1	test	Phase3	test/STIM_020.jpg
2071.283	0.792	1	test	Phase3	test/STIM_021.jpg
2075.548	0.845	0	test	Phase3	test/STIM_021.jpg
2080.214	0.681	1	test	Phase3	test/STIM_021.jpg
2083.214	0.965	1	test	Phase3	test/STIM_022.jpg
2087.71	1.003	1	test	Phase3	test/STIM_022.jpg
2091.305	0.774	1	test	Phase3	test/STIM_022.jpg
2094.391	1.079	1	test	Phase3	test/STIM_023.jpg
2098.687	1.26	1	test	Phase3	test/STIM_023.jpg
2103.463	1.214	1	test	Phase3	test/STIM_023.jpg
2106.972	1.141	0	test	Phase3	test/STIM_024.jpg
2112.057	0.713	1	test	Phase3	test/STIM_024.jpg
2116.665	0.649	1	test	Phase3	test/STIM_024.jpg
2120.72	1.12	1	test	Phase3	test/STIM_025.jpg
2125.569	1.213	1	test	Phase3	test/STIM_025.jpg
2129.746	0.912	1	test	Phase3	test/STIM_025.jpg
2134.568	0.817	1	test	Phase3	test/STIM_026.jpg
2137.583	0.73	1	test	Phase3	test/STIM_026.jpg
2141.474	0.96	1	test	Phase3	test/STIM_026.jpg
2144.696	0.992	1	test	Phase3	test/STIM_027.jpg
2148.756	0.982	1	test	Phase3	test/STIM_027.jpg
2152.472	0.57	0	test	Phase3	test/STIM_027.jpg
2155.207	0.69	1	test	Phase3	test/STIM_028.jpg
2158.545	1.094	1	test	Phase3	test/STIM_028.jpg
2162.98	0.878	1	test	Phase3	test/STIM_028.jpg
2167.593	0.638	0	test	Phase3	test/STIM_029.jpg
2171.359	0.907	1	test	Phase3	test/STIM_029.jpg
2175.319	0.863	1	test	Phase3	test/STIM_029.jpg
