onset	duration	response_time_ms	trial_type	learning_stage	stimulus	response_port
0.0	0.904	904.4	incongruent	Block1	incongruent/STIM_000.jpg	100
4.955	0.76	759.7	incongruent	Block1	incongruent/STIM_000.jpg	99
9.539	0.652	651.5	incongruent	Block1	incongruent/STIM_000.jpg	99
12.381	0.943	943.1	incongruent	Block1	incongruent/STIM_000.jpg	99
17.416	0.502	502.3	incongruent	Block1	incongruent/STIM_000.jpg	99
20.999	1.29	1289.5	incongruent	Block1	incongruent/STIM_001.jpg	99
25.232	1.154	1154.1	incongruent	Block1	incongruent/STIM_001.jpg	99
29.282	0.585	584.7	incongruent	Block1	incongruent/STIM_001.jpg	99
33.222	0.841	840.8	incongruent	Block1	incongruent/STIM_001.jpg	100
36.65	0.654	653.9	incongruent	Block1	incongruent/STIM_001.jpg	100
40.053	0.64	639.8	incongruent	Block1	incongruent/STIM_002.jpg	100
43.416	1.264	1264.1	incongruent	Block1	incongruent/STIM_002.jpg	99
47.732	0.826	826.4	incongruent	Block1	incongruent/STIM_002.jpg	99
50.918	0.755	755.2	incongruent	Block1	incongruent/STIM_002.jpg	100
54.293	0.556	555.9	incongruent	Block1	incongruent/STIM_002.jpg	99
57.345	1.188	1187.5	incongruent	Block1	incongruent/STIM_003.jpg	99
60.967	0.597	597.0	incongruent	Block1	incongruent/STIM_003.jpg	99
64.456	0.804	803.9	incongruent	Block1	incongruent/STIM_003.jpg	99
67.521	1.114	1113.7	incongruent	Block1	incongruent/STIM_003.jpg	99
71.864	0.958	958.0	incongruent	Block1	incongruent/STIM_003.jpg	99
76.482	0.671	670.8	incongruent	Block1	incongruent/STIM_004.jpg	99
79.942	0.815	815.4	incongruent	Block1	incongruent/STIM_004.jpg	99
83.113	0.686	686.5	incongruent	Block1	incongruent/STIM_004.jpg	99
87.034	1.064	1063.6	incongruent	Block1	incongruent/STIM_004.jpg	100
91.741	0.532	532.4	incongruent	Block1	incongruent/STIM_004.jpg	100
96.14	1.099	1099.1	incongruent	Block1	incongruent/STIM_005.jpg	100
99.835	0.912	911.7	incongruent	Block1	incongruent/STIM_005.jpg	99
104.804	0.848	847.5	incongruent	Block1	incongruent/STIM_005.jpg	100
108.508	0.838	838.1	incongruent	Block1	incongruent/STIM_005.jpg	99
113.282	1.06	1059.8	incongruent	Block1	incongruent/STIM_005.jpg	100
117.373	1.233	1233.0	incongruent	Block1	incongruent/STIM_006.jpg	100
122.48	0.867	867.3	incongruent	Block1	incongruent/STIM_006.jpg	99
126.3	0.678	678.2	incongruent	Block1	incongruent/STIM_006.jpg	100
130.631	0.934	934.4	incongruent	Block1	incongruent/STIM_006.jpg	100
134.16	0.614	613.9	incongruent	Block1	incongruent/STIM_006.jpg	99
138.126	0.789	789.0	incongruent	Block1	incongruent/STIM_007.jpg	100
142.636	0.904	904.4	incongruent	Block1	incongruent/STIM_007.jpg	100
147.552	0.935	935.0	incongruent	Block1	incongruent/STIM_007.jpg	100
152.012	1.035	1035.3	incongruent	Block1	incongruent/STIM_007.jpg	100
156.503	0.545	545.1	incongruent	Block1	incongruent/STIM_007.jpg	99
160.763	0.748	748.0	incongruent	Block1	incongruent/STIM_008.jpg	99
165.079	1.217	1217.4	incongruent	Block1	incongruent/STIM_008.jpg	99
168.975	1.16	1160.0	incongruent	Block1	incongruent/STIM_008.jpg	99
174.051	0.91	910.5	incongruent	Block1	incongruent/STIM_008.jpg	99
178.299	0.663	662.6	incongruent	Block1	incongruent/STIM_008.jpg	99
181.971	0.792	791.6	incongruent	Block1	incongruent/STIM_009.jpg	99
186.804	1.158	1157.9	incongruent	Block1	incongruent/STIM_009.jpg	99
191.702	0.673	673.0	incongruent	Block1	incongruent/STIM_009.jpg	99
195.241	1.105	1104.6	incongruent	Block1	incongruent/STIM_009.jpg	100
198.729	0.776	776.3	incongruent	Block1	incongruent/STIM_009.jpg	99
202.001	1.161	1160.8	incongruent	Block1	incongruent/STIM_010.jpg	99
206.498	1.054	1054.3	incongruent	Block1	incongruent/STIM_010.jpg	100
210.614	0.594	593.8	incongruent	Block1	incongruent/STIM_010.jpg	99
214.733	0.87	869.9	incongruent	Block1	incongruent/STIM_010.jpg	99
219.169	0.857	856.7	incongruent	Block1	incongruent/STIM_010.jpg	99
222.895	0.74	740.5	incongruent	Block1	incongruent/STIM_011.jpg	100
226.934	1.249	1248.8	incongruent	Block1	incongruent/STIM_011.jpg	99
230.63	1.016	1016.4	incongruent	Block1	incongruent/STIM_011.jpg	100
234.611	0.859	858.6	incongruent	Block1	incongruent/STIM_011.jpg	99
237.791	0.631	631.3	incongruent	Block1	incongruent/STIM_011.jpg	99
242.406	1.257	1256.7	incongruent	Block1	incongruent/STIM_012.jpg	99
247.76	0.862	861.6	incongruent	Block1	incongruent/STIM_012.jpg	100
251.626	0.746	746.0	incongruent	Block1	incongruent/STIM_012.jpg	99
255.793	0.675	674.9	incongruent	Block1	incongruent/STIM_012.jpg	99
258.778	0.777	777.2	incongruent	Block1	incongruent/STIM_012.jpg	99
263.267	1.132	1132.0	incongruent	Block1	incongruent/STIM_013.jpg	99
268.516	0.862	862.3	incongruent	Block1	incongruent/STIM_013.jpg	100
272.483	0.612	612.0	incongruent	Block1	incongruent/STIM_013.jpg	99
275.263	0.731	731.4	incongruent	Block1	incongruent/STIM_013.jpg	99
278.358	0.836	836.1	incongruent	Block1	incongruent/STIM_013.jpg	100
282.79	0.688	687.7	incongruent	Block1	incongruent/STIM_014.jpg	99
286.842	0.614	613.7	incongruent	Block1	incongruent/STIM_014.jpg	99
289.964	1.161	1161.2	incongruent	Block1	incongruent/STIM_014.jpg	99
294.364	1.105	1104.7	incongruent	Block1	incongruent/STIM_014.jpg	100
298.472	0.598	598.2	incongruent	Block1	incongruent/STIM_014.jpg	100
301.274	1.009	1009.0	incongruent	Block1	incongruent/STIM_015.jpg	99
305.898	0.658	657.9	incongruent	Block1	incongruent/STIM_015.jpg	100
310.627	0.781	780.8	incongruent	Block1	incongruent/STIM_015.jpg	99
313.945	0.696	696.1	incongruent	Block1	incongruent/STIM_015.jpg	100
317.32	0.559	559.1	incongruent	Block1	incongruent/STIM_015.jpg	100
321.439	1.273	1273.2	incongruent	Block1	incongruent/STIM_016.jpg	99
325.296	1.177	1177.3	incongruent	Block1	incongruent/STIM_016.jpg	100
328.637	0.851	851.3	incongruent	Block1	incongruent/STIM_016.jpg	99
333.267	1.012	1011.9	incongruent	Block1	incongruent/STIM_016.jpg	99
337.973	0.859	859.2	incongruent	Block1	incongruent/STIM_016.jpg	99
341.275	1.119	1119.0	incongruent	Block1	incongruent/STIM_017.jpg	100
344.984	1.002	1002.2	incongruent	Block1	incongruent/STIM_017.jpg	100
348.166	0.985	985.4	incongruent	Block1	incongruent/STIM_017.jpg	100
352.505	0.672	672.5	incongruent	Block1	incongruent/STIM_017.jpg	99
356.103	0.76	759.8	incongruent	Block1	incongruent/STIM_017.jpg	99
359.876	0.717	717.2	incongruent	Block1	incongruent/STIM_018.jpg	100
363.29	0.68	679.8	incongruent	Block1	incongruent/STIM_018.jpg	100
366.207	0.776	775.5	incongruent	Block1	incongruent/STIM_018.jpg	99
370.521	0.63	629.5	incongruent	Block1	incongruent/STIM_018.jpg	100
373.828	0.764	763.6	incongruent	Block1	incongruent/STIM_018.jpg	100
378.333	0.878	877.9	incongruent	Block1	incongruent/STIM_019.jpg	100
381.427	0.981	980.7	incongruent	Block1	incongruent/STIM_019.jpg	100
386.141	0.866	866.2	incongruent	Block1	incongruent/STIM_019.jpg	100
389.929	0.999	998.9	incongruent	Block1	incongruent/STIM_019.jpg	99
394.826	0.657	656.7	incongruent	Block1	incongruent/STIM_019.jpg	100
398.844	1.245	1244.6	incongruent	Block1	incongruent/STIM_020.jpg	100
403.023	0.877	876.6	incongruent	Block1	incongruent/STIM_020.jpg	99
407.838	0.993	993.3	incongruent	Block1	incongruent/STIM_020.jpg	100
411.206	0.605	604.8	incongruent	Block1	incongruent/STIM_020.jpg	99
414.834	0.871	871.2	incongruent	Block1	incongruent/STIM_020.jpg	100
418.22	0.859	859.2	incongruent	Block1	incongruent/STIM_021.jpg	100
421.523	0.956	955.5	incongruent	Block1	incongruent/STIM_021.jpg	99
425.195	0.712	712.2	incongruent	Block1	incongruent/STIM_021.jpg	99
429.328	0.964	964.1	incongruent	Block1	incongruent/STIM_021.jpg	99
433.701	0.597	597.0	incongruent	Block1	incongruent/STIM_021.jpg	100
438.204	0.944	943.9	incongruent	Block1	incongruent/STIM_022.jpg	99
441.482	0.62	620.3	incongruent	Block1	incongruent/STIM_022.jpg	100
445.335	0.841	840.8	incongruent	Block1	incongruent/STIM_022.jpg	99
448.907	0.822	822.2	incongruent	Block1	incongruent/STIM_022.jpg	100
453.121	0.685	685.0	incongruent	Block1	incongruent/STIM_022.jpg	99
456.167	1.27	1270.5	incongruent	Block1	incongruent/STIM_023.jpg	99
460.198	1.261	1260.9	incongruent	Block1	incongruent/STIM_023.jpg	99
465.419	1.013	1012.8	incongruent	Block1	incongruent/STIM_023.jpg	100
470.451	0.696	696.2	incongruent	Block1	incongruent/STIM_023.jpg	100
475.223	1.051	1050.8	incongruent	Block1	incongruent/STIM_023.jpg	99
479.816	0.947	946.7	incongruent	Block1	incongruent/STIM_024.jpg	99
483.884	0.851	851.4	incongruent	Block1	incongruent/STIM_024.jpg	99
488.252	0.811	811.2	incongruent	Block1	incongruent/STIM_024.jpg	100
492.252	0.909	909.3	incongruent	Block1	incongruent/STIM_024.jpg	100
495.79	0.884	883.5	incongruent	Block1	incongruent/STIM_024.jpg	99
499.251	0.99	990.2	incongruent	Block1	incongruent/STIM_025.jpg	100
503.445	0.682	682.4	incongruent	Block1	incongruent/STIM_025.jpg	100
506.393	1.118	1118.3	incongruent	Block1	incongruent/STIM_025.jpg	99
510.314	1.004	1004.1	incongruent	Block1	incongruent/STIM_025.jpg	100
513.726	0.808	807.5	incongruent	Block1	incongruent/STIM_025.jpg	100
517.427	1.147	1146.6	incongruent	Block1	incongruent/STIM_026.jpg	99
521.97	1.019	1018.7	incongruent	Block1	incongruent/STIM_026.jpg	99
525.395	1.067	1067.2	incongruent	Block1	incongruent/STIM_026.jpg	99
528.758	0.591	591.3	incongruent	Block1	incongruent/STIM_026.jpg	100
532.05	0.728	728.1	incongruent	Block1	incongruent/STIM_026.jpg	100
535.366	1.159	1159.0	incongruent	Block1	incongruent/STIM_027.jpg	99
540.093	1.199	1199.0	incongruent	Block1	incongruent/STIM_027.jpg	99
543.687	0.663	662.7	incongruent	Block1	incongruent/STIM_027.jpg	99
546.829	1.076	1075.9	incongruent	Block1	incongruent/STIM_027.jpg	99
551.929	0.756	756.1	incongruent	Block1	incongruent/STIM_027.jpg	100
555.373	1.031	1030.8	incongruent	Block1	incongruent/STIM_028.jpg	100
559.332	0.611	610.7	incongruent	Block1	incongruent/STIM_028.jpg	100
562.458	0.98	980.2	incongruent	Block1	incongruent/STIM_028.jpg	100
567.433	1.002	1002.1	incongruent	Block1	incongruent/STIM_028.jpg	100
572.321	0.824	823.7	incongruent	Block1	incongruent/STIM_028.jpg	100
576.34	0.986	985.9	incongruent	Block1	incongruent/STIM_029.jpg	99
579.488	1.241	1241.2	incongruent	Block1	incongruent/STIM_029.jpg	100
584.25	1.204	1203.5	incongruent	Block1	incongruent/STIM_029.jpg	99
588.279	0.791	790.7	incongruent	Block1	incongruent/STIM_029.jpg	99
592.158	0.796	796.4	incongruent	Block1	incongruent/STIM_029.jpg	100
595.789	0.688	687.6	congruent	Block1	congruent/STIM_000.jpg	99
600.101	0.474	473.6	congruent	Block1	congruent/STIM_000.jpg	100
603.587	0.535	534.6	congruent	Block1	congruent/STIM_000.jpg	99
607.324	0.628	627.9	congruent	Block1	congruent/STIM_000.jpg	100
610.471	0.705	704.6	congruent	Block1	congruent/STIM_000.jpg	100
614.439	0.702	701.7	congruent	Block1	congruent/STIM_001.jpg	100
617.554	0.714	714.3	congruent	Block1	congruent/STIM_001.jpg	100
620.604	0.55	550.1	congruent	Block1	congruent/STIM_001.jpg	100
623.712	0.638	638.4	congruent	Block1	congruent/STIM_001.jpg	100
627.716	0.636	635.7	congruent	Block1	congruent/STIM_001.jpg	100
631.16	0.635	635.0	congruent	Block1	congruent/STIM_002.jpg	100
635.034	0.698	698.3	congruent	Block1	congruent/STIM_002.jpg	99
638.683	0.801	800.6	congruent	Block1	congruent/STIM_002.jpg	99
643.574	0.744	743.9	congruent	Block1	congruent/STIM_002.jpg	99
647.044	0.656	656.5	congruent	Block1	congruent/STIM_002.jpg	100
651.738	0.594	593.5	congruent	Block1	congruent/STIM_003.jpg	99
656.164	0.654	654.0	congruent	Block1	congruent/STIM_003.jpg	99
660.057	0.549	549.2	congruent	Block1	congruent/STIM_003.jpg	100
663.798	0.748	747.8	congruent	Block1	congruent/STIM_003.jpg	100
668.226	0.622	621.9	congruent	Block1	congruent/STIM_003.jpg	99
672.056	0.755	754.6	congruent	Block1	congruent/STIM_004.jpg	99
676.271	0.575	575.0	congruent	Block1	congruent/STIM_004.jpg	99
680.527	0.576	575.5	congruent	Block1	congruent/STIM_004.jpg	99
683.797	0.688	687.6	congruent	Block1	congruent/STIM_004.jpg	99
687.356	0.652	651.6	congruent	Block1	congruent/STIM_004.jpg	99
691.114	0.796	795.5	congruent	Block1	congruent/STIM_005.jpg	100
695.372	0.659	659.3	congruent	Block1	congruent/STIM_005.jpg	100
698.868	0.709	708.6	congruent	Block1	congruent/STIM_005.jpg	100
702.615	0.623	622.9	congruent	Block1	congruent/STIM_005.jpg	99
706.256	0.623	623.3	congruent	Block1	congruent/STIM_005.jpg	99
710.147	0.778	778.5	congruent	Block1	congruent/STIM_006.jpg	99
713.896	0.587	586.9	congruent	Block1	congruent/STIM_006.jpg	100
716.898	0.71	710.3	congruent	Block1	congruent/STIM_006.jpg	99
720.381	0.523	522.9	congruent	Block1	congruent/STIM_006.jpg	99
724.018	0.464	464.3	congruent	Block1	congruent/STIM_006.jpg	100
728.006	0.611	610.9	congruent	Block1	congruent/STIM_007.jpg	100
731.167	0.57	570.3	congruent	Block1	congruent/STIM_007.jpg	100
734.445	0.564	563.8	congruent	Block1	congruent/STIM_007.jpg	99
738.23	0.595	595.4	congruent	Block1	congruent/STIM_007.jpg	100
742.736	0.627	626.8	congruent	Block1	congruent/STIM_007.jpg	100
747.274	0.52	519.8	congruent	Block1	congruent/STIM_008.jpg	99
751.333	0.486	485.9	congruent	Block1	congruent/STIM_008.jpg	99
754.61	0.556	556.5	congruent	Block1	congruent/STIM_008.jpg	99
759.181	0.625	625.3	congruent	Block1	congruent/STIM_008.jpg	99
762.018	0.682	681.9	congruent	Block1	congruent/STIM_008.jpg	100
764.908	0.766	766.1	congruent	Block1	congruent/STIM_009.jpg	100
769.296	0.574	573.8	congruent	Block1	congruent/STIM_009.jpg	100
772.573	0.678	678.4	congruent	Block1	congruent/STIM_009.jpg	99
777.187	0.743	743.0	congruent	Block1	congruent/STIM_009.jpg	100
780.947	0.795	794.7	congruent	Block1	congruent/STIM_009.jpg	100
784.78	0.473	473.3	congruent	Block1	congruent/STIM_010.jpg	99
787.92	0.591	591.4	congruent	Block1	congruent/STIM_010.jpg	99
791.968	0.624	624.3	congruent	Block1	congruent/STIM_010.jpg	99
796.345	0.574	574.0	congruent	Block1	congruent/STIM_010.jpg	100
799.902	0.454	454.2	congruent	Block1	congruent/STIM_010.jpg	100
804.259	0.597	597.0	congruent	Block1	congruent/STIM_011.jpg	100
808.728	0.633	632.8	congruent	Block1	congruent/STIM_011.jpg	99
813.021	0.798	798.3	congruent	Block1	congruent/STIM_011.jpg	99
816.128	0.46	459.5	congruent	Block1	congruent/STIM_011.jpg	99
818.989	0.761	761.3	congruent	Block1	congruent/STIM_011.jpg	100
823.825	0.576	576.5	congruent	Block1	congruent/STIM_012.jpg	100
826.91	0.738	738.5	congruent	Block1	congruent/STIM_012.jpg	100
830.541	0.633	633.4	congruent	Block1	congruent/STIM_012.jpg	100
833.74	0.542	541.8	congruent	Block1	congruent/STIM_012.jpg	99
838.008	0.738	737.7	congruent	Block1	congruent/STIM_012.jpg	100
841.421	0.624	624.3	congruent	Block1	congruent/STIM_013.jpg	99
844.928	0.746	746.3	congruent	Block1	congruent/STIM_013.jpg	100
849.606	0.739	739.4	congruent	Block1	congruent/STIM_013.jpg	99
854.15	0.762	761.5	congruent	Block1	congruent/STIM_013.jpg	100
857.59	0.804	803.6	congruent	Block1	congruent/STIM_013.jpg	99
862.422	0.698	698.1	congruent	Block1	congruent/STIM_014.jpg	99
865.344	0.538	538.3	congruent	Block1	congruent/STIM_014.jpg	99
868.193	0.452	452.0	congruent	Block1	congruent/STIM_014.jpg	100
872.355	0.768	767.8	congruent	Block1	congruent/STIM_014.jpg	100
876.494	0.502	501.9	congruent	Block1	congruent/STIM_014.jpg	100
879.112	0.782	781.6	congruent	Block1	congruent/STIM_015.jpg	99
883.866	0.512	512.3	congruent	Block1	congruent/STIM_015.jpg	100
886.944	0.676	675.6	congruent	Block1	congruent/STIM_015.jpg	99
889.881	0.745	744.9	congruent	Block1	congruent/STIM_015.jpg	100
894.077	0.709	708.9	congruent	Block1	congruent/STIM_015.jpg	99
897.37	0.572	572.1	congruent	Block1	congruent/STIM_016.jpg	100
900.018	0.803	803.4	congruent	Block1	congruent/STIM_016.jpg	99
904.246	0.745	745.4	congruent	Block1	congruent/STIM_016.jpg	99
908.381	0.479	479.3	congruent	Block1	congruent/STIM_016.jpg	99
912.832	0.51	510.3	congruent	Block1	congruent/STIM_016.jpg	100
915.5	0.656	656.0	congruent	Block1	congruent/STIM_017.jpg	99
918.531	0.585	585.0	congruent	Block1	congruent/STIM_017.jpg	100
922.624	0.786	786.3	congruent	Block1	congruent/STIM_017.jpg	99
927.239	0.665	664.6	congruent	Block1	congruent/STIM_017.jpg	100
930.804	0.529	529.1	congruent	Block1	congruent/STIM_017.jpg	100
935.225	0.803	803.0	congruent	Block1	congruent/STIM_018.jpg	99
940.099	0.701	700.8	congruent	Block1	congruent/STIM_018.jpg	99
943.511	0.489	488.6	congruent	Block1	congruent/STIM_018.jpg	99
946.617	0.488	488.0	congruent	Block1	congruent/STIM_018.jpg	99
951.114	0.552	552.1	congruent	Block1	congruent/STIM_018.jpg	99
953.736	0.568	568.2	congruent	Block1	congruent/STIM_019.jpg	99
957.338	0.724	724.5	congruent	Block1	congruent/STIM_019.jpg	99
961.71	0.665	664.6	congruent	Block1	congruent/STIM_019.jpg	99
966.419	0.452	451.8	congruent	Block1	congruent/STIM_019.jpg	99
969.464	0.476	475.9	congruent	Block1	congruent/STIM_019.jpg	99
972.675	0.559	558.6	congruent	Block1	congruent/STIM_020.jpg	99
976.17	0.576	576.1	congruent	Block1	congruent/STIM_020.jpg	99
980.031	0.725	725.4	congruent	Block1	congruent/STIM_020.jpg	100
982.89	0.751	751.0	congruent	Block1	congruent/STIM_020.jpg	99
987.247	0.676	675.6	congruent	Block1	congruent/STIM_020.jpg	100
991.298	0.718	718.0	congruent	Block1	congruent/STIM_021.jpg	99
994.525	0.588	587.8	congruent	Block1	congruent/STIM_021.jpg	99
997.477	0.483	483.3	congruent	Block1	congruent/STIM_021.jpg	99
1001.7	0.525	525.1	congruent	Block1	congruent/STIM_021.jpg	100
1004.848	0.768	767.5	congruent	Block1	congruent/STIM_021.jpg	99
1008.734	0.447	447.4	congruent	Block1	congruent/STIM_022.jpg	100
1013.112	0.487	487.3	congruent	Block1	congruent/STIM_022.jpg	100
1015.897	0.464	463.7	congruent	Block1	congruent/STIM_022.jpg	99
1019.119	0.751	751.3	congruent	Block1	congruent/STIM_022.jpg	99
1023.636	0.569	569.4	congruent	Block1	congruent/STIM_022.jpg	100
1027.271	0.538	537.6	congruent	Block1	congruent/STIM_023.jpg	100
1031.728	0.69	689.6	congruent	Block1	congruent/STIM_023.jpg	99
1035.824	0.653	653.3	congruent	Block1	congruent/STIM_023.jpg	100
1039.503	0.786	785.5	congruent	Block1	congruent/STIM_023.jpg	100
1044.209	0.792	791.8	congruent	Block1	congruent/STIM_023.jpg	100
1048.12	0.672	671.8	congruent	Block1	congruent/STIM_024.jpg	100
1052.002	0.687	686.9	congruent	Block1	congruent/STIM_024.jpg	99
1056.209	0.626	626.4	congruent	Block1	congruent/STIM_024.jpg	100
1059.632	0.579	578.8	congruent	Block1	congruent/STIM_024.jpg	100
1064.127	0.654	654.3	congruent	Block1	congruent/STIM_024.jpg	100
1067.114	0.494	494.5	congruent	Block1	congruent/STIM_025.jpg	99
1071.318	0.69	689.9	congruent	Block1	congruent/STIM_025.jpg	100
1075.278	0.654	654.0	congruent	Block1	congruent/STIM_025.jpg	100
1079.054	0.755	755.2	congruent	Block1	congruent/STIM_025.jpg	99
1083.272	0.542	541.6	congruent	Block1	congruent/STIM_025.jpg	99
1086.529	0.657	657.3	congruent	Block1	congruent/STIM_026.jpg	99
1090.881	0.717	717.2	congruent	Block1	congruent/STIM_026.jpg	100
1095.353	0.513	513.2	congruent	Block1	congruent/STIM_026.jpg	99
1098.174	0.453	453.2	congruent	Block1	congruent/STIM_026.jpg	99
1101.869	0.497	496.8	congruent	Block1	congruent/STIM_026.jpg	100
1104.969	0.779	779.3	congruent	Block1	congruent/STIM_027.jpg	99
1109.353	0.764	763.7	congruent	Block1	congruent/STIM_027.jpg	100
1113.928	0.771	771.2	congruent	Block1	congruent/STIM_027.jpg	100
1116.987	0.58	580.3	congruent	Block1	congruent/STIM_027.jpg	100
1120.305	0.469	468.7	congruent	Block1	congruent/STIM_027.jpg	99
1122.983	0.679	678.7	congruent	Block1	congruent/STIM_028.jpg	100
1126.386	0.535	535.1	congruent	Block1	congruent/STIM_028.jpg	100
1130.565	0.725	724.6	congruent	Block1	congruent/STIM_028.jpg	99
1133.785	0.522	522.1	congruent	Block1	congruent/STIM_028.jpg	99
1137.3	0.632	632.1	congruent	Block1	congruent/STIM_028.jpg	100
1141.963	0.735	735.2	congruent	Block1	congruent/STIM_029.jpg	100
1145.578	0.722	721.6	congruent	Block1	congruent/STIM_029.jpg	100
1148.965	0.506	506.1	congruent	Block1	congruent/STIM_029.jpg	100
1153.178	0.655	655.3	congruent	Block1	congruent/STIM_029.jpg	99
1156.485	0.796	796.3	congruent	Block1	congruent/STIM_029.jpg	99
1159.854	0.85	850.5	incongruent	Block2	incongruent/STIM_000.jpg	100
1164.352	0.791	791.0	incongruent	Block2	incongruent/STIM_000.jpg	99
1168.256	0.704	703.7	incongruent	Block2	incongruent/STIM_000.jpg	99
1171.674	0.909	908.7	incongruent	Block2	incongruent/STIM_000.jpg	99
1175.039	0.534	534.4	incongruent	Block2	incongruent/STIM_000.jpg	100
1178.651	0.776	775.7	incongruent	Block2	incongruent/STIM_001.jpg	99
1183.494	0.852	851.7	incongruent	Block2	incongruent/STIM_001.jpg	100
1188.433	0.597	597.2	incongruent	Block2	incongruent/STIM_001.jpg	99
1191.738	0.766	765.5	incongruent	Block2	incongruent/STIM_001.jpg	100
1194.798	0.692	692.1	incongruent	Block2	incongruent/STIM_001.jpg	99
1199.174	0.797	796.9	incongruent	Block2	incongruent/STIM_002.jpg	99
1203.097	0.526	525.7	incongruent	Block2	incongruent/STIM_002.jpg	99
1207.089	0.741	740.8	incongruent	Block2	incongruent/STIM_002.jpg	99
1210.546	0.439	438.7	incongruent	Block2	incongruent/STIM_002.jpg	100
1214.733	0.507	507.3	incongruent	Block2	incongruent/STIM_002.jpg	100
1218.161	0.942	942.5	incongruent	Block2	incongruent/STIM_003.jpg	99
1222.006	0.645	645.0	incongruent	Block2	incongruent/STIM_003.jpg	100
1226.203	0.68	680.5	incongruent	Block2	incongruent/STIM_003.jpg	100
1229.765	0.587	586.7	incongruent	Block2	incongruent/STIM_003.jpg	99
1233.297	0.744	743.6	incongruent	Block2	incongruent/STIM_003.jpg	100
1237.225	0.579	579.1	incongruent	Block2	incongruent/STIM_004.jpg	99
1240.908	0.862	861.9	incongruent	Block2	incongruent/STIM_004.jpg	100
1245.704	0.732	732.2	incongruent	Block2	incongruent/STIM_004.jpg	100
1248.936	0.592	591.8	incongruent	Block2	incongruent/STIM_004.jpg	100
1252.237	0.549	548.6	incongruent	Block2	incongruent/STIM_004.jpg	99
1256.389	0.742	741.5	incongruent	Block2	incongruent/STIM_005.jpg	99
1260.385	0.53	529.9	incongruent	Block2	incongruent/STIM_005.jpg	99
1264.173	0.522	522.3	incongruent	Block2	incongruent/STIM_005.jpg	100
1268.385	0.711	710.8	incongruent	Block2	incongruent/STIM_005.jpg	100
1273.005	0.542	541.7	incongruent	Block2	incongruent/STIM_005.jpg	99
1275.841	0.713	712.6	incongruent	Block2	incongruent/STIM_006.jpg	99
1279.639	0.598	597.6	incongruent	Block2	incongruent/STIM_006.jpg	99
1283.668	0.479	478.6	incongruent	Block2	incongruent/STIM_006.jpg	100
1287.531	0.825	824.6	incongruent	Block2	incongruent/STIM_006.jpg	99
1290.794	0.808	807.5	incongruent	Block2	incongruent/STIM_006.jpg	100
1295.235	0.532	532.4	incongruent	Block2	incongruent/STIM_007.jpg	100
1298.516	0.582	582.5	incongruent	Block2	incongruent/STIM_007.jpg	99
1302.785	0.584	584.5	incongruent	Block2	incongruent/STIM_007.jpg	100
1305.723	0.573	572.7	incongruent	Block2	incongruent/STIM_007.jpg	100
1308.954	0.491	491.0	incongruent	Block2	incongruent/STIM_007.jpg	100
1311.903	0.849	848.9	incongruent	Block2	incongruent/STIM_008.jpg	100
1316.233	0.582	582.1	incongruent	Block2	incongruent/STIM_008.jpg	99
1320.527	0.519	518.6	incongruent	Block2	incongruent/STIM_008.jpg	100
1323.282	0.806	805.7	incongruent	Block2	incongruent/STIM_008.jpg	100
1326.861	0.656	655.5	incongruent	Block2	incongruent/STIM_008.jpg	99
1330.668	0.594	593.8	incongruent	Block2	incongruent/STIM_009.jpg	99
1333.588	0.921	921.0	incongruent	Block2	incongruent/STIM_009.jpg	100
1338.14	0.88	880.3	incongruent	Block2	incongruent/STIM_009.jpg	99
1341.879	0.848	848.4	incongruent	Block2	incongruent/STIM_009.jpg	100
1345.574	0.823	823.1	incongruent	Block2	incongruent/STIM_009.jpg	99
1350.36	0.591	590.8	incongruent	Block2	incongruent/STIM_010.jpg	100
1353.426	0.798	798.4	incongruent	Block2	incongruent/STIM_010.jpg	100
1358.238	0.994	993.8	incongruent	Block2	incongruent/STIM_010.jpg	100
1363.227	0.786	786.5	incongruent	Block2	incongruent/STIM_010.jpg	99
1367.232	0.501	501.2	incongruent	Block2	incongruent/STIM_010.jpg	99
1370.179	1.06	1060.2	incongruent	Block2	incongruent/STIM_011.jpg	99
1373.587	1.007	1007.0	incongruent	Block2	incongruent/STIM_011.jpg	100
1377.762	0.915	914.6	incongruent	Block2	incongruent/STIM_011.jpg	100
1381.744	0.644	644.5	incongruent	Block2	incongruent/STIM_011.jpg	99
1385.11	0.588	587.6	incongruent	Block2	incongruent/STIM_011.jpg	100
1389.762	1.057	1056.8	incongruent	Block2	incongruent/STIM_012.jpg	100
1393.911	0.753	753.2	incongruent	Block2	incongruent/STIM_012.jpg	99
1396.854	0.873	872.7	incongruent	Block2	incongruent/STIM_012.jpg	99
1401.018	0.815	814.6	incongruent	Block2	incongruent/STIM_012.jpg	100
1403.985	0.606	605.7	incongruent	Block2	incongruent/STIM_012.jpg	100
1406.672	0.973	973.3	incongruent	Block2	incongruent/STIM_013.jpg	100
1410.896	0.951	950.8	incongruent	Block2	incongruent/STIM_013.jpg	100
1414.319	0.792	792.2	incongruent	Block2	incongruent/STIM_013.jpg	100
1418.915	0.676	675.5	incongruent	Block2	incongruent/STIM_013.jpg	99
1423.618	0.484	483.7	incongruent	Block2	incongruent/STIM_013.jpg	100
1426.886	1.034	1034.1	incongruent	Block2	incongruent/STIM_014.jpg	99
1431.94	0.681	681.3	incongruent	Block2	incongruent/STIM_014.jpg	100
1436.075	0.86	859.5	incongruent	Block2	incongruent/STIM_014.jpg	100
1439.933	0.643	642.6	incongruent	Block2	incongruent/STIM_014.jpg	100
1444.495	0.755	755.3	incongruent	Block2	incongruent/STIM_014.jpg	100
1447.439	0.728	727.5	incongruent	Block2	incongruent/STIM_015.jpg	100
1450.311	0.772	772.2	incongruent	Block2	incongruent/STIM_015.jpg	100
1453.884	0.919	918.9	incongruent	Block2	incongruent/STIM_015.jpg	100
1458.782	0.84	839.9	incongruent	Block2	incongruent/STIM_015.jpg	100
1462.774	0.584	584.0	incongruent	Block2	incongruent/STIM_015.jpg	100
1465.843	0.826	826.4	incongruent	Block2	incongruent/STIM_016.jpg	100
1469.642	0.705	705.0	incongruent	Block2	incongruent/STIM_016.jpg	100
1473.959	0.728	727.8	incongruent	Block2	incongruent/STIM_016.jpg	100
1477.433	0.529	529.0	incongruent	Block2	incongruent/STIM_016.jpg	100
1480.689	0.499	498.9	incongruent	Block2	incongruent/STIM_016.jpg	99
1484.119	0.641	641.2	incongruent	Block2	incongruent/STIM_017.jpg	100
1488.717	0.664	663.9	incongruent	Block2	incongruent/STIM_017.jpg	100
1491.545	0.494	494.1	incongruent	Block2	incongruent/STIM_017.jpg	100
1495.969	0.827	827.3	incongruent	Block2	incongruent/STIM_017.jpg	99
1499.849	0.45	449.9	incongruent	Block2	incongruent/STIM_017.jpg	100
1503.181	0.566	565.6	incongruent	Block2	incongruent/STIM_018.jpg	99
1507.752	1.003	1003.2	incongruent	Block2	incongruent/STIM_018.jpg	99
1510.905	0.694	694.4	incongruent	Block2	incongruent/STIM_018.jpg	100
1515.128	0.793	792.8	incongruent	Block2	incongruent/STIM_018.jpg	100
1518.793	0.912	912.2	incongruent	Block2	incongruent/STIM_018.jpg	100
1523.5	0.728	727.8	incongruent	Block2	incongruent/STIM_019.jpg	99
1526.654	0.613	612.9	incongruent	Block2	incongruent/STIM_019.jpg	100
1529.511	0.482	481.5	incongruent	Block2	incongruent/STIM_019.jpg	99
1533.801	0.75	749.6	incongruent	Block2	incongruent/STIM_019.jpg	99
1537.834	0.496	495.5	incongruent	Block2	incongruent/STIM_019.jpg	100
1541.896	0.856	855.8	incongruent	Block2	incongruent/STIM_020.jpg	100
1546.044	0.91	910.3	incongruent	Block2	incongruent/STIM_020.jpg	99
1549.876	0.848	848.2	incongruent	Block2	incongruent/STIM_020.jpg	99
1553.899	0.789	789.2	incongruent	Block2	incongruent/STIM_020.jpg	100
1556.852	0.635	635.4	incongruent	Block2	incongruent/STIM_020.jpg	100
1560.84	1.111	1110.9	incongruent	Block2	incongruent/STIM_021.jpg	100
1564.304	0.54	540.3	incongruent	Block2	incongruent/STIM_021.jpg	100
1567.866	0.528	528.3	incongruent	Block2	incongruent/STIM_021.jpg	100
1570.645	0.506	506.2	incongruent	Block2	incongruent/STIM_021.jpg	99
1573.645	0.764	763.7	incongruent	Block2	incongruent/STIM_021.jpg	100
1577.083	0.765	765.4	incongruent	Block2	incongruent/STIM_022.jpg	99
1581.276	0.506	505.6	incongruent	Block2	incongruent/STIM_022.jpg	99
1585.733	0.542	542.4	incongruent	Block2	incongruent/STIM_022.jpg	100
1589.399	0.779	779.1	incongruent	Block2	incongruent/STIM_022.jpg	99
1593.971	0.636	636.4	incongruent	Block2	incongruent/STIM_022.jpg	100
1597.195	1.058	1058.3	incongruent	Block2	incongruent/STIM_023.jpg	99
1601.262	0.637	636.8	incongruent	Block2	incongruent/STIM_023.jpg	99
1604.382	0.669	669.0	incongruent	Block2	incongruent/STIM_023.jpg	100
1607.875	0.79	789.7	incongruent	Block2	incongruent/STIM_023.jpg	99
1612.179	0.788	787.6	incongruent	Block2	incongruent/STIM_023.jpg	100
1615.972	1.024	1024.0	incongruent	Block2	incongruent/STIM_024.jpg	99
1620.774	0.684	683.8	incongruent	Block2	incongruent/STIM_024.jpg	100
1624.38	0.908	907.8	incongruent	Block2	incongruent/STIM_024.jpg	100
1628.804	0.863	863.4	incongruent	Block2	incongruent/STIM_024.jpg	100
1633.185	0.899	899.4	incongruent	Block2	incongruent/STIM_024.jpg	100
1637.968	0.71	709.8	incongruent	Block2	incongruent/STIM_025.jpg	99
1641.359	0.977	977.3	incongruent	Block2	incongruent/STIM_025.jpg	100
1644.832	0.826	826.1	incongruent	Block2	incongruent/STIM_025.jpg	99
1648.909	0.778	777.5	incongruent	Block2	incongruent/STIM_025.jpg	99
1651.867	0.877	876.7	incongruent	Block2	incongruent/STIM_025.jpg	99
1655.891	1.014	1014.5	incongruent	Block2	incongruent/STIM_026.jpg	99
1659.789	1.058	1058.2	incongruent	Block2	incongruent/STIM_026.jpg	99
1664.827	0.727	727.1	incongruent	Block2	incongruent/STIM_026.jpg	99
1669.339	0.876	876.4	incongruent	Block2	incongruent/STIM_026.jpg	99
1674.26	0.456	456.3	incongruent	Block2	incongruent/STIM_026.jpg	100
1677.748	1.128	1128.5	incongruent	Block2	incongruent/STIM_027.jpg	100
1681.663	1.047	1046.6	incongruent	Block2	incongruent/STIM_027.jpg	100
1685.737	0.952	952.3	incongruent	Block2	incongruent/STIM_027.jpg	100
1690.77	0.507	506.7	incongruent	Block2	incongruent/STIM_027.jpg	100
1693.711	0.591	591.1	incongruent	Block2	incongruent/STIM_027.jpg	100
1696.529	1.068	1067.8	incongruent	Block2	incongruent/STIM_028.jpg	99
1701.461	0.547	546.7	incongruent	Block2	incongruent/STIM_028.jpg	100
1705.37	0.775	775.4	incongruent	Block2	incongruent/STIM_028.jpg	99
1709.229	0.837	836.8	incongruent	Block2	incongruent/STIM_028.jpg	100
1713.87	0.73	730.2	incongruent	Block2	incongruent/STIM_028.jpg	100
1716.985	0.979	978.9	incongruent	Block2	incongruent/STIM_029.jpg	99
1720.996	0.927	926.7	incongruent	Block2	incongruent/STIM_029.jpg	99
1725.591	0.488	488.4	incongruent	Block2	incongruent/STIM_029.jpg	100
1728.161	0.675	675.4	incongruent	Block2	incongruent/STIM_029.jpg	100
1731.888	0.459	459.4	incongruent	Block2	incongruent/STIM_029.jpg	99
1735.882	0.742	741.9	congruent	Block2	congruent/STIM_000.jpg	100
1740.562	0.454	454.5	congruent	Block2	congruent/STIM_000.jpg	99
1744.646	0.473	473.1	congruent	Block2	congruent/STIM_000.jpg	99
1748.271	0.583	583.0	congruent	Block2	congruent/STIM_000.jpg	100
1751.681	0.474	474.1	congruent	Block2	congruent/STIM_000.jpg	99
1756.174	0.771	771.0	congruent	Block2	congruent/STIM_001.jpg	100
1760.202	0.796	795.5	congruent	Block2	congruent/STIM_001.jpg	99
1764.841	0.469	468.7	congruent	Block2	congruent/STIM_001.jpg	100
1767.648	0.734	733.7	congruent	Block2	congruent/STIM_001.jpg	99
1771.784	0.62	619.6	congruent	Block2	congruent/STIM_001.jpg	100
1775.621	0.693	692.7	congruent	Block2	congruent/STIM_002.jpg	100
1779.837	0.456	456.1	congruent	Block2	congruent/STIM_002.jpg	99
1782.834	0.638	638.1	congruent	Block2	congruent/STIM_002.jpg	99
1786.218	0.602	601.7	congruent	Block2	congruent/STIM_002.jpg	100
1789.99	0.778	778.5	congruent	Block2	congruent/STIM_002.jpg	100
1793.03	0.686	685.8	congruent	Block2	congruent/STIM_003.jpg	99
1797.066	0.481	480.9	congruent	Block2	congruent/STIM_003.jpg	99
1801.059	0.638	638.4	congruent	Block2	congruent/STIM_003.jpg	100
1805.307	0.719	719.1	congruent	Block2	congruent/STIM_003.jpg	100
1809.418	0.636	635.8	congruent	Block2	congruent/STIM_003.jpg	100
1813.669	0.744	743.6	congruent	Block2	congruent/STIM_004.jpg	100
1817.869	0.718	718.2	congruent	Block2	congruent/STIM_004.jpg	99
1820.946	0.774	773.5	congruent	Block2	congruent/STIM_004.jpg	100
1824.874	0.484	483.6	congruent	Block2	congruent/STIM_004.jpg	99
1828.695	0.455	454.7	congruent	Block2	congruent/STIM_004.jpg	100
1832.935	0.749	749.0	congruent	Block2	congruent/STIM_005.jpg	100
1836.636	0.745	745.1	congruent	Block2	congruent/STIM_005.jpg	100
1839.73	0.457	457.0	congruent	Block2	congruent/STIM_005.jpg	100
1842.303	0.537	537.1	congruent	Block2	congruent/STIM_005.jpg	100
1845.644	0.75	750.5	congruent	Block2	congruent/STIM_005.jpg	100
1848.99	0.744	744.1	congruent	Block2	congruent/STIM_006.jpg	100
1853.074	0.69	690.0	congruent	Block2	congruent/STIM_006.jpg	99
1857.254	0.616	615.8	congruent	Block2	congruent/STIM_006.jpg	99
1860.708	0.523	523.1	congruent	Block2	congruent/STIM_006.jpg	100
1865.009	0.489	488.6	congruent	Block2	congruent/STIM_006.jpg	99
1869.369	0.548	547.5	congruent	Block2	congruent/STIM_007.jpg	99
1872.021	0.483	482.9	congruent	Block2	congruent/STIM_007.jpg	99
1874.988	0.76	759.5	congruent	Block2	congruent/STIM_007.jpg	100
1879.708	0.479	479.1	congruent	Block2	congruent/STIM_007.jpg	100
1884.09	0.529	528.8	congruent	Block2	congruent/STIM_007.jpg	99
1888.445	0.643	643.3	congruent	Block2	congruent/STIM_008.jpg	99
1891.643	0.523	522.7	congruent	Block2	congruent/STIM_008.jpg	99
1895.092	0.71	709.9	congruent	Block2	congruent/STIM_008.jpg	99
1898.335	0.745	744.8	congruent	Block2	congruent/STIM_008.jpg	99
1902.329	0.621	620.7	congruent	Block2	congruent/STIM_008.jpg	100
1905.604	0.624	623.5	congruent	Block2	congruent/STIM_009.jpg	100
1908.779	0.626	626.1	congruent	Block2	congruent/STIM_009.jpg	100
1911.579	0.691	690.8	congruent	Block2	congruent/STIM_009.jpg	99
1914.68	0.626	625.9	congruent	Block2	congruent/STIM_009.jpg	99
1918.609	0.591	591.3	congruent	Block2	congruent/STIM_009.jpg	100
1922.085	0.748	748.3	congruent	Block2	congruent/STIM_010.jpg	100
1925.132	0.473	472.9	congruent	Block2	congruent/STIM_010.jpg	99
1927.952	0.747	747.1	congruent	Block2	congruent/STIM_010.jpg	100
1931.883	0.601	601.3	congruent	Block2	congruent/STIM_010.jpg	99
1935.453	0.466	466.3	congruent	Block2	congruent/STIM_010.jpg	100
1939.474	0.699	698.7	congruent	Block2	congruent/STIM_011.jpg	99
1942.364	0.484	483.9	congruent	Block2	congruent/STIM_011.jpg	99
1945.131	0.672	671.6	congruent	Block2	congruent/STIM_011.jpg	99
1949.409	0.705	705.1	congruent	Block2	congruent/STIM_011.jpg	100
1953.409	0.46	460.3	congruent	Block2	congruent/STIM_011.jpg	99
1955.987	0.701	701.0	congruent	Block2	congruent/STIM_012.jpg	99
1959.948	0.786	786.1	congruent	Block2	congruent/STIM_012.jpg	100
1963.604	0.678	677.8	congruent	Block2	congruent/STIM_012.jpg	99
1967.468	0.775	774.6	congruent	Block2	congruent/STIM_012.jpg	99
1971.074	0.556	556.5	congruent	Block2	congruent/STIM_012.jpg	99
1974.1	0.739	738.9	congruent	Block2	congruent/STIM_013.jpg	99
1977.563	0.501	500.6	congruent	Block2	congruent/STIM_013.jpg	99
1981.609	0.528	528.1	congruent	Block2	congruent/STIM_013.jpg	99
1985.065	0.511	511.4	congruent	Block2	congruent/STIM_013.jpg	99
1988.872	0.751	751.1	congruent	Block2	congruent/STIM_013.jpg	100
1993.343	0.682	682.4	congruent	Block2	congruent/STIM_014.jpg	100
1996.693	0.524	524.0	congruent	Block2	congruent/STIM_014.jpg	100
1999.751	0.563	562.6	congruent	Block2	congruent/STIM_014.jpg	99
2002.863	0.457	456.7	congruent	Block2	congruent/STIM_014.jpg	100
2007.25	0.595	594.9	congruent	Block2	congruent/STIM_014.jpg	100
2011.023	0.517	517.2	congruent	Block2	congruent/STIM_015.jpg	99
2014.74	0.657	656.6	congruent	Block2	congruent/STIM_015.jpg	99
2018.691	0.459	459.3	congruent	Block2	congruent/STIM_015.jpg	100
2021.301	0.673	673.1	congruent	Block2	congruent/STIM_015.jpg	100
2024.734	0.529	528.6	congruent	Block2	congruent/STIM_015.jpg	100
2027.498	0.687	686.9	congruent	Block2	congruent/STIM_016.jpg	100
2032.185	0.616	616.4	congruent	Block2	congruent/STIM_016.jpg	100
2034.924	0.726	725.6	congruent	Block2	congruent/STIM_016.jpg	100
2038.544	0.598	597.9	congruent	Block2	congruent/STIM_016.jpg	100
2042.857	0.587	587.2	congruent	Block2	congruent/STIM_016.jpg	100
2045.815	0.789	789.3	congruent	Block2	congruent/STIM_017.jpg	100
2048.787	0.697	696.9	congruent	Block2	congruent/STIM_017.jpg	100
2053.299	0.583	582.8	congruent	Block2	congruent/STIM_017.jpg	99
2056.541	0.71	710.2	congruent	Block2	congruent/STIM_017.jpg	100
2059.543	0.696	695.7	congruent	Block2	congruent/STIM_017.jpg	99
2062.905	0.734	734.0	congruent	Block2	congruent/STIM_018.jpg	99
2067.197	0.631	631.3	congruent	Block2	congruent/STIM_018.jpg	100
2070.506	0.723	722.6	congruent	Block2	congruent/STIM_018.jpg	100
2073.92	0.475	474.9	congruent	Block2	congruent/STIM_018.jpg	100
2076.616	0.475	475.4	congruent	Block2	congruent/STIM_018.jpg	100
2079.151	0.689	689.2	congruent	Block2	congruent/STIM_019.jpg	99
2083.733	0.665	665.2	congruent	Block2	congruent/STIM_019.jpg	100
2087.628	0.784	783.7	congruent	Block2	congruent/STIM_019.jpg	99
2092.461	0.647	646.8	congruent	Block2	congruent/STIM_019.jpg	99
2095.557	0.649	649.0	congruent	Block2	congruent/STIM_019.jpg	100
2099.317	0.766	765.9	congruent	Block2	congruent/STIM_020.jpg	100
2102.743	0.489	489.3	congruent	Block2	congruent/STIM_020.jpg	99
2106.709	0.452	452.0	congruent	Block2	congruent/STIM_020.jpg	99
2111.071	0.492	492.0	congruent	Block2	congruent/STIM_020.jpg	99
2113.849	0.688	688.3	congruent	Block2	congruent/STIM_020.jpg	100
2118.576	0.522	522.2	congruent	Block2	congruent/STIM_021.jpg	99
2121.904	0.499	499.1	congruent	Block2	congruent/STIM_021.jpg	99
2124.608	0.468	467.6	congruent	Block2	congruent/STIM_021.jpg	99
2127.15	0.786	786.4	congruent	Block2	congruent/STIM_021.jpg	100
2130.066	0.685	684.9	congruent	Block2	congruent/STIM_021.jpg	100
2133.018	0.791	790.8	congruent	Block2	congruent/STIM_022.jpg	100
2136.559	0.765	764.9	congruent	Block2	congruent/STIM_022.jpg	100
2140.189	0.716	715.7	congruent	Block2	congruent/STIM_022.jpg	99
2143.819	0.5	499.8	congruent	Block2	congruent/STIM_022.jpg	100
2147.969	0.711	711.2	congruent	Block2	congruent/STIM_022.jpg	99
2152.289	0.607	606.7	congruent	Block2	congruent/STIM_023.jpg	99
2155.312	0.715	715.4	congruent	Block2	congruent/STIM_023.jpg	99
2158.597	0.612	612.3	congruent	Block2	congruent/STIM_023.jpg	100
2161.783	0.721	721.3	congruent	Block2	congruent/STIM_023.jpg	99
2165.129	0.452	451.9	congruent	Block2	congruent/STIM_023.jpg	99
2167.706	0.542	542.2	congruent	Block2	congruent/STIM_024.jpg	99
2171.296	0.68	679.5	congruent	Block2	congruent/STIM_024.jpg	99
2175.277	0.768	768.4	congruent	Block2	congruent/STIM_024.jpg	100
2179.858	0.618	617.9	congruent	Block2	congruent/STIM_024.jpg	100
2183.021	0.592	592.5	congruent	Block2	congruent/STIM_024.jpg	100
2185.996	0.58	580.1	congruent	Block2	congruent/STIM_025.jpg	100
2189.843	0.76	760.3	congruent	Block2	congruent/STIM_025.jpg	100
2193.822	0.757	756.6	congruent	Block2	congruent/STIM_025.jpg	100
2198.231	0.777	776.9	congruent	Block2	congruent/STIM_025.jpg	99
2202.443	0.473	472.7	congruent	Block2	congruent/STIM_025.jpg	100
2206.269	0.743	742.7	congruent	Block2	congruent/STIM_026.jpg	100
2209.741	0.451	450.6	congruent	Block2	congruent/STIM_026.jpg	99
2212.971	0.691	691.2	congruent	Block2	congruent/STIM_026.jpg	100
2216.304	0.772	771.9	congruent	Block2	congruent/STIM_026.jpg	99
2220.445	0.45	449.7	congruent	Block2	congruent/STIM_026.jpg	99
2223.084	0.768	767.8	congruent	Block2	congruent/STIM_027.jpg	99
2226.436	0.494	493.6	congruent	Block2	congruent/STIM_027.jpg	100
2230.785	0.676	675.7	congruent	Block2	congruent/STIM_027.jpg	100
2234.073	0.785	784.9	congruent	Block2	congruent/STIM_027.jpg	99
2237.919	0.645	645.2	congruent	Block2	congruent/STIM_027.jpg	100
2241.643	0.452	452.5	congruent	Block2	congruent/STIM_028.jpg	100
2244.466	0.75	750.4	congruent	Block2	congruent/STIM_028.jpg	100
2247.518	0.471	471.2	congruent	Block2	congruent/STIM_028.jpg	100
2251.609	0.681	681.1	congruent	Block2	congruent/STIM_028.jpg	99
2255.357	0.479	478.8	congruent	Block2	congruent/STIM_028.jpg	99
2259.512	0.628	627.7	congruent	Block2	congruent/STIM_029.jpg	100
2263.355	0.581	580.6	congruent	Block2	congruent/STIM_029.jpg	99
2267.397	0.566	565.5	congruent	Block2	congruent/STIM_029.jpg	99
2270.547	0.572	572.5	congruent	Block2	congruent/STIM_029.jpg	99
2274.301	0.742	741.6	congruent	Block2	congruent/STIM_029.jpg	99
2278.559	0.646	645.5	incongruent	Block3	incongruent/STIM_000.jpg	100
2281.734	0.59	590.3	incongruent	Block3	incongruent/STIM_000.jpg	99
2284.471	0.442	442.4	incongruent	Block3	incongruent/STIM_000.jpg	100
2287.422	0.863	863.4	incongruent	Block3	incongruent/STIM_000.jpg	100
2291.382	0.763	762.8	incongruent	Block3	incongruent/STIM_000.jpg	99
2295.884	0.665	664.8	incongruent	Block3	incongruent/STIM_001.jpg	100
2299.841	0.49	489.9	incongruent	Block3	incongruent/STIM_001.jpg	99
2304.203	0.885	884.9	incongruent	Block3	incongruent/STIM_001.jpg	100
2307.488	0.596	596.1	incongruent	Block3	incongruent/STIM_001.jpg	100
2311.601	0.637	637.0	incongruent	Block3	incongruent/STIM_001.jpg	100
2315.409	0.684	684.5	incongruent	Block3	incongruent/STIM_002.jpg	100
2319.536	0.602	601.9	incongruent	Block3	incongruent/STIM_002.jpg	100
2323.788	0.64	640.0	incongruent	Block3	incongruent/STIM_002.jpg	99
2326.537	0.582	581.8	incongruent	Block3	incongruent/STIM_002.jpg	99
2330.939	0.717	717.1	incongruent	Block3	incongruent/STIM_002.jpg	100
2334.982	0.524	524.4	incongruent	Block3	incongruent/STIM_003.jpg	100
2337.954	0.489	488.8	incongruent	Block3	incongruent/STIM_003.jpg	100
2341.582	0.495	494.9	incongruent	Block3	incongruent/STIM_003.jpg	99
2345.733	0.67	669.7	incongruent	Block3	incongruent/STIM_003.jpg	99
2350.436	0.844	843.7	incongruent	Block3	incongruent/STIM_003.jpg	99
2354.901	0.645	645.1	incongruent	Block3	incongruent/STIM_004.jpg	100
2358.668	0.896	895.8	incongruent	Block3	incongruent/STIM_004.jpg	99
2362.083	0.556	556.5	incongruent	Block3	incongruent/STIM_004.jpg	100
2365.605	0.671	670.9	incongruent	Block3	incongruent/STIM_004.jpg	99
2368.61	0.851	850.9	incongruent	Block3	incongruent/STIM_004.jpg	99
2372.924	0.681	680.8	incongruent	Block3	incongruent/STIM_005.jpg	99
2376.362	0.92	919.5	incongruent	Block3	incongruent/STIM_005.jpg	99
2380.691	0.755	755.1	incongruent	Block3	incongruent/STIM_005.jpg	99
2383.738	0.898	897.5	incongruent	Block3	incongruent/STIM_005.jpg	100
2387.547	0.842	841.6	incongruent	Block3	incongruent/STIM_005.jpg	100
2392.108	0.822	822.1	incongruent	Block3	incongruent/STIM_006.jpg	100
2396.469	0.805	805.4	incongruent	Block3	incongruent/STIM_006.jpg	99
2401.167	0.83	830.3	incongruent	Block3	incongruent/STIM_006.jpg	100
2405.44	0.713	712.7	incongruent	Block3	incongruent/STIM_006.jpg	99
2410.227	0.844	844.4	incongruent	Block3	incongruent/STIM_006.jpg	100
2413.738	0.938	937.7	incongruent	Block3	incongruent/STIM_007.jpg	100
2417.627	0.599	599.3	incongruent	Block3	incongruent/STIM_007.jpg	100
2420.942	0.531	530.8	incongruent	Block3	incongruent/STIM_007.jpg	100
2423.929	0.571	570.9	incongruent	Block3	incongruent/STIM_007.jpg	99
2427.798	0.614	614.4	incongruent	Block3	incongruent/STIM_007.jpg	100
2431.907	0.822	821.5	incongruent	Block3	incongruent/STIM_008.jpg	99
2434.961	0.64	640.3	incongruent	Block3	incongruent/STIM_008.jpg	99
2438.414	0.872	871.9	incongruent	Block3	incongruent/STIM_008.jpg	100
2442.213	0.859	858.7	incongruent	Block3	incongruent/STIM_008.jpg	100
2446.256	0.49	489.7	incongruent	Block3	incongruent/STIM_008.jpg	100
2449.725	0.469	469.0	incongruent	Block3	incongruent/STIM_009.jpg	99
2453.224	0.734	734.0	incongruent	Block3	incongruent/STIM_009.jpg	100
2456.918	0.646	645.7	incongruent	Block3	incongruent/STIM_009.jpg	99
2461.067	0.577	577.1	incongruent	Block3	incongruent/STIM_009.jpg	99
2464.018	0.76	760.3	incongruent	Block3	incongruent/STIM_009.jpg	99
2467.744	0.91	910.0	incongruent	Block3	incongruent/STIM_010.jpg	100
2471.904	0.714	713.6	incongruent	Block3	incongruent/STIM_010.jpg	99
2474.71	0.506	506.4	incongruent	Block3	incongruent/STIM_010.jpg	100
2478.216	0.744	744.1	incongruent	Block3	incongruent/STIM_010.jpg	99
2482.798	0.839	839.2	incongruent	Block3	incongruent/STIM_010.jpg	99
2487.311	0.456	455.8	incongruent	Block3	incongruent/STIM_011.jpg	99
2490.091	0.441	440.8	incongruent	Block3	incongruent/STIM_011.jpg	100
2492.873	0.835	835.3	incongruent	Block3	incongruent/STIM_011.jpg	99
2495.824	0.902	901.6	incongruent	Block3	incongruent/STIM_011.jpg	99
2499.328	0.899	899.1	incongruent	Block3	incongruent/STIM_011.jpg	100
2502.712	0.707	706.8	incongruent	Block3	incongruent/STIM_012.jpg	99
2506.14	0.542	542.4	incongruent	Block3	incongruent/STIM_012.jpg	99
2510.435	0.507	507.0	incongruent	Block3	incongruent/STIM_012.jpg	99
2514.197	0.462	461.7	incongruent	Block3	incongruent/STIM_012.jpg	100
2516.956	0.792	792.5	incongruent	Block3	incongruent/STIM_012.jpg	100
2521.032	0.495	495.2	incongruent	Block3	incongruent/STIM_013.jpg	100
2524.005	0.826	825.5	incongruent	Block3	incongruent/STIM_013.jpg	99
2528.305	0.751	750.7	incongruent	Block3	incongruent/STIM_013.jpg	99
2532.537	0.646	645.9	incongruent	Block3	incongruent/STIM_013.jpg	99
2535.776	0.63	630.0	incongruent	Block3	incongruent/STIM_013.jpg	99
2539.471	0.859	858.7	incongruent	Block3	incongruent/STIM_014.jpg	99
2543.67	0.595	594.7	incongruent	Block3	incongruent/STIM_014.jpg	100
2546.8	0.543	543.1	incongruent	Block3	incongruent/STIM_014.jpg	99
2550.271	0.521	520.7	incongruent	Block3	incongruent/STIM_014.jpg	99
2553.412	0.796	795.6	incongruent	Block3	incongruent/STIM_014.jpg	99
2557.053	0.503	503.1	incongruent	Block3	incongruent/STIM_015.jpg	99
2560.912	0.774	773.5	incongruent	Block3	incongruent/STIM_015.jpg	100
2565.521	0.9	899.5	incongruent	Block3	incongruent/STIM_015.jpg	99
2570.168	0.677	677.1	incongruent	Block3	incongruent/STIM_015.jpg	99
2573.579	0.45	450.4	incongruent	Block3	incongruent/STIM_015.jpg	100
2576.577	0.913	912.7	incongruent	Block3	incongruent/STIM_016.jpg	100
2580.385	0.557	556.8	incongruent	Block3	incongruent/STIM_016.jpg	100
2583.858	0.749	749.4	incongruent	Block3	incongruent/STIM_016.jpg	99
2588.39	0.444	444.3	incongruent	Block3	incongruent/STIM_016.jpg	99
2590.985	0.847	847.0	incongruent	Block3	incongruent/STIM_016.jpg	100
2595.287	0.853	853.1	incongruent	Block3	incongruent/STIM_017.jpg	99
2599.429	0.872	872.0	incongruent	Block3	incongruent/STIM_017.jpg	100
2603.219	0.58	579.9	incongruent	Block3	incongruent/STIM_017.jpg	100
2606.283	0.531	530.6	incongruent	Block3	incongruent/STIM_017.jpg	99
2609.673	0.932	932.5	incongruent	Block3	incongruent/STIM_017.jpg	100
2614.257	0.804	803.6	incongruent	Block3	incongruent/STIM_018.jpg	100
2618.463	0.853	853.3	incongruent	Block3	incongruent/STIM_018.jpg	100
2622.079	0.805	804.7	incongruent	Block3	incongruent/STIM_018.jpg	100
2626.662	0.928	928.3	incongruent	Block3	incongruent/STIM_018.jpg	100
2630.24	0.589	589.4	incongruent	Block3	incongruent/STIM_018.jpg	100
2633.345	0.665	664.6	incongruent	Block3	incongruent/STIM_019.jpg	100
2636.274	0.734	733.5	incongruent	Block3	incongruent/STIM_019.jpg	100
2639.875	0.886	885.5	incongruent	Block3	incongruent/STIM_019.jpg	99
2643.939	0.889	889.4	incongruent	Block3	incongruent/STIM_019.jpg	100
2647.399	0.851	850.6	incongruent	Block3	incongruent/STIM_019.jpg	99
2650.601	0.73	730.4	incongruent	Block3	incongruent/STIM_020.jpg	100
2655.248	0.909	908.9	incongruent	Block3	incongruent/STIM_020.jpg	99
2658.641	0.872	872.0	incongruent	Block3	incongruent/STIM_020.jpg	99
2661.684	0.793	792.7	incongruent	Block3	incongruent/STIM_020.jpg	100
2665.145	0.532	532.0	incongruent	Block3	incongruent/STIM_020.jpg	100
2669.41	0.909	908.6	incongruent	Block3	incongruent/STIM_021.jpg	100
2673.217	0.77	770.0	incongruent	Block3	incongruent/STIM_021.jpg	100
2676.888	0.884	883.6	incongruent	Block3	incongruent/STIM_021.jpg	100
2680.937	0.926	925.8	incongruent	Block3	incongruent/STIM_021.jpg	100
2684.13	0.523	523.2	incongruent	Block3	incongruent/STIM_021.jpg	99
2686.76	0.658	658.4	incongruent	Block3	incongruent/STIM_022.jpg	99
2690.652	0.937	936.8	incongruent	Block3	incongruent/STIM_022.jpg	100
2695.537	0.713	713.4	incongruent	Block3	incongruent/STIM_022.jpg	100
2699.992	0.879	878.7	incongruent	Block3	incongruent/STIM_022.jpg	100
2703.385	0.68	679.6	incongruent	Block3	incongruent/STIM_022.jpg	99
2707.956	0.858	857.5	incongruent	Block3	incongruent/STIM_023.jpg	100
2712.542	0.552	552.2	incongruent	Block3	incongruent/STIM_023.jpg	99
2716.043	0.598	598.2	incongruent	Block3	incongruent/STIM_023.jpg	99
2719.774	0.902	901.6	incongruent	Block3	incongruent/STIM_023.jpg	100
2723.89	0.736	735.5	incongruent	Block3	incongruent/STIM_023.jpg	99
2728.083	0.87	870.5	incongruent	Block3	incongruent/STIM_024.jpg	100
2731.141	0.578	577.9	incongruent	Block3	incongruent/STIM_024.jpg	99
2735.071	0.486	486.5	incongruent	Block3	incongruent/STIM_024.jpg	100
2737.709	0.884	884.5	incongruent	Block3	incongruent/STIM_024.jpg	100
2742.222	0.736	735.8	incongruent	Block3	incongruent/STIM_024.jpg	100
2745.688	0.915	914.7	incongruent	Block3	incongruent/STIM_025.jpg	99
2749.968	0.548	548.3	incongruent	Block3	incongruent/STIM_025.jpg	100
2753.982	0.606	606.4	incongruent	Block3	incongruent/STIM_025.jpg	100
2756.932	0.446	445.9	incongruent	Block3	incongruent/STIM_025.jpg	100
2760.061	0.595	595.4	incongruent	Block3	incongruent/STIM_025.jpg	99
2764.266	0.581	581.4	incongruent	Block3	incongruent/STIM_026.jpg	100
2768.227	0.537	537.0	incongruent	Block3	incongruent/STIM_026.jpg	99
2771.123	0.807	807.0	incongruent	Block3	incongruent/STIM_026.jpg	100
2775.261	0.743	742.7	incongruent	Block3	incongruent/STIM_026.jpg	99
2778.537	0.631	630.9	incongruent	Block3	incongruent/STIM_026.jpg	100
2782.015	0.889	889.3	incongruent	Block3	incongruent/STIM_027.jpg	100
2786.765	0.45	450.3	incongruent	Block3	incongruent/STIM_027.jpg	100
2790.857	0.718	718.3	incongruent	Block3	incongruent/STIM_027.jpg	99
2793.877	0.805	804.8	incongruent	Block3	incongruent/STIM_027.jpg	100
2798.473	0.898	897.5	incongruent	Block3	incongruent/STIM_027.jpg	100
2803.371	0.672	672.4	incongruent	Block3	incongruent/STIM_028.jpg	99
2806.353	0.622	622.1	incongruent	Block3	incongruent/STIM_028.jpg	99
2809.476	0.777	776.9	incongruent	Block3	incongruent/STIM_028.jpg	99
2814.216	0.915	914.6	incongruent	Block3	incongruent/STIM_028.jpg	99
2817.455	0.584	584.3	incongruent	Block3	incongruent/STIM_028.jpg	99
2820.473	0.882	882.1	incongruent	Block3	incongruent/STIM_029.jpg	99
2823.563	0.64	640.5	incongruent	Block3	incongruent/STIM_029.jpg	99
2827.745	0.508	508.0	incongruent	Block3	incongruent/STIM_029.jpg	99
2832.05	0.497	496.7	incongruent	Block3	incongruent/STIM_029.jpg	99
2836.367	0.495	494.7	incongruent	Block3	incongruent/STIM_029.jpg	100
2840.014	0.765	765.1	congruent	Block3	congruent/STIM_000.jpg	99
2844.068	0.786	785.5	congruent	Block3	congruent/STIM_000.jpg	100
2847.204	0.474	473.6	congruent	Block3	congruent/STIM_000.jpg	100
2849.839	0.683	683.3	congruent	Block3	congruent/STIM_000.jpg	100
2852.668	0.676	676.5	congruent	Block3	congruent/STIM_000.jpg	99
2857.37	0.592	592.1	congruent	Block3	congruent/STIM_001.jpg	100
2861.183	0.532	531.9	congruent	Block3	congruent/STIM_001.jpg	100
2865.042	0.566	566.0	congruent	Block3	congruent/STIM_001.jpg	99
2868.097	0.697	697.0	congruent	Block3	congruent/STIM_001.jpg	100
2871.47	0.78	780.2	congruent	Block3	congruent/STIM_001.jpg	99
2876.023	0.656	655.8	congruent	Block3	congruent/STIM_002.jpg	100
2879.561	0.698	697.5	congruent	Block3	congruent/STIM_002.jpg	99
2884.011	0.475	475.4	congruent	Block3	congruent/STIM_002.jpg	99
2887.168	0.716	715.7	congruent	Block3	congruent/STIM_002.jpg	100
2890.355	0.568	568.1	congruent	Block3	congruent/STIM_002.jpg	99
2894.296	0.626	625.9	congruent	Block3	congruent/STIM_003.jpg	100
2898.861	0.49	489.7	congruent	Block3	congruent/STIM_003.jpg	99
2902.371	0.769	768.9	congruent	Block3	congruent/STIM_003.jpg	99
2905.318	0.628	628.1	congruent	Block3	congruent/STIM_003.jpg	100
2909.165	0.58	580.2	congruent	Block3	congruent/STIM_003.jpg	99
2913.16	0.746	746.4	congruent	Block3	congruent/STIM_004.jpg	100
2916.537	0.585	584.7	congruent	Block3	congruent/STIM_004.jpg	99
2920.09	0.539	539.4	congruent	Block3	congruent/STIM_004.jpg	99
2923.591	0.511	511.1	congruent	Block3	congruent/STIM_004.jpg	100
2927.83	0.58	580.3	congruent	Block3	congruent/STIM_004.jpg	99
2931.458	0.569	569.3	congruent	Block3	congruent/STIM_005.jpg	99
2935.159	0.756	756.4	congruent	Block3	congruent/STIM_005.jpg	99
2939.31	0.574	574.3	congruent	Block3	congruent/STIM_005.jpg	100
2943.337	0.776	776.2	congruent	Block3	congruent/STIM_005.jpg	99
2947.212	0.448	447.6	congruent	Block3	congruent/STIM_005.jpg	100
2950.798	0.662	661.7	congruent	Block3	congruent/STIM_006.jpg	100
2955.192	0.687	687.4	congruent	Block3	congruent/STIM_006.jpg	100
2958.62	0.663	662.6	congruent	Block3	congruent/STIM_006.jpg	100
2962.408	0.739	738.8	congruent	Block3	congruent/STIM_006.jpg	100
2966.287	0.498	498.2	congruent	Block3	congruent/STIM_006.jpg	100
2970.141	0.66	659.5	congruent	Block3	congruent/STIM_007.jpg	100
2974.21	0.613	613.0	congruent	Block3	congruent/STIM_007.jpg	99
2978.781	0.513	513.1	congruent	Block3	congruent/STIM_007.jpg	100
2982.984	0.722	722.0	congruent	Block3	congruent/STIM_007.jpg	100
2986.004	0.655	655.0	congruent	Block3	congruent/STIM_007.jpg	99
2989.814	0.462	462.5	congruent	Block3	congruent/STIM_008.jpg	99
2993.156	0.548	547.7	congruent	Block3	congruent/STIM_008.jpg	100
2996.472	0.794	793.8	congruent	Block3	congruent/STIM_008.jpg	100
3001.221	0.529	528.6	congruent	Block3	congruent/STIM_008.jpg	100
3005.687	0.49	490.2	congruent	Block3	congruent/STIM_008.jpg	100
3008.268	0.526	525.7	congruent	Block3	congruent/STIM_009.jpg	99
3012.17	0.726	725.8	congruent	Block3	congruent/STIM_009.jpg	100
3016.439	0.759	758.8	congruent	Block3	congruent/STIM_009.jpg	99
3019.506	0.544	544.2	congruent	Block3	congruent/STIM_009.jpg	99
3023.837	0.79	790.3	congruent	Block3	congruent/STIM_009.jpg	100
3027.356	0.516	515.9	congruent	Block3	congruent/STIM_010.jpg	99
3030.898	0.569	568.7	congruent	Block3	congruent/STIM_010.jpg	100
3034.646	0.668	668.2	congruent	Block3	congruent/STIM_010.jpg	99
3037.984	0.462	462.1	congruent	Block3	congruent/STIM_010.jpg	99
3040.706	0.761	761.4	congruent	Block3	congruent/STIM_010.jpg	100
3044.149	0.671	671.3	congruent	Block3	congruent/STIM_011.jpg	100
3047.191	0.497	497.2	congruent	Block3	congruent/STIM_011.jpg	99
3050.565	0.588	587.9	congruent	Block3	congruent/STIM_011.jpg	100
3054.38	0.727	727.3	congruent	Block3	congruent/STIM_011.jpg	100
3058.636	0.502	501.8	congruent	Block3	congruent/STIM_011.jpg	100
3062.219	0.506	506.4	congruent	Block3	congruent/STIM_012.jpg	100
3065.383	0.67	669.8	congruent	Block3	congruent/STIM_012.jpg	100
3069.261	0.741	741.4	congruent	Block3	congruent/STIM_012.jpg	99
3072.857	0.621	621.3	congruent	Block3	congruent/STIM_012.jpg	100
3075.736	0.787	786.7	congruent	Block3	congruent/STIM_012.jpg	99
3079.077	0.579	579.0	congruent	Block3	congruent/STIM_013.jpg	100
3082.392	0.546	545.8	congruent	Block3	congruent/STIM_013.jpg	99
3086.383	0.544	544.0	congruent	Block3	congruent/STIM_013.jpg	99
3089.899	0.613	613.2	congruent	Block3	congruent/STIM_013.jpg	99
3093.759	0.487	486.8	congruent	Block3	congruent/STIM_013.jpg	100
3096.564	0.543	543.4	congruent	Block3	congruent/STIM_014.jpg	99
3100.817	0.595	594.8	congruent	Block3	congruent/STIM_014.jpg	99
3105.372	0.672	672.2	congruent	Block3	congruent/STIM_014.jpg	100
3108.163	0.711	710.7	congruent	Block3	congruent/STIM_014.jpg	99
3111.202	0.532	532.4	congruent	Block3	congruent/STIM_014.jpg	99
3114.898	0.782	782.0	congruent	Block3	congruent/STIM_015.jpg	99
3117.953	0.672	672.5	congruent	Block3	congruent/STIM_015.jpg	99
3121.661	0.617	617.3	congruent	Block3	congruent/STIM_015.jpg	100
3124.553	0.504	504.2	congruent	Block3	congruent/STIM_015.jpg	100
3127.627	0.585	585.4	congruent	Block3	congruent/STIM_015.jpg	99
3131.047	0.618	618.1	congruent	Block3	congruent/STIM_016.jpg	100
3134.273	0.658	658.1	congruent	Block3	congruent/STIM_016.jpg	100
3137.749	0.458	457.9	congruent	Block3	congruent/STIM_016.jpg	99
3140.266	0.784	784.1	congruent	Block3	congruent/STIM_016.jpg	99
3144.866	0.767	766.6	congruent	Block3	congruent/STIM_016.jpg	99
3149.193	0.785	784.8	congruent	Block3	congruent/STIM_017.jpg	100
3152.098	0.697	697.0	congruent	Block3	congruent/STIM_017.jpg	99
3156.666	0.789	789.4	congruent	Block3	congruent/STIM_017.jpg	99
3160.921	0.724	724.1	congruent	Block3	congruent/STIM_017.jpg	99
3164.729	0.566	565.8	congruent	Block3	congruent/STIM_017.jpg	99
3167.876	0.471	470.9	congruent	Block3	congruent/STIM_018.jpg	100
3170.452	0.671	670.8	congruent	Block3	congruent/STIM_018.jpg	100
3175.078	0.495	494.7	congruent	Block3	congruent/STIM_018.jpg	99
3178.699	0.702	701.5	congruent	Block3	congruent/STIM_018.jpg	99
3183.239	0.541	541.2	congruent	Block3	congruent/STIM_018.jpg	100
3187.481	0.543	542.7	congruent	Block3	congruent/STIM_019.jpg	99
3190.842	0.654	654.0	congruent	Block3	congruent/STIM_019.jpg	99
3194.789	0.757	757.4	congruent	Block3	congruent/STIM_019.jpg	100
3198.304	0.452	452.5	congruent	Block3	congruent/STIM_019.jpg	100
3202.296	0.667	666.6	congruent	Block3	congruent/STIM_019.jpg	100
3206.158	0.531	530.7	congruent	Block3	congruent/STIM_020.jpg	99
3208.969	0.652	652.1	congruent	Block3	congruent/STIM_020.jpg	99
3212.2	0.626	626.5	congruent	Block3	congruent/STIM_020.jpg	99
3215.211	0.75	749.7	congruent	Block3	congruent/STIM_020.jpg	100
3219.031	0.543	543.3	congruent	Block3	congruent/STIM_020.jpg	99
3223.605	0.583	583.1	congruent	Block3	congruent/STIM_021.jpg	100
3228.11	0.661	661.3	congruent	Block3	congruent/STIM_021.jpg	100
3232.466	0.485	484.7	congruent	Block3	congruent/STIM_021.jpg	99
3235.27	0.524	524.1	congruent	Block3	congruent/STIM_021.jpg	100
3239.394	0.478	478.0	congruent	Block3	congruent/STIM_021.jpg	100
3243.392	0.67	669.7	congruent	Block3	congruent/STIM_022.jpg	100
3247.095	0.649	649.1	congruent	Block3	congruent/STIM_022.jpg	99
3251.181	0.598	597.7	congruent	Block3	congruent/STIM_022.jpg	99
3255.439	0.455	454.9	congruent	Block3	congruent/STIM_022.jpg	99
3259.409	0.796	796.1	congruent	Block3	congruent/STIM_022.jpg	99
3263.955	0.599	598.9	congruent	Block3	congruent/STIM_023.jpg	99
3267.174	0.627	627.4	congruent	Block3	congruent/STIM_023.jpg	99
3270.966	0.726	726.0	congruent	Block3	congruent/STIM_023.jpg	99
3275.689	0.561	561.4	congruent	Block3	congruent/STIM_023.jpg	99
3279.049	0.654	653.9	congruent	Block3	congruent/STIM_023.jpg	99
3283.162	0.783	782.9	congruent	Block3	congruent/STIM_024.jpg	99
3286.529	0.567	567.3	congruent	Block3	congruent/STIM_024.jpg	100
3290.216	0.496	495.6	congruent	Block3	congruent/STIM_024.jpg	99
3293.09	0.651	651.2	congruent	Block3	congruent/STIM_024.jpg	99
3296.771	0.544	543.8	congruent	Block3	congruent/STIM_024.jpg	100
3299.429	0.673	672.8	congruent	Block3	congruent/STIM_025.jpg	99
3303.569	0.76	759.6	congruent	Block3	congruent/STIM_025.jpg	99
3307.013	0.546	546.1	congruent	Block3	congruent/STIM_025.jpg	99
3311.58	0.718	718.1	congruent	Block3	congruent/STIM_025.jpg	100
3314.443	0.715	714.8	congruent	Block3	congruent/STIM_025.jpg	100
3318.696	0.52	520.2	congruent	Block3	congruent/STIM_026.jpg	100
3323.202	0.714	713.6	congruent	Block3	congruent/STIM_026.jpg	100
3327.363	0.791	791.4	congruent	Block3	congruent/STIM_026.jpg	99
3331.543	0.628	627.8	congruent	Block3	congruent/STIM_026.jpg	99
3335.085	0.449	448.9	congruent	Block3	congruent/STIM_026.jpg	99
3338.835	0.612	612.0	congruent	Block3	congruent/STIM_027.jpg	99
3341.907	0.698	698.5	congruent	Block3	congruent/STIM_027.jpg	100
3344.956	0.624	624.0	congruent	Block3	congruent/STIM_027.jpg	100
3348.353	0.608	608.0	congruent	Block3	congruent/STIM_027.jpg	100
3351.209	0.468	468.1	congruent	Block3	congruent/STIM_027.jpg	100
3355.401	0.742	741.9	congruent	Block3	congruent/STIM_028.jpg	99
3358.361	0.521	521.2	congruent	Block3	congruent/STIM_028.jpg	100
3361.839	0.768	767.5	congruent	Block3	congruent/STIM_028.jpg	99
3366.357	0.464	463.8	congruent	Block3	congruent/STIM_028.jpg	99
3369.656	0.702	701.6	congruent	Block3	congruent/STIM_028.jpg	99
3373.039	0.767	767.0	congruent	Block3	congruent/STIM_029.jpg	99
3377.66	0.711	710.6	congruent	Block3	congruent/STIM_029.jpg	100
3381.54	0.618	618.0	congruent	Block3	congruent/STIM_029.jpg	99
3385.486	0.468	467.9	congruent	Block3	congruent/STIM_029.jpg	99
3389.154	0.628	628.1	congruent	Block3	congruent/STIM_029.jpg	100
