onset	duration	response_time_ms	trial_type	learning_stage	stimulus	response_port
0.0	0.984	983.8	incongruent	Block1	incongruent/STIM_000.jpg	100
3.681	0.872	871.5	incongruent	Block1	incongruent/STIM_000.jpg	99
7.707	0.878	878.1	incongruent	Block1	incongruent/STIM_000.jpg	99
11.451	0.705	705.4	incongruent	Block1	incongruent/STIM_000.jpg	99
14.832	0.615	614.8	incongruent	Block1	incongruent/STIM_000.jpg	99
19.214	1.177	1177.4	incongruent	Block1	incongruent/STIM_001.jpg	99
22.553	1.03	1030.0	incongruent	Block1	incongruent/STIM_001.jpg	99
26.824	0.942	942.3	incongruent	Block1	incongruent/STIM_001.jpg	99
30.7	1.126	1125.7	incongruent	Block1	incongruent/STIM_001.jpg	100
34.745	1.064	1063.6	incongruent	Block1	incongruent/STIM_001.jpg	100
39.764	1.294	1294.5	incongruent	Block1	incongruent/STIM_002.jpg	100
43.182	1.173	1173.3	incongruent	Block1	incongruent/STIM_002.jpg	99
47.637	0.938	938.5	incongruent	Block1	incongruent/STIM_002.jpg	99
51.177	1.101	1100.6	incongruent	Block1	incongruent/STIM_002.jpg	100
55.158	0.619	619.4	incongruent	Block1	incongruent/STIM_002.jpg	99
59.334	1.421	1421.4	incongruent	Block1	incongruent/STIM_003.jpg	99
62.855	1.469	1468.8	incongruent	Block1	incongruent/STIM_003.jpg	99
66.857	0.864	864.2	incongruent	Block1	incongruent/STIM_003.jpg	99
70.218	0.936	935.7	incongruent	Block1	incongruent/STIM_003.jpg	99
74.428	0.779	778.6	incongruent	Block1	incongruent/STIM_003.jpg	99
78.648	1.424	1423.5	incongruent	Block1	incongruent/STIM_004.jpg	99
83.621	1.076	1075.6	incongruent	Block1	incongruent/STIM_004.jpg	99
88.521	1.128	1127.9	incongruent	Block1	incongruent/STIM_004.jpg	99
92.45	1.103	1103.0	incongruent	Block1	incongruent/STIM_004.jpg	100
97.489	1.233	1232.7	incongruent	Block1	incongruent/STIM_004.jpg	100
101.889	1.107	1106.7	incongruent	Block1	incongruent/STIM_005.jpg	100
105.535	1.442	1441.8	incongruent	Block1	incongruent/STIM_005.jpg	99
109.774	1.414	1414.1	incongruent	Block1	incongruent/STIM_005.jpg	100
113.602	0.675	675.3	incongruent	Block1	incongruent/STIM_005.jpg	99
117.5	0.888	888.0	incongruent	Block1	incongruent/STIM_005.jpg	100
120.392	1.209	1208.7	incongruent	Block1	incongruent/STIM_006.jpg	100
125.018	1.023	1023.0	incongruent	Block1	incongruent/STIM_006.jpg	99
128.084	1.261	1260.9	incongruent	Block1	incongruent/STIM_006.jpg	100
132.698	1.266	1265.8	incongruent	Block1	incongruent/STIM_006.jpg	100
136.845	1.01	1009.5	incongruent	Block1	incongruent/STIM_006.jpg	99
140.176	1.53	1529.7	incongruent	Block1	incongruent/STIM_007.jpg	100
145.229	1.128	1128.4	incongruent	Block1	incongruent/STIM_007.jpg	100
149.659	1.282	1282.1	incongruent	Block1	incongruent/STIM_007.jpg	100
153.941	1.333	1333.3	incongruent	Block1	incongruent/STIM_007.jpg	100
158.819	0.674	673.9	incongruent	Block1	incongruent/STIM_007.jpg	99
163.219	0.921	920.7	incongruent	Block1	incongruent/STIM_008.jpg	99
166.767	1.359	1359.2	incongruent	Block1	incongruent/STIM_008.jpg	99
171.498	1.04	1039.6	incongruent	Block1	incongruent/STIM_008.jpg	99
175.017	0.814	814.5	incongruent	Block1	incongruent/STIM_008.jpg	99
177.978	0.783	782.9	incongruent	Block1	incongruent/STIM_008.jpg	99
181.066	1.514	1513.6	incongruent	Block1	incongruent/STIM_009.jpg	99
185.919	1.539	1538.9	incongruent	Block1	incongruent/STIM_009.jpg	99
189.978	0.882	882.3	incongruent	Block1	incongruent/STIM_009.jpg	99
194.439	0.862	862.5	incongruent	Block1	incongruent/STIM_009.jpg	100
198.101	0.923	923.1	incongruent	Block1	incongruent/STIM_009.jpg	99
201.309	0.997	997.4	incongruent	Block1	incongruent/STIM_010.jpg	99
204.383	1.178	1177.8	incongruent	Block1	incongruent/STIM_010.jpg	100
208.548	1.396	1395.7	incongruent	Block1	incongruent/STIM_010.jpg	99
213.063	1.112	1111.8	incongruent	Block1	incongruent/STIM_010.jpg	99
218.058	0.907	906.9	incongruent	Block1	incongruent/STIM_010.jpg	99
221.811	1.29	1289.5	incongruent	Block1	incongruent/STIM_011.jpg	100
226.25	1.19	1189.8	incongruent	Block1	incongruent/STIM_011.jpg	99
229.781	0.993	993.4	incongruent	Block1	incongruent/STIM_011.jpg	100
234.102	1.118	1117.9	incongruent	Block1	incongruent/STIM_011.jpg	99
238.142	1.089	1088.8	incongruent	Block1	incongruent/STIM_011.jpg	99
242.337	1.333	1333.3	incongruent	Block1	incongruent/STIM_012.jpg	99
245.896	1.403	1403.0	incongruent	Block1	incongruent/STIM_012.jpg	100
250.688	1.282	1282.2	incongruent	Block1	incongruent/STIM_012.jpg	99
255.59	0.762	761.6	incongruent	Block1	incongruent/STIM_012.jpg	99
259.941	1.204	1204.3	incongruent	Block1	incongruent/STIM_012.jpg	99
264.703	0.838	837.9	incongruent	Block1	incongruent/STIM_013.jpg	99
268.77	1.325	1324.7	incongruent	Block1	incongruent/STIM_013.jpg	100
274.028	1.4	1400.5	incongruent	Block1	incongruent/STIM_013.jpg	99
277.729	0.861	860.7	incongruent	Block1	incongruent/STIM_013.jpg	99
280.633	1.173	1172.8	incongruent	Block1	incongruent/STIM_013.jpg	100
285.032	0.845	844.8	incongruent	Block1	incongruent/STIM_014.jpg	99
289.117	1.37	1370.1	incongruent	Block1	incongruent/STIM_014.jpg	99
293.175	1.022	1021.6	incongruent	Block1	incongruent/STIM_014.jpg	99
296.741	0.862	861.5	incongruent	Block1	incongruent/STIM_014.jpg	100
301.44	0.913	912.6	incongruent	Block1	incongruent/STIM_014.jpg	100
305.685	0.945	945.1	incongruent	Block1	incongruent/STIM_015.jpg	99
308.691	0.748	747.9	incongruent	Block1	incongruent/STIM_015.jpg	100
311.67	1.421	1420.6	incongruent	Block1	incongruent/STIM_015.jpg	99
315.805	1.344	1343.6	incongruent	Block1	incongruent/STIM_015.jpg	100
320.92	1.003	1003.0	incongruent	Block1	incongruent/STIM_015.jpg	100
325.916	1.153	1153.2	incongruent	Block1	incongruent/STIM_016.jpg	99
330.683	1.484	1484.1	incongruent	Block1	incongruent/STIM_016.jpg	100
335.775	0.708	708.0	incongruent	Block1	incongruent/STIM_016.jpg	99
338.695	0.75	750.0	incongruent	Block1	incongruent/STIM_016.jpg	99
342.365	0.974	973.6	incongruent	Block1	incongruent/STIM_016.jpg	99
346.981	1.495	1495.2	incongruent	Block1	incongruent/STIM_017.jpg	100
352.363	1.02	1020.1	incongruent	Block1	incongruent/STIM_017.jpg	100
356.327	1.334	1334.1	incongruent	Block1	incongruent/STIM_017.jpg	100
360.336	0.788	787.8	incongruent	Block1	incongruent/STIM_017.jpg	99
364.315	1.053	1052.9	incongruent	Block1	incongruent/STIM_017.jpg	99
368.877	1.063	1063.4	incongruent	Block1	incongruent/STIM_018.jpg	100
372.017	0.913	912.9	incongruent	Block1	incongruent/STIM_018.jpg	100
376.641	1.323	1322.9	incongruent	Block1	incongruent/STIM_018.jpg	99
380.251	0.69	690.3	incongruent	Block1	incongruent/STIM_018.jpg	100
383.831	0.657	657.1	incongruent	Block1	incongruent/STIM_018.jpg	100
386.77	1.21	1209.8	incongruent	Block1	incongruent/STIM_019.jpg	100
390.551	1.548	1548.1	incongruent	Block1	incongruent/STIM_019.jpg	100
395.522	0.958	958.1	incongruent	Block1	incongruent/STIM_019.jpg	100
399.133	0.863	863.1	incongruent	Block1	incongruent/STIM_019.jpg	99
403.63	0.816	816.4	incongruent	Block1	incongruent/STIM_019.jpg	100
408.444	0.974	974.1	incongruent	Block1	incongruent/STIM_020.jpg	100
412.026	1.464	1463.8	incongruent	Block1	incongruent/STIM_020.jpg	99
416.054	1.451	1451.2	incongruent	Block1	incongruent/STIM_020.jpg	100
420.755	0.8	800.4	incongruent	Block1	incongruent/STIM_020.jpg	99
424.406	0.671	670.9	incongruent	Block1	incongruent/STIM_020.jpg	100
427.47	1.543	1543.4	incongruent	Block1	incongruent/STIM_021.jpg	100
432.345	1.072	1072.2	incongruent	Block1	incongruent/STIM_021.jpg	99
437.346	0.766	765.8	incongruent	Block1	incongruent/STIM_021.jpg	99
441.007	0.708	707.5	incongruent	Block1	incongruent/STIM_021.jpg	99
443.741	1.199	1198.8	incongruent	Block1	incongruent/STIM_021.jpg	100
446.989	1.0	999.5	incongruent	Block1	incongruent/STIM_022.jpg	99
450.412	1.372	1372.2	incongruent	Block1	incongruent/STIM_022.jpg	100
455.671	1.429	1428.6	incongruent	Block1	incongruent/STIM_022.jpg	99
459.694	1.167	1166.9	incongruent	Block1	incongruent/STIM_022.jpg	100
463.412	0.756	756.2	incongruent	Block1	incongruent/STIM_022.jpg	99
467.272	1.622	1622.2	incongruent	Block1	incongruent/STIM_023.jpg	99
472.27	1.117	1117.2	incongruent	Block1	incongruent/STIM_023.jpg	99
475.84	0.878	878.3	incongruent	Block1	incongruent/STIM_023.jpg	100
480.394	1.226	1225.6	incongruent	Block1	incongruent/STIM_023.jpg	100
484.905	0.787	787.4	incongruent	Block1	incongruent/STIM_023.jpg	99
489.636	1.458	1457.5	incongruent	Block1	incongruent/STIM_024.jpg	99
494.572	1.014	1013.6	incongruent	Block1	incongruent/STIM_024.jpg	99
498.095	1.028	1028.2	incongruent	Block1	incongruent/STIM_024.jpg	100
502.443	1.112	1112.0	incongruent	Block1	incongruent/STIM_024.jpg	100
506.082	1.275	1274.8	incongruent	Block1	incongruent/STIM_024.jpg	99
510.983	1.588	1588.2	incongruent	Block1	incongruent/STIM_025.jpg	100
515.303	1.256	1255.8	incongruent	Block1	incongruent/STIM_025.jpg	100
518.766	1.172	1171.6	incongruent	Block1	incongruent/STIM_025.jpg	99
523.745	0.784	783.8	incongruent	Block1	incongruent/STIM_025.jpg	100
528.139	0.702	701.7	incongruent	Block1	incongruent/STIM_025.jpg	100
531.678	0.771	770.9	incongruent	Block1	incongruent/STIM_026.jpg	99
535.619	1.369	1369.1	incongruent	Block1	incongruent/STIM_026.jpg	99
539.029	1.258	1258.1	incongruent	Block1	incongruent/STIM_026.jpg	99
543.576	1.245	1244.8	incongruent	Block1	incongruent/STIM_026.jpg	100
547.035	0.956	955.9	incongruent	Block1	incongruent/STIM_026.jpg	100
550.825	1.023	1022.8	incongruent	Block1	incongruent/STIM_027.jpg	99
554.451	1.486	1486.4	incongruent	Block1	incongruent/STIM_027.jpg	99
559.342	0.771	770.8	incongruent	Block1	incongruent/STIM_027.jpg	99
563.559	0.878	877.5	incongruent	Block1	incongruent/STIM_027.jpg	99
568.419	0.886	885.9	incongruent	Block1	incongruent/STIM_027.jpg	100
572.605	1.015	1015.2	incongruent	Block1	incongruent/STIM_028.jpg	100
577.108	1.291	1290.9	incongruent	Block1	incongruent/STIM_028.jpg	100
582.223	0.832	832.0	incongruent	Block1	incongruent/STIM_028.jpg	100
586.581	0.772	771.8	incongruent	Block1	incongruent/STIM_028.jpg	100
590.7	0.983	982.7	incongruent	Block1	incongruent/STIM_028.jpg	100
595.536	1.068	1068.5	incongruent	Block1	incongruent/STIM_029.jpg	99
599.378	0.796	795.6	incongruent	Block1	incongruent/STIM_029.jpg	100
602.493	1.42	1419.8	incongruent	Block1	incongruent/STIM_029.jpg	99
607.414	1.235	1235.4	incongruent	Block1	incongruent/STIM_029.jpg	99
612.04	1.249	1248.8	incongruent	Block1	incongruent/STIM_029.jpg	100
615.462	0.892	891.5	congruent	Block1	congruent/STIM_000.jpg	99
620.106	0.69	689.8	congruent	Block1	congruent/STIM_000.jpg	100
624.331	0.786	786.3	congruent	Block1	congruent/STIM_000.jpg	99
628.531	0.6	600.1	congruent	Block1	congruent/STIM_000.jpg	100
632.027	0.721	721.3	congruent	Block1	congruent/STIM_000.jpg	100
636.704	0.736	736.1	congruent	Block1	congruent/STIM_001.jpg	100
641.284	0.673	673.4	congruent	Block1	congruent/STIM_001.jpg	100
645.055	0.845	845.2	congruent	Block1	congruent/STIM_001.jpg	100
649.422	0.567	566.9	congruent	Block1	congruent/STIM_001.jpg	100
652.984	0.815	814.8	congruent	Block1	congruent/STIM_001.jpg	100
655.993	0.581	580.7	congruent	Block1	congruent/STIM_002.jpg	100
660.276	0.789	789.3	congruent	Block1	congruent/STIM_002.jpg	99
663.401	0.917	917.0	congruent	Block1	congruent/STIM_002.jpg	99
668.144	0.686	686.0	congruent	Block1	congruent/STIM_002.jpg	99
671.432	0.812	812.4	congruent	Block1	congruent/STIM_002.jpg	100
676.075	0.872	871.8	congruent	Block1	congruent/STIM_003.jpg	99
679.358	0.725	724.9	congruent	Block1	congruent/STIM_003.jpg	99
683.702	0.97	969.7	congruent	Block1	congruent/STIM_003.jpg	100
687.389	0.96	959.9	congruent	Block1	congruent/STIM_003.jpg	100
691.252	0.664	663.7	congruent	Block1	congruent/STIM_003.jpg	99
694.365	0.691	690.9	congruent	Block1	congruent/STIM_004.jpg	99
698.096	0.974	973.5	congruent	Block1	congruent/STIM_004.jpg	99
701.48	0.824	823.8	congruent	Block1	congruent/STIM_004.jpg	99
704.422	0.767	766.7	congruent	Block1	congruent/STIM_004.jpg	99
708.197	0.736	735.8	congruent	Block1	congruent/STIM_004.jpg	99
711.819	0.645	644.9	congruent	Block1	congruent/STIM_005.jpg	100
714.682	0.849	849.0	congruent	Block1	congruent/STIM_005.jpg	100
717.773	0.719	719.0	congruent	Block1	congruent/STIM_005.jpg	100
721.314	0.577	577.2	congruent	Block1	congruent/STIM_005.jpg	99
723.989	0.931	931.4	congruent	Block1	congruent/STIM_005.jpg	99
728.131	0.955	954.9	congruent	Block1	congruent/STIM_006.jpg	99
731.116	0.9	900.0	congruent	Block1	congruent/STIM_006.jpg	100
735.504	0.95	950.2	congruent	Block1	congruent/STIM_006.jpg	99
738.793	0.868	868.4	congruent	Block1	congruent/STIM_006.jpg	99
742.288	0.896	896.1	congruent	Block1	congruent/STIM_006.jpg	100
746.06	0.621	620.7	congruent	Block1	congruent/STIM_007.jpg	100
749.632	0.966	966.3	congruent	Block1	congruent/STIM_007.jpg	100
754.027	0.763	762.6	congruent	Block1	congruent/STIM_007.jpg	99
757.522	0.584	584.4	congruent	Block1	congruent/STIM_007.jpg	100
760.202	0.912	911.7	congruent	Block1	congruent/STIM_007.jpg	100
764.768	0.982	981.9	congruent	Block1	congruent/STIM_008.jpg	99
769.513	0.678	677.5	congruent	Block1	congruent/STIM_008.jpg	99
772.462	0.708	708.3	congruent	Block1	congruent/STIM_008.jpg	99
775.33	0.907	906.6	congruent	Block1	congruent/STIM_008.jpg	99
779.366	0.866	865.6	congruent	Block1	congruent/STIM_008.jpg	100
782.437	0.925	925.4	congruent	Block1	congruent/STIM_009.jpg	100
786.577	0.829	828.8	congruent	Block1	congruent/STIM_009.jpg	100
789.976	0.903	902.9	congruent	Block1	congruent/STIM_009.jpg	99
794.545	0.711	711.3	congruent	Block1	congruent/STIM_009.jpg	100
797.324	0.982	981.5	congruent	Block1	congruent/STIM_009.jpg	100
802.214	0.738	738.3	congruent	Block1	congruent/STIM_010.jpg	99
806.304	0.765	764.8	congruent	Block1	congruent/STIM_010.jpg	99
809.877	0.784	784.3	congruent	Block1	congruent/STIM_010.jpg	99
814.211	0.723	723.2	congruent	Block1	congruent/STIM_010.jpg	100
818.697	0.656	655.8	congruent	Block1	congruent/STIM_010.jpg	100
822.85	0.652	651.9	congruent	Block1	congruent/STIM_011.jpg	100
825.561	0.879	879.2	congruent	Block1	congruent/STIM_011.jpg	99
828.629	0.63	630.4	congruent	Block1	congruent/STIM_011.jpg	99
831.646	0.885	884.7	congruent	Block1	congruent/STIM_011.jpg	99
836.363	0.759	759.4	congruent	Block1	congruent/STIM_011.jpg	100
841.018	0.929	928.9	congruent	Block1	congruent/STIM_012.jpg	100
844.552	0.962	961.8	congruent	Block1	congruent/STIM_012.jpg	100
849.413	0.582	582.3	congruent	Block1	congruent/STIM_012.jpg	100
853.016	0.798	798.3	congruent	Block1	congruent/STIM_012.jpg	99
857.379	0.581	580.8	congruent	Block1	congruent/STIM_012.jpg	100
861.037	0.786	786.2	congruent	Block1	congruent/STIM_013.jpg	99
864.011	0.971	970.8	congruent	Block1	congruent/STIM_013.jpg	100
868.529	0.907	906.7	congruent	Block1	congruent/STIM_013.jpg	99
872.226	0.848	847.9	congruent	Block1	congruent/STIM_013.jpg	100
875.575	0.835	835.1	congruent	Block1	congruent/STIM_013.jpg	99
880.298	0.665	665.1	congruent	Block1	congruent/STIM_014.jpg	99
883.859	0.587	586.6	congruent	Block1	congruent/STIM_014.jpg	99
886.92	0.669	669.4	congruent	Block1	congruent/STIM_014.jpg	100
889.757	0.721	721.4	congruent	Block1	congruent/STIM_014.jpg	100
893.786	0.978	978.1	congruent	Block1	congruent/STIM_014.jpg	100
896.842	0.855	854.7	congruent	Block1	congruent/STIM_015.jpg	99
900.549	0.736	736.4	congruent	Block1	congruent/STIM_015.jpg	100
904.321	0.765	765.2	congruent	Block1	congruent/STIM_015.jpg	99
908.488	0.573	573.1	congruent	Block1	congruent/STIM_015.jpg	100
912.412	0.853	853.2	congruent	Block1	congruent/STIM_015.jpg	99
915.971	0.953	953.3	congruent	Block1	congruent/STIM_016.jpg	100
919.223	0.721	721.4	congruent	Block1	congruent/STIM_016.jpg	99
922.013	0.808	808.0	congruent	Block1	congruent/STIM_016.jpg	99
926.81	0.756	755.9	congruent	Block1	congruent/STIM_016.jpg	99
931.282	0.777	777.1	congruent	Block1	congruent/STIM_016.jpg	100
935.773	0.852	852.4	congruent	Block1	congruent/STIM_017.jpg	99
940.469	0.957	957.4	congruent	Block1	congruent/STIM_017.jpg	100
944.499	0.679	679.3	congruent	Block1	congruent/STIM_017.jpg	99
948.244	0.729	729.3	congruent	Block1	congruent/STIM_017.jpg	100
952.515	0.807	807.0	congruent	Block1	congruent/STIM_017.jpg	100
956.5	0.66	660.1	congruent	Block1	congruent/STIM_018.jpg	99
960.678	0.595	595.0	congruent	Block1	congruent/STIM_018.jpg	99
963.889	0.745	744.9	congruent	Block1	congruent/STIM_018.jpg	99
966.818	0.791	790.8	congruent	Block1	congruent/STIM_018.jpg	99
971.436	0.772	771.9	congruent	Block1	congruent/STIM_018.jpg	99
974.692	0.922	922.1	congruent	Block1	congruent/STIM_019.jpg	99
979.289	0.604	603.9	congruent	Block1	congruent/STIM_019.jpg	99
982.611	0.809	808.7	congruent	Block1	congruent/STIM_019.jpg	99
985.726	0.785	785.1	congruent	Block1	congruent/STIM_019.jpg	99
989.215	0.715	715.1	congruent	Block1	congruent/STIM_019.jpg	99
992.765	0.649	649.4	congruent	Block1	congruent/STIM_020.jpg	99
996.852	0.695	695.0	congruent	Block1	congruent/STIM_020.jpg	99
1001.208	0.689	689.3	congruent	Block1	congruent/STIM_020.jpg	100
1004.245	0.561	561.1	congruent	Block1	congruent/STIM_020.jpg	99
1008.198	0.704	703.5	congruent	Block1	congruent/STIM_020.jpg	100
1011.716	0.961	960.9	congruent	Block1	congruent/STIM_021.jpg	99
1015.188	0.896	896.0	congruent	Block1	congruent/STIM_021.jpg	99
1018.953	0.828	828.3	congruent	Block1	congruent/STIM_021.jpg	99
1021.879	0.554	553.5	congruent	Block1	congruent/STIM_021.jpg	100
1025.876	0.859	859.3	congruent	Block1	congruent/STIM_021.jpg	99
1030.33	0.604	604.4	congruent	Block1	congruent/STIM_022.jpg	100
1033.679	0.825	825.0	congruent	Block1	congruent/STIM_022.jpg	100
1038.261	0.609	608.8	congruent	Block1	congruent/STIM_022.jpg	99
1041.765	0.744	743.5	congruent	Block1	congruent/STIM_022.jpg	99
1046.232	0.658	658.2	congruent	Block1	congruent/STIM_022.jpg	100
1049.73	0.875	875.4	congruent	Block1	congruent/STIM_023.jpg	100
1053.294	0.665	664.9	congruent	Block1	congruent/STIM_023.jpg	99
1057.674	0.806	805.5	congruent	Block1	congruent/STIM_023.jpg	100
1061.321	0.69	690.5	congruent	Block1	congruent/STIM_023.jpg	100
1065.039	0.652	651.6	congruent	Block1	congruent/STIM_023.jpg	100
1069.137	0.758	758.0	congruent	Block1	congruent/STIM_024.jpg	100
1073.858	0.667	666.6	congruent	Block1	congruent/STIM_024.jpg	99
1078.46	0.559	559.1	congruent	Block1	congruent/STIM_024.jpg	100
1081.034	0.846	846.3	congruent	Block1	congruent/STIM_024.jpg	100
1085.43	0.809	809.1	congruent	Block1	congruent/STIM_024.jpg	100
1089.215	0.846	846.3	congruent	Block1	congruent/STIM_025.jpg	99
1092.607	0.616	616.0	congruent	Block1	congruent/STIM_025.jpg	100
1096.856	0.83	830.0	congruent	Block1	congruent/STIM_025.jpg	100
1101.106	0.715	714.7	congruent	Block1	congruent/STIM_025.jpg	99
1104.548	0.882	881.6	congruent	Block1	congruent/STIM_025.jpg	99
1108.903	0.71	710.1	congruent	Block1	congruent/STIM_026.jpg	99
1111.922	0.71	710.0	congruent	Block1	congruent/STIM_026.jpg	100
1114.793	0.569	569.0	congruent	Block1	congruent/STIM_026.jpg	99
1117.8	0.629	629.0	congruent	Block1	congruent/STIM_026.jpg	99
1121.172	0.76	760.5	congruent	Block1	congruent/STIM_026.jpg	100
1125.193	0.728	727.7	congruent	Block1	congruent/STIM_027.jpg	99
1128.062	0.931	930.7	congruent	Block1	congruent/STIM_027.jpg	100
1131.995	0.895	895.1	congruent	Block1	congruent/STIM_027.jpg	100
1136.289	0.719	718.9	congruent	Block1	congruent/STIM_027.jpg	100
1139.715	0.562	561.7	congruent	Block1	congruent/STIM_027.jpg	99
1143.036	0.739	739.1	congruent	Block1	congruent/STIM_028.jpg	100
1146.099	0.64	639.5	congruent	Block1	congruent/STIM_028.jpg	100
1148.832	0.893	893.0	congruent	Block1	congruent/STIM_028.jpg	99
1153.572	0.97	970.2	congruent	Block1	congruent/STIM_028.jpg	99
1157.378	0.599	598.8	congruent	Block1	congruent/STIM_028.jpg	100
1161.703	0.839	839.0	congruent	Block1	congruent/STIM_029.jpg	100
1165.324	0.866	865.9	congruent	Block1	congruent/STIM_029.jpg	100
1168.674	0.596	596.2	congruent	Block1	congruent/STIM_029.jpg	100
1172.004	0.86	859.6	congruent	Block1	congruent/STIM_029.jpg	99
1174.916	0.688	688.3	congruent	Block1	congruent/STIM_029.jpg	99
1179.162	1.076	1076.1	incongruent	Block2	incongruent/STIM_000.jpg	100
1182.311	1.036	1036.1	incongruent	Block2	incongruent/STIM_000.jpg	99
1186.373	0.851	851.1	incongruent	Block2	incongruent/STIM_000.jpg	99
1191.12	1.109	1108.7	incongruent	Block2	incongruent/STIM_000.jpg	99
1196.119	0.678	678.4	incongruent	Block2	incongruent/STIM_000.jpg	100
1199.811	0.916	916.3	incongruent	Block2	incongruent/STIM_001.jpg	99
1203.475	0.927	926.7	incongruent	Block2	incongruent/STIM_001.jpg	100
1207.161	0.876	876.3	incongruent	Block2	incongruent/STIM_001.jpg	99
1211.404	0.563	562.8	incongruent	Block2	incongruent/STIM_001.jpg	100
1214.682	0.641	641.1	incongruent	Block2	incongruent/STIM_001.jpg	99
1218.361	0.654	653.6	incongruent	Block2	incongruent/STIM_002.jpg	99
1221.376	0.724	724.4	incongruent	Block2	incongruent/STIM_002.jpg	99
1225.712	0.587	586.6	incongruent	Block2	incongruent/STIM_002.jpg	99
1228.688	0.963	963.1	incongruent	Block2	incongruent/STIM_002.jpg	100
1233.423	0.75	749.9	incongruent	Block2	incongruent/STIM_002.jpg	100
1236.934	1.278	1277.6	incongruent	Block2	incongruent/STIM_003.jpg	99
1242.193	0.823	822.6	incongruent	Block2	incongruent/STIM_003.jpg	100
1245.52	0.859	858.6	incongruent	Block2	incongruent/STIM_003.jpg	100
1249.504	0.536	536.5	incongruent	Block2	incongruent/STIM_003.jpg	99
1252.237	0.586	586.4	incongruent	Block2	incongruent/STIM_003.jpg	100
1256.375	0.667	667.2	incongruent	Block2	incongruent/STIM_004.jpg	99
1260.055	0.983	983.1	incongruent	Block2	incongruent/STIM_004.jpg	100
1264.466	0.612	612.4	incongruent	Block2	incongruent/STIM_004.jpg	100
1267.61	1.075	1075.3	incongruent	Block2	incongruent/STIM_004.jpg	100
1271.048	0.744	744.3	incongruent	Block2	incongruent/STIM_004.jpg	99
1275.664	0.868	868.2	incongruent	Block2	incongruent/STIM_005.jpg	99
1280.002	1.058	1057.5	incongruent	Block2	incongruent/STIM_005.jpg	99
1283.16	1.166	1166.4	incongruent	Block2	incongruent/STIM_005.jpg	100
1288.23	0.975	974.9	incongruent	Block2	incongruent/STIM_005.jpg	100
1292.886	0.652	651.9	incongruent	Block2	incongruent/STIM_005.jpg	99
1297.038	0.883	883.3	incongruent	Block2	incongruent/STIM_006.jpg	99
1300.638	1.285	1285.0	incongruent	Block2	incongruent/STIM_006.jpg	99
1304.912	0.617	616.6	incongruent	Block2	incongruent/STIM_006.jpg	100
1308.405	0.613	612.6	incongruent	Block2	incongruent/STIM_006.jpg	99
1312.84	0.965	964.7	incongruent	Block2	incongruent/STIM_006.jpg	100
1316.457	1.043	1042.6	incongruent	Block2	incongruent/STIM_007.jpg	100
1320.157	0.97	969.8	incongruent	Block2	incongruent/STIM_007.jpg	99
1323.194	0.81	809.6	incongruent	Block2	incongruent/STIM_007.jpg	100
1327.889	0.845	845.2	incongruent	Block2	incongruent/STIM_007.jpg	100
1331.396	0.638	638.2	incongruent	Block2	incongruent/STIM_007.jpg	100
1335.66	1.035	1034.9	incongruent	Block2	incongruent/STIM_008.jpg	100
1340.449	0.985	985.2	incongruent	Block2	incongruent/STIM_008.jpg	99
1345.072	1.221	1220.7	incongruent	Block2	incongruent/STIM_008.jpg	100
1349.74	1.078	1078.1	incongruent	Block2	incongruent/STIM_008.jpg	100
1353.024	1.014	1014.2	incongruent	Block2	incongruent/STIM_008.jpg	99
1357.929	1.257	1257.0	incongruent	Block2	incongruent/STIM_009.jpg	99
1363.026	0.651	651.3	incongruent	Block2	incongruent/STIM_009.jpg	100
1366.569	1.223	1222.9	incongruent	Block2	incongruent/STIM_009.jpg	99
1371.394	0.68	679.9	incongruent	Block2	incongruent/STIM_009.jpg	100
1374.109	0.539	539.0	incongruent	Block2	incongruent/STIM_009.jpg	99
1377.133	0.968	967.7	incongruent	Block2	incongruent/STIM_010.jpg	100
1380.576	0.944	944.3	incongruent	Block2	incongruent/STIM_010.jpg	100
1384.307	1.034	1033.9	incongruent	Block2	incongruent/STIM_010.jpg	100
1387.539	0.576	576.1	incongruent	Block2	incongruent/STIM_010.jpg	99
1390.614	1.024	1024.1	incongruent	Block2	incongruent/STIM_010.jpg	99
1393.654	0.939	939.1	incongruent	Block2	incongruent/STIM_011.jpg	99
1397.591	0.766	766.5	incongruent	Block2	incongruent/STIM_011.jpg	100
1400.723	0.817	816.6	incongruent	Block2	incongruent/STIM_011.jpg	100
1404.784	0.607	607.0	incongruent	Block2	incongruent/STIM_011.jpg	99
1408.96	0.919	919.1	incongruent	Block2	incongruent/STIM_011.jpg	100
1413.766	1.073	1073.4	incongruent	Block2	incongruent/STIM_012.jpg	100
1418.26	0.732	731.5	incongruent	Block2	incongruent/STIM_012.jpg	99
1422.27	0.614	613.8	incongruent	Block2	incongruent/STIM_012.jpg	99
1426.515	1.111	1110.7	incongruent	Block2	incongruent/STIM_012.jpg	100
1429.917	0.882	881.8	incongruent	Block2	incongruent/STIM_012.jpg	100
1433.566	0.877	876.7	incongruent	Block2	incongruent/STIM_013.jpg	100
1437.939	1.109	1108.8	incongruent	Block2	incongruent/STIM_013.jpg	100
1441.841	1.218	1218.3	incongruent	Block2	incongruent/STIM_013.jpg	100
1445.06	1.09	1090.2	incongruent	Block2	incongruent/STIM_013.jpg	99
1448.449	0.822	821.8	incongruent	Block2	incongruent/STIM_013.jpg	100
1452.79	0.708	708.1	incongruent	Block2	incongruent/STIM_014.jpg	99
1455.536	1.27	1270.4	incongruent	Block2	incongruent/STIM_014.jpg	100
1459.825	0.633	633.1	incongruent	Block2	incongruent/STIM_014.jpg	100
1462.72	0.792	792.4	incongruent	Block2	incongruent/STIM_014.jpg	100
1467.225	0.82	820.0	incongruent	Block2	incongruent/STIM_014.jpg	100
1470.459	1.148	1148.5	incongruent	Block2	incongruent/STIM_015.jpg	100
1475.077	0.881	881.0	incongruent	Block2	incongruent/STIM_015.jpg	100
1478.608	0.736	736.2	incongruent	Block2	incongruent/STIM_015.jpg	100
1481.507	0.669	669.2	incongruent	Block2	incongruent/STIM_015.jpg	100
1486.051	0.711	710.9	incongruent	Block2	incongruent/STIM_015.jpg	100
1489.189	0.77	769.5	incongruent	Block2	incongruent/STIM_016.jpg	100
1493.299	1.024	1023.6	incongruent	Block2	incongruent/STIM_016.jpg	100
1496.542	1.14	1140.4	incongruent	Block2	incongruent/STIM_016.jpg	100
1500.743	0.985	984.9	incongruent	Block2	incongruent/STIM_016.jpg	100
1504.018	0.558	557.8	incongruent	Block2	incongruent/STIM_016.jpg	99
1506.954	1.114	1114.3	incongruent	Block2	incongruent/STIM_017.jpg	100
1511.331	0.996	995.5	incongruent	Block2	incongruent/STIM_017.jpg	100
1515.089	1.193	1193.0	incongruent	Block2	incongruent/STIM_017.jpg	100
1520.091	0.936	935.7	incongruent	Block2	incongruent/STIM_017.jpg	99
1523.326	0.821	820.6	incongruent	Block2	incongruent/STIM_017.jpg	100
1526.942	0.998	998.2	incongruent	Block2	incongruent/STIM_018.jpg	99
1530.013	0.687	686.8	incongruent	Block2	incongruent/STIM_018.jpg	99
1532.82	0.893	893.0	incongruent	Block2	incongruent/STIM_018.jpg	100
1536.75	0.653	652.7	incongruent	Block2	incongruent/STIM_018.jpg	100
1540.375	0.988	987.8	incongruent	Block2	incongruent/STIM_018.jpg	100
1543.706	1.045	1045.4	incongruent	Block2	incongruent/STIM_019.jpg	99
1546.884	0.723	722.6	incongruent	Block2	incongruent/STIM_019.jpg	100
1551.264	0.877	876.6	incongruent	Block2	incongruent/STIM_019.jpg	99
1554.18	0.862	861.9	incongruent	Block2	incongruent/STIM_019.jpg	99
1557.277	0.536	536.2	incongruent	Block2	incongruent/STIM_019.jpg	100
1560.123	0.818	818.3	incongruent	Block2	incongruent/STIM_020.jpg	100
1563.662	0.674	674.0	incongruent	Block2	incongruent/STIM_020.jpg	99
1566.698	1.14	1139.6	incongruent	Block2	incongruent/STIM_020.jpg	99
1571.234	0.989	989.1	incongruent	Block2	incongruent/STIM_020.jpg	100
1574.395	1.125	1125.1	incongruent	Block2	incongruent/STIM_020.jpg	100
1578.194	1.202	1202.4	incongruent	Block2	incongruent/STIM_021.jpg	100
1582.839	0.905	905.2	incongruent	Block2	incongruent/STIM_021.jpg	100
1587.058	0.966	965.9	incongruent	Block2	incongruent/STIM_021.jpg	100
1591.216	0.912	912.0	incongruent	Block2	incongruent/STIM_021.jpg	99
1594.386	1.055	1054.9	incongruent	Block2	incongruent/STIM_021.jpg	100
1597.956	0.858	858.2	incongruent	Block2	incongruent/STIM_022.jpg	99
1601.771	0.649	648.8	incongruent	Block2	incongruent/STIM_022.jpg	99
1604.839	0.792	792.1	incongruent	Block2	incongruent/STIM_022.jpg	100
1609.207	0.973	973.3	incongruent	Block2	incongruent/STIM_022.jpg	99
1612.625	0.985	985.2	incongruent	Block2	incongruent/STIM_022.jpg	100
1617.259	0.685	685.1	incongruent	Block2	incongruent/STIM_023.jpg	99
1620.294	0.972	972.1	incongruent	Block2	incongruent/STIM_023.jpg	99
1623.949	1.208	1208.1	incongruent	Block2	incongruent/STIM_023.jpg	100
1628.801	0.624	623.8	incongruent	Block2	incongruent/STIM_023.jpg	99
1632.292	0.758	758.4	incongruent	Block2	incongruent/STIM_023.jpg	100
1636.728	0.821	821.1	incongruent	Block2	incongruent/STIM_024.jpg	99
1640.336	0.623	623.3	incongruent	Block2	incongruent/STIM_024.jpg	100
1643.069	0.726	725.7	incongruent	Block2	incongruent/STIM_024.jpg	100
1645.805	0.595	595.2	incongruent	Block2	incongruent/STIM_024.jpg	100
1649.747	0.858	858.0	incongruent	Block2	incongruent/STIM_024.jpg	100
1654.352	0.804	803.6	incongruent	Block2	incongruent/STIM_025.jpg	99
1658.679	1.24	1240.4	incongruent	Block2	incongruent/STIM_025.jpg	100
1663.674	0.688	687.6	incongruent	Block2	incongruent/STIM_025.jpg	99
1667.523	1.052	1052.1	incongruent	Block2	incongruent/STIM_025.jpg	99
1671.798	0.769	768.9	incongruent	Block2	incongruent/STIM_025.jpg	99
1675.621	1.074	1074.1	incongruent	Block2	incongruent/STIM_026.jpg	99
1680.562	1.198	1198.1	incongruent	Block2	incongruent/STIM_026.jpg	99
1685.371	1.121	1121.4	incongruent	Block2	incongruent/STIM_026.jpg	99
1689.471	1.113	1112.9	incongruent	Block2	incongruent/STIM_026.jpg	99
1692.659	0.967	967.3	incongruent	Block2	incongruent/STIM_026.jpg	100
1695.713	0.9	900.3	incongruent	Block2	incongruent/STIM_027.jpg	100
1700.259	1.252	1252.0	incongruent	Block2	incongruent/STIM_027.jpg	100
1704.931	1.085	1085.3	incongruent	Block2	incongruent/STIM_027.jpg	100
1708.661	0.637	637.2	incongruent	Block2	incongruent/STIM_027.jpg	100
1712.538	0.97	969.8	incongruent	Block2	incongruent/STIM_027.jpg	100
1716.347	1.128	1127.9	incongruent	Block2	incongruent/STIM_028.jpg	99
1720.98	1.242	1242.3	incongruent	Block2	incongruent/STIM_028.jpg	100
1725.513	1.072	1071.5	incongruent	Block2	incongruent/STIM_028.jpg	99
1729.216	1.068	1067.7	incongruent	Block2	incongruent/STIM_028.jpg	100
1733.726	0.543	542.6	incongruent	Block2	incongruent/STIM_028.jpg	100
1736.85	0.924	924.3	incongruent	Block2	incongruent/STIM_029.jpg	99
1740.17	0.711	710.8	incongruent	Block2	incongruent/STIM_029.jpg	99
1744.523	1.031	1031.2	incongruent	Block2	incongruent/STIM_029.jpg	100
1748.98	0.944	944.2	incongruent	Block2	incongruent/STIM_029.jpg	100
1753.623	0.613	612.8	incongruent	Block2	incongruent/STIM_029.jpg	99
1756.519	0.879	878.7	congruent	Block2	congruent/STIM_000.jpg	100
1759.741	0.722	721.7	congruent	Block2	congruent/STIM_000.jpg	99
1762.686	0.813	813.2	congruent	Block2	congruent/STIM_000.jpg	99
1767.303	0.652	652.3	congruent	Block2	congruent/STIM_000.jpg	100
1771.783	0.55	549.9	congruent	Block2	congruent/STIM_000.jpg	99
1776.21	0.759	759.4	congruent	Block2	congruent/STIM_001.jpg	100
1779.373	0.665	665.0	congruent	Block2	congruent/STIM_001.jpg	99
1783.266	0.558	557.5	congruent	Block2	congruent/STIM_001.jpg	100
1786.059	0.942	942.2	congruent	Block2	congruent/STIM_001.jpg	99
1789.481	0.794	794.4	congruent	Block2	congruent/STIM_001.jpg	100
1793.43	0.701	700.9	congruent	Block2	congruent/STIM_002.jpg	100
1798.021	0.711	711.4	congruent	Block2	congruent/STIM_002.jpg	99
1802.705	0.937	937.2	congruent	Block2	congruent/STIM_002.jpg	99
1806.368	0.829	828.8	congruent	Block2	congruent/STIM_002.jpg	100
1810.993	0.638	638.4	congruent	Block2	congruent/STIM_002.jpg	100
1815.12	0.838	837.6	congruent	Block2	congruent/STIM_003.jpg	99
1818.566	0.838	838.3	congruent	Block2	congruent/STIM_003.jpg	99
1823.304	0.71	709.7	congruent	Block2	congruent/STIM_003.jpg	100
1827.671	0.786	785.7	congruent	Block2	congruent/STIM_003.jpg	100
1830.637	0.558	557.7	congruent	Block2	congruent/STIM_003.jpg	100
1833.618	0.846	845.5	congruent	Block2	congruent/STIM_004.jpg	100
1837.597	0.882	881.7	congruent	Block2	congruent/STIM_004.jpg	99
1842.228	0.724	723.7	congruent	Block2	congruent/STIM_004.jpg	100
1846.488	0.553	553.2	congruent	Block2	congruent/STIM_004.jpg	99
1849.245	0.656	656.4	congruent	Block2	congruent/STIM_004.jpg	100
1852.818	0.942	942.5	congruent	Block2	congruent/STIM_005.jpg	100
1855.809	0.552	551.8	congruent	Block2	congruent/STIM_005.jpg	100
1858.737	0.889	888.6	congruent	Block2	congruent/STIM_005.jpg	100
1862.22	0.826	826.4	congruent	Block2	congruent/STIM_005.jpg	100
1865.69	0.55	549.9	congruent	Block2	congruent/STIM_005.jpg	100
1868.388	0.601	601.3	congruent	Block2	congruent/STIM_006.jpg	100
1871.394	0.977	976.6	congruent	Block2	congruent/STIM_006.jpg	99
1875.04	0.682	682.5	congruent	Block2	congruent/STIM_006.jpg	99
1878.846	0.643	642.6	congruent	Block2	congruent/STIM_006.jpg	100
1882.23	0.778	777.6	congruent	Block2	congruent/STIM_006.jpg	99
1886.374	0.773	772.7	congruent	Block2	congruent/STIM_007.jpg	99
1890.345	0.727	726.9	congruent	Block2	congruent/STIM_007.jpg	99
1893.521	0.97	969.6	congruent	Block2	congruent/STIM_007.jpg	100
1897.302	0.941	941.2	congruent	Block2	congruent/STIM_007.jpg	100
1900.44	0.732	732.4	congruent	Block2	congruent/STIM_007.jpg	99
1903.842	0.888	888.0	congruent	Block2	congruent/STIM_008.jpg	99
1908.544	0.977	977.1	congruent	Block2	congruent/STIM_008.jpg	99
1911.667	0.776	775.6	congruent	Block2	congruent/STIM_008.jpg	99
1914.785	0.909	909.2	congruent	Block2	congruent/STIM_008.jpg	99
1918.968	0.819	819.4	congruent	Block2	congruent/STIM_008.jpg	100
1922.1	0.803	802.9	congruent	Block2	congruent/STIM_009.jpg	100
1926.751	0.68	680.3	congruent	Block2	congruent/STIM_009.jpg	100
1930.945	0.851	850.9	congruent	Block2	congruent/STIM_009.jpg	99
1934.232	0.753	753.4	congruent	Block2	congruent/STIM_009.jpg	99
1938.908	0.914	914.4	congruent	Block2	congruent/STIM_009.jpg	100
1941.897	0.875	874.8	congruent	Block2	congruent/STIM_010.jpg	100
1946.132	0.56	559.6	congruent	Block2	congruent/STIM_010.jpg	99
1949.969	0.968	967.5	congruent	Block2	congruent/STIM_010.jpg	100
1954.582	0.648	648.0	congruent	Block2	congruent/STIM_010.jpg	99
1958.402	0.798	798.1	congruent	Block2	congruent/STIM_010.jpg	100
1961.542	0.613	612.9	congruent	Block2	congruent/STIM_011.jpg	99
1964.379	0.732	732.1	congruent	Block2	congruent/STIM_011.jpg	99
1968.018	0.887	887.0	congruent	Block2	congruent/STIM_011.jpg	99
1971.874	0.855	854.7	congruent	Block2	congruent/STIM_011.jpg	100
1974.764	0.59	590.5	congruent	Block2	congruent/STIM_011.jpg	99
1977.731	0.872	872.5	congruent	Block2	congruent/STIM_012.jpg	99
1980.841	0.565	564.8	congruent	Block2	congruent/STIM_012.jpg	100
1983.49	0.846	846.5	congruent	Block2	congruent/STIM_012.jpg	99
1986.822	0.786	786.4	congruent	Block2	congruent/STIM_012.jpg	99
1990.272	0.596	595.6	congruent	Block2	congruent/STIM_012.jpg	99
1994.795	0.975	975.1	congruent	Block2	congruent/STIM_013.jpg	99
1999.622	0.713	713.2	congruent	Block2	congruent/STIM_013.jpg	99
2003.759	0.929	929.2	congruent	Block2	congruent/STIM_013.jpg	99
2008.217	0.824	823.8	congruent	Block2	congruent/STIM_013.jpg	99
2012.181	0.84	840.0	congruent	Block2	congruent/STIM_013.jpg	100
2015.851	0.838	838.0	congruent	Block2	congruent/STIM_014.jpg	100
2020.096	0.654	654.5	congruent	Block2	congruent/STIM_014.jpg	100
2022.767	0.594	593.5	congruent	Block2	congruent/STIM_014.jpg	99
2026.596	0.937	936.9	congruent	Block2	congruent/STIM_014.jpg	100
2030.485	0.951	951.0	congruent	Block2	congruent/STIM_014.jpg	100
2035.066	0.967	966.6	congruent	Block2	congruent/STIM_015.jpg	99
2039.676	0.918	918.0	congruent	Block2	congruent/STIM_015.jpg	99
2043.206	0.619	618.8	congruent	Block2	congruent/STIM_015.jpg	100
2047.089	0.833	833.4	congruent	Block2	congruent/STIM_015.jpg	100
2050.232	0.566	566.5	congruent	Block2	congruent/STIM_015.jpg	100
2052.804	0.865	864.6	congruent	Block2	congruent/STIM_016.jpg	100
2057.165	0.735	734.9	congruent	Block2	congruent/STIM_016.jpg	100
2061.701	0.601	601.2	congruent	Block2	congruent/STIM_016.jpg	100
2065.44	0.608	608.2	congruent	Block2	congruent/STIM_016.jpg	100
2069.44	0.57	570.0	congruent	Block2	congruent/STIM_016.jpg	100
2073.386	0.956	956.1	congruent	Block2	congruent/STIM_017.jpg	100
2077.288	0.654	654.1	congruent	Block2	congruent/STIM_017.jpg	100
2080.577	0.933	933.1	congruent	Block2	congruent/STIM_017.jpg	99
2084.134	0.792	792.2	congruent	Block2	congruent/STIM_017.jpg	100
2087.4	0.668	668.3	congruent	Block2	congruent/STIM_017.jpg	99
2091.038	0.885	885.0	congruent	Block2	congruent/STIM_018.jpg	99
2094.219	0.856	856.4	congruent	Block2	congruent/STIM_018.jpg	100
2098.098	0.581	580.7	congruent	Block2	congruent/STIM_018.jpg	100
2100.761	0.71	709.7	congruent	Block2	congruent/STIM_018.jpg	100
2103.698	0.735	734.6	congruent	Block2	congruent/STIM_018.jpg	100
2108.321	0.747	747.2	congruent	Block2	congruent/STIM_019.jpg	99
2111.649	0.974	973.8	congruent	Block2	congruent/STIM_019.jpg	100
2115.884	0.608	608.1	congruent	Block2	congruent/STIM_019.jpg	99
2120.468	0.79	789.6	congruent	Block2	congruent/STIM_019.jpg	99
2123.915	0.888	888.5	congruent	Block2	congruent/STIM_019.jpg	100
2128.039	0.62	620.4	congruent	Block2	congruent/STIM_020.jpg	100
2131.375	0.892	892.0	congruent	Block2	congruent/STIM_020.jpg	99
2135.022	0.801	800.9	congruent	Block2	congruent/STIM_020.jpg	99
2138.577	0.757	757.3	congruent	Block2	congruent/STIM_020.jpg	99
2142.386	0.547	547.1	congruent	Block2	congruent/STIM_020.jpg	100
2146.271	0.721	721.0	congruent	Block2	congruent/STIM_021.jpg	99
2150.915	0.601	600.9	congruent	Block2	congruent/STIM_021.jpg	99
2155.15	0.932	932.1	congruent	Block2	congruent/STIM_021.jpg	99
2158.546	0.567	566.8	congruent	Block2	congruent/STIM_021.jpg	100
2161.946	0.898	897.6	congruent	Block2	congruent/STIM_021.jpg	100
2166.517	0.828	827.9	congruent	Block2	congruent/STIM_022.jpg	100
2170.899	0.75	750.0	congruent	Block2	congruent/STIM_022.jpg	100
2173.917	0.891	890.6	congruent	Block2	congruent/STIM_022.jpg	99
2177.486	0.732	732.2	congruent	Block2	congruent/STIM_022.jpg	100
2180.27	0.55	550.2	congruent	Block2	congruent/STIM_022.jpg	99
2184.753	0.789	789.0	congruent	Block2	congruent/STIM_023.jpg	99
2187.643	0.76	760.3	congruent	Block2	congruent/STIM_023.jpg	99
2190.47	0.61	609.5	congruent	Block2	congruent/STIM_023.jpg	100
2194.189	0.881	880.6	congruent	Block2	congruent/STIM_023.jpg	99
2197.408	0.615	615.0	congruent	Block2	congruent/STIM_023.jpg	99
2200.127	0.925	925.4	congruent	Block2	congruent/STIM_024.jpg	99
2204.663	0.568	567.5	congruent	Block2	congruent/STIM_024.jpg	99
2209.089	0.849	849.2	congruent	Block2	congruent/STIM_024.jpg	100
2212.057	0.638	638.1	congruent	Block2	congruent/STIM_024.jpg	100
2215.391	0.648	647.7	congruent	Block2	congruent/STIM_024.jpg	100
2219.808	0.768	768.3	congruent	Block2	congruent/STIM_025.jpg	100
2223.037	0.611	610.7	congruent	Block2	congruent/STIM_025.jpg	100
2226.832	0.74	740.5	congruent	Block2	congruent/STIM_025.jpg	100
2230.2	0.878	877.9	congruent	Block2	congruent/STIM_025.jpg	99
2234.506	0.724	724.5	congruent	Block2	congruent/STIM_025.jpg	100
2237.308	0.927	927.1	congruent	Block2	congruent/STIM_026.jpg	100
2242.15	0.905	904.7	congruent	Block2	congruent/STIM_026.jpg	99
2246.176	0.692	691.8	congruent	Block2	congruent/STIM_026.jpg	100
2250.256	0.628	627.9	congruent	Block2	congruent/STIM_026.jpg	99
2253.107	0.687	686.7	congruent	Block2	congruent/STIM_026.jpg	99
2257.404	0.657	657.0	congruent	Block2	congruent/STIM_027.jpg	99
2261.728	0.871	871.3	congruent	Block2	congruent/STIM_027.jpg	100
2265.368	0.78	779.9	congruent	Block2	congruent/STIM_027.jpg	100
2269.07	0.644	643.9	congruent	Block2	congruent/STIM_027.jpg	99
2271.82	0.552	551.7	congruent	Block2	congruent/STIM_027.jpg	100
2276.052	0.822	821.8	congruent	Block2	congruent/STIM_028.jpg	100
2280.326	0.924	923.6	congruent	Block2	congruent/STIM_028.jpg	100
2284.507	0.593	593.0	congruent	Block2	congruent/STIM_028.jpg	100
2288.498	0.792	791.7	congruent	Block2	congruent/STIM_028.jpg	99
2292.723	0.806	805.7	congruent	Block2	congruent/STIM_028.jpg	99
2296.456	0.635	635.2	congruent	Block2	congruent/STIM_029.jpg	100
2300.507	0.748	747.8	congruent	Block2	congruent/STIM_029.jpg	99
2304.117	0.916	916.0	congruent	Block2	congruent/STIM_029.jpg	99
2307.769	0.726	725.7	congruent	Block2	congruent/STIM_029.jpg	99
2311.519	0.652	651.5	congruent	Block2	congruent/STIM_029.jpg	99
2314.885	1.048	1048.2	incongruent	Block3	incongruent/STIM_000.jpg	100
2319.408	0.723	723.0	incongruent	Block3	incongruent/STIM_000.jpg	99
2322.19	0.726	725.7	incongruent	Block3	incongruent/STIM_000.jpg	100
2325.993	0.961	961.4	incongruent	Block3	incongruent/STIM_000.jpg	100
2329.687	1.108	1107.9	incongruent	Block3	incongruent/STIM_000.jpg	99
2333.99	0.958	958.0	incongruent	Block3	incongruent/STIM_001.jpg	100
2337.447	0.82	819.8	incongruent	Block3	incongruent/STIM_001.jpg	99
2341.808	0.641	641.0	incongruent	Block3	incongruent/STIM_001.jpg	100
2345.3	0.635	635.0	incongruent	Block3	incongruent/STIM_001.jpg	100
2349.165	1.084	1084.0	incongruent	Block3	incongruent/STIM_001.jpg	100
2353.634	1.107	1107.0	incongruent	Block3	incongruent/STIM_002.jpg	100
2357.007	0.681	680.6	incongruent	Block3	incongruent/STIM_002.jpg	100
2361.531	0.912	911.6	incongruent	Block3	incongruent/STIM_002.jpg	99
2364.985	0.875	875.4	incongruent	Block3	incongruent/STIM_002.jpg	99
2368.295	1.113	1112.7	incongruent	Block3	incongruent/STIM_002.jpg	100
2371.833	0.781	780.7	incongruent	Block3	incongruent/STIM_003.jpg	100
2374.754	0.893	893.0	incongruent	Block3	incongruent/STIM_003.jpg	100
2377.875	0.864	864.4	incongruent	Block3	incongruent/STIM_003.jpg	99
2380.876	1.108	1107.6	incongruent	Block3	incongruent/STIM_003.jpg	99
2384.673	0.838	837.8	incongruent	Block3	incongruent/STIM_003.jpg	99
2389.25	0.578	578.0	incongruent	Block3	incongruent/STIM_004.jpg	100
2393.719	0.78	780.0	incongruent	Block3	incongruent/STIM_004.jpg	99
2398.346	1.145	1145.2	incongruent	Block3	incongruent/STIM_004.jpg	100
2402.68	0.851	851.3	incongruent	Block3	incongruent/STIM_004.jpg	99
2406.883	0.678	677.8	incongruent	Block3	incongruent/STIM_004.jpg	99
2411.474	0.752	752.4	incongruent	Block3	incongruent/STIM_005.jpg	99
2414.863	0.851	850.6	incongruent	Block3	incongruent/STIM_005.jpg	99
2417.909	0.546	545.9	incongruent	Block3	incongruent/STIM_005.jpg	99
2422.273	0.909	909.1	incongruent	Block3	incongruent/STIM_005.jpg	100
2425.712	1.031	1031.3	incongruent	Block3	incongruent/STIM_005.jpg	100
2430.353	0.975	975.0	incongruent	Block3	incongruent/STIM_006.jpg	100
2434.829	1.087	1087.4	incongruent	Block3	incongruent/STIM_006.jpg	99
2439.371	1.103	1103.3	incongruent	Block3	incongruent/STIM_006.jpg	100
2444.249	0.589	589.3	incongruent	Block3	incongruent/STIM_006.jpg	99
2447.865	1.035	1034.7	incongruent	Block3	incongruent/STIM_006.jpg	100
2451.066	0.62	619.5	incongruent	Block3	incongruent/STIM_007.jpg	100
2454.187	0.563	563.2	incongruent	Block3	incongruent/STIM_007.jpg	100
2458.572	0.542	541.8	incongruent	Block3	incongruent/STIM_007.jpg	100
2461.579	0.741	741.0	incongruent	Block3	incongruent/STIM_007.jpg	99
2465.307	0.673	673.2	incongruent	Block3	incongruent/STIM_007.jpg	100
2468.514	1.024	1024.4	incongruent	Block3	incongruent/STIM_008.jpg	99
2472.909	0.991	991.4	incongruent	Block3	incongruent/STIM_008.jpg	99
2476.189	1.005	1005.4	incongruent	Block3	incongruent/STIM_008.jpg	100
2480.055	0.935	935.3	incongruent	Block3	incongruent/STIM_008.jpg	100
2483.889	0.94	940.1	incongruent	Block3	incongruent/STIM_008.jpg	100
2487.288	1.037	1037.4	incongruent	Block3	incongruent/STIM_009.jpg	99
2491.53	0.718	717.8	incongruent	Block3	incongruent/STIM_009.jpg	100
2495.784	0.644	643.8	incongruent	Block3	incongruent/STIM_009.jpg	99
2500.249	0.776	776.1	incongruent	Block3	incongruent/STIM_009.jpg	99
2505.019	1.128	1128.2	incongruent	Block3	incongruent/STIM_009.jpg	99
2509.56	1.119	1119.0	incongruent	Block3	incongruent/STIM_010.jpg	100
2513.913	0.881	880.9	incongruent	Block3	incongruent/STIM_010.jpg	99
2516.81	1.13	1129.5	incongruent	Block3	incongruent/STIM_010.jpg	100
2521.304	0.777	777.1	incongruent	Block3	incongruent/STIM_010.jpg	99
2524.601	0.749	749.1	incongruent	Block3	incongruent/STIM_010.jpg	99
2528.426	0.794	793.6	incongruent	Block3	incongruent/STIM_011.jpg	99
2532.719	1.121	1120.9	incongruent	Block3	incongruent/STIM_011.jpg	100
2536.986	1.059	1059.2	incongruent	Block3	incongruent/STIM_011.jpg	99
2540.64	1.025	1025.2	incongruent	Block3	incongruent/STIM_011.jpg	99
2544.833	1.089	1088.9	incongruent	Block3	incongruent/STIM_011.jpg	100
2549.426	0.652	651.8	incongruent	Block3	incongruent/STIM_012.jpg	99
2553.134	1.132	1131.9	incongruent	Block3	incongruent/STIM_012.jpg	99
2557.168	1.032	1031.9	incongruent	Block3	incongruent/STIM_012.jpg	99
2561.65	0.557	557.0	incongruent	Block3	incongruent/STIM_012.jpg	100
2564.696	0.62	620.3	incongruent	Block3	incongruent/STIM_012.jpg	100
2567.704	0.764	764.5	incongruent	Block3	incongruent/STIM_013.jpg	100
2572.295	0.708	708.3	incongruent	Block3	incongruent/STIM_013.jpg	99
2576.951	1.052	1052.1	incongruent	Block3	incongruent/STIM_013.jpg	99
2581.093	0.843	842.7	incongruent	Block3	incongruent/STIM_013.jpg	99
2584.121	0.635	635.4	incongruent	Block3	incongruent/STIM_013.jpg	99
2587.295	0.809	809.0	incongruent	Block3	incongruent/STIM_014.jpg	99
2592.031	1.013	1012.8	incongruent	Block3	incongruent/STIM_014.jpg	100
2596.222	1.082	1082.4	incongruent	Block3	incongruent/STIM_014.jpg	99
2600.747	0.595	595.3	incongruent	Block3	incongruent/STIM_014.jpg	99
2604.857	0.703	703.2	incongruent	Block3	incongruent/STIM_014.jpg	99
2608.324	0.704	704.1	incongruent	Block3	incongruent/STIM_015.jpg	99
2611.605	1.101	1100.7	incongruent	Block3	incongruent/STIM_015.jpg	100
2615.972	0.984	984.4	incongruent	Block3	incongruent/STIM_015.jpg	99
2619.786	0.87	870.2	incongruent	Block3	incongruent/STIM_015.jpg	99
2622.83	0.547	547.1	incongruent	Block3	incongruent/STIM_015.jpg	100
2626.062	0.56	559.9	incongruent	Block3	incongruent/STIM_016.jpg	100
2629.395	0.913	912.7	incongruent	Block3	incongruent/STIM_016.jpg	100
2633.53	1.06	1059.6	incongruent	Block3	incongruent/STIM_016.jpg	99
2638.422	0.758	758.4	incongruent	Block3	incongruent/STIM_016.jpg	99
2642.692	0.803	802.9	incongruent	Block3	incongruent/STIM_016.jpg	100
2646.167	1.093	1093.1	incongruent	Block3	incongruent/STIM_017.jpg	99
2650.897	0.789	788.7	incongruent	Block3	incongruent/STIM_017.jpg	100
2655.421	0.924	924.2	incongruent	Block3	incongruent/STIM_017.jpg	100
2659.632	0.709	708.8	incongruent	Block3	incongruent/STIM_017.jpg	99
2662.774	0.87	870.3	incongruent	Block3	incongruent/STIM_017.jpg	100
2665.668	0.968	967.7	incongruent	Block3	incongruent/STIM_018.jpg	100
2670.482	1.01	1009.5	incongruent	Block3	incongruent/STIM_018.jpg	100
2675.422	0.986	985.7	incongruent	Block3	incongruent/STIM_018.jpg	100
2679.816	0.833	832.8	incongruent	Block3	incongruent/STIM_018.jpg	100
2683.516	0.866	865.5	incongruent	Block3	incongruent/STIM_018.jpg	100
2687.856	1.099	1099.3	incongruent	Block3	incongruent/STIM_019.jpg	100
2692.141	0.827	827.1	incongruent	Block3	incongruent/STIM_019.jpg	100
2695.222	0.972	972.4	incongruent	Block3	incongruent/STIM_019.jpg	99
2698.487	1.042	1042.5	incongruent	Block3	incongruent/STIM_019.jpg	100
2702.423	1.138	1138.4	incongruent	Block3	incongruent/STIM_019.jpg	99
2706.978	0.746	745.6	incongruent	Block3	incongruent/STIM_020.jpg	100
2711.449	1.056	1056.4	incongruent	Block3	incongruent/STIM_020.jpg	99
2714.57	0.633	633.4	incongruent	Block3	incongruent/STIM_020.jpg	99
2718.716	1.021	1020.6	incongruent	Block3	incongruent/STIM_020.jpg	100
2721.927	0.82	819.6	incongruent	Block3	incongruent/STIM_020.jpg	100
2725.118	0.753	753.3	incongruent	Block3	incongruent/STIM_021.jpg	100
2729.748	0.729	728.7	incongruent	Block3	incongruent/STIM_021.jpg	100
2733.541	1.085	1084.7	incongruent	Block3	incongruent/STIM_021.jpg	100
2737.293	1.141	1140.8	incongruent	Block3	incongruent/STIM_021.jpg	100
2742.045	0.629	628.6	incongruent	Block3	incongruent/STIM_021.jpg	99
2746.219	1.082	1082.4	incongruent	Block3	incongruent/STIM_022.jpg	99
2750.886	0.906	906.0	incongruent	Block3	incongruent/STIM_022.jpg	100
2755.105	0.59	590.5	incongruent	Block3	incongruent/STIM_022.jpg	100
2758.64	0.803	802.6	incongruent	Block3	incongruent/STIM_022.jpg	100
2761.932	1.131	1131.1	incongruent	Block3	incongruent/STIM_022.jpg	99
2765.399	0.832	831.9	incongruent	Block3	incongruent/STIM_023.jpg	100
2768.611	0.719	718.6	incongruent	Block3	incongruent/STIM_023.jpg	99
2772.461	1.116	1115.7	incongruent	Block3	incongruent/STIM_023.jpg	99
2776.423	0.94	939.7	incongruent	Block3	incongruent/STIM_023.jpg	100
2779.769	0.603	603.1	incongruent	Block3	incongruent/STIM_023.jpg	99
2783.969	0.929	929.0	incongruent	Block3	incongruent/STIM_024.jpg	100
2786.999	0.807	806.8	incongruent	Block3	incongruent/STIM_024.jpg	99
2791.39	0.903	902.6	incongruent	Block3	incongruent/STIM_024.jpg	100
2794.93	0.592	592.2	incongruent	Block3	incongruent/STIM_024.jpg	100
2798.597	1.05	1049.8	incongruent	Block3	incongruent/STIM_024.jpg	100
2802.412	0.573	573.4	incongruent	Block3	incongruent/STIM_025.jpg	99
2806.234	1.132	1132.4	incongruent	Block3	incongruent/STIM_025.jpg	100
2810.696	0.632	631.7	incongruent	Block3	incongruent/STIM_025.jpg	100
2813.681	0.778	778.5	incongruent	Block3	incongruent/STIM_025.jpg	100
2817.394	0.584	583.5	incongruent	Block3	incongruent/STIM_025.jpg	99
2821.764	1.008	1007.5	incongruent	Block3	incongruent/STIM_026.jpg	100
2824.808	0.793	793.3	incongruent	Block3	incongruent/STIM_026.jpg	99
2828.658	0.591	591.3	incongruent	Block3	incongruent/STIM_026.jpg	100
2832.162	0.948	947.7	incongruent	Block3	incongruent/STIM_026.jpg	99
2835.65	0.686	685.7	incongruent	Block3	incongruent/STIM_026.jpg	100
2839.878	0.838	837.5	incongruent	Block3	incongruent/STIM_027.jpg	100
2844.53	0.72	720.4	incongruent	Block3	incongruent/STIM_027.jpg	100
2849.247	0.793	792.9	incongruent	Block3	incongruent/STIM_027.jpg	99
2852.886	0.54	540.2	incongruent	Block3	incongruent/STIM_027.jpg	100
2856.165	0.858	857.7	incongruent	Block3	incongruent/STIM_027.jpg	100
2859.155	0.541	540.9	incongruent	Block3	incongruent/STIM_028.jpg	99
2863.386	0.677	677.4	incongruent	Block3	incongruent/STIM_028.jpg	99
2866.318	0.73	730.2	incongruent	Block3	incongruent/STIM_028.jpg	99
2869.868	0.883	883.2	incongruent	Block3	incongruent/STIM_028.jpg	99
2872.879	0.742	741.9	incongruent	Block3	incongruent/STIM_028.jpg	99
2875.81	0.824	824.0	incongruent	Block3	incongruent/STIM_029.jpg	99
2879.8	1.014	1014.3	incongruent	Block3	incongruent/STIM_029.jpg	99
2883.715	0.707	707.4	incongruent	Block3	incongruent/STIM_029.jpg	99
2886.821	0.834	833.5	incongruent	Block3	incongruent/STIM_029.jpg	99
2890.669	1.138	1138.4	incongruent	Block3	incongruent/STIM_029.jpg	100
2895.195	0.823	822.6	congruent	Block3	congruent/STIM_000.jpg	99
2899.982	0.62	619.8	congruent	Block3	congruent/STIM_000.jpg	100
2903.749	0.742	741.6	congruent	Block3	congruent/STIM_000.jpg	100
2907.616	0.888	888.2	congruent	Block3	congruent/STIM_000.jpg	100
2911.226	0.857	857.3	congruent	Block3	congruent/STIM_000.jpg	99
2915.99	0.609	608.7	congruent	Block3	congruent/STIM_001.jpg	100
2920.163	0.773	773.0	congruent	Block3	congruent/STIM_001.jpg	100
2924.558	0.857	856.6	congruent	Block3	congruent/STIM_001.jpg	99
2929.179	0.681	681.4	congruent	Block3	congruent/STIM_001.jpg	100
2932.134	0.952	952.5	congruent	Block3	congruent/STIM_001.jpg	99
2935.831	0.919	919.1	congruent	Block3	congruent/STIM_002.jpg	100
2938.802	0.952	951.7	congruent	Block3	congruent/STIM_002.jpg	99
2942.022	0.654	653.7	congruent	Block3	congruent/STIM_002.jpg	99
2945.915	0.756	755.5	congruent	Block3	congruent/STIM_002.jpg	100
2949.533	0.548	547.6	congruent	Block3	congruent/STIM_002.jpg	99
2953.304	0.573	572.9	congruent	Block3	congruent/STIM_003.jpg	100
2956.19	0.816	816.4	congruent	Block3	congruent/STIM_003.jpg	99
2959.169	0.85	850.0	congruent	Block3	congruent/STIM_003.jpg	99
2962.216	0.662	662.3	congruent	Block3	congruent/STIM_003.jpg	100
2964.988	0.564	564.0	congruent	Block3	congruent/STIM_003.jpg	99
2967.753	0.824	824.3	congruent	Block3	congruent/STIM_004.jpg	100
2971.747	0.784	783.6	congruent	Block3	congruent/STIM_004.jpg	99
2974.732	0.927	927.1	congruent	Block3	congruent/STIM_004.jpg	99
2977.929	0.879	879.4	congruent	Block3	congruent/STIM_004.jpg	100
2981.214	0.75	750.2	congruent	Block3	congruent/STIM_004.jpg	99
2984.365	0.918	918.1	congruent	Block3	congruent/STIM_005.jpg	99
2988.257	0.881	881.3	congruent	Block3	congruent/STIM_005.jpg	99
2991.842	0.747	747.4	congruent	Block3	congruent/STIM_005.jpg	100
2995.339	0.928	928.1	congruent	Block3	congruent/STIM_005.jpg	99
2999.492	0.62	620.2	congruent	Block3	congruent/STIM_005.jpg	100
3003.326	0.787	787.0	congruent	Block3	congruent/STIM_006.jpg	100
3006.249	0.82	819.7	congruent	Block3	congruent/STIM_006.jpg	100
3009.157	0.901	901.0	congruent	Block3	congruent/STIM_006.jpg	100
3014.039	0.779	779.2	congruent	Block3	congruent/STIM_006.jpg	100
3018.405	0.781	780.9	congruent	Block3	congruent/STIM_006.jpg	100
3023.068	0.647	647.0	congruent	Block3	congruent/STIM_007.jpg	100
3027.509	0.902	902.3	congruent	Block3	congruent/STIM_007.jpg	99
3031.445	0.932	931.9	congruent	Block3	congruent/STIM_007.jpg	100
3035.36	0.647	646.6	congruent	Block3	congruent/STIM_007.jpg	100
3038.545	0.965	965.0	congruent	Block3	congruent/STIM_007.jpg	99
3042.574	0.815	814.8	congruent	Block3	congruent/STIM_008.jpg	99
3046.987	0.627	626.7	congruent	Block3	congruent/STIM_008.jpg	100
3050.662	0.754	754.3	congruent	Block3	congruent/STIM_008.jpg	100
3054.413	0.748	748.0	congruent	Block3	congruent/STIM_008.jpg	100
3058.812	0.786	786.5	congruent	Block3	congruent/STIM_008.jpg	100
3062.393	0.868	867.6	congruent	Block3	congruent/STIM_009.jpg	99
3066.422	0.838	838.1	congruent	Block3	congruent/STIM_009.jpg	100
3069.86	0.892	892.5	congruent	Block3	congruent/STIM_009.jpg	99
3073.658	0.899	899.2	congruent	Block3	congruent/STIM_009.jpg	99
3076.711	0.595	595.0	congruent	Block3	congruent/STIM_009.jpg	100
3080.238	0.854	853.9	congruent	Block3	congruent/STIM_010.jpg	99
3083.79	0.723	722.9	congruent	Block3	congruent/STIM_010.jpg	100
3086.826	0.551	551.3	congruent	Block3	congruent/STIM_010.jpg	99
3090.823	0.884	884.2	congruent	Block3	congruent/STIM_010.jpg	99
3094.04	0.549	549.2	congruent	Block3	congruent/STIM_010.jpg	100
3097.497	0.945	944.9	congruent	Block3	congruent/STIM_011.jpg	100
3100.992	0.571	570.6	congruent	Block3	congruent/STIM_011.jpg	99
3104.592	0.742	742.4	congruent	Block3	congruent/STIM_011.jpg	100
3108.589	0.698	698.1	congruent	Block3	congruent/STIM_011.jpg	100
3111.578	0.922	921.9	congruent	Block3	congruent/STIM_011.jpg	100
3116.16	0.584	584.3	congruent	Block3	congruent/STIM_012.jpg	100
3119.333	0.734	734.1	congruent	Block3	congruent/STIM_012.jpg	100
3123.163	0.632	632.2	congruent	Block3	congruent/STIM_012.jpg	99
3127.653	0.611	610.8	congruent	Block3	congruent/STIM_012.jpg	100
3131.146	0.785	785.3	congruent	Block3	congruent/STIM_012.jpg	99
3134.451	0.61	609.7	congruent	Block3	congruent/STIM_013.jpg	100
3137.959	0.684	683.7	congruent	Block3	congruent/STIM_013.jpg	99
3141.479	0.839	839.2	congruent	Block3	congruent/STIM_013.jpg	99
3145.863	0.626	625.6	congruent	Block3	congruent/STIM_013.jpg	99
3148.517	0.906	905.8	congruent	Block3	congruent/STIM_013.jpg	100
3151.518	0.79	789.7	congruent	Block3	congruent/STIM_014.jpg	99
3156.109	0.803	803.2	congruent	Block3	congruent/STIM_014.jpg	99
3160.653	0.748	748.3	congruent	Block3	congruent/STIM_014.jpg	100
3165.017	0.746	746.3	congruent	Block3	congruent/STIM_014.jpg	99
3168.816	0.572	571.9	congruent	Block3	congruent/STIM_014.jpg	99
3172.62	0.662	661.7	congruent	Block3	congruent/STIM_015.jpg	99
3175.307	0.804	804.4	congruent	Block3	congruent/STIM_015.jpg	99
3179.219	0.622	622.2	congruent	Block3	congruent/STIM_015.jpg	100
3182.842	0.804	804.5	congruent	Block3	congruent/STIM_015.jpg	100
3186.922	0.89	889.6	congruent	Block3	congruent/STIM_015.jpg	99
3190.421	0.702	702.4	congruent	Block3	congruent/STIM_016.jpg	100
3193.922	0.872	872.5	congruent	Block3	congruent/STIM_016.jpg	100
3198.598	0.804	804.1	congruent	Block3	congruent/STIM_016.jpg	99
3202.594	0.616	615.5	congruent	Block3	congruent/STIM_016.jpg	99
3207.149	0.6	599.6	congruent	Block3	congruent/STIM_016.jpg	99
3210.989	0.55	549.9	congruent	Block3	congruent/STIM_017.jpg	100
3214.54	0.871	871.2	congruent	Block3	congruent/STIM_017.jpg	99
3217.679	0.631	631.2	congruent	Block3	congruent/STIM_017.jpg	99
3221.043	0.806	806.3	congruent	Block3	congruent/STIM_017.jpg	99
3225.59	0.667	667.1	congruent	Block3	congruent/STIM_017.jpg	99
3228.63	0.582	582.2	congruent	Block3	congruent/STIM_018.jpg	100
3232.565	0.627	626.8	congruent	Block3	congruent/STIM_018.jpg	100
3236.608	0.855	855.2	congruent	Block3	congruent/STIM_018.jpg	99
3239.559	0.854	854.2	congruent	Block3	congruent/STIM_018.jpg	99
3242.805	0.657	656.8	congruent	Block3	congruent/STIM_018.jpg	100
3245.472	0.602	602.5	congruent	Block3	congruent/STIM_019.jpg	99
3249.579	0.886	885.6	congruent	Block3	congruent/STIM_019.jpg	99
3253.683	0.592	592.3	congruent	Block3	congruent/STIM_019.jpg	100
3258.072	0.783	783.1	congruent	Block3	congruent/STIM_019.jpg	100
3261.864	0.704	703.6	congruent	Block3	congruent/STIM_019.jpg	100
3266.187	0.621	620.9	congruent	Block3	congruent/STIM_020.jpg	99
3269.497	0.901	900.7	congruent	Block3	congruent/STIM_020.jpg	99
3274.375	0.755	754.6	congruent	Block3	congruent/STIM_020.jpg	99
3278.571	0.885	884.6	congruent	Block3	congruent/STIM_020.jpg	100
3282.663	0.683	682.8	congruent	Block3	congruent/STIM_020.jpg	99
3285.602	0.634	634.3	congruent	Block3	congruent/STIM_021.jpg	100
3288.658	0.9	900.5	congruent	Block3	congruent/STIM_021.jpg	100
3291.826	0.974	973.6	congruent	Block3	congruent/STIM_021.jpg	99
3296.21	0.568	568.5	congruent	Block3	congruent/STIM_021.jpg	100
3300.775	0.771	771.0	congruent	Block3	congruent/STIM_021.jpg	100
3305.449	0.605	604.8	congruent	Block3	congruent/STIM_022.jpg	100
3309.612	0.654	654.2	congruent	Block3	congruent/STIM_022.jpg	99
3312.42	0.637	637.1	congruent	Block3	congruent/STIM_022.jpg	99
3315.134	0.784	784.2	congruent	Block3	congruent/STIM_022.jpg	99
3318.394	0.788	788.5	congruent	Block3	congruent/STIM_022.jpg	99
3322.06	0.915	914.7	congruent	Block3	congruent/STIM_023.jpg	99
3324.989	0.552	552.4	congruent	Block3	congruent/STIM_023.jpg	99
3327.563	0.719	719.2	congruent	Block3	congruent/STIM_023.jpg	99
3331.836	0.774	774.0	congruent	Block3	congruent/STIM_023.jpg	99
3336.38	0.641	641.4	congruent	Block3	congruent/STIM_023.jpg	99
3339.546	0.686	685.5	congruent	Block3	congruent/STIM_024.jpg	99
3342.675	0.562	562.2	congruent	Block3	congruent/STIM_024.jpg	100
3345.817	0.587	586.8	congruent	Block3	congruent/STIM_024.jpg	99
3348.49	0.818	818.5	congruent	Block3	congruent/STIM_024.jpg	99
3352.921	0.972	972.3	congruent	Block3	congruent/STIM_024.jpg	100
3356.795	0.695	695.1	congruent	Block3	congruent/STIM_025.jpg	99
3360.998	0.704	704.1	congruent	Block3	congruent/STIM_025.jpg	99
3364.235	0.829	829.0	congruent	Block3	congruent/STIM_025.jpg	99
3367.567	0.776	776.5	congruent	Block3	congruent/STIM_025.jpg	100
3370.706	0.748	748.0	congruent	Block3	congruent/STIM_025.jpg	100
3373.65	0.684	684.2	congruent	Block3	congruent/STIM_026.jpg	100
3377.411	0.712	712.0	congruent	Block3	congruent/STIM_026.jpg	100
3381.767	0.828	828.0	congruent	Block3	congruent/STIM_026.jpg	99
3386.328	0.586	585.9	congruent	Block3	congruent/STIM_026.jpg	99
3390.217	0.58	579.8	congruent	Block3	congruent/STIM_026.jpg	99
3394.726	0.971	970.6	congruent	Block3	congruent/STIM_027.jpg	99
3399.453	0.611	611.4	congruent	Block3	congruent/STIM_027.jpg	100
3402.363	0.576	576.2	congruent	Block3	congruent/STIM_027.jpg	100
3406.3	0.819	819.2	congruent	Block3	congruent/STIM_027.jpg	100
3410.456	0.62	619.7	congruent	Block3	congruent/STIM_027.jpg	100
3413.325	0.705	705.1	congruent	Block3	congruent/STIM_028.jpg	99
3417.915	0.825	825.1	congruent	Block3	congruent/STIM_028.jpg	100
3421.677	0.774	774.3	congruent	Block3	congruent/STIM_028.jpg	99
3425.693	0.862	861.6	congruent	Block3	congruent/STIM_028.jpg	99
3429.764	0.686	685.5	congruent	Block3	congruent/STIM_028.jpg	99
3434.101	0.649	648.9	congruent	Block3	congruent/STIM_029.jpg	99
3437.465	0.692	692.3	congruent	Block3	congruent/STIM_029.jpg	100
3441.933	0.616	615.5	congruent	Block3	congruent/STIM_029.jpg	99
3444.75	0.96	960.5	congruent	Block3	congruent/STIM_029.jpg	99
3449.081	0.827	827.3	congruent	Block3	congruent/STIM_029.jpg	100
