onset	duration	accuracy	trial_type	learning_stage	stimulus
0.0	0.904	correct	incongruent	Block1	incongruent/STIM_000.jpg
4.955	0.76	correct	incongruent	Block1	incongruent/STIM_000.jpg
9.539	0.652	correct	incongruent	Block1	incongruent/STIM_000.jpg
12.381	0.943	correct	incongruent	Block1	incongruent/STIM_000.jpg
17.416	0.502	correct	incongruent	Block1	incongruent/STIM_000.jpg
20.999	1.29	correct	incongruent	Block1	incongruent/STIM_001.jpg
25.232	1.154	correct	incongruent	Block1	incongruent/STIM_001.jpg
29.282	0.585	correct	incongruent	Block1	incongruent/STIM_001.jpg
33.222	0.841	correct	incongruent	Block1	incongruent/STIM_001.jpg
36.65	0.654	correct	incongruent	Block1	incongruent/STIM_001.jpg
40.053	0.64	correct	incongruent	Block1	incongruent/STIM_002.jpg
43.416	1.264	correct	incongruent	Block1	incongruent/STIM_002.jpg
47.732	0.826	correct	incongruent	Block1	incongruent/STIM_002.jpg
50.918	0.755	correct	incongruent	Block1	incongruent/STIM_002.jpg
54.293	0.556	correct	incongruent	Block1	incongruent/STIM_002.jpg
57.345	1.188	incorrect	incongruent	Block1	incongruent/STIM_003.jpg
60.967	0.597	correct	incongruent	Block1	incongruent/STIM_003.jpg
64.456	0.804	correct	incongruent	Block1	incongruent/STIM_003.jpg
67.521	1.114	correct	incongruent	Block1	incongruent/STIM_003.jpg
71.864	0.958	correct	incongruent	Block1	incongruent/STIM_003.jpg
76.482	0.671	correct	incongruent	Block1	incongruent/STIM_004.jpg
79.942	0.815	correct	incongruent	Block1	incongruent/STIM_004.jpg
83.113	0.686	correct	incongruent	Block1	incongruent/STIM_004.jpg
87.034	1.064	correct	incongruent	Block1	incongruent/STIM_004.jpg
91.741	0.532	correct	incongruent	Block1	incongruent/STIM_004.jpg
96.14	1.099	incorrect	incongruent	Block1	incongruent/STIM_005.jpg
99.835	0.912	incorrect	incongruent	Block1	incongruent/STIM_005.jpg
104.804	0.848	incorrect	incongruent	Block1	incongruent/STIM_005.jpg
108.508	0.838	correct	incongruent	Block1	incongruent/STIM_005.jpg
113.282	1.06	correct	incongruent	Block1	incongruent/STIM_005.jpg
117.373	1.233	correct	incongruent	Block1	incongruent/STIM_006.jpg
122.48	0.867	correct	incongruent	Block1	incongruent/STIM_006.jpg
126.3	0.678	incorrect	incongruent	Block1	incongruent/STIM_006.jpg
130.631	0.934	correct	incongruent	Block1	incongruent/STIM_006.jpg
134.16	0.614	correct	incongruent	Block1	incongruent/STIM_006.jpg
138.126	0.789	correct	incongruent	Block1	incongruent/STIM_007.jpg
142.636	0.904	correct	incongruent	Block1	incongruent/STIM_007.jpg
147.552	0.935	correct	incongruent	Block1	incongruent/STIM_007.jpg
152.012	1.035	correct	incongruent	Block1	incongruent/STIM_007.jpg
156.503	0.545	correct	incongruent	Block1	incongruent/STIM_007.jpg
160.763	0.748	correct	incongruent	Block1	incongruent/STIM_008.jpg
165.079	1.217	correct	incongruent	Block1	incongruent/STIM_008.jpg
168.975	1.16	correct	incongruent	Block1	incongruent/STIM_008.jpg
174.051	0.91	correct	incongruent	Block1	incongruent/STIM_008.jpg
178.299	0.663	correct	incongruent	Block1	incongruent/STIM_008.jpg
181.971	0.792	incorrect	incongruent	Block1	incongruent/STIM_009.jpg
186.804	1.158	correct	incongruent	Block1	incongruent/STIM_009.jpg
191.702	0.673	correct	incongruent	Block1	incongruent/STIM_009.jpg
195.241	1.105	correct	incongruent	Block1	incongruent/STIM_009.jpg
198.729	0.776	correct	incongruent	Block1	incongruent/STIM_009.jpg
202.001	1.161	correct	incongruent	Block1	incongruent/STIM_010.jpg
206.498	1.054	correct	incongruent	Block1	incongruent/STIM_010.jpg
210.614	0.594	correct	incongruent	Block1	incongruent/STIM_010.jpg
214.733	0.87	correct	incongruent	Block1	incongruent/STIM_010.jpg
219.169	0.857	correct	incongruent	Block1	incongruent/STIM_010.jpg
222.895	0.74	correct	incongruent	Block1	incongruent/STIM_011.jpg
226.934	1.249	correct	incongruent	Block1	incongruent/STIM_011.jpg
230.63	1.016	correct	incongruent	Block1	incongruent/STIM_011.jpg
234.611	0.859	correct	incongruent	Block1	incongruent/STIM_011.jpg
237.791	0.631	correct	incongruent	Block1	incongruent/STIM_011.jpg
242.406	1.257	correct	incongruent	Block1	incongruent/STIM_012.jpg
247.76	0.862	correct	incongruent	Block1	incongruent/STIM_012.jpg
251.626	0.746	correct	incongruent	Block1	incongruent/STIM_012.jpg
255.793	0.675	correct	incongruent	Block1	incongruent/STIM_012.jpg
258.778	0.777	correct	incongruent	Block1	incongruent/STIM_012.jpg
263.267	1.132	correct	incongruent	Block1	incongruent/STIM_013.jpg
268.516	0.862	correct	incongruent	Block1	incongruent/STIM_013.jpg
272.483	0.612	correct	incongruent	Block1	incongruent/STIM_013.jpg
275.263	0.731	correct	incongruent	Block1	incongruent/STIM_013.jpg
278.358	0.836	correct	incongruent	Block1	incongruent/STIM_013.jpg
282.79	0.688	correct	incongruent	Block1	incongruent/STIM_014.jpg
286.842	0.614	correct	incongruent	Block1	incongruent/STIM_014.jpg
289.964	1.161	correct	incongruent	Block1	incongruent/STIM_014.jpg
294.364	1.105	correct	incongruent	Block1	incongruent/STIM_014.jpg
298.472	0.598	correct	incongruent	Block1	incongruent/STIM_014.jpg
301.274	1.009	correct	incongruent	Block1	incongruent/STIM_015.jpg
305.898	0.658	correct	incongruent	Block1	incongruent/STIM_015.jpg
310.627	0.781	correct	incongruent	Block1	incongruent/STIM_015.jpg
313.945	0.696	correct	incongruent	Block1	incongruent/STIM_015.jpg
317.32	0.559	correct	incongruent	Block1	incongruent/STIM_015.jpg
321.439	1.273	correct	incongruent	Block1	incongruent/STIM_016.jpg
325.296	1.177	correct	incongruent	Block1	incongruent/STIM_016.jpg
328.637	0.851	correct	incongruent	Block1	incongruent/STIM_016.jpg
333.267	1.012	incorrect	incongruent	Block1	incongruent/STIM_016.jpg
337.973	0.859	correct	incongruent	Block1	incongruent/STIM_016.jpg
341.275	1.119	correct	incongruent	Block1	incongruent/STIM_017.jpg
344.984	1.002	correct	incongruent	Block1	incongruent/STIM_017.jpg
348.166	0.985	correct	incongruent	Block1	incongruent/STIM_017.jpg
352.505	0.672	correct	incongruent	Block1	incongruent/STIM_017.jpg
356.103	0.76	correct	incongruent	Block1	incongruent/STIM_017.jpg
359.876	0.717	correct	incongruent	Block1	incongruent/STIM_018.jpg
363.29	0.68	correct	incongruent	Block1	incongruent/STIM_018.jpg
366.207	0.776	incorrect	incongruent	Block1	incongruent/STIM_018.jpg
370.521	0.63	correct	incongruent	Block1	incongruent/STIM_018.jpg
373.828	0.764	correct	incongruent	Block1	incongruent/STIM_018.jpg
378.333	0.878	correct	incongruent	Block1	incongruent/STIM_019.jpg
381.427	0.981	correct	incongruent	Block1	incongruent/STIM_019.jpg
386.141	0.866	correct	incongruent	Block1	incongruent/STIM_019.jpg
389.929	0.999	correct	incongruent	Block1	incongruent/STIM_019.jpg
394.826	0.657	correct	incongruent	Block1	incongruent/STIM_019.jpg
398.844	1.245	incorrect	incongruent	Block1	incongruent/STIM_020.jpg
403.023	0.877	incorrect	incongruent	Block1	incongruent/STIM_020.jpg
407.838	0.993	correct	incongruent	Block1	incongruent/STIM_020.jpg
411.206	0.605	correct	incongruent	Block1	incongruent/STIM_020.jpg
414.834	0.871	correct	incongruent	Block1	incongruent/STIM_020.jpg
418.22	0.859	correct	incongruent	Block1	incongruent/STIM_021.jpg
421.523	0.956	correct	incongruent	Block1	incongruent/STIM_021.jpg
425.195	0.712	correct	incongruent	Block1	incongruent/STIM_021.jpg
429.328	0.964	correct	incongruent	Block1	incongruent/STIM_021.jpg
433.701	0.597	correct	incongruent	Block1	incongruent/STIM_021.jpg
438.204	0.944	incorrect	incongruent	Block1	incongruent/STIM_022.jpg
441.482	0.62	incorrect	incongruent	Block1	incongruent/STIM_022.jpg
445.335	0.841	correct	incongruent	Block1	incongruent/STIM_022.jpg
448.907	0.822	correct	incongruent	Block1	incongruent/STIM_022.jpg
453.121	0.685	incorrect	incongruent	Block1	incongruent/STIM_022.jpg
456.167	1.27	correct	incongruent	Block1	incongruent/STIM_023.jpg
460.198	1.261	correct	incongruent	Block1	incongruent/STIM_023.jpg
465.419	1.013	correct	incongruent	Block1	incongruent/STIM_023.jpg
470.451	0.696	incorrect	incongruent	Block1	incongruent/STIM_023.jpg
475.223	1.051	correct	incongruent	Block1	incongruent/STIM_023.jpg
479.816	0.947	correct	incongruent	Block1	incongruent/STIM_024.jpg
483.884	0.851	correct	incongruent	Block1	incongruent/STIM_024.jpg
488.252	0.811	correct	incongruent	Block1	incongruent/STIM_024.jpg
492.252	0.909	correct	incongruent	Block1	incongruent/STIM_024.jpg
495.79	0.884	correct	incongruent	Block1	incongruent/STIM_024.jpg
499.251	0.99	correct	incongruent	Block1	incongruent/STIM_025.jpg
503.445	0.682	correct	incongruent	Block1	incongruent/STIM_025.jpg
506.393	1.118	correct	incongruent	Block1	incongruent/STIM_025.jpg
510.314	1.004	correct	incongruent	Block1	incongruent/STIM_025.jpg
513.726	0.808	correct	incongruent	Block1	incongruent/STIM_025.jpg
517.427	1.147	correct	incongruent	Block1	incongruent/STIM_026.jpg
521.97	1.019	correct	incongruent	Block1	incongruent/STIM_026.jpg
525.395	1.067	correct	incongruent	Block1	incongruent/STIM_026.jpg
528.758	0.591	correct	incongruent	Block1	incongruent/STIM_026.jpg
532.05	0.728	correct	incongruent	Block1	incongruent/STIM_026.jpg
535.366	1.159	correct	incongruent	Block1	incongruent/STIM_027.jpg
540.093	1.199	correct	incongruent	Block1	incongruent/STIM_027.jpg
543.687	0.663	correct	incongruent	Block1	incongruent/STIM_027.jpg
546.829	1.076	correct	incongruent	Block1	incongruent/STIM_027.jpg
551.929	0.756	correct	incongruent	Block1	incongruent/STIM_027.jpg
555.373	1.031	correct	incongruent	Block1	incongruent/STIM_028.jpg
559.332	0.611	correct	incongruent	Block1	incongruent/STIM_028.jpg
562.458	0.98	correct	incongruent	Block1	incongruent/STIM_028.jpg
567.433	1.002	correct	incongruent	Block1	incongruent/STIM_028.jpg
572.321	0.824	correct	incongruent	Block1	incongruent/STIM_028.jpg
576.34	0.986	correct	incongruent	Block1	incongruent/STIM_029.jpg
579.488	1.241	correct	incongruent	Block1	incongruent/STIM_029.jpg
584.25	1.204	correct	incongruent	Block1	incongruent/STIM_029.jpg
588.279	0.791	correct	incongruent	Block1	incongruent/STIM_029.jpg
592.158	0.796	incorrect	incongruent	Block1	incongruent/STIM_029.jpg
595.789	0.688	correct	congruent	Block1	congruent/STIM_000.jpg
600.101	0.474	correct	congruent	Block1	congruent/STIM_000.jpg
603.587	0.535	correct	congruent	Block1	congruent/STIM_000.jpg
607.324	0.628	correct	congruent	Block1	congruent/STIM_000.jpg
610.471	0.705	correct	congruent	Block1	congruent/STIM_000.jpg
614.439	0.702	correct	congruent	Block1	congruent/STIM_001.jpg
617.554	0.714	correct	congruent	Block1	congruent/STIM_001.jpg
620.604	0.55	correct	congruent	Block1	congruent/STIM_001.jpg
623.712	0.638	correct	congruent	Block1	congruent/STIM_001.jpg
627.716	0.636	correct	congruent	Block1	congruent/STIM_001.jpg
631.16	0.635	correct	congruent	Block1	congruent/STIM_002.jpg
635.034	0.698	correct	congruent	Block1	congruent/STIM_002.jpg
638.683	0.801	correct	congruent	Block1	congruent/STIM_002.jpg
643.574	0.744	correct	congruent	Block1	congruent/STIM_002.jpg
647.044	0.656	correct	congruent	Block1	congruent/STIM_002.jpg
651.738	0.594	correct	congruent	Block1	congruent/STIM_003.jpg
656.164	0.654	correct	congruent	Block1	congruent/STIM_003.jpg
660.057	0.549	correct	congruent	Block1	congruent/STIM_003.jpg
663.798	0.748	correct	congruent	Block1	congruent/STIM_003.jpg
668.226	0.622	correct	congruent	Block1	congruent/STIM_003.jpg
672.056	0.755	correct	congruent	Block1	congruent/STIM_004.jpg
676.271	0.575	correct	congruent	Block1	congruent/STIM_004.jpg
680.527	0.576	correct	congruent	Block1	congruent/STIM_004.jpg
683.797	0.688	incorrect	congruent	Block1	congruent/STIM_004.jpg
687.356	0.652	correct	congruent	Block1	congruent/STIM_004.jpg
691.114	0.796	correct	congruent	Block1	congruent/STIM_005.jpg
695.372	0.659	correct	congruent	Block1	congruent/STIM_005.jpg
698.868	0.709	correct	congruent	Block1	congruent/STIM_005.jpg
702.615	0.623	correct	congruent	Block1	congruent/STIM_005.jpg
706.256	0.623	correct	congruent	Block1	congruent/STIM_005.jpg
710.147	0.778	correct	congruent	Block1	congruent/STIM_006.jpg
713.896	0.587	correct	congruent	Block1	congruent/STIM_006.jpg
716.898	0.71	correct	congruent	Block1	congruent/STIM_006.jpg
720.381	0.523	correct	congruent	Block1	congruent/STIM_006.jpg
724.018	0.464	correct	congruent	Block1	congruent/STIM_006.jpg
728.006	0.611	correct	congruent	Block1	congruent/STIM_007.jpg
731.167	0.57	correct	congruent	Block1	congruent/STIM_007.jpg
734.445	0.564	correct	congruent	Block1	congruent/STIM_007.jpg
738.23	0.595	correct	congruent	Block1	congruent/STIM_007.jpg
742.736	0.627	correct	congruent	Block1	congruent/STIM_007.jpg
747.274	0.52	correct	congruent	Block1	congruent/STIM_008.jpg
751.333	0.486	correct	congruent	Block1	congruent/STIM_008.jpg
754.61	0.556	correct	congruent	Block1	congruent/STIM_008.jpg
759.181	0.625	correct	congruent	Block1	congruent/STIM_008.jpg
762.018	0.682	correct	congruent	Block1	congruent/STIM_008.jpg
764.908	0.766	correct	congruent	Block1	congruent/STIM_009.jpg
769.296	0.574	correct	congruent	Block1	congruent/STIM_009.jpg
772.573	0.678	correct	congruent	Block1	congruent/STIM_009.jpg
777.187	0.743	correct	congruent	Block1	congruent/STIM_009.jpg
780.947	0.795	correct	congruent	Block1	congruent/STIM_009.jpg
784.78	0.473	correct	congruent	Block1	congruent/STIM_010.jpg
787.92	0.591	correct	congruent	Block1	congruent/STIM_010.jpg
791.968	0.624	correct	congruent	Block1	congruent/STIM_010.jpg
796.345	0.574	correct	congruent	Block1	congruent/STIM_010.jpg
799.902	0.454	correct	congruent	Block1	congruent/STIM_010.jpg
804.259	0.597	correct	congruent	Block1	congruent/STIM_011.jpg
808.728	0.633	correct	congruent	Block1	congruent/STIM_011.jpg
813.021	0.798	correct	congruent	Block1	congruent/STIM_011.jpg
816.128	0.46	correct	congruent	Block1	congruent/STIM_011.jpg
818.989	0.761	correct	congruent	Block1	congruent/STIM_011.jpg
823.825	0.576	correct	congruent	Block1	congruent/STIM_012.jpg
826.91	0.738	correct	congruent	Block1	congruent/STIM_012.jpg
830.541	0.633	correct	congruent	Block1	congruent/STIM_012.jpg
833.74	0.542	correct	congruent	Block1	congruent/STIM_012.jpg
838.008	0.738	correct	congruent	Block1	congruent/STIM_012.jpg
841.421	0.624	correct	congruent	Block1	congruent/STIM_013.jpg
844.928	0.746	correct	congruent	Block1	congruent/STIM_013.jpg
849.606	0.739	correct	congruent	Block1	congruent/STIM_013.jpg
854.15	0.762	correct	congruent	Block1	congruent/STIM_013.jpg
857.59	0.804	correct	congruent	Block1	congruent/STIM_013.jpg
862.422	0.698	correct	congruent	Block1	congruent/STIM_014.jpg
865.344	0.538	correct	congruent	Block1	congruent/STIM_014.jpg
868.193	0.452	correct	congruent	Block1	congruent/STIM_014.jpg
872.355	0.768	correct	congruent	Block1	congruent/STIM_014.jpg
876.494	0.502	correct	congruent	Block1	congruent/STIM_014.jpg
879.112	0.782	correct	congruent	Block1	congruent/STIM_015.jpg
883.866	0.512	correct	congruent	Block1	congruent/STIM_015.jpg
886.944	0.676	correct	congruent	Block1	congruent/STIM_015.jpg
889.881	0.745	correct	congruent	Block1	congruent/STIM_015.jpg
894.077	0.709	correct	congruent	Block1	congruent/STIM_015.jpg
897.37	0.572	correct	congruent	Block1	congruent/STIM_016.jpg
900.018	0.803	correct	congruent	Block1	congruent/STIM_016.jpg
904.246	0.745	correct	congruent	Block1	congruent/STIM_016.jpg
908.381	0.479	correct	congruent	Block1	congruent/STIM_016.jpg
912.832	0.51	correct	congruent	Block1	congruent/STIM_016.jpg
915.5	0.656	correct	congruent	Block1	congruent/STIM_017.jpg
918.531	0.585	correct	congruent	Block1	congruent/STIM_017.jpg
922.624	0.786	correct	congruent	Block1	congruent/STIM_017.jpg
927.239	0.665	correct	congruent	Block1	congruent/STIM_017.jpg
930.804	0.529	correct	congruent	Block1	congruent/STIM_017.jpg
935.225	0.803	correct	congruent	Block1	congruent/STIM_018.jpg
940.099	0.701	correct	congruent	Block1	congruent/STIM_018.jpg
943.511	0.489	correct	congruent	Block1	congruent/STIM_018.jpg
946.617	0.488	incorrect	congruent	Block1	congruent/STIM_018.jpg
951.114	0.552	correct	congruent	Block1	congruent/STIM_018.jpg
953.736	0.568	correct	congruent	Block1	congruent/STIM_019.jpg
957.338	0.724	correct	congruent	Block1	congruent/STIM_019.jpg
961.71	0.665	correct	congruent	Block1	congruent/STIM_019.jpg
966.419	0.452	correct	congruent	Block1	congruent/STIM_019.jpg
969.464	0.476	correct	congruent	Block1	congruent/STIM_019.jpg
972.675	0.559	correct	congruent	Block1	congruent/STIM_020.jpg
976.17	0.576	correct	congruent	Block1	congruent/STIM_020.jpg
980.031	0.725	correct	congruent	Block1	congruent/STIM_020.jpg
982.89	0.751	correct	congruent	Block1	congruent/STIM_020.jpg
987.247	0.676	correct	congruent	Block1	congruent/STIM_020.jpg
991.298	0.718	correct	congruent	Block1	congruent/STIM_021.jpg
994.525	0.588	correct	congruent	Block1	congruent/STIM_021.jpg
997.477	0.483	correct	congruent	Block1	congruent/STIM_021.jpg
1001.7	0.525	correct	congruent	Block1	congruent/STIM_021.jpg
1004.848	0.768	incorrect	congruent	Block1	congruent/STIM_021.jpg
1008.734	0.447	correct	congruent	Block1	congruent/STIM_022.jpg
1013.112	0.487	correct	congruent	Block1	congruent/STIM_022.jpg
1015.897	0.464	correct	congruent	Block1	congruent/STIM_022.jpg
1019.119	0.751	incorrect	congruent	Block1	congruent/STIM_022.jpg
1023.636	0.569	correct	congruent	Block1	congruent/STIM_022.jpg
1027.271	0.538	correct	congruent	Block1	congruent/STIM_023.jpg
1031.728	0.69	correct	congruent	Block1	congruent/STIM_023.jpg
1035.824	0.653	correct	congruent	Block1	congruent/STIM_023.jpg
1039.503	0.786	correct	congruent	Block1	congruent/STIM_023.jpg
1044.209	0.792	correct	congruent	Block1	congruent/STIM_023.jpg
1048.12	0.672	correct	congruent	Block1	congruent/STIM_024.jpg
1052.002	0.687	correct	congruent	Block1	congruent/STIM_024.jpg
1056.209	0.626	correct	congruent	Block1	congruent/STIM_024.jpg
1059.632	0.579	correct	congruent	Block1	congruent/STIM_024.jpg
1064.127	0.654	correct	congruent	Block1	congruent/STIM_024.jpg
1067.114	0.494	correct	congruent	Block1	congruent/STIM_025.jpg
1071.318	0.69	correct	congruent	Block1	congruent/STIM_025.jpg
1075.278	0.654	correct	congruent	Block1	congruent/STIM_025.jpg
1079.054	0.755	correct	congruent	Block1	congruent/STIM_025.jpg
1083.272	0.542	correct	congruent	Block1	congruent/STIM_025.jpg
1086.529	0.657	correct	congruent	Block1	congruent/STIM_026.jpg
1090.881	0.717	correct	congruent	Block1	congruent/STIM_026.jpg
1095.353	0.513	correct	congruent	Block1	congruent/STIM_026.jpg
1098.174	0.453	correct	congruent	Block1	congruent/STIM_026.jpg
1101.869	0.497	correct	congruent	Block1	congruent/STIM_026.jpg
1104.969	0.779	correct	congruent	Block1	congruent/STIM_027.jpg
1109.353	0.764	correct	congruent	Block1	congruent/STIM_027.jpg
1113.928	0.771	correct	congruent	Block1	congruent/STIM_027.jpg
1116.987	0.58	correct	congruent	Block1	congruent/STIM_027.jpg
1120.305	0.469	correct	congruent	Block1	congruent/STIM_027.jpg
1122.983	0.679	correct	congruent	Block1	congruent/STIM_028.jpg
1126.386	0.535	correct	congruent	Block1	congruent/STIM_028.jpg
1130.565	0.725	correct	congruent	Block1	congruent/STIM_028.jpg
1133.785	0.522	correct	congruent	Block1	congruent/STIM_028.jpg
1137.3	0.632	correct	congruent	Block1	congruent/STIM_028.jpg
1141.963	0.735	correct	congruent	Block1	congruent/STIM_029.jpg
1145.578	0.722	correct	congruent	Block1	congruent/STIM_029.jpg
1148.965	0.506	correct	congruent	Block1	congruent/STIM_029.jpg
1153.178	0.655	correct	congruent	Block1	congruent/STIM_029.jpg
1156.485	0.796	correct	congruent	Block1	congruent/STIM_029.jpg
1159.854	0.85	correct	incongruent	Block2	incongruent/STIM_000.jpg
1164.352	0.791	correct	incongruent	Block2	incongruent/STIM_000.jpg
1168.256	0.704	correct	incongruent	Block2	incongruent/STIM_000.jpg
1171.674	0.909	correct	incongruent	Block2	incongruent/STIM_000.jpg
1175.039	0.534	correct	incongruent	Block2	incongruent/STIM_000.jpg
1178.651	0.776	correct	incongruent	Block2	incongruent/STIM_001.jpg
1183.494	0.852	correct	incongruent	Block2	incongruent/STIM_001.jpg
1188.433	0.597	correct	incongruent	Block2	incongruent/STIM_001.jpg
1191.738	0.766	correct	incongruent	Block2	incongruent/STIM_001.jpg
1194.798	0.692	correct	incongruent	Block2	incongruent/STIM_001.jpg
1199.174	0.797	correct	incongruent	Block2	incongruent/STIM_002.jpg
1203.097	0.526	correct	incongruent	Block2	incongruent/STIM_002.jpg
1207.089	0.741	correct	incongruent	Block2	incongruent/STIM_002.jpg
1210.546	0.439	correct	incongruent	Block2	incongruent/STIM_002.jpg
1214.733	0.507	correct	incongruent	Block2	incongruent/STIM_002.jpg
1218.161	0.942	correct	incongruent	Block2	incongruent/STIM_003.jpg
1222.006	0.645	correct	incongruent	Block2	incongruent/STIM_003.jpg
1226.203	0.68	correct	incongruent	Block2	incongruent/STIM_003.jpg
1229.765	0.587	correct	incongruent	Block2	incongruent/STIM_003.jpg
1233.297	0.744	correct	incongruent	Block2	incongruent/STIM_003.jpg
1237.225	0.579	correct	incongruent	Block2	incongruent/STIM_004.jpg
1240.908	0.862	correct	incongruent	Block2	incongruent/STIM_004.jpg
1245.704	0.732	correct	incongruent	Block2	incongruent/STIM_004.jpg
1248.936	0.592	correct	incongruent	Block2	incongruent/STIM_004.jpg
1252.237	0.549	correct	incongruent	Block2	incongruent/STIM_004.jpg
1256.389	0.742	correct	incongruent	Block2	incongruent/STIM_005.jpg
1260.385	0.53	correct	incongruent	Block2	incongruent/STIM_005.jpg
1264.173	0.522	correct	incongruent	Block2	incongruent/STIM_005.jpg
1268.385	0.711	correct	incongruent	Block2	incongruent/STIM_005.jpg
1273.005	0.542	correct	incongruent	Block2	incongruent/STIM_005.jpg
1275.841	0.713	correct	incongruent	Block2	incongruent/STIM_006.jpg
1279.639	0.598	correct	incongruent	Block2	incongruent/STIM_006.jpg
1283.668	0.479	correct	incongruent	Block2	incongruent/STIM_006.jpg
1287.531	0.825	correct	incongruent	Block2	incongruent/STIM_006.jpg
1290.794	0.808	correct	incongruent	Block2	incongruent/STIM_006.jpg
1295.235	0.532	correct	incongruent	Block2	incongruent/STIM_007.jpg
1298.516	0.582	correct	incongruent	Block2	incongruent/STIM_007.jpg
1302.785	0.584	correct	incongruent	Block2	incongruent/STIM_007.jpg
1305.723	0.573	correct	incongruent	Block2	incongruent/STIM_007.jpg
1308.954	0.491	correct	incongruent	Block2	incongruent/STIM_007.jpg
1311.903	0.849	correct	incongruent	Block2	incongruent/STIM_008.jpg
1316.233	0.582	correct	incongruent	Block2	incongruent/STIM_008.jpg
1320.527	0.519	correct	incongruent	Block2	incongruent/STIM_008.jpg
1323.282	0.806	correct	incongruent	Block2	incongruent/STIM_008.jpg
1326.861	0.656	correct	incongruent	Block2	incongruent/STIM_008.jpg
1330.668	0.594	correct	incongruent	Block2	incongruent/STIM_009.jpg
1333.588	0.921	correct	incongruent	Block2	incongruent/STIM_009.jpg
1338.14	0.88	incorrect	incongruent	Block2	incongruent/STIM_009.jpg
1341.879	0.848	correct	incongruent	Block2	incongruent/STIM_009.jpg
1345.574	0.823	correct	incongruent	Block2	incongruent/STIM_009.jpg
1350.36	0.591	correct	incongruent	Block2	incongruent/STIM_010.jpg
1353.426	0.798	correct	incongruent	Block2	incongruent/STIM_010.jpg
1358.238	0.994	correct	incongruent	Block2	incongruent/STIM_010.jpg
1363.227	0.786	correct	incongruent	Block2	incongruent/STIM_010.jpg
1367.232	0.501	correct	incongruent	Block2	incongruent/STIM_010.jpg
1370.179	1.06	correct	incongruent	Block2	incongruent/STIM_011.jpg
1373.587	1.007	correct	incongruent	Block2	incongruent/STIM_011.jpg
1377.762	0.915	correct	incongruent	Block2	incongruent/STIM_011.jpg
1381.744	0.644	correct	incongruent	Block2	incongruent/STIM_011.jpg
1385.11	0.588	correct	incongruent	Block2	incongruent/STIM_011.jpg
1389.762	1.057	correct	incongruent	Block2	incongruent/STIM_012.jpg
1393.911	0.753	correct	incongruent	Block2	incongruent/STIM_012.jpg
1396.854	0.873	incorrect	incongruent	Block2	incongruent/STIM_012.jpg
1401.018	0.815	correct	incongruent	Block2	incongruent/STIM_012.jpg
1403.985	0.606	correct	incongruent	Block2	incongruent/STIM_012.jpg
1406.672	0.973	correct	incongruent	Block2	incongruent/STIM_013.jpg
1410.896	0.951	correct	incongruent	Block2	incongruent/STIM_013.jpg
1414.319	0.792	incorrect	incongruent	Block2	incongruent/STIM_013.jpg
1418.915	0.676	correct	incongruent	Block2	incongruent/STIM_013.jpg
1423.618	0.484	incorrect	incongruent	Block2	incongruent/STIM_013.jpg
1426.886	1.034	correct	incongruent	Block2	incongruent/STIM_014.jpg
1431.94	0.681	correct	incongruent	Block2	incongruent/STIM_014.jpg
1436.075	0.86	correct	incongruent	Block2	incongruent/STIM_014.jpg
1439.933	0.643	correct	incongruent	Block2	incongruent/STIM_014.jpg
1444.495	0.755	correct	incongruent	Block2	incongruent/STIM_014.jpg
1447.439	0.728	correct	incongruent	Block2	incongruent/STIM_015.jpg
1450.311	0.772	correct	incongruent	Block2	incongruent/STIM_015.jpg
1453.884	0.919	correct	incongruent	Block2	incongruent/STIM_015.jpg
1458.782	0.84	correct	incongruent	Block2	incongruent/STIM_015.jpg
1462.774	0.584	correct	incongruent	Block2	incongruent/STIM_015.jpg
1465.843	0.826	correct	incongruent	Block2	incongruent/STIM_016.jpg
1469.642	0.705	incorrect	incongruent	Block2	incongruent/STIM_016.jpg
1473.959	0.728	correct	incongruent	Block2	incongruent/STIM_016.jpg
1477.433	0.529	correct	incongruent	Block2	incongruent/STIM_016.jpg
1480.689	0.499	correct	incongruent	Block2	incongruent/STIM_016.jpg
1484.119	0.641	correct	incongruent	Block2	incongruent/STIM_017.jpg
1488.717	0.664	correct	incongruent	Block2	incongruent/STIM_017.jpg
1491.545	0.494	correct	incongruent	Block2	incongruent/STIM_017.jpg
1495.969	0.827	correct	incongruent	Block2	incongruent/STIM_017.jpg
1499.849	0.45	correct	incongruent	Block2	incongruent/STIM_017.jpg
1503.181	0.566	correct	incongruent	Block2	incongruent/STIM_018.jpg
1507.752	1.003	correct	incongruent	Block2	incongruent/STIM_018.jpg
1510.905	0.694	correct	incongruent	Block2	incongruent/STIM_018.jpg
1515.128	0.793	correct	incongruent	Block2	incongruent/STIM_018.jpg
1518.793	0.912	correct	incongruent	Block2	incongruent/STIM_018.jpg
1523.5	0.728	correct	incongruent	Block2	incongruent/STIM_019.jpg
1526.654	0.613	correct	incongruent	Block2	incongruent/STIM_019.jpg
1529.511	0.482	correct	incongruent	Block2	incongruent/STIM_019.jpg
1533.801	0.75	correct	incongruent	Block2	incongruent/STIM_019.jpg
1537.834	0.496	correct	incongruent	Block2	incongruent/STIM_019.jpg
1541.896	0.856	correct	incongruent	Block2	incongruent/STIM_020.jpg
1546.044	0.91	correct	incongruent	Block2	incongruent/STIM_020.jpg
1549.876	0.848	correct	incongruent	Block2	incongruent/STIM_020.jpg
1553.899	0.789	correct	incongruent	Block2	incongruent/STIM_020.jpg
1556.852	0.635	correct	incongruent	Block2	incongruent/STIM_020.jpg
1560.84	1.111	correct	incongruent	Block2	incongruent/STIM_021.jpg
1564.304	0.54	correct	incongruent	Block2	incongruent/STIM_021.jpg
1567.866	0.528	correct	incongruent	Block2	incongruent/STIM_021.jpg
1570.645	0.506	correct	incongruent	Block2	incongruent/STIM_021.jpg
1573.645	0.764	correct	incongruent	Block2	incongruent/STIM_021.jpg
1577.083	0.765	incorrect	incongruent	Block2	incongruent/STIM_022.jpg
1581.276	0.506	correct	incongruent	Block2	incongruent/STIM_022.jpg
1585.733	0.542	correct	incongruent	Block2	incongruent/STIM_022.jpg
1589.399	0.779	correct	incongruent	Block2	incongruent/STIM_022.jpg
1593.971	0.636	correct	incongruent	Block2	incongruent/STIM_022.jpg
1597.195	1.058	correct	incongruent	Block2	incongruent/STIM_023.jpg
1601.262	0.637	correct	incongruent	Block2	incongruent/STIM_023.jpg
1604.382	0.669	incorrect	incongruent	Block2	incongruent/STIM_023.jpg
1607.875	0.79	correct	incongruent	Block2	incongruent/STIM_023.jpg
1612.179	0.788	correct	incongruent	Block2	incongruent/STIM_023.jpg
1615.972	1.024	correct	incongruent	Block2	incongruent/STIM_024.jpg
1620.774	0.684	correct	incongruent	Block2	incongruent/STIM_024.jpg
1624.38	0.908	correct	incongruent	Block2	incongruent/STIM_024.jpg
1628.804	0.863	correct	incongruent	Block2	incongruent/STIM_024.jpg
1633.185	0.899	correct	incongruent	Block2	incongruent/STIM_024.jpg
1637.968	0.71	correct	incongruent	Block2	incongruent/STIM_025.jpg
1641.359	0.977	correct	incongruent	Block2	incongruent/STIM_025.jpg
1644.832	0.826	correct	incongruent	Block2	incongruent/STIM_025.jpg
1648.909	0.778	correct	incongruent	Block2	incongruent/STIM_025.jpg
1651.867	0.877	correct	incongruent	Block2	incongruent/STIM_025.jpg
1655.891	1.014	correct	incongruent	Block2	incongruent/STIM_026.jpg
1659.789	1.058	correct	incongruent	Block2	incongruent/STIM_026.jpg
1664.827	0.727	correct	incongruent	Block2	incongruent/STIM_026.jpg
1669.339	0.876	correct	incongruent	Block2	incongruent/STIM_026.jpg
1674.26	0.456	correct	incongruent	Block2	incongruent/STIM_026.jpg
1677.748	1.128	correct	incongruent	Block2	incongruent/STIM_027.jpg
1681.663	1.047	correct	incongruent	Block2	incongruent/STIM_027.jpg
1685.737	0.952	correct	incongruent	Block2	incongruent/STIM_027.jpg
1690.77	0.507	correct	incongruent	Block2	incongruent/STIM_027.jpg
1693.711	0.591	correct	incongruent	Block2	incongruent/STIM_027.jpg
1696.529	1.068	incorrect	incongruent	Block2	incongruent/STIM_028.jpg
1701.461	0.547	correct	incongruent	Block2	incongruent/STIM_028.jpg
1705.37	0.775	correct	incongruent	Block2	incongruent/STIM_028.jpg
1709.229	0.837	correct	incongruent	Block2	incongruent/STIM_028.jpg
1713.87	0.73	correct	incongruent	Block2	incongruent/STIM_028.jpg
1716.985	0.979	correct	incongruent	Block2	incongruent/STIM_029.jpg
1720.996	0.927	correct	incongruent	Block2	incongruent/STIM_029.jpg
1725.591	0.488	correct	incongruent	Block2	incongruent/STIM_029.jpg
1728.161	0.675	correct	incongruent	Block2	incongruent/STIM_029.jpg
1731.888	0.459	correct	incongruent	Block2	incongruent/STIM_029.jpg
1735.882	0.742	correct	congruent	Block2	congruent/STIM_000.jpg
1740.562	0.454	correct	congruent	Block2	congruent/STIM_000.jpg
1744.646	0.473	correct	congruent	Block2	congruent/STIM_000.jpg
1748.271	0.583	correct	congruent	Block2	congruent/STIM_000.jpg
1751.681	0.474	correct	congruent	Block2	congruent/STIM_000.jpg
1756.174	0.771	correct	congruent	Block2	congruent/STIM_001.jpg
1760.202	0.796	correct	congruent	Block2	congruent/STIM_001.jpg
1764.841	0.469	incorrect	congruent	Block2	congruent/STIM_001.jpg
1767.648	0.734	incorrect	congruent	Block2	congruent/STIM_001.jpg
1771.784	0.62	correct	congruent	Block2	congruent/STIM_001.jpg
1775.621	0.693	correct	congruent	Block2	congruent/STIM_002.jpg
1779.837	0.456	correct	congruent	Block2	congruent/STIM_002.jpg
1782.834	0.638	correct	congruent	Block2	congruent/STIM_002.jpg
1786.218	0.602	correct	congruent	Block2	congruent/STIM_002.jpg
1789.99	0.778	correct	congruent	Block2	congruent/STIM_002.jpg
1793.03	0.686	correct	congruent	Block2	congruent/STIM_003.jpg
1797.066	0.481	correct	congruent	Block2	congruent/STIM_003.jpg
1801.059	0.638	correct	congruent	Block2	congruent/STIM_003.jpg
1805.307	0.719	correct	congruent	Block2	congruent/STIM_003.jpg
1809.418	0.636	correct	congruent	Block2	congruent/STIM_003.jpg
1813.669	0.744	correct	congruent	Block2	congruent/STIM_004.jpg
1817.869	0.718	correct	congruent	Block2	congruent/STIM_004.jpg
1820.946	0.774	correct	congruent	Block2	congruent/STIM_004.jpg
1824.874	0.484	correct	congruent	Block2	congruent/STIM_004.jpg
1828.695	0.455	incorrect	congruent	Block2	congruent/STIM_004.jpg
1832.935	0.749	incorrect	congruent	Block2	congruent/STIM_005.jpg
1836.636	0.745	correct	congruent	Block2	congruent/STIM_005.jpg
1839.73	0.457	correct	congruent	Block2	congruent/STIM_005.jpg
1842.303	0.537	correct	congruent	Block2	congruent/STIM_005.jpg
1845.644	0.75	correct	congruent	Block2	congruent/STIM_005.jpg
1848.99	0.744	correct	congruent	Block2	congruent/STIM_006.jpg
1853.074	0.69	correct	congruent	Block2	congruent/STIM_006.jpg
1857.254	0.616	correct	congruent	Block2	congruent/STIM_006.jpg
1860.708	0.523	correct	congruent	Block2	congruent/STIM_006.jpg
1865.009	0.489	correct	congruent	Block2	congruent/STIM_006.jpg
1869.369	0.548	incorrect	congruent	Block2	congruent/STIM_007.jpg
1872.021	0.483	correct	congruent	Block2	congruent/STIM_007.jpg
1874.988	0.76	correct	congruent	Block2	congruent/STIM_007.jpg
1879.708	0.479	correct	congruent	Block2	congruent/STIM_007.jpg
1884.09	0.529	correct	congruent	Block2	congruent/STIM_007.jpg
1888.445	0.643	correct	congruent	Block2	congruent/STIM_008.jpg
1891.643	0.523	correct	congruent	Block2	congruent/STIM_008.jpg
1895.092	0.71	correct	congruent	Block2	congruent/STIM_008.jpg
1898.335	0.745	correct	congruent	Block2	congruent/STIM_008.jpg
1902.329	0.621	correct	congruent	Block2	congruent/STIM_008.jpg
1905.604	0.624	correct	congruent	Block2	congruent/STIM_009.jpg
1908.779	0.626	correct	congruent	Block2	congruent/STIM_009.jpg
1911.579	0.691	incorrect	congruent	Block2	congruent/STIM_009.jpg
1914.68	0.626	correct	congruent	Block2	congruent/STIM_009.jpg
1918.609	0.591	correct	congruent	Block2	congruent/STIM_009.jpg
1922.085	0.748	correct	congruent	Block2	congruent/STIM_010.jpg
1925.132	0.473	correct	congruent	Block2	congruent/STIM_010.jpg
1927.952	0.747	correct	congruent	Block2	congruent/STIM_010.jpg
1931.883	0.601	correct	congruent	Block2	congruent/STIM_010.jpg
1935.453	0.466	correct	congruent	Block2	congruent/STIM_010.jpg
1939.474	0.699	correct	congruent	Block2	congruent/STIM_011.jpg
1942.364	0.484	correct	congruent	Block2	congruent/STIM_011.jpg
1945.131	0.672	correct	congruent	Block2	congruent/STIM_011.jpg
1949.409	0.705	correct	congruent	Block2	congruent/STIM_011.jpg
1953.409	0.46	correct	congruent	Block2	congruent/STIM_011.jpg
1955.987	0.701	correct	congruent	Block2	congruent/STIM_012.jpg
1959.948	0.786	correct	congruent	Block2	congruent/STIM_012.jpg
1963.604	0.678	correct	congruent	Block2	congruent/STIM_012.jpg
1967.468	0.775	correct	congruent	Block2	congruent/STIM_012.jpg
1971.074	0.556	correct	congruent	Block2	congruent/STIM_012.jpg
1974.1	0.739	correct	congruent	Block2	congruent/STIM_013.jpg
1977.563	0.501	correct	congruent	Block2	congruent/STIM_013.jpg
1981.609	0.528	correct	congruent	Block2	congruent/STIM_013.jpg
1985.065	0.511	incorrect	congruent	Block2	congruent/STIM_013.jpg
1988.872	0.751	correct	congruent	Block2	congruent/STIM_013.jpg
1993.343	0.682	correct	congruent	Block2	congruent/STIM_014.jpg
1996.693	0.524	correct	congruent	Block2	congruent/STIM_014.jpg
1999.751	0.563	correct	congruent	Block2	congruent/STIM_014.jpg
2002.863	0.457	correct	congruent	Block2	congruent/STIM_014.jpg
2007.25	0.595	correct	congruent	Block2	congruent/STIM_014.jpg
2011.023	0.517	correct	congruent	Block2	congruent/STIM_015.jpg
2014.74	0.657	correct	congruent	Block2	congruent/STIM_015.jpg
2018.691	0.459	correct	congruent	Block2	congruent/STIM_015.jpg
2021.301	0.673	correct	congruent	Block2	congruent/STIM_015.jpg
2024.734	0.529	correct	congruent	Block2	congruent/STIM_015.jpg
2027.498	0.687	correct	congruent	Block2	congruent/STIM_016.jpg
2032.185	0.616	correct	congruent	Block2	congruent/STIM_016.jpg
2034.924	0.726	correct	congruent	Block2	congruent/STIM_016.jpg
2038.544	0.598	correct	congruent	Block2	congruent/STIM_016.jpg
2042.857	0.587	correct	congruent	Block2	congruent/STIM_016.jpg
2045.815	0.789	correct	congruent	Block2	congruent/STIM_017.jpg
2048.787	0.697	correct	congruent	Block2	congruent/STIM_017.jpg
2053.299	0.583	correct	congruent	Block2	congruent/STIM_017.jpg
2056.541	0.71	correct	congruent	Block2	congruent/STIM_017.jpg
2059.543	0.696	correct	congruent	Block2	congruent/STIM_017.jpg
2062.905	0.734	incorrect	congruent	Block2	congruent/STIM_018.jpg
2067.197	0.631	correct	congruent	Block2	congruent/STIM_018.jpg
2070.506	0.723	correct	congruent	Block2	congruent/STIM_018.jpg
2073.92	0.475	incorrect	congruent	Block2	congruent/STIM_018.jpg
2076.616	0.475	correct	congruent	Block2	congruent/STIM_018.jpg
2079.151	0.689	correct	congruent	Block2	congruent/STIM_019.jpg
2083.733	0.665	correct	congruent	Block2	congruent/STIM_019.jpg
2087.628	0.784	correct	congruent	Block2	congruent/STIM_019.jpg
2092.461	0.647	correct	congruent	Block2	congruent/STIM_019.jpg
2095.557	0.649	correct	congruent	Block2	congruent/STIM_019.jpg
2099.317	0.766	correct	congruent	Block2	congruent/STIM_020.jpg
2102.743	0.489	correct	congruent	Block2	congruent/STIM_020.jpg
2106.709	0.452	correct	congruent	Block2	congruent/STIM_020.jpg
2111.071	0.492	correct	congruent	Block2	congruent/STIM_020.jpg
2113.849	0.688	correct	congruent	Block2	congruent/STIM_020.jpg
2118.576	0.522	correct	congruent	Block2	congruent/STIM_021.jpg
2121.904	0.499	correct	congruent	Block2	congruent/STIM_021.jpg
2124.608	0.468	correct	congruent	Block2	congruent/STIM_021.jpg
2127.15	0.786	correct	congruent	Block2	congruent/STIM_021.jpg
2130.066	0.685	correct	congruent	Block2	congruent/STIM_021.jpg
2133.018	0.791	correct	congruent	Block2	congruent/STIM_022.jpg
2136.559	0.765	correct	congruent	Block2	congruent/STIM_022.jpg
2140.189	0.716	correct	congruent	Block2	congruent/STIM_022.jpg
2143.819	0.5	correct	congruent	Block2	congruent/STIM_022.jpg
2147.969	0.711	correct	congruent	Block2	congruent/STIM_022.jpg
2152.289	0.607	correct	congruent	Block2	congruent/STIM_023.jpg
2155.312	0.715	correct	congruent	Block2	congruent/STIM_023.jpg
2158.597	0.612	correct	congruent	Block2	congruent/STIM_023.jpg
2161.783	0.721	correct	congruent	Block2	congruent/STIM_023.jpg
2165.129	0.452	correct	congruent	Block2	congruent/STIM_023.jpg
2167.706	0.542	correct	congruent	Block2	congruent/STIM_024.jpg
2171.296	0.68	correct	congruent	Block2	congruent/STIM_024.jpg
2175.277	0.768	correct	congruent	Block2	congruent/STIM_024.jpg
2179.858	0.618	correct	congruent	Block2	congruent/STIM_024.jpg
2183.021	0.592	correct	congruent	Block2	congruent/STIM_024.jpg
2185.996	0.58	correct	congruent	Block2	congruent/STIM_025.jpg
2189.843	0.76	correct	congruent	Block2	congruent/STIM_025.jpg
2193.822	0.757	correct	congruent	Block2	congruent/STIM_025.jpg
2198.231	0.777	correct	congruent	Block2	congruent/STIM_025.jpg
2202.443	0.473	correct	congruent	Block2	congruent/STIM_025.jpg
2206.269	0.743	correct	congruent	Block2	congruent/STIM_026.jpg
2209.741	0.451	correct	congruent	Block2	congruent/STIM_026.jpg
2212.971	0.691	correct	congruent	Block2	congruent/STIM_026.jpg
2216.304	0.772	correct	congruent	Block2	congruent/STIM_026.jpg
2220.445	0.45	correct	congruent	Block2	congruent/STIM_026.jpg
2223.084	0.768	correct	congruent	Block2	congruent/STIM_027.jpg
2226.436	0.494	correct	congruent	Block2	congruent/STIM_027.jpg
2230.785	0.676	correct	congruent	Block2	congruent/STIM_027.jpg
2234.073	0.785	correct	congruent	Block2	congruent/STIM_027.jpg
2237.919	0.645	correct	congruent	Block2	congruent/STIM_027.jpg
2241.643	0.452	correct	congruent	Block2	congruent/STIM_028.jpg
2244.466	0.75	correct	congruent	Block2	congruent/STIM_028.jpg
2247.518	0.471	correct	congruent	Block2	congruent/STIM_028.jpg
2251.609	0.681	correct	congruent	Block2	congruent/STIM_028.jpg
2255.357	0.479	correct	congruent	Block2	congruent/STIM_028.jpg
2259.512	0.628	incorrect	congruent	Block2	congruent/STIM_029.jpg
2263.355	0.581	correct	congruent	Block2	congruent/STIM_029.jpg
2267.397	0.566	correct	congruent	Block2	congruent/STIM_029.jpg
2270.547	0.572	correct	congruent	Block2	congruent/STIM_029.jpg
2274.301	0.742	correct	congruent	Block2	congruent/STIM_029.jpg
2278.559	0.646	correct	incongruent	Block3	incongruent/STIM_000.jpg
2281.734	0.59	incorrect	incongruent	Block3	incongruent/STIM_000.jpg
2284.471	0.442	correct	incongruent	Block3	incongruent/STIM_000.jpg
2287.422	0.863	correct	incongruent	Block3	incongruent/STIM_000.jpg
2291.382	0.763	correct	incongruent	Block3	incongruent/STIM_000.jpg
2295.884	0.665	correct	incongruent	Block3	incongruent/STIM_001.jpg
2299.841	0.49	correct	incongruent	Block3	incongruent/STIM_001.jpg
2304.203	0.885	correct	incongruent	Block3	incongruent/STIM_001.jpg
2307.488	0.596	correct	incongruent	Block3	incongruent/STIM_001.jpg
2311.601	0.637	correct	incongruent	Block3	incongruent/STIM_001.jpg
2315.409	0.684	correct	incongruent	Block3	incongruent/STIM_002.jpg
2319.536	0.602	correct	incongruent	Block3	incongruent/STIM_002.jpg
2323.788	0.64	correct	incongruent	Block3	incongruent/STIM_002.jpg
2326.537	0.582	correct	incongruent	Block3	incongruent/STIM_002.jpg
2330.939	0.717	correct	incongruent	Block3	incongruent/STIM_002.jpg
2334.982	0.524	correct	incongruent	Block3	incongruent/STIM_003.jpg
2337.954	0.489	correct	incongruent	Block3	incongruent/STIM_003.jpg
2341.582	0.495	correct	incongruent	Block3	incongruent/STIM_003.jpg
2345.733	0.67	correct	incongruent	Block3	incongruent/STIM_003.jpg
2350.436	0.844	correct	incongruent	Block3	incongruent/STIM_003.jpg
2354.901	0.645	correct	incongruent	Block3	incongruent/STIM_004.jpg
2358.668	0.896	correct	incongruent	Block3	incongruent/STIM_004.jpg
2362.083	0.556	correct	incongruent	Block3	incongruent/STIM_004.jpg
2365.605	0.671	correct	incongruent	Block3	incongruent/STIM_004.jpg
2368.61	0.851	correct	incongruent	Block3	incongruent/STIM_004.jpg
2372.924	0.681	correct	incongruent	Block3	incongruent/STIM_005.jpg
2376.362	0.92	correct	incongruent	Block3	incongruent/STIM_005.jpg
2380.691	0.755	correct	incongruent	Block3	incongruent/STIM_005.jpg
2383.738	0.898	correct	incongruent	Block3	incongruent/STIM_005.jpg
2387.547	0.842	correct	incongruent	Block3	incongruent/STIM_005.jpg
2392.108	0.822	correct	incongruent	Block3	incongruent/STIM_006.jpg
2396.469	0.805	correct	incongruent	Block3	incongruent/STIM_006.jpg
2401.167	0.83	correct	incongruent	Block3	incongruent/STIM_006.jpg
2405.44	0.713	correct	incongruent	Block3	incongruent/STIM_006.jpg
2410.227	0.844	correct	incongruent	Block3	incongruent/STIM_006.jpg
2413.738	0.938	correct	incongruent	Block3	incongruent/STIM_007.jpg
2417.627	0.599	correct	incongruent	Block3	incongruent/STIM_007.jpg
2420.942	0.531	correct	incongruent	Block3	incongruent/STIM_007.jpg
2423.929	0.571	correct	incongruent	Block3	incongruent/STIM_007.jpg
2427.798	0.614	correct	incongruent	Block3	incongruent/STIM_007.jpg
2431.907	0.822	correct	incongruent	Block3	incongruent/STIM_008.jpg
2434.961	0.64	correct	incongruent	Block3	incongruent/STIM_008.jpg
2438.414	0.872	correct	incongruent	Block3	incongruent/STIM_008.jpg
2442.213	0.859	correct	incongruent	Block3	incongruent/STIM_008.jpg
2446.256	0.49	correct	incongruent	Block3	incongruent/STIM_008.jpg
2449.725	0.469	correct	incongruent	Block3	incongruent/STIM_009.jpg
2453.224	0.734	correct	incongruent	Block3	incongruent/STIM_009.jpg
2456.918	0.646	correct	incongruent	Block3	incongruent/STIM_009.jpg
2461.067	0.577	correct	incongruent	Block3	incongruent/STIM_009.jpg
2464.018	0.76	correct	incongruent	Block3	incongruent/STIM_009.jpg
2467.744	0.91	correct	incongruent	Block3	incongruent/STIM_010.jpg
2471.904	0.714	correct	incongruent	Block3	incongruent/STIM_010.jpg
2474.71	0.506	correct	incongruent	Block3	incongruent/STIM_010.jpg
2478.216	0.744	correct	incongruent	Block3	incongruent/STIM_010.jpg
2482.798	0.839	correct	incongruent	Block3	incongruent/STIM_010.jpg
2487.311	0.456	correct	incongruent	Block3	incongruent/STIM_011.jpg
2490.091	0.441	correct	incongruent	Block3	incongruent/STIM_011.jpg
2492.873	0.835	correct	incongruent	Block3	incongruent/STIM_011.jpg
2495.824	0.902	correct	incongruent	Block3	incongruent/STIM_011.jpg
2499.328	0.899	correct	incongruent	Block3	incongruent/STIM_011.jpg
2502.712	0.707	correct	incongruent	Block3	incongruent/STIM_012.jpg
2506.14	0.542	correct	incongruent	Block3	incongruent/STIM_012.jpg
2510.435	0.507	correct	incongruent	Block3	incongruent/STIM_012.jpg
2514.197	0.462	correct	incongruent	Block3	incongruent/STIM_012.jpg
2516.956	0.792	correct	incongruent	Block3	incongruent/STIM_012.jpg
2521.032	0.495	correct	incongruent	Block3	incongruent/STIM_013.jpg
2524.005	0.826	correct	incongruent	Block3	incongruent/STIM_013.jpg
2528.305	0.751	correct	incongruent	Block3	incongruent/STIM_013.jpg
2532.537	0.646	correct	incongruent	Block3	incongruent/STIM_013.jpg
2535.776	0.63	correct	incongruent	Block3	incongruent/STIM_013.jpg
2539.471	0.859	correct	incongruent	Block3	incongruent/STIM_014.jpg
2543.67	0.595	correct	incongruent	Block3	incongruent/STIM_014.jpg
2546.8	0.543	correct	incongruent	Block3	incongruent/STIM_014.jpg
2550.271	0.521	correct	incongruent	Block3	incongruent/STIM_014.jpg
2553.412	0.796	correct	incongruent	Block3	incongruent/STIM_014.jpg
2557.053	0.503	correct	incongruent	Block3	incongruent/STIM_015.jpg
2560.912	0.774	correct	incongruent	Block3	incongruent/STIM_015.jpg
2565.521	0.9	correct	incongruent	Block3	incongruent/STIM_015.jpg
2570.168	0.677	correct	incongruent	Block3	incongruent/STIM_015.jpg
2573.579	0.45	correct	incongruent	Block3	incongruent/STIM_015.jpg
2576.577	0.913	correct	incongruent	Block3	incongruent/STIM_016.jpg
2580.385	0.557	correct	incongruent	Block3	incongruent/STIM_016.jpg
2583.858	0.749	correct	incongruent	Block3	incongruent/STIM_016.jpg
2588.39	0.444	correct	incongruent	Block3	incongruent/STIM_016.jpg
2590.985	0.847	correct	incongruent	Block3	incongruent/STIM_016.jpg
2595.287	0.853	correct	incongruent	Block3	incongruent/STIM_017.jpg
2599.429	0.872	correct	incongruent	Block3	incongruent/STIM_017.jpg
2603.219	0.58	correct	incongruent	Block3	incongruent/STIM_017.jpg
2606.283	0.531	correct	incongruent	Block3	incongruent/STIM_017.jpg
2609.673	0.932	correct	incongruent	Block3	incongruent/STIM_017.jpg
2614.257	0.804	correct	incongruent	Block3	incongruent/STIM_018.jpg
2618.463	0.853	correct	incongruent	Block3	incongruent/STIM_018.jpg
2622.079	0.805	correct	incongruent	Block3	incongruent/STIM_018.jpg
2626.662	0.928	correct	incongruent	Block3	incongruent/STIM_018.jpg
2630.24	0.589	correct	incongruent	Block3	incongruent/STIM_018.jpg
2633.345	0.665	correct	incongruent	Block3	incongruent/STIM_019.jpg
2636.274	0.734	correct	incongruent	Block3	incongruent/STIM_019.jpg
2639.875	0.886	correct	incongruent	Block3	incongruent/STIM_019.jpg
2643.939	0.889	correct	incongruent	Block3	incongruent/STIM_019.jpg
2647.399	0.851	correct	incongruent	Block3	incongruent/STIM_019.jpg
2650.601	0.73	correct	incongruent	Block3	incongruent/STIM_020.jpg
2655.248	0.909	correct	incongruent	Block3	incongruent/STIM_020.jpg
2658.641	0.872	correct	incongruent	Block3	incongruent/STIM_020.jpg
2661.684	0.793	correct	incongruent	Block3	incongruent/STIM_020.jpg
2665.145	0.532	correct	incongruent	Block3	incongruent/STIM_020.jpg
2669.41	0.909	correct	incongruent	Block3	incongruent/STIM_021.jpg
2673.217	0.77	correct	incongruent	Block3	incongruent/STIM_021.jpg
2676.888	0.884	correct	incongruent	Block3	incongruent/STIM_021.jpg
2680.937	0.926	correct	incongruent	Block3	incongruent/STIM_021.jpg
2684.13	0.523	correct	incongruent	Block3	incongruent/STIM_021.jpg
2686.76	0.658	correct	incongruent	Block3	incongruent/STIM_022.jpg
2690.652	0.937	correct	incongruent	Block3	incongruent/STIM_022.jpg
2695.537	0.713	correct	incongruent	Block3	incongruent/STIM_022.jpg
2699.992	0.879	correct	incongruent	Block3	incongruent/STIM_022.jpg
2703.385	0.68	correct	incongruent	Block3	incongruent/STIM_022.jpg
2707.956	0.858	correct	incongruent	Block3	incongruent/STIM_023.jpg
2712.542	0.552	correct	incongruent	Block3	incongruent/STIM_023.jpg
2716.043	0.598	correct	incongruent	Block3	incongruent/STIM_023.jpg
2719.774	0.902	correct	incongruent	Block3	incongruent/STIM_023.jpg
2723.89	0.736	correct	incongruent	Block3	incongruent/STIM_023.jpg
2728.083	0.87	correct	incongruent	Block3	incongruent/STIM_024.jpg
2731.141	0.578	correct	incongruent	Block3	incongruent/STIM_024.jpg
2735.071	0.486	correct	incongruent	Block3	incongruent/STIM_024.jpg
2737.709	0.884	correct	incongruent	Block3	incongruent/STIM_024.jpg
2742.222	0.736	correct	incongruent	Block3	incongruent/STIM_024.jpg
2745.688	0.915	correct	incongruent	Block3	incongruent/STIM_025.jpg
2749.968	0.548	correct	incongruent	Block3	incongruent/STIM_025.jpg
2753.982	0.606	correct	incongruent	Block3	incongruent/STIM_025.jpg
2756.932	0.446	correct	incongruent	Block3	incongruent/STIM_025.jpg
2760.061	0.595	correct	incongruent	Block3	incongruent/STIM_025.jpg
2764.266	0.581	correct	incongruent	Block3	incongruent/STIM_026.jpg
2768.227	0.537	correct	incongruent	Block3	incongruent/STIM_026.jpg
2771.123	0.807	correct	incongruent	Block3	incongruent/STIM_026.jpg
2775.261	0.743	correct	incongruent	Block3	incongruent/STIM_026.jpg
2778.537	0.631	incorrect	incongruent	Block3	incongruent/STIM_026.jpg
2782.015	0.889	correct	incongruent	Block3	incongruent/STIM_027.jpg
2786.765	0.45	correct	incongruent	Block3	incongruent/STIM_027.jpg
2790.857	0.718	correct	incongruent	Block3	incongruent/STIM_027.jpg
2793.877	0.805	correct	incongruent	Block3	incongruent/STIM_027.jpg
2798.473	0.898	correct	incongruent	Block3	incongruent/STIM_027.jpg
2803.371	0.672	correct	incongruent	Block3	incongruent/STIM_028.jpg
2806.353	0.622	correct	incongruent	Block3	incongruent/STIM_028.jpg
2809.476	0.777	correct	incongruent	Block3	incongruent/STIM_028.jpg
2814.216	0.915	correct	incongruent	Block3	incongruent/STIM_028.jpg
2817.455	0.584	correct	incongruent	Block3	incongruent/STIM_028.jpg
2820.473	0.882	correct	incongruent	Block3	incongruent/STIM_029.jpg
2823.563	0.64	correct	incongruent	Block3	incongruent/STIM_029.jpg
2827.745	0.508	correct	incongruent	Block3	incongruent/STIM_029.jpg
2832.05	0.497	correct	incongruent	Block3	incongruent/STIM_029.jpg
2836.367	0.495	correct	incongruent	Block3	incongruent/STIM_029.jpg
2840.014	0.765	correct	congruent	Block3	congruent/STIM_000.jpg
2844.068	0.786	correct	congruent	Block3	congruent/STIM_000.jpg
2847.204	0.474	correct	congruent	Block3	congruent/STIM_000.jpg
2849.839	0.683	correct	congruent	Block3	congruent/STIM_000.jpg
2852.668	0.676	correct	congruent	Block3	congruent/STIM_000.jpg
2857.37	0.592	correct	congruent	Block3	congruent/STIM_001.jpg
2861.183	0.532	correct	congruent	Block3	congruent/STIM_001.jpg
2865.042	0.566	correct	congruent	Block3	congruent/STIM_001.jpg
2868.097	0.697	correct	congruent	Block3	congruent/STIM_001.jpg
2871.47	0.78	correct	congruent	Block3	congruent/STIM_001.jpg
2876.023	0.656	correct	congruent	Block3	congruent/STIM_002.jpg
2879.561	0.698	correct	congruent	Block3	congruent/STIM_002.jpg
2884.011	0.475	correct	congruent	Block3	congruent/STIM_002.jpg
2887.168	0.716	correct	congruent	Block3	congruent/STIM_002.jpg
2890.355	0.568	correct	congruent	Block3	congruent/STIM_002.jpg
2894.296	0.626	correct	congruent	Block3	congruent/STIM_003.jpg
2898.861	0.49	correct	congruent	Block3	congruent/STIM_003.jpg
2902.371	0.769	correct	congruent	Block3	congruent/STIM_003.jpg
2905.318	0.628	correct	congruent	Block3	congruent/STIM_003.jpg
2909.165	0.58	correct	congruent	Block3	congruent/STIM_003.jpg
2913.16	0.746	correct	congruent	Block3	congruent/STIM_004.jpg
2916.537	0.585	correct	congruent	Block3	congruent/STIM_004.jpg
2920.09	0.539	correct	congruent	Block3	congruent/STIM_004.jpg
2923.591	0.511	incorrect	congruent	Block3	congruent/STIM_004.jpg
2927.83	0.58	correct	congruent	Block3	congruent/STIM_004.jpg
2931.458	0.569	correct	congruent	Block3	congruent/STIM_005.jpg
2935.159	0.756	correct	congruent	Block3	congruent/STIM_005.jpg
2939.31	0.574	correct	congruent	Block3	congruent/STIM_005.jpg
2943.337	0.776	correct	congruent	Block3	congruent/STIM_005.jpg
2947.212	0.448	correct	congruent	Block3	congruent/STIM_005.jpg
2950.798	0.662	correct	congruent	Block3	congruent/STIM_006.jpg
2955.192	0.687	correct	congruent	Block3	congruent/STIM_006.jpg
2958.62	0.663	correct	congruent	Block3	congruent/STIM_006.jpg
2962.408	0.739	correct	congruent	Block3	congruent/STIM_006.jpg
2966.287	0.498	correct	congruent	Block3	congruent/STIM_006.jpg
2970.141	0.66	correct	congruent	Block3	congruent/STIM_007.jpg
2974.21	0.613	correct	congruent	Block3	congruent/STIM_007.jpg
2978.781	0.513	correct	congruent	Block3	congruent/STIM_007.jpg
2982.984	0.722	correct	congruent	Block3	congruent/STIM_007.jpg
2986.004	0.655	correct	congruent	Block3	congruent/STIM_007.jpg
2989.814	0.462	correct	congruent	Block3	congruent/STIM_008.jpg
2993.156	0.548	correct	congruent	Block3	congruent/STIM_008.jpg
2996.472	0.794	correct	congruent	Block3	congruent/STIM_008.jpg
3001.221	0.529	correct	congruent	Block3	congruent/STIM_008.jpg
3005.687	0.49	correct	congruent	Block3	congruent/STIM_008.jpg
3008.268	0.526	correct	congruent	Block3	congruent/STIM_009.jpg
3012.17	0.726	correct	congruent	Block3	congruent/STIM_009.jpg
3016.439	0.759	correct	congruent	Block3	congruent/STIM_009.jpg
3019.506	0.544	correct	congruent	Block3	congruent/STIM_009.jpg
3023.837	0.79	correct	congruent	Block3	congruent/STIM_009.jpg
3027.356	0.516	correct	congruent	Block3	congruent/STIM_010.jpg
3030.898	0.569	correct	congruent	Block3	congruent/STIM_010.jpg
3034.646	0.668	correct	congruent	Block3	congruent/STIM_010.jpg
3037.984	0.462	correct	congruent	Block3	congruent/STIM_010.jpg
3040.706	0.761	correct	congruent	Block3	congruent/STIM_010.jpg
3044.149	0.671	correct	congruent	Block3	congruent/STIM_011.jpg
3047.191	0.497	correct	congruent	Block3	congruent/STIM_011.jpg
3050.565	0.588	correct	congruent	Block3	congruent/STIM_011.jpg
3054.38	0.727	correct	congruent	Block3	congruent/STIM_011.jpg
3058.636	0.502	correct	congruent	Block3	congruent/STIM_011.jpg
3062.219	0.506	correct	congruent	Block3	congruent/STIM_012.jpg
3065.383	0.67	correct	congruent	Block3	congruent/STIM_012.jpg
3069.261	0.741	correct	congruent	Block3	congruent/STIM_012.jpg
3072.857	0.621	correct	congruent	Block3	congruent/STIM_012.jpg
3075.736	0.787	incorrect	congruent	Block3	congruent/STIM_012.jpg
3079.077	0.579	correct	congruent	Block3	congruent/STIM_013.jpg
3082.392	0.546	correct	congruent	Block3	congruent/STIM_013.jpg
3086.383	0.544	correct	congruent	Block3	congruent/STIM_013.jpg
3089.899	0.613	correct	congruent	Block3	congruent/STIM_013.jpg
3093.759	0.487	correct	congruent	Block3	congruent/STIM_013.jpg
3096.564	0.543	correct	congruent	Block3	congruent/STIM_014.jpg
3100.817	0.595	correct	congruent	Block3	congruent/STIM_014.jpg
3105.372	0.672	correct	congruent	Block3	congruent/STIM_014.jpg
3108.163	0.711	correct	congruent	Block3	congruent/STIM_014.jpg
3111.202	0.532	correct	congruent	Block3	congruent/STIM_014.jpg
3114.898	0.782	correct	congruent	Block3	congruent/STIM_015.jpg
3117.953	0.672	correct	congruent	Block3	congruent/STIM_015.jpg
3121.661	0.617	correct	congruent	Block3	congruent/STIM_015.jpg
3124.553	0.504	correct	congruent	Block3	congruent/STIM_015.jpg
3127.627	0.585	correct	congruent	Block3	congruent/STIM_015.jpg
3131.047	0.618	correct	congruent	Block3	congruent/STIM_016.jpg
3134.273	0.658	correct	congruent	Block3	congruent/STIM_016.jpg
3137.749	0.458	correct	congruent	Block3	congruent/STIM_016.jpg
3140.266	0.784	correct	congruent	Block3	congruent/STIM_016.jpg
3144.866	0.767	correct	congruent	Block3	congruent/STIM_016.jpg
3149.193	0.785	correct	congruent	Block3	congruent/STIM_017.jpg
3152.098	0.697	correct	congruent	Block3	congruent/STIM_017.jpg
3156.666	0.789	correct	congruent	Block3	congruent/STIM_017.jpg
3160.921	0.724	correct	congruent	Block3	congruent/STIM_017.jpg
3164.729	0.566	incorrect	congruent	Block3	congruent/STIM_017.jpg
3167.876	0.471	correct	congruent	Block3	congruent/STIM_018.jpg
3170.452	0.671	correct	congruent	Block3	congruent/STIM_018.jpg
3175.078	0.495	correct	congruent	Block3	congruent/STIM_018.jpg
3178.699	0.702	correct	congruent	Block3	congruent/STIM_018.jpg
3183.239	0.541	correct	congruent	Block3	congruent/STIM_018.jpg
3187.481	0.543	correct	congruent	Block3	congruent/STIM_019.jpg
3190.842	0.654	correct	congruent	Block3	congruent/STIM_019.jpg
3194.789	0.757	correct	congruent	Block3	congruent/STIM_019.jpg
3198.304	0.452	correct	congruent	Block3	congruent/STIM_019.jpg
3202.296	0.667	correct	congruent	Block3	congruent/STIM_019.jpg
3206.158	0.531	correct	congruent	Block3	congruent/STIM_020.jpg
3208.969	0.652	correct	congruent	Block3	congruent/STIM_020.jpg
3212.2	0.626	incorrect	congruent	Block3	congruent/STIM_020.jpg
3215.211	0.75	correct	congruent	Block3	congruent/STIM_020.jpg
3219.031	0.543	correct	congruent	Block3	congruent/STIM_020.jpg
3223.605	0.583	correct	congruent	Block3	congruent/STIM_021.jpg
3228.11	0.661	correct	congruent	Block3	congruent/STIM_021.jpg
3232.466	0.485	correct	congruent	Block3	congruent/STIM_021.jpg
3235.27	0.524	correct	congruent	Block3	congruent/STIM_021.jpg
3239.394	0.478	correct	congruent	Block3	congruent/STIM_021.jpg
3243.392	0.67	correct	congruent	Block3	congruent/STIM_022.jpg
3247.095	0.649	correct	congruent	Block3	congruent/STIM_022.jpg
3251.181	0.598	correct	congruent	Block3	congruent/STIM_022.jpg
3255.439	0.455	correct	congruent	Block3	congruent/STIM_022.jpg
3259.409	0.796	correct	congruent	Block3	congruent/STIM_022.jpg
3263.955	0.599	correct	congruent	Block3	congruent/STIM_023.jpg
3267.174	0.627	correct	congruent	Block3	congruent/STIM_023.jpg
3270.966	0.726	incorrect	congruent	Block3	congruent/STIM_023.jpg
3275.689	0.561	correct	congruent	Block3	congruent/STIM_023.jpg
3279.049	0.654	correct	congruent	Block3	congruent/STIM_023.jpg
3283.162	0.783	correct	congruent	Block3	congruent/STIM_024.jpg
3286.529	0.567	correct	congruent	Block3	congruent/STIM_024.jpg
3290.216	0.496	correct	congruent	Block3	congruent/STIM_024.jpg
3293.09	0.651	correct	congruent	Block3	congruent/STIM_024.jpg
3296.771	0.544	incorrect	congruent	Block3	congruent/STIM_024.jpg
3299.429	0.673	correct	congruent	Block3	congruent/STIM_025.jpg
3303.569	0.76	correct	congruent	Block3	congruent/STIM_025.jpg
3307.013	0.546	correct	congruent	Block3	congruent/STIM_025.jpg
3311.58	0.718	correct	congruent	Block3	congruent/STIM_025.jpg
3314.443	0.715	incorrect	congruent	Block3	congruent/STIM_025.jpg
3318.696	0.52	correct	congruent	Block3	congruent/STIM_026.jpg
3323.202	0.714	correct	congruent	Block3	congruent/STIM_026.jpg
3327.363	0.791	correct	congruent	Block3	congruent/STIM_026.jpg
3331.543	0.628	correct	congruent	Block3	congruent/STIM_026.jpg
3335.085	0.449	correct	congruent	Block3	congruent/STIM_026.jpg
3338.835	0.612	correct	congruent	Block3	congruent/STIM_027.jpg
3341.907	0.698	correct	congruent	Block3	congruent/STIM_027.jpg
3344.956	0.624	correct	congruent	Block3	congruent/STIM_027.jpg
3348.353	0.608	correct	congruent	Block3	congruent/STIM_027.jpg
3351.209	0.468	correct	congruent	Block3	congruent/STIM_027.jpg
3355.401	0.742	correct	congruent	Block3	congruent/STIM_028.jpg
3358.361	0.521	correct	congruent	Block3	congruent/STIM_028.jpg
3361.839	0.768	correct	congruent	Block3	congruent/STIM_028.jpg
3366.357	0.464	correct	congruent	Block3	congruent/STIM_028.jpg
3369.656	0.702	correct	congruent	Block3	congruent/STIM_028.jpg
3373.039	0.767	correct	congruent	Block3	congruent/STIM_029.jpg
3377.66	0.711	correct	congruent	Block3	congruent/STIM_029.jpg
3381.54	0.618	correct	congruent	Block3	congruent/STIM_029.jpg
3385.486	0.468	correct	congruent	Block3	congruent/STIM_029.jpg
3389.154	0.628	correct	congruent	Block3	congruent/STIM_029.jpg
