onset	duration	accuracy_binary	trial_type	learning_stage	stimulus
0.0	0.904	1	incongruent	Block1	incongruent/STIM_000.jpg
4.955	0.76	1	incongruent	Block1	incongruent/STIM_000.jpg
9.539	0.652	1	incongruent	Block1	incongruent/STIM_000.jpg
12.381	0.943	1	incongruent	Block1	incongruent/STIM_000.jpg
17.416	0.502	1	incongruent	Block1	incongruent/STIM_000.jpg
20.999	1.29	1	incongruent	Block1	incongruent/STIM_001.jpg
25.232	1.154	1	incongruent	Block1	incongruent/STIM_001.jpg
29.282	0.585	1	incongruent	Block1	incongruent/STIM_001.jpg
33.222	0.841	1	incongruent	Block1	incongruent/STIM_001.jpg
36.65	0.654	1	incongruent	Block1	incongruent/STIM_001.jpg
40.053	0.64	1	incongruent	Block1	incongruent/STIM_002.jpg
43.416	1.264	1	incongruent	Block1	incongruent/STIM_002.jpg
47.732	0.826	1	incongruent	Block1	incongruent/STIM_002.jpg
50.918	0.755	1	incongruent	Block1	incongruent/STIM_002.jpg
54.293	0.556	1	incongruent	Block1	incongruent/STIM_002.jpg
57.345	1.188	0	incongruent	Block1	incongruent/STIM_003.jpg
60.967	0.597	1	incongruent	Block1	incongruent/STIM_003.jpg
64.456	0.804	1	incongruent	Block1	incongruent/STIM_003.jpg
67.521	1.114	1	incongruent	Block1	incongruent/STIM_003.jpg
71.864	0.958	1	incongruent	Block1	incongruent/STIM_003.jpg
76.482	0.671	1	incongruent	Block1	incongruent/STIM_004.jpg
79.942	0.815	1	incongruent	Block1	incongruent/STIM_004.jpg
83.113	0.686	1	incongruent	Block1	incongruent/STIM_004.jpg
87.034	1.064	1	incongruent	Block1	incongruent/STIM_004.jpg
91.741	0.532	1	incongruent	Block1	incongruent/STIM_004.jpg
96.14	1.099	0	incongruent	Block1	incongruent/STIM_005.jpg
99.835	0.912	0	incongruent	Block1	incongruent/STIM_005.jpg
104.804	0.848	0	incongruent	Block1	incongruent/STIM_005.jpg
108.508	0.838	1	incongruent	Block1	incongruent/STIM_005.jpg
113.282	1.06	1	incongruent	Block1	incongruent/STIM_005.jpg
117.373	1.233	1	incongruent	Block1	incongruent/STIM_006.jpg
122.48	0.867	1	incongruent	Block1	incongruent/STIM_006.jpg
126.3	0.678	0	incongruent	Block1	incongruent/STIM_006.jpg
130.631	0.934	1	incongruent	Block1	incongruent/STIM_006.jpg
134.16	0.614	1	incongruent	Block1	incongruent/STIM_006.jpg
138.126	0.789	1	incongruent	Block1	incongruent/STIM_007.jpg
142.636	0.904	1	incongruent	Block1	incongruent/STIM_007.jpg
147.552	0.935	1	incongruent	Block1	incongruent/STIM_007.jpg
152.012	1.035	1	incongruent	Block1	incongruent/STIM_007.jpg
156.503	0.545	1	incongruent	Block1	incongruent/STIM_007.jpg
160.763	0.748	1	incongruent	Block1	incongruent/STIM_008.jpg
165.079	1.217	1	incongruent	Block1	incongruent/STIM_008.jpg
168.975	1.16	1	incongruent	Block1	incongruent/STIM_008.jpg
174.051	0.91	1	incongruent	Block1	incongruent/STIM_008.jpg
178.299	0.663	1	incongruent	Block1	incongruent/STIM_008.jpg
181.971	0.792	0	incongruent	Block1	incongruent/STIM_009.jpg
186.804	1.158	1	incongruent	Block1	incongruent/STIM_009.jpg
191.702	0.673	1	incongruent	Block1	incongruent/STIM_009.jpg
195.241	1.105	1	incongruent	Block1	incongruent/STIM_009.jpg
198.729	0.776	1	incongruent	Block1	incongruent/STIM_009.jpg
202.001	1.161	1	incongruent	Block1	incongruent/STIM_010.jpg
206.498	1.054	1	incongruent	Block1	incongruent/STIM_010.jpg
210.614	0.594	1	incongruent	Block1	incongruent/STIM_010.jpg
214.733	0.87	1	incongruent	Block1	incongruent/STIM_010.jpg
219.169	0.857	1	incongruent	Block1	incongruent/STIM_010.jpg
222.895	0.74	1	incongruent	Block1	incongruent/STIM_011.jpg
226.934	1.249	1	incongruent	Block1	incongruent/STIM_011.jpg
230.63	1.016	1	incongruent	Block1	incongruent/STIM_011.jpg
234.611	0.859	1	incongruent	Block1	incongruent/STIM_011.jpg
237.791	0.631	1	incongruent	Block1	incongruent/STIM_011.jpg
242.406	1.257	1	incongruent	Block1	incongruent/STIM_012.jpg
247.76	0.862	1	incongruent	Block1	incongruent/STIM_012.jpg
251.626	0.746	1	incongruent	Block1	incongruent/STIM_012.jpg
255.793	0.675	1	incongruent	Block1	incongruent/STIM_012.jpg
258.778	0.777	1	incongruent	Block1	incongruent/STIM_012.jpg
263.267	1.132	1	incongruent	Block1	incongruent/STIM_013.jpg
268.516	0.862	1	incongruent	Block1	incongruent/STIM_013.jpg
272.483	0.612	1	incongruent	Block1	incongruent/STIM_013.jpg
275.263	0.731	1	incongruent	Block1	incongruent/STIM_013.jpg
278.358	0.836	1	incongruent	Block1	incongruent/STIM_013.jpg
282.79	0.688	1	incongruent	Block1	incongruent/STIM_014.jpg
286.842	0.614	1	incongruent	Block1	incongruent/STIM_014.jpg
289.964	1.161	1	incongruent	Block1	incongruent/STIM_014.jpg
294.364	1.105	1	incongruent	Block1	incongruent/STIM_014.jpg
298.472	0.598	1	incongruent	Block1	incongruent/STIM_014.jpg
301.274	1.009	1	incongruent	Block1	incongruent/STIM_015.jpg
305.898	0.658	1	incongruent	Block1	incongruent/STIM_015.jpg
310.627	0.781	1	incongruent	Block1	incongruent/STIM_015.jpg
313.945	0.696	1	incongruent	Block1	incongruent/STIM_015.jpg
317.32	0.559	1	incongruent	Block1	incongruent/STIM_015.jpg
321.439	1.273	1	incongruent	Block1	incongruent/STIM_016.jpg
325.296	1.177	1	incongruent	Block1	incongruent/STIM_016.jpg
328.637	0.851	1	incongruent	Block1	incongruent/STIM_016.jpg
333.267	1.012	0	incongruent	Block1	incongruent/STIM_016.jpg
337.973	0.859	1	incongruent	Block1	incongruent/STIM_016.jpg
341.275	1.119	1	incongruent	Block1	incongruent/STIM_017.jpg
344.984	1.002	1	incongruent	Block1	incongruent/STIM_017.jpg
348.166	0.985	1	incongruent	Block1	incongruent/STIM_017.jpg
352.505	0.672	1	incongruent	Block1	incongruent/STIM_017.jpg
356.103	0.76	1	incongruent	Block1	incongruent/STIM_017.jpg
359.876	0.717	1	incongruent	Block1	incongruent/STIM_018.jpg
363.29	0.68	1	incongruent	Block1	incongruent/STIM_018.jpg
366.207	0.776	0	incongruent	Block1	incongruent/STIM_018.jpg
370.521	0.63	1	incongruent	Block1	incongruent/STIM_018.jpg
373.828	0.764	1	incongruent	Block1	incongruent/STIM_018.jpg
378.333	0.878	1	incongruent	Block1	incongruent/STIM_019.jpg
381.427	0.981	1	incongruent	Block1	incongruent/STIM_019.jpg
386.141	0.866	1	incongruent	Block1	incongruent/STIM_019.jpg
389.929	0.999	1	incongruent	Block1	incongruent/STIM_019.jpg
394.826	0.657	1	incongruent	Block1	incongruent/STIM_019.jpg
398.844	1.245	0	incongruent	Block1	incongruent/STIM_020.jpg
403.023	0.877	0	incongruent	Block1	incongruent/STIM_020.jpg
407.838	0.993	1	incongruent	Block1	incongruent/STIM_020.jpg
411.206	0.605	1	incongruent	Block1	incongruent/STIM_020.jpg
414.834	0.871	1	incongruent	Block1	incongruent/STIM_020.jpg
418.22	0.859	1	incongruent	Block1	incongruent/STIM_021.jpg
421.523	0.956	1	incongruent	Block1	incongruent/STIM_021.jpg
425.195	0.712	1	incongruent	Block1	incongruent/STIM_021.jpg
429.328	0.964	1	incongruent	Block1	incongruent/STIM_021.jpg
433.701	0.597	1	incongruent	Block1	incongruent/STIM_021.jpg
438.204	0.944	0	incongruent	Block1	incongruent/STIM_022.jpg
441.482	0.62	0	incongruent	Block1	incongruent/STIM_022.jpg
445.335	0.841	1	incongruent	Block1	incongruent/STIM_022.jpg
448.907	0.822	1	incongruent	Block1	incongruent/STIM_022.jpg
453.121	0.685	0	incongruent	Block1	incongruent/STIM_022.jpg
456.167	1.27	1	incongruent	Block1	incongruent/STIM_023.jpg
460.198	1.261	1	incongruent	Block1	incongruent/STIM_023.jpg
465.419	1.013	1	incongruent	Block1	incongruent/STIM_023.jpg
470.451	0.696	0	incongruent	Block1	incongruent/STIM_023.jpg
475.223	1.051	1	incongruent	Block1	incongruent/STIM_023.jpg
479.816	0.947	1	incongruent	Block1	incongruent/STIM_024.jpg
483.884	0.851	1	incongruent	Block1	incongruent/STIM_024.jpg
488.252	0.811	1	incongruent	Block1	incongruent/STIM_024.jpg
492.252	0.909	1	incongruent	Block1	incongruent/STIM_024.jpg
495.79	0.884	1	incongruent	Block1	incongruent/STIM_024.jpg
499.251	0.99	1	incongruent	Block1	incongruent/STIM_025.jpg
503.445	0.682	1	incongruent	Block1	incongruent/STIM_025.jpg
506.393	1.118	1	incongruent	Block1	incongruent/STIM_025.jpg
510.314	1.004	1	incongruent	Block1	incongruent/STIM_025.jpg
513.726	0.808	1	incongruent	Block1	incongruent/STIM_025.jpg
517.427	1.147	1	incongruent	Block1	incongruent/STIM_026.jpg
521.97	1.019	1	incongruent	Block1	incongruent/STIM_026.jpg
525.395	1.067	1	incongruent	Block1	incongruent/STIM_026.jpg
528.758	0.591	1	incongruent	Block1	incongruent/STIM_026.jpg
532.05	0.728	1	incongruent	Block1	incongruent/STIM_026.jpg
535.366	1.159	1	incongruent	Block1	incongruent/STIM_027.jpg
540.093	1.199	1	incongruent	Block1	incongruent/STIM_027.jpg
543.687	0.663	1	incongruent	Block1	incongruent/STIM_027.jpg
546.829	1.076	1	incongruent	Block1	incongruent/STIM_027.jpg
551.929	0.756	1	incongruent	Block1	incongruent/STIM_027.jpg
555.373	1.031	1	incongruent	Block1	incongruent/STIM_028.jpg
559.332	0.611	1	incongruent	Block1	incongruent/STIM_028.jpg
562.458	0.98	1	incongruent	Block1	incongruent/STIM_028.jpg
567.433	1.002	1	incongruent	Block1	incongruent/STIM_028.jpg
572.321	0.824	1	incongruent	Block1	incongruent/STIM_028.jpg
576.34	0.986	1	incongruent	Block1	incongruent/STIM_029.jpg
579.488	1.241	1	incongruent	Block1	incongruent/STIM_029.jpg
584.25	1.204	1	incongruent	Block1	incongruent/STIM_029.jpg
588.279	0.791	1	incongruent	Block1	incongruent/STIM_029.jpg
592.158	0.796	0	incongruent	Block1	incongruent/STIM_029.jpg
595.789	0.688	1	congruent	Block1	congruent/STIM_000.jpg
600.101	0.474	1	congruent	Block1	congruent/STIM_000.jpg
603.587	0.535	1	congruent	Block1	congruent/STIM_000.jpg
607.324	0.628	1	congruent	Block1	congruent/STIM_000.jpg
610.471	0.705	1	congruent	Block1	congruent/STIM_000.jpg
614.439	0.702	1	congruent	Block1	congruent/STIM_001.jpg
617.554	0.714	1	congruent	Block1	congruent/STIM_001.jpg
620.604	0.55	1	congruent	Block1	congruent/STIM_001.jpg
623.712	0.638	1	congruent	Block1	congruent/STIM_001.jpg
627.716	0.636	1	congruent	Block1	congruent/STIM_001.jpg
631.16	0.635	1	congruent	Block1	congruent/STIM_002.jpg
635.034	0.698	1	congruent	Block1	congruent/STIM_002.jpg
638.683	0.801	1	congruent	Block1	congruent/STIM_002.jpg
643.574	0.744	1	congruent	Block1	congruent/STIM_002.jpg
647.044	0.656	1	congruent	Block1	congruent/STIM_002.jpg
651.738	0.594	1	congruent	Block1	congruent/STIM_003.jpg
656.164	0.654	1	congruent	Block1	congruent/STIM_003.jpg
660.057	0.549	1	congruent	Block1	congruent/STIM_003.jpg
663.798	0.748	1	congruent	Block1	congruent/STIM_003.jpg
668.226	0.622	1	congruent	Block1	congruent/STIM_003.jpg
672.056	0.755	1	congruent	Block1	congruent/STIM_004.jpg
676.271	0.575	1	congruent	Block1	congruent/STIM_004.jpg
680.527	0.576	1	congruent	Block1	congruent/STIM_004.jpg
683.797	0.688	0	congruent	Block1	congruent/STIM_004.jpg
687.356	0.652	1	congruent	Block1	congruent/STIM_004.jpg
691.114	0.796	1	congruent	Block1	congruent/STIM_005.jpg
695.372	0.659	1	congruent	Block1	congruent/STIM_005.jpg
698.868	0.709	1	congruent	Block1	congruent/STIM_005.jpg
702.615	0.623	1	congruent	Block1	congruent/STIM_005.jpg
706.256	0.623	1	congruent	Block1	congruent/STIM_005.jpg
710.147	0.778	1	congruent	Block1	congruent/STIM_006.jpg
713.896	0.587	1	congruent	Block1	congruent/STIM_006.jpg
716.898	0.71	1	congruent	Block1	congruent/STIM_006.jpg
720.381	0.523	1	congruent	Block1	congruent/STIM_006.jpg
724.018	0.464	1	congruent	Block1	congruent/STIM_006.jpg
728.006	0.611	1	congruent	Block1	congruent/STIM_007.jpg
731.167	0.57	1	congruent	Block1	congruent/STIM_007.jpg
734.445	0.564	1	congruent	Block1	congruent/STIM_007.jpg
738.23	0.595	1	congruent	Block1	congruent/STIM_007.jpg
742.736	0.627	1	congruent	Block1	congruent/STIM_007.jpg
747.274	0.52	1	congruent	Block1	congruent/STIM_008.jpg
751.333	0.486	1	congruent	Block1	congruent/STIM_008.jpg
754.61	0.556	1	congruent	Block1	congruent/STIM_008.jpg
759.181	0.625	1	congruent	Block1	congruent/STIM_008.jpg
762.018	0.682	1	congruent	Block1	congruent/STIM_008.jpg
764.908	0.766	1	congruent	Block1	congruent/STIM_009.jpg
769.296	0.574	1	congruent	Block1	congruent/STIM_009.jpg
772.573	0.678	1	congruent	Block1	congruent/STIM_009.jpg
777.187	0.743	1	congruent	Block1	congruent/STIM_009.jpg
780.947	0.795	1	congruent	Block1	congruent/STIM_009.jpg
784.78	0.473	1	congruent	Block1	congruent/STIM_010.jpg
787.92	0.591	1	congruent	Block1	congruent/STIM_010.jpg
791.968	0.624	1	congruent	Block1	congruent/STIM_010.jpg
796.345	0.574	1	congruent	Block1	congruent/STIM_010.jpg
799.902	0.454	1	congruent	Block1	congruent/STIM_010.jpg
804.259	0.597	1	congruent	Block1	congruent/STIM_011.jpg
808.728	0.633	1	congruent	Block1	congruent/STIM_011.jpg
813.021	0.798	1	congruent	Block1	congruent/STIM_011.jpg
816.128	0.46	1	congruent	Block1	congruent/STIM_011.jpg
818.989	0.761	1	congruent	Block1	congruent/STIM_011.jpg
823.825	0.576	1	congruent	Block1	congruent/STIM_012.jpg
826.91	0.738	1	congruent	Block1	congruent/STIM_012.jpg
830.541	0.633	1	congruent	Block1	congruent/STIM_012.jpg
833.74	0.542	1	congruent	Block1	congruent/STIM_012.jpg
838.008	0.738	1	congruent	Block1	congruent/STIM_012.jpg
841.421	0.624	1	congruent	Block1	congruent/STIM_013.jpg
844.928	0.746	1	congruent	Block1	congruent/STIM_013.jpg
849.606	0.739	1	congruent	Block1	congruent/STIM_013.jpg
854.15	0.762	1	congruent	Block1	congruent/STIM_013.jpg
857.59	0.804	1	congruent	Block1	congruent/STIM_013.jpg
862.422	0.698	1	congruent	Block1	congruent/STIM_014.jpg
865.344	0.538	1	congruent	Block1	congruent/STIM_014.jpg
868.193	0.452	1	congruent	Block1	congruent/STIM_014.jpg
872.355	0.768	1	congruent	Block1	congruent/STIM_014.jpg
876.494	0.502	1	congruent	Block1	congruent/STIM_014.jpg
879.112	0.782	1	congruent	Block1	congruent/STIM_015.jpg
883.866	0.512	1	congruent	Block1	congruent/STIM_015.jpg
886.944	0.676	1	congruent	Block1	congruent/STIM_015.jpg
889.881	0.745	1	congruent	Block1	congruent/STIM_015.jpg
894.077	0.709	1	congruent	Block1	congruent/STIM_015.jpg
897.37	0.572	1	congruent	Block1	congruent/STIM_016.jpg
900.018	0.803	1	congruent	Block1	congruent/STIM_016.jpg
904.246	0.745	1	congruent	Block1	congruent/STIM_016.jpg
908.381	0.479	1	congruent	Block1	congruent/STIM_016.jpg
912.832	0.51	1	congruent	Block1	congruent/STIM_016.jpg
915.5	0.656	1	congruent	Block1	congruent/STIM_017.jpg
918.531	0.585	1	congruent	Block1	congruent/STIM_017.jpg
922.624	0.786	1	congruent	Block1	congruent/STIM_017.jpg
927.239	0.665	1	congruent	Block1	congruent/STIM_017.jpg
930.804	0.529	1	congruent	Block1	congruent/STIM_017.jpg
935.225	0.803	1	congruent	Block1	congruent/STIM_018.jpg
940.099	0.701	1	congruent	Block1	congruent/STIM_018.jpg
943.511	0.489	1	congruent	Block1	congruent/STIM_018.jpg
946.617	0.488	0	congruent	Block1	congruent/STIM_018.jpg
951.114	0.552	1	congruent	Block1	congruent/STIM_018.jpg
953.736	0.568	1	congruent	Block1	congruent/STIM_019.jpg
957.338	0.724	1	congruent	Block1	congruent/STIM_019.jpg
961.71	0.665	1	congruent	Block1	congruent/STIM_019.jpg
966.419	0.452	1	congruent	Block1	congruent/STIM_019.jpg
969.464	0.476	1	congruent	Block1	congruent/STIM_019.jpg
972.675	0.559	1	congruent	Block1	congruent/STIM_020.jpg
976.17	0.576	1	congruent	Block1	congruent/STIM_020.jpg
980.031	0.725	1	congruent	Block1	congruent/STIM_020.jpg
982.89	0.751	1	congruent	Block1	congruent/STIM_020.jpg
987.247	0.676	1	congruent	Block1	congruent/STIM_020.jpg
991.298	0.718	1	congruent	Block1	congruent/STIM_021.jpg
994.525	0.588	1	congruent	Block1	congruent/STIM_021.jpg
997.477	0.483	1	congruent	Block1	congruent/STIM_021.jpg
1001.7	0.525	1	congruent	Block1	congruent/STIM_021.jpg
1004.848	0.768	0	congruent	Block1	congruent/STIM_021.jpg
1008.734	0.447	1	congruent	Block1	congruent/STIM_022.jpg
1013.112	0.487	1	congruent	Block1	congruent/STIM_022.jpg
1015.897	0.464	1	congruent	Block1	congruent/STIM_022.jpg
1019.119	0.751	0	congruent	Block1	congruent/STIM_022.jpg
1023.636	0.569	1	congruent	Block1	congruent/STIM_022.jpg
1027.271	0.538	1	congruent	Block1	congruent/STIM_023.jpg
1031.728	0.69	1	congruent	Block1	congruent/STIM_023.jpg
1035.824	0.653	1	congruent	Block1	congruent/STIM_023.jpg
1039.503	0.786	1	congruent	Block1	congruent/STIM_023.jpg
1044.209	0.792	1	congruent	Block1	congruent/STIM_023.jpg
1048.12	0.672	1	congruent	Block1	congruent/STIM_024.jpg
1052.002	0.687	1	congruent	Block1	congruent/STIM_024.jpg
1056.209	0.626	1	congruent	Block1	congruent/STIM_024.jpg
1059.632	0.579	1	congruent	Block1	congruent/STIM_024.jpg
1064.127	0.654	1	congruent	Block1	congruent/STIM_024.jpg
1067.114	0.494	1	congruent	Block1	congruent/STIM_025.jpg
1071.318	0.69	1	congruent	Block1	congruent/STIM_025.jpg
1075.278	0.654	1	congruent	Block1	congruent/STIM_025.jpg
1079.054	0.755	1	congruent	Block1	congruent/STIM_025.jpg
1083.272	0.542	1	congruent	Block1	congruent/STIM_025.jpg
1086.529	0.657	1	congruent	Block1	congruent/STIM_026.jpg
1090.881	0.717	1	congruent	Block1	congruent/STIM_026.jpg
1095.353	0.513	1	congruent	Block1	congruent/STIM_026.jpg
1098.174	0.453	1	congruent	Block1	congruent/STIM_026.jpg
1101.869	0.497	1	congruent	Block1	congruent/STIM_026.jpg
1104.969	0.779	1	congruent	Block1	congruent/STIM_027.jpg
1109.353	0.764	1	congruent	Block1	congruent/STIM_027.jpg
1113.928	0.771	1	congruent	Block1	congruent/STIM_027.jpg
1116.987	0.58	1	congruent	Block1	congruent/STIM_027.jpg
1120.305	0.469	1	congruent	Block1	congruent/STIM_027.jpg
1122.983	0.679	1	congruent	Block1	congruent/STIM_028.jpg
1126.386	0.535	1	congruent	Block1	congruent/STIM_028.jpg
1130.565	0.725	1	congruent	Block1	congruent/STIM_028.jpg
1133.785	0.522	1	congruent	Block1	congruent/STIM_028.jpg
1137.3	0.632	1	congruent	Block1	congruent/STIM_028.jpg
1141.963	0.735	1	congruent	Block1	congruent/STIM_029.jpg
1145.578	0.722	1	congruent	Block1	congruent/STIM_029.jpg
1148.965	0.506	1	congruent	Block1	congruent/STIM_029.jpg
1153.178	0.655	1	congruent	Block1	congruent/STIM_029.jpg
1156.485	0.796	1	congruent	Block1	congruent/STIM_029.jpg
1159.854	0.85	1	incongruent	Block2	incongruent/STIM_000.jpg
1164.352	0.791	1	incongruent	Block2	incongruent/STIM_000.jpg
1168.256	0.704	1	incongruent	Block2	incongruent/STIM_000.jpg
1171.674	0.909	1	incongruent	Block2	incongruent/STIM_000.jpg
1175.039	0.534	1	incongruent	Block2	incongruent/STIM_000.jpg
1178.651	0.776	1	incongruent	Block2	incongruent/STIM_001.jpg
1183.494	0.852	1	incongruent	Block2	incongruent/STIM_001.jpg
1188.433	0.597	1	incongruent	Block2	incongruent/STIM_001.jpg
1191.738	0.766	1	incongruent	Block2	incongruent/STIM_001.jpg
1194.798	0.692	1	incongruent	Block2	incongruent/STIM_001.jpg
1199.174	0.797	1	incongruent	Block2	incongruent/STIM_002.jpg
1203.097	0.526	1	incongruent	Block2	incongruent/STIM_002.jpg
1207.089	0.741	1	incongruent	Block2	incongruent/STIM_002.jpg
1210.546	0.439	1	incongruent	Block2	incongruent/STIM_002.jpg
1214.733	0.507	1	incongruent	Block2	incongruent/STIM_002.jpg
1218.161	0.942	1	incongruent	Block2	incongruent/STIM_003.jpg
1222.006	0.645	1	incongruent	Block2	incongruent/STIM_003.jpg
1226.203	0.68	1	incongruent	Block2	incongruent/STIM_003.jpg
1229.765	0.587	1	incongruent	Block2	incongruent/STIM_003.jpg
1233.297	0.744	1	incongruent	Block2	incongruent/STIM_003.jpg
1237.225	0.579	1	incongruent	Block2	incongruent/STIM_004.jpg
1240.908	0.862	1	incongruent	Block2	incongruent/STIM_004.jpg
1245.704	0.732	1	incongruent	Block2	incongruent/STIM_004.jpg
1248.936	0.592	1	incongruent	Block2	incongruent/STIM_004.jpg
1252.237	0.549	1	incongruent	Block2	incongruent/STIM_004.jpg
1256.389	0.742	1	incongruent	Block2	incongruent/STIM_005.jpg
1260.385	0.53	1	incongruent	Block2	incongruent/STIM_005.jpg
1264.173	0.522	1	incongruent	Block2	incongruent/STIM_005.jpg
1268.385	0.711	1	incongruent	Block2	incongruent/STIM_005.jpg
1273.005	0.542	1	incongruent	Block2	incongruent/STIM_005.jpg
1275.841	0.713	1	incongruent	Block2	incongruent/STIM_006.jpg
1279.639	0.598	1	incongruent	Block2	incongruent/STIM_006.jpg
1283.668	0.479	1	incongruent	Block2	incongruent/STIM_006.jpg
1287.531	0.825	1	incongruent	Block2	incongruent/STIM_006.jpg
1290.794	0.808	1	incongruent	Block2	incongruent/STIM_006.jpg
1295.235	0.532	1	incongruent	Block2	incongruent/STIM_007.jpg
1298.516	0.582	1	incongruent	Block2	incongruent/STIM_007.jpg
1302.785	0.584	1	incongruent	Block2	incongruent/STIM_007.jpg
1305.723	0.573	1	incongruent	Block2	incongruent/STIM_007.jpg
1308.954	0.491	1	incongruent	Block2	incongruent/STIM_007.jpg
1311.903	0.849	1	incongruent	Block2	incongruent/STIM_008.jpg
1316.233	0.582	1	incongruent	Block2	incongruent/STIM_008.jpg
1320.527	0.519	1	incongruent	Block2	incongruent/STIM_008.jpg
1323.282	0.806	1	incongruent	Block2	incongruent/STIM_008.jpg
1326.861	0.656	1	incongruent	Block2	incongruent/STIM_008.jpg
1330.668	0.594	1	incongruent	Block2	incongruent/STIM_009.jpg
1333.588	0.921	1	incongruent	Block2	incongruent/STIM_009.jpg
1338.14	0.88	0	incongruent	Block2	incongruent/STIM_009.jpg
1341.879	0.848	1	incongruent	Block2	incongruent/STIM_009.jpg
1345.574	0.823	1	incongruent	Block2	incongruent/STIM_009.jpg
1350.36	0.591	1	incongruent	Block2	incongruent/STIM_010.jpg
1353.426	0.798	1	incongruent	Block2	incongruent/STIM_010.jpg
1358.238	0.994	1	incongruent	Block2	incongruent/STIM_010.jpg
1363.227	0.786	1	incongruent	Block2	incongruent/STIM_010.jpg
1367.232	0.501	1	incongruent	Block2	incongruent/STIM_010.jpg
1370.179	1.06	1	incongruent	Block2	incongruent/STIM_011.jpg
1373.587	1.007	1	incongruent	Block2	incongruent/STIM_011.jpg
1377.762	0.915	1	incongruent	Block2	incongruent/STIM_011.jpg
1381.744	0.644	1	incongruent	Block2	incongruent/STIM_011.jpg
1385.11	0.588	1	incongruent	Block2	incongruent/STIM_011.jpg
1389.762	1.057	1	incongruent	Block2	incongruent/STIM_012.jpg
1393.911	0.753	1	incongruent	Block2	incongruent/STIM_012.jpg
1396.854	0.873	0	incongruent	Block2	incongruent/STIM_012.jpg
1401.018	0.815	1	incongruent	Block2	incongruent/STIM_012.jpg
1403.985	0.606	1	incongruent	Block2	incongruent/STIM_012.jpg
1406.672	0.973	1	incongruent	Block2	incongruent/STIM_013.jpg
1410.896	0.951	1	incongruent	Block2	incongruent/STIM_013.jpg
1414.319	0.792	0	incongruent	Block2	incongruent/STIM_013.jpg
1418.915	0.676	1	incongruent	Block2	incongruent/STIM_013.jpg
1423.618	0.484	0	incongruent	Block2	incongruent/STIM_013.jpg
1426.886	1.034	1	incongruent	Block2	incongruent/STIM_014.jpg
1431.94	0.681	1	incongruent	Block2	incongruent/STIM_014.jpg
1436.075	0.86	1	incongruent	Block2	incongruent/STIM_014.jpg
1439.933	0.643	1	incongruent	Block2	incongruent/STIM_014.jpg
1444.495	0.755	1	incongruent	Block2	incongruent/STIM_014.jpg
1447.439	0.728	1	incongruent	Block2	incongruent/STIM_015.jpg
1450.311	0.772	1	incongruent	Block2	incongruent/STIM_015.jpg
1453.884	0.919	1	incongruent	Block2	incongruent/STIM_015.jpg
1458.782	0.84	1	incongruent	Block2	incongruent/STIM_015.jpg
1462.774	0.584	1	incongruent	Block2	incongruent/STIM_015.jpg
1465.843	0.826	1	incongruent	Block2	incongruent/STIM_016.jpg
1469.642	0.705	0	incongruent	Block2	incongruent/STIM_016.jpg
1473.959	0.728	1	incongruent	Block2	incongruent/STIM_016.jpg
1477.433	0.529	1	incongruent	Block2	incongruent/STIM_016.jpg
1480.689	0.499	1	incongruent	Block2	incongruent/STIM_016.jpg
1484.119	0.641	1	incongruent	Block2	incongruent/STIM_017.jpg
1488.717	0.664	1	incongruent	Block2	incongruent/STIM_017.jpg
1491.545	0.494	1	incongruent	Block2	incongruent/STIM_017.jpg
1495.969	0.827	1	incongruent	Block2	incongruent/STIM_017.jpg
1499.849	0.45	1	incongruent	Block2	incongruent/STIM_017.jpg
1503.181	0.566	1	incongruent	Block2	incongruent/STIM_018.jpg
1507.752	1.003	1	incongruent	Block2	incongruent/STIM_018.jpg
1510.905	0.694	1	incongruent	Block2	incongruent/STIM_018.jpg
1515.128	0.793	1	incongruent	Block2	incongruent/STIM_018.jpg
1518.793	0.912	1	incongruent	Block2	incongruent/STIM_018.jpg
1523.5	0.728	1	incongruent	Block2	incongruent/STIM_019.jpg
1526.654	0.613	1	incongruent	Block2	incongruent/STIM_019.jpg
1529.511	0.482	1	incongruent	Block2	incongruent/STIM_019.jpg
1533.801	0.75	1	incongruent	Block2	incongruent/STIM_019.jpg
1537.834	0.496	1	incongruent	Block2	incongruent/STIM_019.jpg
1541.896	0.856	1	incongruent	Block2	incongruent/STIM_020.jpg
1546.044	0.91	1	incongruent	Block2	incongruent/STIM_020.jpg
1549.876	0.848	1	incongruent	Block2	incongruent/STIM_020.jpg
1553.899	0.789	1	incongruent	Block2	incongruent/STIM_020.jpg
1556.852	0.635	1	incongruent	Block2	incongruent/STIM_020.jpg
1560.84	1.111	1	incongruent	Block2	incongruent/STIM_021.jpg
1564.304	0.54	1	incongruent	Block2	incongruent/STIM_021.jpg
1567.866	0.528	1	incongruent	Block2	incongruent/STIM_021.jpg
1570.645	0.506	1	incongruent	Block2	incongruent/STIM_021.jpg
1573.645	0.764	1	incongruent	Block2	incongruent/STIM_021.jpg
1577.083	0.765	0	incongruent	Block2	incongruent/STIM_022.jpg
1581.276	0.506	1	incongruent	Block2	incongruent/STIM_022.jpg
1585.733	0.542	1	incongruent	Block2	incongruent/STIM_022.jpg
1589.399	0.779	1	incongruent	Block2	incongruent/STIM_022.jpg
1593.971	0.636	1	incongruent	Block2	incongruent/STIM_022.jpg
1597.195	1.058	1	incongruent	Block2	incongruent/STIM_023.jpg
1601.262	0.637	1	incongruent	Block2	incongruent/STIM_023.jpg
1604.382	0.669	0	incongruent	Block2	incongruent/STIM_023.jpg
1607.875	0.79	1	incongruent	Block2	incongruent/STIM_023.jpg
1612.179	0.788	1	incongruent	Block2	incongruent/STIM_023.jpg
1615.972	1.024	1	incongruent	Block2	incongruent/STIM_024.jpg
1620.774	0.684	1	incongruent	Block2	incongruent/STIM_024.jpg
1624.38	0.908	1	incongruent	Block2	incongruent/STIM_024.jpg
1628.804	0.863	1	incongruent	Block2	incongruent/STIM_024.jpg
1633.185	0.899	1	incongruent	Block2	incongruent/STIM_024.jpg
1637.968	0.71	1	incongruent	Block2	incongruent/STIM_025.jpg
1641.359	0.977	1	incongruent	Block2	incongruent/STIM_025.jpg
1644.832	0.826	1	incongruent	Block2	incongruent/STIM_025.jpg
1648.909	0.778	1	incongruent	Block2	incongruent/STIM_025.jpg
1651.867	0.877	1	incongruent	Block2	incongruent/STIM_025.jpg
1655.891	1.014	1	incongruent	Block2	incongruent/STIM_026.jpg
1659.789	1.058	1	incongruent	Block2	incongruent/STIM_026.jpg
1664.827	0.727	1	incongruent	Block2	incongruent/STIM_026.jpg
1669.339	0.876	1	incongruent	Block2	incongruent/STIM_026.jpg
1674.26	0.456	1	incongruent	Block2	incongruent/STIM_026.jpg
1677.748	1.128	1	incongruent	Block2	incongruent/STIM_027.jpg
1681.663	1.047	1	incongruent	Block2	incongruent/STIM_027.jpg
1685.737	0.952	1	incongruent	Block2	incongruent/STIM_027.jpg
1690.77	0.507	1	incongruent	Block2	incongruent/STIM_027.jpg
1693.711	0.591	1	incongruent	Block2	incongruent/STIM_027.jpg
1696.529	1.068	0	incongruent	Block2	incongruent/STIM_028.jpg
1701.461	0.547	1	incongruent	Block2	incongruent/STIM_028.jpg
1705.37	0.775	1	incongruent	Block2	incongruent/STIM_028.jpg
1709.229	0.837	1	incongruent	Block2	incongruent/STIM_028.jpg
1713.87	0.73	1	incongruent	Block2	incongruent/STIM_028.jpg
1716.985	0.979	1	incongruent	Block2	incongruent/STIM_029.jpg
1720.996	0.927	1	incongruent	Block2	incongruent/STIM_029.jpg
1725.591	0.488	1	incongruent	Block2	incongruent/STIM_029.jpg
1728.161	0.675	1	incongruent	Block2	incongruent/STIM_029.jpg
1731.888	0.459	1	incongruent	Block2	incongruent/STIM_029.jpg
1735.882	0.742	1	congruent	Block2	congruent/STIM_000.jpg
1740.562	0.454	1	congruent	Block2	congruent/STIM_000.jpg
1744.646	0.473	1	congruent	Block2	congruent/STIM_000.jpg
1748.271	0.583	1	congruent	Block2	congruent/STIM_000.jpg
1751.681	0.474	1	congruent	Block2	congruent/STIM_000.jpg
1756.174	0.771	1	congruent	Block2	congruent/STIM_001.jpg
1760.202	0.796	1	congruent	Block2	congruent/STIM_001.jpg
1764.841	0.469	0	congruent	Block2	congruent/STIM_001.jpg
1767.648	0.734	0	congruent	Block2	congruent/STIM_001.jpg
1771.784	0.62	1	congruent	Block2	congruent/STIM_001.jpg
1775.621	0.693	1	congruent	Block2	congruent/STIM_002.jpg
1779.837	0.456	1	congruent	Block2	congruent/STIM_002.jpg
1782.834	0.638	1	congruent	Block2	congruent/STIM_002.jpg
1786.218	0.602	1	congruent	Block2	congruent/STIM_002.jpg
1789.99	0.778	1	congruent	Block2	congruent/STIM_002.jpg
1793.03	0.686	1	congruent	Block2	congruent/STIM_003.jpg
1797.066	0.481	1	congruent	Block2	congruent/STIM_003.jpg
1801.059	0.638	1	congruent	Block2	congruent/STIM_003.jpg
1805.307	0.719	1	congruent	Block2	congruent/STIM_003.jpg
1809.418	0.636	1	congruent	Block2	congruent/STIM_003.jpg
1813.669	0.744	1	congruent	Block2	congruent/STIM_004.jpg
1817.869	0.718	1	congruent	Block2	congruent/STIM_004.jpg
1820.946	0.774	1	congruent	Block2	congruent/STIM_004.jpg
1824.874	0.484	1	congruent	Block2	congruent/STIM_004.jpg
1828.695	0.455	0	congruent	Block2	congruent/STIM_004.jpg
1832.935	0.749	0	congruent	Block2	congruent/STIM_005.jpg
1836.636	0.745	1	congruent	Block2	congruent/STIM_005.jpg
1839.73	0.457	1	congruent	Block2	congruent/STIM_005.jpg
1842.303	0.537	1	congruent	Block2	congruent/STIM_005.jpg
1845.644	0.75	1	congruent	Block2	congruent/STIM_005.jpg
1848.99	0.744	1	congruent	Block2	congruent/STIM_006.jpg
1853.074	0.69	1	congruent	Block2	congruent/STIM_006.jpg
1857.254	0.616	1	congruent	Block2	congruent/STIM_006.jpg
1860.708	0.523	1	congruent	Block2	congruent/STIM_006.jpg
1865.009	0.489	1	congruent	Block2	congruent/STIM_006.jpg
1869.369	0.548	0	congruent	Block2	congruent/STIM_007.jpg
1872.021	0.483	1	congruent	Block2	congruent/STIM_007.jpg
1874.988	0.76	1	congruent	Block2	congruent/STIM_007.jpg
1879.708	0.479	1	congruent	Block2	congruent/STIM_007.jpg
1884.09	0.529	1	congruent	Block2	congruent/STIM_007.jpg
1888.445	0.643	1	congruent	Block2	congruent/STIM_008.jpg
1891.643	0.523	1	congruent	Block2	congruent/STIM_008.jpg
1895.092	0.71	1	congruent	Block2	congruent/STIM_008.jpg
1898.335	0.745	1	congruent	Block2	congruent/STIM_008.jpg
1902.329	0.621	1	congruent	Block2	congruent/STIM_008.jpg
1905.604	0.624	1	congruent	Block2	congruent/STIM_009.jpg
1908.779	0.626	1	congruent	Block2	congruent/STIM_009.jpg
1911.579	0.691	0	congruent	Block2	congruent/STIM_009.jpg
1914.68	0.626	1	congruent	Block2	congruent/STIM_009.jpg
1918.609	0.591	1	congruent	Block2	congruent/STIM_009.jpg
1922.085	0.748	1	congruent	Block2	congruent/STIM_010.jpg
1925.132	0.473	1	congruent	Block2	congruent/STIM_010.jpg
1927.952	0.747	1	congruent	Block2	congruent/STIM_010.jpg
1931.883	0.601	1	congruent	Block2	congruent/STIM_010.jpg
1935.453	0.466	1	congruent	Block2	congruent/STIM_010.jpg
1939.474	0.699	1	congruent	Block2	congruent/STIM_011.jpg
1942.364	0.484	1	congruent	Block2	congruent/STIM_011.jpg
1945.131	0.672	1	congruent	Block2	congruent/STIM_011.jpg
1949.409	0.705	1	congruent	Block2	congruent/STIM_011.jpg
1953.409	0.46	1	congruent	Block2	congruent/STIM_011.jpg
1955.987	0.701	1	congruent	Block2	congruent/STIM_012.jpg
1959.948	0.786	1	congruent	Block2	congruent/STIM_012.jpg
1963.604	0.678	1	congruent	Block2	congruent/STIM_012.jpg
1967.468	0.775	1	congruent	Block2	congruent/STIM_012.jpg
1971.074	0.556	1	congruent	Block2	congruent/STIM_012.jpg
1974.1	0.739	1	congruent	Block2	congruent/STIM_013.jpg
1977.563	0.501	1	congruent	Block2	congruent/STIM_013.jpg
1981.609	0.528	1	congruent	Block2	congruent/STIM_013.jpg
1985.065	0.511	0	congruent	Block2	congruent/STIM_013.jpg
1988.872	0.751	1	congruent	Block2	congruent/STIM_013.jpg
1993.343	0.682	1	congruent	Block2	congruent/STIM_014.jpg
1996.693	0.524	1	congruent	Block2	congruent/STIM_014.jpg
1999.751	0.563	1	congruent	Block2	congruent/STIM_014.jpg
2002.863	0.457	1	congruent	Block2	congruent/STIM_014.jpg
2007.25	0.595	1	congruent	Block2	congruent/STIM_014.jpg
2011.023	0.517	1	congruent	Block2	congruent/STIM_015.jpg
2014.74	0.657	1	congruent	Block2	congruent/STIM_015.jpg
2018.691	0.459	1	congruent	Block2	congruent/STIM_015.jpg
2021.301	0.673	1	congruent	Block2	congruent/STIM_015.jpg
2024.734	0.529	1	congruent	Block2	congruent/STIM_015.jpg
2027.498	0.687	1	congruent	Block2	congruent/STIM_016.jpg
2032.185	0.616	1	congruent	Block2	congruent/STIM_016.jpg
2034.924	0.726	1	congruent	Block2	congruent/STIM_016.jpg
2038.544	0.598	1	congruent	Block2	congruent/STIM_016.jpg
2042.857	0.587	1	congruent	Block2	congruent/STIM_016.jpg
2045.815	0.789	1	congruent	Block2	congruent/STIM_017.jpg
2048.787	0.697	1	congruent	Block2	congruent/STIM_017.jpg
2053.299	0.583	1	congruent	Block2	congruent/STIM_017.jpg
2056.541	0.71	1	congruent	Block2	congruent/STIM_017.jpg
2059.543	0.696	1	congruent	Block2	congruent/STIM_017.jpg
2062.905	0.734	0	congruent	Block2	congruent/STIM_018.jpg
2067.197	0.631	1	congruent	Block2	congruent/STIM_018.jpg
2070.506	0.723	1	congruent	Block2	congruent/STIM_018.jpg
2073.92	0.475	0	congruent	Block2	congruent/STIM_018.jpg
2076.616	0.475	1	congruent	Block2	congruent/STIM_018.jpg
2079.151	0.689	1	congruent	Block2	congruent/STIM_019.jpg
2083.733	0.665	1	congruent	Block2	congruent/STIM_019.jpg
2087.628	0.784	1	congruent	Block2	congruent/STIM_019.jpg
2092.461	0.647	1	congruent	Block2	congruent/STIM_019.jpg
2095.557	0.649	1	congruent	Block2	congruent/STIM_019.jpg
2099.317	0.766	1	congruent	Block2	congruent/STIM_020.jpg
2102.743	0.489	1	congruent	Block2	congruent/STIM_020.jpg
2106.709	0.452	1	congruent	Block2	congruent/STIM_020.jpg
2111.071	0.492	1	congruent	Block2	congruent/STIM_020.jpg
2113.849	0.688	1	congruent	Block2	congruent/STIM_020.jpg
2118.576	0.522	1	congruent	Block2	congruent/STIM_021.jpg
2121.904	0.499	1	congruent	Block2	congruent/STIM_021.jpg
2124.608	0.468	1	congruent	Block2	congruent/STIM_021.jpg
2127.15	0.786	1	congruent	Block2	congruent/STIM_021.jpg
2130.066	0.685	1	congruent	Block2	congruent/STIM_021.jpg
2133.018	0.791	1	congruent	Block2	congruent/STIM_022.jpg
2136.559	0.765	1	congruent	Block2	congruent/STIM_022.jpg
2140.189	0.716	1	congruent	Block2	congruent/STIM_022.jpg
2143.819	0.5	1	congruent	Block2	congruent/STIM_022.jpg
2147.969	0.711	1	congruent	Block2	congruent/STIM_022.jpg
2152.289	0.607	1	congruent	Block2	congruent/STIM_023.jpg
2155.312	0.715	1	congruent	Block2	congruent/STIM_023.jpg
2158.597	0.612	1	congruent	Block2	congruent/STIM_023.jpg
2161.783	0.721	1	congruent	Block2	congruent/STIM_023.jpg
2165.129	0.452	1	congruent	Block2	congruent/STIM_023.jpg
2167.706	0.542	1	congruent	Block2	congruent/STIM_024.jpg
2171.296	0.68	1	congruent	Block2	congruent/STIM_024.jpg
2175.277	0.768	1	congruent	Block2	congruent/STIM_024.jpg
2179.858	0.618	1	congruent	Block2	congruent/STIM_024.jpg
2183.021	0.592	1	congruent	Block2	congruent/STIM_024.jpg
2185.996	0.58	1	congruent	Block2	congruent/STIM_025.jpg
2189.843	0.76	1	congruent	Block2	congruent/STIM_025.jpg
2193.822	0.757	1	congruent	Block2	congruent/STIM_025.jpg
2198.231	0.777	1	congruent	Block2	congruent/STIM_025.jpg
2202.443	0.473	1	congruent	Block2	congruent/STIM_025.jpg
2206.269	0.743	1	congruent	Block2	congruent/STIM_026.jpg
2209.741	0.451	1	congruent	Block2	congruent/STIM_026.jpg
2212.971	0.691	1	congruent	Block2	congruent/STIM_026.jpg
2216.304	0.772	1	congruent	Block2	congruent/STIM_026.jpg
2220.445	0.45	1	congruent	Block2	congruent/STIM_026.jpg
2223.084	0.768	1	congruent	Block2	congruent/STIM_027.jpg
2226.436	0.494	1	congruent	Block2	congruent/STIM_027.jpg
2230.785	0.676	1	congruent	Block2	congruent/STIM_027.jpg
2234.073	0.785	1	congruent	Block2	congruent/STIM_027.jpg
2237.919	0.645	1	congruent	Block2	congruent/STIM_027.jpg
2241.643	0.452	1	congruent	Block2	congruent/STIM_028.jpg
2244.466	0.75	1	congruent	Block2	congruent/STIM_028.jpg
2247.518	0.471	1	congruent	Block2	congruent/STIM_028.jpg
2251.609	0.681	1	congruent	Block2	congruent/STIM_028.jpg
2255.357	0.479	1	congruent	Block2	congruent/STIM_028.jpg
2259.512	0.628	0	congruent	Block2	congruent/STIM_029.jpg
2263.355	0.581	1	congruent	Block2	congruent/STIM_029.jpg
2267.397	0.566	1	congruent	Block2	congruent/STIM_029.jpg
2270.547	0.572	1	congruent	Block2	congruent/STIM_029.jpg
2274.301	0.742	1	congruent	Block2	congruent/STIM_029.jpg
2278.559	0.646	1	incongruent	Block3	incongruent/STIM_000.jpg
2281.734	0.59	0	incongruent	Block3	incongruent/STIM_000.jpg
2284.471	0.442	1	incongruent	Block3	incongruent/STIM_000.jpg
2287.422	0.863	1	incongruent	Block3	incongruent/STIM_000.jpg
2291.382	0.763	1	incongruent	Block3	incongruent/STIM_000.jpg
2295.884	0.665	1	incongruent	Block3	incongruent/STIM_001.jpg
2299.841	0.49	1	incongruent	Block3	incongruent/STIM_001.jpg
2304.203	0.885	1	incongruent	Block3	incongruent/STIM_001.jpg
2307.488	0.596	1	incongruent	Block3	incongruent/STIM_001.jpg
2311.601	0.637	1	incongruent	Block3	incongruent/STIM_001.jpg
2315.409	0.684	1	incongruent	Block3	incongruent/STIM_002.jpg
2319.536	0.602	1	incongruent	Block3	incongruent/STIM_002.jpg
2323.788	0.64	1	incongruent	Block3	incongruent/STIM_002.jpg
2326.537	0.582	1	incongruent	Block3	incongruent/STIM_002.jpg
2330.939	0.717	1	incongruent	Block3	incongruent/STIM_002.jpg
2334.982	0.524	1	incongruent	Block3	incongruent/STIM_003.jpg
2337.954	0.489	1	incongruent	Block3	incongruent/STIM_003.jpg
2341.582	0.495	1	incongruent	Block3	incongruent/STIM_003.jpg
2345.733	0.67	1	incongruent	Block3	incongruent/STIM_003.jpg
2350.436	0.844	1	incongruent	Block3	incongruent/STIM_003.jpg
2354.901	0.645	1	incongruent	Block3	incongruent/STIM_004.jpg
2358.668	0.896	1	incongruent	Block3	incongruent/STIM_004.jpg
2362.083	0.556	1	incongruent	Block3	incongruent/STIM_004.jpg
2365.605	0.671	1	incongruent	Block3	incongruent/STIM_004.jpg
2368.61	0.851	1	incongruent	Block3	incongruent/STIM_004.jpg
2372.924	0.681	1	incongruent	Block3	incongruent/STIM_005.jpg
2376.362	0.92	1	incongruent	Block3	incongruent/STIM_005.jpg
2380.691	0.755	1	incongruent	Block3	incongruent/STIM_005.jpg
2383.738	0.898	1	incongruent	Block3	incongruent/STIM_005.jpg
2387.547	0.842	1	incongruent	Block3	incongruent/STIM_005.jpg
2392.108	0.822	1	incongruent	Block3	incongruent/STIM_006.jpg
2396.469	0.805	1	incongruent	Block3	incongruent/STIM_006.jpg
2401.167	0.83	1	incongruent	Block3	incongruent/STIM_006.jpg
2405.44	0.713	1	incongruent	Block3	incongruent/STIM_006.jpg
2410.227	0.844	1	incongruent	Block3	incongruent/STIM_006.jpg
2413.738	0.938	1	incongruent	Block3	incongruent/STIM_007.jpg
2417.627	0.599	1	incongruent	Block3	incongruent/STIM_007.jpg
2420.942	0.531	1	incongruent	Block3	incongruent/STIM_007.jpg
2423.929	0.571	1	incongruent	Block3	incongruent/STIM_007.jpg
2427.798	0.614	1	incongruent	Block3	incongruent/STIM_007.jpg
2431.907	0.822	1	incongruent	Block3	incongruent/STIM_008.jpg
2434.961	0.64	1	incongruent	Block3	incongruent/STIM_008.jpg
2438.414	0.872	1	incongruent	Block3	incongruent/STIM_008.jpg
2442.213	0.859	1	incongruent	Block3	incongruent/STIM_008.jpg
2446.256	0.49	1	incongruent	Block3	incongruent/STIM_008.jpg
2449.725	0.469	1	incongruent	Block3	incongruent/STIM_009.jpg
2453.224	0.734	1	incongruent	Block3	incongruent/STIM_009.jpg
2456.918	0.646	1	incongruent	Block3	incongruent/STIM_009.jpg
2461.067	0.577	1	incongruent	Block3	incongruent/STIM_009.jpg
2464.018	0.76	1	incongruent	Block3	incongruent/STIM_009.jpg
2467.744	0.91	1	incongruent	Block3	incongruent/STIM_010.jpg
2471.904	0.714	1	incongruent	Block3	incongruent/STIM_010.jpg
2474.71	0.506	1	incongruent	Block3	incongruent/STIM_010.jpg
2478.216	0.744	1	incongruent	Block3	incongruent/STIM_010.jpg
2482.798	0.839	1	incongruent	Block3	incongruent/STIM_010.jpg
2487.311	0.456	1	incongruent	Block3	incongruent/STIM_011.jpg
2490.091	0.441	1	incongruent	Block3	incongruent/STIM_011.jpg
2492.873	0.835	1	incongruent	Block3	incongruent/STIM_011.jpg
2495.824	0.902	1	incongruent	Block3	incongruent/STIM_011.jpg
2499.328	0.899	1	incongruent	Block3	incongruent/STIM_011.jpg
2502.712	0.707	1	incongruent	Block3	incongruent/STIM_012.jpg
2506.14	0.542	1	incongruent	Block3	incongruent/STIM_012.jpg
2510.435	0.507	1	incongruent	Block3	incongruent/STIM_012.jpg
2514.197	0.462	1	incongruent	Block3	incongruent/STIM_012.jpg
2516.956	0.792	1	incongruent	Block3	incongruent/STIM_012.jpg
2521.032	0.495	1	incongruent	Block3	incongruent/STIM_013.jpg
2524.005	0.826	1	incongruent	Block3	incongruent/STIM_013.jpg
2528.305	0.751	1	incongruent	Block3	incongruent/STIM_013.jpg
2532.537	0.646	1	incongruent	Block3	incongruent/STIM_013.jpg
2535.776	0.63	1	incongruent	Block3	incongruent/STIM_013.jpg
2539.471	0.859	1	incongruent	Block3	incongruent/STIM_014.jpg
2543.67	0.595	1	incongruent	Block3	incongruent/STIM_014.jpg
2546.8	0.543	1	incongruent	Block3	incongruent/STIM_014.jpg
2550.271	0.521	1	incongruent	Block3	incongruent/STIM_014.jpg
2553.412	0.796	1	incongruent	Block3	incongruent/STIM_014.jpg
2557.053	0.503	1	incongruent	Block3	incongruent/STIM_015.jpg
2560.912	0.774	1	incongruent	Block3	incongruent/STIM_015.jpg
2565.521	0.9	1	incongruent	Block3	incongruent/STIM_015.jpg
2570.168	0.677	1	incongruent	Block3	incongruent/STIM_015.jpg
2573.579	0.45	1	incongruent	Block3	incongruent/STIM_015.jpg
2576.577	0.913	1	incongruent	Block3	incongruent/STIM_016.jpg
2580.385	0.557	1	incongruent	Block3	incongruent/STIM_016.jpg
2583.858	0.749	1	incongruent	Block3	incongruent/STIM_016.jpg
2588.39	0.444	1	incongruent	Block3	incongruent/STIM_016.jpg
2590.985	0.847	1	incongruent	Block3	incongruent/STIM_016.jpg
2595.287	0.853	1	incongruent	Block3	incongruent/STIM_017.jpg
2599.429	0.872	1	incongruent	Block3	incongruent/STIM_017.jpg
2603.219	0.58	1	incongruent	Block3	incongruent/STIM_017.jpg
2606.283	0.531	1	incongruent	Block3	incongruent/STIM_017.jpg
2609.673	0.932	1	incongruent	Block3	incongruent/STIM_017.jpg
2614.257	0.804	1	incongruent	Block3	incongruent/STIM_018.jpg
2618.463	0.853	1	incongruent	Block3	incongruent/STIM_018.jpg
2622.079	0.805	1	incongruent	Block3	incongruent/STIM_018.jpg
2626.662	0.928	1	incongruent	Block3	incongruent/STIM_018.jpg
2630.24	0.589	1	incongruent	Block3	incongruent/STIM_018.jpg
2633.345	0.665	1	incongruent	Block3	incongruent/STIM_019.jpg
2636.274	0.734	1	incongruent	Block3	incongruent/STIM_019.jpg
2639.875	0.886	1	incongruent	Block3	incongruent/STIM_019.jpg
2643.939	0.889	1	incongruent	Block3	incongruent/STIM_019.jpg
2647.399	0.851	1	incongruent	Block3	incongruent/STIM_019.jpg
2650.601	0.73	1	incongruent	Block3	incongruent/STIM_020.jpg
2655.248	0.909	1	incongruent	Block3	incongruent/STIM_020.jpg
2658.641	0.872	1	incongruent	Block3	incongruent/STIM_020.jpg
2661.684	0.793	1	incongruent	Block3	incongruent/STIM_020.jpg
2665.145	0.532	1	incongruent	Block3	incongruent/STIM_020.jpg
2669.41	0.909	1	incongruent	Block3	incongruent/STIM_021.jpg
2673.217	0.77	1	incongruent	Block3	incongruent/STIM_021.jpg
2676.888	0.884	1	incongruent	Block3	incongruent/STIM_021.jpg
2680.937	0.926	1	incongruent	Block3	incongruent/STIM_021.jpg
2684.13	0.523	1	incongruent	Block3	incongruent/STIM_021.jpg
2686.76	0.658	1	incongruent	Block3	incongruent/STIM_022.jpg
2690.652	0.937	1	incongruent	Block3	incongruent/STIM_022.jpg
2695.537	0.713	1	incongruent	Block3	incongruent/STIM_022.jpg
2699.992	0.879	1	incongruent	Block3	incongruent/STIM_022.jpg
2703.385	0.68	1	incongruent	Block3	incongruent/STIM_022.jpg
2707.956	0.858	1	incongruent	Block3	incongruent/STIM_023.jpg
2712.542	0.552	1	incongruent	Block3	incongruent/STIM_023.jpg
2716.043	0.598	1	incongruent	Block3	incongruent/STIM_023.jpg
2719.774	0.902	1	incongruent	Block3	incongruent/STIM_023.jpg
2723.89	0.736	1	incongruent	Block3	incongruent/STIM_023.jpg
2728.083	0.87	1	incongruent	Block3	incongruent/STIM_024.jpg
2731.141	0.578	1	incongruent	Block3	incongruent/STIM_024.jpg
2735.071	0.486	1	incongruent	Block3	incongruent/STIM_024.jpg
2737.709	0.884	1	incongruent	Block3	incongruent/STIM_024.jpg
2742.222	0.736	1	incongruent	Block3	incongruent/STIM_024.jpg
2745.688	0.915	1	incongruent	Block3	incongruent/STIM_025.jpg
2749.968	0.548	1	incongruent	Block3	incongruent/STIM_025.jpg
2753.982	0.606	1	incongruent	Block3	incongruent/STIM_025.jpg
2756.932	0.446	1	incongruent	Block3	incongruent/STIM_025.jpg
2760.061	0.595	1	incongruent	Block3	incongruent/STIM_025.jpg
2764.266	0.581	1	incongruent	Block3	incongruent/STIM_026.jpg
2768.227	0.537	1	incongruent	Block3	incongruent/STIM_026.jpg
2771.123	0.807	1	incongruent	Block3	incongruent/STIM_026.jpg
2775.261	0.743	1	incongruent	Block3	incongruent/STIM_026.jpg
2778.537	0.631	0	incongruent	Block3	incongruent/STIM_026.jpg
2782.015	0.889	1	incongruent	Block3	incongruent/STIM_027.jpg
2786.765	0.45	1	incongruent	Block3	incongruent/STIM_027.jpg
2790.857	0.718	1	incongruent	Block3	incongruent/STIM_027.jpg
2793.877	0.805	1	incongruent	Block3	incongruent/STIM_027.jpg
2798.473	0.898	1	incongruent	Block3	incongruent/STIM_027.jpg
2803.371	0.672	1	incongruent	Block3	incongruent/STIM_028.jpg
2806.353	0.622	1	incongruent	Block3	incongruent/STIM_028.jpg
2809.476	0.777	1	incongruent	Block3	incongruent/STIM_028.jpg
2814.216	0.915	1	incongruent	Block3	incongruent/STIM_028.jpg
2817.455	0.584	1	incongruent	Block3	incongruent/STIM_028.jpg
2820.473	0.882	1	incongruent	Block3	incongruent/STIM_029.jpg
2823.563	0.64	1	incongruent	Block3	incongruent/STIM_029.jpg
2827.745	0.508	1	incongruent	Block3	incongruent/STIM_029.jpg
2832.05	0.497	1	incongruent	Block3	incongruent/STIM_029.jpg
2836.367	0.495	1	incongruent	Block3	incongruent/STIM_029.jpg
2840.014	0.765	1	congruent	Block3	congruent/STIM_000.jpg
2844.068	0.786	1	congruent	Block3	congruent/STIM_000.jpg
2847.204	0.474	1	congruent	Block3	congruent/STIM_000.jpg
2849.839	0.683	1	congruent	Block3	congruent/STIM_000.jpg
2852.668	0.676	1	congruent	Block3	congruent/STIM_000.jpg
2857.37	0.592	1	congruent	Block3	congruent/STIM_001.jpg
2861.183	0.532	1	congruent	Block3	congruent/STIM_001.jpg
2865.042	0.566	1	congruent	Block3	congruent/STIM_001.jpg
2868.097	0.697	1	congruent	Block3	congruent/STIM_001.jpg
2871.47	0.78	1	congruent	Block3	congruent/STIM_001.jpg
2876.023	0.656	1	congruent	Block3	congruent/STIM_002.jpg
2879.561	0.698	1	congruent	Block3	congruent/STIM_002.jpg
2884.011	0.475	1	congruent	Block3	congruent/STIM_002.jpg
2887.168	0.716	1	congruent	Block3	congruent/STIM_002.jpg
2890.355	0.568	1	congruent	Block3	congruent/STIM_002.jpg
2894.296	0.626	1	congruent	Block3	congruent/STIM_003.jpg
2898.861	0.49	1	congruent	Block3	congruent/STIM_003.jpg
2902.371	0.769	1	congruent	Block3	congruent/STIM_003.jpg
2905.318	0.628	1	congruent	Block3	congruent/STIM_003.jpg
2909.165	0.58	1	congruent	Block3	congruent/STIM_003.jpg
2913.16	0.746	1	congruent	Block3	congruent/STIM_004.jpg
2916.537	0.585	1	congruent	Block3	congruent/STIM_004.jpg
2920.09	0.539	1	congruent	Block3	congruent/STIM_004.jpg
2923.591	0.511	0	congruent	Block3	congruent/STIM_004.jpg
2927.83	0.58	1	congruent	Block3	congruent/STIM_004.jpg
2931.458	0.569	1	congruent	Block3	congruent/STIM_005.jpg
2935.159	0.756	1	congruent	Block3	congruent/STIM_005.jpg
2939.31	0.574	1	congruent	Block3	congruent/STIM_005.jpg
2943.337	0.776	1	congruent	Block3	congruent/STIM_005.jpg
2947.212	0.448	1	congruent	Block3	congruent/STIM_005.jpg
2950.798	0.662	1	congruent	Block3	congruent/STIM_006.jpg
2955.192	0.687	1	congruent	Block3	congruent/STIM_006.jpg
2958.62	0.663	1	congruent	Block3	congruent/STIM_006.jpg
2962.408	0.739	1	congruent	Block3	congruent/STIM_006.jpg
2966.287	0.498	1	congruent	Block3	congruent/STIM_006.jpg
2970.141	0.66	1	congruent	Block3	congruent/STIM_007.jpg
2974.21	0.613	1	congruent	Block3	congruent/STIM_007.jpg
2978.781	0.513	1	congruent	Block3	congruent/STIM_007.jpg
2982.984	0.722	1	congruent	Block3	congruent/STIM_007.jpg
2986.004	0.655	1	congruent	Block3	congruent/STIM_007.jpg
2989.814	0.462	1	congruent	Block3	congruent/STIM_008.jpg
2993.156	0.548	1	congruent	Block3	congruent/STIM_008.jpg
2996.472	0.794	1	congruent	Block3	congruent/STIM_008.jpg
3001.221	0.529	1	congruent	Block3	congruent/STIM_008.jpg
3005.687	0.49	1	congruent	Block3	congruent/STIM_008.jpg
3008.268	0.526	1	congruent	Block3	congruent/STIM_009.jpg
3012.17	0.726	1	congruent	Block3	congruent/STIM_009.jpg
3016.439	0.759	1	congruent	Block3	congruent/STIM_009.jpg
3019.506	0.544	1	congruent	Block3	congruent/STIM_009.jpg
3023.837	0.79	1	congruent	Block3	congruent/STIM_009.jpg
3027.356	0.516	1	congruent	Block3	congruent/STIM_010.jpg
3030.898	0.569	1	congruent	Block3	congruent/STIM_010.jpg
3034.646	0.668	1	congruent	Block3	congruent/STIM_010.jpg
3037.984	0.462	1	congruent	Block3	congruent/STIM_010.jpg
3040.706	0.761	1	congruent	Block3	congruent/STIM_010.jpg
3044.149	0.671	1	congruent	Block3	congruent/STIM_011.jpg
3047.191	0.497	1	congruent	Block3	congruent/STIM_011.jpg
3050.565	0.588	1	congruent	Block3	congruent/STIM_011.jpg
3054.38	0.727	1	congruent	Block3	congruent/STIM_011.jpg
3058.636	0.502	1	congruent	Block3	congruent/STIM_011.jpg
3062.219	0.506	1	congruent	Block3	congruent/STIM_012.jpg
3065.383	0.67	1	congruent	Block3	congruent/STIM_012.jpg
3069.261	0.741	1	congruent	Block3	congruent/STIM_012.jpg
3072.857	0.621	1	congruent	Block3	congruent/STIM_012.jpg
3075.736	0.787	0	congruent	Block3	congruent/STIM_012.jpg
3079.077	0.579	1	congruent	Block3	congruent/STIM_013.jpg
3082.392	0.546	1	congruent	Block3	congruent/STIM_013.jpg
3086.383	0.544	1	congruent	Block3	congruent/STIM_013.jpg
3089.899	0.613	1	congruent	Block3	congruent/STIM_013.jpg
3093.759	0.487	1	congruent	Block3	congruent/STIM_013.jpg
3096.564	0.543	1	congruent	Block3	congruent/STIM_014.jpg
3100.817	0.595	1	congruent	Block3	congruent/STIM_014.jpg
3105.372	0.672	1	congruent	Block3	congruent/STIM_014.jpg
3108.163	0.711	1	congruent	Block3	congruent/STIM_014.jpg
3111.202	0.532	1	congruent	Block3	congruent/STIM_014.jpg
3114.898	0.782	1	congruent	Block3	congruent/STIM_015.jpg
3117.953	0.672	1	congruent	Block3	congruent/STIM_015.jpg
3121.661	0.617	1	congruent	Block3	congruent/STIM_015.jpg
3124.553	0.504	1	congruent	Block3	congruent/STIM_015.jpg
3127.627	0.585	1	congruent	Block3	congruent/STIM_015.jpg
3131.047	0.618	1	congruent	Block3	congruent/STIM_016.jpg
3134.273	0.658	1	congruent	Block3	congruent/STIM_016.jpg
3137.749	0.458	1	congruent	Block3	congruent/STIM_016.jpg
3140.266	0.784	1	congruent	Block3	congruent/STIM_016.jpg
3144.866	0.767	1	congruent	Block3	congruent/STIM_016.jpg
3149.193	0.785	1	congruent	Block3	congruent/STIM_017.jpg
3152.098	0.697	1	congruent	Block3	congruent/STIM_017.jpg
3156.666	0.789	1	congruent	Block3	congruent/STIM_017.jpg
3160.921	0.724	1	congruent	Block3	congruent/STIM_017.jpg
3164.729	0.566	0	congruent	Block3	congruent/STIM_017.jpg
3167.876	0.471	1	congruent	Block3	congruent/STIM_018.jpg
3170.452	0.671	1	congruent	Block3	congruent/STIM_018.jpg
3175.078	0.495	1	congruent	Block3	congruent/STIM_018.jpg
3178.699	0.702	1	congruent	Block3	congruent/STIM_018.jpg
3183.239	0.541	1	congruent	Block3	congruent/STIM_018.jpg
3187.481	0.543	1	congruent	Block3	congruent/STIM_019.jpg
3190.842	0.654	1	congruent	Block3	congruent/STIM_019.jpg
3194.789	0.757	1	congruent	Block3	congruent/STIM_019.jpg
3198.304	0.452	1	congruent	Block3	congruent/STIM_019.jpg
3202.296	0.667	1	congruent	Block3	congruent/STIM_019.jpg
3206.158	0.531	1	congruent	Block3	congruent/STIM_020.jpg
3208.969	0.652	1	congruent	Block3	congruent/STIM_020.jpg
3212.2	0.626	0	congruent	Block3	congruent/STIM_020.jpg
3215.211	0.75	1	congruent	Block3	congruent/STIM_020.jpg
3219.031	0.543	1	congruent	Block3	congruent/STIM_020.jpg
3223.605	0.583	1	congruent	Block3	congruent/STIM_021.jpg
3228.11	0.661	1	congruent	Block3	congruent/STIM_021.jpg
3232.466	0.485	1	congruent	Block3	congruent/STIM_021.jpg
3235.27	0.524	1	congruent	Block3	congruent/STIM_021.jpg
3239.394	0.478	1	congruent	Block3	congruent/STIM_021.jpg
3243.392	0.67	1	congruent	Block3	congruent/STIM_022.jpg
3247.095	0.649	1	congruent	Block3	congruent/STIM_022.jpg
3251.181	0.598	1	congruent	Block3	congruent/STIM_022.jpg
3255.439	0.455	1	congruent	Block3	congruent/STIM_022.jpg
3259.409	0.796	1	congruent	Block3	congruent/STIM_022.jpg
3263.955	0.599	1	congruent	Block3	congruent/STIM_023.jpg
3267.174	0.627	1	congruent	Block3	congruent/STIM_023.jpg
3270.966	0.726	0	congruent	Block3	congruent/STIM_023.jpg
3275.689	0.561	1	congruent	Block3	congruent/STIM_023.jpg
3279.049	0.654	1	congruent	Block3	congruent/STIM_023.jpg
3283.162	0.783	1	congruent	Block3	congruent/STIM_024.jpg
3286.529	0.567	1	congruent	Block3	congruent/STIM_024.jpg
3290.216	0.496	1	congruent	Block3	congruent/STIM_024.jpg
3293.09	0.651	1	congruent	Block3	congruent/STIM_024.jpg
3296.771	0.544	0	congruent	Block3	congruent/STIM_024.jpg
3299.429	0.673	1	congruent	Block3	congruent/STIM_025.jpg
3303.569	0.76	1	congruent	Block3	congruent/STIM_025.jpg
3307.013	0.546	1	congruent	Block3	congruent/STIM_025.jpg
3311.58	0.718	1	congruent	Block3	congruent/STIM_025.jpg
3314.443	0.715	0	congruent	Block3	congruent/STIM_025.jpg
3318.696	0.52	1	congruent	Block3	congruent/STIM_026.jpg
3323.202	0.714	1	congruent	Block3	congruent/STIM_026.jpg
3327.363	0.791	1	congruent	Block3	congruent/STIM_026.jpg
3331.543	0.628	1	congruent	Block3	congruent/STIM_026.jpg
3335.085	0.449	1	congruent	Block3	congruent/STIM_026.jpg
3338.835	0.612	1	congruent	Block3	congruent/STIM_027.jpg
3341.907	0.698	1	congruent	Block3	congruent/STIM_027.jpg
3344.956	0.624	1	congruent	Block3	congruent/STIM_027.jpg
3348.353	0.608	1	congruent	Block3	congruent/STIM_027.jpg
3351.209	0.468	1	congruent	Block3	congruent/STIM_027.jpg
3355.401	0.742	1	congruent	Block3	congruent/STIM_028.jpg
3358.361	0.521	1	congruent	Block3	congruent/STIM_028.jpg
3361.839	0.768	1	congruent	Block3	congruent/STIM_028.jpg
3366.357	0.464	1	congruent	Block3	congruent/STIM_028.jpg
3369.656	0.702	1	congruent	Block3	congruent/STIM_028.jpg
3373.039	0.767	1	congruent	Block3	congruent/STIM_029.jpg
3377.66	0.711	1	congruent	Block3	congruent/STIM_029.jpg
3381.54	0.618	1	congruent	Block3	congruent/STIM_029.jpg
3385.486	0.468	1	congruent	Block3	congruent/STIM_029.jpg
3389.154	0.628	1	congruent	Block3	congruent/STIM_029.jpg
