onset	duration	accuracy_binary	trial_type	learning_stage	stimulus
0.0	1.24	1	incongruent	Block1	incongruent/STIM_000.jpg
3.309	0.619	0	incongruent	Block1	incongruent/STIM_000.jpg
6.72	0.88	1	incongruent	Block1	incongruent/STIM_000.jpg
10.832	0.563	1	incongruent	Block1	incongruent/STIM_000.jpg
13.771	0.865	1	incongruent	Block1	incongruent/STIM_000.jpg
17.535	0.909	0	incongruent	Block1	incongruent/STIM_001.jpg
21.201	1.054	1	incongruent	Block1	incongruent/STIM_001.jpg
26.126	1.034	1	incongruent	Block1	incongruent/STIM_001.jpg
29.759	0.721	1	incongruent	Block1	incongruent/STIM_001.jpg
33.936	0.575	0	incongruent	Block1	incongruent/STIM_001.jpg
37.094	0.691	0	incongruent	Block1	incongruent/STIM_002.jpg
41.498	0.785	1	incongruent	Block1	incongruent/STIM_002.jpg
44.388	0.796	1	incongruent	Block1	incongruent/STIM_002.jpg
48.968	1.027	1	incongruent	Block1	incongruent/STIM_002.jpg
53.129	1.055	1	incongruent	Block1	incongruent/STIM_002.jpg
57.06	1.133	1	incongruent	Block1	incongruent/STIM_003.jpg
61.824	0.734	1	incongruent	Block1	incongruent/STIM_003.jpg
65.666	0.863	1	incongruent	Block1	incongruent/STIM_003.jpg
69.227	1.144	1	incongruent	Block1	incongruent/STIM_003.jpg
73.904	0.742	0	incongruent	Block1	incongruent/STIM_003.jpg
77.863	0.914	1	incongruent	Block1	incongruent/STIM_004.jpg
81.441	1.269	1	incongruent	Block1	incongruent/STIM_004.jpg
86.459	1.047	1	incongruent	Block1	incongruent/STIM_004.jpg
90.275	0.793	1	incongruent	Block1	incongruent/STIM_004.jpg
93.866	0.568	1	incongruent	Block1	incongruent/STIM_004.jpg
98.116	0.857	1	incongruent	Block1	incongruent/STIM_005.jpg
101.767	1.01	1	incongruent	Block1	incongruent/STIM_005.jpg
106.357	1.145	1	incongruent	Block1	incongruent/STIM_005.jpg
111.167	1.057	1	incongruent	Block1	incongruent/STIM_005.jpg
115.889	1.072	1	incongruent	Block1	incongruent/STIM_005.jpg
119.08	1.207	0	incongruent	Block1	incongruent/STIM_006.jpg
123.987	0.974	1	incongruent	Block1	incongruent/STIM_006.jpg
128.399	0.925	0	incongruent	Block1	incongruent/STIM_006.jpg
132.078	0.729	0	incongruent	Block1	incongruent/STIM_006.jpg
134.875	0.754	1	incongruent	Block1	incongruent/STIM_006.jpg
138.698	0.847	1	incongruent	Block1	incongruent/STIM_007.jpg
143.346	0.602	1	incongruent	Block1	incongruent/STIM_007.jpg
147.655	1.0	1	incongruent	Block1	incongruent/STIM_007.jpg
151.891	1.112	1	incongruent	Block1	incongruent/STIM_007.jpg
156.925	0.549	1	incongruent	Block1	incongruent/STIM_007.jpg
159.56	0.641	0	incongruent	Block1	incongruent/STIM_008.jpg
164.053	0.813	1	incongruent	Block1	incongruent/STIM_008.jpg
167.944	0.857	1	incongruent	Block1	incongruent/STIM_008.jpg
171.553	0.96	0	incongruent	Block1	incongruent/STIM_008.jpg
174.563	0.566	1	incongruent	Block1	incongruent/STIM_008.jpg
178.841	1.145	1	incongruent	Block1	incongruent/STIM_009.jpg
182.804	1.089	0	incongruent	Block1	incongruent/STIM_009.jpg
187.33	1.107	1	incongruent	Block1	incongruent/STIM_009.jpg
191.691	0.996	1	incongruent	Block1	incongruent/STIM_009.jpg
194.833	1.062	0	incongruent	Block1	incongruent/STIM_009.jpg
199.16	0.838	1	incongruent	Block1	incongruent/STIM_010.jpg
203.932	1.0	0	incongruent	Block1	incongruent/STIM_010.jpg
207.26	0.719	0	incongruent	Block1	incongruent/STIM_010.jpg
211.323	0.923	1	incongruent	Block1	incongruent/STIM_010.jpg
215.334	0.918	1	incongruent	Block1	incongruent/STIM_010.jpg
219.632	0.896	1	incongruent	Block1	incongruent/STIM_011.jpg
222.75	1.135	1	incongruent	Block1	incongruent/STIM_011.jpg
227.056	0.832	1	incongruent	Block1	incongruent/STIM_011.jpg
230.642	0.914	1	incongruent	Block1	incongruent/STIM_011.jpg
234.936	0.568	1	incongruent	Block1	incongruent/STIM_011.jpg
238.094	0.689	1	incongruent	Block1	incongruent/STIM_012.jpg
242.066	1.059	1	incongruent	Block1	incongruent/STIM_012.jpg
245.637	1.032	1	incongruent	Block1	incongruent/STIM_012.jpg
250.358	0.648	1	incongruent	Block1	incongruent/STIM_012.jpg
254.057	0.946	1	incongruent	Block1	incongruent/STIM_012.jpg
258.998	0.957	1	incongruent	Block1	incongruent/STIM_013.jpg
262.936	0.726	1	incongruent	Block1	incongruent/STIM_013.jpg
267.513	0.796	1	incongruent	Block1	incongruent/STIM_013.jpg
272.129	1.072	1	incongruent	Block1	incongruent/STIM_013.jpg
276.207	1.051	0	incongruent	Block1	incongruent/STIM_013.jpg
280.155	1.012	1	incongruent	Block1	incongruent/STIM_014.jpg
284.522	1.176	1	incongruent	Block1	incongruent/STIM_014.jpg
289.446	0.647	1	incongruent	Block1	incongruent/STIM_014.jpg
292.671	0.543	1	incongruent	Block1	incongruent/STIM_014.jpg
297.172	1.051	1	incongruent	Block1	incongruent/STIM_014.jpg
300.639	1.076	1	incongruent	Block1	incongruent/STIM_015.jpg
305.124	0.826	1	incongruent	Block1	incongruent/STIM_015.jpg
308.53	1.001	1	incongruent	Block1	incongruent/STIM_015.jpg
312.408	0.902	1	incongruent	Block1	incongruent/STIM_015.jpg
316.343	0.923	1	incongruent	Block1	incongruent/STIM_015.jpg
319.707	0.97	1	incongruent	Block1	incongruent/STIM_016.jpg
324.235	0.905	0	incongruent	Block1	incongruent/STIM_016.jpg
328.056	1.172	1	incongruent	Block1	incongruent/STIM_016.jpg
332.786	0.808	1	incongruent	Block1	incongruent/STIM_016.jpg
335.772	0.654	1	incongruent	Block1	incongruent/STIM_016.jpg
339.312	0.755	1	incongruent	Block1	incongruent/STIM_017.jpg
343.082	1.285	1	incongruent	Block1	incongruent/STIM_017.jpg
347.832	0.716	1	incongruent	Block1	incongruent/STIM_017.jpg
351.453	0.735	1	incongruent	Block1	incongruent/STIM_017.jpg
355.945	0.718	1	incongruent	Block1	incongruent/STIM_017.jpg
360.281	0.68	1	incongruent	Block1	incongruent/STIM_018.jpg
363.956	1.125	1	incongruent	Block1	incongruent/STIM_018.jpg
368.98	0.886	1	incongruent	Block1	incongruent/STIM_018.jpg
372.725	0.828	1	incongruent	Block1	incongruent/STIM_018.jpg
377.427	0.588	1	incongruent	Block1	incongruent/STIM_018.jpg
380.741	1.075	0	incongruent	Block1	incongruent/STIM_019.jpg
385.265	0.735	1	incongruent	Block1	incongruent/STIM_019.jpg
389.243	1.088	1	incongruent	Block1	incongruent/STIM_019.jpg
393.433	0.99	1	incongruent	Block1	incongruent/STIM_019.jpg
396.999	0.669	1	incongruent	Block1	incongruent/STIM_019.jpg
401.212	0.728	1	incongruent	Block1	incongruent/STIM_020.jpg
405.849	0.67	1	incongruent	Block1	incongruent/STIM_020.jpg
410.424	0.622	1	incongruent	Block1	incongruent/STIM_020.jpg
414.139	1.137	1	incongruent	Block1	incongruent/STIM_020.jpg
419.236	0.916	1	incongruent	Block1	incongruent/STIM_020.jpg
423.013	0.883	1	incongruent	Block1	incongruent/STIM_021.jpg
426.272	1.259	0	incongruent	Block1	incongruent/STIM_021.jpg
430.4	1.096	1	incongruent	Block1	incongruent/STIM_021.jpg
433.564	0.841	1	incongruent	Block1	incongruent/STIM_021.jpg
438.258	0.684	1	incongruent	Block1	incongruent/STIM_021.jpg
442.148	1.234	0	incongruent	Block1	incongruent/STIM_022.jpg
447.356	1.276	1	incongruent	Block1	incongruent/STIM_022.jpg
450.783	0.906	1	incongruent	Block1	incongruent/STIM_022.jpg
455.48	0.85	1	incongruent	Block1	incongruent/STIM_022.jpg
458.495	0.682	1	incongruent	Block1	incongruent/STIM_022.jpg
461.193	1.275	0	incongruent	Block1	incongruent/STIM_023.jpg
465.84	1.277	1	incongruent	Block1	incongruent/STIM_023.jpg
469.95	0.592	1	incongruent	Block1	incongruent/STIM_023.jpg
472.735	0.761	1	incongruent	Block1	incongruent/STIM_023.jpg
477.02	0.802	1	incongruent	Block1	incongruent/STIM_023.jpg
480.353	0.914	1	incongruent	Block1	incongruent/STIM_024.jpg
483.462	1.171	1	incongruent	Block1	incongruent/STIM_024.jpg
488.609	1.121	1	incongruent	Block1	incongruent/STIM_024.jpg
493.194	0.885	1	incongruent	Block1	incongruent/STIM_024.jpg
497.933	0.601	1	incongruent	Block1	incongruent/STIM_024.jpg
501.415	0.791	1	incongruent	Block1	incongruent/STIM_025.jpg
504.693	1.156	0	incongruent	Block1	incongruent/STIM_025.jpg
508.009	0.796	0	incongruent	Block1	incongruent/STIM_025.jpg
511.462	1.1	1	incongruent	Block1	incongruent/STIM_025.jpg
514.767	0.745	1	incongruent	Block1	incongruent/STIM_025.jpg
517.634	1.33	1	incongruent	Block1	incongruent/STIM_026.jpg
521.074	0.909	0	incongruent	Block1	incongruent/STIM_026.jpg
524.937	0.947	1	incongruent	Block1	incongruent/STIM_026.jpg
528.3	1.012	1	incongruent	Block1	incongruent/STIM_026.jpg
531.892	0.84	1	incongruent	Block1	incongruent/STIM_026.jpg
534.972	1.114	1	incongruent	Block1	incongruent/STIM_027.jpg
538.54	0.852	1	incongruent	Block1	incongruent/STIM_027.jpg
542.78	1.01	1	incongruent	Block1	incongruent/STIM_027.jpg
546.7	0.542	1	incongruent	Block1	incongruent/STIM_027.jpg
549.556	0.898	1	incongruent	Block1	incongruent/STIM_027.jpg
554.231	1.154	1	incongruent	Block1	incongruent/STIM_028.jpg
558.094	1.164	1	incongruent	Block1	incongruent/STIM_028.jpg
563.161	0.647	0	incongruent	Block1	incongruent/STIM_028.jpg
567.157	1.004	1	incongruent	Block1	incongruent/STIM_028.jpg
570.559	0.588	1	incongruent	Block1	incongruent/STIM_028.jpg
573.539	0.765	1	incongruent	Block1	incongruent/STIM_029.jpg
576.491	0.901	1	incongruent	Block1	incongruent/STIM_029.jpg
579.705	0.718	1	incongruent	Block1	incongruent/STIM_029.jpg
583.655	0.891	0	incongruent	Block1	incongruent/STIM_029.jpg
587.579	0.511	1	incongruent	Block1	incongruent/STIM_029.jpg
590.965	0.687	1	congruent	Block1	congruent/STIM_000.jpg
594.839	0.484	1	congruent	Block1	congruent/STIM_000.jpg
597.766	0.514	1	congruent	Block1	congruent/STIM_000.jpg
601.016	0.789	0	congruent	Block1	congruent/STIM_000.jpg
605.699	0.493	1	congruent	Block1	congruent/STIM_000.jpg
609.06	0.544	1	congruent	Block1	congruent/STIM_001.jpg
613.047	0.662	0	congruent	Block1	congruent/STIM_001.jpg
617.102	0.738	1	congruent	Block1	congruent/STIM_001.jpg
620.971	0.798	1	congruent	Block1	congruent/STIM_001.jpg
624.285	0.537	1	congruent	Block1	congruent/STIM_001.jpg
627.908	0.758	1	congruent	Block1	congruent/STIM_002.jpg
631.648	0.792	1	congruent	Block1	congruent/STIM_002.jpg
635.62	0.545	1	congruent	Block1	congruent/STIM_002.jpg
639.906	0.77	1	congruent	Block1	congruent/STIM_002.jpg
643.045	0.564	1	congruent	Block1	congruent/STIM_002.jpg
647.327	0.543	1	congruent	Block1	congruent/STIM_003.jpg
650.3	0.5	1	congruent	Block1	congruent/STIM_003.jpg
654.679	0.604	1	congruent	Block1	congruent/STIM_003.jpg
658.889	0.738	1	congruent	Block1	congruent/STIM_003.jpg
662.487	0.475	1	congruent	Block1	congruent/STIM_003.jpg
665.719	0.584	1	congruent	Block1	congruent/STIM_004.jpg
669.985	0.472	1	congruent	Block1	congruent/STIM_004.jpg
674.031	0.626	1	congruent	Block1	congruent/STIM_004.jpg
678.384	0.796	1	congruent	Block1	congruent/STIM_004.jpg
682.498	0.586	0	congruent	Block1	congruent/STIM_004.jpg
686.501	0.665	1	congruent	Block1	congruent/STIM_005.jpg
690.688	0.645	1	congruent	Block1	congruent/STIM_005.jpg
693.83	0.704	1	congruent	Block1	congruent/STIM_005.jpg
696.819	0.458	1	congruent	Block1	congruent/STIM_005.jpg
701.121	0.735	1	congruent	Block1	congruent/STIM_005.jpg
704.852	0.681	0	congruent	Block1	congruent/STIM_006.jpg
707.786	0.522	1	congruent	Block1	congruent/STIM_006.jpg
711.838	0.732	1	congruent	Block1	congruent/STIM_006.jpg
714.969	0.486	1	congruent	Block1	congruent/STIM_006.jpg
718.505	0.471	1	congruent	Block1	congruent/STIM_006.jpg
721.83	0.784	1	congruent	Block1	congruent/STIM_007.jpg
725.498	0.534	1	congruent	Block1	congruent/STIM_007.jpg
729.8	0.712	1	congruent	Block1	congruent/STIM_007.jpg
734.03	0.73	1	congruent	Block1	congruent/STIM_007.jpg
737.225	0.657	1	congruent	Block1	congruent/STIM_007.jpg
740.304	0.651	1	congruent	Block1	congruent/STIM_008.jpg
743.73	0.626	1	congruent	Block1	congruent/STIM_008.jpg
747.049	0.689	1	congruent	Block1	congruent/STIM_008.jpg
750.188	0.633	1	congruent	Block1	congruent/STIM_008.jpg
753.841	0.797	1	congruent	Block1	congruent/STIM_008.jpg
758.13	0.575	1	congruent	Block1	congruent/STIM_009.jpg
761.162	0.608	1	congruent	Block1	congruent/STIM_009.jpg
763.802	0.497	1	congruent	Block1	congruent/STIM_009.jpg
766.377	0.526	1	congruent	Block1	congruent/STIM_009.jpg
770.456	0.548	1	congruent	Block1	congruent/STIM_009.jpg
774.327	0.52	1	congruent	Block1	congruent/STIM_010.jpg
777.522	0.553	1	congruent	Block1	congruent/STIM_010.jpg
780.21	0.588	1	congruent	Block1	congruent/STIM_010.jpg
782.946	0.701	1	congruent	Block1	congruent/STIM_010.jpg
787.106	0.7	1	congruent	Block1	congruent/STIM_010.jpg
790.311	0.739	1	congruent	Block1	congruent/STIM_011.jpg
793.631	0.629	1	congruent	Block1	congruent/STIM_011.jpg
797.241	0.585	1	congruent	Block1	congruent/STIM_011.jpg
800.941	0.566	1	congruent	Block1	congruent/STIM_011.jpg
804.436	0.602	0	congruent	Block1	congruent/STIM_011.jpg
809.015	0.496	1	congruent	Block1	congruent/STIM_012.jpg
811.69	0.591	1	congruent	Block1	congruent/STIM_012.jpg
815.044	0.669	1	congruent	Block1	congruent/STIM_012.jpg
819.469	0.471	1	congruent	Block1	congruent/STIM_012.jpg
823.065	0.528	1	congruent	Block1	congruent/STIM_012.jpg
827.017	0.61	1	congruent	Block1	congruent/STIM_013.jpg
830.724	0.521	1	congruent	Block1	congruent/STIM_013.jpg
835.016	0.469	1	congruent	Block1	congruent/STIM_013.jpg
837.587	0.641	1	congruent	Block1	congruent/STIM_013.jpg
841.139	0.546	1	congruent	Block1	congruent/STIM_013.jpg
844.984	0.8	1	congruent	Block1	congruent/STIM_014.jpg
848.918	0.477	0	congruent	Block1	congruent/STIM_014.jpg
852.45	0.797	1	congruent	Block1	congruent/STIM_014.jpg
855.51	0.522	0	congruent	Block1	congruent/STIM_014.jpg
859.087	0.591	1	congruent	Block1	congruent/STIM_014.jpg
863.615	0.622	1	congruent	Block1	congruent/STIM_015.jpg
866.961	0.504	1	congruent	Block1	congruent/STIM_015.jpg
869.921	0.724	1	congruent	Block1	congruent/STIM_015.jpg
874.045	0.763	1	congruent	Block1	congruent/STIM_015.jpg
877.007	0.465	1	congruent	Block1	congruent/STIM_015.jpg
879.965	0.756	1	congruent	Block1	congruent/STIM_016.jpg
882.731	0.526	1	congruent	Block1	congruent/STIM_016.jpg
886.947	0.476	1	congruent	Block1	congruent/STIM_016.jpg
889.768	0.68	1	congruent	Block1	congruent/STIM_016.jpg
893.762	0.774	0	congruent	Block1	congruent/STIM_016.jpg
896.8	0.66	1	congruent	Block1	congruent/STIM_017.jpg
900.145	0.474	1	congruent	Block1	congruent/STIM_017.jpg
903.348	0.476	1	congruent	Block1	congruent/STIM_017.jpg
906.851	0.613	1	congruent	Block1	congruent/STIM_017.jpg
909.802	0.754	1	congruent	Block1	congruent/STIM_017.jpg
914.492	0.746	1	congruent	Block1	congruent/STIM_018.jpg
918.042	0.772	1	congruent	Block1	congruent/STIM_018.jpg
921.219	0.771	0	congruent	Block1	congruent/STIM_018.jpg
924.217	0.806	1	congruent	Block1	congruent/STIM_018.jpg
927.58	0.484	1	congruent	Block1	congruent/STIM_018.jpg
931.79	0.537	1	congruent	Block1	congruent/STIM_019.jpg
935.7	0.714	0	congruent	Block1	congruent/STIM_019.jpg
940.348	0.524	1	congruent	Block1	congruent/STIM_019.jpg
943.011	0.555	1	congruent	Block1	congruent/STIM_019.jpg
946.039	0.756	1	congruent	Block1	congruent/STIM_019.jpg
949.783	0.633	1	congruent	Block1	congruent/STIM_020.jpg
954.014	0.564	1	congruent	Block1	congruent/STIM_020.jpg
957.558	0.479	1	congruent	Block1	congruent/STIM_020.jpg
961.533	0.691	1	congruent	Block1	congruent/STIM_020.jpg
965.011	0.535	1	congruent	Block1	congruent/STIM_020.jpg
969.154	0.498	1	congruent	Block1	congruent/STIM_021.jpg
972.534	0.71	1	congruent	Block1	congruent/STIM_021.jpg
975.354	0.813	1	congruent	Block1	congruent/STIM_021.jpg
979.899	0.731	1	congruent	Block1	congruent/STIM_021.jpg
982.782	0.643	1	congruent	Block1	congruent/STIM_021.jpg
986.775	0.806	1	congruent	Block1	congruent/STIM_022.jpg
990.382	0.692	1	congruent	Block1	congruent/STIM_022.jpg
994.444	0.466	1	congruent	Block1	congruent/STIM_022.jpg
996.99	0.794	1	congruent	Block1	congruent/STIM_022.jpg
1000.829	0.48	1	congruent	Block1	congruent/STIM_022.jpg
1003.428	0.737	1	congruent	Block1	congruent/STIM_023.jpg
1007.45	0.628	1	congruent	Block1	congruent/STIM_023.jpg
1010.282	0.595	1	congruent	Block1	congruent/STIM_023.jpg
1013.659	0.496	1	congruent	Block1	congruent/STIM_023.jpg
1016.995	0.661	1	congruent	Block1	congruent/STIM_023.jpg
1020.484	0.489	1	congruent	Block1	congruent/STIM_024.jpg
1024.432	0.63	1	congruent	Block1	congruent/STIM_024.jpg
1028.979	0.74	1	congruent	Block1	congruent/STIM_024.jpg
1032.601	0.494	1	congruent	Block1	congruent/STIM_024.jpg
1035.284	0.712	1	congruent	Block1	congruent/STIM_024.jpg
1039.311	0.513	0	congruent	Block1	congruent/STIM_025.jpg
1043.703	0.759	1	congruent	Block1	congruent/STIM_025.jpg
1046.739	0.476	1	congruent	Block1	congruent/STIM_025.jpg
1050.563	0.659	1	congruent	Block1	congruent/STIM_025.jpg
1053.787	0.772	1	congruent	Block1	congruent/STIM_025.jpg
1057.612	0.554	1	congruent	Block1	congruent/STIM_026.jpg
1061.212	0.601	1	congruent	Block1	congruent/STIM_026.jpg
1065.176	0.6	1	congruent	Block1	congruent/STIM_026.jpg
1069.298	0.588	1	congruent	Block1	congruent/STIM_026.jpg
1072.64	0.588	1	congruent	Block1	congruent/STIM_026.jpg
1075.374	0.554	1	congruent	Block1	congruent/STIM_027.jpg
1079.22	0.478	1	congruent	Block1	congruent/STIM_027.jpg
1081.988	0.621	1	congruent	Block1	congruent/STIM_027.jpg
1086.089	0.576	1	congruent	Block1	congruent/STIM_027.jpg
1089.552	0.673	1	congruent	Block1	congruent/STIM_027.jpg
1093.491	0.46	1	congruent	Block1	congruent/STIM_028.jpg
1096.432	0.796	1	congruent	Block1	congruent/STIM_028.jpg
1099.987	0.61	1	congruent	Block1	congruent/STIM_028.jpg
1102.953	0.66	0	congruent	Block1	congruent/STIM_028.jpg
1105.93	0.601	1	congruent	Block1	congruent/STIM_028.jpg
1109.17	0.473	1	congruent	Block1	congruent/STIM_029.jpg
1112.586	0.68	1	congruent	Block1	congruent/STIM_029.jpg
1116.374	0.652	1	congruent	Block1	congruent/STIM_029.jpg
1119.707	0.71	1	congruent	Block1	congruent/STIM_029.jpg
1123.898	0.689	1	congruent	Block1	congruent/STIM_029.jpg
1127.626	1.124	1	incongruent	Block2	incongruent/STIM_000.jpg
1132.004	0.992	1	incongruent	Block2	incongruent/STIM_000.jpg
1135.637	0.96	1	incongruent	Block2	incongruent/STIM_000.jpg
1139.567	0.59	1	incongruent	Block2	incongruent/STIM_000.jpg
1143.751	0.761	1	incongruent	Block2	incongruent/STIM_000.jpg
1146.722	0.74	1	incongruent	Block2	incongruent/STIM_001.jpg
1149.947	1.019	1	incongruent	Block2	incongruent/STIM_001.jpg
1154.165	0.8	1	incongruent	Block2	incongruent/STIM_001.jpg
1157.435	0.838	1	incongruent	Block2	incongruent/STIM_001.jpg
1161.271	0.786	1	incongruent	Block2	incongruent/STIM_001.jpg
1165.08	0.853	1	incongruent	Block2	incongruent/STIM_002.jpg
1169.738	0.726	1	incongruent	Block2	incongruent/STIM_002.jpg
1174.337	0.896	1	incongruent	Block2	incongruent/STIM_002.jpg
1177.517	0.495	1	incongruent	Block2	incongruent/STIM_002.jpg
1180.627	0.817	1	incongruent	Block2	incongruent/STIM_002.jpg
1183.495	1.154	1	incongruent	Block2	incongruent/STIM_003.jpg
1186.707	0.557	1	incongruent	Block2	incongruent/STIM_003.jpg
1190.962	0.879	1	incongruent	Block2	incongruent/STIM_003.jpg
1195.662	0.669	1	incongruent	Block2	incongruent/STIM_003.jpg
1200.146	0.841	1	incongruent	Block2	incongruent/STIM_003.jpg
1203.604	0.935	1	incongruent	Block2	incongruent/STIM_004.jpg
1207.931	0.674	0	incongruent	Block2	incongruent/STIM_004.jpg
1212.097	0.702	1	incongruent	Block2	incongruent/STIM_004.jpg
1214.817	0.859	1	incongruent	Block2	incongruent/STIM_004.jpg
1218.188	0.9	1	incongruent	Block2	incongruent/STIM_004.jpg
1222.988	1.012	1	incongruent	Block2	incongruent/STIM_005.jpg
1226.472	0.884	1	incongruent	Block2	incongruent/STIM_005.jpg
1231.267	0.751	0	incongruent	Block2	incongruent/STIM_005.jpg
1235.98	0.751	1	incongruent	Block2	incongruent/STIM_005.jpg
1239.939	0.524	1	incongruent	Block2	incongruent/STIM_005.jpg
1243.364	0.554	1	incongruent	Block2	incongruent/STIM_006.jpg
1247.796	0.881	1	incongruent	Block2	incongruent/STIM_006.jpg
1251.501	0.82	1	incongruent	Block2	incongruent/STIM_006.jpg
1256.082	0.463	1	incongruent	Block2	incongruent/STIM_006.jpg
1259.111	0.514	1	incongruent	Block2	incongruent/STIM_006.jpg
1263.089	0.605	0	incongruent	Block2	incongruent/STIM_007.jpg
1265.808	0.94	1	incongruent	Block2	incongruent/STIM_007.jpg
1270.687	0.925	1	incongruent	Block2	incongruent/STIM_007.jpg
1273.999	0.694	1	incongruent	Block2	incongruent/STIM_007.jpg
1277.629	0.918	1	incongruent	Block2	incongruent/STIM_007.jpg
1282.318	0.691	1	incongruent	Block2	incongruent/STIM_008.jpg
1285.65	0.574	0	incongruent	Block2	incongruent/STIM_008.jpg
1289.188	0.7	1	incongruent	Block2	incongruent/STIM_008.jpg
1293.621	0.773	1	incongruent	Block2	incongruent/STIM_008.jpg
1297.433	0.607	1	incongruent	Block2	incongruent/STIM_008.jpg
1300.232	0.722	1	incongruent	Block2	incongruent/STIM_009.jpg
1304.894	1.049	1	incongruent	Block2	incongruent/STIM_009.jpg
1309.557	0.786	1	incongruent	Block2	incongruent/STIM_009.jpg
1312.435	0.865	1	incongruent	Block2	incongruent/STIM_009.jpg
1315.736	0.707	1	incongruent	Block2	incongruent/STIM_009.jpg
1318.9	1.057	1	incongruent	Block2	incongruent/STIM_010.jpg
1322.211	0.53	1	incongruent	Block2	incongruent/STIM_010.jpg
1324.944	0.762	1	incongruent	Block2	incongruent/STIM_010.jpg
1329.68	0.563	0	incongruent	Block2	incongruent/STIM_010.jpg
1332.495	0.544	1	incongruent	Block2	incongruent/STIM_010.jpg
1335.567	0.977	1	incongruent	Block2	incongruent/STIM_011.jpg
1339.131	0.621	1	incongruent	Block2	incongruent/STIM_011.jpg
1343.274	0.831	1	incongruent	Block2	incongruent/STIM_011.jpg
1346.154	0.68	1	incongruent	Block2	incongruent/STIM_011.jpg
1350.65	0.62	1	incongruent	Block2	incongruent/STIM_011.jpg
1353.306	0.696	1	incongruent	Block2	incongruent/STIM_012.jpg
1356.472	0.709	1	incongruent	Block2	incongruent/STIM_012.jpg
1359.446	0.662	0	incongruent	Block2	incongruent/STIM_012.jpg
1362.805	0.864	1	incongruent	Block2	incongruent/STIM_012.jpg
1366.946	0.583	1	incongruent	Block2	incongruent/STIM_012.jpg
1369.55	0.76	1	incongruent	Block2	incongruent/STIM_013.jpg
1373.29	0.658	1	incongruent	Block2	incongruent/STIM_013.jpg
1376.939	0.693	1	incongruent	Block2	incongruent/STIM_013.jpg
1380.512	0.584	1	incongruent	Block2	incongruent/STIM_013.jpg
1383.609	0.83	1	incongruent	Block2	incongruent/STIM_013.jpg
1388.03	0.764	1	incongruent	Block2	incongruent/STIM_014.jpg
1391.659	0.624	1	incongruent	Block2	incongruent/STIM_014.jpg
1396.011	0.63	1	incongruent	Block2	incongruent/STIM_014.jpg
1400.29	0.712	1	incongruent	Block2	incongruent/STIM_014.jpg
1404.433	0.842	1	incongruent	Block2	incongruent/STIM_014.jpg
1408.459	1.056	1	incongruent	Block2	incongruent/STIM_015.jpg
1412.741	1.018	1	incongruent	Block2	incongruent/STIM_015.jpg
1416.053	0.558	1	incongruent	Block2	incongruent/STIM_015.jpg
1420.297	0.722	1	incongruent	Block2	incongruent/STIM_015.jpg
1424.91	0.819	1	incongruent	Block2	incongruent/STIM_015.jpg
1428.172	0.681	0	incongruent	Block2	incongruent/STIM_016.jpg
1431.281	0.602	1	incongruent	Block2	incongruent/STIM_016.jpg
1435.297	0.582	1	incongruent	Block2	incongruent/STIM_016.jpg
1439.099	0.465	1	incongruent	Block2	incongruent/STIM_016.jpg
1441.928	0.788	1	incongruent	Block2	incongruent/STIM_016.jpg
1446.094	0.837	1	incongruent	Block2	incongruent/STIM_017.jpg
1449.542	0.759	1	incongruent	Block2	incongruent/STIM_017.jpg
1453.911	0.635	1	incongruent	Block2	incongruent/STIM_017.jpg
1457.409	0.451	1	incongruent	Block2	incongruent/STIM_017.jpg
1460.874	0.459	1	incongruent	Block2	incongruent/STIM_017.jpg
1464.619	1.074	1	incongruent	Block2	incongruent/STIM_018.jpg
1468.71	0.843	1	incongruent	Block2	incongruent/STIM_018.jpg
1472.056	0.599	1	incongruent	Block2	incongruent/STIM_018.jpg
1476.183	0.665	1	incongruent	Block2	incongruent/STIM_018.jpg
1479.93	0.528	1	incongruent	Block2	incongruent/STIM_018.jpg
1483.105	0.638	1	incongruent	Block2	incongruent/STIM_019.jpg
1487.139	0.711	0	incongruent	Block2	incongruent/STIM_019.jpg
1491.157	0.865	1	incongruent	Block2	incongruent/STIM_019.jpg
1495.77	0.542	0	incongruent	Block2	incongruent/STIM_019.jpg
1498.839	0.818	1	incongruent	Block2	incongruent/STIM_019.jpg
1502.424	1.133	1	incongruent	Block2	incongruent/STIM_020.jpg
1507.334	0.767	1	incongruent	Block2	incongruent/STIM_020.jpg
1510.59	0.535	1	incongruent	Block2	incongruent/STIM_020.jpg
1514.297	0.501	1	incongruent	Block2	incongruent/STIM_020.jpg
1518.029	0.822	1	incongruent	Block2	incongruent/STIM_020.jpg
1522.166	1.038	1	incongruent	Block2	incongruent/STIM_021.jpg
1526.008	0.639	1	incongruent	Block2	incongruent/STIM_021.jpg
1528.734	0.685	0	incongruent	Block2	incongruent/STIM_021.jpg
1531.994	0.629	1	incongruent	Block2	incongruent/STIM_021.jpg
1535.278	0.549	1	incongruent	Block2	incongruent/STIM_021.jpg
1538.122	0.924	1	incongruent	Block2	incongruent/STIM_022.jpg
1542.688	1.082	1	incongruent	Block2	incongruent/STIM_022.jpg
1547.569	0.938	1	incongruent	Block2	incongruent/STIM_022.jpg
1550.685	0.65	1	incongruent	Block2	incongruent/STIM_022.jpg
1553.532	0.684	1	incongruent	Block2	incongruent/STIM_022.jpg
1557.215	1.029	1	incongruent	Block2	incongruent/STIM_023.jpg
1561.659	0.761	1	incongruent	Block2	incongruent/STIM_023.jpg
1565.143	0.967	1	incongruent	Block2	incongruent/STIM_023.jpg
1568.681	0.914	1	incongruent	Block2	incongruent/STIM_023.jpg
1572.454	0.704	1	incongruent	Block2	incongruent/STIM_023.jpg
1576.643	0.913	0	incongruent	Block2	incongruent/STIM_024.jpg
1580.44	0.959	1	incongruent	Block2	incongruent/STIM_024.jpg
1584.181	0.609	1	incongruent	Block2	incongruent/STIM_024.jpg
1586.872	0.538	1	incongruent	Block2	incongruent/STIM_024.jpg
1590.431	0.73	1	incongruent	Block2	incongruent/STIM_024.jpg
1595.063	0.956	1	incongruent	Block2	incongruent/STIM_025.jpg
1598.259	0.756	1	incongruent	Block2	incongruent/STIM_025.jpg
1601.661	0.52	0	incongruent	Block2	incongruent/STIM_025.jpg
1604.627	0.832	1	incongruent	Block2	incongruent/STIM_025.jpg
1608.986	0.591	1	incongruent	Block2	incongruent/STIM_025.jpg
1611.619	1.01	1	incongruent	Block2	incongruent/STIM_026.jpg
1615.129	0.743	0	incongruent	Block2	incongruent/STIM_026.jpg
1619.56	0.802	1	incongruent	Block2	incongruent/STIM_026.jpg
1622.99	0.541	1	incongruent	Block2	incongruent/STIM_026.jpg
1627.238	0.618	1	incongruent	Block2	incongruent/STIM_026.jpg
1630.469	0.899	1	incongruent	Block2	incongruent/STIM_027.jpg
1635.069	0.522	1	incongruent	Block2	incongruent/STIM_027.jpg
1637.856	0.588	1	incongruent	Block2	incongruent/STIM_027.jpg
1642.297	0.889	1	incongruent	Block2	incongruent/STIM_027.jpg
1646.984	0.638	1	incongruent	Block2	incongruent/STIM_027.jpg
1650.205	0.578	1	incongruent	Block2	incongruent/STIM_028.jpg
1654.172	0.832	1	incongruent	Block2	incongruent/STIM_028.jpg
1657.705	0.766	1	incongruent	Block2	incongruent/STIM_028.jpg
1660.752	0.891	1	incongruent	Block2	incongruent/STIM_028.jpg
1664.994	0.948	1	incongruent	Block2	incongruent/STIM_028.jpg
1669.74	1.003	1	incongruent	Block2	incongruent/STIM_029.jpg
1673.943	0.583	1	incongruent	Block2	incongruent/STIM_029.jpg
1677.545	0.638	1	incongruent	Block2	incongruent/STIM_029.jpg
1681.15	0.49	1	incongruent	Block2	incongruent/STIM_029.jpg
1685.36	0.654	1	incongruent	Block2	incongruent/STIM_029.jpg
1689.633	0.772	1	congruent	Block2	congruent/STIM_000.jpg
1693.203	0.715	1	congruent	Block2	congruent/STIM_000.jpg
1697.668	0.796	0	congruent	Block2	congruent/STIM_000.jpg
1700.756	0.596	1	congruent	Block2	congruent/STIM_000.jpg
1703.478	0.718	1	congruent	Block2	congruent/STIM_000.jpg
1706.296	0.776	1	congruent	Block2	congruent/STIM_001.jpg
1709.963	0.603	1	congruent	Block2	congruent/STIM_001.jpg
1712.602	0.711	1	congruent	Block2	congruent/STIM_001.jpg
1716.436	0.666	1	congruent	Block2	congruent/STIM_001.jpg
1721.023	0.635	1	congruent	Block2	congruent/STIM_001.jpg
1724.705	0.521	1	congruent	Block2	congruent/STIM_002.jpg
1727.712	0.7	1	congruent	Block2	congruent/STIM_002.jpg
1732.217	0.496	1	congruent	Block2	congruent/STIM_002.jpg
1736.562	0.564	1	congruent	Block2	congruent/STIM_002.jpg
1741.104	0.654	1	congruent	Block2	congruent/STIM_002.jpg
1745.06	0.486	1	congruent	Block2	congruent/STIM_003.jpg
1747.791	0.738	1	congruent	Block2	congruent/STIM_003.jpg
1750.704	0.564	1	congruent	Block2	congruent/STIM_003.jpg
1753.664	0.654	1	congruent	Block2	congruent/STIM_003.jpg
1756.553	0.748	1	congruent	Block2	congruent/STIM_003.jpg
1760.541	0.505	1	congruent	Block2	congruent/STIM_004.jpg
1763.06	0.617	1	congruent	Block2	congruent/STIM_004.jpg
1767.39	0.487	1	congruent	Block2	congruent/STIM_004.jpg
1769.986	0.498	1	congruent	Block2	congruent/STIM_004.jpg
1772.727	0.536	1	congruent	Block2	congruent/STIM_004.jpg
1775.59	0.75	1	congruent	Block2	congruent/STIM_005.jpg
1779.714	0.66	1	congruent	Block2	congruent/STIM_005.jpg
1784.028	0.579	1	congruent	Block2	congruent/STIM_005.jpg
1787.202	0.711	1	congruent	Block2	congruent/STIM_005.jpg
1791.7	0.481	1	congruent	Block2	congruent/STIM_005.jpg
1794.643	0.547	1	congruent	Block2	congruent/STIM_006.jpg
1797.426	0.568	1	congruent	Block2	congruent/STIM_006.jpg
1800.354	0.736	1	congruent	Block2	congruent/STIM_006.jpg
1803.811	0.665	1	congruent	Block2	congruent/STIM_006.jpg
1806.726	0.553	0	congruent	Block2	congruent/STIM_006.jpg
1810.806	0.5	0	congruent	Block2	congruent/STIM_007.jpg
1815.068	0.532	1	congruent	Block2	congruent/STIM_007.jpg
1819.394	0.718	1	congruent	Block2	congruent/STIM_007.jpg
1823.748	0.682	1	congruent	Block2	congruent/STIM_007.jpg
1827.03	0.525	1	congruent	Block2	congruent/STIM_007.jpg
1829.643	0.616	1	congruent	Block2	congruent/STIM_008.jpg
1833.07	0.454	1	congruent	Block2	congruent/STIM_008.jpg
1836.525	0.713	1	congruent	Block2	congruent/STIM_008.jpg
1840.478	0.575	1	congruent	Block2	congruent/STIM_008.jpg
1843.11	0.685	1	congruent	Block2	congruent/STIM_008.jpg
1845.807	0.486	1	congruent	Block2	congruent/STIM_009.jpg
1849.364	0.515	1	congruent	Block2	congruent/STIM_009.jpg
1852.536	0.52	1	congruent	Block2	congruent/STIM_009.jpg
1856.04	0.754	1	congruent	Block2	congruent/STIM_009.jpg
1860.46	0.695	1	congruent	Block2	congruent/STIM_009.jpg
1864.6	0.755	1	congruent	Block2	congruent/STIM_010.jpg
1869.14	0.608	1	congruent	Block2	congruent/STIM_010.jpg
1872.522	0.796	1	congruent	Block2	congruent/STIM_010.jpg
1877.257	0.647	1	congruent	Block2	congruent/STIM_010.jpg
1880.962	0.504	1	congruent	Block2	congruent/STIM_010.jpg
1885.074	0.8	1	congruent	Block2	congruent/STIM_011.jpg
1889.143	0.747	0	congruent	Block2	congruent/STIM_011.jpg
1892.707	0.579	1	congruent	Block2	congruent/STIM_011.jpg
1895.988	0.459	1	congruent	Block2	congruent/STIM_011.jpg
1900.446	0.626	1	congruent	Block2	congruent/STIM_011.jpg
1904.699	0.753	1	congruent	Block2	congruent/STIM_012.jpg
1908.928	0.661	1	congruent	Block2	congruent/STIM_012.jpg
1913.297	0.775	1	congruent	Block2	congruent/STIM_012.jpg
1917.464	0.751	1	congruent	Block2	congruent/STIM_012.jpg
1922.143	0.532	1	congruent	Block2	congruent/STIM_012.jpg
1924.767	0.494	1	congruent	Block2	congruent/STIM_013.jpg
1928.016	0.616	1	congruent	Block2	congruent/STIM_013.jpg
1930.853	0.742	1	congruent	Block2	congruent/STIM_013.jpg
1935.342	0.654	1	congruent	Block2	congruent/STIM_013.jpg
1938.555	0.604	0	congruent	Block2	congruent/STIM_013.jpg
1942.559	0.742	1	congruent	Block2	congruent/STIM_014.jpg
1947.234	0.731	1	congruent	Block2	congruent/STIM_014.jpg
1950.681	0.5	1	congruent	Block2	congruent/STIM_014.jpg
1954.452	0.642	1	congruent	Block2	congruent/STIM_014.jpg
1957.467	0.797	1	congruent	Block2	congruent/STIM_014.jpg
1961.007	0.562	1	congruent	Block2	congruent/STIM_015.jpg
1964.591	0.81	1	congruent	Block2	congruent/STIM_015.jpg
1969.211	0.594	1	congruent	Block2	congruent/STIM_015.jpg
1972.72	0.76	1	congruent	Block2	congruent/STIM_015.jpg
1976.048	0.61	1	congruent	Block2	congruent/STIM_015.jpg
1979.694	0.574	1	congruent	Block2	congruent/STIM_016.jpg
1983.595	0.648	0	congruent	Block2	congruent/STIM_016.jpg
1986.667	0.805	1	congruent	Block2	congruent/STIM_016.jpg
1989.851	0.614	1	congruent	Block2	congruent/STIM_016.jpg
1993.809	0.546	1	congruent	Block2	congruent/STIM_016.jpg
1996.562	0.681	1	congruent	Block2	congruent/STIM_017.jpg
2000.593	0.518	1	congruent	Block2	congruent/STIM_017.jpg
2003.44	0.659	1	congruent	Block2	congruent/STIM_017.jpg
2006.659	0.467	0	congruent	Block2	congruent/STIM_017.jpg
2010.067	0.547	1	congruent	Block2	congruent/STIM_017.jpg
2013.754	0.639	1	congruent	Block2	congruent/STIM_018.jpg
2016.742	0.713	1	congruent	Block2	congruent/STIM_018.jpg
2021.183	0.458	1	congruent	Block2	congruent/STIM_018.jpg
2024.205	0.509	1	congruent	Block2	congruent/STIM_018.jpg
2027.663	0.679	1	congruent	Block2	congruent/STIM_018.jpg
2032.324	0.501	1	congruent	Block2	congruent/STIM_019.jpg
2036.763	0.673	1	congruent	Block2	congruent/STIM_019.jpg
2040.12	0.64	1	congruent	Block2	congruent/STIM_019.jpg
2042.874	0.548	1	congruent	Block2	congruent/STIM_019.jpg
2046.18	0.664	1	congruent	Block2	congruent/STIM_019.jpg
2049.804	0.612	1	congruent	Block2	congruent/STIM_020.jpg
2054.382	0.652	1	congruent	Block2	congruent/STIM_020.jpg
2058.301	0.676	1	congruent	Block2	congruent/STIM_020.jpg
2062.922	0.553	1	congruent	Block2	congruent/STIM_020.jpg
2065.704	0.525	1	congruent	Block2	congruent/STIM_020.jpg
2069.733	0.658	1	congruent	Block2	congruent/STIM_021.jpg
2074.348	0.535	1	congruent	Block2	congruent/STIM_021.jpg
2076.892	0.572	1	congruent	Block2	congruent/STIM_021.jpg
2080.977	0.707	1	congruent	Block2	congruent/STIM_021.jpg
2083.693	0.498	1	congruent	Block2	congruent/STIM_021.jpg
2087.163	0.704	1	congruent	Block2	congruent/STIM_022.jpg
2090.211	0.615	1	congruent	Block2	congruent/STIM_022.jpg
2093.701	0.589	1	congruent	Block2	congruent/STIM_022.jpg
2096.576	0.812	1	congruent	Block2	congruent/STIM_022.jpg
2100.617	0.689	1	congruent	Block2	congruent/STIM_022.jpg
2105.256	0.738	1	congruent	Block2	congruent/STIM_023.jpg
2109.19	0.562	1	congruent	Block2	congruent/STIM_023.jpg
2113.529	0.677	1	congruent	Block2	congruent/STIM_023.jpg
2116.353	0.594	1	congruent	Block2	congruent/STIM_023.jpg
2119.736	0.655	1	congruent	Block2	congruent/STIM_023.jpg
2122.718	0.552	1	congruent	Block2	congruent/STIM_024.jpg
2126.705	0.602	1	congruent	Block2	congruent/STIM_024.jpg
2129.448	0.706	1	congruent	Block2	congruent/STIM_024.jpg
2132.983	0.672	1	congruent	Block2	congruent/STIM_024.jpg
2136.732	0.566	1	congruent	Block2	congruent/STIM_024.jpg
2140.27	0.544	1	congruent	Block2	congruent/STIM_025.jpg
2144.501	0.724	1	congruent	Block2	congruent/STIM_025.jpg
2149.115	0.529	1	congruent	Block2	congruent/STIM_025.jpg
2151.811	0.77	1	congruent	Block2	congruent/STIM_025.jpg
2154.97	0.463	1	congruent	Block2	congruent/STIM_025.jpg
2158.361	0.575	1	congruent	Block2	congruent/STIM_026.jpg
2162.847	0.595	1	congruent	Block2	congruent/STIM_026.jpg
2166.95	0.562	1	congruent	Block2	congruent/STIM_026.jpg
2171.2	0.506	1	congruent	Block2	congruent/STIM_026.jpg
2175.294	0.746	1	congruent	Block2	congruent/STIM_026.jpg
2179.757	0.638	1	congruent	Block2	congruent/STIM_027.jpg
2184.342	0.48	0	congruent	Block2	congruent/STIM_027.jpg
2186.846	0.62	1	congruent	Block2	congruent/STIM_027.jpg
2190.325	0.499	1	congruent	Block2	congruent/STIM_027.jpg
2193.252	0.588	1	congruent	Block2	congruent/STIM_027.jpg
2196.364	0.65	0	congruent	Block2	congruent/STIM_028.jpg
2200.753	0.476	1	congruent	Block2	congruent/STIM_028.jpg
2204.414	0.718	1	congruent	Block2	congruent/STIM_028.jpg
2207.302	0.486	1	congruent	Block2	congruent/STIM_028.jpg
2210.439	0.711	1	congruent	Block2	congruent/STIM_028.jpg
2213.883	0.76	1	congruent	Block2	congruent/STIM_029.jpg
2218.614	0.774	1	congruent	Block2	congruent/STIM_029.jpg
2222.863	0.742	1	congruent	Block2	congruent/STIM_029.jpg
2226.48	0.475	1	congruent	Block2	congruent/STIM_029.jpg
2229.999	0.474	1	congruent	Block2	congruent/STIM_029.jpg
2232.913	0.892	1	incongruent	Block3	incongruent/STIM_000.jpg
2235.883	0.934	1	incongruent	Block3	incongruent/STIM_000.jpg
2239.747	0.737	1	incongruent	Block3	incongruent/STIM_000.jpg
2243.923	0.716	1	incongruent	Block3	incongruent/STIM_000.jpg
2246.684	0.723	1	incongruent	Block3	incongruent/STIM_000.jpg
2249.424	0.894	1	incongruent	Block3	incongruent/STIM_001.jpg
2253.832	0.769	1	incongruent	Block3	incongruent/STIM_001.jpg
2257.247	0.752	1	incongruent	Block3	incongruent/STIM_001.jpg
2261.537	0.489	1	incongruent	Block3	incongruent/STIM_001.jpg
2264.411	0.853	1	incongruent	Block3	incongruent/STIM_001.jpg
2269.081	0.844	1	incongruent	Block3	incongruent/STIM_002.jpg
2273.628	0.589	1	incongruent	Block3	incongruent/STIM_002.jpg
2277.095	0.824	1	incongruent	Block3	incongruent/STIM_002.jpg
2280.672	0.917	1	incongruent	Block3	incongruent/STIM_002.jpg
2284.352	0.907	1	incongruent	Block3	incongruent/STIM_002.jpg
2287.722	0.639	1	incongruent	Block3	incongruent/STIM_003.jpg
2291.998	0.719	1	incongruent	Block3	incongruent/STIM_003.jpg
2296.202	0.947	1	incongruent	Block3	incongruent/STIM_003.jpg
2300.618	0.848	1	incongruent	Block3	incongruent/STIM_003.jpg
2304.213	0.686	1	incongruent	Block3	incongruent/STIM_003.jpg
2306.964	0.95	1	incongruent	Block3	incongruent/STIM_004.jpg
2310.982	0.655	1	incongruent	Block3	incongruent/STIM_004.jpg
2314.805	0.862	1	incongruent	Block3	incongruent/STIM_004.jpg
2318.484	0.937	1	incongruent	Block3	incongruent/STIM_004.jpg
2323.382	0.551	1	incongruent	Block3	incongruent/STIM_004.jpg
2326.77	0.818	1	incongruent	Block3	incongruent/STIM_005.jpg
2329.658	0.753	1	incongruent	Block3	incongruent/STIM_005.jpg
2334.101	0.601	1	incongruent	Block3	incongruent/STIM_005.jpg
2338.615	0.831	1	incongruent	Block3	incongruent/STIM_005.jpg
2342.885	0.776	1	incongruent	Block3	incongruent/STIM_005.jpg
2346.201	0.705	0	incongruent	Block3	incongruent/STIM_006.jpg
2349.091	0.493	1	incongruent	Block3	incongruent/STIM_006.jpg
2353.427	0.807	1	incongruent	Block3	incongruent/STIM_006.jpg
2358.093	0.789	1	incongruent	Block3	incongruent/STIM_006.jpg
2361.335	0.944	1	incongruent	Block3	incongruent/STIM_006.jpg
2365.539	0.463	0	incongruent	Block3	incongruent/STIM_007.jpg
2369.031	0.652	1	incongruent	Block3	incongruent/STIM_007.jpg
2372.903	0.751	1	incongruent	Block3	incongruent/STIM_007.jpg
2377.219	0.945	1	incongruent	Block3	incongruent/STIM_007.jpg
2381.79	0.918	1	incongruent	Block3	incongruent/STIM_007.jpg
2386.683	0.704	1	incongruent	Block3	incongruent/STIM_008.jpg
2390.716	0.633	1	incongruent	Block3	incongruent/STIM_008.jpg
2394.621	0.874	1	incongruent	Block3	incongruent/STIM_008.jpg
2398.75	0.52	1	incongruent	Block3	incongruent/STIM_008.jpg
2402.453	0.929	1	incongruent	Block3	incongruent/STIM_008.jpg
2407.237	0.814	1	incongruent	Block3	incongruent/STIM_009.jpg
2411.21	0.912	1	incongruent	Block3	incongruent/STIM_009.jpg
2414.34	0.775	1	incongruent	Block3	incongruent/STIM_009.jpg
2418.009	0.717	1	incongruent	Block3	incongruent/STIM_009.jpg
2420.808	0.934	1	incongruent	Block3	incongruent/STIM_009.jpg
2424.104	0.749	1	incongruent	Block3	incongruent/STIM_010.jpg
2427.44	0.467	1	incongruent	Block3	incongruent/STIM_010.jpg
2430.991	0.733	1	incongruent	Block3	incongruent/STIM_010.jpg
2434.686	0.5	1	incongruent	Block3	incongruent/STIM_010.jpg
2437.316	0.894	1	incongruent	Block3	incongruent/STIM_010.jpg
2440.771	0.691	1	incongruent	Block3	incongruent/STIM_011.jpg
2444.756	0.455	1	incongruent	Block3	incongruent/STIM_011.jpg
2447.364	0.552	1	incongruent	Block3	incongruent/STIM_011.jpg
2450.517	0.95	1	incongruent	Block3	incongruent/STIM_011.jpg
2455.276	0.682	1	incongruent	Block3	incongruent/STIM_011.jpg
2458.108	0.86	1	incongruent	Block3	incongruent/STIM_012.jpg
2461.857	0.688	1	incongruent	Block3	incongruent/STIM_012.jpg
2465.107	0.491	1	incongruent	Block3	incongruent/STIM_012.jpg
2468.641	0.613	1	incongruent	Block3	incongruent/STIM_012.jpg
2471.866	0.794	1	incongruent	Block3	incongruent/STIM_012.jpg
2474.962	0.607	1	incongruent	Block3	incongruent/STIM_013.jpg
2477.76	0.501	1	incongruent	Block3	incongruent/STIM_013.jpg
2482.148	0.731	1	incongruent	Block3	incongruent/STIM_013.jpg
2485.966	0.857	1	incongruent	Block3	incongruent/STIM_013.jpg
2490.755	0.756	1	incongruent	Block3	incongruent/STIM_013.jpg
2495.206	0.765	1	incongruent	Block3	incongruent/STIM_014.jpg
2499.132	0.725	1	incongruent	Block3	incongruent/STIM_014.jpg
2501.888	0.517	1	incongruent	Block3	incongruent/STIM_014.jpg
2504.809	0.612	1	incongruent	Block3	incongruent/STIM_014.jpg
2508.395	0.878	1	incongruent	Block3	incongruent/STIM_014.jpg
2512.326	0.58	1	incongruent	Block3	incongruent/STIM_015.jpg
2515.64	0.848	1	incongruent	Block3	incongruent/STIM_015.jpg
2519.478	0.633	1	incongruent	Block3	incongruent/STIM_015.jpg
2522.428	0.704	1	incongruent	Block3	incongruent/STIM_015.jpg
2527.064	0.624	1	incongruent	Block3	incongruent/STIM_015.jpg
2530.173	0.489	1	incongruent	Block3	incongruent/STIM_016.jpg
2533.7	0.752	1	incongruent	Block3	incongruent/STIM_016.jpg
2538.142	0.559	1	incongruent	Block3	incongruent/STIM_016.jpg
2542.026	0.941	1	incongruent	Block3	incongruent/STIM_016.jpg
2546.552	0.69	1	incongruent	Block3	incongruent/STIM_016.jpg
2551.071	0.873	1	incongruent	Block3	incongruent/STIM_017.jpg
2555.639	0.486	1	incongruent	Block3	incongruent/STIM_017.jpg
2558.774	0.839	1	incongruent	Block3	incongruent/STIM_017.jpg
2563.358	0.491	1	incongruent	Block3	incongruent/STIM_017.jpg
2566.753	0.485	1	incongruent	Block3	incongruent/STIM_017.jpg
2569.823	0.95	1	incongruent	Block3	incongruent/STIM_018.jpg
2573.933	0.7	1	incongruent	Block3	incongruent/STIM_018.jpg
2576.703	0.638	1	incongruent	Block3	incongruent/STIM_018.jpg
2580.736	0.686	1	incongruent	Block3	incongruent/STIM_018.jpg
2585.333	0.5	1	incongruent	Block3	incongruent/STIM_018.jpg
2589.541	0.634	1	incongruent	Block3	incongruent/STIM_019.jpg
2593.394	0.652	1	incongruent	Block3	incongruent/STIM_019.jpg
2596.215	0.679	1	incongruent	Block3	incongruent/STIM_019.jpg
2600.256	0.677	1	incongruent	Block3	incongruent/STIM_019.jpg
2604.246	0.923	1	incongruent	Block3	incongruent/STIM_019.jpg
2608.337	0.907	1	incongruent	Block3	incongruent/STIM_020.jpg
2611.264	0.81	1	incongruent	Block3	incongruent/STIM_020.jpg
2615.043	0.481	1	incongruent	Block3	incongruent/STIM_020.jpg
2618.723	0.694	1	incongruent	Block3	incongruent/STIM_020.jpg
2622.652	0.554	1	incongruent	Block3	incongruent/STIM_020.jpg
2625.392	0.542	0	incongruent	Block3	incongruent/STIM_021.jpg
2628.139	0.663	1	incongruent	Block3	incongruent/STIM_021.jpg
2632.018	0.619	1	incongruent	Block3	incongruent/STIM_021.jpg
2635.776	0.691	1	incongruent	Block3	incongruent/STIM_021.jpg
2639.176	0.851	1	incongruent	Block3	incongruent/STIM_021.jpg
2643.144	0.718	1	incongruent	Block3	incongruent/STIM_022.jpg
2646.563	0.875	1	incongruent	Block3	incongruent/STIM_022.jpg
2650.817	0.653	1	incongruent	Block3	incongruent/STIM_022.jpg
2654.706	0.627	1	incongruent	Block3	incongruent/STIM_022.jpg
2658.096	0.499	1	incongruent	Block3	incongruent/STIM_022.jpg
2660.857	0.806	1	incongruent	Block3	incongruent/STIM_023.jpg
2665.64	0.625	1	incongruent	Block3	incongruent/STIM_023.jpg
2669.19	0.879	1	incongruent	Block3	incongruent/STIM_023.jpg
2673.77	0.86	1	incongruent	Block3	incongruent/STIM_023.jpg
2677.026	0.567	1	incongruent	Block3	incongruent/STIM_023.jpg
2680.154	0.733	1	incongruent	Block3	incongruent/STIM_024.jpg
2683.626	0.805	1	incongruent	Block3	incongruent/STIM_024.jpg
2686.774	0.717	1	incongruent	Block3	incongruent/STIM_024.jpg
2690.962	0.567	1	incongruent	Block3	incongruent/STIM_024.jpg
2694.731	0.464	1	incongruent	Block3	incongruent/STIM_024.jpg
2697.201	0.898	1	incongruent	Block3	incongruent/STIM_025.jpg
2701.0	0.819	1	incongruent	Block3	incongruent/STIM_025.jpg
2705.598	0.844	1	incongruent	Block3	incongruent/STIM_025.jpg
2710.277	0.477	1	incongruent	Block3	incongruent/STIM_025.jpg
2713.365	0.663	1	incongruent	Block3	incongruent/STIM_025.jpg
2716.103	0.719	1	incongruent	Block3	incongruent/STIM_026.jpg
2719.873	0.753	1	incongruent	Block3	incongruent/STIM_026.jpg
2722.876	0.623	1	incongruent	Block3	incongruent/STIM_026.jpg
2727.221	0.809	1	incongruent	Block3	incongruent/STIM_026.jpg
2730.476	0.72	1	incongruent	Block3	incongruent/STIM_026.jpg
2733.948	0.509	1	incongruent	Block3	incongruent/STIM_027.jpg
2737.81	0.518	1	incongruent	Block3	incongruent/STIM_027.jpg
2741.911	0.714	1	incongruent	Block3	incongruent/STIM_027.jpg
2746.602	0.539	1	incongruent	Block3	incongruent/STIM_027.jpg
2749.996	0.853	1	incongruent	Block3	incongruent/STIM_027.jpg
2753.809	0.55	1	incongruent	Block3	incongruent/STIM_028.jpg
2757.864	0.779	1	incongruent	Block3	incongruent/STIM_028.jpg
2761.982	0.905	1	incongruent	Block3	incongruent/STIM_028.jpg
2765.118	0.506	1	incongruent	Block3	incongruent/STIM_028.jpg
2768.024	0.876	1	incongruent	Block3	incongruent/STIM_028.jpg
2771.452	0.708	1	incongruent	Block3	incongruent/STIM_029.jpg
2774.535	0.731	1	incongruent	Block3	incongruent/STIM_029.jpg
2778.437	0.609	1	incongruent	Block3	incongruent/STIM_029.jpg
2782.182	0.67	1	incongruent	Block3	incongruent/STIM_029.jpg
2786.774	0.848	1	incongruent	Block3	incongruent/STIM_029.jpg
2790.611	0.688	1	congruent	Block3	congruent/STIM_000.jpg
2794.45	0.578	1	congruent	Block3	congruent/STIM_000.jpg
2798.434	0.645	1	congruent	Block3	congruent/STIM_000.jpg
2802.463	0.803	1	congruent	Block3	congruent/STIM_000.jpg
2805.571	0.637	1	congruent	Block3	congruent/STIM_000.jpg
2809.942	0.563	1	congruent	Block3	congruent/STIM_001.jpg
2813.338	0.787	0	congruent	Block3	congruent/STIM_001.jpg
2816.619	0.813	1	congruent	Block3	congruent/STIM_001.jpg
2820.436	0.541	0	congruent	Block3	congruent/STIM_001.jpg
2824.704	0.521	0	congruent	Block3	congruent/STIM_001.jpg
2828.327	0.477	0	congruent	Block3	congruent/STIM_002.jpg
2832.376	0.509	1	congruent	Block3	congruent/STIM_002.jpg
2835.132	0.708	0	congruent	Block3	congruent/STIM_002.jpg
2839.719	0.677	0	congruent	Block3	congruent/STIM_002.jpg
2842.94	0.565	1	congruent	Block3	congruent/STIM_002.jpg
2846.993	0.584	1	congruent	Block3	congruent/STIM_003.jpg
2849.84	0.467	1	congruent	Block3	congruent/STIM_003.jpg
2854.052	0.602	1	congruent	Block3	congruent/STIM_003.jpg
2857.646	0.629	1	congruent	Block3	congruent/STIM_003.jpg
2861.596	0.718	1	congruent	Block3	congruent/STIM_003.jpg
2865.679	0.665	1	congruent	Block3	congruent/STIM_004.jpg
2869.245	0.698	1	congruent	Block3	congruent/STIM_004.jpg
2872.87	0.6	1	congruent	Block3	congruent/STIM_004.jpg
2875.781	0.799	0	congruent	Block3	congruent/STIM_004.jpg
2880.219	0.673	1	congruent	Block3	congruent/STIM_004.jpg
2883.505	0.588	1	congruent	Block3	congruent/STIM_005.jpg
2887.298	0.545	1	congruent	Block3	congruent/STIM_005.jpg
2890.35	0.504	1	congruent	Block3	congruent/STIM_005.jpg
2893.542	0.771	1	congruent	Block3	congruent/STIM_005.jpg
2897.519	0.762	1	congruent	Block3	congruent/STIM_005.jpg
2901.407	0.575	1	congruent	Block3	congruent/STIM_006.jpg
2904.0	0.661	0	congruent	Block3	congruent/STIM_006.jpg
2906.776	0.764	1	congruent	Block3	congruent/STIM_006.jpg
2910.911	0.525	1	congruent	Block3	congruent/STIM_006.jpg
2914.267	0.751	1	congruent	Block3	congruent/STIM_006.jpg
2918.05	0.764	1	congruent	Block3	congruent/STIM_007.jpg
2921.087	0.653	1	congruent	Block3	congruent/STIM_007.jpg
2925.646	0.759	0	congruent	Block3	congruent/STIM_007.jpg
2930.031	0.693	1	congruent	Block3	congruent/STIM_007.jpg
2934.298	0.783	1	congruent	Block3	congruent/STIM_007.jpg
2938.993	0.483	1	congruent	Block3	congruent/STIM_008.jpg
2941.917	0.76	0	congruent	Block3	congruent/STIM_008.jpg
2944.761	0.793	1	congruent	Block3	congruent/STIM_008.jpg
2948.367	0.54	1	congruent	Block3	congruent/STIM_008.jpg
2951.385	0.785	1	congruent	Block3	congruent/STIM_008.jpg
2955.409	0.531	1	congruent	Block3	congruent/STIM_009.jpg
2959.402	0.703	1	congruent	Block3	congruent/STIM_009.jpg
2962.551	0.764	1	congruent	Block3	congruent/STIM_009.jpg
2966.66	0.473	1	congruent	Block3	congruent/STIM_009.jpg
2970.548	0.778	1	congruent	Block3	congruent/STIM_009.jpg
2973.595	0.593	1	congruent	Block3	congruent/STIM_010.jpg
2977.34	0.787	1	congruent	Block3	congruent/STIM_010.jpg
2981.908	0.74	1	congruent	Block3	congruent/STIM_010.jpg
2985.864	0.462	1	congruent	Block3	congruent/STIM_010.jpg
2988.557	0.669	1	congruent	Block3	congruent/STIM_010.jpg
2991.315	0.643	1	congruent	Block3	congruent/STIM_011.jpg
2994.547	0.763	1	congruent	Block3	congruent/STIM_011.jpg
2997.678	0.7	1	congruent	Block3	congruent/STIM_011.jpg
3001.451	0.686	1	congruent	Block3	congruent/STIM_011.jpg
3004.393	0.497	1	congruent	Block3	congruent/STIM_011.jpg
3008.547	0.663	1	congruent	Block3	congruent/STIM_012.jpg
3011.498	0.704	1	congruent	Block3	congruent/STIM_012.jpg
3014.368	0.493	1	congruent	Block3	congruent/STIM_012.jpg
3017.044	0.75	1	congruent	Block3	congruent/STIM_012.jpg
3020.723	0.79	1	congruent	Block3	congruent/STIM_012.jpg
3023.894	0.719	0	congruent	Block3	congruent/STIM_013.jpg
3026.739	0.539	1	congruent	Block3	congruent/STIM_013.jpg
3029.343	0.668	1	congruent	Block3	congruent/STIM_013.jpg
3032.269	0.598	1	congruent	Block3	congruent/STIM_013.jpg
3035.48	0.501	1	congruent	Block3	congruent/STIM_013.jpg
3038.949	0.56	1	congruent	Block3	congruent/STIM_014.jpg
3042.563	0.809	1	congruent	Block3	congruent/STIM_014.jpg
3045.689	0.678	1	congruent	Block3	congruent/STIM_014.jpg
3049.209	0.511	1	congruent	Block3	congruent/STIM_014.jpg
3053.147	0.513	1	congruent	Block3	congruent/STIM_014.jpg
3056.284	0.658	1	congruent	Block3	congruent/STIM_015.jpg
3060.489	0.478	1	congruent	Block3	congruent/STIM_015.jpg
3063.813	0.754	1	congruent	Block3	congruent/STIM_015.jpg
3067.525	0.803	1	congruent	Block3	congruent/STIM_015.jpg
3071.123	0.491	1	congruent	Block3	congruent/STIM_015.jpg
3075.421	0.523	1	congruent	Block3	congruent/STIM_016.jpg
3079.645	0.687	1	congruent	Block3	congruent/STIM_016.jpg
3084.034	0.815	1	congruent	Block3	congruent/STIM_016.jpg
3087.699	0.701	1	congruent	Block3	congruent/STIM_016.jpg
3090.917	0.683	0	congruent	Block3	congruent/STIM_016.jpg
3093.899	0.486	1	congruent	Block3	congruent/STIM_017.jpg
3096.542	0.545	1	congruent	Block3	congruent/STIM_017.jpg
3099.491	0.778	1	congruent	Block3	congruent/STIM_017.jpg
3104.142	0.678	1	congruent	Block3	congruent/STIM_017.jpg
3108.412	0.679	1	congruent	Block3	congruent/STIM_017.jpg
3112.623	0.592	1	congruent	Block3	congruent/STIM_018.jpg
3116.117	0.61	1	congruent	Block3	congruent/STIM_018.jpg
3120.114	0.496	0	congruent	Block3	congruent/STIM_018.jpg
3124.047	0.484	1	congruent	Block3	congruent/STIM_018.jpg
3128.403	0.682	1	congruent	Block3	congruent/STIM_018.jpg
3132.994	0.576	1	congruent	Block3	congruent/STIM_019.jpg
3136.589	0.814	0	congruent	Block3	congruent/STIM_019.jpg
3140.767	0.526	1	congruent	Block3	congruent/STIM_019.jpg
3143.305	0.642	1	congruent	Block3	congruent/STIM_019.jpg
3146.428	0.48	1	congruent	Block3	congruent/STIM_019.jpg
3149.671	0.547	1	congruent	Block3	congruent/STIM_020.jpg
3153.088	0.809	1	congruent	Block3	congruent/STIM_020.jpg
3157.881	0.755	1	congruent	Block3	congruent/STIM_020.jpg
3162.281	0.504	1	congruent	Block3	congruent/STIM_020.jpg
3165.62	0.591	0	congruent	Block3	congruent/STIM_020.jpg
3168.312	0.629	1	congruent	Block3	congruent/STIM_021.jpg
3171.446	0.788	1	congruent	Block3	congruent/STIM_021.jpg
3174.669	0.561	1	congruent	Block3	congruent/STIM_021.jpg
3178.692	0.767	1	congruent	Block3	congruent/STIM_021.jpg
3182.834	0.689	1	congruent	Block3	congruent/STIM_021.jpg
3186.696	0.726	1	congruent	Block3	congruent/STIM_022.jpg
3190.092	0.652	1	congruent	Block3	congruent/STIM_022.jpg
3193.831	0.767	1	congruent	Block3	congruent/STIM_022.jpg
3198.43	0.678	1	congruent	Block3	congruent/STIM_022.jpg
3201.761	0.508	1	congruent	Block3	congruent/STIM_022.jpg
3206.2	0.477	1	congruent	Block3	congruent/STIM_023.jpg
3210.17	0.479	1	congruent	Block3	congruent/STIM_023.jpg
3212.835	0.745	1	congruent	Block3	congruent/STIM_023.jpg
3216.103	0.617	1	congruent	Block3	congruent/STIM_023.jpg
3220.695	0.495	1	congruent	Block3	congruent/STIM_023.jpg
3224.175	0.66	1	congruent	Block3	congruent/STIM_024.jpg
3228.566	0.538	1	congruent	Block3	congruent/STIM_024.jpg
3232.472	0.761	1	congruent	Block3	congruent/STIM_024.jpg
3235.598	0.609	1	congruent	Block3	congruent/STIM_024.jpg
3238.298	0.647	0	congruent	Block3	congruent/STIM_024.jpg
3242.349	0.576	1	congruent	Block3	congruent/STIM_025.jpg
3246.903	0.709	1	congruent	Block3	congruent/STIM_025.jpg
3251.401	0.663	1	congruent	Block3	congruent/STIM_025.jpg
3254.787	0.546	1	congruent	Block3	congruent/STIM_025.jpg
3259.096	0.555	1	congruent	Block3	congruent/STIM_025.jpg
3262.719	0.634	1	congruent	Block3	congruent/STIM_026.jpg
3267.115	0.695	1	congruent	Block3	congruent/STIM_026.jpg
3270.705	0.594	1	congruent	Block3	congruent/STIM_026.jpg
3275.178	0.669	1	congruent	Block3	congruent/STIM_026.jpg
3279.014	0.668	0	congruent	Block3	congruent/STIM_026.jpg
3283.428	0.772	1	congruent	Block3	congruent/STIM_027.jpg
3287.669	0.672	1	congruent	Block3	congruent/STIM_027.jpg
3291.86	0.556	1	congruent	Block3	congruent/STIM_027.jpg
3294.957	0.453	1	congruent	Block3	congruent/STIM_027.jpg
3298.048	0.498	1	congruent	Block3	congruent/STIM_027.jpg
3301.811	0.73	1	congruent	Block3	congruent/STIM_028.jpg
3305.451	0.706	1	congruent	Block3	congruent/STIM_028.jpg
3308.37	0.771	1	congruent	Block3	congruent/STIM_028.jpg
3312.042	0.484	1	congruent	Block3	congruent/STIM_028.jpg
3315.479	0.686	1	congruent	Block3	congruent/STIM_028.jpg
3318.584	0.467	0	congruent	Block3	congruent/STIM_029.jpg
3322.477	0.529	1	congruent	Block3	congruent/STIM_029.jpg
3325.573	0.656	1	congruent	Block3	congruent/STIM_029.jpg
3330.078	0.684	1	congruent	Block3	congruent/STIM_029.jpg
3333.783	0.588	1	congruent	Block3	congruent/STIM_029.jpg
