onset	duration	accuracy	trial_type	learning_stage	stimulus
0.0	1.077	correct	incongruent	Block1	incongruent/STIM_000.jpg
3.311	1.018	incorrect	incongruent	Block1	incongruent/STIM_000.jpg
7.074	1.217	correct	incongruent	Block1	incongruent/STIM_000.jpg
10.973	0.718	correct	incongruent	Block1	incongruent/STIM_000.jpg
15.442	1.158	correct	incongruent	Block1	incongruent/STIM_000.jpg
19.357	0.885	incorrect	incongruent	Block1	incongruent/STIM_001.jpg
22.971	0.917	correct	incongruent	Block1	incongruent/STIM_001.jpg
27.152	1.048	correct	incongruent	Block1	incongruent/STIM_001.jpg
31.837	0.625	correct	incongruent	Block1	incongruent/STIM_001.jpg
34.873	1.161	correct	incongruent	Block1	incongruent/STIM_001.jpg
38.59	1.201	incorrect	incongruent	Block1	incongruent/STIM_002.jpg
42.939	1.306	correct	incongruent	Block1	incongruent/STIM_002.jpg
46.92	0.75	correct	incongruent	Block1	incongruent/STIM_002.jpg
51.115	0.824	correct	incongruent	Block1	incongruent/STIM_002.jpg
54.386	0.864	correct	incongruent	Block1	incongruent/STIM_002.jpg
57.783	0.889	correct	incongruent	Block1	incongruent/STIM_003.jpg
60.765	0.66	correct	incongruent	Block1	incongruent/STIM_003.jpg
64.135	1.322	correct	incongruent	Block1	incongruent/STIM_003.jpg
68.957	1.037	correct	incongruent	Block1	incongruent/STIM_003.jpg
73.656	1.176	incorrect	incongruent	Block1	incongruent/STIM_003.jpg
77.957	1.19	correct	incongruent	Block1	incongruent/STIM_004.jpg
82.93	0.734	correct	incongruent	Block1	incongruent/STIM_004.jpg
85.966	0.708	correct	incongruent	Block1	incongruent/STIM_004.jpg
89.394	1.23	correct	incongruent	Block1	incongruent/STIM_004.jpg
93.786	0.649	correct	incongruent	Block1	incongruent/STIM_004.jpg
97.126	1.093	correct	incongruent	Block1	incongruent/STIM_005.jpg
102.114	1.341	correct	incongruent	Block1	incongruent/STIM_005.jpg
107.442	1.117	correct	incongruent	Block1	incongruent/STIM_005.jpg
112.105	1.071	correct	incongruent	Block1	incongruent/STIM_005.jpg
116.933	1.135	correct	incongruent	Block1	incongruent/STIM_005.jpg
122.049	0.765	correct	incongruent	Block1	incongruent/STIM_006.jpg
125.54	1.246	correct	incongruent	Block1	incongruent/STIM_006.jpg
130.464	1.32	correct	incongruent	Block1	incongruent/STIM_006.jpg
134.159	0.789	incorrect	incongruent	Block1	incongruent/STIM_006.jpg
138.41	0.901	correct	incongruent	Block1	incongruent/STIM_006.jpg
141.373	0.815	correct	incongruent	Block1	incongruent/STIM_007.jpg
144.325	1.27	correct	incongruent	Block1	incongruent/STIM_007.jpg
149.547	0.802	correct	incongruent	Block1	incongruent/STIM_007.jpg
153.003	0.818	correct	incongruent	Block1	incongruent/STIM_007.jpg
155.976	0.796	correct	incongruent	Block1	incongruent/STIM_007.jpg
160.379	1.054	incorrect	incongruent	Block1	incongruent/STIM_008.jpg
164.948	0.854	correct	incongruent	Block1	incongruent/STIM_008.jpg
168.671	1.267	correct	incongruent	Block1	incongruent/STIM_008.jpg
172.31	0.687	incorrect	incongruent	Block1	incongruent/STIM_008.jpg
175.454	1.103	correct	incongruent	Block1	incongruent/STIM_008.jpg
179.158	0.996	correct	incongruent	Block1	incongruent/STIM_009.jpg
182.889	1.072	correct	incongruent	Block1	incongruent/STIM_009.jpg
186.504	0.794	correct	incongruent	Block1	incongruent/STIM_009.jpg
189.557	0.798	correct	incongruent	Block1	incongruent/STIM_009.jpg
192.367	0.942	correct	incongruent	Block1	incongruent/STIM_009.jpg
196.555	1.323	correct	incongruent	Block1	incongruent/STIM_010.jpg
201.515	1.325	incorrect	incongruent	Block1	incongruent/STIM_010.jpg
206.777	0.936	correct	incongruent	Block1	incongruent/STIM_010.jpg
210.789	0.871	correct	incongruent	Block1	incongruent/STIM_010.jpg
214.325	0.605	correct	incongruent	Block1	incongruent/STIM_010.jpg
217.467	0.759	correct	incongruent	Block1	incongruent/STIM_011.jpg
221.039	1.013	correct	incongruent	Block1	incongruent/STIM_011.jpg
224.261	1.103	correct	incongruent	Block1	incongruent/STIM_011.jpg
228.149	0.836	correct	incongruent	Block1	incongruent/STIM_011.jpg
232.427	0.67	correct	incongruent	Block1	incongruent/STIM_011.jpg
235.488	1.01	correct	incongruent	Block1	incongruent/STIM_012.jpg
238.969	1.358	correct	incongruent	Block1	incongruent/STIM_012.jpg
243.443	0.829	correct	incongruent	Block1	incongruent/STIM_012.jpg
247.459	0.98	correct	incongruent	Block1	incongruent/STIM_012.jpg
250.46	0.693	correct	incongruent	Block1	incongruent/STIM_012.jpg
254.402	0.945	correct	incongruent	Block1	incongruent/STIM_013.jpg
258.862	1.294	correct	incongruent	Block1	incongruent/STIM_013.jpg
263.528	1.08	correct	incongruent	Block1	incongruent/STIM_013.jpg
267.018	0.699	correct	incongruent	Block1	incongruent/STIM_013.jpg
271.717	1.046	incorrect	incongruent	Block1	incongruent/STIM_013.jpg
276.021	1.246	correct	incongruent	Block1	incongruent/STIM_014.jpg
280.832	0.693	correct	incongruent	Block1	incongruent/STIM_014.jpg
285.146	0.898	correct	incongruent	Block1	incongruent/STIM_014.jpg
289.907	0.979	correct	incongruent	Block1	incongruent/STIM_014.jpg
293.402	0.742	correct	incongruent	Block1	incongruent/STIM_014.jpg
297.962	0.896	correct	incongruent	Block1	incongruent/STIM_015.jpg
302.017	0.665	correct	incongruent	Block1	incongruent/STIM_015.jpg
306.528	1.152	correct	incongruent	Block1	incongruent/STIM_015.jpg
310.747	1.079	correct	incongruent	Block1	incongruent/STIM_015.jpg
314.485	1.096	correct	incongruent	Block1	incongruent/STIM_015.jpg
318.495	0.862	correct	incongruent	Block1	incongruent/STIM_016.jpg
321.698	0.707	incorrect	incongruent	Block1	incongruent/STIM_016.jpg
325.804	0.886	correct	incongruent	Block1	incongruent/STIM_016.jpg
329.915	1.03	correct	incongruent	Block1	incongruent/STIM_016.jpg
334.921	1.166	correct	incongruent	Block1	incongruent/STIM_016.jpg
339.305	0.845	correct	incongruent	Block1	incongruent/STIM_017.jpg
343.798	1.016	correct	incongruent	Block1	incongruent/STIM_017.jpg
348.412	1.244	correct	incongruent	Block1	incongruent/STIM_017.jpg
353.236	0.997	correct	incongruent	Block1	incongruent/STIM_017.jpg
358.215	0.736	correct	incongruent	Block1	incongruent/STIM_017.jpg
362.543	0.868	correct	incongruent	Block1	incongruent/STIM_018.jpg
366.656	1.328	correct	incongruent	Block1	incongruent/STIM_018.jpg
370.918	1.027	correct	incongruent	Block1	incongruent/STIM_018.jpg
374.048	0.914	correct	incongruent	Block1	incongruent/STIM_018.jpg
378.587	0.639	correct	incongruent	Block1	incongruent/STIM_018.jpg
382.962	0.9	incorrect	incongruent	Block1	incongruent/STIM_019.jpg
386.687	1.132	correct	incongruent	Block1	incongruent/STIM_019.jpg
390.502	0.885	correct	incongruent	Block1	incongruent/STIM_019.jpg
394.231	0.877	correct	incongruent	Block1	incongruent/STIM_019.jpg
397.471	0.947	correct	incongruent	Block1	incongruent/STIM_019.jpg
401.597	0.765	correct	incongruent	Block1	incongruent/STIM_020.jpg
406.048	1.009	correct	incongruent	Block1	incongruent/STIM_020.jpg
409.948	1.059	correct	incongruent	Block1	incongruent/STIM_020.jpg
413.529	0.696	correct	incongruent	Block1	incongruent/STIM_020.jpg
417.758	0.582	correct	incongruent	Block1	incongruent/STIM_020.jpg
420.736	1.04	correct	incongruent	Block1	incongruent/STIM_021.jpg
423.841	0.691	incorrect	incongruent	Block1	incongruent/STIM_021.jpg
427.868	1.304	correct	incongruent	Block1	incongruent/STIM_021.jpg
431.907	1.206	correct	incongruent	Block1	incongruent/STIM_021.jpg
435.698	1.102	correct	incongruent	Block1	incongruent/STIM_021.jpg
440.414	1.355	incorrect	incongruent	Block1	incongruent/STIM_022.jpg
444.559	0.986	correct	incongruent	Block1	incongruent/STIM_022.jpg
447.614	0.788	correct	incongruent	Block1	incongruent/STIM_022.jpg
451.238	1.178	correct	incongruent	Block1	incongruent/STIM_022.jpg
456.377	1.178	correct	incongruent	Block1	incongruent/STIM_022.jpg
461.183	0.852	incorrect	incongruent	Block1	incongruent/STIM_023.jpg
464.226	1.008	correct	incongruent	Block1	incongruent/STIM_023.jpg
467.303	0.875	correct	incongruent	Block1	incongruent/STIM_023.jpg
470.466	1.173	correct	incongruent	Block1	incongruent/STIM_023.jpg
475.293	0.753	correct	incongruent	Block1	incongruent/STIM_023.jpg
479.828	0.904	correct	incongruent	Block1	incongruent/STIM_024.jpg
484.288	1.094	correct	incongruent	Block1	incongruent/STIM_024.jpg
487.662	0.85	correct	incongruent	Block1	incongruent/STIM_024.jpg
490.725	0.63	correct	incongruent	Block1	incongruent/STIM_024.jpg
493.732	1.037	correct	incongruent	Block1	incongruent/STIM_024.jpg
497.274	0.945	correct	incongruent	Block1	incongruent/STIM_025.jpg
501.051	1.05	correct	incongruent	Block1	incongruent/STIM_025.jpg
505.735	0.885	incorrect	incongruent	Block1	incongruent/STIM_025.jpg
508.898	0.835	correct	incongruent	Block1	incongruent/STIM_025.jpg
513.651	1.139	correct	incongruent	Block1	incongruent/STIM_025.jpg
517.107	1.061	correct	incongruent	Block1	incongruent/STIM_026.jpg
521.037	1.357	correct	incongruent	Block1	incongruent/STIM_026.jpg
525.741	1.21	correct	incongruent	Block1	incongruent/STIM_026.jpg
528.985	1.14	correct	incongruent	Block1	incongruent/STIM_026.jpg
532.281	0.604	correct	incongruent	Block1	incongruent/STIM_026.jpg
536.584	1.165	correct	incongruent	Block1	incongruent/STIM_027.jpg
540.029	0.747	correct	incongruent	Block1	incongruent/STIM_027.jpg
544.451	0.718	correct	incongruent	Block1	incongruent/STIM_027.jpg
548.664	1.051	correct	incongruent	Block1	incongruent/STIM_027.jpg
552.981	0.668	correct	incongruent	Block1	incongruent/STIM_027.jpg
556.526	1.035	correct	incongruent	Block1	incongruent/STIM_028.jpg
561.161	0.967	correct	incongruent	Block1	incongruent/STIM_028.jpg
564.554	1.335	incorrect	incongruent	Block1	incongruent/STIM_028.jpg
569.042	0.961	correct	incongruent	Block1	incongruent/STIM_028.jpg
572.252	0.988	correct	incongruent	Block1	incongruent/STIM_028.jpg
576.849	1.322	correct	incongruent	Block1	incongruent/STIM_029.jpg
581.447	1.397	correct	incongruent	Block1	incongruent/STIM_029.jpg
586.744	0.881	correct	incongruent	Block1	incongruent/STIM_029.jpg
590.759	0.982	incorrect	incongruent	Block1	incongruent/STIM_029.jpg
595.225	0.632	correct	incongruent	Block1	incongruent/STIM_029.jpg
599.787	0.528	correct	congruent	Block1	congruent/STIM_000.jpg
602.781	0.502	correct	congruent	Block1	congruent/STIM_000.jpg
606.383	0.536	correct	congruent	Block1	congruent/STIM_000.jpg
609.11	0.564	correct	congruent	Block1	congruent/STIM_000.jpg
613.576	0.796	correct	congruent	Block1	congruent/STIM_000.jpg
618.019	0.839	correct	congruent	Block1	congruent/STIM_001.jpg
622.861	0.69	correct	congruent	Block1	congruent/STIM_001.jpg
627.508	0.579	correct	congruent	Block1	congruent/STIM_001.jpg
631.059	0.496	correct	congruent	Block1	congruent/STIM_001.jpg
633.926	0.874	correct	congruent	Block1	congruent/STIM_001.jpg
638.523	0.712	correct	congruent	Block1	congruent/STIM_002.jpg
641.88	0.646	correct	congruent	Block1	congruent/STIM_002.jpg
644.628	0.534	correct	congruent	Block1	congruent/STIM_002.jpg
648.386	0.561	correct	congruent	Block1	congruent/STIM_002.jpg
651.001	0.707	correct	congruent	Block1	congruent/STIM_002.jpg
654.958	0.774	correct	congruent	Block1	congruent/STIM_003.jpg
658.797	0.753	correct	congruent	Block1	congruent/STIM_003.jpg
662.791	0.8	correct	congruent	Block1	congruent/STIM_003.jpg
667.536	0.832	correct	congruent	Block1	congruent/STIM_003.jpg
671.733	0.552	correct	congruent	Block1	congruent/STIM_003.jpg
674.587	0.522	correct	congruent	Block1	congruent/STIM_004.jpg
677.185	0.875	correct	congruent	Block1	congruent/STIM_004.jpg
680.306	0.773	correct	congruent	Block1	congruent/STIM_004.jpg
683.89	0.878	correct	congruent	Block1	congruent/STIM_004.jpg
688.518	0.765	incorrect	congruent	Block1	congruent/STIM_004.jpg
692.465	0.564	correct	congruent	Block1	congruent/STIM_005.jpg
696.78	0.795	correct	congruent	Block1	congruent/STIM_005.jpg
701.28	0.853	correct	congruent	Block1	congruent/STIM_005.jpg
704.778	0.614	correct	congruent	Block1	congruent/STIM_005.jpg
708.206	0.848	correct	congruent	Block1	congruent/STIM_005.jpg
711.562	0.854	correct	congruent	Block1	congruent/STIM_006.jpg
715.657	0.634	correct	congruent	Block1	congruent/STIM_006.jpg
719.639	0.58	correct	congruent	Block1	congruent/STIM_006.jpg
722.832	0.764	correct	congruent	Block1	congruent/STIM_006.jpg
726.48	0.828	correct	congruent	Block1	congruent/STIM_006.jpg
730.829	0.799	correct	congruent	Block1	congruent/STIM_007.jpg
733.889	0.821	correct	congruent	Block1	congruent/STIM_007.jpg
737.55	0.805	correct	congruent	Block1	congruent/STIM_007.jpg
741.982	0.693	correct	congruent	Block1	congruent/STIM_007.jpg
746.619	0.767	correct	congruent	Block1	congruent/STIM_007.jpg
750.181	0.51	correct	congruent	Block1	congruent/STIM_008.jpg
754.149	0.825	correct	congruent	Block1	congruent/STIM_008.jpg
758.352	0.746	correct	congruent	Block1	congruent/STIM_008.jpg
761.175	0.618	correct	congruent	Block1	congruent/STIM_008.jpg
764.417	0.802	correct	congruent	Block1	congruent/STIM_008.jpg
768.339	0.769	correct	congruent	Block1	congruent/STIM_009.jpg
772.121	0.548	correct	congruent	Block1	congruent/STIM_009.jpg
775.092	0.592	correct	congruent	Block1	congruent/STIM_009.jpg
778.506	0.559	correct	congruent	Block1	congruent/STIM_009.jpg
781.354	0.594	correct	congruent	Block1	congruent/STIM_009.jpg
785.649	0.685	correct	congruent	Block1	congruent/STIM_010.jpg
789.901	0.516	correct	congruent	Block1	congruent/STIM_010.jpg
793.862	0.72	correct	congruent	Block1	congruent/STIM_010.jpg
797.222	0.8	correct	congruent	Block1	congruent/STIM_010.jpg
800.037	0.78	correct	congruent	Block1	congruent/STIM_010.jpg
802.854	0.688	correct	congruent	Block1	congruent/STIM_011.jpg
806.597	0.641	correct	congruent	Block1	congruent/STIM_011.jpg
809.834	0.792	correct	congruent	Block1	congruent/STIM_011.jpg
813.766	0.809	correct	congruent	Block1	congruent/STIM_011.jpg
816.791	0.816	incorrect	congruent	Block1	congruent/STIM_011.jpg
820.545	0.52	correct	congruent	Block1	congruent/STIM_012.jpg
823.907	0.636	correct	congruent	Block1	congruent/STIM_012.jpg
827.422	0.518	correct	congruent	Block1	congruent/STIM_012.jpg
830.465	0.685	correct	congruent	Block1	congruent/STIM_012.jpg
833.802	0.755	correct	congruent	Block1	congruent/STIM_012.jpg
836.774	0.62	correct	congruent	Block1	congruent/STIM_013.jpg
840.127	0.522	correct	congruent	Block1	congruent/STIM_013.jpg
842.858	0.838	correct	congruent	Block1	congruent/STIM_013.jpg
846.668	0.675	correct	congruent	Block1	congruent/STIM_013.jpg
851.29	0.73	correct	congruent	Block1	congruent/STIM_013.jpg
855.398	0.688	correct	congruent	Block1	congruent/STIM_014.jpg
858.375	0.79	incorrect	congruent	Block1	congruent/STIM_014.jpg
862.551	0.6	correct	congruent	Block1	congruent/STIM_014.jpg
865.589	0.687	incorrect	congruent	Block1	congruent/STIM_014.jpg
868.314	0.514	correct	congruent	Block1	congruent/STIM_014.jpg
872.693	0.841	correct	congruent	Block1	congruent/STIM_015.jpg
876.236	0.563	correct	congruent	Block1	congruent/STIM_015.jpg
880.634	0.864	correct	congruent	Block1	congruent/STIM_015.jpg
885.304	0.505	correct	congruent	Block1	congruent/STIM_015.jpg
888.782	0.866	correct	congruent	Block1	congruent/STIM_015.jpg
892.488	0.587	correct	congruent	Block1	congruent/STIM_016.jpg
896.117	0.665	correct	congruent	Block1	congruent/STIM_016.jpg
898.8	0.743	correct	congruent	Block1	congruent/STIM_016.jpg
901.721	0.806	correct	congruent	Block1	congruent/STIM_016.jpg
905.984	0.753	correct	congruent	Block1	congruent/STIM_016.jpg
909.19	0.838	correct	congruent	Block1	congruent/STIM_017.jpg
913.364	0.82	correct	congruent	Block1	congruent/STIM_017.jpg
916.598	0.75	correct	congruent	Block1	congruent/STIM_017.jpg
919.621	0.576	correct	congruent	Block1	congruent/STIM_017.jpg
922.604	0.537	correct	congruent	Block1	congruent/STIM_017.jpg
927.085	0.787	correct	congruent	Block1	congruent/STIM_018.jpg
930.132	0.608	correct	congruent	Block1	congruent/STIM_018.jpg
934.015	0.795	correct	congruent	Block1	congruent/STIM_018.jpg
937.259	0.505	correct	congruent	Block1	congruent/STIM_018.jpg
940.67	0.805	correct	congruent	Block1	congruent/STIM_018.jpg
943.748	0.574	correct	congruent	Block1	congruent/STIM_019.jpg
948.183	0.659	incorrect	congruent	Block1	congruent/STIM_019.jpg
951.176	0.83	correct	congruent	Block1	congruent/STIM_019.jpg
955.928	0.52	correct	congruent	Block1	congruent/STIM_019.jpg
959.322	0.741	correct	congruent	Block1	congruent/STIM_019.jpg
962.959	0.579	correct	congruent	Block1	congruent/STIM_020.jpg
965.625	0.544	correct	congruent	Block1	congruent/STIM_020.jpg
968.836	0.658	correct	congruent	Block1	congruent/STIM_020.jpg
973.125	0.779	correct	congruent	Block1	congruent/STIM_020.jpg
977.431	0.57	correct	congruent	Block1	congruent/STIM_020.jpg
980.519	0.519	correct	congruent	Block1	congruent/STIM_021.jpg
984.602	0.741	correct	congruent	Block1	congruent/STIM_021.jpg
987.681	0.818	correct	congruent	Block1	congruent/STIM_021.jpg
990.936	0.807	correct	congruent	Block1	congruent/STIM_021.jpg
995.3	0.878	correct	congruent	Block1	congruent/STIM_021.jpg
999.189	0.745	correct	congruent	Block1	congruent/STIM_022.jpg
1002.9	0.737	correct	congruent	Block1	congruent/STIM_022.jpg
1005.93	0.647	correct	congruent	Block1	congruent/STIM_022.jpg
1010.238	0.706	correct	congruent	Block1	congruent/STIM_022.jpg
1014.866	0.689	correct	congruent	Block1	congruent/STIM_022.jpg
1018.079	0.686	correct	congruent	Block1	congruent/STIM_023.jpg
1022.157	0.76	correct	congruent	Block1	congruent/STIM_023.jpg
1025.604	0.628	correct	congruent	Block1	congruent/STIM_023.jpg
1030.133	0.501	correct	congruent	Block1	congruent/STIM_023.jpg
1033.243	0.653	correct	congruent	Block1	congruent/STIM_023.jpg
1037.254	0.755	correct	congruent	Block1	congruent/STIM_024.jpg
1041.265	0.664	correct	congruent	Block1	congruent/STIM_024.jpg
1044.111	0.738	correct	congruent	Block1	congruent/STIM_024.jpg
1047.336	0.866	correct	congruent	Block1	congruent/STIM_024.jpg
1050.356	0.814	correct	congruent	Block1	congruent/STIM_024.jpg
1053.332	0.708	incorrect	congruent	Block1	congruent/STIM_025.jpg
1057.262	0.672	correct	congruent	Block1	congruent/STIM_025.jpg
1060.596	0.788	correct	congruent	Block1	congruent/STIM_025.jpg
1063.723	0.858	correct	congruent	Block1	congruent/STIM_025.jpg
1068.524	0.52	correct	congruent	Block1	congruent/STIM_025.jpg
1072.008	0.738	correct	congruent	Block1	congruent/STIM_026.jpg
1076.117	0.593	correct	congruent	Block1	congruent/STIM_026.jpg
1080.153	0.62	correct	congruent	Block1	congruent/STIM_026.jpg
1084.479	0.85	correct	congruent	Block1	congruent/STIM_026.jpg
1088.121	0.818	correct	congruent	Block1	congruent/STIM_026.jpg
1092.243	0.76	correct	congruent	Block1	congruent/STIM_027.jpg
1095.884	0.497	correct	congruent	Block1	congruent/STIM_027.jpg
1100.177	0.607	correct	congruent	Block1	congruent/STIM_027.jpg
1102.796	0.755	correct	congruent	Block1	congruent/STIM_027.jpg
1107.477	0.61	correct	congruent	Block1	congruent/STIM_027.jpg
1111.201	0.653	correct	congruent	Block1	congruent/STIM_028.jpg
1113.914	0.88	correct	congruent	Block1	congruent/STIM_028.jpg
1116.905	0.71	correct	congruent	Block1	congruent/STIM_028.jpg
1120.609	0.526	correct	congruent	Block1	congruent/STIM_028.jpg
1123.798	0.87	correct	congruent	Block1	congruent/STIM_028.jpg
1127.276	0.821	correct	congruent	Block1	congruent/STIM_029.jpg
1130.806	0.642	correct	congruent	Block1	congruent/STIM_029.jpg
1134.156	0.853	correct	congruent	Block1	congruent/STIM_029.jpg
1138.075	0.831	correct	congruent	Block1	congruent/STIM_029.jpg
1141.535	0.574	correct	congruent	Block1	congruent/STIM_029.jpg
1145.332	0.616	correct	incongruent	Block2	incongruent/STIM_000.jpg
1149.747	1.009	correct	incongruent	Block2	incongruent/STIM_000.jpg
1153.557	0.727	correct	incongruent	Block2	incongruent/STIM_000.jpg
1157.193	0.962	correct	incongruent	Block2	incongruent/STIM_000.jpg
1160.239	0.939	correct	incongruent	Block2	incongruent/STIM_000.jpg
1164.555	0.752	correct	incongruent	Block2	incongruent/STIM_001.jpg
1168.326	0.653	correct	incongruent	Block2	incongruent/STIM_001.jpg
1172.979	0.925	correct	incongruent	Block2	incongruent/STIM_001.jpg
1177.4	0.824	correct	incongruent	Block2	incongruent/STIM_001.jpg
1181.745	0.61	correct	incongruent	Block2	incongruent/STIM_001.jpg
1185.8	1.24	correct	incongruent	Block2	incongruent/STIM_002.jpg
1189.75	0.556	correct	incongruent	Block2	incongruent/STIM_002.jpg
1194.097	0.756	correct	incongruent	Block2	incongruent/STIM_002.jpg
1198.46	0.863	correct	incongruent	Block2	incongruent/STIM_002.jpg
1202.605	0.984	correct	incongruent	Block2	incongruent/STIM_002.jpg
1207.311	1.108	correct	incongruent	Block2	incongruent/STIM_003.jpg
1210.641	0.89	correct	incongruent	Block2	incongruent/STIM_003.jpg
1213.748	0.82	correct	incongruent	Block2	incongruent/STIM_003.jpg
1218.291	0.772	correct	incongruent	Block2	incongruent/STIM_003.jpg
1221.458	0.632	correct	incongruent	Block2	incongruent/STIM_003.jpg
1224.948	0.77	correct	incongruent	Block2	incongruent/STIM_004.jpg
1228.161	0.919	incorrect	incongruent	Block2	incongruent/STIM_004.jpg
1231.377	0.856	correct	incongruent	Block2	incongruent/STIM_004.jpg
1235.654	0.494	correct	incongruent	Block2	incongruent/STIM_004.jpg
1238.355	0.942	correct	incongruent	Block2	incongruent/STIM_004.jpg
1241.733	0.669	correct	incongruent	Block2	incongruent/STIM_005.jpg
1244.489	0.94	correct	incongruent	Block2	incongruent/STIM_005.jpg
1249.393	0.832	correct	incongruent	Block2	incongruent/STIM_005.jpg
1253.456	1.012	correct	incongruent	Block2	incongruent/STIM_005.jpg
1257.85	0.504	correct	incongruent	Block2	incongruent/STIM_005.jpg
1261.783	0.93	correct	incongruent	Block2	incongruent/STIM_006.jpg
1265.45	1.027	correct	incongruent	Block2	incongruent/STIM_006.jpg
1270.124	0.691	correct	incongruent	Block2	incongruent/STIM_006.jpg
1274.045	0.531	correct	incongruent	Block2	incongruent/STIM_006.jpg
1276.833	0.823	correct	incongruent	Block2	incongruent/STIM_006.jpg
1280.086	0.671	incorrect	incongruent	Block2	incongruent/STIM_007.jpg
1283.931	1.058	correct	incongruent	Block2	incongruent/STIM_007.jpg
1287.367	0.534	correct	incongruent	Block2	incongruent/STIM_007.jpg
1290.253	0.499	correct	incongruent	Block2	incongruent/STIM_007.jpg
1294.499	0.982	correct	incongruent	Block2	incongruent/STIM_007.jpg
1297.697	0.736	correct	incongruent	Block2	incongruent/STIM_008.jpg
1301.611	0.998	correct	incongruent	Block2	incongruent/STIM_008.jpg
1305.184	1.042	correct	incongruent	Block2	incongruent/STIM_008.jpg
1308.24	0.621	correct	incongruent	Block2	incongruent/STIM_008.jpg
1312.488	0.682	correct	incongruent	Block2	incongruent/STIM_008.jpg
1315.864	0.952	correct	incongruent	Block2	incongruent/STIM_009.jpg
1319.97	0.748	correct	incongruent	Block2	incongruent/STIM_009.jpg
1323.727	0.646	correct	incongruent	Block2	incongruent/STIM_009.jpg
1327.821	0.923	correct	incongruent	Block2	incongruent/STIM_009.jpg
1331.522	0.847	correct	incongruent	Block2	incongruent/STIM_009.jpg
1335.404	1.1	correct	incongruent	Block2	incongruent/STIM_010.jpg
1339.587	0.864	correct	incongruent	Block2	incongruent/STIM_010.jpg
1344.075	0.792	correct	incongruent	Block2	incongruent/STIM_010.jpg
1347.887	0.525	correct	incongruent	Block2	incongruent/STIM_010.jpg
1352.373	0.92	correct	incongruent	Block2	incongruent/STIM_010.jpg
1356.511	0.674	correct	incongruent	Block2	incongruent/STIM_011.jpg
1359.956	1.141	correct	incongruent	Block2	incongruent/STIM_011.jpg
1363.54	0.97	correct	incongruent	Block2	incongruent/STIM_011.jpg
1367.587	0.716	correct	incongruent	Block2	incongruent/STIM_011.jpg
1371.882	1.012	correct	incongruent	Block2	incongruent/STIM_011.jpg
1376.211	1.208	correct	incongruent	Block2	incongruent/STIM_012.jpg
1379.915	0.681	correct	incongruent	Block2	incongruent/STIM_012.jpg
1383.145	0.905	correct	incongruent	Block2	incongruent/STIM_012.jpg
1386.5	0.723	correct	incongruent	Block2	incongruent/STIM_012.jpg
1390.112	0.534	correct	incongruent	Block2	incongruent/STIM_012.jpg
1393.839	0.705	correct	incongruent	Block2	incongruent/STIM_013.jpg
1397.165	0.913	correct	incongruent	Block2	incongruent/STIM_013.jpg
1400.241	0.645	correct	incongruent	Block2	incongruent/STIM_013.jpg
1404.334	0.552	correct	incongruent	Block2	incongruent/STIM_013.jpg
1407.179	0.604	correct	incongruent	Block2	incongruent/STIM_013.jpg
1411.148	0.737	correct	incongruent	Block2	incongruent/STIM_014.jpg
1414.359	0.8	correct	incongruent	Block2	incongruent/STIM_014.jpg
1418.62	0.975	correct	incongruent	Block2	incongruent/STIM_014.jpg
1422.463	0.525	correct	incongruent	Block2	incongruent/STIM_014.jpg
1425.067	0.967	correct	incongruent	Block2	incongruent/STIM_014.jpg
1428.076	1.171	correct	incongruent	Block2	incongruent/STIM_015.jpg
1432.464	1.188	correct	incongruent	Block2	incongruent/STIM_015.jpg
1437.614	0.668	correct	incongruent	Block2	incongruent/STIM_015.jpg
1442.261	0.514	correct	incongruent	Block2	incongruent/STIM_015.jpg
1446.445	0.788	correct	incongruent	Block2	incongruent/STIM_015.jpg
1450.025	1.164	correct	incongruent	Block2	incongruent/STIM_016.jpg
1453.969	1.147	correct	incongruent	Block2	incongruent/STIM_016.jpg
1458.546	0.98	correct	incongruent	Block2	incongruent/STIM_016.jpg
1462.949	0.764	correct	incongruent	Block2	incongruent/STIM_016.jpg
1466.799	1.006	correct	incongruent	Block2	incongruent/STIM_016.jpg
1469.897	1.144	correct	incongruent	Block2	incongruent/STIM_017.jpg
1473.542	0.585	correct	incongruent	Block2	incongruent/STIM_017.jpg
1477.83	1.099	correct	incongruent	Block2	incongruent/STIM_017.jpg
1481.42	0.542	correct	incongruent	Block2	incongruent/STIM_017.jpg
1485.604	0.826	correct	incongruent	Block2	incongruent/STIM_017.jpg
1489.99	0.743	correct	incongruent	Block2	incongruent/STIM_018.jpg
1494.573	1.13	correct	incongruent	Block2	incongruent/STIM_018.jpg
1499.231	0.722	correct	incongruent	Block2	incongruent/STIM_018.jpg
1501.96	0.607	correct	incongruent	Block2	incongruent/STIM_018.jpg
1505.433	0.526	correct	incongruent	Block2	incongruent/STIM_018.jpg
1508.793	0.965	correct	incongruent	Block2	incongruent/STIM_019.jpg
1513.623	0.764	correct	incongruent	Block2	incongruent/STIM_019.jpg
1517.109	1.028	correct	incongruent	Block2	incongruent/STIM_019.jpg
1521.874	0.909	incorrect	incongruent	Block2	incongruent/STIM_019.jpg
1526.554	0.755	correct	incongruent	Block2	incongruent/STIM_019.jpg
1530.073	0.928	correct	incongruent	Block2	incongruent/STIM_020.jpg
1533.125	0.918	correct	incongruent	Block2	incongruent/STIM_020.jpg
1537.901	0.671	correct	incongruent	Block2	incongruent/STIM_020.jpg
1540.799	0.892	incorrect	incongruent	Block2	incongruent/STIM_020.jpg
1543.765	0.778	correct	incongruent	Block2	incongruent/STIM_020.jpg
1547.223	1.097	correct	incongruent	Block2	incongruent/STIM_021.jpg
1551.456	0.662	correct	incongruent	Block2	incongruent/STIM_021.jpg
1554.623	0.781	incorrect	incongruent	Block2	incongruent/STIM_021.jpg
1558.156	0.91	correct	incongruent	Block2	incongruent/STIM_021.jpg
1562.756	1.014	correct	incongruent	Block2	incongruent/STIM_021.jpg
1567.259	0.865	correct	incongruent	Block2	incongruent/STIM_022.jpg
1570.458	0.563	correct	incongruent	Block2	incongruent/STIM_022.jpg
1574.481	0.654	correct	incongruent	Block2	incongruent/STIM_022.jpg
1577.981	0.928	correct	incongruent	Block2	incongruent/STIM_022.jpg
1581.246	0.757	correct	incongruent	Block2	incongruent/STIM_022.jpg
1585.595	1.067	correct	incongruent	Block2	incongruent/STIM_023.jpg
1590.219	0.862	correct	incongruent	Block2	incongruent/STIM_023.jpg
1594.713	0.827	correct	incongruent	Block2	incongruent/STIM_023.jpg
1598.391	0.737	correct	incongruent	Block2	incongruent/STIM_023.jpg
1602.966	0.986	correct	incongruent	Block2	incongruent/STIM_023.jpg
1607.576	0.913	correct	incongruent	Block2	incongruent/STIM_024.jpg
1611.254	0.897	correct	incongruent	Block2	incongruent/STIM_024.jpg
1616.061	0.594	correct	incongruent	Block2	incongruent/STIM_024.jpg
1619.075	1.036	correct	incongruent	Block2	incongruent/STIM_024.jpg
1623.471	0.856	correct	incongruent	Block2	incongruent/STIM_024.jpg
1626.77	0.684	correct	incongruent	Block2	incongruent/STIM_025.jpg
1629.844	0.619	correct	incongruent	Block2	incongruent/STIM_025.jpg
1633.579	0.927	incorrect	incongruent	Block2	incongruent/STIM_025.jpg
1638.067	0.579	correct	incongruent	Block2	incongruent/STIM_025.jpg
1641.876	0.813	correct	incongruent	Block2	incongruent/STIM_025.jpg
1645.832	0.736	correct	incongruent	Block2	incongruent/STIM_026.jpg
1650.13	0.794	correct	incongruent	Block2	incongruent/STIM_026.jpg
1653.505	0.661	correct	incongruent	Block2	incongruent/STIM_026.jpg
1656.184	1.003	correct	incongruent	Block2	incongruent/STIM_026.jpg
1659.297	0.899	correct	incongruent	Block2	incongruent/STIM_026.jpg
1663.656	0.638	correct	incongruent	Block2	incongruent/STIM_027.jpg
1666.963	0.591	correct	incongruent	Block2	incongruent/STIM_027.jpg
1671.244	0.811	correct	incongruent	Block2	incongruent/STIM_027.jpg
1674.697	0.873	correct	incongruent	Block2	incongruent/STIM_027.jpg
1679.168	1.008	correct	incongruent	Block2	incongruent/STIM_027.jpg
1684.108	0.916	correct	incongruent	Block2	incongruent/STIM_028.jpg
1687.518	0.894	correct	incongruent	Block2	incongruent/STIM_028.jpg
1691.755	0.677	correct	incongruent	Block2	incongruent/STIM_028.jpg
1696.118	1.009	correct	incongruent	Block2	incongruent/STIM_028.jpg
1699.901	0.971	correct	incongruent	Block2	incongruent/STIM_028.jpg
1703.248	0.866	correct	incongruent	Block2	incongruent/STIM_029.jpg
1707.764	1.042	correct	incongruent	Block2	incongruent/STIM_029.jpg
1711.645	0.889	correct	incongruent	Block2	incongruent/STIM_029.jpg
1714.971	1.028	correct	incongruent	Block2	incongruent/STIM_029.jpg
1719.748	0.992	correct	incongruent	Block2	incongruent/STIM_029.jpg
1723.302	0.798	correct	congruent	Block2	congruent/STIM_000.jpg
1726.676	0.636	correct	congruent	Block2	congruent/STIM_000.jpg
1730.012	0.89	correct	congruent	Block2	congruent/STIM_000.jpg
1734.462	0.618	correct	congruent	Block2	congruent/STIM_000.jpg
1737.86	0.684	correct	congruent	Block2	congruent/STIM_000.jpg
1741.166	0.595	correct	congruent	Block2	congruent/STIM_001.jpg
1745.672	0.633	correct	congruent	Block2	congruent/STIM_001.jpg
1748.545	0.614	correct	congruent	Block2	congruent/STIM_001.jpg
1752.654	0.692	correct	congruent	Block2	congruent/STIM_001.jpg
1756.938	0.816	correct	congruent	Block2	congruent/STIM_001.jpg
1760.966	0.502	correct	congruent	Block2	congruent/STIM_002.jpg
1764.06	0.859	correct	congruent	Block2	congruent/STIM_002.jpg
1767.111	0.702	correct	congruent	Block2	congruent/STIM_002.jpg
1771.675	0.774	correct	congruent	Block2	congruent/STIM_002.jpg
1775.907	0.872	correct	congruent	Block2	congruent/STIM_002.jpg
1780.123	0.778	correct	congruent	Block2	congruent/STIM_003.jpg
1783.17	0.776	correct	congruent	Block2	congruent/STIM_003.jpg
1786.653	0.525	correct	congruent	Block2	congruent/STIM_003.jpg
1790.252	0.556	correct	congruent	Block2	congruent/STIM_003.jpg
1793.446	0.797	correct	congruent	Block2	congruent/STIM_003.jpg
1798.12	0.847	correct	congruent	Block2	congruent/STIM_004.jpg
1801.734	0.506	correct	congruent	Block2	congruent/STIM_004.jpg
1804.273	0.797	correct	congruent	Block2	congruent/STIM_004.jpg
1807.312	0.696	correct	congruent	Block2	congruent/STIM_004.jpg
1810.959	0.869	correct	congruent	Block2	congruent/STIM_004.jpg
1814.926	0.716	correct	congruent	Block2	congruent/STIM_005.jpg
1818.393	0.788	correct	congruent	Block2	congruent/STIM_005.jpg
1821.209	0.878	correct	congruent	Block2	congruent/STIM_005.jpg
1824.475	0.67	correct	congruent	Block2	congruent/STIM_005.jpg
1827.646	0.707	correct	congruent	Block2	congruent/STIM_005.jpg
1831.423	0.616	correct	congruent	Block2	congruent/STIM_006.jpg
1834.801	0.548	correct	congruent	Block2	congruent/STIM_006.jpg
1838.596	0.636	correct	congruent	Block2	congruent/STIM_006.jpg
1841.495	0.74	correct	congruent	Block2	congruent/STIM_006.jpg
1846.054	0.763	incorrect	congruent	Block2	congruent/STIM_006.jpg
1849.32	0.518	correct	congruent	Block2	congruent/STIM_007.jpg
1853.405	0.642	correct	congruent	Block2	congruent/STIM_007.jpg
1857.745	0.78	correct	congruent	Block2	congruent/STIM_007.jpg
1861.823	0.865	correct	congruent	Block2	congruent/STIM_007.jpg
1865.856	0.729	correct	congruent	Block2	congruent/STIM_007.jpg
1869.302	0.658	correct	congruent	Block2	congruent/STIM_008.jpg
1873.043	0.639	correct	congruent	Block2	congruent/STIM_008.jpg
1876.537	0.877	correct	congruent	Block2	congruent/STIM_008.jpg
1881.205	0.829	correct	congruent	Block2	congruent/STIM_008.jpg
1885.25	0.554	correct	congruent	Block2	congruent/STIM_008.jpg
1888.101	0.836	correct	congruent	Block2	congruent/STIM_009.jpg
1891.505	0.712	correct	congruent	Block2	congruent/STIM_009.jpg
1895.931	0.876	correct	congruent	Block2	congruent/STIM_009.jpg
1899.87	0.836	correct	congruent	Block2	congruent/STIM_009.jpg
1903.817	0.847	correct	congruent	Block2	congruent/STIM_009.jpg
1907.993	0.572	correct	congruent	Block2	congruent/STIM_010.jpg
1911.273	0.522	correct	congruent	Block2	congruent/STIM_010.jpg
1915.294	0.619	correct	congruent	Block2	congruent/STIM_010.jpg
1918.025	0.539	correct	congruent	Block2	congruent/STIM_010.jpg
1922.106	0.639	correct	congruent	Block2	congruent/STIM_010.jpg
1925.72	0.59	correct	congruent	Block2	congruent/STIM_011.jpg
1929.248	0.882	correct	congruent	Block2	congruent/STIM_011.jpg
1932.52	0.685	correct	congruent	Block2	congruent/STIM_011.jpg
1936.911	0.552	correct	congruent	Block2	congruent/STIM_011.jpg
1939.915	0.818	correct	congruent	Block2	congruent/STIM_011.jpg
1944.189	0.777	correct	congruent	Block2	congruent/STIM_012.jpg
1948.107	0.5	correct	congruent	Block2	congruent/STIM_012.jpg
1952.517	0.662	correct	congruent	Block2	congruent/STIM_012.jpg
1956.345	0.654	correct	congruent	Block2	congruent/STIM_012.jpg
1959.079	0.842	correct	congruent	Block2	congruent/STIM_012.jpg
1963.427	0.764	correct	congruent	Block2	congruent/STIM_013.jpg
1966.5	0.553	correct	congruent	Block2	congruent/STIM_013.jpg
1970.121	0.747	correct	congruent	Block2	congruent/STIM_013.jpg
1974.061	0.618	correct	congruent	Block2	congruent/STIM_013.jpg
1977.534	0.675	incorrect	congruent	Block2	congruent/STIM_013.jpg
1980.737	0.53	correct	congruent	Block2	congruent/STIM_014.jpg
1984.227	0.552	correct	congruent	Block2	congruent/STIM_014.jpg
1986.928	0.796	correct	congruent	Block2	congruent/STIM_014.jpg
1990.058	0.558	correct	congruent	Block2	congruent/STIM_014.jpg
1993.205	0.819	correct	congruent	Block2	congruent/STIM_014.jpg
1997.437	0.852	correct	congruent	Block2	congruent/STIM_015.jpg
2001.753	0.756	correct	congruent	Block2	congruent/STIM_015.jpg
2006.24	0.557	correct	congruent	Block2	congruent/STIM_015.jpg
2008.956	0.701	correct	congruent	Block2	congruent/STIM_015.jpg
2013.456	0.616	correct	congruent	Block2	congruent/STIM_015.jpg
2017.635	0.59	correct	congruent	Block2	congruent/STIM_016.jpg
2020.832	0.808	incorrect	congruent	Block2	congruent/STIM_016.jpg
2025.11	0.613	correct	congruent	Block2	congruent/STIM_016.jpg
2029.256	0.713	correct	congruent	Block2	congruent/STIM_016.jpg
2031.999	0.618	correct	congruent	Block2	congruent/STIM_016.jpg
2035.749	0.872	correct	congruent	Block2	congruent/STIM_017.jpg
2038.917	0.868	correct	congruent	Block2	congruent/STIM_017.jpg
2042.25	0.865	correct	congruent	Block2	congruent/STIM_017.jpg
2045.164	0.861	correct	congruent	Block2	congruent/STIM_017.jpg
2048.287	0.515	correct	congruent	Block2	congruent/STIM_017.jpg
2052.584	0.775	correct	congruent	Block2	congruent/STIM_018.jpg
2055.969	0.815	correct	congruent	Block2	congruent/STIM_018.jpg
2060.082	0.663	correct	congruent	Block2	congruent/STIM_018.jpg
2063.219	0.705	correct	congruent	Block2	congruent/STIM_018.jpg
2067.834	0.827	correct	congruent	Block2	congruent/STIM_018.jpg
2070.873	0.569	correct	congruent	Block2	congruent/STIM_019.jpg
2073.686	0.611	correct	congruent	Block2	congruent/STIM_019.jpg
2077.792	0.651	correct	congruent	Block2	congruent/STIM_019.jpg
2080.458	0.786	correct	congruent	Block2	congruent/STIM_019.jpg
2084.814	0.703	correct	congruent	Block2	congruent/STIM_019.jpg
2088.326	0.758	correct	congruent	Block2	congruent/STIM_020.jpg
2092.17	0.635	correct	congruent	Block2	congruent/STIM_020.jpg
2095.011	0.543	correct	congruent	Block2	congruent/STIM_020.jpg
2099.526	0.72	correct	congruent	Block2	congruent/STIM_020.jpg
2103.905	0.887	correct	congruent	Block2	congruent/STIM_020.jpg
2107.781	0.557	correct	congruent	Block2	congruent/STIM_021.jpg
2110.733	0.546	correct	congruent	Block2	congruent/STIM_021.jpg
2115.224	0.693	correct	congruent	Block2	congruent/STIM_021.jpg
2118.388	0.651	correct	congruent	Block2	congruent/STIM_021.jpg
2121.558	0.641	correct	congruent	Block2	congruent/STIM_021.jpg
2125.779	0.583	correct	congruent	Block2	congruent/STIM_022.jpg
2128.444	0.538	correct	congruent	Block2	congruent/STIM_022.jpg
2131.67	0.658	correct	congruent	Block2	congruent/STIM_022.jpg
2135.801	0.834	correct	congruent	Block2	congruent/STIM_022.jpg
2138.643	0.531	correct	congruent	Block2	congruent/STIM_022.jpg
2142.203	0.878	correct	congruent	Block2	congruent/STIM_023.jpg
2145.564	0.735	correct	congruent	Block2	congruent/STIM_023.jpg
2150.003	0.535	correct	congruent	Block2	congruent/STIM_023.jpg
2153.408	0.713	correct	congruent	Block2	congruent/STIM_023.jpg
2157.351	0.624	correct	congruent	Block2	congruent/STIM_023.jpg
2160.814	0.707	correct	congruent	Block2	congruent/STIM_024.jpg
2165.416	0.714	correct	congruent	Block2	congruent/STIM_024.jpg
2169.967	0.842	correct	congruent	Block2	congruent/STIM_024.jpg
2174.151	0.635	correct	congruent	Block2	congruent/STIM_024.jpg
2178.594	0.704	correct	congruent	Block2	congruent/STIM_024.jpg
2182.153	0.65	correct	congruent	Block2	congruent/STIM_025.jpg
2186.177	0.746	correct	congruent	Block2	congruent/STIM_025.jpg
2190.572	0.656	correct	congruent	Block2	congruent/STIM_025.jpg
2193.251	0.615	correct	congruent	Block2	congruent/STIM_025.jpg
2197.031	0.677	correct	congruent	Block2	congruent/STIM_025.jpg
2201.599	0.862	correct	congruent	Block2	congruent/STIM_026.jpg
2204.954	0.629	correct	congruent	Block2	congruent/STIM_026.jpg
2207.752	0.839	correct	congruent	Block2	congruent/STIM_026.jpg
2212.363	0.734	correct	congruent	Block2	congruent/STIM_026.jpg
2215.484	0.756	correct	congruent	Block2	congruent/STIM_026.jpg
2219.246	0.754	correct	congruent	Block2	congruent/STIM_027.jpg
2222.919	0.517	correct	congruent	Block2	congruent/STIM_027.jpg
2225.711	0.839	correct	congruent	Block2	congruent/STIM_027.jpg
2229.282	0.876	correct	congruent	Block2	congruent/STIM_027.jpg
2232.702	0.787	correct	congruent	Block2	congruent/STIM_027.jpg
2237.328	0.843	correct	congruent	Block2	congruent/STIM_028.jpg
2241.321	0.782	correct	congruent	Block2	congruent/STIM_028.jpg
2245.348	0.738	correct	congruent	Block2	congruent/STIM_028.jpg
2248.666	0.886	correct	congruent	Block2	congruent/STIM_028.jpg
2251.611	0.849	correct	congruent	Block2	congruent/STIM_028.jpg
2254.78	0.758	correct	congruent	Block2	congruent/STIM_029.jpg
2257.595	0.563	correct	congruent	Block2	congruent/STIM_029.jpg
2261.913	0.782	correct	congruent	Block2	congruent/STIM_029.jpg
2264.945	0.649	correct	congruent	Block2	congruent/STIM_029.jpg
2269.352	0.745	correct	congruent	Block2	congruent/STIM_029.jpg
2273.285	0.685	correct	incongruent	Block3	incongruent/STIM_000.jpg
2277.634	0.621	correct	incongruent	Block3	incongruent/STIM_000.jpg
2280.93	0.646	correct	incongruent	Block3	incongruent/STIM_000.jpg
2284.092	0.862	correct	incongruent	Block3	incongruent/STIM_000.jpg
2287.357	0.909	correct	incongruent	Block3	incongruent/STIM_000.jpg
2292.233	0.486	correct	incongruent	Block3	incongruent/STIM_001.jpg
2295.856	0.964	correct	incongruent	Block3	incongruent/STIM_001.jpg
2299.58	0.677	correct	incongruent	Block3	incongruent/STIM_001.jpg
2302.826	0.551	correct	incongruent	Block3	incongruent/STIM_001.jpg
2306.17	0.693	correct	incongruent	Block3	incongruent/STIM_001.jpg
2310.725	0.668	correct	incongruent	Block3	incongruent/STIM_002.jpg
2313.599	0.717	correct	incongruent	Block3	incongruent/STIM_002.jpg
2316.721	0.713	correct	incongruent	Block3	incongruent/STIM_002.jpg
2320.912	0.628	correct	incongruent	Block3	incongruent/STIM_002.jpg
2324.3	0.988	correct	incongruent	Block3	incongruent/STIM_002.jpg
2328.146	0.682	correct	incongruent	Block3	incongruent/STIM_003.jpg
2332.74	0.654	incorrect	incongruent	Block3	incongruent/STIM_003.jpg
2335.793	0.548	correct	incongruent	Block3	incongruent/STIM_003.jpg
2339.997	0.597	correct	incongruent	Block3	incongruent/STIM_003.jpg
2344.298	0.816	correct	incongruent	Block3	incongruent/STIM_003.jpg
2347.529	0.84	correct	incongruent	Block3	incongruent/STIM_004.jpg
2352.299	0.859	correct	incongruent	Block3	incongruent/STIM_004.jpg
2356.944	0.582	correct	incongruent	Block3	incongruent/STIM_004.jpg
2360.802	1.005	correct	incongruent	Block3	incongruent/STIM_004.jpg
2365.633	0.551	correct	incongruent	Block3	incongruent/STIM_004.jpg
2369.664	0.724	correct	incongruent	Block3	incongruent/STIM_005.jpg
2373.551	0.872	correct	incongruent	Block3	incongruent/STIM_005.jpg
2376.708	0.814	correct	incongruent	Block3	incongruent/STIM_005.jpg
2381.353	0.901	correct	incongruent	Block3	incongruent/STIM_005.jpg
2386.199	0.645	correct	incongruent	Block3	incongruent/STIM_005.jpg
2389.694	1.035	correct	incongruent	Block3	incongruent/STIM_006.jpg
2394.723	0.668	correct	incongruent	Block3	incongruent/STIM_006.jpg
2397.684	0.873	correct	incongruent	Block3	incongruent/STIM_006.jpg
2402.154	0.953	correct	incongruent	Block3	incongruent/STIM_006.jpg
2405.424	0.521	correct	incongruent	Block3	incongruent/STIM_006.jpg
2409.806	0.643	incorrect	incongruent	Block3	incongruent/STIM_007.jpg
2414.039	0.594	correct	incongruent	Block3	incongruent/STIM_007.jpg
2417.569	0.998	correct	incongruent	Block3	incongruent/STIM_007.jpg
2421.134	0.644	correct	incongruent	Block3	incongruent/STIM_007.jpg
2425.72	0.67	correct	incongruent	Block3	incongruent/STIM_007.jpg
2428.962	0.694	correct	incongruent	Block3	incongruent/STIM_008.jpg
2433.121	0.563	correct	incongruent	Block3	incongruent/STIM_008.jpg
2437.201	0.579	correct	incongruent	Block3	incongruent/STIM_008.jpg
2441.14	0.75	correct	incongruent	Block3	incongruent/STIM_008.jpg
2444.458	0.608	correct	incongruent	Block3	incongruent/STIM_008.jpg
2448.937	0.59	correct	incongruent	Block3	incongruent/STIM_009.jpg
2451.553	0.758	correct	incongruent	Block3	incongruent/STIM_009.jpg
2456.259	0.759	correct	incongruent	Block3	incongruent/STIM_009.jpg
2460.346	0.932	correct	incongruent	Block3	incongruent/STIM_009.jpg
2463.35	0.871	correct	incongruent	Block3	incongruent/STIM_009.jpg
2466.757	0.641	correct	incongruent	Block3	incongruent/STIM_010.jpg
2471.249	0.542	correct	incongruent	Block3	incongruent/STIM_010.jpg
2474.021	0.486	correct	incongruent	Block3	incongruent/STIM_010.jpg
2477.858	0.996	correct	incongruent	Block3	incongruent/STIM_010.jpg
2482.17	0.494	correct	incongruent	Block3	incongruent/STIM_010.jpg
2485.35	0.536	correct	incongruent	Block3	incongruent/STIM_011.jpg
2489.42	0.851	correct	incongruent	Block3	incongruent/STIM_011.jpg
2494.138	1.029	correct	incongruent	Block3	incongruent/STIM_011.jpg
2498.301	0.657	correct	incongruent	Block3	incongruent/STIM_011.jpg
2502.422	0.703	correct	incongruent	Block3	incongruent/STIM_011.jpg
2506.938	0.697	correct	incongruent	Block3	incongruent/STIM_012.jpg
2511.638	0.949	correct	incongruent	Block3	incongruent/STIM_012.jpg
2514.97	0.491	correct	incongruent	Block3	incongruent/STIM_012.jpg
2519.069	0.634	correct	incongruent	Block3	incongruent/STIM_012.jpg
2522.061	0.625	correct	incongruent	Block3	incongruent/STIM_012.jpg
2525.927	0.715	correct	incongruent	Block3	incongruent/STIM_013.jpg
2528.664	0.826	correct	incongruent	Block3	incongruent/STIM_013.jpg
2532.244	0.927	correct	incongruent	Block3	incongruent/STIM_013.jpg
2535.381	0.847	correct	incongruent	Block3	incongruent/STIM_013.jpg
2539.635	0.5	correct	incongruent	Block3	incongruent/STIM_013.jpg
2543.834	0.837	correct	incongruent	Block3	incongruent/STIM_014.jpg
2547.942	0.512	correct	incongruent	Block3	incongruent/STIM_014.jpg
2552.202	0.963	correct	incongruent	Block3	incongruent/STIM_014.jpg
2555.738	0.828	correct	incongruent	Block3	incongruent/STIM_014.jpg
2558.864	0.812	correct	incongruent	Block3	incongruent/STIM_014.jpg
2561.82	0.767	correct	incongruent	Block3	incongruent/STIM_015.jpg
2564.686	0.687	correct	incongruent	Block3	incongruent/STIM_015.jpg
2568.753	0.514	correct	incongruent	Block3	incongruent/STIM_015.jpg
2571.315	0.717	correct	incongruent	Block3	incongruent/STIM_015.jpg
2575.636	0.77	correct	incongruent	Block3	incongruent/STIM_015.jpg
2579.934	0.822	correct	incongruent	Block3	incongruent/STIM_016.jpg
2582.965	0.896	correct	incongruent	Block3	incongruent/STIM_016.jpg
2587.035	0.881	correct	incongruent	Block3	incongruent/STIM_016.jpg
2591.174	0.813	correct	incongruent	Block3	incongruent/STIM_016.jpg
2595.833	0.555	correct	incongruent	Block3	incongruent/STIM_016.jpg
2599.952	0.834	correct	incongruent	Block3	incongruent/STIM_017.jpg
2603.107	1.0	correct	incongruent	Block3	incongruent/STIM_017.jpg
2607.091	0.979	correct	incongruent	Block3	incongruent/STIM_017.jpg
2610.199	0.852	correct	incongruent	Block3	incongruent/STIM_017.jpg
2613.655	0.761	correct	incongruent	Block3	incongruent/STIM_017.jpg
2616.682	0.812	correct	incongruent	Block3	incongruent/STIM_018.jpg
2620.466	1.008	correct	incongruent	Block3	incongruent/STIM_018.jpg
2623.791	0.848	correct	incongruent	Block3	incongruent/STIM_018.jpg
2627.879	0.918	correct	incongruent	Block3	incongruent/STIM_018.jpg
2631.107	0.971	correct	incongruent	Block3	incongruent/STIM_018.jpg
2635.156	0.833	correct	incongruent	Block3	incongruent/STIM_019.jpg
2639.407	0.726	correct	incongruent	Block3	incongruent/STIM_019.jpg
2643.714	0.875	correct	incongruent	Block3	incongruent/STIM_019.jpg
2647.462	0.588	correct	incongruent	Block3	incongruent/STIM_019.jpg
2651.906	0.49	correct	incongruent	Block3	incongruent/STIM_019.jpg
2655.527	0.705	correct	incongruent	Block3	incongruent/STIM_020.jpg
2658.42	0.937	correct	incongruent	Block3	incongruent/STIM_020.jpg
2663.277	0.807	correct	incongruent	Block3	incongruent/STIM_020.jpg
2666.79	1.022	correct	incongruent	Block3	incongruent/STIM_020.jpg
2671.447	0.873	correct	incongruent	Block3	incongruent/STIM_020.jpg
2674.615	0.489	correct	incongruent	Block3	incongruent/STIM_021.jpg
2678.745	0.849	correct	incongruent	Block3	incongruent/STIM_021.jpg
2681.975	1.009	correct	incongruent	Block3	incongruent/STIM_021.jpg
2685.405	0.5	correct	incongruent	Block3	incongruent/STIM_021.jpg
2689.237	0.945	correct	incongruent	Block3	incongruent/STIM_021.jpg
2693.016	0.524	correct	incongruent	Block3	incongruent/STIM_022.jpg
2695.956	0.891	correct	incongruent	Block3	incongruent/STIM_022.jpg
2700.556	0.62	correct	incongruent	Block3	incongruent/STIM_022.jpg
2704.052	0.53	correct	incongruent	Block3	incongruent/STIM_022.jpg
2707.179	0.63	correct	incongruent	Block3	incongruent/STIM_022.jpg
2710.535	0.505	correct	incongruent	Block3	incongruent/STIM_023.jpg
2713.491	0.542	correct	incongruent	Block3	incongruent/STIM_023.jpg
2717.458	1.022	correct	incongruent	Block3	incongruent/STIM_023.jpg
2722.141	0.675	correct	incongruent	Block3	incongruent/STIM_023.jpg
2725.366	0.742	correct	incongruent	Block3	incongruent/STIM_023.jpg
2729.432	0.805	correct	incongruent	Block3	incongruent/STIM_024.jpg
2733.499	0.728	correct	incongruent	Block3	incongruent/STIM_024.jpg
2737.012	1.017	correct	incongruent	Block3	incongruent/STIM_024.jpg
2740.448	0.726	correct	incongruent	Block3	incongruent/STIM_024.jpg
2743.465	0.874	correct	incongruent	Block3	incongruent/STIM_024.jpg
2746.437	0.946	correct	incongruent	Block3	incongruent/STIM_025.jpg
2751.018	0.673	correct	incongruent	Block3	incongruent/STIM_025.jpg
2754.039	0.488	correct	incongruent	Block3	incongruent/STIM_025.jpg
2758.428	0.581	correct	incongruent	Block3	incongruent/STIM_025.jpg
2762.982	0.711	correct	incongruent	Block3	incongruent/STIM_025.jpg
2765.976	0.714	correct	incongruent	Block3	incongruent/STIM_026.jpg
2770.419	0.605	correct	incongruent	Block3	incongruent/STIM_026.jpg
2773.641	1.012	correct	incongruent	Block3	incongruent/STIM_026.jpg
2777.956	0.664	correct	incongruent	Block3	incongruent/STIM_026.jpg
2780.935	0.574	correct	incongruent	Block3	incongruent/STIM_026.jpg
2783.546	0.674	correct	incongruent	Block3	incongruent/STIM_027.jpg
2786.256	0.993	correct	incongruent	Block3	incongruent/STIM_027.jpg
2791.008	0.692	correct	incongruent	Block3	incongruent/STIM_027.jpg
2794.362	0.865	correct	incongruent	Block3	incongruent/STIM_027.jpg
2797.681	0.699	correct	incongruent	Block3	incongruent/STIM_027.jpg
2802.255	1.03	correct	incongruent	Block3	incongruent/STIM_028.jpg
2806.49	0.917	correct	incongruent	Block3	incongruent/STIM_028.jpg
2811.127	0.546	correct	incongruent	Block3	incongruent/STIM_028.jpg
2813.732	0.876	correct	incongruent	Block3	incongruent/STIM_028.jpg
2817.203	0.775	correct	incongruent	Block3	incongruent/STIM_028.jpg
2820.384	1.013	correct	incongruent	Block3	incongruent/STIM_029.jpg
2823.901	0.826	correct	incongruent	Block3	incongruent/STIM_029.jpg
2827.223	1.035	correct	incongruent	Block3	incongruent/STIM_029.jpg
2831.31	0.734	correct	incongruent	Block3	incongruent/STIM_029.jpg
2834.891	0.602	correct	incongruent	Block3	incongruent/STIM_029.jpg
2837.608	0.772	correct	congruent	Block3	congruent/STIM_000.jpg
2841.086	0.793	correct	congruent	Block3	congruent/STIM_000.jpg
2845.564	0.56	correct	congruent	Block3	congruent/STIM_000.jpg
2850.105	0.588	correct	congruent	Block3	congruent/STIM_000.jpg
2853.944	0.87	correct	congruent	Block3	congruent/STIM_000.jpg
2857.152	0.535	correct	congruent	Block3	congruent/STIM_001.jpg
2860.366	0.664	correct	congruent	Block3	congruent/STIM_001.jpg
2863.949	0.71	correct	congruent	Block3	congruent/STIM_001.jpg
2866.823	0.516	correct	congruent	Block3	congruent/STIM_001.jpg
2869.389	0.571	correct	congruent	Block3	congruent/STIM_001.jpg
2873.381	0.771	correct	congruent	Block3	congruent/STIM_002.jpg
2877.908	0.682	correct	congruent	Block3	congruent/STIM_002.jpg
2882.287	0.823	correct	congruent	Block3	congruent/STIM_002.jpg
2885.143	0.522	incorrect	congruent	Block3	congruent/STIM_002.jpg
2887.98	0.879	correct	congruent	Block3	congruent/STIM_002.jpg
2891.915	0.578	correct	congruent	Block3	congruent/STIM_003.jpg
2895.592	0.808	correct	congruent	Block3	congruent/STIM_003.jpg
2898.997	0.624	correct	congruent	Block3	congruent/STIM_003.jpg
2903.53	0.844	correct	congruent	Block3	congruent/STIM_003.jpg
2907.219	0.816	correct	congruent	Block3	congruent/STIM_003.jpg
2911.111	0.856	correct	congruent	Block3	congruent/STIM_004.jpg
2914.765	0.801	correct	congruent	Block3	congruent/STIM_004.jpg
2919.171	0.65	correct	congruent	Block3	congruent/STIM_004.jpg
2923.826	0.621	incorrect	congruent	Block3	congruent/STIM_004.jpg
2927.901	0.61	correct	congruent	Block3	congruent/STIM_004.jpg
2931.97	0.759	correct	congruent	Block3	congruent/STIM_005.jpg
2936.548	0.678	correct	congruent	Block3	congruent/STIM_005.jpg
2939.254	0.53	correct	congruent	Block3	congruent/STIM_005.jpg
2941.859	0.55	correct	congruent	Block3	congruent/STIM_005.jpg
2945.113	0.75	correct	congruent	Block3	congruent/STIM_005.jpg
2947.933	0.753	correct	congruent	Block3	congruent/STIM_006.jpg
2951.06	0.864	correct	congruent	Block3	congruent/STIM_006.jpg
2954.749	0.644	correct	congruent	Block3	congruent/STIM_006.jpg
2958.541	0.873	correct	congruent	Block3	congruent/STIM_006.jpg
2961.546	0.833	correct	congruent	Block3	congruent/STIM_006.jpg
2965.756	0.648	correct	congruent	Block3	congruent/STIM_007.jpg
2970.05	0.508	correct	congruent	Block3	congruent/STIM_007.jpg
2973.445	0.547	incorrect	congruent	Block3	congruent/STIM_007.jpg
2977.391	0.72	correct	congruent	Block3	congruent/STIM_007.jpg
2980.314	0.63	correct	congruent	Block3	congruent/STIM_007.jpg
2984.894	0.533	correct	congruent	Block3	congruent/STIM_008.jpg
2988.084	0.799	incorrect	congruent	Block3	congruent/STIM_008.jpg
2991.695	0.79	correct	congruent	Block3	congruent/STIM_008.jpg
2995.976	0.538	correct	congruent	Block3	congruent/STIM_008.jpg
3000.512	0.641	correct	congruent	Block3	congruent/STIM_008.jpg
3004.216	0.523	correct	congruent	Block3	congruent/STIM_009.jpg
3007.371	0.722	correct	congruent	Block3	congruent/STIM_009.jpg
3011.158	0.855	correct	congruent	Block3	congruent/STIM_009.jpg
3015.193	0.891	correct	congruent	Block3	congruent/STIM_009.jpg
3018.418	0.535	correct	congruent	Block3	congruent/STIM_009.jpg
3021.86	0.83	correct	congruent	Block3	congruent/STIM_010.jpg
3026.158	0.578	correct	congruent	Block3	congruent/STIM_010.jpg
3030.382	0.808	correct	congruent	Block3	congruent/STIM_010.jpg
3033.511	0.852	correct	congruent	Block3	congruent/STIM_010.jpg
3038.046	0.548	correct	congruent	Block3	congruent/STIM_010.jpg
3041.992	0.812	correct	congruent	Block3	congruent/STIM_011.jpg
3045.365	0.557	correct	congruent	Block3	congruent/STIM_011.jpg
3048.286	0.626	correct	congruent	Block3	congruent/STIM_011.jpg
3051.806	0.675	correct	congruent	Block3	congruent/STIM_011.jpg
3054.92	0.72	correct	congruent	Block3	congruent/STIM_011.jpg
3057.686	0.496	correct	congruent	Block3	congruent/STIM_012.jpg
3060.446	0.89	correct	congruent	Block3	congruent/STIM_012.jpg
3064.53	0.763	correct	congruent	Block3	congruent/STIM_012.jpg
3068.71	0.888	correct	congruent	Block3	congruent/STIM_012.jpg
3072.675	0.629	correct	congruent	Block3	congruent/STIM_012.jpg
3076.9	0.786	correct	congruent	Block3	congruent/STIM_013.jpg
3080.781	0.706	correct	congruent	Block3	congruent/STIM_013.jpg
3084.141	0.56	correct	congruent	Block3	congruent/STIM_013.jpg
3086.888	0.581	correct	congruent	Block3	congruent/STIM_013.jpg
3090.99	0.844	correct	congruent	Block3	congruent/STIM_013.jpg
3094.65	0.52	correct	congruent	Block3	congruent/STIM_014.jpg
3097.255	0.811	correct	congruent	Block3	congruent/STIM_014.jpg
3101.525	0.621	incorrect	congruent	Block3	congruent/STIM_014.jpg
3105.868	0.869	correct	congruent	Block3	congruent/STIM_014.jpg
3109.779	0.817	correct	congruent	Block3	congruent/STIM_014.jpg
3113.128	0.804	correct	congruent	Block3	congruent/STIM_015.jpg
3117.469	0.671	correct	congruent	Block3	congruent/STIM_015.jpg
3121.588	0.6	correct	congruent	Block3	congruent/STIM_015.jpg
3124.662	0.518	correct	congruent	Block3	congruent/STIM_015.jpg
3129.101	0.627	correct	congruent	Block3	congruent/STIM_015.jpg
3132.989	0.884	correct	congruent	Block3	congruent/STIM_016.jpg
3136.604	0.717	correct	congruent	Block3	congruent/STIM_016.jpg
3140.507	0.688	correct	congruent	Block3	congruent/STIM_016.jpg
3144.741	0.604	correct	congruent	Block3	congruent/STIM_016.jpg
3148.068	0.639	correct	congruent	Block3	congruent/STIM_016.jpg
3152.24	0.724	correct	congruent	Block3	congruent/STIM_017.jpg
3155.049	0.66	correct	congruent	Block3	congruent/STIM_017.jpg
3159.28	0.782	correct	congruent	Block3	congruent/STIM_017.jpg
3162.536	0.72	correct	congruent	Block3	congruent/STIM_017.jpg
3165.472	0.803	correct	congruent	Block3	congruent/STIM_017.jpg
3169.262	0.574	correct	congruent	Block3	congruent/STIM_018.jpg
3172.314	0.592	correct	congruent	Block3	congruent/STIM_018.jpg
3175.012	0.677	correct	congruent	Block3	congruent/STIM_018.jpg
3178.355	0.873	correct	congruent	Block3	congruent/STIM_018.jpg
3181.846	0.608	correct	congruent	Block3	congruent/STIM_018.jpg
3185.089	0.832	correct	congruent	Block3	congruent/STIM_019.jpg
3188.158	0.715	correct	congruent	Block3	congruent/STIM_019.jpg
3192.721	0.632	correct	congruent	Block3	congruent/STIM_019.jpg
3196.545	0.826	correct	congruent	Block3	congruent/STIM_019.jpg
3200.697	0.751	correct	congruent	Block3	congruent/STIM_019.jpg
3205.311	0.617	correct	congruent	Block3	congruent/STIM_020.jpg
3209.371	0.624	correct	congruent	Block3	congruent/STIM_020.jpg
3213.728	0.627	correct	congruent	Block3	congruent/STIM_020.jpg
3217.498	0.622	correct	congruent	Block3	congruent/STIM_020.jpg
3221.757	0.72	correct	congruent	Block3	congruent/STIM_020.jpg
3225.339	0.721	correct	congruent	Block3	congruent/STIM_021.jpg
3228.979	0.62	correct	congruent	Block3	congruent/STIM_021.jpg
3232.528	0.538	correct	congruent	Block3	congruent/STIM_021.jpg
3235.622	0.855	correct	congruent	Block3	congruent/STIM_021.jpg
3239.182	0.642	correct	congruent	Block3	congruent/STIM_021.jpg
3242.424	0.672	correct	congruent	Block3	congruent/STIM_022.jpg
3245.603	0.52	correct	congruent	Block3	congruent/STIM_022.jpg
3248.17	0.619	correct	congruent	Block3	congruent/STIM_022.jpg
3251.156	0.502	correct	congruent	Block3	congruent/STIM_022.jpg
3255.325	0.794	correct	congruent	Block3	congruent/STIM_022.jpg
3258.437	0.593	correct	congruent	Block3	congruent/STIM_023.jpg
3261.93	0.576	correct	congruent	Block3	congruent/STIM_023.jpg
3265.129	0.764	correct	congruent	Block3	congruent/STIM_023.jpg
3268.285	0.717	correct	congruent	Block3	congruent/STIM_023.jpg
3271.46	0.732	correct	congruent	Block3	congruent/STIM_023.jpg
3274.356	0.605	correct	congruent	Block3	congruent/STIM_024.jpg
3277.819	0.532	correct	congruent	Block3	congruent/STIM_024.jpg
3281.312	0.813	correct	congruent	Block3	congruent/STIM_024.jpg
3285.352	0.886	correct	congruent	Block3	congruent/STIM_024.jpg
3289.878	0.766	incorrect	congruent	Block3	congruent/STIM_024.jpg
3294.119	0.741	correct	congruent	Block3	congruent/STIM_025.jpg
3297.622	0.502	correct	congruent	Block3	congruent/STIM_025.jpg
3301.013	0.822	correct	congruent	Block3	congruent/STIM_025.jpg
3304.039	0.662	correct	congruent	Block3	congruent/STIM_025.jpg
3308.357	0.751	correct	congruent	Block3	congruent/STIM_025.jpg
3311.801	0.672	correct	congruent	Block3	congruent/STIM_026.jpg
3316.108	0.589	correct	congruent	Block3	congruent/STIM_026.jpg
3320.319	0.66	correct	congruent	Block3	congruent/STIM_026.jpg
3323.255	0.663	correct	congruent	Block3	congruent/STIM_026.jpg
3326.281	0.659	correct	congruent	Block3	congruent/STIM_026.jpg
3329.23	0.731	correct	congruent	Block3	congruent/STIM_027.jpg
3332.251	0.588	correct	congruent	Block3	congruent/STIM_027.jpg
3334.961	0.838	correct	congruent	Block3	congruent/STIM_027.jpg
3338.959	0.593	correct	congruent	Block3	congruent/STIM_027.jpg
3342.039	0.769	correct	congruent	Block3	congruent/STIM_027.jpg
3345.58	0.574	correct	congruent	Block3	congruent/STIM_028.jpg
3349.22	0.526	correct	congruent	Block3	congruent/STIM_028.jpg
3351.986	0.618	correct	congruent	Block3	congruent/STIM_028.jpg
3354.916	0.673	correct	congruent	Block3	congruent/STIM_028.jpg
3357.634	0.702	correct	congruent	Block3	congruent/STIM_028.jpg
3360.47	0.722	correct	congruent	Block3	congruent/STIM_029.jpg
3363.479	0.872	correct	congruent	Block3	congruent/STIM_029.jpg
3367.557	0.578	correct	congruent	Block3	congruent/STIM_029.jpg
3370.777	0.589	correct	congruent	Block3	congruent/STIM_029.jpg
3373.456	0.841	correct	congruent	Block3	congruent/STIM_029.jpg
