onset	duration	response_time_ms	trial_type	learning_stage	stimulus	response_port
0.0	1.24	1239.5	incongruent	Block1	incongruent/STIM_000.jpg	100
3.309	0.619	619.1	incongruent	Block1	incongruent/STIM_000.jpg	100
6.72	0.88	880.2	incongruent	Block1	incongruent/STIM_000.jpg	100
10.832	0.563	562.9	incongruent	Block1	incongruent/STIM_000.jpg	100
13.771	0.865	864.6	incongruent	Block1	incongruent/STIM_000.jpg	99
17.535	0.909	909.4	incongruent	Block1	incongruent/STIM_001.jpg	100
21.201	1.054	1053.8	incongruent	Block1	incongruent/STIM_001.jpg	99
26.126	1.034	1033.6	incongruent	Block1	incongruent/STIM_001.jpg	100
29.759	0.721	720.7	incongruent	Block1	incongruent/STIM_001.jpg	99
33.936	0.575	575.0	incongruent	Block1	incongruent/STIM_001.jpg	99
37.094	0.691	690.7	incongruent	Block1	incongruent/STIM_002.jpg	100
41.498	0.785	784.7	incongruent	Block1	incongruent/STIM_002.jpg	100
44.388	0.796	796.0	incongruent	Block1	incongruent/STIM_002.jpg	100
48.968	1.027	1026.6	incongruent	Block1	incongruent/STIM_002.jpg	100
53.129	1.055	1055.4	incongruent	Block1	incongruent/STIM_002.jpg	100
57.06	1.133	1133.1	incongruent	Block1	incongruent/STIM_003.jpg	99
61.824	0.734	734.1	incongruent	Block1	incongruent/STIM_003.jpg	100
65.666	0.863	863.1	incongruent	Block1	incongruent/STIM_003.jpg	100
69.227	1.144	1144.4	incongruent	Block1	incongruent/STIM_003.jpg	100
73.904	0.742	741.9	incongruent	Block1	incongruent/STIM_003.jpg	99
77.863	0.914	914.1	incongruent	Block1	incongruent/STIM_004.jpg	99
81.441	1.269	1269.3	incongruent	Block1	incongruent/STIM_004.jpg	100
86.459	1.047	1046.9	incongruent	Block1	incongruent/STIM_004.jpg	99
90.275	0.793	792.7	incongruent	Block1	incongruent/STIM_004.jpg	100
93.866	0.568	567.6	incongruent	Block1	incongruent/STIM_004.jpg	100
98.116	0.857	856.6	incongruent	Block1	incongruent/STIM_005.jpg	99
101.767	1.01	1009.6	incongruent	Block1	incongruent/STIM_005.jpg	99
106.357	1.145	1145.1	incongruent	Block1	incongruent/STIM_005.jpg	100
111.167	1.057	1056.7	incongruent	Block1	incongruent/STIM_005.jpg	99
115.889	1.072	1072.1	incongruent	Block1	incongruent/STIM_005.jpg	99
119.08	1.207	1206.8	incongruent	Block1	incongruent/STIM_006.jpg	100
123.987	0.974	974.1	incongruent	Block1	incongruent/STIM_006.jpg	100
128.399	0.925	924.8	incongruent	Block1	incongruent/STIM_006.jpg	100
132.078	0.729	729.3	incongruent	Block1	incongruent/STIM_006.jpg	99
134.875	0.754	754.3	incongruent	Block1	incongruent/STIM_006.jpg	100
138.698	0.847	846.6	incongruent	Block1	incongruent/STIM_007.jpg	99
143.346	0.602	602.3	incongruent	Block1	incongruent/STIM_007.jpg	100
147.655	1.0	999.8	incongruent	Block1	incongruent/STIM_007.jpg	100
151.891	1.112	1111.5	incongruent	Block1	incongruent/STIM_007.jpg	100
156.925	0.549	549.3	incongruent	Block1	incongruent/STIM_007.jpg	100
159.56	0.641	640.7	incongruent	Block1	incongruent/STIM_008.jpg	99
164.053	0.813	813.4	incongruent	Block1	incongruent/STIM_008.jpg	100
167.944	0.857	856.8	incongruent	Block1	incongruent/STIM_008.jpg	99
171.553	0.96	959.8	incongruent	Block1	incongruent/STIM_008.jpg	100
174.563	0.566	566.4	incongruent	Block1	incongruent/STIM_008.jpg	100
178.841	1.145	1145.3	incongruent	Block1	incongruent/STIM_009.jpg	100
182.804	1.089	1089.4	incongruent	Block1	incongruent/STIM_009.jpg	99
187.33	1.107	1106.7	incongruent	Block1	incongruent/STIM_009.jpg	99
191.691	0.996	995.6	incongruent	Block1	incongruent/STIM_009.jpg	100
194.833	1.062	1061.6	incongruent	Block1	incongruent/STIM_009.jpg	99
199.16	0.838	838.4	incongruent	Block1	incongruent/STIM_010.jpg	100
203.932	1.0	999.8	incongruent	Block1	incongruent/STIM_010.jpg	100
207.26	0.719	719.2	incongruent	Block1	incongruent/STIM_010.jpg	100
211.323	0.923	922.6	incongruent	Block1	incongruent/STIM_010.jpg	100
215.334	0.918	917.9	incongruent	Block1	incongruent/STIM_010.jpg	100
219.632	0.896	895.9	incongruent	Block1	incongruent/STIM_011.jpg	100
222.75	1.135	1134.7	incongruent	Block1	incongruent/STIM_011.jpg	99
227.056	0.832	832.0	incongruent	Block1	incongruent/STIM_011.jpg	99
230.642	0.914	913.8	incongruent	Block1	incongruent/STIM_011.jpg	99
234.936	0.568	568.5	incongruent	Block1	incongruent/STIM_011.jpg	99
238.094	0.689	689.4	incongruent	Block1	incongruent/STIM_012.jpg	99
242.066	1.059	1059.2	incongruent	Block1	incongruent/STIM_012.jpg	100
245.637	1.032	1032.3	incongruent	Block1	incongruent/STIM_012.jpg	100
250.358	0.648	647.7	incongruent	Block1	incongruent/STIM_012.jpg	100
254.057	0.946	946.3	incongruent	Block1	incongruent/STIM_012.jpg	99
258.998	0.957	956.8	incongruent	Block1	incongruent/STIM_013.jpg	99
262.936	0.726	726.2	incongruent	Block1	incongruent/STIM_013.jpg	100
267.513	0.796	796.0	incongruent	Block1	incongruent/STIM_013.jpg	100
272.129	1.072	1071.6	incongruent	Block1	incongruent/STIM_013.jpg	99
276.207	1.051	1051.1	incongruent	Block1	incongruent/STIM_013.jpg	100
280.155	1.012	1012.1	incongruent	Block1	incongruent/STIM_014.jpg	99
284.522	1.176	1175.6	incongruent	Block1	incongruent/STIM_014.jpg	99
289.446	0.647	646.8	incongruent	Block1	incongruent/STIM_014.jpg	100
292.671	0.543	543.2	incongruent	Block1	incongruent/STIM_014.jpg	100
297.172	1.051	1050.9	incongruent	Block1	incongruent/STIM_014.jpg	100
300.639	1.076	1076.0	incongruent	Block1	incongruent/STIM_015.jpg	100
305.124	0.826	826.0	incongruent	Block1	incongruent/STIM_015.jpg	99
308.53	1.001	1000.8	incongruent	Block1	incongruent/STIM_015.jpg	99
312.408	0.902	902.2	incongruent	Block1	incongruent/STIM_015.jpg	100
316.343	0.923	923.4	incongruent	Block1	incongruent/STIM_015.jpg	100
319.707	0.97	970.4	incongruent	Block1	incongruent/STIM_016.jpg	100
324.235	0.905	904.9	incongruent	Block1	incongruent/STIM_016.jpg	100
328.056	1.172	1171.7	incongruent	Block1	incongruent/STIM_016.jpg	99
332.786	0.808	808.3	incongruent	Block1	incongruent/STIM_016.jpg	99
335.772	0.654	654.2	incongruent	Block1	incongruent/STIM_016.jpg	99
339.312	0.755	755.1	incongruent	Block1	incongruent/STIM_017.jpg	99
343.082	1.285	1285.3	incongruent	Block1	incongruent/STIM_017.jpg	100
347.832	0.716	715.6	incongruent	Block1	incongruent/STIM_017.jpg	99
351.453	0.735	735.4	incongruent	Block1	incongruent/STIM_017.jpg	99
355.945	0.718	717.7	incongruent	Block1	incongruent/STIM_017.jpg	100
360.281	0.68	680.1	incongruent	Block1	incongruent/STIM_018.jpg	99
363.956	1.125	1125.0	incongruent	Block1	incongruent/STIM_018.jpg	100
368.98	0.886	886.3	incongruent	Block1	incongruent/STIM_018.jpg	100
372.725	0.828	828.4	incongruent	Block1	incongruent/STIM_018.jpg	100
377.427	0.588	588.3	incongruent	Block1	incongruent/STIM_018.jpg	100
380.741	1.075	1074.6	incongruent	Block1	incongruent/STIM_019.jpg	100
385.265	0.735	735.0	incongruent	Block1	incongruent/STIM_019.jpg	99
389.243	1.088	1087.7	incongruent	Block1	incongruent/STIM_019.jpg	100
393.433	0.99	989.7	incongruent	Block1	incongruent/STIM_019.jpg	99
396.999	0.669	669.1	incongruent	Block1	incongruent/STIM_019.jpg	100
401.212	0.728	727.6	incongruent	Block1	incongruent/STIM_020.jpg	99
405.849	0.67	669.7	incongruent	Block1	incongruent/STIM_020.jpg	100
410.424	0.622	622.3	incongruent	Block1	incongruent/STIM_020.jpg	99
414.139	1.137	1137.3	incongruent	Block1	incongruent/STIM_020.jpg	100
419.236	0.916	916.3	incongruent	Block1	incongruent/STIM_020.jpg	99
423.013	0.883	883.1	incongruent	Block1	incongruent/STIM_021.jpg	100
426.272	1.259	1259.4	incongruent	Block1	incongruent/STIM_021.jpg	99
430.4	1.096	1096.1	incongruent	Block1	incongruent/STIM_021.jpg	99
433.564	0.841	841.2	incongruent	Block1	incongruent/STIM_021.jpg	100
438.258	0.684	684.2	incongruent	Block1	incongruent/STIM_021.jpg	100
442.148	1.234	1234.0	incongruent	Block1	incongruent/STIM_022.jpg	99
447.356	1.276	1275.7	incongruent	Block1	incongruent/STIM_022.jpg	100
450.783	0.906	906.1	incongruent	Block1	incongruent/STIM_022.jpg	100
455.48	0.85	850.1	incongruent	Block1	incongruent/STIM_022.jpg	99
458.495	0.682	681.7	incongruent	Block1	incongruent/STIM_022.jpg	100
461.193	1.275	1275.3	incongruent	Block1	incongruent/STIM_023.jpg	99
465.84	1.277	1276.7	incongruent	Block1	incongruent/STIM_023.jpg	99
469.95	0.592	592.0	incongruent	Block1	incongruent/STIM_023.jpg	99
472.735	0.761	761.3	incongruent	Block1	incongruent/STIM_023.jpg	100
477.02	0.802	802.2	incongruent	Block1	incongruent/STIM_023.jpg	99
480.353	0.914	914.3	incongruent	Block1	incongruent/STIM_024.jpg	100
483.462	1.171	1170.7	incongruent	Block1	incongruent/STIM_024.jpg	100
488.609	1.121	1121.1	incongruent	Block1	incongruent/STIM_024.jpg	100
493.194	0.885	885.3	incongruent	Block1	incongruent/STIM_024.jpg	99
497.933	0.601	600.9	incongruent	Block1	incongruent/STIM_024.jpg	99
501.415	0.791	791.3	incongruent	Block1	incongruent/STIM_025.jpg	99
504.693	1.156	1155.5	incongruent	Block1	incongruent/STIM_025.jpg	100
508.009	0.796	795.7	incongruent	Block1	incongruent/STIM_025.jpg	100
511.462	1.1	1100.4	incongruent	Block1	incongruent/STIM_025.jpg	100
514.767	0.745	745.1	incongruent	Block1	incongruent/STIM_025.jpg	99
517.634	1.33	1329.9	incongruent	Block1	incongruent/STIM_026.jpg	99
521.074	0.909	908.7	incongruent	Block1	incongruent/STIM_026.jpg	99
524.937	0.947	947.2	incongruent	Block1	incongruent/STIM_026.jpg	99
528.3	1.012	1012.1	incongruent	Block1	incongruent/STIM_026.jpg	99
531.892	0.84	840.4	incongruent	Block1	incongruent/STIM_026.jpg	100
534.972	1.114	1114.1	incongruent	Block1	incongruent/STIM_027.jpg	100
538.54	0.852	851.7	incongruent	Block1	incongruent/STIM_027.jpg	100
542.78	1.01	1009.5	incongruent	Block1	incongruent/STIM_027.jpg	100
546.7	0.542	541.7	incongruent	Block1	incongruent/STIM_027.jpg	100
549.556	0.898	897.7	incongruent	Block1	incongruent/STIM_027.jpg	99
554.231	1.154	1154.2	incongruent	Block1	incongruent/STIM_028.jpg	100
558.094	1.164	1163.5	incongruent	Block1	incongruent/STIM_028.jpg	100
563.161	0.647	646.9	incongruent	Block1	incongruent/STIM_028.jpg	100
567.157	1.004	1004.5	incongruent	Block1	incongruent/STIM_028.jpg	99
570.559	0.588	588.3	incongruent	Block1	incongruent/STIM_028.jpg	100
573.539	0.765	764.7	incongruent	Block1	incongruent/STIM_029.jpg	99
576.491	0.901	901.0	incongruent	Block1	incongruent/STIM_029.jpg	100
579.705	0.718	718.1	incongruent	Block1	incongruent/STIM_029.jpg	99
583.655	0.891	890.9	incongruent	Block1	incongruent/STIM_029.jpg	99
587.579	0.511	511.3	incongruent	Block1	incongruent/STIM_029.jpg	100
590.965	0.687	687.1	congruent	Block1	congruent/STIM_000.jpg	99
594.839	0.484	483.8	congruent	Block1	congruent/STIM_000.jpg	100
597.766	0.514	513.6	congruent	Block1	congruent/STIM_000.jpg	99
601.016	0.789	789.3	congruent	Block1	congruent/STIM_000.jpg	99
605.699	0.493	493.2	congruent	Block1	congruent/STIM_000.jpg	99
609.06	0.544	543.8	congruent	Block1	congruent/STIM_001.jpg	100
613.047	0.662	662.1	congruent	Block1	congruent/STIM_001.jpg	99
617.102	0.738	737.9	congruent	Block1	congruent/STIM_001.jpg	100
620.971	0.798	797.8	congruent	Block1	congruent/STIM_001.jpg	99
624.285	0.537	536.8	congruent	Block1	congruent/STIM_001.jpg	99
627.908	0.758	757.5	congruent	Block1	congruent/STIM_002.jpg	100
631.648	0.792	791.6	congruent	Block1	congruent/STIM_002.jpg	100
635.62	0.545	544.7	congruent	Block1	congruent/STIM_002.jpg	99
639.906	0.77	770.5	congruent	Block1	congruent/STIM_002.jpg	99
643.045	0.564	563.5	congruent	Block1	congruent/STIM_002.jpg	99
647.327	0.543	542.6	congruent	Block1	congruent/STIM_003.jpg	99
650.3	0.5	500.4	congruent	Block1	congruent/STIM_003.jpg	100
654.679	0.604	604.1	congruent	Block1	congruent/STIM_003.jpg	99
658.889	0.738	737.7	congruent	Block1	congruent/STIM_003.jpg	99
662.487	0.475	474.8	congruent	Block1	congruent/STIM_003.jpg	100
665.719	0.584	583.8	congruent	Block1	congruent/STIM_004.jpg	99
669.985	0.472	472.0	congruent	Block1	congruent/STIM_004.jpg	99
674.031	0.626	625.8	congruent	Block1	congruent/STIM_004.jpg	99
678.384	0.796	795.8	congruent	Block1	congruent/STIM_004.jpg	99
682.498	0.586	585.8	congruent	Block1	congruent/STIM_004.jpg	100
686.501	0.665	665.2	congruent	Block1	congruent/STIM_005.jpg	100
690.688	0.645	644.9	congruent	Block1	congruent/STIM_005.jpg	99
693.83	0.704	704.4	congruent	Block1	congruent/STIM_005.jpg	99
696.819	0.458	458.5	congruent	Block1	congruent/STIM_005.jpg	99
701.121	0.735	735.1	congruent	Block1	congruent/STIM_005.jpg	99
704.852	0.681	680.8	congruent	Block1	congruent/STIM_006.jpg	100
707.786	0.522	521.6	congruent	Block1	congruent/STIM_006.jpg	100
711.838	0.732	732.4	congruent	Block1	congruent/STIM_006.jpg	99
714.969	0.486	485.9	congruent	Block1	congruent/STIM_006.jpg	99
718.505	0.471	471.4	congruent	Block1	congruent/STIM_006.jpg	99
721.83	0.784	784.2	congruent	Block1	congruent/STIM_007.jpg	99
725.498	0.534	534.5	congruent	Block1	congruent/STIM_007.jpg	99
729.8	0.712	711.7	congruent	Block1	congruent/STIM_007.jpg	99
734.03	0.73	729.8	congruent	Block1	congruent/STIM_007.jpg	99
737.225	0.657	657.0	congruent	Block1	congruent/STIM_007.jpg	100
740.304	0.651	651.3	congruent	Block1	congruent/STIM_008.jpg	99
743.73	0.626	626.5	congruent	Block1	congruent/STIM_008.jpg	100
747.049	0.689	689.1	congruent	Block1	congruent/STIM_008.jpg	99
750.188	0.633	633.0	congruent	Block1	congruent/STIM_008.jpg	99
753.841	0.797	796.6	congruent	Block1	congruent/STIM_008.jpg	99
758.13	0.575	574.7	congruent	Block1	congruent/STIM_009.jpg	100
761.162	0.608	608.3	congruent	Block1	congruent/STIM_009.jpg	99
763.802	0.497	496.9	congruent	Block1	congruent/STIM_009.jpg	100
766.377	0.526	526.4	congruent	Block1	congruent/STIM_009.jpg	99
770.456	0.548	548.4	congruent	Block1	congruent/STIM_009.jpg	100
774.327	0.52	519.5	congruent	Block1	congruent/STIM_010.jpg	99
777.522	0.553	553.3	congruent	Block1	congruent/STIM_010.jpg	100
780.21	0.588	587.6	congruent	Block1	congruent/STIM_010.jpg	100
782.946	0.701	701.1	congruent	Block1	congruent/STIM_010.jpg	99
787.106	0.7	699.8	congruent	Block1	congruent/STIM_010.jpg	99
790.311	0.739	738.7	congruent	Block1	congruent/STIM_011.jpg	99
793.631	0.629	629.0	congruent	Block1	congruent/STIM_011.jpg	100
797.241	0.585	584.8	congruent	Block1	congruent/STIM_011.jpg	100
800.941	0.566	566.1	congruent	Block1	congruent/STIM_011.jpg	100
804.436	0.602	601.7	congruent	Block1	congruent/STIM_011.jpg	99
809.015	0.496	496.2	congruent	Block1	congruent/STIM_012.jpg	100
811.69	0.591	591.1	congruent	Block1	congruent/STIM_012.jpg	100
815.044	0.669	668.8	congruent	Block1	congruent/STIM_012.jpg	99
819.469	0.471	471.1	congruent	Block1	congruent/STIM_012.jpg	100
823.065	0.528	527.7	congruent	Block1	congruent/STIM_012.jpg	100
827.017	0.61	610.0	congruent	Block1	congruent/STIM_013.jpg	100
830.724	0.521	520.8	congruent	Block1	congruent/STIM_013.jpg	100
835.016	0.469	468.9	congruent	Block1	congruent/STIM_013.jpg	99
837.587	0.641	641.0	congruent	Block1	congruent/STIM_013.jpg	99
841.139	0.546	546.1	congruent	Block1	congruent/STIM_013.jpg	100
844.984	0.8	800.4	congruent	Block1	congruent/STIM_014.jpg	100
848.918	0.477	476.9	congruent	Block1	congruent/STIM_014.jpg	100
852.45	0.797	796.7	congruent	Block1	congruent/STIM_014.jpg	99
855.51	0.522	522.3	congruent	Block1	congruent/STIM_014.jpg	99
859.087	0.591	591.2	congruent	Block1	congruent/STIM_014.jpg	99
863.615	0.622	622.3	congruent	Block1	congruent/STIM_015.jpg	99
866.961	0.504	504.5	congruent	Block1	congruent/STIM_015.jpg	99
869.921	0.724	723.8	congruent	Block1	congruent/STIM_015.jpg	100
874.045	0.763	763.2	congruent	Block1	congruent/STIM_015.jpg	100
877.007	0.465	464.9	congruent	Block1	congruent/STIM_015.jpg	99
879.965	0.756	756.1	congruent	Block1	congruent/STIM_016.jpg	100
882.731	0.526	526.5	congruent	Block1	congruent/STIM_016.jpg	100
886.947	0.476	475.5	congruent	Block1	congruent/STIM_016.jpg	99
889.768	0.68	679.6	congruent	Block1	congruent/STIM_016.jpg	100
893.762	0.774	773.7	congruent	Block1	congruent/STIM_016.jpg	100
896.8	0.66	659.9	congruent	Block1	congruent/STIM_017.jpg	99
900.145	0.474	474.3	congruent	Block1	congruent/STIM_017.jpg	99
903.348	0.476	475.9	congruent	Block1	congruent/STIM_017.jpg	99
906.851	0.613	613.3	congruent	Block1	congruent/STIM_017.jpg	99
909.802	0.754	753.5	congruent	Block1	congruent/STIM_017.jpg	100
914.492	0.746	746.1	congruent	Block1	congruent/STIM_018.jpg	99
918.042	0.772	772.2	congruent	Block1	congruent/STIM_018.jpg	100
921.219	0.771	771.2	congruent	Block1	congruent/STIM_018.jpg	99
924.217	0.806	806.2	congruent	Block1	congruent/STIM_018.jpg	100
927.58	0.484	484.0	congruent	Block1	congruent/STIM_018.jpg	100
931.79	0.537	537.3	congruent	Block1	congruent/STIM_019.jpg	99
935.7	0.714	714.4	congruent	Block1	congruent/STIM_019.jpg	100
940.348	0.524	523.9	congruent	Block1	congruent/STIM_019.jpg	100
943.011	0.555	555.1	congruent	Block1	congruent/STIM_019.jpg	99
946.039	0.756	756.1	congruent	Block1	congruent/STIM_019.jpg	99
949.783	0.633	633.1	congruent	Block1	congruent/STIM_020.jpg	100
954.014	0.564	563.8	congruent	Block1	congruent/STIM_020.jpg	99
957.558	0.479	479.1	congruent	Block1	congruent/STIM_020.jpg	99
961.533	0.691	690.9	congruent	Block1	congruent/STIM_020.jpg	100
965.011	0.535	534.6	congruent	Block1	congruent/STIM_020.jpg	99
969.154	0.498	497.9	congruent	Block1	congruent/STIM_021.jpg	99
972.534	0.71	710.3	congruent	Block1	congruent/STIM_021.jpg	100
975.354	0.813	812.8	congruent	Block1	congruent/STIM_021.jpg	99
979.899	0.731	730.6	congruent	Block1	congruent/STIM_021.jpg	99
982.782	0.643	642.6	congruent	Block1	congruent/STIM_021.jpg	100
986.775	0.806	805.6	congruent	Block1	congruent/STIM_022.jpg	100
990.382	0.692	692.3	congruent	Block1	congruent/STIM_022.jpg	99
994.444	0.466	466.4	congruent	Block1	congruent/STIM_022.jpg	99
996.99	0.794	793.7	congruent	Block1	congruent/STIM_022.jpg	100
1000.829	0.48	480.5	congruent	Block1	congruent/STIM_022.jpg	99
1003.428	0.737	737.0	congruent	Block1	congruent/STIM_023.jpg	99
1007.45	0.628	627.9	congruent	Block1	congruent/STIM_023.jpg	100
1010.282	0.595	594.7	congruent	Block1	congruent/STIM_023.jpg	100
1013.659	0.496	496.3	congruent	Block1	congruent/STIM_023.jpg	99
1016.995	0.661	660.7	congruent	Block1	congruent/STIM_023.jpg	100
1020.484	0.489	489.2	congruent	Block1	congruent/STIM_024.jpg	100
1024.432	0.63	629.8	congruent	Block1	congruent/STIM_024.jpg	99
1028.979	0.74	739.6	congruent	Block1	congruent/STIM_024.jpg	100
1032.601	0.494	494.1	congruent	Block1	congruent/STIM_024.jpg	100
1035.284	0.712	711.8	congruent	Block1	congruent/STIM_024.jpg	99
1039.311	0.513	513.4	congruent	Block1	congruent/STIM_025.jpg	99
1043.703	0.759	759.3	congruent	Block1	congruent/STIM_025.jpg	99
1046.739	0.476	476.4	congruent	Block1	congruent/STIM_025.jpg	99
1050.563	0.659	658.6	congruent	Block1	congruent/STIM_025.jpg	100
1053.787	0.772	771.7	congruent	Block1	congruent/STIM_025.jpg	100
1057.612	0.554	553.9	congruent	Block1	congruent/STIM_026.jpg	99
1061.212	0.601	601.3	congruent	Block1	congruent/STIM_026.jpg	100
1065.176	0.6	599.7	congruent	Block1	congruent/STIM_026.jpg	100
1069.298	0.588	588.0	congruent	Block1	congruent/STIM_026.jpg	100
1072.64	0.588	587.5	congruent	Block1	congruent/STIM_026.jpg	100
1075.374	0.554	553.9	congruent	Block1	congruent/STIM_027.jpg	100
1079.22	0.478	478.1	congruent	Block1	congruent/STIM_027.jpg	100
1081.988	0.621	620.7	congruent	Block1	congruent/STIM_027.jpg	99
1086.089	0.576	575.9	congruent	Block1	congruent/STIM_027.jpg	100
1089.552	0.673	673.1	congruent	Block1	congruent/STIM_027.jpg	99
1093.491	0.46	459.9	congruent	Block1	congruent/STIM_028.jpg	99
1096.432	0.796	796.1	congruent	Block1	congruent/STIM_028.jpg	99
1099.987	0.61	610.3	congruent	Block1	congruent/STIM_028.jpg	100
1102.953	0.66	660.4	congruent	Block1	congruent/STIM_028.jpg	99
1105.93	0.601	601.2	congruent	Block1	congruent/STIM_028.jpg	100
1109.17	0.473	472.6	congruent	Block1	congruent/STIM_029.jpg	100
1112.586	0.68	680.2	congruent	Block1	congruent/STIM_029.jpg	100
1116.374	0.652	652.1	congruent	Block1	congruent/STIM_029.jpg	99
1119.707	0.71	709.9	congruent	Block1	congruent/STIM_029.jpg	99
1123.898	0.689	689.4	congruent	Block1	congruent/STIM_029.jpg	100
1127.626	1.124	1124.2	incongruent	Block2	incongruent/STIM_000.jpg	100
1132.004	0.992	991.6	incongruent	Block2	incongruent/STIM_000.jpg	100
1135.637	0.96	960.1	incongruent	Block2	incongruent/STIM_000.jpg	100
1139.567	0.59	589.9	incongruent	Block2	incongruent/STIM_000.jpg	99
1143.751	0.761	760.7	incongruent	Block2	incongruent/STIM_000.jpg	100
1146.722	0.74	739.8	incongruent	Block2	incongruent/STIM_001.jpg	100
1149.947	1.019	1019.1	incongruent	Block2	incongruent/STIM_001.jpg	100
1154.165	0.8	799.5	incongruent	Block2	incongruent/STIM_001.jpg	100
1157.435	0.838	837.9	incongruent	Block2	incongruent/STIM_001.jpg	100
1161.271	0.786	785.5	incongruent	Block2	incongruent/STIM_001.jpg	100
1165.08	0.853	853.4	incongruent	Block2	incongruent/STIM_002.jpg	100
1169.738	0.726	725.7	incongruent	Block2	incongruent/STIM_002.jpg	99
1174.337	0.896	896.0	incongruent	Block2	incongruent/STIM_002.jpg	100
1177.517	0.495	494.9	incongruent	Block2	incongruent/STIM_002.jpg	99
1180.627	0.817	816.9	incongruent	Block2	incongruent/STIM_002.jpg	99
1183.495	1.154	1154.2	incongruent	Block2	incongruent/STIM_003.jpg	100
1186.707	0.557	557.3	incongruent	Block2	incongruent/STIM_003.jpg	100
1190.962	0.879	879.1	incongruent	Block2	incongruent/STIM_003.jpg	99
1195.662	0.669	668.6	incongruent	Block2	incongruent/STIM_003.jpg	99
1200.146	0.841	841.1	incongruent	Block2	incongruent/STIM_003.jpg	100
1203.604	0.935	934.9	incongruent	Block2	incongruent/STIM_004.jpg	100
1207.931	0.674	673.7	incongruent	Block2	incongruent/STIM_004.jpg	100
1212.097	0.702	701.7	incongruent	Block2	incongruent/STIM_004.jpg	100
1214.817	0.859	859.0	incongruent	Block2	incongruent/STIM_004.jpg	99
1218.188	0.9	899.9	incongruent	Block2	incongruent/STIM_004.jpg	99
1222.988	1.012	1012.4	incongruent	Block2	incongruent/STIM_005.jpg	100
1226.472	0.884	883.7	incongruent	Block2	incongruent/STIM_005.jpg	99
1231.267	0.751	751.0	incongruent	Block2	incongruent/STIM_005.jpg	100
1235.98	0.751	750.7	incongruent	Block2	incongruent/STIM_005.jpg	100
1239.939	0.524	524.5	incongruent	Block2	incongruent/STIM_005.jpg	100
1243.364	0.554	553.8	incongruent	Block2	incongruent/STIM_006.jpg	99
1247.796	0.881	881.3	incongruent	Block2	incongruent/STIM_006.jpg	99
1251.501	0.82	819.7	incongruent	Block2	incongruent/STIM_006.jpg	99
1256.082	0.463	462.8	incongruent	Block2	incongruent/STIM_006.jpg	99
1259.111	0.514	513.8	incongruent	Block2	incongruent/STIM_006.jpg	99
1263.089	0.605	605.4	incongruent	Block2	incongruent/STIM_007.jpg	99
1265.808	0.94	939.5	incongruent	Block2	incongruent/STIM_007.jpg	100
1270.687	0.925	924.6	incongruent	Block2	incongruent/STIM_007.jpg	99
1273.999	0.694	694.3	incongruent	Block2	incongruent/STIM_007.jpg	100
1277.629	0.918	918.1	incongruent	Block2	incongruent/STIM_007.jpg	100
1282.318	0.691	691.1	incongruent	Block2	incongruent/STIM_008.jpg	100
1285.65	0.574	573.6	incongruent	Block2	incongruent/STIM_008.jpg	100
1289.188	0.7	699.5	incongruent	Block2	incongruent/STIM_008.jpg	100
1293.621	0.773	773.3	incongruent	Block2	incongruent/STIM_008.jpg	99
1297.433	0.607	606.6	incongruent	Block2	incongruent/STIM_008.jpg	99
1300.232	0.722	722.0	incongruent	Block2	incongruent/STIM_009.jpg	100
1304.894	1.049	1049.4	incongruent	Block2	incongruent/STIM_009.jpg	99
1309.557	0.786	785.6	incongruent	Block2	incongruent/STIM_009.jpg	100
1312.435	0.865	865.3	incongruent	Block2	incongruent/STIM_009.jpg	99
1315.736	0.707	707.4	incongruent	Block2	incongruent/STIM_009.jpg	99
1318.9	1.057	1057.0	incongruent	Block2	incongruent/STIM_010.jpg	99
1322.211	0.53	529.8	incongruent	Block2	incongruent/STIM_010.jpg	100
1324.944	0.762	762.4	incongruent	Block2	incongruent/STIM_010.jpg	99
1329.68	0.563	563.4	incongruent	Block2	incongruent/STIM_010.jpg	100
1332.495	0.544	544.1	incongruent	Block2	incongruent/STIM_010.jpg	99
1335.567	0.977	976.8	incongruent	Block2	incongruent/STIM_011.jpg	100
1339.131	0.621	620.6	incongruent	Block2	incongruent/STIM_011.jpg	99
1343.274	0.831	831.4	incongruent	Block2	incongruent/STIM_011.jpg	100
1346.154	0.68	679.9	incongruent	Block2	incongruent/STIM_011.jpg	99
1350.65	0.62	620.4	incongruent	Block2	incongruent/STIM_011.jpg	100
1353.306	0.696	695.9	incongruent	Block2	incongruent/STIM_012.jpg	100
1356.472	0.709	708.6	incongruent	Block2	incongruent/STIM_012.jpg	99
1359.446	0.662	662.5	incongruent	Block2	incongruent/STIM_012.jpg	100
1362.805	0.864	863.5	incongruent	Block2	incongruent/STIM_012.jpg	99
1366.946	0.583	583.3	incongruent	Block2	incongruent/STIM_012.jpg	100
1369.55	0.76	759.8	incongruent	Block2	incongruent/STIM_013.jpg	99
1373.29	0.658	658.5	incongruent	Block2	incongruent/STIM_013.jpg	99
1376.939	0.693	693.4	incongruent	Block2	incongruent/STIM_013.jpg	100
1380.512	0.584	584.4	incongruent	Block2	incongruent/STIM_013.jpg	99
1383.609	0.83	830.5	incongruent	Block2	incongruent/STIM_013.jpg	99
1388.03	0.764	763.7	incongruent	Block2	incongruent/STIM_014.jpg	99
1391.659	0.624	623.7	incongruent	Block2	incongruent/STIM_014.jpg	99
1396.011	0.63	629.7	incongruent	Block2	incongruent/STIM_014.jpg	99
1400.29	0.712	712.2	incongruent	Block2	incongruent/STIM_014.jpg	100
1404.433	0.842	842.1	incongruent	Block2	incongruent/STIM_014.jpg	100
1408.459	1.056	1056.1	incongruent	Block2	incongruent/STIM_015.jpg	99
1412.741	1.018	1018.4	incongruent	Block2	incongruent/STIM_015.jpg	100
1416.053	0.558	557.6	incongruent	Block2	incongruent/STIM_015.jpg	100
1420.297	0.722	721.8	incongruent	Block2	incongruent/STIM_015.jpg	100
1424.91	0.819	818.8	incongruent	Block2	incongruent/STIM_015.jpg	99
1428.172	0.681	681.1	incongruent	Block2	incongruent/STIM_016.jpg	99
1431.281	0.602	602.4	incongruent	Block2	incongruent/STIM_016.jpg	100
1435.297	0.582	581.8	incongruent	Block2	incongruent/STIM_016.jpg	99
1439.099	0.465	465.3	incongruent	Block2	incongruent/STIM_016.jpg	99
1441.928	0.788	788.2	incongruent	Block2	incongruent/STIM_016.jpg	100
1446.094	0.837	837.1	incongruent	Block2	incongruent/STIM_017.jpg	99
1449.542	0.759	758.9	incongruent	Block2	incongruent/STIM_017.jpg	100
1453.911	0.635	635.1	incongruent	Block2	incongruent/STIM_017.jpg	100
1457.409	0.451	451.2	incongruent	Block2	incongruent/STIM_017.jpg	99
1460.874	0.459	459.2	incongruent	Block2	incongruent/STIM_017.jpg	99
1464.619	1.074	1074.0	incongruent	Block2	incongruent/STIM_018.jpg	99
1468.71	0.843	842.9	incongruent	Block2	incongruent/STIM_018.jpg	100
1472.056	0.599	598.6	incongruent	Block2	incongruent/STIM_018.jpg	100
1476.183	0.665	664.7	incongruent	Block2	incongruent/STIM_018.jpg	100
1479.93	0.528	527.7	incongruent	Block2	incongruent/STIM_018.jpg	100
1483.105	0.638	638.0	incongruent	Block2	incongruent/STIM_019.jpg	100
1487.139	0.711	711.4	incongruent	Block2	incongruent/STIM_019.jpg	99
1491.157	0.865	865.0	incongruent	Block2	incongruent/STIM_019.jpg	99
1495.77	0.542	542.3	incongruent	Block2	incongruent/STIM_019.jpg	99
1498.839	0.818	817.5	incongruent	Block2	incongruent/STIM_019.jpg	100
1502.424	1.133	1133.1	incongruent	Block2	incongruent/STIM_020.jpg	99
1507.334	0.767	766.9	incongruent	Block2	incongruent/STIM_020.jpg	99
1510.59	0.535	534.6	incongruent	Block2	incongruent/STIM_020.jpg	99
1514.297	0.501	501.1	incongruent	Block2	incongruent/STIM_020.jpg	100
1518.029	0.822	821.8	incongruent	Block2	incongruent/STIM_020.jpg	100
1522.166	1.038	1038.4	incongruent	Block2	incongruent/STIM_021.jpg	99
1526.008	0.639	639.1	incongruent	Block2	incongruent/STIM_021.jpg	100
1528.734	0.685	684.6	incongruent	Block2	incongruent/STIM_021.jpg	99
1531.994	0.629	629.2	incongruent	Block2	incongruent/STIM_021.jpg	100
1535.278	0.549	549.2	incongruent	Block2	incongruent/STIM_021.jpg	100
1538.122	0.924	923.9	incongruent	Block2	incongruent/STIM_022.jpg	100
1542.688	1.082	1081.6	incongruent	Block2	incongruent/STIM_022.jpg	100
1547.569	0.938	937.8	incongruent	Block2	incongruent/STIM_022.jpg	100
1550.685	0.65	649.6	incongruent	Block2	incongruent/STIM_022.jpg	99
1553.532	0.684	684.2	incongruent	Block2	incongruent/STIM_022.jpg	100
1557.215	1.029	1029.3	incongruent	Block2	incongruent/STIM_023.jpg	99
1561.659	0.761	760.7	incongruent	Block2	incongruent/STIM_023.jpg	100
1565.143	0.967	967.4	incongruent	Block2	incongruent/STIM_023.jpg	100
1568.681	0.914	914.5	incongruent	Block2	incongruent/STIM_023.jpg	100
1572.454	0.704	704.1	incongruent	Block2	incongruent/STIM_023.jpg	100
1576.643	0.913	913.2	incongruent	Block2	incongruent/STIM_024.jpg	100
1580.44	0.959	959.4	incongruent	Block2	incongruent/STIM_024.jpg	99
1584.181	0.609	608.9	incongruent	Block2	incongruent/STIM_024.jpg	100
1586.872	0.538	537.7	incongruent	Block2	incongruent/STIM_024.jpg	99
1590.431	0.73	729.5	incongruent	Block2	incongruent/STIM_024.jpg	99
1595.063	0.956	956.2	incongruent	Block2	incongruent/STIM_025.jpg	100
1598.259	0.756	755.6	incongruent	Block2	incongruent/STIM_025.jpg	100
1601.661	0.52	519.5	incongruent	Block2	incongruent/STIM_025.jpg	99
1604.627	0.832	831.9	incongruent	Block2	incongruent/STIM_025.jpg	99
1608.986	0.591	590.8	incongruent	Block2	incongruent/STIM_025.jpg	99
1611.619	1.01	1010.0	incongruent	Block2	incongruent/STIM_026.jpg	100
1615.129	0.743	743.4	incongruent	Block2	incongruent/STIM_026.jpg	100
1619.56	0.802	802.1	incongruent	Block2	incongruent/STIM_026.jpg	99
1622.99	0.541	541.1	incongruent	Block2	incongruent/STIM_026.jpg	100
1627.238	0.618	618.1	incongruent	Block2	incongruent/STIM_026.jpg	99
1630.469	0.899	898.7	incongruent	Block2	incongruent/STIM_027.jpg	100
1635.069	0.522	522.5	incongruent	Block2	incongruent/STIM_027.jpg	100
1637.856	0.588	587.8	incongruent	Block2	incongruent/STIM_027.jpg	100
1642.297	0.889	888.7	incongruent	Block2	incongruent/STIM_027.jpg	100
1646.984	0.638	637.9	incongruent	Block2	incongruent/STIM_027.jpg	100
1650.205	0.578	578.2	incongruent	Block2	incongruent/STIM_028.jpg	100
1654.172	0.832	831.8	incongruent	Block2	incongruent/STIM_028.jpg	100
1657.705	0.766	765.9	incongruent	Block2	incongruent/STIM_028.jpg	99
1660.752	0.891	891.1	incongruent	Block2	incongruent/STIM_028.jpg	100
1664.994	0.948	948.1	incongruent	Block2	incongruent/STIM_028.jpg	99
1669.74	1.003	1003.3	incongruent	Block2	incongruent/STIM_029.jpg	99
1673.943	0.583	583.2	incongruent	Block2	incongruent/STIM_029.jpg	100
1677.545	0.638	637.8	incongruent	Block2	incongruent/STIM_029.jpg	99
1681.15	0.49	490.0	incongruent	Block2	incongruent/STIM_029.jpg	99
1685.36	0.654	653.7	incongruent	Block2	incongruent/STIM_029.jpg	99
1689.633	0.772	771.6	congruent	Block2	congruent/STIM_000.jpg	99
1693.203	0.715	714.8	congruent	Block2	congruent/STIM_000.jpg	100
1697.668	0.796	796.5	congruent	Block2	congruent/STIM_000.jpg	100
1700.756	0.596	596.3	congruent	Block2	congruent/STIM_000.jpg	100
1703.478	0.718	717.8	congruent	Block2	congruent/STIM_000.jpg	100
1706.296	0.776	776.5	congruent	Block2	congruent/STIM_001.jpg	100
1709.963	0.603	603.3	congruent	Block2	congruent/STIM_001.jpg	100
1712.602	0.711	711.0	congruent	Block2	congruent/STIM_001.jpg	100
1716.436	0.666	666.0	congruent	Block2	congruent/STIM_001.jpg	100
1721.023	0.635	635.3	congruent	Block2	congruent/STIM_001.jpg	99
1724.705	0.521	521.4	congruent	Block2	congruent/STIM_002.jpg	99
1727.712	0.7	699.6	congruent	Block2	congruent/STIM_002.jpg	99
1732.217	0.496	495.9	congruent	Block2	congruent/STIM_002.jpg	100
1736.562	0.564	564.1	congruent	Block2	congruent/STIM_002.jpg	100
1741.104	0.654	654.2	congruent	Block2	congruent/STIM_002.jpg	100
1745.06	0.486	485.7	congruent	Block2	congruent/STIM_003.jpg	99
1747.791	0.738	738.0	congruent	Block2	congruent/STIM_003.jpg	100
1750.704	0.564	564.2	congruent	Block2	congruent/STIM_003.jpg	100
1753.664	0.654	653.6	congruent	Block2	congruent/STIM_003.jpg	100
1756.553	0.748	747.9	congruent	Block2	congruent/STIM_003.jpg	99
1760.541	0.505	505.0	congruent	Block2	congruent/STIM_004.jpg	99
1763.06	0.617	617.1	congruent	Block2	congruent/STIM_004.jpg	100
1767.39	0.487	487.1	congruent	Block2	congruent/STIM_004.jpg	100
1769.986	0.498	498.1	congruent	Block2	congruent/STIM_004.jpg	100
1772.727	0.536	536.2	congruent	Block2	congruent/STIM_004.jpg	100
1775.59	0.75	749.9	congruent	Block2	congruent/STIM_005.jpg	100
1779.714	0.66	659.7	congruent	Block2	congruent/STIM_005.jpg	99
1784.028	0.579	579.3	congruent	Block2	congruent/STIM_005.jpg	99
1787.202	0.711	711.4	congruent	Block2	congruent/STIM_005.jpg	100
1791.7	0.481	481.2	congruent	Block2	congruent/STIM_005.jpg	100
1794.643	0.547	546.9	congruent	Block2	congruent/STIM_006.jpg	100
1797.426	0.568	568.0	congruent	Block2	congruent/STIM_006.jpg	99
1800.354	0.736	736.3	congruent	Block2	congruent/STIM_006.jpg	99
1803.811	0.665	664.8	congruent	Block2	congruent/STIM_006.jpg	99
1806.726	0.553	552.6	congruent	Block2	congruent/STIM_006.jpg	100
1810.806	0.5	499.8	congruent	Block2	congruent/STIM_007.jpg	100
1815.068	0.532	532.3	congruent	Block2	congruent/STIM_007.jpg	100
1819.394	0.718	717.5	congruent	Block2	congruent/STIM_007.jpg	100
1823.748	0.682	681.9	congruent	Block2	congruent/STIM_007.jpg	99
1827.03	0.525	525.2	congruent	Block2	congruent/STIM_007.jpg	99
1829.643	0.616	616.5	congruent	Block2	congruent/STIM_008.jpg	99
1833.07	0.454	453.6	congruent	Block2	congruent/STIM_008.jpg	100
1836.525	0.713	713.2	congruent	Block2	congruent/STIM_008.jpg	100
1840.478	0.575	575.1	congruent	Block2	congruent/STIM_008.jpg	99
1843.11	0.685	685.0	congruent	Block2	congruent/STIM_008.jpg	100
1845.807	0.486	486.4	congruent	Block2	congruent/STIM_009.jpg	100
1849.364	0.515	514.8	congruent	Block2	congruent/STIM_009.jpg	99
1852.536	0.52	519.5	congruent	Block2	congruent/STIM_009.jpg	100
1856.04	0.754	753.9	congruent	Block2	congruent/STIM_009.jpg	100
1860.46	0.695	694.7	congruent	Block2	congruent/STIM_009.jpg	99
1864.6	0.755	755.2	congruent	Block2	congruent/STIM_010.jpg	99
1869.14	0.608	608.4	congruent	Block2	congruent/STIM_010.jpg	99
1872.522	0.796	795.6	congruent	Block2	congruent/STIM_010.jpg	100
1877.257	0.647	646.9	congruent	Block2	congruent/STIM_010.jpg	100
1880.962	0.504	503.7	congruent	Block2	congruent/STIM_010.jpg	99
1885.074	0.8	800.0	congruent	Block2	congruent/STIM_011.jpg	100
1889.143	0.747	747.3	congruent	Block2	congruent/STIM_011.jpg	99
1892.707	0.579	579.4	congruent	Block2	congruent/STIM_011.jpg	100
1895.988	0.459	458.8	congruent	Block2	congruent/STIM_011.jpg	99
1900.446	0.626	625.7	congruent	Block2	congruent/STIM_011.jpg	99
1904.699	0.753	753.0	congruent	Block2	congruent/STIM_012.jpg	99
1908.928	0.661	660.8	congruent	Block2	congruent/STIM_012.jpg	100
1913.297	0.775	775.1	congruent	Block2	congruent/STIM_012.jpg	100
1917.464	0.751	751.3	congruent	Block2	congruent/STIM_012.jpg	99
1922.143	0.532	532.3	congruent	Block2	congruent/STIM_012.jpg	99
1924.767	0.494	493.7	congruent	Block2	congruent/STIM_013.jpg	99
1928.016	0.616	615.7	congruent	Block2	congruent/STIM_013.jpg	100
1930.853	0.742	742.4	congruent	Block2	congruent/STIM_013.jpg	100
1935.342	0.654	654.3	congruent	Block2	congruent/STIM_013.jpg	100
1938.555	0.604	604.5	congruent	Block2	congruent/STIM_013.jpg	100
1942.559	0.742	741.5	congruent	Block2	congruent/STIM_014.jpg	100
1947.234	0.731	731.4	congruent	Block2	congruent/STIM_014.jpg	99
1950.681	0.5	500.0	congruent	Block2	congruent/STIM_014.jpg	100
1954.452	0.642	641.9	congruent	Block2	congruent/STIM_014.jpg	99
1957.467	0.797	796.9	congruent	Block2	congruent/STIM_014.jpg	99
1961.007	0.562	561.7	congruent	Block2	congruent/STIM_015.jpg	100
1964.591	0.81	810.2	congruent	Block2	congruent/STIM_015.jpg	99
1969.211	0.594	594.0	congruent	Block2	congruent/STIM_015.jpg	100
1972.72	0.76	760.2	congruent	Block2	congruent/STIM_015.jpg	100
1976.048	0.61	610.0	congruent	Block2	congruent/STIM_015.jpg	99
1979.694	0.574	573.5	congruent	Block2	congruent/STIM_016.jpg	100
1983.595	0.648	648.5	congruent	Block2	congruent/STIM_016.jpg	99
1986.667	0.805	805.0	congruent	Block2	congruent/STIM_016.jpg	100
1989.851	0.614	613.7	congruent	Block2	congruent/STIM_016.jpg	100
1993.809	0.546	545.9	congruent	Block2	congruent/STIM_016.jpg	99
1996.562	0.681	681.2	congruent	Block2	congruent/STIM_017.jpg	100
2000.593	0.518	517.8	congruent	Block2	congruent/STIM_017.jpg	100
2003.44	0.659	659.0	congruent	Block2	congruent/STIM_017.jpg	100
2006.659	0.467	467.4	congruent	Block2	congruent/STIM_017.jpg	99
2010.067	0.547	546.8	congruent	Block2	congruent/STIM_017.jpg	99
2013.754	0.639	638.7	congruent	Block2	congruent/STIM_018.jpg	99
2016.742	0.713	713.2	congruent	Block2	congruent/STIM_018.jpg	99
2021.183	0.458	457.8	congruent	Block2	congruent/STIM_018.jpg	100
2024.205	0.509	508.9	congruent	Block2	congruent/STIM_018.jpg	99
2027.663	0.679	678.7	congruent	Block2	congruent/STIM_018.jpg	99
2032.324	0.501	501.4	congruent	Block2	congruent/STIM_019.jpg	100
2036.763	0.673	673.1	congruent	Block2	congruent/STIM_019.jpg	100
2040.12	0.64	640.4	congruent	Block2	congruent/STIM_019.jpg	99
2042.874	0.548	548.0	congruent	Block2	congruent/STIM_019.jpg	99
2046.18	0.664	663.8	congruent	Block2	congruent/STIM_019.jpg	99
2049.804	0.612	611.8	congruent	Block2	congruent/STIM_020.jpg	100
2054.382	0.652	652.2	congruent	Block2	congruent/STIM_020.jpg	100
2058.301	0.676	676.0	congruent	Block2	congruent/STIM_020.jpg	99
2062.922	0.553	553.3	congruent	Block2	congruent/STIM_020.jpg	99
2065.704	0.525	524.6	congruent	Block2	congruent/STIM_020.jpg	100
2069.733	0.658	658.4	congruent	Block2	congruent/STIM_021.jpg	100
2074.348	0.535	534.6	congruent	Block2	congruent/STIM_021.jpg	99
2076.892	0.572	571.5	congruent	Block2	congruent/STIM_021.jpg	100
2080.977	0.707	706.9	congruent	Block2	congruent/STIM_021.jpg	99
2083.693	0.498	497.8	congruent	Block2	congruent/STIM_021.jpg	100
2087.163	0.704	703.8	congruent	Block2	congruent/STIM_022.jpg	100
2090.211	0.615	614.8	congruent	Block2	congruent/STIM_022.jpg	99
2093.701	0.589	588.8	congruent	Block2	congruent/STIM_022.jpg	100
2096.576	0.812	811.9	congruent	Block2	congruent/STIM_022.jpg	99
2100.617	0.689	689.1	congruent	Block2	congruent/STIM_022.jpg	100
2105.256	0.738	737.5	congruent	Block2	congruent/STIM_023.jpg	99
2109.19	0.562	561.8	congruent	Block2	congruent/STIM_023.jpg	99
2113.529	0.677	676.7	congruent	Block2	congruent/STIM_023.jpg	100
2116.353	0.594	594.5	congruent	Block2	congruent/STIM_023.jpg	100
2119.736	0.655	655.2	congruent	Block2	congruent/STIM_023.jpg	99
2122.718	0.552	551.8	congruent	Block2	congruent/STIM_024.jpg	99
2126.705	0.602	601.7	congruent	Block2	congruent/STIM_024.jpg	99
2129.448	0.706	705.5	congruent	Block2	congruent/STIM_024.jpg	99
2132.983	0.672	672.4	congruent	Block2	congruent/STIM_024.jpg	99
2136.732	0.566	566.1	congruent	Block2	congruent/STIM_024.jpg	100
2140.27	0.544	544.3	congruent	Block2	congruent/STIM_025.jpg	99
2144.501	0.724	724.1	congruent	Block2	congruent/STIM_025.jpg	100
2149.115	0.529	528.9	congruent	Block2	congruent/STIM_025.jpg	100
2151.811	0.77	769.8	congruent	Block2	congruent/STIM_025.jpg	100
2154.97	0.463	463.4	congruent	Block2	congruent/STIM_025.jpg	100
2158.361	0.575	574.9	congruent	Block2	congruent/STIM_026.jpg	100
2162.847	0.595	595.1	congruent	Block2	congruent/STIM_026.jpg	99
2166.95	0.562	562.4	congruent	Block2	congruent/STIM_026.jpg	99
2171.2	0.506	505.7	congruent	Block2	congruent/STIM_026.jpg	99
2175.294	0.746	746.5	congruent	Block2	congruent/STIM_026.jpg	100
2179.757	0.638	638.4	congruent	Block2	congruent/STIM_027.jpg	100
2184.342	0.48	480.3	congruent	Block2	congruent/STIM_027.jpg	100
2186.846	0.62	619.8	congruent	Block2	congruent/STIM_027.jpg	99
2190.325	0.499	498.8	congruent	Block2	congruent/STIM_027.jpg	100
2193.252	0.588	587.8	congruent	Block2	congruent/STIM_027.jpg	100
2196.364	0.65	650.5	congruent	Block2	congruent/STIM_028.jpg	100
2200.753	0.476	476.0	congruent	Block2	congruent/STIM_028.jpg	100
2204.414	0.718	717.6	congruent	Block2	congruent/STIM_028.jpg	99
2207.302	0.486	486.1	congruent	Block2	congruent/STIM_028.jpg	100
2210.439	0.711	710.9	congruent	Block2	congruent/STIM_028.jpg	100
2213.883	0.76	760.5	congruent	Block2	congruent/STIM_029.jpg	99
2218.614	0.774	774.4	congruent	Block2	congruent/STIM_029.jpg	99
2222.863	0.742	742.0	congruent	Block2	congruent/STIM_029.jpg	99
2226.48	0.475	475.1	congruent	Block2	congruent/STIM_029.jpg	99
2229.999	0.474	474.3	congruent	Block2	congruent/STIM_029.jpg	100
2232.913	0.892	892.2	incongruent	Block3	incongruent/STIM_000.jpg	99
2235.883	0.934	933.7	incongruent	Block3	incongruent/STIM_000.jpg	100
2239.747	0.737	737.4	incongruent	Block3	incongruent/STIM_000.jpg	99
2243.923	0.716	716.1	incongruent	Block3	incongruent/STIM_000.jpg	99
2246.684	0.723	722.8	incongruent	Block3	incongruent/STIM_000.jpg	100
2249.424	0.894	894.2	incongruent	Block3	incongruent/STIM_001.jpg	99
2253.832	0.769	769.3	incongruent	Block3	incongruent/STIM_001.jpg	100
2257.247	0.752	751.8	incongruent	Block3	incongruent/STIM_001.jpg	99
2261.537	0.489	489.4	incongruent	Block3	incongruent/STIM_001.jpg	100
2264.411	0.853	853.1	incongruent	Block3	incongruent/STIM_001.jpg	99
2269.081	0.844	843.8	incongruent	Block3	incongruent/STIM_002.jpg	100
2273.628	0.589	589.1	incongruent	Block3	incongruent/STIM_002.jpg	99
2277.095	0.824	824.5	incongruent	Block3	incongruent/STIM_002.jpg	100
2280.672	0.917	917.1	incongruent	Block3	incongruent/STIM_002.jpg	100
2284.352	0.907	907.3	incongruent	Block3	incongruent/STIM_002.jpg	100
2287.722	0.639	639.4	incongruent	Block3	incongruent/STIM_003.jpg	99
2291.998	0.719	719.0	incongruent	Block3	incongruent/STIM_003.jpg	100
2296.202	0.947	946.9	incongruent	Block3	incongruent/STIM_003.jpg	99
2300.618	0.848	847.7	incongruent	Block3	incongruent/STIM_003.jpg	99
2304.213	0.686	685.8	incongruent	Block3	incongruent/STIM_003.jpg	100
2306.964	0.95	949.7	incongruent	Block3	incongruent/STIM_004.jpg	100
2310.982	0.655	655.3	incongruent	Block3	incongruent/STIM_004.jpg	99
2314.805	0.862	862.5	incongruent	Block3	incongruent/STIM_004.jpg	100
2318.484	0.937	936.9	incongruent	Block3	incongruent/STIM_004.jpg	99
2323.382	0.551	551.1	incongruent	Block3	incongruent/STIM_004.jpg	100
2326.77	0.818	818.3	incongruent	Block3	incongruent/STIM_005.jpg	99
2329.658	0.753	753.0	incongruent	Block3	incongruent/STIM_005.jpg	100
2334.101	0.601	601.1	incongruent	Block3	incongruent/STIM_005.jpg	99
2338.615	0.831	830.6	incongruent	Block3	incongruent/STIM_005.jpg	99
2342.885	0.776	776.3	incongruent	Block3	incongruent/STIM_005.jpg	100
2346.201	0.705	705.0	incongruent	Block3	incongruent/STIM_006.jpg	100
2349.091	0.493	492.7	incongruent	Block3	incongruent/STIM_006.jpg	99
2353.427	0.807	806.9	incongruent	Block3	incongruent/STIM_006.jpg	100
2358.093	0.789	788.8	incongruent	Block3	incongruent/STIM_006.jpg	100
2361.335	0.944	943.8	incongruent	Block3	incongruent/STIM_006.jpg	100
2365.539	0.463	463.3	incongruent	Block3	incongruent/STIM_007.jpg	100
2369.031	0.652	651.6	incongruent	Block3	incongruent/STIM_007.jpg	100
2372.903	0.751	750.7	incongruent	Block3	incongruent/STIM_007.jpg	99
2377.219	0.945	944.6	incongruent	Block3	incongruent/STIM_007.jpg	100
2381.79	0.918	917.6	incongruent	Block3	incongruent/STIM_007.jpg	100
2386.683	0.704	704.2	incongruent	Block3	incongruent/STIM_008.jpg	100
2390.716	0.633	633.3	incongruent	Block3	incongruent/STIM_008.jpg	99
2394.621	0.874	874.5	incongruent	Block3	incongruent/STIM_008.jpg	99
2398.75	0.52	520.4	incongruent	Block3	incongruent/STIM_008.jpg	99
2402.453	0.929	929.2	incongruent	Block3	incongruent/STIM_008.jpg	100
2407.237	0.814	814.1	incongruent	Block3	incongruent/STIM_009.jpg	100
2411.21	0.912	911.9	incongruent	Block3	incongruent/STIM_009.jpg	99
2414.34	0.775	775.0	incongruent	Block3	incongruent/STIM_009.jpg	100
2418.009	0.717	716.9	incongruent	Block3	incongruent/STIM_009.jpg	100
2420.808	0.934	933.8	incongruent	Block3	incongruent/STIM_009.jpg	99
2424.104	0.749	748.8	incongruent	Block3	incongruent/STIM_010.jpg	100
2427.44	0.467	467.1	incongruent	Block3	incongruent/STIM_010.jpg	99
2430.991	0.733	732.9	incongruent	Block3	incongruent/STIM_010.jpg	99
2434.686	0.5	500.0	incongruent	Block3	incongruent/STIM_010.jpg	100
2437.316	0.894	893.6	incongruent	Block3	incongruent/STIM_010.jpg	100
2440.771	0.691	691.0	incongruent	Block3	incongruent/STIM_011.jpg	100
2444.756	0.455	455.0	incongruent	Block3	incongruent/STIM_011.jpg	99
2447.364	0.552	552.0	incongruent	Block3	incongruent/STIM_011.jpg	100
2450.517	0.95	949.5	incongruent	Block3	incongruent/STIM_011.jpg	100
2455.276	0.682	681.9	incongruent	Block3	incongruent/STIM_011.jpg	100
2458.108	0.86	859.6	incongruent	Block3	incongruent/STIM_012.jpg	99
2461.857	0.688	688.5	incongruent	Block3	incongruent/STIM_012.jpg	99
2465.107	0.491	490.6	incongruent	Block3	incongruent/STIM_012.jpg	99
2468.641	0.613	613.0	incongruent	Block3	incongruent/STIM_012.jpg	100
2471.866	0.794	793.9	incongruent	Block3	incongruent/STIM_012.jpg	99
2474.962	0.607	606.6	incongruent	Block3	incongruent/STIM_013.jpg	99
2477.76	0.501	501.3	incongruent	Block3	incongruent/STIM_013.jpg	99
2482.148	0.731	731.0	incongruent	Block3	incongruent/STIM_013.jpg	99
2485.966	0.857	856.6	incongruent	Block3	incongruent/STIM_013.jpg	100
2490.755	0.756	755.8	incongruent	Block3	incongruent/STIM_013.jpg	99
2495.206	0.765	764.9	incongruent	Block3	incongruent/STIM_014.jpg	99
2499.132	0.725	724.7	incongruent	Block3	incongruent/STIM_014.jpg	99
2501.888	0.517	516.7	incongruent	Block3	incongruent/STIM_014.jpg	99
2504.809	0.612	611.6	incongruent	Block3	incongruent/STIM_014.jpg	100
2508.395	0.878	878.1	incongruent	Block3	incongruent/STIM_014.jpg	100
2512.326	0.58	579.5	incongruent	Block3	incongruent/STIM_015.jpg	100
2515.64	0.848	848.2	incongruent	Block3	incongruent/STIM_015.jpg	99
2519.478	0.633	632.8	incongruent	Block3	incongruent/STIM_015.jpg	100
2522.428	0.704	704.0	incongruent	Block3	incongruent/STIM_015.jpg	99
2527.064	0.624	624.2	incongruent	Block3	incongruent/STIM_015.jpg	99
2530.173	0.489	489.1	incongruent	Block3	incongruent/STIM_016.jpg	100
2533.7	0.752	751.9	incongruent	Block3	incongruent/STIM_016.jpg	99
2538.142	0.559	559.4	incongruent	Block3	incongruent/STIM_016.jpg	99
2542.026	0.941	941.1	incongruent	Block3	incongruent/STIM_016.jpg	99
2546.552	0.69	689.8	incongruent	Block3	incongruent/STIM_016.jpg	100
2551.071	0.873	872.9	incongruent	Block3	incongruent/STIM_017.jpg	100
2555.639	0.486	485.7	incongruent	Block3	incongruent/STIM_017.jpg	100
2558.774	0.839	839.0	incongruent	Block3	incongruent/STIM_017.jpg	99
2563.358	0.491	490.6	incongruent	Block3	incongruent/STIM_017.jpg	99
2566.753	0.485	484.7	incongruent	Block3	incongruent/STIM_017.jpg	99
2569.823	0.95	949.5	incongruent	Block3	incongruent/STIM_018.jpg	100
2573.933	0.7	699.7	incongruent	Block3	incongruent/STIM_018.jpg	100
2576.703	0.638	637.9	incongruent	Block3	incongruent/STIM_018.jpg	100
2580.736	0.686	685.8	incongruent	Block3	incongruent/STIM_018.jpg	100
2585.333	0.5	499.5	incongruent	Block3	incongruent/STIM_018.jpg	99
2589.541	0.634	633.7	incongruent	Block3	incongruent/STIM_019.jpg	100
2593.394	0.652	651.6	incongruent	Block3	incongruent/STIM_019.jpg	99
2596.215	0.679	679.4	incongruent	Block3	incongruent/STIM_019.jpg	99
2600.256	0.677	676.6	incongruent	Block3	incongruent/STIM_019.jpg	100
2604.246	0.923	922.8	incongruent	Block3	incongruent/STIM_019.jpg	100
2608.337	0.907	907.3	incongruent	Block3	incongruent/STIM_020.jpg	99
2611.264	0.81	810.3	incongruent	Block3	incongruent/STIM_020.jpg	100
2615.043	0.481	481.3	incongruent	Block3	incongruent/STIM_020.jpg	99
2618.723	0.694	693.8	incongruent	Block3	incongruent/STIM_020.jpg	100
2622.652	0.554	554.4	incongruent	Block3	incongruent/STIM_020.jpg	99
2625.392	0.542	541.5	incongruent	Block3	incongruent/STIM_021.jpg	99
2628.139	0.663	663.2	incongruent	Block3	incongruent/STIM_021.jpg	100
2632.018	0.619	619.1	incongruent	Block3	incongruent/STIM_021.jpg	99
2635.776	0.691	690.9	incongruent	Block3	incongruent/STIM_021.jpg	99
2639.176	0.851	851.0	incongruent	Block3	incongruent/STIM_021.jpg	99
2643.144	0.718	717.6	incongruent	Block3	incongruent/STIM_022.jpg	99
2646.563	0.875	874.8	incongruent	Block3	incongruent/STIM_022.jpg	99
2650.817	0.653	653.2	incongruent	Block3	incongruent/STIM_022.jpg	100
2654.706	0.627	627.4	incongruent	Block3	incongruent/STIM_022.jpg	99
2658.096	0.499	498.8	incongruent	Block3	incongruent/STIM_022.jpg	100
2660.857	0.806	806.5	incongruent	Block3	incongruent/STIM_023.jpg	100
2665.64	0.625	625.3	incongruent	Block3	incongruent/STIM_023.jpg	99
2669.19	0.879	879.1	incongruent	Block3	incongruent/STIM_023.jpg	99
2673.77	0.86	859.9	incongruent	Block3	incongruent/STIM_023.jpg	100
2677.026	0.567	567.0	incongruent	Block3	incongruent/STIM_023.jpg	100
2680.154	0.733	733.4	incongruent	Block3	incongruent/STIM_024.jpg	99
2683.626	0.805	805.2	incongruent	Block3	incongruent/STIM_024.jpg	99
2686.774	0.717	717.0	incongruent	Block3	incongruent/STIM_024.jpg	99
2690.962	0.567	567.1	incongruent	Block3	incongruent/STIM_024.jpg	100
2694.731	0.464	463.8	incongruent	Block3	incongruent/STIM_024.jpg	100
2697.201	0.898	898.1	incongruent	Block3	incongruent/STIM_025.jpg	100
2701.0	0.819	819.1	incongruent	Block3	incongruent/STIM_025.jpg	99
2705.598	0.844	843.5	incongruent	Block3	incongruent/STIM_025.jpg	100
2710.277	0.477	476.9	incongruent	Block3	incongruent/STIM_025.jpg	99
2713.365	0.663	662.6	incongruent	Block3	incongruent/STIM_025.jpg	100
2716.103	0.719	719.0	incongruent	Block3	incongruent/STIM_026.jpg	100
2719.873	0.753	753.2	incongruent	Block3	incongruent/STIM_026.jpg	100
2722.876	0.623	623.1	incongruent	Block3	incongruent/STIM_026.jpg	99
2727.221	0.809	808.9	incongruent	Block3	incongruent/STIM_026.jpg	99
2730.476	0.72	719.9	incongruent	Block3	incongruent/STIM_026.jpg	100
2733.948	0.509	509.4	incongruent	Block3	incongruent/STIM_027.jpg	100
2737.81	0.518	517.5	incongruent	Block3	incongruent/STIM_027.jpg	99
2741.911	0.714	714.2	incongruent	Block3	incongruent/STIM_027.jpg	99
2746.602	0.539	539.2	incongruent	Block3	incongruent/STIM_027.jpg	99
2749.996	0.853	853.1	incongruent	Block3	incongruent/STIM_027.jpg	99
2753.809	0.55	549.5	incongruent	Block3	incongruent/STIM_028.jpg	99
2757.864	0.779	778.6	incongruent	Block3	incongruent/STIM_028.jpg	99
2761.982	0.905	905.1	incongruent	Block3	incongruent/STIM_028.jpg	100
2765.118	0.506	506.1	incongruent	Block3	incongruent/STIM_028.jpg	100
2768.024	0.876	876.0	incongruent	Block3	incongruent/STIM_028.jpg	100
2771.452	0.708	708.2	incongruent	Block3	incongruent/STIM_029.jpg	99
2774.535	0.731	731.3	incongruent	Block3	incongruent/STIM_029.jpg	100
2778.437	0.609	608.7	incongruent	Block3	incongruent/STIM_029.jpg	100
2782.182	0.67	669.7	incongruent	Block3	incongruent/STIM_029.jpg	100
2786.774	0.848	848.2	incongruent	Block3	incongruent/STIM_029.jpg	100
2790.611	0.688	688.2	congruent	Block3	congruent/STIM_000.jpg	100
2794.45	0.578	577.7	congruent	Block3	congruent/STIM_000.jpg	100
2798.434	0.645	645.2	congruent	Block3	congruent/STIM_000.jpg	99
2802.463	0.803	802.7	congruent	Block3	congruent/STIM_000.jpg	99
2805.571	0.637	637.0	congruent	Block3	congruent/STIM_000.jpg	99
2809.942	0.563	563.4	congruent	Block3	congruent/STIM_001.jpg	99
2813.338	0.787	787.4	congruent	Block3	congruent/STIM_001.jpg	99
2816.619	0.813	812.9	congruent	Block3	congruent/STIM_001.jpg	100
2820.436	0.541	541.4	congruent	Block3	congruent/STIM_001.jpg	99
2824.704	0.521	521.2	congruent	Block3	congruent/STIM_001.jpg	100
2828.327	0.477	476.9	congruent	Block3	congruent/STIM_002.jpg	99
2832.376	0.509	509.3	congruent	Block3	congruent/STIM_002.jpg	100
2835.132	0.708	708.0	congruent	Block3	congruent/STIM_002.jpg	100
2839.719	0.677	676.9	congruent	Block3	congruent/STIM_002.jpg	99
2842.94	0.565	564.7	congruent	Block3	congruent/STIM_002.jpg	100
2846.993	0.584	584.1	congruent	Block3	congruent/STIM_003.jpg	100
2849.84	0.467	466.6	congruent	Block3	congruent/STIM_003.jpg	99
2854.052	0.602	601.6	congruent	Block3	congruent/STIM_003.jpg	99
2857.646	0.629	629.0	congruent	Block3	congruent/STIM_003.jpg	100
2861.596	0.718	718.2	congruent	Block3	congruent/STIM_003.jpg	100
2865.679	0.665	664.8	congruent	Block3	congruent/STIM_004.jpg	99
2869.245	0.698	697.7	congruent	Block3	congruent/STIM_004.jpg	100
2872.87	0.6	599.6	congruent	Block3	congruent/STIM_004.jpg	99
2875.781	0.799	798.6	congruent	Block3	congruent/STIM_004.jpg	100
2880.219	0.673	673.2	congruent	Block3	congruent/STIM_004.jpg	100
2883.505	0.588	588.3	congruent	Block3	congruent/STIM_005.jpg	99
2887.298	0.545	545.3	congruent	Block3	congruent/STIM_005.jpg	100
2890.35	0.504	503.7	congruent	Block3	congruent/STIM_005.jpg	99
2893.542	0.771	770.7	congruent	Block3	congruent/STIM_005.jpg	100
2897.519	0.762	762.1	congruent	Block3	congruent/STIM_005.jpg	100
2901.407	0.575	574.9	congruent	Block3	congruent/STIM_006.jpg	99
2904.0	0.661	661.1	congruent	Block3	congruent/STIM_006.jpg	99
2906.776	0.764	764.5	congruent	Block3	congruent/STIM_006.jpg	100
2910.911	0.525	524.9	congruent	Block3	congruent/STIM_006.jpg	99
2914.267	0.751	751.2	congruent	Block3	congruent/STIM_006.jpg	99
2918.05	0.764	764.5	congruent	Block3	congruent/STIM_007.jpg	100
2921.087	0.653	653.3	congruent	Block3	congruent/STIM_007.jpg	99
2925.646	0.759	759.0	congruent	Block3	congruent/STIM_007.jpg	100
2930.031	0.693	692.8	congruent	Block3	congruent/STIM_007.jpg	100
2934.298	0.783	783.4	congruent	Block3	congruent/STIM_007.jpg	100
2938.993	0.483	482.6	congruent	Block3	congruent/STIM_008.jpg	100
2941.917	0.76	760.3	congruent	Block3	congruent/STIM_008.jpg	99
2944.761	0.793	793.4	congruent	Block3	congruent/STIM_008.jpg	99
2948.367	0.54	540.1	congruent	Block3	congruent/STIM_008.jpg	100
2951.385	0.785	784.6	congruent	Block3	congruent/STIM_008.jpg	99
2955.409	0.531	531.4	congruent	Block3	congruent/STIM_009.jpg	100
2959.402	0.703	703.0	congruent	Block3	congruent/STIM_009.jpg	100
2962.551	0.764	763.9	congruent	Block3	congruent/STIM_009.jpg	100
2966.66	0.473	473.1	congruent	Block3	congruent/STIM_009.jpg	100
2970.548	0.778	777.6	congruent	Block3	congruent/STIM_009.jpg	99
2973.595	0.593	593.1	congruent	Block3	congruent/STIM_010.jpg	100
2977.34	0.787	786.9	congruent	Block3	congruent/STIM_010.jpg	99
2981.908	0.74	739.6	congruent	Block3	congruent/STIM_010.jpg	100
2985.864	0.462	462.3	congruent	Block3	congruent/STIM_010.jpg	99
2988.557	0.669	669.3	congruent	Block3	congruent/STIM_010.jpg	100
2991.315	0.643	643.4	congruent	Block3	congruent/STIM_011.jpg	99
2994.547	0.763	763.0	congruent	Block3	congruent/STIM_011.jpg	99
2997.678	0.7	699.5	congruent	Block3	congruent/STIM_011.jpg	100
3001.451	0.686	685.8	congruent	Block3	congruent/STIM_011.jpg	99
3004.393	0.497	497.3	congruent	Block3	congruent/STIM_011.jpg	100
3008.547	0.663	662.8	congruent	Block3	congruent/STIM_012.jpg	100
3011.498	0.704	704.2	congruent	Block3	congruent/STIM_012.jpg	99
3014.368	0.493	493.3	congruent	Block3	congruent/STIM_012.jpg	99
3017.044	0.75	750.4	congruent	Block3	congruent/STIM_012.jpg	99
3020.723	0.79	789.8	congruent	Block3	congruent/STIM_012.jpg	99
3023.894	0.719	719.1	congruent	Block3	congruent/STIM_013.jpg	100
3026.739	0.539	538.6	congruent	Block3	congruent/STIM_013.jpg	100
3029.343	0.668	667.6	congruent	Block3	congruent/STIM_013.jpg	99
3032.269	0.598	598.0	congruent	Block3	congruent/STIM_013.jpg	100
3035.48	0.501	501.1	congruent	Block3	congruent/STIM_013.jpg	99
3038.949	0.56	560.0	congruent	Block3	congruent/STIM_014.jpg	99
3042.563	0.809	809.4	congruent	Block3	congruent/STIM_014.jpg	100
3045.689	0.678	678.5	congruent	Block3	congruent/STIM_014.jpg	100
3049.209	0.511	511.1	congruent	Block3	congruent/STIM_014.jpg	100
3053.147	0.513	512.6	congruent	Block3	congruent/STIM_014.jpg	100
3056.284	0.658	658.1	congruent	Block3	congruent/STIM_015.jpg	99
3060.489	0.478	477.7	congruent	Block3	congruent/STIM_015.jpg	99
3063.813	0.754	754.3	congruent	Block3	congruent/STIM_015.jpg	99
3067.525	0.803	802.9	congruent	Block3	congruent/STIM_015.jpg	99
3071.123	0.491	491.4	congruent	Block3	congruent/STIM_015.jpg	100
3075.421	0.523	523.3	congruent	Block3	congruent/STIM_016.jpg	100
3079.645	0.687	686.7	congruent	Block3	congruent/STIM_016.jpg	100
3084.034	0.815	814.9	congruent	Block3	congruent/STIM_016.jpg	99
3087.699	0.701	701.3	congruent	Block3	congruent/STIM_016.jpg	100
3090.917	0.683	682.6	congruent	Block3	congruent/STIM_016.jpg	100
3093.899	0.486	485.5	congruent	Block3	congruent/STIM_017.jpg	99
3096.542	0.545	544.7	congruent	Block3	congruent/STIM_017.jpg	99
3099.491	0.778	778.5	congruent	Block3	congruent/STIM_017.jpg	99
3104.142	0.678	677.8	congruent	Block3	congruent/STIM_017.jpg	100
3108.412	0.679	679.4	congruent	Block3	congruent/STIM_017.jpg	100
3112.623	0.592	591.7	congruent	Block3	congruent/STIM_018.jpg	100
3116.117	0.61	610.5	congruent	Block3	congruent/STIM_018.jpg	99
3120.114	0.496	495.5	congruent	Block3	congruent/STIM_018.jpg	100
3124.047	0.484	484.2	congruent	Block3	congruent/STIM_018.jpg	100
3128.403	0.682	681.8	congruent	Block3	congruent/STIM_018.jpg	100
3132.994	0.576	576.2	congruent	Block3	congruent/STIM_019.jpg	99
3136.589	0.814	814.5	congruent	Block3	congruent/STIM_019.jpg	100
3140.767	0.526	525.9	congruent	Block3	congruent/STIM_019.jpg	100
3143.305	0.642	641.9	congruent	Block3	congruent/STIM_019.jpg	99
3146.428	0.48	479.6	congruent	Block3	congruent/STIM_019.jpg	99
3149.671	0.547	547.2	congruent	Block3	congruent/STIM_020.jpg	100
3153.088	0.809	809.3	congruent	Block3	congruent/STIM_020.jpg	100
3157.881	0.755	755.0	congruent	Block3	congruent/STIM_020.jpg	100
3162.281	0.504	504.1	congruent	Block3	congruent/STIM_020.jpg	100
3165.62	0.591	591.2	congruent	Block3	congruent/STIM_020.jpg	100
3168.312	0.629	628.7	congruent	Block3	congruent/STIM_021.jpg	99
3171.446	0.788	788.2	congruent	Block3	congruent/STIM_021.jpg	99
3174.669	0.561	560.7	congruent	Block3	congruent/STIM_021.jpg	99
3178.692	0.767	766.9	congruent	Block3	congruent/STIM_021.jpg	99
3182.834	0.689	688.8	congruent	Block3	congruent/STIM_021.jpg	100
3186.696	0.726	725.9	congruent	Block3	congruent/STIM_022.jpg	100
3190.092	0.652	652.3	congruent	Block3	congruent/STIM_022.jpg	100
3193.831	0.767	767.3	congruent	Block3	congruent/STIM_022.jpg	99
3198.43	0.678	677.5	congruent	Block3	congruent/STIM_022.jpg	100
3201.761	0.508	508.3	congruent	Block3	congruent/STIM_022.jpg	99
3206.2	0.477	476.6	congruent	Block3	congruent/STIM_023.jpg	99
3210.17	0.479	478.9	congruent	Block3	congruent/STIM_023.jpg	99
3212.835	0.745	744.6	congruent	Block3	congruent/STIM_023.jpg	99
3216.103	0.617	617.1	congruent	Block3	congruent/STIM_023.jpg	99
3220.695	0.495	494.7	congruent	Block3	congruent/STIM_023.jpg	99
3224.175	0.66	659.6	congruent	Block3	congruent/STIM_024.jpg	99
3228.566	0.538	537.9	congruent	Block3	congruent/STIM_024.jpg	100
3232.472	0.761	761.2	congruent	Block3	congruent/STIM_024.jpg	99
3235.598	0.609	608.7	congruent	Block3	congruent/STIM_024.jpg	99
3238.298	0.647	647.2	congruent	Block3	congruent/STIM_024.jpg	99
3242.349	0.576	575.9	congruent	Block3	congruent/STIM_025.jpg	99
3246.903	0.709	708.8	congruent	Block3	congruent/STIM_025.jpg	99
3251.401	0.663	663.1	congruent	Block3	congruent/STIM_025.jpg	100
3254.787	0.546	545.9	congruent	Block3	congruent/STIM_025.jpg	99
3259.096	0.555	555.0	congruent	Block3	congruent/STIM_025.jpg	99
3262.719	0.634	634.5	congruent	Block3	congruent/STIM_026.jpg	100
3267.115	0.695	695.3	congruent	Block3	congruent/STIM_026.jpg	99
3270.705	0.594	594.0	congruent	Block3	congruent/STIM_026.jpg	99
3275.178	0.669	669.4	congruent	Block3	congruent/STIM_026.jpg	99
3279.014	0.668	668.3	congruent	Block3	congruent/STIM_026.jpg	99
3283.428	0.772	772.2	congruent	Block3	congruent/STIM_027.jpg	99
3287.669	0.672	671.8	congruent	Block3	congruent/STIM_027.jpg	100
3291.86	0.556	556.1	congruent	Block3	congruent/STIM_027.jpg	100
3294.957	0.453	453.3	congruent	Block3	congruent/STIM_027.jpg	100
3298.048	0.498	498.0	congruent	Block3	congruent/STIM_027.jpg	99
3301.811	0.73	729.7	congruent	Block3	congruent/STIM_028.jpg	99
3305.451	0.706	706.0	congruent	Block3	congruent/STIM_028.jpg	99
3308.37	0.771	770.8	congruent	Block3	congruent/STIM_028.jpg	100
3312.042	0.484	484.5	congruent	Block3	congruent/STIM_028.jpg	99
3315.479	0.686	686.0	congruent	Block3	congruent/STIM_028.jpg	99
3318.584	0.467	466.7	congruent	Block3	congruent/STIM_029.jpg	99
3322.477	0.529	528.6	congruent	Block3	congruent/STIM_029.jpg	100
3325.573	0.656	655.8	congruent	Block3	congruent/STIM_029.jpg	100
3330.078	0.684	683.9	congruent	Block3	congruent/STIM_029.jpg	99
3333.783	0.588	588.3	congruent	Block3	congruent/STIM_029.jpg	100
