onset	duration	response_time_ms	trial_type	learning_stage	stimulus	response_port
0.0	1.077	1076.6	incongruent	Block1	incongruent/STIM_000.jpg	100
3.311	1.018	1018.1	incongruent	Block1	incongruent/STIM_000.jpg	100
7.074	1.217	1216.8	incongruent	Block1	incongruent/STIM_000.jpg	100
10.973	0.718	718.4	incongruent	Block1	incongruent/STIM_000.jpg	100
15.442	1.158	1157.8	incongruent	Block1	incongruent/STIM_000.jpg	99
19.357	0.885	885.4	incongruent	Block1	incongruent/STIM_001.jpg	100
22.971	0.917	917.4	incongruent	Block1	incongruent/STIM_001.jpg	99
27.152	1.048	1048.1	incongruent	Block1	incongruent/STIM_001.jpg	100
31.837	0.625	624.7	incongruent	Block1	incongruent/STIM_001.jpg	99
34.873	1.161	1161.4	incongruent	Block1	incongruent/STIM_001.jpg	99
38.59	1.201	1201.3	incongruent	Block1	incongruent/STIM_002.jpg	100
42.939	1.306	1306.1	incongruent	Block1	incongruent/STIM_002.jpg	100
46.92	0.75	750.0	incongruent	Block1	incongruent/STIM_002.jpg	100
51.115	0.824	824.5	incongruent	Block1	incongruent/STIM_002.jpg	100
54.386	0.864	864.0	incongruent	Block1	incongruent/STIM_002.jpg	100
57.783	0.889	888.8	incongruent	Block1	incongruent/STIM_003.jpg	99
60.765	0.66	660.5	incongruent	Block1	incongruent/STIM_003.jpg	100
64.135	1.322	1322.4	incongruent	Block1	incongruent/STIM_003.jpg	100
68.957	1.037	1036.9	incongruent	Block1	incongruent/STIM_003.jpg	100
73.656	1.176	1175.9	incongruent	Block1	incongruent/STIM_003.jpg	99
77.957	1.19	1189.8	incongruent	Block1	incongruent/STIM_004.jpg	99
82.93	0.734	734.5	incongruent	Block1	incongruent/STIM_004.jpg	100
85.966	0.708	708.0	incongruent	Block1	incongruent/STIM_004.jpg	99
89.394	1.23	1230.5	incongruent	Block1	incongruent/STIM_004.jpg	100
93.786	0.649	649.2	incongruent	Block1	incongruent/STIM_004.jpg	100
97.126	1.093	1092.8	incongruent	Block1	incongruent/STIM_005.jpg	99
102.114	1.341	1341.3	incongruent	Block1	incongruent/STIM_005.jpg	99
107.442	1.117	1117.1	incongruent	Block1	incongruent/STIM_005.jpg	100
112.105	1.071	1071.0	incongruent	Block1	incongruent/STIM_005.jpg	99
116.933	1.135	1135.0	incongruent	Block1	incongruent/STIM_005.jpg	99
122.049	0.765	765.2	incongruent	Block1	incongruent/STIM_006.jpg	100
125.54	1.246	1246.3	incongruent	Block1	incongruent/STIM_006.jpg	100
130.464	1.32	1320.2	incongruent	Block1	incongruent/STIM_006.jpg	100
134.159	0.789	789.1	incongruent	Block1	incongruent/STIM_006.jpg	99
138.41	0.901	900.9	incongruent	Block1	incongruent/STIM_006.jpg	100
141.373	0.815	814.6	incongruent	Block1	incongruent/STIM_007.jpg	99
144.325	1.27	1270.5	incongruent	Block1	incongruent/STIM_007.jpg	100
149.547	0.802	802.0	incongruent	Block1	incongruent/STIM_007.jpg	100
153.003	0.818	818.2	incongruent	Block1	incongruent/STIM_007.jpg	100
155.976	0.796	796.3	incongruent	Block1	incongruent/STIM_007.jpg	100
160.379	1.054	1053.9	incongruent	Block1	incongruent/STIM_008.jpg	99
164.948	0.854	853.9	incongruent	Block1	incongruent/STIM_008.jpg	100
168.671	1.267	1267.3	incongruent	Block1	incongruent/STIM_008.jpg	99
172.31	0.687	686.6	incongruent	Block1	incongruent/STIM_008.jpg	100
175.454	1.103	1102.8	incongruent	Block1	incongruent/STIM_008.jpg	100
179.158	0.996	995.7	incongruent	Block1	incongruent/STIM_009.jpg	100
182.889	1.072	1071.7	incongruent	Block1	incongruent/STIM_009.jpg	99
186.504	0.794	793.5	incongruent	Block1	incongruent/STIM_009.jpg	99
189.557	0.798	798.4	incongruent	Block1	incongruent/STIM_009.jpg	100
192.367	0.942	941.6	incongruent	Block1	incongruent/STIM_009.jpg	99
196.555	1.323	1322.7	incongruent	Block1	incongruent/STIM_010.jpg	100
201.515	1.325	1324.8	incongruent	Block1	incongruent/STIM_010.jpg	100
206.777	0.936	935.5	incongruent	Block1	incongruent/STIM_010.jpg	100
210.789	0.871	871.0	incongruent	Block1	incongruent/STIM_010.jpg	100
214.325	0.605	604.9	incongruent	Block1	incongruent/STIM_010.jpg	100
217.467	0.759	759.2	incongruent	Block1	incongruent/STIM_011.jpg	100
221.039	1.013	1012.8	incongruent	Block1	incongruent/STIM_011.jpg	99
224.261	1.103	1102.6	incongruent	Block1	incongruent/STIM_011.jpg	99
228.149	0.836	836.0	incongruent	Block1	incongruent/STIM_011.jpg	99
232.427	0.67	670.3	incongruent	Block1	incongruent/STIM_011.jpg	99
235.488	1.01	1009.8	incongruent	Block1	incongruent/STIM_012.jpg	99
238.969	1.358	1357.9	incongruent	Block1	incongruent/STIM_012.jpg	100
243.443	0.829	829.4	incongruent	Block1	incongruent/STIM_012.jpg	100
247.459	0.98	979.6	incongruent	Block1	incongruent/STIM_012.jpg	100
250.46	0.693	693.2	incongruent	Block1	incongruent/STIM_012.jpg	99
254.402	0.945	945.1	incongruent	Block1	incongruent/STIM_013.jpg	99
258.862	1.294	1293.9	incongruent	Block1	incongruent/STIM_013.jpg	100
263.528	1.08	1079.8	incongruent	Block1	incongruent/STIM_013.jpg	100
267.018	0.699	699.4	incongruent	Block1	incongruent/STIM_013.jpg	99
271.717	1.046	1045.8	incongruent	Block1	incongruent/STIM_013.jpg	100
276.021	1.246	1246.5	incongruent	Block1	incongruent/STIM_014.jpg	99
280.832	0.693	692.7	incongruent	Block1	incongruent/STIM_014.jpg	99
285.146	0.898	897.9	incongruent	Block1	incongruent/STIM_014.jpg	100
289.907	0.979	979.4	incongruent	Block1	incongruent/STIM_014.jpg	100
293.402	0.742	742.1	incongruent	Block1	incongruent/STIM_014.jpg	100
297.962	0.896	896.0	incongruent	Block1	incongruent/STIM_015.jpg	100
302.017	0.665	664.7	incongruent	Block1	incongruent/STIM_015.jpg	99
306.528	1.152	1151.5	incongruent	Block1	incongruent/STIM_015.jpg	99
310.747	1.079	1078.7	incongruent	Block1	incongruent/STIM_015.jpg	100
314.485	1.096	1095.8	incongruent	Block1	incongruent/STIM_015.jpg	100
318.495	0.862	861.8	incongruent	Block1	incongruent/STIM_016.jpg	100
321.698	0.707	706.7	incongruent	Block1	incongruent/STIM_016.jpg	100
325.804	0.886	885.6	incongruent	Block1	incongruent/STIM_016.jpg	99
329.915	1.03	1030.1	incongruent	Block1	incongruent/STIM_016.jpg	99
334.921	1.166	1166.2	incongruent	Block1	incongruent/STIM_016.jpg	99
339.305	0.845	844.9	incongruent	Block1	incongruent/STIM_017.jpg	99
343.798	1.016	1015.6	incongruent	Block1	incongruent/STIM_017.jpg	100
348.412	1.244	1243.9	incongruent	Block1	incongruent/STIM_017.jpg	99
353.236	0.997	996.9	incongruent	Block1	incongruent/STIM_017.jpg	99
358.215	0.736	735.8	incongruent	Block1	incongruent/STIM_017.jpg	100
362.543	0.868	867.7	incongruent	Block1	incongruent/STIM_018.jpg	99
366.656	1.328	1327.8	incongruent	Block1	incongruent/STIM_018.jpg	100
370.918	1.027	1026.8	incongruent	Block1	incongruent/STIM_018.jpg	100
374.048	0.914	914.4	incongruent	Block1	incongruent/STIM_018.jpg	100
378.587	0.639	639.4	incongruent	Block1	incongruent/STIM_018.jpg	100
382.962	0.9	900.0	incongruent	Block1	incongruent/STIM_019.jpg	100
386.687	1.132	1132.4	incongruent	Block1	incongruent/STIM_019.jpg	99
390.502	0.885	885.3	incongruent	Block1	incongruent/STIM_019.jpg	100
394.231	0.877	876.6	incongruent	Block1	incongruent/STIM_019.jpg	99
397.471	0.947	947.1	incongruent	Block1	incongruent/STIM_019.jpg	100
401.597	0.765	765.4	incongruent	Block1	incongruent/STIM_020.jpg	99
406.048	1.009	1009.1	incongruent	Block1	incongruent/STIM_020.jpg	100
409.948	1.059	1058.6	incongruent	Block1	incongruent/STIM_020.jpg	99
413.529	0.696	695.8	incongruent	Block1	incongruent/STIM_020.jpg	100
417.758	0.582	582.4	incongruent	Block1	incongruent/STIM_020.jpg	99
420.736	1.04	1040.2	incongruent	Block1	incongruent/STIM_021.jpg	100
423.841	0.691	691.0	incongruent	Block1	incongruent/STIM_021.jpg	99
427.868	1.304	1303.9	incongruent	Block1	incongruent/STIM_021.jpg	99
431.907	1.206	1205.8	incongruent	Block1	incongruent/STIM_021.jpg	100
435.698	1.102	1102.1	incongruent	Block1	incongruent/STIM_021.jpg	100
440.414	1.355	1355.0	incongruent	Block1	incongruent/STIM_022.jpg	99
444.559	0.986	985.7	incongruent	Block1	incongruent/STIM_022.jpg	100
447.614	0.788	788.5	incongruent	Block1	incongruent/STIM_022.jpg	100
451.238	1.178	1178.4	incongruent	Block1	incongruent/STIM_022.jpg	99
456.377	1.178	1177.9	incongruent	Block1	incongruent/STIM_022.jpg	100
461.183	0.852	852.0	incongruent	Block1	incongruent/STIM_023.jpg	99
464.226	1.008	1007.9	incongruent	Block1	incongruent/STIM_023.jpg	99
467.303	0.875	875.2	incongruent	Block1	incongruent/STIM_023.jpg	99
470.466	1.173	1172.8	incongruent	Block1	incongruent/STIM_023.jpg	100
475.293	0.753	752.6	incongruent	Block1	incongruent/STIM_023.jpg	99
479.828	0.904	904.4	incongruent	Block1	incongruent/STIM_024.jpg	100
484.288	1.094	1093.5	incongruent	Block1	incongruent/STIM_024.jpg	100
487.662	0.85	849.9	incongruent	Block1	incongruent/STIM_024.jpg	100
490.725	0.63	630.0	incongruent	Block1	incongruent/STIM_024.jpg	99
493.732	1.037	1037.4	incongruent	Block1	incongruent/STIM_024.jpg	99
497.274	0.945	945.4	incongruent	Block1	incongruent/STIM_025.jpg	99
501.051	1.05	1049.8	incongruent	Block1	incongruent/STIM_025.jpg	100
505.735	0.885	885.2	incongruent	Block1	incongruent/STIM_025.jpg	100
508.898	0.835	834.7	incongruent	Block1	incongruent/STIM_025.jpg	100
513.651	1.139	1139.3	incongruent	Block1	incongruent/STIM_025.jpg	99
517.107	1.061	1060.8	incongruent	Block1	incongruent/STIM_026.jpg	99
521.037	1.357	1357.4	incongruent	Block1	incongruent/STIM_026.jpg	99
525.741	1.21	1210.5	incongruent	Block1	incongruent/STIM_026.jpg	99
528.985	1.14	1140.2	incongruent	Block1	incongruent/STIM_026.jpg	99
532.281	0.604	603.7	incongruent	Block1	incongruent/STIM_026.jpg	100
536.584	1.165	1164.9	incongruent	Block1	incongruent/STIM_027.jpg	100
540.029	0.747	747.3	incongruent	Block1	incongruent/STIM_027.jpg	100
544.451	0.718	718.0	incongruent	Block1	incongruent/STIM_027.jpg	100
548.664	1.051	1051.0	incongruent	Block1	incongruent/STIM_027.jpg	100
552.981	0.668	667.9	incongruent	Block1	incongruent/STIM_027.jpg	99
556.526	1.035	1035.3	incongruent	Block1	incongruent/STIM_028.jpg	100
561.161	0.967	966.8	incongruent	Block1	incongruent/STIM_028.jpg	100
564.554	1.335	1334.7	incongruent	Block1	incongruent/STIM_028.jpg	100
569.042	0.961	960.6	incongruent	Block1	incongruent/STIM_028.jpg	99
572.252	0.988	987.6	incongruent	Block1	incongruent/STIM_028.jpg	100
576.849	1.322	1322.2	incongruent	Block1	incongruent/STIM_029.jpg	99
581.447	1.397	1397.1	incongruent	Block1	incongruent/STIM_029.jpg	100
586.744	0.881	881.4	incongruent	Block1	incongruent/STIM_029.jpg	99
590.759	0.982	982.4	incongruent	Block1	incongruent/STIM_029.jpg	99
595.225	0.632	631.7	incongruent	Block1	incongruent/STIM_029.jpg	100
599.787	0.528	527.6	congruent	Block1	congruent/STIM_000.jpg	99
602.781	0.502	502.5	congruent	Block1	congruent/STIM_000.jpg	100
606.383	0.536	535.8	congruent	Block1	congruent/STIM_000.jpg	99
609.11	0.564	563.8	congruent	Block1	congruent/STIM_000.jpg	99
613.576	0.796	796.1	congruent	Block1	congruent/STIM_000.jpg	99
618.019	0.839	838.8	congruent	Block1	congruent/STIM_001.jpg	100
622.861	0.69	690.5	congruent	Block1	congruent/STIM_001.jpg	99
627.508	0.579	578.9	congruent	Block1	congruent/STIM_001.jpg	100
631.059	0.496	495.7	congruent	Block1	congruent/STIM_001.jpg	99
633.926	0.874	873.8	congruent	Block1	congruent/STIM_001.jpg	99
638.523	0.712	712.0	congruent	Block1	congruent/STIM_002.jpg	100
641.88	0.646	645.9	congruent	Block1	congruent/STIM_002.jpg	100
644.628	0.534	533.8	congruent	Block1	congruent/STIM_002.jpg	99
648.386	0.561	560.6	congruent	Block1	congruent/STIM_002.jpg	99
651.001	0.707	706.8	congruent	Block1	congruent/STIM_002.jpg	99
654.958	0.774	773.8	congruent	Block1	congruent/STIM_003.jpg	99
658.797	0.753	753.2	congruent	Block1	congruent/STIM_003.jpg	100
662.791	0.8	800.2	congruent	Block1	congruent/STIM_003.jpg	99
667.536	0.832	832.5	congruent	Block1	congruent/STIM_003.jpg	99
671.733	0.552	552.0	congruent	Block1	congruent/STIM_003.jpg	100
674.587	0.522	521.5	congruent	Block1	congruent/STIM_004.jpg	99
677.185	0.875	874.7	congruent	Block1	congruent/STIM_004.jpg	99
680.306	0.773	772.8	congruent	Block1	congruent/STIM_004.jpg	99
683.89	0.878	877.7	congruent	Block1	congruent/STIM_004.jpg	99
688.518	0.765	764.9	congruent	Block1	congruent/STIM_004.jpg	100
692.465	0.564	564.2	congruent	Block1	congruent/STIM_005.jpg	100
696.78	0.795	795.1	congruent	Block1	congruent/STIM_005.jpg	99
701.28	0.853	853.0	congruent	Block1	congruent/STIM_005.jpg	99
704.778	0.614	613.6	congruent	Block1	congruent/STIM_005.jpg	99
708.206	0.848	848.3	congruent	Block1	congruent/STIM_005.jpg	99
711.562	0.854	853.8	congruent	Block1	congruent/STIM_006.jpg	100
715.657	0.634	634.0	congruent	Block1	congruent/STIM_006.jpg	100
719.639	0.58	580.1	congruent	Block1	congruent/STIM_006.jpg	99
722.832	0.764	764.0	congruent	Block1	congruent/STIM_006.jpg	99
726.48	0.828	828.4	congruent	Block1	congruent/STIM_006.jpg	99
730.829	0.799	798.8	congruent	Block1	congruent/STIM_007.jpg	99
733.889	0.821	821.4	congruent	Block1	congruent/STIM_007.jpg	99
737.55	0.805	805.1	congruent	Block1	congruent/STIM_007.jpg	99
741.982	0.693	693.1	congruent	Block1	congruent/STIM_007.jpg	99
746.619	0.767	767.4	congruent	Block1	congruent/STIM_007.jpg	100
750.181	0.51	510.5	congruent	Block1	congruent/STIM_008.jpg	99
754.149	0.825	824.6	congruent	Block1	congruent/STIM_008.jpg	100
758.352	0.746	746.1	congruent	Block1	congruent/STIM_008.jpg	99
761.175	0.618	618.0	congruent	Block1	congruent/STIM_008.jpg	99
764.417	0.802	801.7	congruent	Block1	congruent/STIM_008.jpg	99
768.339	0.769	769.4	congruent	Block1	congruent/STIM_009.jpg	100
772.121	0.548	548.1	congruent	Block1	congruent/STIM_009.jpg	99
775.092	0.592	591.9	congruent	Block1	congruent/STIM_009.jpg	100
778.506	0.559	559.0	congruent	Block1	congruent/STIM_009.jpg	99
781.354	0.594	593.9	congruent	Block1	congruent/STIM_009.jpg	100
785.649	0.685	684.6	congruent	Block1	congruent/STIM_010.jpg	99
789.901	0.516	515.9	congruent	Block1	congruent/STIM_010.jpg	100
793.862	0.72	719.7	congruent	Block1	congruent/STIM_010.jpg	100
797.222	0.8	799.5	congruent	Block1	congruent/STIM_010.jpg	99
800.037	0.78	779.7	congruent	Block1	congruent/STIM_010.jpg	99
802.854	0.688	687.8	congruent	Block1	congruent/STIM_011.jpg	99
806.597	0.641	641.1	congruent	Block1	congruent/STIM_011.jpg	100
809.834	0.792	792.3	congruent	Block1	congruent/STIM_011.jpg	100
813.766	0.809	809.4	congruent	Block1	congruent/STIM_011.jpg	100
816.791	0.816	815.7	congruent	Block1	congruent/STIM_011.jpg	99
820.545	0.52	519.9	congruent	Block1	congruent/STIM_012.jpg	100
823.907	0.636	636.1	congruent	Block1	congruent/STIM_012.jpg	100
827.422	0.518	518.4	congruent	Block1	congruent/STIM_012.jpg	99
830.465	0.685	684.6	congruent	Block1	congruent/STIM_012.jpg	100
833.802	0.755	755.0	congruent	Block1	congruent/STIM_012.jpg	100
836.774	0.62	619.6	congruent	Block1	congruent/STIM_013.jpg	100
840.127	0.522	522.0	congruent	Block1	congruent/STIM_013.jpg	100
842.858	0.838	838.4	congruent	Block1	congruent/STIM_013.jpg	99
846.668	0.675	675.4	congruent	Block1	congruent/STIM_013.jpg	99
851.29	0.73	730.4	congruent	Block1	congruent/STIM_013.jpg	100
855.398	0.688	688.4	congruent	Block1	congruent/STIM_014.jpg	100
858.375	0.79	790.0	congruent	Block1	congruent/STIM_014.jpg	100
862.551	0.6	599.9	congruent	Block1	congruent/STIM_014.jpg	99
865.589	0.687	686.6	congruent	Block1	congruent/STIM_014.jpg	99
868.314	0.514	513.7	congruent	Block1	congruent/STIM_014.jpg	99
872.693	0.841	840.6	congruent	Block1	congruent/STIM_015.jpg	99
876.236	0.563	563.4	congruent	Block1	congruent/STIM_015.jpg	99
880.634	0.864	864.4	congruent	Block1	congruent/STIM_015.jpg	100
885.304	0.505	505.5	congruent	Block1	congruent/STIM_015.jpg	100
888.782	0.866	865.5	congruent	Block1	congruent/STIM_015.jpg	99
892.488	0.587	587.4	congruent	Block1	congruent/STIM_016.jpg	100
896.117	0.665	665.3	congruent	Block1	congruent/STIM_016.jpg	100
898.8	0.743	743.3	congruent	Block1	congruent/STIM_016.jpg	99
901.721	0.806	806.3	congruent	Block1	congruent/STIM_016.jpg	100
905.984	0.753	753.4	congruent	Block1	congruent/STIM_016.jpg	100
909.19	0.838	838.1	congruent	Block1	congruent/STIM_017.jpg	99
913.364	0.82	820.0	congruent	Block1	congruent/STIM_017.jpg	99
916.598	0.75	749.5	congruent	Block1	congruent/STIM_017.jpg	99
919.621	0.576	576.3	congruent	Block1	congruent/STIM_017.jpg	99
922.604	0.537	536.8	congruent	Block1	congruent/STIM_017.jpg	100
927.085	0.787	786.6	congruent	Block1	congruent/STIM_018.jpg	99
930.132	0.608	607.9	congruent	Block1	congruent/STIM_018.jpg	100
934.015	0.795	795.2	congruent	Block1	congruent/STIM_018.jpg	99
937.259	0.505	504.9	congruent	Block1	congruent/STIM_018.jpg	100
940.67	0.805	805.1	congruent	Block1	congruent/STIM_018.jpg	100
943.748	0.574	574.2	congruent	Block1	congruent/STIM_019.jpg	99
948.183	0.659	659.4	congruent	Block1	congruent/STIM_019.jpg	100
951.176	0.83	830.0	congruent	Block1	congruent/STIM_019.jpg	100
955.928	0.52	519.7	congruent	Block1	congruent/STIM_019.jpg	99
959.322	0.741	740.7	congruent	Block1	congruent/STIM_019.jpg	99
962.959	0.579	579.2	congruent	Block1	congruent/STIM_020.jpg	100
965.625	0.544	544.1	congruent	Block1	congruent/STIM_020.jpg	99
968.836	0.658	657.7	congruent	Block1	congruent/STIM_020.jpg	99
973.125	0.779	779.2	congruent	Block1	congruent/STIM_020.jpg	100
977.431	0.57	569.5	congruent	Block1	congruent/STIM_020.jpg	99
980.519	0.519	519.1	congruent	Block1	congruent/STIM_021.jpg	99
984.602	0.741	740.6	congruent	Block1	congruent/STIM_021.jpg	100
987.681	0.818	817.7	congruent	Block1	congruent/STIM_021.jpg	99
990.936	0.807	806.8	congruent	Block1	congruent/STIM_021.jpg	99
995.3	0.878	878.3	congruent	Block1	congruent/STIM_021.jpg	100
999.189	0.745	745.2	congruent	Block1	congruent/STIM_022.jpg	100
1002.9	0.737	737.0	congruent	Block1	congruent/STIM_022.jpg	99
1005.93	0.647	647.1	congruent	Block1	congruent/STIM_022.jpg	99
1010.238	0.706	706.3	congruent	Block1	congruent/STIM_022.jpg	100
1014.866	0.689	689.1	congruent	Block1	congruent/STIM_022.jpg	99
1018.079	0.686	686.3	congruent	Block1	congruent/STIM_023.jpg	99
1022.157	0.76	760.4	congruent	Block1	congruent/STIM_023.jpg	100
1025.604	0.628	628.5	congruent	Block1	congruent/STIM_023.jpg	100
1030.133	0.501	501.2	congruent	Block1	congruent/STIM_023.jpg	99
1033.243	0.653	652.8	congruent	Block1	congruent/STIM_023.jpg	100
1037.254	0.755	754.6	congruent	Block1	congruent/STIM_024.jpg	100
1041.265	0.664	663.8	congruent	Block1	congruent/STIM_024.jpg	99
1044.111	0.738	738.2	congruent	Block1	congruent/STIM_024.jpg	100
1047.336	0.866	865.6	congruent	Block1	congruent/STIM_024.jpg	100
1050.356	0.814	814.4	congruent	Block1	congruent/STIM_024.jpg	99
1053.332	0.708	708.1	congruent	Block1	congruent/STIM_025.jpg	99
1057.262	0.672	672.1	congruent	Block1	congruent/STIM_025.jpg	99
1060.596	0.788	787.5	congruent	Block1	congruent/STIM_025.jpg	99
1063.723	0.858	858.5	congruent	Block1	congruent/STIM_025.jpg	100
1068.524	0.52	520.4	congruent	Block1	congruent/STIM_025.jpg	100
1072.008	0.738	738.0	congruent	Block1	congruent/STIM_026.jpg	99
1076.117	0.593	593.2	congruent	Block1	congruent/STIM_026.jpg	100
1080.153	0.62	620.0	congruent	Block1	congruent/STIM_026.jpg	100
1084.479	0.85	849.6	congruent	Block1	congruent/STIM_026.jpg	100
1088.121	0.818	817.7	congruent	Block1	congruent/STIM_026.jpg	100
1092.243	0.76	759.8	congruent	Block1	congruent/STIM_027.jpg	100
1095.884	0.497	496.8	congruent	Block1	congruent/STIM_027.jpg	100
1100.177	0.607	607.0	congruent	Block1	congruent/STIM_027.jpg	99
1102.796	0.755	755.0	congruent	Block1	congruent/STIM_027.jpg	100
1107.477	0.61	609.5	congruent	Block1	congruent/STIM_027.jpg	99
1111.201	0.653	653.2	congruent	Block1	congruent/STIM_028.jpg	99
1113.914	0.88	880.1	congruent	Block1	congruent/STIM_028.jpg	99
1116.905	0.71	709.7	congruent	Block1	congruent/STIM_028.jpg	100
1120.609	0.526	525.9	congruent	Block1	congruent/STIM_028.jpg	99
1123.798	0.87	869.9	congruent	Block1	congruent/STIM_028.jpg	100
1127.276	0.821	820.6	congruent	Block1	congruent/STIM_029.jpg	100
1130.806	0.642	642.5	congruent	Block1	congruent/STIM_029.jpg	100
1134.156	0.853	852.8	congruent	Block1	congruent/STIM_029.jpg	99
1138.075	0.831	830.8	congruent	Block1	congruent/STIM_029.jpg	99
1141.535	0.574	574.2	congruent	Block1	congruent/STIM_029.jpg	100
1145.332	0.616	616.3	incongruent	Block2	incongruent/STIM_000.jpg	100
1149.747	1.009	1009.0	incongruent	Block2	incongruent/STIM_000.jpg	100
1153.557	0.727	727.0	incongruent	Block2	incongruent/STIM_000.jpg	100
1157.193	0.962	961.5	incongruent	Block2	incongruent/STIM_000.jpg	99
1160.239	0.939	938.6	incongruent	Block2	incongruent/STIM_000.jpg	100
1164.555	0.752	752.2	incongruent	Block2	incongruent/STIM_001.jpg	100
1168.326	0.653	652.9	incongruent	Block2	incongruent/STIM_001.jpg	100
1172.979	0.925	924.8	incongruent	Block2	incongruent/STIM_001.jpg	100
1177.4	0.824	823.5	incongruent	Block2	incongruent/STIM_001.jpg	100
1181.745	0.61	609.7	incongruent	Block2	incongruent/STIM_001.jpg	100
1185.8	1.24	1240.1	incongruent	Block2	incongruent/STIM_002.jpg	100
1189.75	0.556	555.6	incongruent	Block2	incongruent/STIM_002.jpg	99
1194.097	0.756	756.0	incongruent	Block2	incongruent/STIM_002.jpg	100
1198.46	0.863	862.6	incongruent	Block2	incongruent/STIM_002.jpg	99
1202.605	0.984	983.7	incongruent	Block2	incongruent/STIM_002.jpg	99
1207.311	1.108	1108.3	incongruent	Block2	incongruent/STIM_003.jpg	100
1210.641	0.89	890.4	incongruent	Block2	incongruent/STIM_003.jpg	100
1213.748	0.82	820.0	incongruent	Block2	incongruent/STIM_003.jpg	99
1218.291	0.772	771.9	incongruent	Block2	incongruent/STIM_003.jpg	99
1221.458	0.632	631.6	incongruent	Block2	incongruent/STIM_003.jpg	100
1224.948	0.77	769.8	incongruent	Block2	incongruent/STIM_004.jpg	100
1228.161	0.919	919.1	incongruent	Block2	incongruent/STIM_004.jpg	100
1231.377	0.856	855.7	incongruent	Block2	incongruent/STIM_004.jpg	100
1235.654	0.494	493.8	incongruent	Block2	incongruent/STIM_004.jpg	99
1238.355	0.942	942.5	incongruent	Block2	incongruent/STIM_004.jpg	99
1241.733	0.669	668.6	incongruent	Block2	incongruent/STIM_005.jpg	100
1244.489	0.94	940.0	incongruent	Block2	incongruent/STIM_005.jpg	99
1249.393	0.832	831.9	incongruent	Block2	incongruent/STIM_005.jpg	100
1253.456	1.012	1011.8	incongruent	Block2	incongruent/STIM_005.jpg	100
1257.85	0.504	503.6	incongruent	Block2	incongruent/STIM_005.jpg	100
1261.783	0.93	929.9	incongruent	Block2	incongruent/STIM_006.jpg	99
1265.45	1.027	1027.2	incongruent	Block2	incongruent/STIM_006.jpg	99
1270.124	0.691	690.9	incongruent	Block2	incongruent/STIM_006.jpg	99
1274.045	0.531	531.4	incongruent	Block2	incongruent/STIM_006.jpg	99
1276.833	0.823	822.6	incongruent	Block2	incongruent/STIM_006.jpg	99
1280.086	0.671	671.0	incongruent	Block2	incongruent/STIM_007.jpg	99
1283.931	1.058	1058.0	incongruent	Block2	incongruent/STIM_007.jpg	100
1287.367	0.534	534.2	incongruent	Block2	incongruent/STIM_007.jpg	99
1290.253	0.499	498.7	incongruent	Block2	incongruent/STIM_007.jpg	100
1294.499	0.982	982.4	incongruent	Block2	incongruent/STIM_007.jpg	100
1297.697	0.736	736.2	incongruent	Block2	incongruent/STIM_008.jpg	100
1301.611	0.998	998.1	incongruent	Block2	incongruent/STIM_008.jpg	100
1305.184	1.042	1042.3	incongruent	Block2	incongruent/STIM_008.jpg	100
1308.24	0.621	620.8	incongruent	Block2	incongruent/STIM_008.jpg	99
1312.488	0.682	682.1	incongruent	Block2	incongruent/STIM_008.jpg	99
1315.864	0.952	951.7	incongruent	Block2	incongruent/STIM_009.jpg	100
1319.97	0.748	747.9	incongruent	Block2	incongruent/STIM_009.jpg	99
1323.727	0.646	646.2	incongruent	Block2	incongruent/STIM_009.jpg	100
1327.821	0.923	922.7	incongruent	Block2	incongruent/STIM_009.jpg	99
1331.522	0.847	847.0	incongruent	Block2	incongruent/STIM_009.jpg	99
1335.404	1.1	1100.2	incongruent	Block2	incongruent/STIM_010.jpg	99
1339.587	0.864	864.5	incongruent	Block2	incongruent/STIM_010.jpg	100
1344.075	0.792	791.5	incongruent	Block2	incongruent/STIM_010.jpg	99
1347.887	0.525	525.4	incongruent	Block2	incongruent/STIM_010.jpg	100
1352.373	0.92	920.4	incongruent	Block2	incongruent/STIM_010.jpg	99
1356.511	0.674	673.7	incongruent	Block2	incongruent/STIM_011.jpg	100
1359.956	1.141	1141.3	incongruent	Block2	incongruent/STIM_011.jpg	99
1363.54	0.97	969.6	incongruent	Block2	incongruent/STIM_011.jpg	100
1367.587	0.716	716.2	incongruent	Block2	incongruent/STIM_011.jpg	99
1371.882	1.012	1012.4	incongruent	Block2	incongruent/STIM_011.jpg	100
1376.211	1.208	1208.0	incongruent	Block2	incongruent/STIM_012.jpg	100
1379.915	0.681	681.0	incongruent	Block2	incongruent/STIM_012.jpg	99
1383.145	0.905	904.9	incongruent	Block2	incongruent/STIM_012.jpg	100
1386.5	0.723	722.6	incongruent	Block2	incongruent/STIM_012.jpg	99
1390.112	0.534	534.4	incongruent	Block2	incongruent/STIM_012.jpg	100
1393.839	0.705	704.9	incongruent	Block2	incongruent/STIM_013.jpg	99
1397.165	0.913	912.7	incongruent	Block2	incongruent/STIM_013.jpg	99
1400.241	0.645	644.7	incongruent	Block2	incongruent/STIM_013.jpg	100
1404.334	0.552	551.9	incongruent	Block2	incongruent/STIM_013.jpg	99
1407.179	0.604	604.0	incongruent	Block2	incongruent/STIM_013.jpg	99
1411.148	0.737	736.8	incongruent	Block2	incongruent/STIM_014.jpg	99
1414.359	0.8	799.8	incongruent	Block2	incongruent/STIM_014.jpg	99
1418.62	0.975	974.7	incongruent	Block2	incongruent/STIM_014.jpg	99
1422.463	0.525	524.7	incongruent	Block2	incongruent/STIM_014.jpg	100
1425.067	0.967	966.9	incongruent	Block2	incongruent/STIM_014.jpg	100
1428.076	1.171	1170.9	incongruent	Block2	incongruent/STIM_015.jpg	99
1432.464	1.188	1187.9	incongruent	Block2	incongruent/STIM_015.jpg	100
1437.614	0.668	668.1	incongruent	Block2	incongruent/STIM_015.jpg	100
1442.261	0.514	514.0	incongruent	Block2	incongruent/STIM_015.jpg	100
1446.445	0.788	788.1	incongruent	Block2	incongruent/STIM_015.jpg	99
1450.025	1.164	1163.8	incongruent	Block2	incongruent/STIM_016.jpg	99
1453.969	1.147	1146.9	incongruent	Block2	incongruent/STIM_016.jpg	100
1458.546	0.98	979.9	incongruent	Block2	incongruent/STIM_016.jpg	99
1462.949	0.764	764.4	incongruent	Block2	incongruent/STIM_016.jpg	99
1466.799	1.006	1006.4	incongruent	Block2	incongruent/STIM_016.jpg	100
1469.897	1.144	1144.4	incongruent	Block2	incongruent/STIM_017.jpg	99
1473.542	0.585	584.6	incongruent	Block2	incongruent/STIM_017.jpg	100
1477.83	1.099	1098.8	incongruent	Block2	incongruent/STIM_017.jpg	100
1481.42	0.542	541.7	incongruent	Block2	incongruent/STIM_017.jpg	99
1485.604	0.826	826.2	incongruent	Block2	incongruent/STIM_017.jpg	99
1489.99	0.743	743.1	incongruent	Block2	incongruent/STIM_018.jpg	99
1494.573	1.13	1130.5	incongruent	Block2	incongruent/STIM_018.jpg	100
1499.231	0.722	721.8	incongruent	Block2	incongruent/STIM_018.jpg	100
1501.96	0.607	607.1	incongruent	Block2	incongruent/STIM_018.jpg	100
1505.433	0.526	525.6	incongruent	Block2	incongruent/STIM_018.jpg	100
1508.793	0.965	964.9	incongruent	Block2	incongruent/STIM_019.jpg	100
1513.623	0.764	763.5	incongruent	Block2	incongruent/STIM_019.jpg	99
1517.109	1.028	1028.5	incongruent	Block2	incongruent/STIM_019.jpg	99
1521.874	0.909	909.3	incongruent	Block2	incongruent/STIM_019.jpg	99
1526.554	0.755	755.2	incongruent	Block2	incongruent/STIM_019.jpg	100
1530.073	0.928	928.3	incongruent	Block2	incongruent/STIM_020.jpg	99
1533.125	0.918	918.4	incongruent	Block2	incongruent/STIM_020.jpg	99
1537.901	0.671	670.8	incongruent	Block2	incongruent/STIM_020.jpg	99
1540.799	0.892	892.0	incongruent	Block2	incongruent/STIM_020.jpg	100
1543.765	0.778	777.9	incongruent	Block2	incongruent/STIM_020.jpg	100
1547.223	1.097	1097.3	incongruent	Block2	incongruent/STIM_021.jpg	99
1551.456	0.662	661.7	incongruent	Block2	incongruent/STIM_021.jpg	100
1554.623	0.781	780.8	incongruent	Block2	incongruent/STIM_021.jpg	99
1558.156	0.91	910.4	incongruent	Block2	incongruent/STIM_021.jpg	100
1562.756	1.014	1013.9	incongruent	Block2	incongruent/STIM_021.jpg	100
1567.259	0.865	865.3	incongruent	Block2	incongruent/STIM_022.jpg	100
1570.458	0.563	562.8	incongruent	Block2	incongruent/STIM_022.jpg	100
1574.481	0.654	654.5	incongruent	Block2	incongruent/STIM_022.jpg	100
1577.981	0.928	928.0	incongruent	Block2	incongruent/STIM_022.jpg	99
1581.246	0.757	756.9	incongruent	Block2	incongruent/STIM_022.jpg	100
1585.595	1.067	1066.8	incongruent	Block2	incongruent/STIM_023.jpg	99
1590.219	0.862	861.9	incongruent	Block2	incongruent/STIM_023.jpg	100
1594.713	0.827	827.1	incongruent	Block2	incongruent/STIM_023.jpg	100
1598.391	0.737	736.7	incongruent	Block2	incongruent/STIM_023.jpg	100
1602.966	0.986	985.8	incongruent	Block2	incongruent/STIM_023.jpg	100
1607.576	0.913	913.0	incongruent	Block2	incongruent/STIM_024.jpg	100
1611.254	0.897	897.1	incongruent	Block2	incongruent/STIM_024.jpg	99
1616.061	0.594	593.6	incongruent	Block2	incongruent/STIM_024.jpg	100
1619.075	1.036	1035.8	incongruent	Block2	incongruent/STIM_024.jpg	99
1623.471	0.856	856.1	incongruent	Block2	incongruent/STIM_024.jpg	99
1626.77	0.684	683.9	incongruent	Block2	incongruent/STIM_025.jpg	100
1629.844	0.619	619.1	incongruent	Block2	incongruent/STIM_025.jpg	100
1633.579	0.927	927.4	incongruent	Block2	incongruent/STIM_025.jpg	99
1638.067	0.579	579.0	incongruent	Block2	incongruent/STIM_025.jpg	99
1641.876	0.813	813.2	incongruent	Block2	incongruent/STIM_025.jpg	99
1645.832	0.736	735.5	incongruent	Block2	incongruent/STIM_026.jpg	100
1650.13	0.794	793.9	incongruent	Block2	incongruent/STIM_026.jpg	100
1653.505	0.661	660.6	incongruent	Block2	incongruent/STIM_026.jpg	99
1656.184	1.003	1003.1	incongruent	Block2	incongruent/STIM_026.jpg	100
1659.297	0.899	898.6	incongruent	Block2	incongruent/STIM_026.jpg	99
1663.656	0.638	637.9	incongruent	Block2	incongruent/STIM_027.jpg	100
1666.963	0.591	591.2	incongruent	Block2	incongruent/STIM_027.jpg	100
1671.244	0.811	811.2	incongruent	Block2	incongruent/STIM_027.jpg	100
1674.697	0.873	872.8	incongruent	Block2	incongruent/STIM_027.jpg	100
1679.168	1.008	1008.5	incongruent	Block2	incongruent/STIM_027.jpg	100
1684.108	0.916	915.9	incongruent	Block2	incongruent/STIM_028.jpg	100
1687.518	0.894	893.7	incongruent	Block2	incongruent/STIM_028.jpg	100
1691.755	0.677	676.7	incongruent	Block2	incongruent/STIM_028.jpg	99
1696.118	1.009	1008.8	incongruent	Block2	incongruent/STIM_028.jpg	100
1699.901	0.971	970.6	incongruent	Block2	incongruent/STIM_028.jpg	99
1703.248	0.866	865.9	incongruent	Block2	incongruent/STIM_029.jpg	99
1707.764	1.042	1042.2	incongruent	Block2	incongruent/STIM_029.jpg	100
1711.645	0.889	889.1	incongruent	Block2	incongruent/STIM_029.jpg	99
1714.971	1.028	1027.8	incongruent	Block2	incongruent/STIM_029.jpg	99
1719.748	0.992	992.2	incongruent	Block2	incongruent/STIM_029.jpg	99
1723.302	0.798	797.6	congruent	Block2	congruent/STIM_000.jpg	99
1726.676	0.636	635.8	congruent	Block2	congruent/STIM_000.jpg	100
1730.012	0.89	889.8	congruent	Block2	congruent/STIM_000.jpg	100
1734.462	0.618	618.1	congruent	Block2	congruent/STIM_000.jpg	100
1737.86	0.684	684.4	congruent	Block2	congruent/STIM_000.jpg	100
1741.166	0.595	595.1	congruent	Block2	congruent/STIM_001.jpg	100
1745.672	0.633	633.1	congruent	Block2	congruent/STIM_001.jpg	100
1748.545	0.614	613.7	congruent	Block2	congruent/STIM_001.jpg	100
1752.654	0.692	691.8	congruent	Block2	congruent/STIM_001.jpg	100
1756.938	0.816	815.5	congruent	Block2	congruent/STIM_001.jpg	99
1760.966	0.502	502.5	congruent	Block2	congruent/STIM_002.jpg	99
1764.06	0.859	858.9	congruent	Block2	congruent/STIM_002.jpg	99
1767.111	0.702	702.0	congruent	Block2	congruent/STIM_002.jpg	100
1771.675	0.774	774.0	congruent	Block2	congruent/STIM_002.jpg	100
1775.907	0.872	872.2	congruent	Block2	congruent/STIM_002.jpg	100
1780.123	0.778	777.6	congruent	Block2	congruent/STIM_003.jpg	99
1783.17	0.776	775.6	congruent	Block2	congruent/STIM_003.jpg	100
1786.653	0.525	525.0	congruent	Block2	congruent/STIM_003.jpg	100
1790.252	0.556	555.6	congruent	Block2	congruent/STIM_003.jpg	100
1793.446	0.797	796.7	congruent	Block2	congruent/STIM_003.jpg	99
1798.12	0.847	847.3	congruent	Block2	congruent/STIM_004.jpg	99
1801.734	0.506	506.1	congruent	Block2	congruent/STIM_004.jpg	100
1804.273	0.797	797.0	congruent	Block2	congruent/STIM_004.jpg	100
1807.312	0.696	695.7	congruent	Block2	congruent/STIM_004.jpg	100
1810.959	0.869	869.2	congruent	Block2	congruent/STIM_004.jpg	100
1814.926	0.716	715.7	congruent	Block2	congruent/STIM_005.jpg	100
1818.393	0.788	787.6	congruent	Block2	congruent/STIM_005.jpg	99
1821.209	0.878	878.2	congruent	Block2	congruent/STIM_005.jpg	99
1824.475	0.67	669.6	congruent	Block2	congruent/STIM_005.jpg	100
1827.646	0.707	707.1	congruent	Block2	congruent/STIM_005.jpg	100
1831.423	0.616	616.0	congruent	Block2	congruent/STIM_006.jpg	100
1834.801	0.548	547.6	congruent	Block2	congruent/STIM_006.jpg	99
1838.596	0.636	635.6	congruent	Block2	congruent/STIM_006.jpg	99
1841.495	0.74	740.2	congruent	Block2	congruent/STIM_006.jpg	99
1846.054	0.763	762.9	congruent	Block2	congruent/STIM_006.jpg	100
1849.32	0.518	518.5	congruent	Block2	congruent/STIM_007.jpg	100
1853.405	0.642	641.7	congruent	Block2	congruent/STIM_007.jpg	100
1857.745	0.78	780.2	congruent	Block2	congruent/STIM_007.jpg	100
1861.823	0.865	864.8	congruent	Block2	congruent/STIM_007.jpg	99
1865.856	0.729	729.0	congruent	Block2	congruent/STIM_007.jpg	99
1869.302	0.658	658.1	congruent	Block2	congruent/STIM_008.jpg	99
1873.043	0.639	639.2	congruent	Block2	congruent/STIM_008.jpg	100
1876.537	0.877	877.1	congruent	Block2	congruent/STIM_008.jpg	100
1881.205	0.829	828.7	congruent	Block2	congruent/STIM_008.jpg	99
1885.25	0.554	553.8	congruent	Block2	congruent/STIM_008.jpg	100
1888.101	0.836	836.4	congruent	Block2	congruent/STIM_009.jpg	100
1891.505	0.712	711.9	congruent	Block2	congruent/STIM_009.jpg	99
1895.931	0.876	875.8	congruent	Block2	congruent/STIM_009.jpg	100
1899.87	0.836	836.3	congruent	Block2	congruent/STIM_009.jpg	100
1903.817	0.847	847.0	congruent	Block2	congruent/STIM_009.jpg	99
1907.993	0.572	571.7	congruent	Block2	congruent/STIM_010.jpg	99
1911.273	0.522	521.9	congruent	Block2	congruent/STIM_010.jpg	99
1915.294	0.619	618.7	congruent	Block2	congruent/STIM_010.jpg	100
1918.025	0.539	539.4	congruent	Block2	congruent/STIM_010.jpg	100
1922.106	0.639	639.3	congruent	Block2	congruent/STIM_010.jpg	99
1925.72	0.59	590.2	congruent	Block2	congruent/STIM_011.jpg	100
1929.248	0.882	881.7	congruent	Block2	congruent/STIM_011.jpg	99
1932.52	0.685	685.4	congruent	Block2	congruent/STIM_011.jpg	100
1936.911	0.552	551.8	congruent	Block2	congruent/STIM_011.jpg	99
1939.915	0.818	818.0	congruent	Block2	congruent/STIM_011.jpg	99
1944.189	0.777	777.2	congruent	Block2	congruent/STIM_012.jpg	99
1948.107	0.5	500.1	congruent	Block2	congruent/STIM_012.jpg	100
1952.517	0.662	662.4	congruent	Block2	congruent/STIM_012.jpg	100
1956.345	0.654	654.0	congruent	Block2	congruent/STIM_012.jpg	99
1959.079	0.842	842.0	congruent	Block2	congruent/STIM_012.jpg	99
1963.427	0.764	764.5	congruent	Block2	congruent/STIM_013.jpg	99
1966.5	0.553	552.9	congruent	Block2	congruent/STIM_013.jpg	100
1970.121	0.747	746.8	congruent	Block2	congruent/STIM_013.jpg	100
1974.061	0.618	618.4	congruent	Block2	congruent/STIM_013.jpg	100
1977.534	0.675	675.4	congruent	Block2	congruent/STIM_013.jpg	100
1980.737	0.53	530.2	congruent	Block2	congruent/STIM_014.jpg	100
1984.227	0.552	552.5	congruent	Block2	congruent/STIM_014.jpg	99
1986.928	0.796	795.6	congruent	Block2	congruent/STIM_014.jpg	100
1990.058	0.558	558.4	congruent	Block2	congruent/STIM_014.jpg	99
1993.205	0.819	819.1	congruent	Block2	congruent/STIM_014.jpg	99
1997.437	0.852	852.5	congruent	Block2	congruent/STIM_015.jpg	100
2001.753	0.756	756.4	congruent	Block2	congruent/STIM_015.jpg	99
2006.24	0.557	557.4	congruent	Block2	congruent/STIM_015.jpg	100
2008.956	0.701	701.0	congruent	Block2	congruent/STIM_015.jpg	100
2013.456	0.616	616.2	congruent	Block2	congruent/STIM_015.jpg	99
2017.635	0.59	590.0	congruent	Block2	congruent/STIM_016.jpg	100
2020.832	0.808	807.8	congruent	Block2	congruent/STIM_016.jpg	99
2025.11	0.613	612.8	congruent	Block2	congruent/STIM_016.jpg	100
2029.256	0.713	713.0	congruent	Block2	congruent/STIM_016.jpg	100
2031.999	0.618	618.3	congruent	Block2	congruent/STIM_016.jpg	99
2035.749	0.872	871.8	congruent	Block2	congruent/STIM_017.jpg	100
2038.917	0.868	868.5	congruent	Block2	congruent/STIM_017.jpg	100
2042.25	0.865	865.1	congruent	Block2	congruent/STIM_017.jpg	100
2045.164	0.861	860.6	congruent	Block2	congruent/STIM_017.jpg	99
2048.287	0.515	515.1	congruent	Block2	congruent/STIM_017.jpg	99
2052.584	0.775	775.4	congruent	Block2	congruent/STIM_018.jpg	99
2055.969	0.815	814.9	congruent	Block2	congruent/STIM_018.jpg	99
2060.082	0.663	663.4	congruent	Block2	congruent/STIM_018.jpg	100
2063.219	0.705	705.4	congruent	Block2	congruent/STIM_018.jpg	99
2067.834	0.827	826.9	congruent	Block2	congruent/STIM_018.jpg	99
2070.873	0.569	568.7	congruent	Block2	congruent/STIM_019.jpg	100
2073.686	0.611	611.4	congruent	Block2	congruent/STIM_019.jpg	100
2077.792	0.651	651.2	congruent	Block2	congruent/STIM_019.jpg	99
2080.458	0.786	786.5	congruent	Block2	congruent/STIM_019.jpg	99
2084.814	0.703	702.6	congruent	Block2	congruent/STIM_019.jpg	99
2088.326	0.758	757.7	congruent	Block2	congruent/STIM_020.jpg	100
2092.17	0.635	634.8	congruent	Block2	congruent/STIM_020.jpg	100
2095.011	0.543	542.6	congruent	Block2	congruent/STIM_020.jpg	99
2099.526	0.72	719.8	congruent	Block2	congruent/STIM_020.jpg	99
2103.905	0.887	886.9	congruent	Block2	congruent/STIM_020.jpg	100
2107.781	0.557	557.0	congruent	Block2	congruent/STIM_021.jpg	100
2110.733	0.546	546.2	congruent	Block2	congruent/STIM_021.jpg	99
2115.224	0.693	693.0	congruent	Block2	congruent/STIM_021.jpg	100
2118.388	0.651	650.8	congruent	Block2	congruent/STIM_021.jpg	99
2121.558	0.641	640.8	congruent	Block2	congruent/STIM_021.jpg	100
2125.779	0.583	583.0	congruent	Block2	congruent/STIM_022.jpg	100
2128.444	0.538	538.2	congruent	Block2	congruent/STIM_022.jpg	99
2131.67	0.658	658.4	congruent	Block2	congruent/STIM_022.jpg	100
2135.801	0.834	834.2	congruent	Block2	congruent/STIM_022.jpg	99
2138.643	0.531	531.1	congruent	Block2	congruent/STIM_022.jpg	100
2142.203	0.878	877.5	congruent	Block2	congruent/STIM_023.jpg	99
2145.564	0.735	734.7	congruent	Block2	congruent/STIM_023.jpg	99
2150.003	0.535	535.2	congruent	Block2	congruent/STIM_023.jpg	100
2153.408	0.713	713.4	congruent	Block2	congruent/STIM_023.jpg	100
2157.351	0.624	623.5	congruent	Block2	congruent/STIM_023.jpg	99
2160.814	0.707	706.9	congruent	Block2	congruent/STIM_024.jpg	99
2165.416	0.714	714.4	congruent	Block2	congruent/STIM_024.jpg	99
2169.967	0.842	841.6	congruent	Block2	congruent/STIM_024.jpg	99
2174.151	0.635	634.9	congruent	Block2	congruent/STIM_024.jpg	99
2178.594	0.704	703.8	congruent	Block2	congruent/STIM_024.jpg	100
2182.153	0.65	650.4	congruent	Block2	congruent/STIM_025.jpg	99
2186.177	0.746	746.1	congruent	Block2	congruent/STIM_025.jpg	100
2190.572	0.656	656.2	congruent	Block2	congruent/STIM_025.jpg	100
2193.251	0.615	614.8	congruent	Block2	congruent/STIM_025.jpg	100
2197.031	0.677	676.8	congruent	Block2	congruent/STIM_025.jpg	100
2201.599	0.862	861.8	congruent	Block2	congruent/STIM_026.jpg	100
2204.954	0.629	628.6	congruent	Block2	congruent/STIM_026.jpg	99
2207.752	0.839	838.9	congruent	Block2	congruent/STIM_026.jpg	99
2212.363	0.734	734.1	congruent	Block2	congruent/STIM_026.jpg	99
2215.484	0.756	755.8	congruent	Block2	congruent/STIM_026.jpg	100
2219.246	0.754	754.0	congruent	Block2	congruent/STIM_027.jpg	100
2222.919	0.517	516.8	congruent	Block2	congruent/STIM_027.jpg	100
2225.711	0.839	838.9	congruent	Block2	congruent/STIM_027.jpg	99
2229.282	0.876	875.6	congruent	Block2	congruent/STIM_027.jpg	100
2232.702	0.787	787.0	congruent	Block2	congruent/STIM_027.jpg	100
2237.328	0.843	842.8	congruent	Block2	congruent/STIM_028.jpg	100
2241.321	0.782	781.9	congruent	Block2	congruent/STIM_028.jpg	100
2245.348	0.738	737.9	congruent	Block2	congruent/STIM_028.jpg	99
2248.666	0.886	886.0	congruent	Block2	congruent/STIM_028.jpg	100
2251.611	0.849	848.6	congruent	Block2	congruent/STIM_028.jpg	100
2254.78	0.758	757.9	congruent	Block2	congruent/STIM_029.jpg	99
2257.595	0.563	563.0	congruent	Block2	congruent/STIM_029.jpg	99
2261.913	0.782	781.7	congruent	Block2	congruent/STIM_029.jpg	99
2264.945	0.649	649.4	congruent	Block2	congruent/STIM_029.jpg	99
2269.352	0.745	744.8	congruent	Block2	congruent/STIM_029.jpg	100
2273.285	0.685	685.3	incongruent	Block3	incongruent/STIM_000.jpg	99
2277.634	0.621	620.7	incongruent	Block3	incongruent/STIM_000.jpg	100
2280.93	0.646	645.8	incongruent	Block3	incongruent/STIM_000.jpg	99
2284.092	0.862	861.6	incongruent	Block3	incongruent/STIM_000.jpg	99
2287.357	0.909	909.3	incongruent	Block3	incongruent/STIM_000.jpg	100
2292.233	0.486	486.4	incongruent	Block3	incongruent/STIM_001.jpg	99
2295.856	0.964	964.2	incongruent	Block3	incongruent/STIM_001.jpg	100
2299.58	0.677	677.3	incongruent	Block3	incongruent/STIM_001.jpg	99
2302.826	0.551	551.0	incongruent	Block3	incongruent/STIM_001.jpg	100
2306.17	0.693	692.7	incongruent	Block3	incongruent/STIM_001.jpg	99
2310.725	0.668	667.8	incongruent	Block3	incongruent/STIM_002.jpg	100
2313.599	0.717	717.3	incongruent	Block3	incongruent/STIM_002.jpg	99
2316.721	0.713	713.2	incongruent	Block3	incongruent/STIM_002.jpg	100
2320.912	0.628	627.9	incongruent	Block3	incongruent/STIM_002.jpg	100
2324.3	0.988	987.5	incongruent	Block3	incongruent/STIM_002.jpg	100
2328.146	0.682	681.5	incongruent	Block3	incongruent/STIM_003.jpg	99
2332.74	0.654	654.1	incongruent	Block3	incongruent/STIM_003.jpg	100
2335.793	0.548	548.1	incongruent	Block3	incongruent/STIM_003.jpg	99
2339.997	0.597	597.0	incongruent	Block3	incongruent/STIM_003.jpg	99
2344.298	0.816	816.5	incongruent	Block3	incongruent/STIM_003.jpg	100
2347.529	0.84	839.8	incongruent	Block3	incongruent/STIM_004.jpg	100
2352.299	0.859	858.9	incongruent	Block3	incongruent/STIM_004.jpg	99
2356.944	0.582	581.7	incongruent	Block3	incongruent/STIM_004.jpg	100
2360.802	1.005	1004.6	incongruent	Block3	incongruent/STIM_004.jpg	99
2365.633	0.551	551.1	incongruent	Block3	incongruent/STIM_004.jpg	100
2369.664	0.724	723.6	incongruent	Block3	incongruent/STIM_005.jpg	99
2373.551	0.872	871.5	incongruent	Block3	incongruent/STIM_005.jpg	100
2376.708	0.814	813.6	incongruent	Block3	incongruent/STIM_005.jpg	99
2381.353	0.901	901.0	incongruent	Block3	incongruent/STIM_005.jpg	99
2386.199	0.645	645.4	incongruent	Block3	incongruent/STIM_005.jpg	100
2389.694	1.035	1034.9	incongruent	Block3	incongruent/STIM_006.jpg	100
2394.723	0.668	668.2	incongruent	Block3	incongruent/STIM_006.jpg	99
2397.684	0.873	872.9	incongruent	Block3	incongruent/STIM_006.jpg	100
2402.154	0.953	952.9	incongruent	Block3	incongruent/STIM_006.jpg	100
2405.424	0.521	520.9	incongruent	Block3	incongruent/STIM_006.jpg	100
2409.806	0.643	643.4	incongruent	Block3	incongruent/STIM_007.jpg	100
2414.039	0.594	594.1	incongruent	Block3	incongruent/STIM_007.jpg	100
2417.569	0.998	998.5	incongruent	Block3	incongruent/STIM_007.jpg	99
2421.134	0.644	644.5	incongruent	Block3	incongruent/STIM_007.jpg	100
2425.72	0.67	670.4	incongruent	Block3	incongruent/STIM_007.jpg	100
2428.962	0.694	694.5	incongruent	Block3	incongruent/STIM_008.jpg	100
2433.121	0.563	563.1	incongruent	Block3	incongruent/STIM_008.jpg	99
2437.201	0.579	579.4	incongruent	Block3	incongruent/STIM_008.jpg	99
2441.14	0.75	750.5	incongruent	Block3	incongruent/STIM_008.jpg	99
2444.458	0.608	607.7	incongruent	Block3	incongruent/STIM_008.jpg	100
2448.937	0.59	590.5	incongruent	Block3	incongruent/STIM_009.jpg	100
2451.553	0.758	757.9	incongruent	Block3	incongruent/STIM_009.jpg	99
2456.259	0.759	758.7	incongruent	Block3	incongruent/STIM_009.jpg	100
2460.346	0.932	931.6	incongruent	Block3	incongruent/STIM_009.jpg	100
2463.35	0.871	870.6	incongruent	Block3	incongruent/STIM_009.jpg	99
2466.757	0.641	641.4	incongruent	Block3	incongruent/STIM_010.jpg	100
2471.249	0.542	542.3	incongruent	Block3	incongruent/STIM_010.jpg	99
2474.021	0.486	485.7	incongruent	Block3	incongruent/STIM_010.jpg	99
2477.858	0.996	996.0	incongruent	Block3	incongruent/STIM_010.jpg	100
2482.17	0.494	493.5	incongruent	Block3	incongruent/STIM_010.jpg	100
2485.35	0.536	535.7	incongruent	Block3	incongruent/STIM_011.jpg	100
2489.42	0.851	851.1	incongruent	Block3	incongruent/STIM_011.jpg	99
2494.138	1.029	1028.6	incongruent	Block3	incongruent/STIM_011.jpg	100
2498.301	0.657	656.9	incongruent	Block3	incongruent/STIM_011.jpg	100
2502.422	0.703	703.1	incongruent	Block3	incongruent/STIM_011.jpg	100
2506.938	0.697	697.0	incongruent	Block3	incongruent/STIM_012.jpg	99
2511.638	0.949	948.9	incongruent	Block3	incongruent/STIM_012.jpg	99
2514.97	0.491	491.4	incongruent	Block3	incongruent/STIM_012.jpg	99
2519.069	0.634	634.1	incongruent	Block3	incongruent/STIM_012.jpg	100
2522.061	0.625	625.1	incongruent	Block3	incongruent/STIM_012.jpg	99
2525.927	0.715	714.9	incongruent	Block3	incongruent/STIM_013.jpg	99
2528.664	0.826	826.2	incongruent	Block3	incongruent/STIM_013.jpg	99
2532.244	0.927	927.2	incongruent	Block3	incongruent/STIM_013.jpg	99
2535.381	0.847	847.3	incongruent	Block3	incongruent/STIM_013.jpg	100
2539.635	0.5	499.7	incongruent	Block3	incongruent/STIM_013.jpg	99
2543.834	0.837	837.0	incongruent	Block3	incongruent/STIM_014.jpg	99
2547.942	0.512	512.1	incongruent	Block3	incongruent/STIM_014.jpg	99
2552.202	0.963	963.1	incongruent	Block3	incongruent/STIM_014.jpg	99
2555.738	0.828	828.0	incongruent	Block3	incongruent/STIM_014.jpg	100
2558.864	0.812	812.1	incongruent	Block3	incongruent/STIM_014.jpg	100
2561.82	0.767	766.8	incongruent	Block3	incongruent/STIM_015.jpg	100
2564.686	0.687	686.8	incongruent	Block3	incongruent/STIM_015.jpg	99
2568.753	0.514	513.5	incongruent	Block3	incongruent/STIM_015.jpg	100
2571.315	0.717	716.9	incongruent	Block3	incongruent/STIM_015.jpg	99
2575.636	0.77	770.3	incongruent	Block3	incongruent/STIM_015.jpg	99
2579.934	0.822	822.0	incongruent	Block3	incongruent/STIM_016.jpg	100
2582.965	0.896	896.2	incongruent	Block3	incongruent/STIM_016.jpg	99
2587.035	0.881	880.6	incongruent	Block3	incongruent/STIM_016.jpg	99
2591.174	0.813	812.7	incongruent	Block3	incongruent/STIM_016.jpg	99
2595.833	0.555	554.7	incongruent	Block3	incongruent/STIM_016.jpg	100
2599.952	0.834	833.5	incongruent	Block3	incongruent/STIM_017.jpg	100
2603.107	1.0	1000.3	incongruent	Block3	incongruent/STIM_017.jpg	100
2607.091	0.979	979.4	incongruent	Block3	incongruent/STIM_017.jpg	99
2610.199	0.852	851.9	incongruent	Block3	incongruent/STIM_017.jpg	99
2613.655	0.761	761.0	incongruent	Block3	incongruent/STIM_017.jpg	99
2616.682	0.812	811.6	incongruent	Block3	incongruent/STIM_018.jpg	100
2620.466	1.008	1007.5	incongruent	Block3	incongruent/STIM_018.jpg	100
2623.791	0.848	847.6	incongruent	Block3	incongruent/STIM_018.jpg	100
2627.879	0.918	918.1	incongruent	Block3	incongruent/STIM_018.jpg	100
2631.107	0.971	971.3	incongruent	Block3	incongruent/STIM_018.jpg	99
2635.156	0.833	833.0	incongruent	Block3	incongruent/STIM_019.jpg	100
2639.407	0.726	726.0	incongruent	Block3	incongruent/STIM_019.jpg	99
2643.714	0.875	875.2	incongruent	Block3	incongruent/STIM_019.jpg	99
2647.462	0.588	588.0	incongruent	Block3	incongruent/STIM_019.jpg	100
2651.906	0.49	489.8	incongruent	Block3	incongruent/STIM_019.jpg	100
2655.527	0.705	705.3	incongruent	Block3	incongruent/STIM_020.jpg	99
2658.42	0.937	936.8	incongruent	Block3	incongruent/STIM_020.jpg	100
2663.277	0.807	807.1	incongruent	Block3	incongruent/STIM_020.jpg	99
2666.79	1.022	1022.0	incongruent	Block3	incongruent/STIM_020.jpg	100
2671.447	0.873	872.6	incongruent	Block3	incongruent/STIM_020.jpg	99
2674.615	0.489	489.1	incongruent	Block3	incongruent/STIM_021.jpg	99
2678.745	0.849	848.7	incongruent	Block3	incongruent/STIM_021.jpg	100
2681.975	1.009	1008.6	incongruent	Block3	incongruent/STIM_021.jpg	99
2685.405	0.5	500.5	incongruent	Block3	incongruent/STIM_021.jpg	99
2689.237	0.945	944.9	incongruent	Block3	incongruent/STIM_021.jpg	99
2693.016	0.524	524.1	incongruent	Block3	incongruent/STIM_022.jpg	99
2695.956	0.891	891.4	incongruent	Block3	incongruent/STIM_022.jpg	99
2700.556	0.62	619.9	incongruent	Block3	incongruent/STIM_022.jpg	100
2704.052	0.53	529.8	incongruent	Block3	incongruent/STIM_022.jpg	99
2707.179	0.63	630.5	incongruent	Block3	incongruent/STIM_022.jpg	100
2710.535	0.505	505.2	incongruent	Block3	incongruent/STIM_023.jpg	100
2713.491	0.542	542.3	incongruent	Block3	incongruent/STIM_023.jpg	99
2717.458	1.022	1022.1	incongruent	Block3	incongruent/STIM_023.jpg	99
2722.141	0.675	675.0	incongruent	Block3	incongruent/STIM_023.jpg	100
2725.366	0.742	741.8	incongruent	Block3	incongruent/STIM_023.jpg	100
2729.432	0.805	804.6	incongruent	Block3	incongruent/STIM_024.jpg	99
2733.499	0.728	727.5	incongruent	Block3	incongruent/STIM_024.jpg	99
2737.012	1.017	1017.1	incongruent	Block3	incongruent/STIM_024.jpg	99
2740.448	0.726	726.1	incongruent	Block3	incongruent/STIM_024.jpg	100
2743.465	0.874	874.5	incongruent	Block3	incongruent/STIM_024.jpg	100
2746.437	0.946	945.8	incongruent	Block3	incongruent/STIM_025.jpg	100
2751.018	0.673	673.2	incongruent	Block3	incongruent/STIM_025.jpg	99
2754.039	0.488	488.2	incongruent	Block3	incongruent/STIM_025.jpg	100
2758.428	0.581	580.7	incongruent	Block3	incongruent/STIM_025.jpg	99
2762.982	0.711	711.2	incongruent	Block3	incongruent/STIM_025.jpg	100
2765.976	0.714	713.5	incongruent	Block3	incongruent/STIM_026.jpg	100
2770.419	0.605	604.6	incongruent	Block3	incongruent/STIM_026.jpg	100
2773.641	1.012	1011.8	incongruent	Block3	incongruent/STIM_026.jpg	99
2777.956	0.664	663.8	incongruent	Block3	incongruent/STIM_026.jpg	99
2780.935	0.574	574.3	incongruent	Block3	incongruent/STIM_026.jpg	100
2783.546	0.674	673.7	incongruent	Block3	incongruent/STIM_027.jpg	100
2786.256	0.993	993.4	incongruent	Block3	incongruent/STIM_027.jpg	99
2791.008	0.692	691.9	incongruent	Block3	incongruent/STIM_027.jpg	99
2794.362	0.865	864.8	incongruent	Block3	incongruent/STIM_027.jpg	99
2797.681	0.699	698.7	incongruent	Block3	incongruent/STIM_027.jpg	99
2802.255	1.03	1029.6	incongruent	Block3	incongruent/STIM_028.jpg	99
2806.49	0.917	917.3	incongruent	Block3	incongruent/STIM_028.jpg	99
2811.127	0.546	546.0	incongruent	Block3	incongruent/STIM_028.jpg	100
2813.732	0.876	875.7	incongruent	Block3	incongruent/STIM_028.jpg	100
2817.203	0.775	774.9	incongruent	Block3	incongruent/STIM_028.jpg	100
2820.384	1.013	1013.2	incongruent	Block3	incongruent/STIM_029.jpg	99
2823.901	0.826	826.4	incongruent	Block3	incongruent/STIM_029.jpg	100
2827.223	1.035	1034.8	incongruent	Block3	incongruent/STIM_029.jpg	100
2831.31	0.734	733.7	incongruent	Block3	incongruent/STIM_029.jpg	100
2834.891	0.602	601.8	incongruent	Block3	incongruent/STIM_029.jpg	100
2837.608	0.772	771.7	congruent	Block3	congruent/STIM_000.jpg	100
2841.086	0.793	793.3	congruent	Block3	congruent/STIM_000.jpg	100
2845.564	0.56	560.5	congruent	Block3	congruent/STIM_000.jpg	99
2850.105	0.588	587.5	congruent	Block3	congruent/STIM_000.jpg	99
2853.944	0.87	870.1	congruent	Block3	congruent/STIM_000.jpg	99
2857.152	0.535	535.1	congruent	Block3	congruent/STIM_001.jpg	99
2860.366	0.664	663.8	congruent	Block3	congruent/STIM_001.jpg	99
2863.949	0.71	709.9	congruent	Block3	congruent/STIM_001.jpg	100
2866.823	0.516	516.4	congruent	Block3	congruent/STIM_001.jpg	99
2869.389	0.571	571.0	congruent	Block3	congruent/STIM_001.jpg	100
2873.381	0.771	770.9	congruent	Block3	congruent/STIM_002.jpg	99
2877.908	0.682	681.6	congruent	Block3	congruent/STIM_002.jpg	100
2882.287	0.823	823.0	congruent	Block3	congruent/STIM_002.jpg	100
2885.143	0.522	522.3	congruent	Block3	congruent/STIM_002.jpg	99
2887.98	0.879	878.8	congruent	Block3	congruent/STIM_002.jpg	100
2891.915	0.578	578.3	congruent	Block3	congruent/STIM_003.jpg	100
2895.592	0.808	807.5	congruent	Block3	congruent/STIM_003.jpg	99
2898.997	0.624	623.9	congruent	Block3	congruent/STIM_003.jpg	99
2903.53	0.844	843.9	congruent	Block3	congruent/STIM_003.jpg	100
2907.219	0.816	816.1	congruent	Block3	congruent/STIM_003.jpg	100
2911.111	0.856	856.3	congruent	Block3	congruent/STIM_004.jpg	99
2914.765	0.801	800.6	congruent	Block3	congruent/STIM_004.jpg	100
2919.171	0.65	649.8	congruent	Block3	congruent/STIM_004.jpg	99
2923.826	0.621	620.9	congruent	Block3	congruent/STIM_004.jpg	100
2927.901	0.61	609.6	congruent	Block3	congruent/STIM_004.jpg	100
2931.97	0.759	759.4	congruent	Block3	congruent/STIM_005.jpg	99
2936.548	0.678	677.8	congruent	Block3	congruent/STIM_005.jpg	100
2939.254	0.53	529.8	congruent	Block3	congruent/STIM_005.jpg	99
2941.859	0.55	550.2	congruent	Block3	congruent/STIM_005.jpg	100
2945.113	0.75	749.5	congruent	Block3	congruent/STIM_005.jpg	100
2947.933	0.753	752.6	congruent	Block3	congruent/STIM_006.jpg	99
2951.06	0.864	864.1	congruent	Block3	congruent/STIM_006.jpg	99
2954.749	0.644	643.7	congruent	Block3	congruent/STIM_006.jpg	100
2958.541	0.873	873.1	congruent	Block3	congruent/STIM_006.jpg	99
2961.546	0.833	832.6	congruent	Block3	congruent/STIM_006.jpg	99
2965.756	0.648	647.9	congruent	Block3	congruent/STIM_007.jpg	100
2970.05	0.508	508.4	congruent	Block3	congruent/STIM_007.jpg	99
2973.445	0.547	547.2	congruent	Block3	congruent/STIM_007.jpg	100
2977.391	0.72	719.5	congruent	Block3	congruent/STIM_007.jpg	100
2980.314	0.63	630.3	congruent	Block3	congruent/STIM_007.jpg	100
2984.894	0.533	532.8	congruent	Block3	congruent/STIM_008.jpg	100
2988.084	0.799	798.9	congruent	Block3	congruent/STIM_008.jpg	99
2991.695	0.79	790.4	congruent	Block3	congruent/STIM_008.jpg	99
2995.976	0.538	537.9	congruent	Block3	congruent/STIM_008.jpg	100
3000.512	0.641	641.4	congruent	Block3	congruent/STIM_008.jpg	99
3004.216	0.523	523.1	congruent	Block3	congruent/STIM_009.jpg	100
3007.371	0.722	721.7	congruent	Block3	congruent/STIM_009.jpg	100
3011.158	0.855	855.4	congruent	Block3	congruent/STIM_009.jpg	100
3015.193	0.891	891.4	congruent	Block3	congruent/STIM_009.jpg	100
3018.418	0.535	535.0	congruent	Block3	congruent/STIM_009.jpg	99
3021.86	0.83	829.5	congruent	Block3	congruent/STIM_010.jpg	100
3026.158	0.578	578.3	congruent	Block3	congruent/STIM_010.jpg	99
3030.382	0.808	808.2	congruent	Block3	congruent/STIM_010.jpg	100
3033.511	0.852	851.9	congruent	Block3	congruent/STIM_010.jpg	99
3038.046	0.548	547.7	congruent	Block3	congruent/STIM_010.jpg	100
3041.992	0.812	811.5	congruent	Block3	congruent/STIM_011.jpg	99
3045.365	0.557	557.4	congruent	Block3	congruent/STIM_011.jpg	99
3048.286	0.626	626.1	congruent	Block3	congruent/STIM_011.jpg	100
3051.806	0.675	675.2	congruent	Block3	congruent/STIM_011.jpg	99
3054.92	0.72	719.7	congruent	Block3	congruent/STIM_011.jpg	100
3057.686	0.496	495.8	congruent	Block3	congruent/STIM_012.jpg	100
3060.446	0.89	890.4	congruent	Block3	congruent/STIM_012.jpg	99
3064.53	0.763	762.7	congruent	Block3	congruent/STIM_012.jpg	99
3068.71	0.888	887.9	congruent	Block3	congruent/STIM_012.jpg	99
3072.675	0.629	628.7	congruent	Block3	congruent/STIM_012.jpg	99
3076.9	0.786	785.7	congruent	Block3	congruent/STIM_013.jpg	100
3080.781	0.706	706.0	congruent	Block3	congruent/STIM_013.jpg	100
3084.141	0.56	559.5	congruent	Block3	congruent/STIM_013.jpg	99
3086.888	0.581	581.2	congruent	Block3	congruent/STIM_013.jpg	100
3090.99	0.844	843.8	congruent	Block3	congruent/STIM_013.jpg	99
3094.65	0.52	519.7	congruent	Block3	congruent/STIM_014.jpg	99
3097.255	0.811	811.1	congruent	Block3	congruent/STIM_014.jpg	100
3101.525	0.621	621.4	congruent	Block3	congruent/STIM_014.jpg	100
3105.868	0.869	869.0	congruent	Block3	congruent/STIM_014.jpg	100
3109.779	0.817	817.0	congruent	Block3	congruent/STIM_014.jpg	100
3113.128	0.804	803.6	congruent	Block3	congruent/STIM_015.jpg	99
3117.469	0.671	670.8	congruent	Block3	congruent/STIM_015.jpg	99
3121.588	0.6	599.5	congruent	Block3	congruent/STIM_015.jpg	99
3124.662	0.518	517.7	congruent	Block3	congruent/STIM_015.jpg	99
3129.101	0.627	626.6	congruent	Block3	congruent/STIM_015.jpg	100
3132.989	0.884	883.9	congruent	Block3	congruent/STIM_016.jpg	100
3136.604	0.717	716.6	congruent	Block3	congruent/STIM_016.jpg	100
3140.507	0.688	688.0	congruent	Block3	congruent/STIM_016.jpg	99
3144.741	0.604	603.8	congruent	Block3	congruent/STIM_016.jpg	100
3148.068	0.639	639.1	congruent	Block3	congruent/STIM_016.jpg	100
3152.24	0.724	723.6	congruent	Block3	congruent/STIM_017.jpg	99
3155.049	0.66	660.0	congruent	Block3	congruent/STIM_017.jpg	99
3159.28	0.782	781.5	congruent	Block3	congruent/STIM_017.jpg	99
3162.536	0.72	720.4	congruent	Block3	congruent/STIM_017.jpg	100
3165.472	0.803	802.6	congruent	Block3	congruent/STIM_017.jpg	100
3169.262	0.574	574.3	congruent	Block3	congruent/STIM_018.jpg	100
3172.314	0.592	592.1	congruent	Block3	congruent/STIM_018.jpg	99
3175.012	0.677	676.7	congruent	Block3	congruent/STIM_018.jpg	100
3178.355	0.873	873.0	congruent	Block3	congruent/STIM_018.jpg	100
3181.846	0.608	608.1	congruent	Block3	congruent/STIM_018.jpg	100
3185.089	0.832	831.7	congruent	Block3	congruent/STIM_019.jpg	99
3188.158	0.715	715.3	congruent	Block3	congruent/STIM_019.jpg	100
3192.721	0.632	632.0	congruent	Block3	congruent/STIM_019.jpg	100
3196.545	0.826	825.9	congruent	Block3	congruent/STIM_019.jpg	99
3200.697	0.751	750.9	congruent	Block3	congruent/STIM_019.jpg	99
3205.311	0.617	616.6	congruent	Block3	congruent/STIM_020.jpg	100
3209.371	0.624	624.5	congruent	Block3	congruent/STIM_020.jpg	100
3213.728	0.627	626.7	congruent	Block3	congruent/STIM_020.jpg	100
3217.498	0.622	621.8	congruent	Block3	congruent/STIM_020.jpg	100
3221.757	0.72	720.0	congruent	Block3	congruent/STIM_020.jpg	100
3225.339	0.721	720.9	congruent	Block3	congruent/STIM_021.jpg	99
3228.979	0.62	619.8	congruent	Block3	congruent/STIM_021.jpg	99
3232.528	0.538	537.9	congruent	Block3	congruent/STIM_021.jpg	99
3235.622	0.855	854.6	congruent	Block3	congruent/STIM_021.jpg	99
3239.182	0.642	641.8	congruent	Block3	congruent/STIM_021.jpg	100
3242.424	0.672	672.4	congruent	Block3	congruent/STIM_022.jpg	100
3245.603	0.52	520.5	congruent	Block3	congruent/STIM_022.jpg	100
3248.17	0.619	619.1	congruent	Block3	congruent/STIM_022.jpg	99
3251.156	0.502	502.0	congruent	Block3	congruent/STIM_022.jpg	100
3255.325	0.794	794.5	congruent	Block3	congruent/STIM_022.jpg	99
3258.437	0.593	592.8	congruent	Block3	congruent/STIM_023.jpg	99
3261.93	0.576	575.8	congruent	Block3	congruent/STIM_023.jpg	99
3265.129	0.764	764.0	congruent	Block3	congruent/STIM_023.jpg	99
3268.285	0.717	717.4	congruent	Block3	congruent/STIM_023.jpg	99
3271.46	0.732	731.8	congruent	Block3	congruent/STIM_023.jpg	99
3274.356	0.605	605.4	congruent	Block3	congruent/STIM_024.jpg	99
3277.819	0.532	531.7	congruent	Block3	congruent/STIM_024.jpg	100
3281.312	0.813	812.9	congruent	Block3	congruent/STIM_024.jpg	99
3285.352	0.886	885.8	congruent	Block3	congruent/STIM_024.jpg	99
3289.878	0.766	766.0	congruent	Block3	congruent/STIM_024.jpg	99
3294.119	0.741	741.1	congruent	Block3	congruent/STIM_025.jpg	99
3297.622	0.502	502.0	congruent	Block3	congruent/STIM_025.jpg	99
3301.013	0.822	821.8	congruent	Block3	congruent/STIM_025.jpg	100
3304.039	0.662	662.0	congruent	Block3	congruent/STIM_025.jpg	99
3308.357	0.751	751.4	congruent	Block3	congruent/STIM_025.jpg	99
3311.801	0.672	671.7	congruent	Block3	congruent/STIM_026.jpg	100
3316.108	0.589	588.8	congruent	Block3	congruent/STIM_026.jpg	99
3320.319	0.66	660.3	congruent	Block3	congruent/STIM_026.jpg	99
3323.255	0.663	663.2	congruent	Block3	congruent/STIM_026.jpg	99
3326.281	0.659	658.7	congruent	Block3	congruent/STIM_026.jpg	99
3329.23	0.731	731.1	congruent	Block3	congruent/STIM_027.jpg	99
3332.251	0.588	588.4	congruent	Block3	congruent/STIM_027.jpg	100
3334.961	0.838	837.6	congruent	Block3	congruent/STIM_027.jpg	100
3338.959	0.593	593.2	congruent	Block3	congruent/STIM_027.jpg	100
3342.039	0.769	768.8	congruent	Block3	congruent/STIM_027.jpg	99
3345.58	0.574	573.8	congruent	Block3	congruent/STIM_028.jpg	99
3349.22	0.526	525.9	congruent	Block3	congruent/STIM_028.jpg	99
3351.986	0.618	618.1	congruent	Block3	congruent/STIM_028.jpg	100
3354.916	0.673	673.1	congruent	Block3	congruent/STIM_028.jpg	99
3357.634	0.702	702.1	congruent	Block3	congruent/STIM_028.jpg	99
3360.47	0.722	722.4	congruent	Block3	congruent/STIM_029.jpg	99
3363.479	0.872	871.9	congruent	Block3	congruent/STIM_029.jpg	100
3367.557	0.578	578.2	congruent	Block3	congruent/STIM_029.jpg	100
3370.777	0.589	588.6	congruent	Block3	congruent/STIM_029.jpg	99
3373.456	0.841	841.3	congruent	Block3	congruent/STIM_029.jpg	100
