onset	duration	accuracy	trial_type	learning_stage	stimulus
0.0	3.636	incorrect	regulate	Run1	regulate/STIM_000.jpg
6.828	2.555	correct	regulate	Run1	regulate/STIM_000.jpg
13.05	2.796	correct	regulate	Run1	regulate/STIM_000.jpg
18.523	2.739	correct	regulate	Run1	regulate/STIM_000.jpg
24.52	3.653	correct	regulate	Run1	regulate/STIM_001.jpg
30.922	3.224	correct	regulate	Run1	regulate/STIM_001.jpg
36.451	3.43	correct	regulate	Run1	regulate/STIM_001.jpg
43.798	1.762	incorrect	regulate	Run1	regulate/STIM_001.jpg
47.839	3.012	correct	regulate	Run1	regulate/STIM_002.jpg
54.649	2.1	correct	regulate	Run1	regulate/STIM_002.jpg
59.486	3.47	correct	regulate	Run1	regulate/STIM_002.jpg
66.455	1.442	correct	regulate	Run1	regulate/STIM_002.jpg
70.961	1.981	correct	regulate	Run1	regulate/STIM_003.jpg
75.161	3.425	incorrect	regulate	Run1	regulate/STIM_003.jpg
81.489	3.13	correct	regulate	Run1	regulate/STIM_003.jpg
88.416	1.478	correct	regulate	Run1	regulate/STIM_003.jpg
93.739	3.337	correct	regulate	Run1	regulate/STIM_004.jpg
100.662	2.919	correct	regulate	Run1	regulate/STIM_004.jpg
107.378	1.777	correct	regulate	Run1	regulate/STIM_004.jpg
112.035	2.026	correct	regulate	Run1	regulate/STIM_004.jpg
117.667	1.849	incorrect	regulate	Run1	regulate/STIM_005.jpg
122.518	2.439	correct	regulate	Run1	regulate/STIM_005.jpg
128.817	3.014	correct	regulate	Run1	regulate/STIM_005.jpg
135.499	3.193	correct	regulate	Run1	regulate/STIM_005.jpg
142.398	3.312	correct	regulate	Run1	regulate/STIM_006.jpg
149.335	3.246	correct	regulate	Run1	regulate/STIM_006.jpg
154.748	3.424	correct	regulate	Run1	regulate/STIM_006.jpg
160.992	1.412	correct	regulate	Run1	regulate/STIM_006.jpg
165.454	2.334	correct	regulate	Run1	regulate/STIM_007.jpg
170.399	2.045	correct	regulate	Run1	regulate/STIM_007.jpg
175.189	2.547	correct	regulate	Run1	regulate/STIM_007.jpg
181.354	1.749	incorrect	regulate	Run1	regulate/STIM_007.jpg
186.223	2.581	correct	regulate	Run1	regulate/STIM_008.jpg
191.887	2.51	correct	regulate	Run1	regulate/STIM_008.jpg
197.157	1.824	correct	regulate	Run1	regulate/STIM_008.jpg
202.118	2.09	incorrect	regulate	Run1	regulate/STIM_008.jpg
206.322	3.161	correct	regulate	Run1	regulate/STIM_009.jpg
212.535	3.384	correct	regulate	Run1	regulate/STIM_009.jpg
218.661	2.582	correct	regulate	Run1	regulate/STIM_009.jpg
224.814	1.715	correct	regulate	Run1	regulate/STIM_009.jpg
229.488	3.584	incorrect	regulate	Run1	regulate/STIM_010.jpg
236.342	2.989	correct	regulate	Run1	regulate/STIM_010.jpg
241.346	2.065	correct	regulate	Run1	regulate/STIM_010.jpg
246.859	3.237	correct	regulate	Run1	regulate/STIM_010.jpg
253.842	2.563	incorrect	regulate	Run1	regulate/STIM_011.jpg
259.553	2.751	correct	regulate	Run1	regulate/STIM_011.jpg
265.264	2.528	correct	regulate	Run1	regulate/STIM_011.jpg
270.174	1.599	correct	regulate	Run1	regulate/STIM_011.jpg
273.869	1.678	correct	regulate	Run1	regulate/STIM_012.jpg
277.553	3.412	correct	regulate	Run1	regulate/STIM_012.jpg
284.574	2.364	correct	regulate	Run1	regulate/STIM_012.jpg
289.565	1.962	correct	regulate	Run1	regulate/STIM_012.jpg
295.065	3.085	correct	regulate	Run1	regulate/STIM_013.jpg
300.337	3.434	correct	regulate	Run1	regulate/STIM_013.jpg
306.236	3.272	correct	regulate	Run1	regulate/STIM_013.jpg
313.244	3.25	correct	regulate	Run1	regulate/STIM_013.jpg
318.981	1.765	incorrect	regulate	Run1	regulate/STIM_014.jpg
323.623	3.142	correct	regulate	Run1	regulate/STIM_014.jpg
330.319	3.292	correct	regulate	Run1	regulate/STIM_014.jpg
337.194	3.109	correct	regulate	Run1	regulate/STIM_014.jpg
343.756	2.019	incorrect	regulate	Run1	regulate/STIM_015.jpg
348.193	3.053	correct	regulate	Run1	regulate/STIM_015.jpg
354.215	2.632	incorrect	regulate	Run1	regulate/STIM_015.jpg
360.475	1.636	correct	regulate	Run1	regulate/STIM_015.jpg
366.079	3.668	correct	regulate	Run1	regulate/STIM_016.jpg
372.928	2.347	incorrect	regulate	Run1	regulate/STIM_016.jpg
377.326	1.769	correct	regulate	Run1	regulate/STIM_016.jpg
381.383	3.025	correct	regulate	Run1	regulate/STIM_016.jpg
386.678	3.497	correct	regulate	Run1	regulate/STIM_017.jpg
394.09	1.747	incorrect	regulate	Run1	regulate/STIM_017.jpg
397.993	2.92	incorrect	regulate	Run1	regulate/STIM_017.jpg
402.975	2.173	incorrect	regulate	Run1	regulate/STIM_017.jpg
408.759	2.96	correct	regulate	Run1	regulate/STIM_018.jpg
414.143	1.748	correct	regulate	Run1	regulate/STIM_018.jpg
418.617	1.846	incorrect	regulate	Run1	regulate/STIM_018.jpg
422.66	2.848	incorrect	regulate	Run1	regulate/STIM_018.jpg
427.574	3.84	correct	regulate	Run1	regulate/STIM_019.jpg
433.879	1.74	incorrect	regulate	Run1	regulate/STIM_019.jpg
437.749	1.759	correct	regulate	Run1	regulate/STIM_019.jpg
443.475	2.12	correct	regulate	Run1	regulate/STIM_019.jpg
448.86	1.805	incorrect	regulate	Run1	regulate/STIM_020.jpg
454.044	1.776	correct	regulate	Run1	regulate/STIM_020.jpg
457.88	2.761	correct	regulate	Run1	regulate/STIM_020.jpg
464.582	1.886	correct	regulate	Run1	regulate/STIM_020.jpg
468.914	3.592	correct	regulate	Run1	regulate/STIM_021.jpg
476.137	1.617	correct	regulate	Run1	regulate/STIM_021.jpg
481.645	2.875	correct	regulate	Run1	regulate/STIM_021.jpg
487.527	2.067	correct	regulate	Run1	regulate/STIM_021.jpg
493.267	3.305	incorrect	regulate	Run1	regulate/STIM_022.jpg
499.383	3.652	correct	regulate	Run1	regulate/STIM_022.jpg
505.253	3.378	correct	regulate	Run1	regulate/STIM_022.jpg
512.258	2.057	correct	regulate	Run1	regulate/STIM_022.jpg
516.53	3.515	correct	regulate	Run1	regulate/STIM_023.jpg
523.324	2.619	correct	regulate	Run1	regulate/STIM_023.jpg
529.367	2.795	correct	regulate	Run1	regulate/STIM_023.jpg
535.778	2.548	correct	regulate	Run1	regulate/STIM_023.jpg
540.554	3.839	correct	regulate	Run1	regulate/STIM_024.jpg
546.725	2.375	correct	regulate	Run1	regulate/STIM_024.jpg
552.609	1.654	correct	regulate	Run1	regulate/STIM_024.jpg
556.644	2.155	correct	regulate	Run1	regulate/STIM_024.jpg
562.01	3.858	correct	regulate	Run1	regulate/STIM_025.jpg
568.512	1.961	correct	regulate	Run1	regulate/STIM_025.jpg
574.197	3.082	incorrect	regulate	Run1	regulate/STIM_025.jpg
579.849	2.0	correct	regulate	Run1	regulate/STIM_025.jpg
584.426	2.35	incorrect	regulate	Run1	regulate/STIM_026.jpg
590.155	1.614	correct	regulate	Run1	regulate/STIM_026.jpg
595.494	2.541	incorrect	regulate	Run1	regulate/STIM_026.jpg
600.084	1.671	correct	regulate	Run1	regulate/STIM_026.jpg
604.316	2.838	incorrect	regulate	Run1	regulate/STIM_027.jpg
609.309	1.802	incorrect	regulate	Run1	regulate/STIM_027.jpg
614.356	3.37	correct	regulate	Run1	regulate/STIM_027.jpg
621.148	2.659	incorrect	regulate	Run1	regulate/STIM_027.jpg
627.066	1.88	correct	regulate	Run1	regulate/STIM_028.jpg
632.764	1.783	correct	regulate	Run1	regulate/STIM_028.jpg
637.003	2.392	correct	regulate	Run1	regulate/STIM_028.jpg
641.433	1.52	correct	regulate	Run1	regulate/STIM_028.jpg
645.101	1.814	correct	regulate	Run1	regulate/STIM_029.jpg
650.234	2.92	incorrect	regulate	Run1	regulate/STIM_029.jpg
655.773	2.859	correct	regulate	Run1	regulate/STIM_029.jpg
662.0	2.625	correct	regulate	Run1	regulate/STIM_029.jpg
666.716	1.486	correct	observe	Run1	observe/STIM_000.jpg
671.585	1.172	correct	observe	Run1	observe/STIM_000.jpg
675.547	1.084	correct	observe	Run1	observe/STIM_000.jpg
679.419	1.677	correct	observe	Run1	observe/STIM_000.jpg
685.002	1.405	correct	observe	Run1	observe/STIM_001.jpg
690.306	0.972	correct	observe	Run1	observe/STIM_001.jpg
693.746	1.706	correct	observe	Run1	observe/STIM_001.jpg
698.528	1.491	correct	observe	Run1	observe/STIM_001.jpg
703.668	1.07	correct	observe	Run1	observe/STIM_002.jpg
708.306	1.696	correct	observe	Run1	observe/STIM_002.jpg
713.476	0.93	correct	observe	Run1	observe/STIM_002.jpg
717.273	0.984	correct	observe	Run1	observe/STIM_002.jpg
720.926	1.588	correct	observe	Run1	observe/STIM_003.jpg
726.109	1.717	correct	observe	Run1	observe/STIM_003.jpg
731.563	1.563	correct	observe	Run1	observe/STIM_003.jpg
735.513	1.274	correct	observe	Run1	observe/STIM_003.jpg
740.569	1.63	correct	observe	Run1	observe/STIM_004.jpg
744.504	0.977	correct	observe	Run1	observe/STIM_004.jpg
749.328	1.36	correct	observe	Run1	observe/STIM_004.jpg
754.53	1.549	correct	observe	Run1	observe/STIM_004.jpg
759.742	1.708	correct	observe	Run1	observe/STIM_005.jpg
764.779	1.136	correct	observe	Run1	observe/STIM_005.jpg
768.686	1.515	correct	observe	Run1	observe/STIM_005.jpg
773.506	1.19	correct	observe	Run1	observe/STIM_005.jpg
777.969	1.143	correct	observe	Run1	observe/STIM_006.jpg
782.854	1.02	correct	observe	Run1	observe/STIM_006.jpg
787.47	1.454	incorrect	observe	Run1	observe/STIM_006.jpg
792.698	1.652	correct	observe	Run1	observe/STIM_006.jpg
796.943	1.235	correct	observe	Run1	observe/STIM_007.jpg
802.025	1.559	correct	observe	Run1	observe/STIM_007.jpg
806.444	1.359	correct	observe	Run1	observe/STIM_007.jpg
810.987	1.488	correct	observe	Run1	observe/STIM_007.jpg
815.352	1.072	correct	observe	Run1	observe/STIM_008.jpg
819.353	1.226	correct	observe	Run1	observe/STIM_008.jpg
822.635	1.574	correct	observe	Run1	observe/STIM_008.jpg
827.984	0.928	correct	observe	Run1	observe/STIM_008.jpg
832.336	1.361	correct	observe	Run1	observe/STIM_009.jpg
836.568	1.22	correct	observe	Run1	observe/STIM_009.jpg
840.783	1.224	correct	observe	Run1	observe/STIM_009.jpg
845.351	1.035	correct	observe	Run1	observe/STIM_009.jpg
849.675	1.735	correct	observe	Run1	observe/STIM_010.jpg
855.369	1.292	correct	observe	Run1	observe/STIM_010.jpg
860.0	1.44	correct	observe	Run1	observe/STIM_010.jpg
863.77	1.678	correct	observe	Run1	observe/STIM_010.jpg
868.535	1.305	correct	observe	Run1	observe/STIM_011.jpg
872.021	1.634	correct	observe	Run1	observe/STIM_011.jpg
877.592	1.233	correct	observe	Run1	observe/STIM_011.jpg
881.17	1.722	correct	observe	Run1	observe/STIM_011.jpg
886.836	1.654	correct	observe	Run1	observe/STIM_012.jpg
892.123	1.409	incorrect	observe	Run1	observe/STIM_012.jpg
896.851	1.235	correct	observe	Run1	observe/STIM_012.jpg
900.257	1.129	correct	observe	Run1	observe/STIM_012.jpg
905.009	1.325	correct	observe	Run1	observe/STIM_013.jpg
909.715	1.588	correct	observe	Run1	observe/STIM_013.jpg
914.349	1.181	correct	observe	Run1	observe/STIM_013.jpg
918.853	0.936	correct	observe	Run1	observe/STIM_013.jpg
922.075	0.964	correct	observe	Run1	observe/STIM_014.jpg
925.689	1.169	correct	observe	Run1	observe/STIM_014.jpg
929.227	1.328	correct	observe	Run1	observe/STIM_014.jpg
934.41	1.146	correct	observe	Run1	observe/STIM_014.jpg
939.02	1.423	correct	observe	Run1	observe/STIM_015.jpg
943.327	1.494	incorrect	observe	Run1	observe/STIM_015.jpg
948.638	1.214	correct	observe	Run1	observe/STIM_015.jpg
952.122	1.461	correct	observe	Run1	observe/STIM_015.jpg
957.327	1.185	correct	observe	Run1	observe/STIM_016.jpg
961.059	1.537	incorrect	observe	Run1	observe/STIM_016.jpg
965.634	1.627	correct	observe	Run1	observe/STIM_016.jpg
970.368	1.177	correct	observe	Run1	observe/STIM_016.jpg
974.861	1.551	correct	observe	Run1	observe/STIM_017.jpg
979.859	1.312	correct	observe	Run1	observe/STIM_017.jpg
984.571	1.654	correct	observe	Run1	observe/STIM_017.jpg
989.876	0.939	correct	observe	Run1	observe/STIM_017.jpg
993.448	1.228	correct	observe	Run1	observe/STIM_018.jpg
998.191	1.613	correct	observe	Run1	observe/STIM_018.jpg
1003.15	1.062	correct	observe	Run1	observe/STIM_018.jpg
1007.979	1.397	correct	observe	Run1	observe/STIM_018.jpg
1013.369	1.002	correct	observe	Run1	observe/STIM_019.jpg
1017.231	1.356	correct	observe	Run1	observe/STIM_019.jpg
1021.499	1.444	correct	observe	Run1	observe/STIM_019.jpg
1026.455	1.738	correct	observe	Run1	observe/STIM_019.jpg
1031.921	1.94	correct	regulate	Run2	regulate/STIM_000.jpg
1036.018	1.523	correct	regulate	Run2	regulate/STIM_000.jpg
1040.958	1.492	correct	regulate	Run2	regulate/STIM_000.jpg
1045.186	2.003	correct	regulate	Run2	regulate/STIM_000.jpg
1049.581	1.931	correct	regulate	Run2	regulate/STIM_001.jpg
1053.774	1.5	correct	regulate	Run2	regulate/STIM_001.jpg
1058.079	1.378	incorrect	regulate	Run2	regulate/STIM_001.jpg
1061.932	2.053	correct	regulate	Run2	regulate/STIM_001.jpg
1067.01	2.364	correct	regulate	Run2	regulate/STIM_002.jpg
1071.641	2.838	correct	regulate	Run2	regulate/STIM_002.jpg
1077.331	1.653	correct	regulate	Run2	regulate/STIM_002.jpg
1082.784	2.394	correct	regulate	Run2	regulate/STIM_002.jpg
1089.042	2.522	correct	regulate	Run2	regulate/STIM_003.jpg
1095.175	1.838	incorrect	regulate	Run2	regulate/STIM_003.jpg
1099.607	2.76	correct	regulate	Run2	regulate/STIM_003.jpg
1106.225	2.107	correct	regulate	Run2	regulate/STIM_003.jpg
1110.865	1.428	correct	regulate	Run2	regulate/STIM_004.jpg
1115.305	2.746	correct	regulate	Run2	regulate/STIM_004.jpg
1120.406	2.455	incorrect	regulate	Run2	regulate/STIM_004.jpg
1125.45	1.162	correct	regulate	Run2	regulate/STIM_004.jpg
1129.049	2.472	correct	regulate	Run2	regulate/STIM_005.jpg
1133.75	2.43	correct	regulate	Run2	regulate/STIM_005.jpg
1139.999	2.732	incorrect	regulate	Run2	regulate/STIM_005.jpg
1146.214	1.708	correct	regulate	Run2	regulate/STIM_005.jpg
1150.023	1.759	correct	regulate	Run2	regulate/STIM_006.jpg
1155.707	2.481	correct	regulate	Run2	regulate/STIM_006.jpg
1161.173	2.32	correct	regulate	Run2	regulate/STIM_006.jpg
1166.446	2.463	correct	regulate	Run2	regulate/STIM_006.jpg
1172.659	1.71	correct	regulate	Run2	regulate/STIM_007.jpg
1176.551	2.395	correct	regulate	Run2	regulate/STIM_007.jpg
1181.443	2.201	correct	regulate	Run2	regulate/STIM_007.jpg
1186.156	2.176	correct	regulate	Run2	regulate/STIM_007.jpg
1191.612	2.894	incorrect	regulate	Run2	regulate/STIM_008.jpg
1197.337	2.738	correct	regulate	Run2	regulate/STIM_008.jpg
1202.332	1.533	correct	regulate	Run2	regulate/STIM_008.jpg
1207.62	2.44	correct	regulate	Run2	regulate/STIM_008.jpg
1212.457	2.93	correct	regulate	Run2	regulate/STIM_009.jpg
1218.613	3.08	correct	regulate	Run2	regulate/STIM_009.jpg
1225.267	1.881	correct	regulate	Run2	regulate/STIM_009.jpg
1230.846	2.321	correct	regulate	Run2	regulate/STIM_009.jpg
1235.218	2.896	correct	regulate	Run2	regulate/STIM_010.jpg
1240.819	1.94	correct	regulate	Run2	regulate/STIM_010.jpg
1245.357	2.199	incorrect	regulate	Run2	regulate/STIM_010.jpg
1249.968	2.3	correct	regulate	Run2	regulate/STIM_010.jpg
1254.9	3.119	correct	regulate	Run2	regulate/STIM_011.jpg
1261.344	1.648	correct	regulate	Run2	regulate/STIM_011.jpg
1265.663	2.16	correct	regulate	Run2	regulate/STIM_011.jpg
1271.364	2.2	incorrect	regulate	Run2	regulate/STIM_011.jpg
1276.548	3.084	correct	regulate	Run2	regulate/STIM_012.jpg
1281.993	1.815	correct	regulate	Run2	regulate/STIM_012.jpg
1287.45	2.79	correct	regulate	Run2	regulate/STIM_012.jpg
1293.74	1.432	correct	regulate	Run2	regulate/STIM_012.jpg
1298.68	2.327	correct	regulate	Run2	regulate/STIM_013.jpg
1304.476	1.451	correct	regulate	Run2	regulate/STIM_013.jpg
1309.116	2.678	incorrect	regulate	Run2	regulate/STIM_013.jpg
1314.435	1.49	incorrect	regulate	Run2	regulate/STIM_013.jpg
1319.65	2.363	correct	regulate	Run2	regulate/STIM_014.jpg
1324.163	2.341	correct	regulate	Run2	regulate/STIM_014.jpg
1329.22	2.256	correct	regulate	Run2	regulate/STIM_014.jpg
1334.726	2.318	correct	regulate	Run2	regulate/STIM_014.jpg
1340.399	1.75	correct	regulate	Run2	regulate/STIM_015.jpg
1344.258	2.096	correct	regulate	Run2	regulate/STIM_015.jpg
1350.329	1.386	correct	regulate	Run2	regulate/STIM_015.jpg
1354.464	1.25	correct	regulate	Run2	regulate/STIM_015.jpg
1359.623	1.45	correct	regulate	Run2	regulate/STIM_016.jpg
1364.943	1.707	correct	regulate	Run2	regulate/STIM_016.jpg
1370.112	2.584	correct	regulate	Run2	regulate/STIM_016.jpg
1375.644	2.705	correct	regulate	Run2	regulate/STIM_016.jpg
1380.715	2.703	incorrect	regulate	Run2	regulate/STIM_017.jpg
1385.433	3.065	correct	regulate	Run2	regulate/STIM_017.jpg
1391.113	1.978	correct	regulate	Run2	regulate/STIM_017.jpg
1396.975	1.755	correct	regulate	Run2	regulate/STIM_017.jpg
1402.006	1.79	incorrect	regulate	Run2	regulate/STIM_018.jpg
1407.382	1.91	correct	regulate	Run2	regulate/STIM_018.jpg
1411.548	2.674	correct	regulate	Run2	regulate/STIM_018.jpg
1417.969	2.261	correct	regulate	Run2	regulate/STIM_018.jpg
1424.153	1.713	correct	regulate	Run2	regulate/STIM_019.jpg
1428.635	1.806	correct	regulate	Run2	regulate/STIM_019.jpg
1432.792	2.872	correct	regulate	Run2	regulate/STIM_019.jpg
1438.677	1.416	correct	regulate	Run2	regulate/STIM_019.jpg
1442.812	3.269	correct	regulate	Run2	regulate/STIM_020.jpg
1448.924	2.744	correct	regulate	Run2	regulate/STIM_020.jpg
1454.809	1.303	correct	regulate	Run2	regulate/STIM_020.jpg
1459.158	2.338	correct	regulate	Run2	regulate/STIM_020.jpg
1464.614	2.072	correct	regulate	Run2	regulate/STIM_021.jpg
1468.834	1.562	correct	regulate	Run2	regulate/STIM_021.jpg
1472.72	1.47	correct	regulate	Run2	regulate/STIM_021.jpg
1476.853	1.992	correct	regulate	Run2	regulate/STIM_021.jpg
1482.679	1.801	correct	regulate	Run2	regulate/STIM_022.jpg
1487.661	2.673	correct	regulate	Run2	regulate/STIM_022.jpg
1492.683	1.452	correct	regulate	Run2	regulate/STIM_022.jpg
1496.148	1.243	correct	regulate	Run2	regulate/STIM_022.jpg
1499.397	2.914	correct	regulate	Run2	regulate/STIM_023.jpg
1505.679	2.247	correct	regulate	Run2	regulate/STIM_023.jpg
1510.147	2.083	correct	regulate	Run2	regulate/STIM_023.jpg
1515.526	1.367	correct	regulate	Run2	regulate/STIM_023.jpg
1520.746	2.659	correct	regulate	Run2	regulate/STIM_024.jpg
1525.691	3.033	correct	regulate	Run2	regulate/STIM_024.jpg
1532.056	2.261	correct	regulate	Run2	regulate/STIM_024.jpg
1536.725	1.176	correct	regulate	Run2	regulate/STIM_024.jpg
1541.369	3.14	correct	regulate	Run2	regulate/STIM_025.jpg
1547.006	2.284	correct	regulate	Run2	regulate/STIM_025.jpg
1552.139	1.334	correct	regulate	Run2	regulate/STIM_025.jpg
1556.896	2.564	correct	regulate	Run2	regulate/STIM_025.jpg
1562.975	1.998	correct	regulate	Run2	regulate/STIM_026.jpg
1566.976	3.032	correct	regulate	Run2	regulate/STIM_026.jpg
1572.347	2.149	correct	regulate	Run2	regulate/STIM_026.jpg
1577.517	1.576	correct	regulate	Run2	regulate/STIM_026.jpg
1582.445	2.0	correct	regulate	Run2	regulate/STIM_027.jpg
1586.526	2.046	correct	regulate	Run2	regulate/STIM_027.jpg
1592.219	2.232	correct	regulate	Run2	regulate/STIM_027.jpg
1596.736	1.989	correct	regulate	Run2	regulate/STIM_027.jpg
1600.943	3.091	correct	regulate	Run2	regulate/STIM_028.jpg
1607.444	1.851	correct	regulate	Run2	regulate/STIM_028.jpg
1612.971	2.57	correct	regulate	Run2	regulate/STIM_028.jpg
1618.651	2.347	correct	regulate	Run2	regulate/STIM_028.jpg
1623.152	2.069	correct	regulate	Run2	regulate/STIM_029.jpg
1628.237	2.294	correct	regulate	Run2	regulate/STIM_029.jpg
1633.304	1.965	incorrect	regulate	Run2	regulate/STIM_029.jpg
1637.972	1.307	correct	regulate	Run2	regulate/STIM_029.jpg
1641.34	1.566	correct	observe	Run2	observe/STIM_000.jpg
1645.445	1.562	correct	observe	Run2	observe/STIM_000.jpg
1649.538	1.586	correct	observe	Run2	observe/STIM_000.jpg
1653.411	1.618	correct	observe	Run2	observe/STIM_000.jpg
1658.769	1.524	correct	observe	Run2	observe/STIM_001.jpg
1664.05	0.97	correct	observe	Run2	observe/STIM_001.jpg
1667.907	0.931	correct	observe	Run2	observe/STIM_001.jpg
1671.933	1.318	correct	observe	Run2	observe/STIM_001.jpg
1676.87	1.553	correct	observe	Run2	observe/STIM_002.jpg
1681.546	1.252	correct	observe	Run2	observe/STIM_002.jpg
1686.403	1.723	correct	observe	Run2	observe/STIM_002.jpg
1691.916	1.741	correct	observe	Run2	observe/STIM_002.jpg
1696.657	1.743	correct	observe	Run2	observe/STIM_003.jpg
1702.194	1.471	correct	observe	Run2	observe/STIM_003.jpg
1706.502	1.441	correct	observe	Run2	observe/STIM_003.jpg
1711.599	1.061	correct	observe	Run2	observe/STIM_003.jpg
1715.72	1.028	correct	observe	Run2	observe/STIM_004.jpg
1720.493	1.735	incorrect	observe	Run2	observe/STIM_004.jpg
1724.979	1.072	correct	observe	Run2	observe/STIM_004.jpg
1728.466	1.661	correct	observe	Run2	observe/STIM_004.jpg
1732.256	1.632	correct	observe	Run2	observe/STIM_005.jpg
1736.189	1.085	correct	observe	Run2	observe/STIM_005.jpg
1739.405	1.492	correct	observe	Run2	observe/STIM_005.jpg
1743.37	1.217	correct	observe	Run2	observe/STIM_005.jpg
1747.9	1.514	correct	observe	Run2	observe/STIM_006.jpg
1752.178	1.572	correct	observe	Run2	observe/STIM_006.jpg
1756.761	1.327	correct	observe	Run2	observe/STIM_006.jpg
1761.292	1.587	correct	observe	Run2	observe/STIM_006.jpg
1765.816	0.918	correct	observe	Run2	observe/STIM_007.jpg
1769.635	1.628	correct	observe	Run2	observe/STIM_007.jpg
1774.974	0.92	correct	observe	Run2	observe/STIM_007.jpg
1778.401	1.192	correct	observe	Run2	observe/STIM_007.jpg
1783.072	1.543	correct	observe	Run2	observe/STIM_008.jpg
1788.011	1.308	correct	observe	Run2	observe/STIM_008.jpg
1792.121	1.406	correct	observe	Run2	observe/STIM_008.jpg
1796.733	1.517	correct	observe	Run2	observe/STIM_008.jpg
1801.747	1.764	incorrect	observe	Run2	observe/STIM_009.jpg
1805.786	1.657	correct	observe	Run2	observe/STIM_009.jpg
1809.586	1.64	correct	observe	Run2	observe/STIM_009.jpg
1814.944	0.905	correct	observe	Run2	observe/STIM_009.jpg
1818.072	1.543	correct	observe	Run2	observe/STIM_010.jpg
1821.81	1.206	correct	observe	Run2	observe/STIM_010.jpg
1826.879	1.406	correct	observe	Run2	observe/STIM_010.jpg
1830.951	1.432	correct	observe	Run2	observe/STIM_010.jpg
1835.947	1.283	correct	observe	Run2	observe/STIM_011.jpg
1839.327	1.128	correct	observe	Run2	observe/STIM_011.jpg
1844.332	0.926	correct	observe	Run2	observe/STIM_011.jpg
1847.945	1.616	correct	observe	Run2	observe/STIM_011.jpg
1853.41	1.404	correct	observe	Run2	observe/STIM_012.jpg
1858.364	1.588	correct	observe	Run2	observe/STIM_012.jpg
1862.639	1.462	correct	observe	Run2	observe/STIM_012.jpg
1867.125	1.01	incorrect	observe	Run2	observe/STIM_012.jpg
1870.167	1.202	correct	observe	Run2	observe/STIM_013.jpg
1874.476	1.034	correct	observe	Run2	observe/STIM_013.jpg
1879.258	1.616	correct	observe	Run2	observe/STIM_013.jpg
1883.417	0.892	incorrect	observe	Run2	observe/STIM_013.jpg
1887.008	1.657	correct	observe	Run2	observe/STIM_014.jpg
1890.974	1.53	correct	observe	Run2	observe/STIM_014.jpg
1895.703	1.021	correct	observe	Run2	observe/STIM_014.jpg
1899.437	1.499	correct	observe	Run2	observe/STIM_014.jpg
1904.253	1.225	correct	observe	Run2	observe/STIM_015.jpg
1908.995	0.982	correct	observe	Run2	observe/STIM_015.jpg
1913.424	1.235	incorrect	observe	Run2	observe/STIM_015.jpg
1916.991	1.493	correct	observe	Run2	observe/STIM_015.jpg
1921.855	1.394	incorrect	observe	Run2	observe/STIM_016.jpg
1926.343	0.997	correct	observe	Run2	observe/STIM_016.jpg
1931.102	1.248	incorrect	observe	Run2	observe/STIM_016.jpg
1936.289	0.974	correct	observe	Run2	observe/STIM_016.jpg
1940.465	0.931	correct	observe	Run2	observe/STIM_017.jpg
1943.641	1.408	correct	observe	Run2	observe/STIM_017.jpg
1947.702	1.563	correct	observe	Run2	observe/STIM_017.jpg
1952.456	1.186	correct	observe	Run2	observe/STIM_017.jpg
1956.339	0.975	correct	observe	Run2	observe/STIM_018.jpg
1959.584	1.341	correct	observe	Run2	observe/STIM_018.jpg
1964.518	1.04	correct	observe	Run2	observe/STIM_018.jpg
1968.973	0.962	correct	observe	Run2	observe/STIM_018.jpg
1972.799	1.255	correct	observe	Run2	observe/STIM_019.jpg
1977.1	1.687	correct	observe	Run2	observe/STIM_019.jpg
1982.395	1.495	correct	observe	Run2	observe/STIM_019.jpg
1986.222	1.659	incorrect	observe	Run2	observe/STIM_019.jpg
1990.007	2.054	correct	regulate	Run3	regulate/STIM_000.jpg
1994.392	2.541	correct	regulate	Run3	regulate/STIM_000.jpg
2000.215	1.334	correct	regulate	Run3	regulate/STIM_000.jpg
2005.224	1.581	correct	regulate	Run3	regulate/STIM_000.jpg
2009.099	2.011	correct	regulate	Run3	regulate/STIM_001.jpg
2014.278	2.455	correct	regulate	Run3	regulate/STIM_001.jpg
2019.018	2.214	incorrect	regulate	Run3	regulate/STIM_001.jpg
2024.605	1.243	correct	regulate	Run3	regulate/STIM_001.jpg
2029.629	1.2	correct	regulate	Run3	regulate/STIM_002.jpg
2033.46	1.338	correct	regulate	Run3	regulate/STIM_002.jpg
2037.678	1.234	correct	regulate	Run3	regulate/STIM_002.jpg
2041.798	1.64	incorrect	regulate	Run3	regulate/STIM_002.jpg
2045.726	1.308	correct	regulate	Run3	regulate/STIM_003.jpg
2050.035	2.316	correct	regulate	Run3	regulate/STIM_003.jpg
2054.419	1.644	correct	regulate	Run3	regulate/STIM_003.jpg
2058.138	2.382	correct	regulate	Run3	regulate/STIM_003.jpg
2063.421	1.508	correct	regulate	Run3	regulate/STIM_004.jpg
2067.372	1.39	correct	regulate	Run3	regulate/STIM_004.jpg
2072.674	1.939	correct	regulate	Run3	regulate/STIM_004.jpg
2077.116	2.313	incorrect	regulate	Run3	regulate/STIM_004.jpg
2083.118	2.341	correct	regulate	Run3	regulate/STIM_005.jpg
2088.241	1.268	correct	regulate	Run3	regulate/STIM_005.jpg
2093.128	2.621	correct	regulate	Run3	regulate/STIM_005.jpg
2099.516	2.146	correct	regulate	Run3	regulate/STIM_005.jpg
2104.578	2.261	correct	regulate	Run3	regulate/STIM_006.jpg
2108.968	1.569	correct	regulate	Run3	regulate/STIM_006.jpg
2114.09	2.164	correct	regulate	Run3	regulate/STIM_006.jpg
2119.616	1.533	correct	regulate	Run3	regulate/STIM_006.jpg
2124.176	2.31	correct	regulate	Run3	regulate/STIM_007.jpg
2130.204	1.761	correct	regulate	Run3	regulate/STIM_007.jpg
2134.575	2.427	correct	regulate	Run3	regulate/STIM_007.jpg
2140.389	1.43	correct	regulate	Run3	regulate/STIM_007.jpg
2144.475	2.697	incorrect	regulate	Run3	regulate/STIM_008.jpg
2150.402	1.984	correct	regulate	Run3	regulate/STIM_008.jpg
2154.593	1.296	correct	regulate	Run3	regulate/STIM_008.jpg
2158.798	1.465	correct	regulate	Run3	regulate/STIM_008.jpg
2162.612	1.682	correct	regulate	Run3	regulate/STIM_009.jpg
2167.122	1.636	correct	regulate	Run3	regulate/STIM_009.jpg
2171.842	2.102	correct	regulate	Run3	regulate/STIM_009.jpg
2177.868	2.004	correct	regulate	Run3	regulate/STIM_009.jpg
2182.769	1.925	correct	regulate	Run3	regulate/STIM_010.jpg
2187.836	2.362	correct	regulate	Run3	regulate/STIM_010.jpg
2192.708	1.517	correct	regulate	Run3	regulate/STIM_010.jpg
2196.524	2.574	correct	regulate	Run3	regulate/STIM_010.jpg
2202.446	2.241	incorrect	regulate	Run3	regulate/STIM_011.jpg
2206.718	1.308	correct	regulate	Run3	regulate/STIM_011.jpg
2210.361	2.56	correct	regulate	Run3	regulate/STIM_011.jpg
2215.359	2.258	correct	regulate	Run3	regulate/STIM_011.jpg
2221.0	1.255	incorrect	regulate	Run3	regulate/STIM_012.jpg
2224.73	1.247	correct	regulate	Run3	regulate/STIM_012.jpg
2228.125	2.26	correct	regulate	Run3	regulate/STIM_012.jpg
2234.208	2.562	correct	regulate	Run3	regulate/STIM_012.jpg
2238.778	1.558	correct	regulate	Run3	regulate/STIM_013.jpg
2243.356	2.689	correct	regulate	Run3	regulate/STIM_013.jpg
2249.66	2.264	correct	regulate	Run3	regulate/STIM_013.jpg
2255.534	1.396	correct	regulate	Run3	regulate/STIM_013.jpg
2259.138	1.263	incorrect	regulate	Run3	regulate/STIM_014.jpg
2263.098	2.635	correct	regulate	Run3	regulate/STIM_014.jpg
2268.905	2.559	correct	regulate	Run3	regulate/STIM_014.jpg
2275.042	1.268	correct	regulate	Run3	regulate/STIM_014.jpg
2279.193	1.919	correct	regulate	Run3	regulate/STIM_015.jpg
2284.656	1.604	correct	regulate	Run3	regulate/STIM_015.jpg
2289.261	2.122	correct	regulate	Run3	regulate/STIM_015.jpg
2293.805	1.85	correct	regulate	Run3	regulate/STIM_015.jpg
2298.44	1.916	correct	regulate	Run3	regulate/STIM_016.jpg
2303.74	1.844	correct	regulate	Run3	regulate/STIM_016.jpg
2308.668	1.906	correct	regulate	Run3	regulate/STIM_016.jpg
2313.893	1.345	correct	regulate	Run3	regulate/STIM_016.jpg
2317.569	1.748	correct	regulate	Run3	regulate/STIM_017.jpg
2322.607	2.448	correct	regulate	Run3	regulate/STIM_017.jpg
2328.252	1.922	correct	regulate	Run3	regulate/STIM_017.jpg
2333.892	2.113	correct	regulate	Run3	regulate/STIM_017.jpg
2338.633	2.644	correct	regulate	Run3	regulate/STIM_018.jpg
2344.047	2.273	incorrect	regulate	Run3	regulate/STIM_018.jpg
2348.555	2.486	correct	regulate	Run3	regulate/STIM_018.jpg
2353.297	2.544	correct	regulate	Run3	regulate/STIM_018.jpg
2358.381	2.546	correct	regulate	Run3	regulate/STIM_019.jpg
2364.573	1.488	correct	regulate	Run3	regulate/STIM_019.jpg
2368.407	2.581	correct	regulate	Run3	regulate/STIM_019.jpg
2373.372	2.372	correct	regulate	Run3	regulate/STIM_019.jpg
2378.885	1.484	incorrect	regulate	Run3	regulate/STIM_020.jpg
2383.146	2.509	correct	regulate	Run3	regulate/STIM_020.jpg
2388.283	1.88	correct	regulate	Run3	regulate/STIM_020.jpg
2392.926	2.568	correct	regulate	Run3	regulate/STIM_020.jpg
2399.486	2.464	correct	regulate	Run3	regulate/STIM_021.jpg
2404.682	2.323	correct	regulate	Run3	regulate/STIM_021.jpg
2410.872	1.756	correct	regulate	Run3	regulate/STIM_021.jpg
2415.016	1.647	correct	regulate	Run3	regulate/STIM_021.jpg
2419.302	2.26	correct	regulate	Run3	regulate/STIM_022.jpg
2424.472	1.925	correct	regulate	Run3	regulate/STIM_022.jpg
2429.234	1.697	correct	regulate	Run3	regulate/STIM_022.jpg
2434.899	2.084	correct	regulate	Run3	regulate/STIM_022.jpg
2439.561	2.418	correct	regulate	Run3	regulate/STIM_023.jpg
2444.533	2.575	correct	regulate	Run3	regulate/STIM_023.jpg
2450.642	2.536	correct	regulate	Run3	regulate/STIM_023.jpg
2456.965	2.387	correct	regulate	Run3	regulate/STIM_023.jpg
2462.508	2.474	incorrect	regulate	Run3	regulate/STIM_024.jpg
2468.745	1.912	correct	regulate	Run3	regulate/STIM_024.jpg
2473.074	2.178	correct	regulate	Run3	regulate/STIM_024.jpg
2477.606	1.514	correct	regulate	Run3	regulate/STIM_024.jpg
2481.984	1.747	correct	regulate	Run3	regulate/STIM_025.jpg
2486.346	1.988	correct	regulate	Run3	regulate/STIM_025.jpg
2490.955	1.297	correct	regulate	Run3	regulate/STIM_025.jpg
2495.014	1.259	correct	regulate	Run3	regulate/STIM_025.jpg
2499.962	2.667	correct	regulate	Run3	regulate/STIM_026.jpg
2505.335	1.831	correct	regulate	Run3	regulate/STIM_026.jpg
2509.509	1.207	incorrect	regulate	Run3	regulate/STIM_026.jpg
2514.236	2.033	correct	regulate	Run3	regulate/STIM_026.jpg
2520.021	1.558	correct	regulate	Run3	regulate/STIM_027.jpg
2524.718	2.643	correct	regulate	Run3	regulate/STIM_027.jpg
2529.732	2.01	correct	regulate	Run3	regulate/STIM_027.jpg
2534.454	2.19	incorrect	regulate	Run3	regulate/STIM_027.jpg
2539.396	1.548	incorrect	regulate	Run3	regulate/STIM_028.jpg
2544.353	2.13	correct	regulate	Run3	regulate/STIM_028.jpg
2549.932	1.246	correct	regulate	Run3	regulate/STIM_028.jpg
2554.274	1.226	correct	regulate	Run3	regulate/STIM_028.jpg
2558.145	1.171	correct	regulate	Run3	regulate/STIM_029.jpg
2562.594	1.365	correct	regulate	Run3	regulate/STIM_029.jpg
2566.265	1.719	correct	regulate	Run3	regulate/STIM_029.jpg
2570.73	1.689	correct	regulate	Run3	regulate/STIM_029.jpg
2575.592	1.73	correct	observe	Run3	observe/STIM_000.jpg
2581.265	1.132	correct	observe	Run3	observe/STIM_000.jpg
2585.319	1.024	correct	observe	Run3	observe/STIM_000.jpg
2588.387	1.761	correct	observe	Run3	observe/STIM_000.jpg
2592.359	1.764	correct	observe	Run3	observe/STIM_001.jpg
2597.668	1.706	incorrect	observe	Run3	observe/STIM_001.jpg
2603.303	0.974	correct	observe	Run3	observe/STIM_001.jpg
2607.176	1.399	correct	observe	Run3	observe/STIM_001.jpg
2611.163	1.55	correct	observe	Run3	observe/STIM_002.jpg
2615.814	1.311	correct	observe	Run3	observe/STIM_002.jpg
2619.823	1.069	correct	observe	Run3	observe/STIM_002.jpg
2624.826	1.472	correct	observe	Run3	observe/STIM_002.jpg
2628.719	1.454	correct	observe	Run3	observe/STIM_003.jpg
2633.595	1.334	correct	observe	Run3	observe/STIM_003.jpg
2638.873	1.127	correct	observe	Run3	observe/STIM_003.jpg
2642.764	1.108	correct	observe	Run3	observe/STIM_003.jpg
2646.925	1.056	correct	observe	Run3	observe/STIM_004.jpg
2651.521	1.641	correct	observe	Run3	observe/STIM_004.jpg
2657.16	1.055	correct	observe	Run3	observe/STIM_004.jpg
2660.779	1.501	correct	observe	Run3	observe/STIM_004.jpg
2666.233	0.941	correct	observe	Run3	observe/STIM_005.jpg
2670.29	1.451	correct	observe	Run3	observe/STIM_005.jpg
2674.006	1.335	correct	observe	Run3	observe/STIM_005.jpg
2678.184	1.276	correct	observe	Run3	observe/STIM_005.jpg
2682.718	1.289	correct	observe	Run3	observe/STIM_006.jpg
2687.091	1.524	correct	observe	Run3	observe/STIM_006.jpg
2692.369	1.112	correct	observe	Run3	observe/STIM_006.jpg
2695.767	1.337	correct	observe	Run3	observe/STIM_006.jpg
2700.867	1.545	correct	observe	Run3	observe/STIM_007.jpg
2706.269	1.073	correct	observe	Run3	observe/STIM_007.jpg
2710.547	1.695	correct	observe	Run3	observe/STIM_007.jpg
2716.152	1.598	correct	observe	Run3	observe/STIM_007.jpg
2721.586	1.122	correct	observe	Run3	observe/STIM_008.jpg
2725.787	1.328	correct	observe	Run3	observe/STIM_008.jpg
2730.766	1.29	correct	observe	Run3	observe/STIM_008.jpg
2735.803	1.71	correct	observe	Run3	observe/STIM_008.jpg
2740.709	1.586	correct	observe	Run3	observe/STIM_009.jpg
2745.001	1.758	correct	observe	Run3	observe/STIM_009.jpg
2749.244	1.662	correct	observe	Run3	observe/STIM_009.jpg
2753.342	1.463	correct	observe	Run3	observe/STIM_009.jpg
2757.956	0.885	correct	observe	Run3	observe/STIM_010.jpg
2762.289	1.084	correct	observe	Run3	observe/STIM_010.jpg
2766.297	1.242	correct	observe	Run3	observe/STIM_010.jpg
2769.928	1.292	correct	observe	Run3	observe/STIM_010.jpg
2774.234	1.418	correct	observe	Run3	observe/STIM_011.jpg
2778.714	1.194	correct	observe	Run3	observe/STIM_011.jpg
2782.348	1.752	correct	observe	Run3	observe/STIM_011.jpg
2787.894	1.16	correct	observe	Run3	observe/STIM_011.jpg
2791.316	1.58	correct	observe	Run3	observe/STIM_012.jpg
2796.617	1.718	correct	observe	Run3	observe/STIM_012.jpg
2802.078	1.585	incorrect	observe	Run3	observe/STIM_012.jpg
2805.906	1.481	correct	observe	Run3	observe/STIM_012.jpg
2809.915	1.463	correct	observe	Run3	observe/STIM_013.jpg
2814.512	1.689	correct	observe	Run3	observe/STIM_013.jpg
2819.653	1.118	correct	observe	Run3	observe/STIM_013.jpg
2823.483	1.508	correct	observe	Run3	observe/STIM_013.jpg
2828.803	0.944	correct	observe	Run3	observe/STIM_014.jpg
2833.734	1.247	correct	observe	Run3	observe/STIM_014.jpg
2837.619	1.33	correct	observe	Run3	observe/STIM_014.jpg
2842.051	1.483	correct	observe	Run3	observe/STIM_014.jpg
2845.567	1.665	correct	observe	Run3	observe/STIM_015.jpg
2849.828	1.091	correct	observe	Run3	observe/STIM_015.jpg
2854.464	1.648	correct	observe	Run3	observe/STIM_015.jpg
2858.904	1.322	correct	observe	Run3	observe/STIM_015.jpg
2863.623	1.166	correct	observe	Run3	observe/STIM_016.jpg
2866.813	1.468	correct	observe	Run3	observe/STIM_016.jpg
2870.627	1.612	correct	observe	Run3	observe/STIM_016.jpg
2874.762	1.508	correct	observe	Run3	observe/STIM_016.jpg
2878.452	1.237	correct	observe	Run3	observe/STIM_017.jpg
2882.709	0.926	correct	observe	Run3	observe/STIM_017.jpg
2887.583	1.302	incorrect	observe	Run3	observe/STIM_017.jpg
2891.816	1.725	correct	observe	Run3	observe/STIM_017.jpg
2896.153	1.163	correct	observe	Run3	observe/STIM_018.jpg
2899.643	1.515	correct	observe	Run3	observe/STIM_018.jpg
2903.823	0.931	correct	observe	Run3	observe/STIM_018.jpg
2907.809	0.984	correct	observe	Run3	observe/STIM_018.jpg
2911.895	1.087	correct	observe	Run3	observe/STIM_019.jpg
2915.937	1.046	incorrect	observe	Run3	observe/STIM_019.jpg
2919.139	1.038	correct	observe	Run3	observe/STIM_019.jpg
2923.39	1.313	correct	observe	Run3	observe/STIM_019.jpg
