onset	duration	response_time_ms	trial_type	learning_stage	stimulus	response_port
0.0	1.921	1921.0	regulate	Run1	regulate/STIM_000.jpg	100
5.101	1.891	1891.2	regulate	Run1	regulate/STIM_000.jpg	99
10.953	1.706	1705.8	regulate	Run1	regulate/STIM_000.jpg	99
14.906	2.26	2260.4	regulate	Run1	regulate/STIM_000.jpg	99
20.391	2.783	2782.6	regulate	Run1	regulate/STIM_001.jpg	99
26.338	1.816	1816.0	regulate	Run1	regulate/STIM_001.jpg	100
31.988	1.523	1523.3	regulate	Run1	regulate/STIM_001.jpg	100
37.622	1.858	1858.3	regulate	Run1	regulate/STIM_001.jpg	99
42.186	2.519	2518.6	regulate	Run1	regulate/STIM_002.jpg	99
47.012	2.22	2220.5	regulate	Run1	regulate/STIM_002.jpg	99
53.125	2.458	2458.5	regulate	Run1	regulate/STIM_002.jpg	99
58.339	2.581	2580.7	regulate	Run1	regulate/STIM_002.jpg	100
64.38	1.677	1676.8	regulate	Run1	regulate/STIM_003.jpg	100
69.41	2.749	2748.7	regulate	Run1	regulate/STIM_003.jpg	99
75.736	2.367	2366.7	regulate	Run1	regulate/STIM_003.jpg	99
81.92	1.269	1269.2	regulate	Run1	regulate/STIM_003.jpg	100
86.59	2.045	2045.4	regulate	Run1	regulate/STIM_004.jpg	100
91.651	2.676	2675.5	regulate	Run1	regulate/STIM_004.jpg	100
97.704	1.524	1523.6	regulate	Run1	regulate/STIM_004.jpg	100
101.866	2.132	2132.1	regulate	Run1	regulate/STIM_004.jpg	100
107.877	2.289	2288.8	regulate	Run1	regulate/STIM_005.jpg	99
114.196	2.312	2312.4	regulate	Run1	regulate/STIM_005.jpg	99
119.268	1.511	1511.2	regulate	Run1	regulate/STIM_005.jpg	99
123.323	2.495	2494.7	regulate	Run1	regulate/STIM_005.jpg	99
128.387	2.52	2520.1	regulate	Run1	regulate/STIM_006.jpg	99
134.938	2.936	2936.4	regulate	Run1	regulate/STIM_006.jpg	99
140.953	1.736	1735.8	regulate	Run1	regulate/STIM_006.jpg	100
145.001	2.071	2070.9	regulate	Run1	regulate/STIM_006.jpg	100
149.97	1.807	1807.2	regulate	Run1	regulate/STIM_007.jpg	100
154.51	2.845	2844.7	regulate	Run1	regulate/STIM_007.jpg	100
160.955	2.587	2586.7	regulate	Run1	regulate/STIM_007.jpg	100
166.81	1.444	1443.5	regulate	Run1	regulate/STIM_007.jpg	99
171.462	1.6	1599.7	regulate	Run1	regulate/STIM_008.jpg	100
175.846	2.773	2773.2	regulate	Run1	regulate/STIM_008.jpg	99
182.407	2.56	2559.8	regulate	Run1	regulate/STIM_008.jpg	99
188.91	2.377	2377.1	regulate	Run1	regulate/STIM_008.jpg	100
194.907	2.538	2537.5	regulate	Run1	regulate/STIM_009.jpg	100
200.837	2.958	2958.2	regulate	Run1	regulate/STIM_009.jpg	100
207.159	1.736	1736.2	regulate	Run1	regulate/STIM_009.jpg	100
211.188	2.195	2194.9	regulate	Run1	regulate/STIM_009.jpg	100
216.275	2.326	2325.9	regulate	Run1	regulate/STIM_010.jpg	99
220.963	2.062	2062.1	regulate	Run1	regulate/STIM_010.jpg	100
225.364	2.013	2012.7	regulate	Run1	regulate/STIM_010.jpg	99
230.569	1.501	1500.9	regulate	Run1	regulate/STIM_010.jpg	99
234.272	2.606	2605.6	regulate	Run1	regulate/STIM_011.jpg	100
240.828	2.556	2555.9	regulate	Run1	regulate/STIM_011.jpg	100
247.115	2.695	2695.4	regulate	Run1	regulate/STIM_011.jpg	100
253.426	2.437	2437.1	regulate	Run1	regulate/STIM_011.jpg	100
259.922	2.721	2720.8	regulate	Run1	regulate/STIM_012.jpg	100
266.354	1.914	1913.7	regulate	Run1	regulate/STIM_012.jpg	99
272.261	2.329	2329.3	regulate	Run1	regulate/STIM_012.jpg	99
277.6	2.392	2391.9	regulate	Run1	regulate/STIM_012.jpg	99
282.893	2.054	2053.5	regulate	Run1	regulate/STIM_013.jpg	99
288.913	2.352	2351.8	regulate	Run1	regulate/STIM_013.jpg	99
293.543	2.566	2566.1	regulate	Run1	regulate/STIM_013.jpg	100
298.86	2.192	2191.5	regulate	Run1	regulate/STIM_013.jpg	99
305.059	1.688	1688.2	regulate	Run1	regulate/STIM_014.jpg	100
308.971	1.618	1618.1	regulate	Run1	regulate/STIM_014.jpg	100
313.726	1.926	1925.9	regulate	Run1	regulate/STIM_014.jpg	100
318.663	2.258	2258.4	regulate	Run1	regulate/STIM_014.jpg	99
323.901	1.77	1769.5	regulate	Run1	regulate/STIM_015.jpg	99
328.346	2.877	2877.4	regulate	Run1	regulate/STIM_015.jpg	100
335.394	1.347	1347.2	regulate	Run1	regulate/STIM_015.jpg	99
339.62	1.857	1856.8	regulate	Run1	regulate/STIM_015.jpg	99
344.881	2.942	2942.0	regulate	Run1	regulate/STIM_016.jpg	100
351.801	2.713	2713.3	regulate	Run1	regulate/STIM_016.jpg	99
358.742	2.103	2102.9	regulate	Run1	regulate/STIM_016.jpg	99
364.781	1.591	1591.0	regulate	Run1	regulate/STIM_016.jpg	99
370.22	1.397	1397.2	regulate	Run1	regulate/STIM_017.jpg	100
375.532	2.292	2291.7	regulate	Run1	regulate/STIM_017.jpg	99
382.015	2.452	2451.6	regulate	Run1	regulate/STIM_017.jpg	100
388.373	1.676	1675.7	regulate	Run1	regulate/STIM_017.jpg	99
392.258	2.06	2060.5	regulate	Run1	regulate/STIM_018.jpg	100
398.184	2.942	2941.6	regulate	Run1	regulate/STIM_018.jpg	100
405.162	2.457	2456.8	regulate	Run1	regulate/STIM_018.jpg	100
411.853	1.359	1359.4	regulate	Run1	regulate/STIM_018.jpg	100
416.652	1.551	1550.6	regulate	Run1	regulate/STIM_019.jpg	100
422.307	1.972	1972.0	regulate	Run1	regulate/STIM_019.jpg	99
427.15	2.667	2667.4	regulate	Run1	regulate/STIM_019.jpg	100
432.312	1.782	1782.0	regulate	Run1	regulate/STIM_019.jpg	99
437.18	3.153	3152.8	regulate	Run1	regulate/STIM_020.jpg	99
443.164	2.095	2095.3	regulate	Run1	regulate/STIM_020.jpg	99
448.342	2.465	2464.7	regulate	Run1	regulate/STIM_020.jpg	99
453.094	1.269	1269.0	regulate	Run1	regulate/STIM_020.jpg	100
457.145	2.093	2093.2	regulate	Run1	regulate/STIM_021.jpg	99
462.842	1.636	1635.7	regulate	Run1	regulate/STIM_021.jpg	100
466.788	1.742	1742.2	regulate	Run1	regulate/STIM_021.jpg	100
472.559	2.222	2221.8	regulate	Run1	regulate/STIM_021.jpg	100
477.366	2.175	2175.3	regulate	Run1	regulate/STIM_022.jpg	99
483.039	2.448	2447.6	regulate	Run1	regulate/STIM_022.jpg	99
488.581	1.668	1667.9	regulate	Run1	regulate/STIM_022.jpg	99
492.546	2.172	2171.7	regulate	Run1	regulate/STIM_022.jpg	99
498.294	3.112	3112.0	regulate	Run1	regulate/STIM_023.jpg	99
503.767	2.579	2578.6	regulate	Run1	regulate/STIM_023.jpg	100
509.426	1.393	1393.4	regulate	Run1	regulate/STIM_023.jpg	99
514.792	1.267	1266.8	regulate	Run1	regulate/STIM_023.jpg	100
519.93	2.088	2087.6	regulate	Run1	regulate/STIM_024.jpg	99
525.15	1.855	1854.6	regulate	Run1	regulate/STIM_024.jpg	100
530.125	2.828	2827.9	regulate	Run1	regulate/STIM_024.jpg	100
537.022	2.64	2639.8	regulate	Run1	regulate/STIM_024.jpg	100
542.671	2.573	2572.6	regulate	Run1	regulate/STIM_025.jpg	100
548.466	2.83	2830.0	regulate	Run1	regulate/STIM_025.jpg	99
554.566	2.785	2784.9	regulate	Run1	regulate/STIM_025.jpg	100
560.786	1.948	1948.2	regulate	Run1	regulate/STIM_025.jpg	99
564.993	2.53	2530.4	regulate	Run1	regulate/STIM_026.jpg	100
571.598	1.444	1443.6	regulate	Run1	regulate/STIM_026.jpg	99
575.5	1.73	1729.6	regulate	Run1	regulate/STIM_026.jpg	100
581.307	1.244	1243.6	regulate	Run1	regulate/STIM_026.jpg	100
584.94	1.956	1956.0	regulate	Run1	regulate/STIM_027.jpg	100
589.623	1.585	1585.1	regulate	Run1	regulate/STIM_027.jpg	100
594.091	1.936	1935.8	regulate	Run1	regulate/STIM_027.jpg	99
598.578	2.612	2611.5	regulate	Run1	regulate/STIM_027.jpg	100
604.288	1.883	1883.2	regulate	Run1	regulate/STIM_028.jpg	99
608.657	2.212	2211.7	regulate	Run1	regulate/STIM_028.jpg	100
613.526	1.634	1633.9	regulate	Run1	regulate/STIM_028.jpg	99
617.938	1.602	1601.9	regulate	Run1	regulate/STIM_028.jpg	100
622.929	2.408	2407.7	regulate	Run1	regulate/STIM_029.jpg	99
629.316	2.727	2726.9	regulate	Run1	regulate/STIM_029.jpg	100
636.08	2.072	2071.7	regulate	Run1	regulate/STIM_029.jpg	99
642.319	2.045	2045.1	regulate	Run1	regulate/STIM_029.jpg	100
648.321	1.072	1071.6	observe	Run1	observe/STIM_000.jpg	100
652.45	0.724	724.2	observe	Run1	observe/STIM_000.jpg	99
655.601	1.415	1414.8	observe	Run1	observe/STIM_000.jpg	99
660.147	0.745	744.8	observe	Run1	observe/STIM_000.jpg	100
663.247	1.081	1080.8	observe	Run1	observe/STIM_001.jpg	100
666.65	1.209	1209.2	observe	Run1	observe/STIM_001.jpg	100
670.989	1.18	1179.8	observe	Run1	observe/STIM_001.jpg	99
674.541	1.438	1437.7	observe	Run1	observe/STIM_001.jpg	100
678.398	0.829	829.1	observe	Run1	observe/STIM_002.jpg	99
681.801	1.111	1110.8	observe	Run1	observe/STIM_002.jpg	99
686.778	1.255	1254.9	observe	Run1	observe/STIM_002.jpg	100
691.718	1.203	1203.4	observe	Run1	observe/STIM_002.jpg	100
696.75	1.422	1422.5	observe	Run1	observe/STIM_003.jpg	100
700.957	1.132	1131.8	observe	Run1	observe/STIM_003.jpg	99
704.78	1.074	1074.3	observe	Run1	observe/STIM_003.jpg	100
709.156	1.284	1283.6	observe	Run1	observe/STIM_003.jpg	99
713.795	0.826	826.2	observe	Run1	observe/STIM_004.jpg	100
718.121	0.806	805.5	observe	Run1	observe/STIM_004.jpg	100
721.91	1.121	1121.1	observe	Run1	observe/STIM_004.jpg	100
725.804	1.291	1291.2	observe	Run1	observe/STIM_004.jpg	99
730.367	1.227	1227.3	observe	Run1	observe/STIM_005.jpg	99
735.629	0.754	753.6	observe	Run1	observe/STIM_005.jpg	99
738.525	1.372	1371.5	observe	Run1	observe/STIM_005.jpg	99
742.297	1.169	1169.2	observe	Run1	observe/STIM_005.jpg	100
745.93	0.978	978.1	observe	Run1	observe/STIM_006.jpg	99
750.833	0.803	803.4	observe	Run1	observe/STIM_006.jpg	99
753.781	0.724	724.4	observe	Run1	observe/STIM_006.jpg	100
757.382	1.091	1090.6	observe	Run1	observe/STIM_006.jpg	99
761.333	1.4	1400.2	observe	Run1	observe/STIM_007.jpg	99
765.975	1.208	1208.5	observe	Run1	observe/STIM_007.jpg	99
769.563	1.304	1304.3	observe	Run1	observe/STIM_007.jpg	99
773.363	0.903	903.2	observe	Run1	observe/STIM_007.jpg	99
777.777	0.912	911.8	observe	Run1	observe/STIM_008.jpg	100
781.532	1.021	1021.2	observe	Run1	observe/STIM_008.jpg	100
786.28	0.949	949.0	observe	Run1	observe/STIM_008.jpg	100
789.382	1.335	1334.7	observe	Run1	observe/STIM_008.jpg	100
793.4	1.043	1042.9	observe	Run1	observe/STIM_009.jpg	100
796.844	0.972	972.0	observe	Run1	observe/STIM_009.jpg	100
800.7	1.229	1228.8	observe	Run1	observe/STIM_009.jpg	100
805.246	1.291	1290.9	observe	Run1	observe/STIM_009.jpg	99
808.799	0.762	761.9	observe	Run1	observe/STIM_010.jpg	99
811.79	1.295	1294.7	observe	Run1	observe/STIM_010.jpg	99
815.283	1.324	1324.3	observe	Run1	observe/STIM_010.jpg	99
820.519	1.145	1144.9	observe	Run1	observe/STIM_010.jpg	99
824.582	1.071	1070.7	observe	Run1	observe/STIM_011.jpg	99
827.771	1.371	1371.1	observe	Run1	observe/STIM_011.jpg	99
833.108	0.882	882.5	observe	Run1	observe/STIM_011.jpg	99
836.905	0.846	846.0	observe	Run1	observe/STIM_011.jpg	100
840.64	0.775	775.2	observe	Run1	observe/STIM_012.jpg	100
844.547	1.131	1131.1	observe	Run1	observe/STIM_012.jpg	99
848.229	1.269	1269.1	observe	Run1	observe/STIM_012.jpg	99
852.82	1.362	1362.0	observe	Run1	observe/STIM_012.jpg	99
857.41	1.07	1070.0	observe	Run1	observe/STIM_013.jpg	100
861.42	1.31	1310.0	observe	Run1	observe/STIM_013.jpg	100
865.502	1.192	1191.5	observe	Run1	observe/STIM_013.jpg	100
870.086	1.185	1184.8	observe	Run1	observe/STIM_013.jpg	99
874.954	1.173	1173.4	observe	Run1	observe/STIM_014.jpg	100
879.815	1.026	1026.2	observe	Run1	observe/STIM_014.jpg	100
884.496	0.896	895.5	observe	Run1	observe/STIM_014.jpg	99
888.777	1.097	1096.6	observe	Run1	observe/STIM_014.jpg	100
892.737	0.95	949.8	observe	Run1	observe/STIM_015.jpg	100
896.342	0.773	773.1	observe	Run1	observe/STIM_015.jpg	99
901.041	1.345	1345.2	observe	Run1	observe/STIM_015.jpg	100
905.123	1.149	1149.4	observe	Run1	observe/STIM_015.jpg	100
909.547	0.768	767.7	observe	Run1	observe/STIM_016.jpg	99
914.176	1.047	1046.7	observe	Run1	observe/STIM_016.jpg	100
918.413	1.115	1115.0	observe	Run1	observe/STIM_016.jpg	99
922.826	1.228	1228.5	observe	Run1	observe/STIM_016.jpg	100
926.391	0.966	966.0	observe	Run1	observe/STIM_017.jpg	100
930.409	0.856	856.5	observe	Run1	observe/STIM_017.jpg	100
935.231	1.291	1290.7	observe	Run1	observe/STIM_017.jpg	100
940.382	0.75	750.2	observe	Run1	observe/STIM_017.jpg	99
943.257	1.191	1190.8	observe	Run1	observe/STIM_018.jpg	100
948.539	1.429	1429.1	observe	Run1	observe/STIM_018.jpg	99
952.901	1.394	1393.7	observe	Run1	observe/STIM_018.jpg	100
957.73	1.226	1225.9	observe	Run1	observe/STIM_018.jpg	100
963.034	1.11	1109.8	observe	Run1	observe/STIM_019.jpg	100
968.018	0.926	926.5	observe	Run1	observe/STIM_019.jpg	100
971.22	1.16	1160.0	observe	Run1	observe/STIM_019.jpg	100
974.76	1.043	1043.0	observe	Run1	observe/STIM_019.jpg	100
978.334	2.42	2419.7	regulate	Run2	regulate/STIM_000.jpg	100
983.5	1.48	1479.5	regulate	Run2	regulate/STIM_000.jpg	100
987.192	1.183	1183.1	regulate	Run2	regulate/STIM_000.jpg	99
991.983	1.012	1011.7	regulate	Run2	regulate/STIM_000.jpg	100
996.659	2.674	2673.5	regulate	Run2	regulate/STIM_001.jpg	99
1002.305	1.144	1144.1	regulate	Run2	regulate/STIM_001.jpg	99
1005.962	1.815	1815.0	regulate	Run2	regulate/STIM_001.jpg	99
1010.32	1.655	1655.4	regulate	Run2	regulate/STIM_001.jpg	100
1014.651	1.73	1730.4	regulate	Run2	regulate/STIM_002.jpg	99
1019.685	1.287	1287.1	regulate	Run2	regulate/STIM_002.jpg	100
1023.218	1.511	1511.0	regulate	Run2	regulate/STIM_002.jpg	100
1028.681	0.988	987.8	regulate	Run2	regulate/STIM_002.jpg	100
1033.539	2.129	2129.1	regulate	Run2	regulate/STIM_003.jpg	100
1038.345	1.874	1873.8	regulate	Run2	regulate/STIM_003.jpg	99
1042.669	1.87	1870.4	regulate	Run2	regulate/STIM_003.jpg	100
1047.52	1.489	1489.4	regulate	Run2	regulate/STIM_003.jpg	100
1051.724	2.528	2528.0	regulate	Run2	regulate/STIM_004.jpg	99
1058.154	2.126	2126.1	regulate	Run2	regulate/STIM_004.jpg	99
1063.467	2.217	2216.8	regulate	Run2	regulate/STIM_004.jpg	99
1068.138	1.654	1653.5	regulate	Run2	regulate/STIM_004.jpg	99
1073.48	2.193	2193.1	regulate	Run2	regulate/STIM_005.jpg	99
1079.61	2.497	2496.6	regulate	Run2	regulate/STIM_005.jpg	100
1085.279	1.893	1893.2	regulate	Run2	regulate/STIM_005.jpg	100
1090.57	2.041	2041.3	regulate	Run2	regulate/STIM_005.jpg	99
1096.18	2.069	2068.9	regulate	Run2	regulate/STIM_006.jpg	99
1100.834	2.367	2366.9	regulate	Run2	regulate/STIM_006.jpg	100
1107.13	1.599	1598.7	regulate	Run2	regulate/STIM_006.jpg	100
1111.465	1.844	1844.5	regulate	Run2	regulate/STIM_006.jpg	99
1116.35	2.543	2543.1	regulate	Run2	regulate/STIM_007.jpg	100
1121.181	1.602	1602.5	regulate	Run2	regulate/STIM_007.jpg	100
1126.17	1.585	1585.2	regulate	Run2	regulate/STIM_007.jpg	99
1130.105	2.159	2159.3	regulate	Run2	regulate/STIM_007.jpg	99
1135.233	1.991	1991.1	regulate	Run2	regulate/STIM_008.jpg	100
1139.734	1.483	1482.8	regulate	Run2	regulate/STIM_008.jpg	99
1145.088	1.035	1034.9	regulate	Run2	regulate/STIM_008.jpg	100
1149.294	1.717	1716.6	regulate	Run2	regulate/STIM_008.jpg	99
1153.414	2.166	2166.0	regulate	Run2	regulate/STIM_009.jpg	100
1158.205	2.472	2471.8	regulate	Run2	regulate/STIM_009.jpg	100
1163.069	1.528	1528.2	regulate	Run2	regulate/STIM_009.jpg	99
1167.855	1.677	1677.0	regulate	Run2	regulate/STIM_009.jpg	99
1172.82	1.594	1593.7	regulate	Run2	regulate/STIM_010.jpg	100
1176.918	1.983	1983.0	regulate	Run2	regulate/STIM_010.jpg	99
1182.295	1.281	1280.8	regulate	Run2	regulate/STIM_010.jpg	100
1186.787	2.13	2130.3	regulate	Run2	regulate/STIM_010.jpg	99
1191.257	2.139	2139.2	regulate	Run2	regulate/STIM_011.jpg	100
1196.344	1.963	1963.3	regulate	Run2	regulate/STIM_011.jpg	100
1202.382	2.262	2262.3	regulate	Run2	regulate/STIM_011.jpg	100
1207.66	1.034	1034.0	regulate	Run2	regulate/STIM_011.jpg	99
1211.224	1.233	1233.3	regulate	Run2	regulate/STIM_012.jpg	100
1216.34	1.287	1286.9	regulate	Run2	regulate/STIM_012.jpg	99
1220.772	2.294	2294.5	regulate	Run2	regulate/STIM_012.jpg	100
1225.521	1.114	1114.5	regulate	Run2	regulate/STIM_012.jpg	99
1228.984	1.876	1875.5	regulate	Run2	regulate/STIM_013.jpg	100
1233.5	1.088	1088.0	regulate	Run2	regulate/STIM_013.jpg	100
1237.541	1.253	1252.6	regulate	Run2	regulate/STIM_013.jpg	100
1242.218	1.288	1288.2	regulate	Run2	regulate/STIM_013.jpg	100
1246.705	1.825	1825.0	regulate	Run2	regulate/STIM_014.jpg	100
1252.489	2.107	2106.6	regulate	Run2	regulate/STIM_014.jpg	99
1257.206	1.663	1662.8	regulate	Run2	regulate/STIM_014.jpg	99
1262.931	1.711	1711.4	regulate	Run2	regulate/STIM_014.jpg	99
1267.93	2.508	2508.1	regulate	Run2	regulate/STIM_015.jpg	99
1274.35	2.203	2202.8	regulate	Run2	regulate/STIM_015.jpg	100
1278.872	1.911	1911.2	regulate	Run2	regulate/STIM_015.jpg	99
1284.754	1.565	1565.4	regulate	Run2	regulate/STIM_015.jpg	100
1289.26	1.799	1798.9	regulate	Run2	regulate/STIM_016.jpg	100
1295.218	2.184	2183.6	regulate	Run2	regulate/STIM_016.jpg	100
1301.017	1.023	1023.0	regulate	Run2	regulate/STIM_016.jpg	99
1304.521	2.162	2162.0	regulate	Run2	regulate/STIM_016.jpg	100
1309.912	1.558	1557.9	regulate	Run2	regulate/STIM_017.jpg	100
1315.207	1.115	1115.2	regulate	Run2	regulate/STIM_017.jpg	100
1319.432	2.114	2114.4	regulate	Run2	regulate/STIM_017.jpg	99
1323.998	1.293	1293.0	regulate	Run2	regulate/STIM_017.jpg	100
1328.112	1.227	1226.6	regulate	Run2	regulate/STIM_018.jpg	100
1333.291	1.257	1257.2	regulate	Run2	regulate/STIM_018.jpg	100
1337.304	1.517	1517.4	regulate	Run2	regulate/STIM_018.jpg	99
1342.797	1.539	1539.1	regulate	Run2	regulate/STIM_018.jpg	99
1347.876	2.351	2351.3	regulate	Run2	regulate/STIM_019.jpg	99
1354.042	1.362	1361.6	regulate	Run2	regulate/STIM_019.jpg	99
1357.557	2.303	2302.9	regulate	Run2	regulate/STIM_019.jpg	100
1363.583	1.572	1571.7	regulate	Run2	regulate/STIM_019.jpg	99
1368.314	2.021	2020.9	regulate	Run2	regulate/STIM_020.jpg	100
1374.366	1.827	1827.2	regulate	Run2	regulate/STIM_020.jpg	100
1379.369	1.988	1987.6	regulate	Run2	regulate/STIM_020.jpg	99
1384.428	1.342	1342.4	regulate	Run2	regulate/STIM_020.jpg	100
1389.229	1.652	1652.4	regulate	Run2	regulate/STIM_021.jpg	100
1393.479	2.44	2440.3	regulate	Run2	regulate/STIM_021.jpg	100
1398.544	1.762	1762.5	regulate	Run2	regulate/STIM_021.jpg	100
1404.291	1.323	1323.3	regulate	Run2	regulate/STIM_021.jpg	100
1408.999	2.004	2004.1	regulate	Run2	regulate/STIM_022.jpg	99
1413.298	2.115	2115.4	regulate	Run2	regulate/STIM_022.jpg	100
1417.939	1.411	1410.6	regulate	Run2	regulate/STIM_022.jpg	100
1422.397	1.677	1677.4	regulate	Run2	regulate/STIM_022.jpg	99
1427.779	1.257	1256.8	regulate	Run2	regulate/STIM_023.jpg	99
1432.283	1.248	1248.2	regulate	Run2	regulate/STIM_023.jpg	100
1436.722	1.686	1686.0	regulate	Run2	regulate/STIM_023.jpg	99
1440.635	1.519	1518.7	regulate	Run2	regulate/STIM_023.jpg	99
1445.983	1.746	1745.5	regulate	Run2	regulate/STIM_024.jpg	100
1451.585	1.929	1929.0	regulate	Run2	regulate/STIM_024.jpg	99
1457.633	2.041	2040.9	regulate	Run2	regulate/STIM_024.jpg	100
1461.971	1.986	1985.8	regulate	Run2	regulate/STIM_024.jpg	99
1466.777	1.551	1551.0	regulate	Run2	regulate/STIM_025.jpg	100
1471.176	1.911	1910.9	regulate	Run2	regulate/STIM_025.jpg	99
1477.23	1.551	1551.1	regulate	Run2	regulate/STIM_025.jpg	99
1481.073	1.569	1568.6	regulate	Run2	regulate/STIM_025.jpg	99
1485.569	1.786	1785.7	regulate	Run2	regulate/STIM_026.jpg	100
1491.209	1.801	1800.6	regulate	Run2	regulate/STIM_026.jpg	100
1495.818	1.681	1680.8	regulate	Run2	regulate/STIM_026.jpg	99
1500.502	1.357	1357.1	regulate	Run2	regulate/STIM_026.jpg	99
1505.283	1.175	1175.3	regulate	Run2	regulate/STIM_027.jpg	99
1508.741	1.427	1427.3	regulate	Run2	regulate/STIM_027.jpg	100
1514.158	1.108	1108.5	regulate	Run2	regulate/STIM_027.jpg	99
1518.032	1.984	1984.4	regulate	Run2	regulate/STIM_027.jpg	99
1523.895	1.794	1793.8	regulate	Run2	regulate/STIM_028.jpg	99
1528.44	2.234	2234.4	regulate	Run2	regulate/STIM_028.jpg	99
1533.858	2.293	2293.4	regulate	Run2	regulate/STIM_028.jpg	99
1540.097	2.015	2015.4	regulate	Run2	regulate/STIM_028.jpg	99
1544.965	2.361	2361.3	regulate	Run2	regulate/STIM_029.jpg	99
1550.762	1.185	1184.8	regulate	Run2	regulate/STIM_029.jpg	99
1554.438	1.068	1067.6	regulate	Run2	regulate/STIM_029.jpg	100
1558.257	1.985	1985.3	regulate	Run2	regulate/STIM_029.jpg	100
1562.755	1.193	1193.4	observe	Run2	observe/STIM_000.jpg	99
1566.61	0.984	984.4	observe	Run2	observe/STIM_000.jpg	100
1569.936	1.143	1143.0	observe	Run2	observe/STIM_000.jpg	100
1573.855	1.185	1184.9	observe	Run2	observe/STIM_000.jpg	99
1578.669	1.029	1029.2	observe	Run2	observe/STIM_001.jpg	99
1583.436	0.757	756.6	observe	Run2	observe/STIM_001.jpg	99
1586.519	1.358	1357.6	observe	Run2	observe/STIM_001.jpg	100
1591.3	0.771	771.0	observe	Run2	observe/STIM_001.jpg	99
1595.219	0.87	870.5	observe	Run2	observe/STIM_002.jpg	99
1599.724	0.871	870.6	observe	Run2	observe/STIM_002.jpg	100
1603.219	1.209	1208.8	observe	Run2	observe/STIM_002.jpg	99
1608.01	1.0	999.5	observe	Run2	observe/STIM_002.jpg	99
1613.008	1.025	1025.2	observe	Run2	observe/STIM_003.jpg	100
1617.376	0.834	834.5	observe	Run2	observe/STIM_003.jpg	100
1620.569	1.324	1323.8	observe	Run2	observe/STIM_003.jpg	100
1625.904	0.92	920.4	observe	Run2	observe/STIM_003.jpg	99
1630.746	1.17	1169.7	observe	Run2	observe/STIM_004.jpg	99
1635.616	1.406	1406.4	observe	Run2	observe/STIM_004.jpg	100
1640.86	0.863	862.8	observe	Run2	observe/STIM_004.jpg	100
1644.776	1.071	1070.8	observe	Run2	observe/STIM_004.jpg	100
1648.579	0.902	902.3	observe	Run2	observe/STIM_005.jpg	99
1651.626	1.006	1006.1	observe	Run2	observe/STIM_005.jpg	99
1655.782	1.414	1414.4	observe	Run2	observe/STIM_005.jpg	100
1661.343	1.02	1019.8	observe	Run2	observe/STIM_005.jpg	99
1666.153	1.382	1382.4	observe	Run2	observe/STIM_006.jpg	99
1669.802	1.413	1413.2	observe	Run2	observe/STIM_006.jpg	100
1674.31	0.779	779.0	observe	Run2	observe/STIM_006.jpg	99
1677.405	0.985	985.2	observe	Run2	observe/STIM_006.jpg	100
1680.622	1.307	1307.1	observe	Run2	observe/STIM_007.jpg	100
1685.95	1.428	1428.2	observe	Run2	observe/STIM_007.jpg	100
1690.304	0.934	934.3	observe	Run2	observe/STIM_007.jpg	100
1693.649	0.77	769.5	observe	Run2	observe/STIM_007.jpg	100
1698.015	1.218	1218.1	observe	Run2	observe/STIM_008.jpg	99
1702.026	0.834	833.5	observe	Run2	observe/STIM_008.jpg	99
1706.155	0.843	843.2	observe	Run2	observe/STIM_008.jpg	100
1709.545	0.762	762.2	observe	Run2	observe/STIM_008.jpg	99
1713.745	1.251	1251.3	observe	Run2	observe/STIM_009.jpg	100
1717.468	1.334	1334.1	observe	Run2	observe/STIM_009.jpg	99
1722.252	1.214	1214.0	observe	Run2	observe/STIM_009.jpg	100
1727.302	1.404	1404.4	observe	Run2	observe/STIM_009.jpg	99
1732.329	1.029	1029.3	observe	Run2	observe/STIM_010.jpg	99
1736.589	1.251	1251.1	observe	Run2	observe/STIM_010.jpg	100
1741.496	1.024	1024.4	observe	Run2	observe/STIM_010.jpg	99
1746.305	0.898	898.1	observe	Run2	observe/STIM_010.jpg	100
1750.168	1.299	1299.3	observe	Run2	observe/STIM_011.jpg	99
1753.818	0.825	824.8	observe	Run2	observe/STIM_011.jpg	99
1758.722	1.064	1063.5	observe	Run2	observe/STIM_011.jpg	99
1762.715	0.756	756.5	observe	Run2	observe/STIM_011.jpg	99
1766.675	0.966	966.0	observe	Run2	observe/STIM_012.jpg	100
1770.37	0.983	983.1	observe	Run2	observe/STIM_012.jpg	100
1774.411	0.788	787.5	observe	Run2	observe/STIM_012.jpg	99
1778.745	0.832	832.2	observe	Run2	observe/STIM_012.jpg	99
1782.617	1.075	1075.3	observe	Run2	observe/STIM_013.jpg	100
1785.983	1.022	1021.8	observe	Run2	observe/STIM_013.jpg	100
1791.107	0.887	886.9	observe	Run2	observe/STIM_013.jpg	99
1795.02	0.904	904.4	observe	Run2	observe/STIM_013.jpg	100
1799.972	1.077	1076.9	observe	Run2	observe/STIM_014.jpg	100
1804.308	0.93	929.6	observe	Run2	observe/STIM_014.jpg	99
1808.124	0.973	973.2	observe	Run2	observe/STIM_014.jpg	100
1811.244	0.996	996.4	observe	Run2	observe/STIM_014.jpg	99
1814.428	0.968	967.8	observe	Run2	observe/STIM_015.jpg	100
1819.062	1.267	1267.1	observe	Run2	observe/STIM_015.jpg	99
1823.252	0.887	887.0	observe	Run2	observe/STIM_015.jpg	100
1827.345	0.856	855.5	observe	Run2	observe/STIM_015.jpg	100
1831.969	1.309	1308.7	observe	Run2	observe/STIM_016.jpg	100
1836.031	0.774	774.1	observe	Run2	observe/STIM_016.jpg	99
1838.9	0.947	946.6	observe	Run2	observe/STIM_016.jpg	99
1843.942	1.278	1278.4	observe	Run2	observe/STIM_016.jpg	99
1847.876	1.24	1239.8	observe	Run2	observe/STIM_017.jpg	100
1853.044	0.813	813.4	observe	Run2	observe/STIM_017.jpg	99
1856.914	1.29	1290.0	observe	Run2	observe/STIM_017.jpg	99
1860.689	0.897	897.4	observe	Run2	observe/STIM_017.jpg	100
1864.446	1.01	1009.8	observe	Run2	observe/STIM_018.jpg	100
1867.777	1.233	1233.1	observe	Run2	observe/STIM_018.jpg	99
1871.754	1.099	1099.4	observe	Run2	observe/STIM_018.jpg	100
1875.147	0.938	937.5	observe	Run2	observe/STIM_018.jpg	99
1878.905	0.826	825.9	observe	Run2	observe/STIM_019.jpg	100
1883.154	1.291	1291.1	observe	Run2	observe/STIM_019.jpg	100
1888.293	1.164	1164.1	observe	Run2	observe/STIM_019.jpg	99
1892.064	1.3	1299.9	observe	Run2	observe/STIM_019.jpg	99
1896.56	2.21	2210.2	regulate	Run3	regulate/STIM_000.jpg	100
1902.878	0.968	968.0	regulate	Run3	regulate/STIM_000.jpg	100
1907.293	1.559	1558.8	regulate	Run3	regulate/STIM_000.jpg	100
1911.493	1.326	1326.1	regulate	Run3	regulate/STIM_000.jpg	100
1915.421	1.498	1498.2	regulate	Run3	regulate/STIM_001.jpg	99
1919.395	2.195	2195.3	regulate	Run3	regulate/STIM_001.jpg	99
1925.032	1.546	1546.0	regulate	Run3	regulate/STIM_001.jpg	100
1928.749	1.282	1281.7	regulate	Run3	regulate/STIM_001.jpg	99
1933.801	1.887	1887.4	regulate	Run3	regulate/STIM_002.jpg	99
1939.049	1.842	1842.5	regulate	Run3	regulate/STIM_002.jpg	100
1943.185	1.192	1192.2	regulate	Run3	regulate/STIM_002.jpg	100
1947.991	1.62	1620.2	regulate	Run3	regulate/STIM_002.jpg	99
1953.614	1.893	1892.7	regulate	Run3	regulate/STIM_003.jpg	99
1959.146	1.232	1231.6	regulate	Run3	regulate/STIM_003.jpg	99
1963.955	1.048	1048.4	regulate	Run3	regulate/STIM_003.jpg	99
1967.331	1.401	1401.2	regulate	Run3	regulate/STIM_003.jpg	100
1972.267	1.842	1841.7	regulate	Run3	regulate/STIM_004.jpg	100
1977.86	1.742	1742.4	regulate	Run3	regulate/STIM_004.jpg	99
1982.472	1.309	1309.4	regulate	Run3	regulate/STIM_004.jpg	99
1986.112	2.066	2065.6	regulate	Run3	regulate/STIM_004.jpg	99
1991.726	1.908	1908.2	regulate	Run3	regulate/STIM_005.jpg	99
1996.733	1.22	1220.4	regulate	Run3	regulate/STIM_005.jpg	100
2001.268	1.677	1676.9	regulate	Run3	regulate/STIM_005.jpg	100
2005.193	1.183	1183.0	regulate	Run3	regulate/STIM_005.jpg	100
2009.144	1.857	1856.7	regulate	Run3	regulate/STIM_006.jpg	100
2014.409	1.255	1254.9	regulate	Run3	regulate/STIM_006.jpg	99
2018.262	1.207	1207.1	regulate	Run3	regulate/STIM_006.jpg	100
2022.266	1.88	1879.9	regulate	Run3	regulate/STIM_006.jpg	100
2028.232	2.195	2194.8	regulate	Run3	regulate/STIM_007.jpg	99
2034.627	1.902	1902.5	regulate	Run3	regulate/STIM_007.jpg	99
2040.283	1.656	1656.5	regulate	Run3	regulate/STIM_007.jpg	99
2045.718	2.059	2059.1	regulate	Run3	regulate/STIM_007.jpg	100
2050.701	2.096	2096.0	regulate	Run3	regulate/STIM_008.jpg	100
2056.277	1.109	1109.3	regulate	Run3	regulate/STIM_008.jpg	99
2060.16	1.803	1803.2	regulate	Run3	regulate/STIM_008.jpg	99
2065.587	1.708	1707.7	regulate	Run3	regulate/STIM_008.jpg	99
2070.803	1.796	1796.4	regulate	Run3	regulate/STIM_009.jpg	100
2076.529	1.257	1256.7	regulate	Run3	regulate/STIM_009.jpg	99
2081.889	1.263	1263.1	regulate	Run3	regulate/STIM_009.jpg	99
2085.426	1.552	1551.5	regulate	Run3	regulate/STIM_009.jpg	100
2090.727	1.285	1285.4	regulate	Run3	regulate/STIM_010.jpg	100
2095.261	1.911	1911.4	regulate	Run3	regulate/STIM_010.jpg	99
2099.87	1.868	1867.5	regulate	Run3	regulate/STIM_010.jpg	100
2104.274	1.007	1006.6	regulate	Run3	regulate/STIM_010.jpg	99
2108.562	2.204	2204.4	regulate	Run3	regulate/STIM_011.jpg	99
2113.145	1.993	1993.2	regulate	Run3	regulate/STIM_011.jpg	99
2118.357	1.801	1800.6	regulate	Run3	regulate/STIM_011.jpg	99
2123.54	1.578	1578.2	regulate	Run3	regulate/STIM_011.jpg	99
2129.161	1.475	1475.4	regulate	Run3	regulate/STIM_012.jpg	100
2134.076	1.597	1597.1	regulate	Run3	regulate/STIM_012.jpg	99
2139.072	1.358	1358.3	regulate	Run3	regulate/STIM_012.jpg	100
2144.391	1.364	1363.7	regulate	Run3	regulate/STIM_012.jpg	99
2149.734	1.036	1035.9	regulate	Run3	regulate/STIM_013.jpg	100
2154.43	1.384	1384.2	regulate	Run3	regulate/STIM_013.jpg	99
2158.526	1.233	1233.1	regulate	Run3	regulate/STIM_013.jpg	100
2163.04	1.162	1161.7	regulate	Run3	regulate/STIM_013.jpg	100
2166.73	1.538	1537.9	regulate	Run3	regulate/STIM_014.jpg	100
2171.512	1.729	1729.3	regulate	Run3	regulate/STIM_014.jpg	99
2175.979	1.039	1038.8	regulate	Run3	regulate/STIM_014.jpg	100
2179.748	1.988	1988.5	regulate	Run3	regulate/STIM_014.jpg	99
2185.937	1.502	1501.5	regulate	Run3	regulate/STIM_015.jpg	100
2190.221	1.269	1269.2	regulate	Run3	regulate/STIM_015.jpg	100
2193.97	1.331	1331.1	regulate	Run3	regulate/STIM_015.jpg	100
2198.884	1.622	1621.7	regulate	Run3	regulate/STIM_015.jpg	100
2202.731	2.17	2170.2	regulate	Run3	regulate/STIM_016.jpg	99
2208.352	1.93	1929.6	regulate	Run3	regulate/STIM_016.jpg	99
2214.436	1.026	1025.6	regulate	Run3	regulate/STIM_016.jpg	100
2217.875	2.051	2050.6	regulate	Run3	regulate/STIM_016.jpg	99
2222.769	1.54	1539.8	regulate	Run3	regulate/STIM_017.jpg	100
2227.143	1.766	1765.9	regulate	Run3	regulate/STIM_017.jpg	100
2231.366	1.77	1769.5	regulate	Run3	regulate/STIM_017.jpg	100
2236.989	1.34	1340.3	regulate	Run3	regulate/STIM_017.jpg	99
2242.404	1.631	1631.0	regulate	Run3	regulate/STIM_018.jpg	100
2246.699	1.495	1494.7	regulate	Run3	regulate/STIM_018.jpg	99
2251.563	1.885	1885.4	regulate	Run3	regulate/STIM_018.jpg	100
2257.135	1.431	1431.2	regulate	Run3	regulate/STIM_018.jpg	100
2260.769	2.113	2112.7	regulate	Run3	regulate/STIM_019.jpg	100
2266.701	1.17	1169.7	regulate	Run3	regulate/STIM_019.jpg	99
2270.133	1.674	1674.2	regulate	Run3	regulate/STIM_019.jpg	100
2275.549	1.383	1382.9	regulate	Run3	regulate/STIM_019.jpg	99
2279.118	1.757	1756.8	regulate	Run3	regulate/STIM_020.jpg	100
2284.353	1.207	1207.3	regulate	Run3	regulate/STIM_020.jpg	100
2288.52	1.442	1442.1	regulate	Run3	regulate/STIM_020.jpg	99
2293.621	1.611	1610.9	regulate	Run3	regulate/STIM_020.jpg	100
2298.83	1.385	1385.0	regulate	Run3	regulate/STIM_021.jpg	99
2303.808	1.054	1053.9	regulate	Run3	regulate/STIM_021.jpg	100
2307.451	1.287	1287.3	regulate	Run3	regulate/STIM_021.jpg	99
2312.154	1.226	1226.2	regulate	Run3	regulate/STIM_021.jpg	100
2316.864	1.807	1806.6	regulate	Run3	regulate/STIM_022.jpg	99
2321.217	1.066	1066.4	regulate	Run3	regulate/STIM_022.jpg	99
2324.59	1.49	1489.5	regulate	Run3	regulate/STIM_022.jpg	100
2328.894	1.595	1595.0	regulate	Run3	regulate/STIM_022.jpg	99
2334.565	1.372	1372.4	regulate	Run3	regulate/STIM_023.jpg	100
2340.038	1.109	1108.8	regulate	Run3	regulate/STIM_023.jpg	99
2343.565	1.254	1254.5	regulate	Run3	regulate/STIM_023.jpg	100
2348.218	1.118	1117.8	regulate	Run3	regulate/STIM_023.jpg	100
2352.203	1.568	1567.8	regulate	Run3	regulate/STIM_024.jpg	99
2357.489	1.484	1484.2	regulate	Run3	regulate/STIM_024.jpg	100
2362.588	1.403	1402.8	regulate	Run3	regulate/STIM_024.jpg	100
2367.659	0.972	971.9	regulate	Run3	regulate/STIM_024.jpg	99
2370.745	1.124	1123.5	regulate	Run3	regulate/STIM_025.jpg	100
2375.121	1.127	1126.8	regulate	Run3	regulate/STIM_025.jpg	99
2378.552	1.209	1208.9	regulate	Run3	regulate/STIM_025.jpg	99
2383.433	1.826	1825.5	regulate	Run3	regulate/STIM_025.jpg	100
2388.622	2.188	2187.5	regulate	Run3	regulate/STIM_026.jpg	100
2394.014	2.052	2051.9	regulate	Run3	regulate/STIM_026.jpg	100
2399.72	1.702	1701.5	regulate	Run3	regulate/STIM_026.jpg	100
2404.758	2.001	2001.1	regulate	Run3	regulate/STIM_026.jpg	100
2409.346	1.551	1550.7	regulate	Run3	regulate/STIM_027.jpg	100
2415.053	1.828	1828.2	regulate	Run3	regulate/STIM_027.jpg	100
2419.69	1.55	1550.4	regulate	Run3	regulate/STIM_027.jpg	99
2424.99	2.07	2069.8	regulate	Run3	regulate/STIM_027.jpg	100
2429.807	1.324	1324.4	regulate	Run3	regulate/STIM_028.jpg	100
2433.911	2.051	2050.8	regulate	Run3	regulate/STIM_028.jpg	99
2439.097	1.242	1242.1	regulate	Run3	regulate/STIM_028.jpg	99
2442.604	1.756	1755.8	regulate	Run3	regulate/STIM_028.jpg	100
2447.362	1.73	1729.6	regulate	Run3	regulate/STIM_029.jpg	100
2451.588	1.154	1154.1	regulate	Run3	regulate/STIM_029.jpg	100
2455.44	1.82	1819.9	regulate	Run3	regulate/STIM_029.jpg	99
2460.188	2.205	2204.9	regulate	Run3	regulate/STIM_029.jpg	99
2466.209	1.106	1105.5	observe	Run3	observe/STIM_000.jpg	99
2470.572	1.092	1092.0	observe	Run3	observe/STIM_000.jpg	100
2473.968	1.095	1094.8	observe	Run3	observe/STIM_000.jpg	100
2477.315	1.18	1179.9	observe	Run3	observe/STIM_000.jpg	100
2481.491	1.11	1109.7	observe	Run3	observe/STIM_001.jpg	99
2486.463	0.922	922.2	observe	Run3	observe/STIM_001.jpg	99
2490.295	1.26	1260.4	observe	Run3	observe/STIM_001.jpg	100
2493.736	1.141	1141.2	observe	Run3	observe/STIM_001.jpg	99
2498.754	1.277	1277.2	observe	Run3	observe/STIM_002.jpg	100
2502.822	1.349	1348.8	observe	Run3	observe/STIM_002.jpg	99
2507.412	0.756	756.4	observe	Run3	observe/STIM_002.jpg	99
2511.133	1.225	1225.0	observe	Run3	observe/STIM_002.jpg	99
2515.926	0.787	787.0	observe	Run3	observe/STIM_003.jpg	100
2519.713	1.356	1355.9	observe	Run3	observe/STIM_003.jpg	100
2524.855	0.811	810.8	observe	Run3	observe/STIM_003.jpg	100
2529.454	1.386	1385.6	observe	Run3	observe/STIM_003.jpg	100
2534.029	0.776	776.4	observe	Run3	observe/STIM_004.jpg	99
2538.661	0.954	954.2	observe	Run3	observe/STIM_004.jpg	100
2541.808	1.283	1283.3	observe	Run3	observe/STIM_004.jpg	99
2545.553	1.435	1435.2	observe	Run3	observe/STIM_004.jpg	99
2550.114	1.312	1312.2	observe	Run3	observe/STIM_005.jpg	100
2555.392	1.343	1343.4	observe	Run3	observe/STIM_005.jpg	99
2560.299	0.917	917.1	observe	Run3	observe/STIM_005.jpg	99
2563.665	1.386	1386.1	observe	Run3	observe/STIM_005.jpg	99
2567.548	0.842	842.3	observe	Run3	observe/STIM_006.jpg	100
2571.64	0.976	976.2	observe	Run3	observe/STIM_006.jpg	99
2574.87	0.898	898.1	observe	Run3	observe/STIM_006.jpg	100
2578.537	1.146	1145.6	observe	Run3	observe/STIM_006.jpg	100
2582.762	1.361	1361.1	observe	Run3	observe/STIM_007.jpg	99
2587.746	0.844	843.7	observe	Run3	observe/STIM_007.jpg	100
2591.593	1.271	1270.7	observe	Run3	observe/STIM_007.jpg	100
2596.199	1.221	1220.7	observe	Run3	observe/STIM_007.jpg	100
2600.502	0.753	752.8	observe	Run3	observe/STIM_008.jpg	99
2604.799	1.254	1254.2	observe	Run3	observe/STIM_008.jpg	99
2609.433	1.256	1255.6	observe	Run3	observe/STIM_008.jpg	99
2612.896	1.238	1238.2	observe	Run3	observe/STIM_008.jpg	100
2616.769	1.105	1105.2	observe	Run3	observe/STIM_009.jpg	99
2621.7	1.128	1128.5	observe	Run3	observe/STIM_009.jpg	100
2626.944	0.877	877.0	observe	Run3	observe/STIM_009.jpg	99
2631.023	1.116	1115.5	observe	Run3	observe/STIM_009.jpg	100
2634.288	0.862	862.3	observe	Run3	observe/STIM_010.jpg	100
2638.613	0.859	859.3	observe	Run3	observe/STIM_010.jpg	100
2642.85	1.118	1118.3	observe	Run3	observe/STIM_010.jpg	99
2647.471	1.062	1061.9	observe	Run3	observe/STIM_010.jpg	100
2651.468	1.121	1121.4	observe	Run3	observe/STIM_011.jpg	99
2655.008	0.881	880.7	observe	Run3	observe/STIM_011.jpg	100
2659.503	1.15	1150.5	observe	Run3	observe/STIM_011.jpg	99
2664.002	0.888	887.7	observe	Run3	observe/STIM_011.jpg	99
2667.145	1.059	1058.7	observe	Run3	observe/STIM_012.jpg	99
2670.885	1.326	1325.5	observe	Run3	observe/STIM_012.jpg	100
2675.992	0.978	978.3	observe	Run3	observe/STIM_012.jpg	100
2679.95	0.753	752.8	observe	Run3	observe/STIM_012.jpg	100
2683.727	1.346	1346.2	observe	Run3	observe/STIM_013.jpg	99
2689.034	0.929	928.7	observe	Run3	observe/STIM_013.jpg	99
2693.351	1.109	1109.2	observe	Run3	observe/STIM_013.jpg	99
2697.638	0.916	915.9	observe	Run3	observe/STIM_013.jpg	100
2701.41	1.412	1412.2	observe	Run3	observe/STIM_014.jpg	100
2706.012	1.254	1254.3	observe	Run3	observe/STIM_014.jpg	99
2709.475	0.936	936.5	observe	Run3	observe/STIM_014.jpg	100
2712.834	1.011	1010.7	observe	Run3	observe/STIM_014.jpg	99
2716.295	0.888	887.5	observe	Run3	observe/STIM_015.jpg	99
2720.734	1.163	1162.8	observe	Run3	observe/STIM_015.jpg	100
2724.878	1.33	1329.9	observe	Run3	observe/STIM_015.jpg	100
2729.523	0.799	799.1	observe	Run3	observe/STIM_015.jpg	99
2733.255	1.118	1117.9	observe	Run3	observe/STIM_016.jpg	99
2736.828	1.431	1431.3	observe	Run3	observe/STIM_016.jpg	99
2740.989	0.767	766.6	observe	Run3	observe/STIM_016.jpg	99
2745.438	0.863	862.9	observe	Run3	observe/STIM_016.jpg	100
2749.149	0.933	932.6	observe	Run3	observe/STIM_017.jpg	100
2752.724	1.175	1174.6	observe	Run3	observe/STIM_017.jpg	100
2756.552	1.238	1237.6	observe	Run3	observe/STIM_017.jpg	99
2761.433	1.36	1359.9	observe	Run3	observe/STIM_017.jpg	99
2766.644	1.051	1050.8	observe	Run3	observe/STIM_018.jpg	99
2769.968	0.848	847.5	observe	Run3	observe/STIM_018.jpg	100
2773.519	1.128	1128.1	observe	Run3	observe/STIM_018.jpg	100
2777.985	1.252	1251.5	observe	Run3	observe/STIM_018.jpg	99
2782.126	0.87	870.1	observe	Run3	observe/STIM_019.jpg	99
2786.41	1.136	1136.1	observe	Run3	observe/STIM_019.jpg	99
2791.25	1.222	1221.7	observe	Run3	observe/STIM_019.jpg	99
2794.683	1.199	1199.3	observe	Run3	observe/STIM_019.jpg	100
