onset	duration	accuracy	trial_type	learning_stage	stimulus
0.0	2.613	correct	regulate	Run1	regulate/STIM_000.jpg
5.938	1.723	correct	regulate	Run1	regulate/STIM_000.jpg
10.938	1.709	correct	regulate	Run1	regulate/STIM_000.jpg
15.252	2.847	correct	regulate	Run1	regulate/STIM_000.jpg
21.953	3.443	correct	regulate	Run1	regulate/STIM_001.jpg
28.095	2.617	correct	regulate	Run1	regulate/STIM_001.jpg
34.109	2.018	correct	regulate	Run1	regulate/STIM_001.jpg
39.441	2.941	correct	regulate	Run1	regulate/STIM_001.jpg
44.781	3.046	correct	regulate	Run1	regulate/STIM_002.jpg
50.37	3.246	correct	regulate	Run1	regulate/STIM_002.jpg
56.382	1.94	correct	regulate	Run1	regulate/STIM_002.jpg
62.065	1.925	correct	regulate	Run1	regulate/STIM_002.jpg
67.434	3.52	correct	regulate	Run1	regulate/STIM_003.jpg
73.188	1.636	incorrect	regulate	Run1	regulate/STIM_003.jpg
77.421	1.929	correct	regulate	Run1	regulate/STIM_003.jpg
83.006	2.005	correct	regulate	Run1	regulate/STIM_003.jpg
88.703	2.873	correct	regulate	Run1	regulate/STIM_004.jpg
94.97	2.442	correct	regulate	Run1	regulate/STIM_004.jpg
100.607	3.096	correct	regulate	Run1	regulate/STIM_004.jpg
106.19	1.974	correct	regulate	Run1	regulate/STIM_004.jpg
111.968	3.448	correct	regulate	Run1	regulate/STIM_005.jpg
118.745	1.716	correct	regulate	Run1	regulate/STIM_005.jpg
123.699	2.067	correct	regulate	Run1	regulate/STIM_005.jpg
128.367	2.721	correct	regulate	Run1	regulate/STIM_005.jpg
133.059	3.235	correct	regulate	Run1	regulate/STIM_006.jpg
138.593	1.75	correct	regulate	Run1	regulate/STIM_006.jpg
142.954	3.003	correct	regulate	Run1	regulate/STIM_006.jpg
148.651	2.203	correct	regulate	Run1	regulate/STIM_006.jpg
153.099	2.607	incorrect	regulate	Run1	regulate/STIM_007.jpg
158.036	2.363	correct	regulate	Run1	regulate/STIM_007.jpg
162.764	2.367	correct	regulate	Run1	regulate/STIM_007.jpg
167.13	1.363	correct	regulate	Run1	regulate/STIM_007.jpg
171.904	3.193	correct	regulate	Run1	regulate/STIM_008.jpg
177.41	3.302	incorrect	regulate	Run1	regulate/STIM_008.jpg
182.944	2.446	incorrect	regulate	Run1	regulate/STIM_008.jpg
188.758	1.337	correct	regulate	Run1	regulate/STIM_008.jpg
192.641	1.628	correct	regulate	Run1	regulate/STIM_009.jpg
198.065	2.456	incorrect	regulate	Run1	regulate/STIM_009.jpg
204.218	1.405	correct	regulate	Run1	regulate/STIM_009.jpg
208.594	2.596	correct	regulate	Run1	regulate/STIM_009.jpg
214.945	1.601	correct	regulate	Run1	regulate/STIM_010.jpg
219.639	2.745	correct	regulate	Run1	regulate/STIM_010.jpg
225.632	2.728	correct	regulate	Run1	regulate/STIM_010.jpg
231.35	1.983	incorrect	regulate	Run1	regulate/STIM_010.jpg
235.489	2.609	correct	regulate	Run1	regulate/STIM_011.jpg
241.655	2.495	incorrect	regulate	Run1	regulate/STIM_011.jpg
246.167	2.238	correct	regulate	Run1	regulate/STIM_011.jpg
251.336	1.993	correct	regulate	Run1	regulate/STIM_011.jpg
256.621	3.238	correct	regulate	Run1	regulate/STIM_012.jpg
263.291	2.642	incorrect	regulate	Run1	regulate/STIM_012.jpg
268.102	2.002	incorrect	regulate	Run1	regulate/STIM_012.jpg
273.615	1.503	incorrect	regulate	Run1	regulate/STIM_012.jpg
277.495	2.67	incorrect	regulate	Run1	regulate/STIM_013.jpg
283.262	1.873	correct	regulate	Run1	regulate/STIM_013.jpg
287.294	1.637	correct	regulate	Run1	regulate/STIM_013.jpg
291.275	1.337	incorrect	regulate	Run1	regulate/STIM_013.jpg
296.293	2.268	correct	regulate	Run1	regulate/STIM_014.jpg
300.975	2.137	incorrect	regulate	Run1	regulate/STIM_014.jpg
305.826	2.124	correct	regulate	Run1	regulate/STIM_014.jpg
311.494	2.479	incorrect	regulate	Run1	regulate/STIM_014.jpg
316.082	1.562	correct	regulate	Run1	regulate/STIM_015.jpg
321.01	1.601	correct	regulate	Run1	regulate/STIM_015.jpg
324.833	2.581	correct	regulate	Run1	regulate/STIM_015.jpg
331.322	1.325	incorrect	regulate	Run1	regulate/STIM_015.jpg
334.642	1.646	correct	regulate	Run1	regulate/STIM_016.jpg
338.669	3.145	incorrect	regulate	Run1	regulate/STIM_016.jpg
344.017	2.114	incorrect	regulate	Run1	regulate/STIM_016.jpg
349.735	1.771	correct	regulate	Run1	regulate/STIM_016.jpg
354.017	3.212	correct	regulate	Run1	regulate/STIM_017.jpg
360.221	3.29	correct	regulate	Run1	regulate/STIM_017.jpg
365.94	1.386	incorrect	regulate	Run1	regulate/STIM_017.jpg
371.047	1.903	correct	regulate	Run1	regulate/STIM_017.jpg
376.138	2.913	correct	regulate	Run1	regulate/STIM_018.jpg
382.9	2.226	incorrect	regulate	Run1	regulate/STIM_018.jpg
388.543	2.552	incorrect	regulate	Run1	regulate/STIM_018.jpg
393.539	1.56	incorrect	regulate	Run1	regulate/STIM_018.jpg
398.193	2.112	correct	regulate	Run1	regulate/STIM_019.jpg
403.945	1.973	correct	regulate	Run1	regulate/STIM_019.jpg
409.193	2.907	correct	regulate	Run1	regulate/STIM_019.jpg
414.738	2.556	correct	regulate	Run1	regulate/STIM_019.jpg
420.161	2.023	correct	regulate	Run1	regulate/STIM_020.jpg
424.739	2.083	correct	regulate	Run1	regulate/STIM_020.jpg
430.173	2.848	correct	regulate	Run1	regulate/STIM_020.jpg
436.886	2.824	correct	regulate	Run1	regulate/STIM_020.jpg
442.144	2.026	correct	regulate	Run1	regulate/STIM_021.jpg
447.68	1.556	correct	regulate	Run1	regulate/STIM_021.jpg
451.989	2.789	correct	regulate	Run1	regulate/STIM_021.jpg
457.016	1.691	correct	regulate	Run1	regulate/STIM_021.jpg
462.486	1.962	correct	regulate	Run1	regulate/STIM_022.jpg
467.251	1.495	correct	regulate	Run1	regulate/STIM_022.jpg
471.296	1.816	correct	regulate	Run1	regulate/STIM_022.jpg
476.281	1.309	correct	regulate	Run1	regulate/STIM_022.jpg
481.103	3.09	correct	regulate	Run1	regulate/STIM_023.jpg
487.655	2.906	correct	regulate	Run1	regulate/STIM_023.jpg
493.639	1.409	correct	regulate	Run1	regulate/STIM_023.jpg
497.423	2.211	correct	regulate	Run1	regulate/STIM_023.jpg
501.749	1.837	correct	regulate	Run1	regulate/STIM_024.jpg
507.369	2.326	incorrect	regulate	Run1	regulate/STIM_024.jpg
513.307	2.767	correct	regulate	Run1	regulate/STIM_024.jpg
518.266	2.359	incorrect	regulate	Run1	regulate/STIM_024.jpg
522.983	3.143	correct	regulate	Run1	regulate/STIM_025.jpg
529.202	1.766	incorrect	regulate	Run1	regulate/STIM_025.jpg
533.704	2.939	correct	regulate	Run1	regulate/STIM_025.jpg
538.737	2.086	correct	regulate	Run1	regulate/STIM_025.jpg
543.738	3.14	correct	regulate	Run1	regulate/STIM_026.jpg
549.711	2.09	correct	regulate	Run1	regulate/STIM_026.jpg
554.981	2.875	incorrect	regulate	Run1	regulate/STIM_026.jpg
561.005	2.257	correct	regulate	Run1	regulate/STIM_026.jpg
565.871	1.724	correct	regulate	Run1	regulate/STIM_027.jpg
571.027	2.167	correct	regulate	Run1	regulate/STIM_027.jpg
576.129	2.347	incorrect	regulate	Run1	regulate/STIM_027.jpg
581.432	2.46	correct	regulate	Run1	regulate/STIM_027.jpg
587.038	2.652	correct	regulate	Run1	regulate/STIM_028.jpg
592.907	2.147	correct	regulate	Run1	regulate/STIM_028.jpg
598.384	2.91	correct	regulate	Run1	regulate/STIM_028.jpg
605.087	1.941	correct	regulate	Run1	regulate/STIM_028.jpg
609.624	2.03	correct	regulate	Run1	regulate/STIM_029.jpg
613.704	2.776	correct	regulate	Run1	regulate/STIM_029.jpg
619.833	1.883	correct	regulate	Run1	regulate/STIM_029.jpg
623.727	1.341	incorrect	regulate	Run1	regulate/STIM_029.jpg
628.93	1.367	correct	observe	Run1	observe/STIM_000.jpg
632.59	1.48	correct	observe	Run1	observe/STIM_000.jpg
636.666	0.902	correct	observe	Run1	observe/STIM_000.jpg
641.556	1.394	correct	observe	Run1	observe/STIM_000.jpg
645.868	1.368	correct	observe	Run1	observe/STIM_001.jpg
650.462	1.0	incorrect	observe	Run1	observe/STIM_001.jpg
653.591	0.832	correct	observe	Run1	observe/STIM_001.jpg
657.958	1.566	incorrect	observe	Run1	observe/STIM_001.jpg
662.156	1.168	correct	observe	Run1	observe/STIM_002.jpg
666.709	1.534	correct	observe	Run1	observe/STIM_002.jpg
671.923	1.032	correct	observe	Run1	observe/STIM_002.jpg
676.059	1.227	correct	observe	Run1	observe/STIM_002.jpg
680.884	1.245	correct	observe	Run1	observe/STIM_003.jpg
684.967	1.243	correct	observe	Run1	observe/STIM_003.jpg
688.272	1.517	correct	observe	Run1	observe/STIM_003.jpg
693.039	1.329	correct	observe	Run1	observe/STIM_003.jpg
696.986	0.843	incorrect	observe	Run1	observe/STIM_004.jpg
700.041	1.453	correct	observe	Run1	observe/STIM_004.jpg
705.072	1.032	correct	observe	Run1	observe/STIM_004.jpg
708.469	1.056	correct	observe	Run1	observe/STIM_004.jpg
713.413	1.066	correct	observe	Run1	observe/STIM_005.jpg
717.994	1.27	correct	observe	Run1	observe/STIM_005.jpg
722.308	1.014	correct	observe	Run1	observe/STIM_005.jpg
726.445	0.87	correct	observe	Run1	observe/STIM_005.jpg
729.616	1.152	correct	observe	Run1	observe/STIM_006.jpg
734.025	1.296	correct	observe	Run1	observe/STIM_006.jpg
738.117	1.225	correct	observe	Run1	observe/STIM_006.jpg
742.396	1.518	correct	observe	Run1	observe/STIM_006.jpg
746.677	1.214	correct	observe	Run1	observe/STIM_007.jpg
751.773	1.255	correct	observe	Run1	observe/STIM_007.jpg
756.592	0.908	correct	observe	Run1	observe/STIM_007.jpg
761.23	1.247	correct	observe	Run1	observe/STIM_007.jpg
765.733	1.203	correct	observe	Run1	observe/STIM_008.jpg
770.69	1.459	correct	observe	Run1	observe/STIM_008.jpg
776.121	1.482	incorrect	observe	Run1	observe/STIM_008.jpg
781.563	1.473	correct	observe	Run1	observe/STIM_008.jpg
785.045	1.38	correct	observe	Run1	observe/STIM_009.jpg
788.479	0.943	correct	observe	Run1	observe/STIM_009.jpg
792.924	0.856	correct	observe	Run1	observe/STIM_009.jpg
797.15	1.061	correct	observe	Run1	observe/STIM_009.jpg
801.078	1.338	correct	observe	Run1	observe/STIM_010.jpg
806.038	1.606	correct	observe	Run1	observe/STIM_010.jpg
810.928	1.098	correct	observe	Run1	observe/STIM_010.jpg
815.872	1.166	correct	observe	Run1	observe/STIM_010.jpg
819.202	1.342	correct	observe	Run1	observe/STIM_011.jpg
823.778	0.948	correct	observe	Run1	observe/STIM_011.jpg
826.796	1.114	correct	observe	Run1	observe/STIM_011.jpg
831.359	1.257	correct	observe	Run1	observe/STIM_011.jpg
834.837	1.591	correct	observe	Run1	observe/STIM_012.jpg
838.822	1.469	correct	observe	Run1	observe/STIM_012.jpg
842.833	1.139	correct	observe	Run1	observe/STIM_012.jpg
846.415	1.009	correct	observe	Run1	observe/STIM_012.jpg
850.494	1.379	correct	observe	Run1	observe/STIM_013.jpg
854.466	0.939	correct	observe	Run1	observe/STIM_013.jpg
858.729	1.433	correct	observe	Run1	observe/STIM_013.jpg
863.369	1.336	correct	observe	Run1	observe/STIM_013.jpg
867.167	1.104	correct	observe	Run1	observe/STIM_014.jpg
871.192	1.398	correct	observe	Run1	observe/STIM_014.jpg
876.439	1.621	correct	observe	Run1	observe/STIM_014.jpg
881.455	1.434	correct	observe	Run1	observe/STIM_014.jpg
885.964	1.425	correct	observe	Run1	observe/STIM_015.jpg
890.416	1.2	correct	observe	Run1	observe/STIM_015.jpg
893.766	1.086	correct	observe	Run1	observe/STIM_015.jpg
897.468	1.593	correct	observe	Run1	observe/STIM_015.jpg
902.151	1.343	correct	observe	Run1	observe/STIM_016.jpg
906.574	1.205	correct	observe	Run1	observe/STIM_016.jpg
911.046	1.414	correct	observe	Run1	observe/STIM_016.jpg
916.13	1.218	correct	observe	Run1	observe/STIM_016.jpg
920.593	0.932	correct	observe	Run1	observe/STIM_017.jpg
923.62	1.608	correct	observe	Run1	observe/STIM_017.jpg
928.052	1.229	correct	observe	Run1	observe/STIM_017.jpg
931.963	1.577	incorrect	observe	Run1	observe/STIM_017.jpg
936.381	1.396	correct	observe	Run1	observe/STIM_018.jpg
941.17	1.217	correct	observe	Run1	observe/STIM_018.jpg
945.503	1.613	correct	observe	Run1	observe/STIM_018.jpg
950.126	1.449	correct	observe	Run1	observe/STIM_018.jpg
954.245	1.525	correct	observe	Run1	observe/STIM_019.jpg
958.744	1.234	correct	observe	Run1	observe/STIM_019.jpg
963.404	0.948	correct	observe	Run1	observe/STIM_019.jpg
968.228	1.182	correct	observe	Run1	observe/STIM_019.jpg
973.22	2.7	correct	regulate	Run2	regulate/STIM_000.jpg
979.364	2.79	correct	regulate	Run2	regulate/STIM_000.jpg
984.489	1.959	correct	regulate	Run2	regulate/STIM_000.jpg
989.593	2.023	correct	regulate	Run2	regulate/STIM_000.jpg
994.3	1.792	correct	regulate	Run2	regulate/STIM_001.jpg
998.076	2.834	correct	regulate	Run2	regulate/STIM_001.jpg
1003.824	2.551	correct	regulate	Run2	regulate/STIM_001.jpg
1009.041	1.532	correct	regulate	Run2	regulate/STIM_001.jpg
1013.851	1.882	correct	regulate	Run2	regulate/STIM_002.jpg
1019.399	1.285	correct	regulate	Run2	regulate/STIM_002.jpg
1024.291	2.278	correct	regulate	Run2	regulate/STIM_002.jpg
1030.533	1.526	incorrect	regulate	Run2	regulate/STIM_002.jpg
1034.887	2.775	correct	regulate	Run2	regulate/STIM_003.jpg
1041.307	1.882	correct	regulate	Run2	regulate/STIM_003.jpg
1045.931	1.583	correct	regulate	Run2	regulate/STIM_003.jpg
1050.095	1.298	correct	regulate	Run2	regulate/STIM_003.jpg
1053.598	2.22	incorrect	regulate	Run2	regulate/STIM_004.jpg
1058.758	1.749	correct	regulate	Run2	regulate/STIM_004.jpg
1064.43	2.002	correct	regulate	Run2	regulate/STIM_004.jpg
1068.988	1.473	correct	regulate	Run2	regulate/STIM_004.jpg
1072.651	2.577	correct	regulate	Run2	regulate/STIM_005.jpg
1078.325	1.389	correct	regulate	Run2	regulate/STIM_005.jpg
1082.575	1.623	correct	regulate	Run2	regulate/STIM_005.jpg
1086.86	2.338	correct	regulate	Run2	regulate/STIM_005.jpg
1092.31	2.592	correct	regulate	Run2	regulate/STIM_006.jpg
1097.08	2.123	correct	regulate	Run2	regulate/STIM_006.jpg
1102.268	1.842	incorrect	regulate	Run2	regulate/STIM_006.jpg
1106.34	1.132	incorrect	regulate	Run2	regulate/STIM_006.jpg
1110.586	1.311	incorrect	regulate	Run2	regulate/STIM_007.jpg
1113.961	2.602	correct	regulate	Run2	regulate/STIM_007.jpg
1119.604	1.54	correct	regulate	Run2	regulate/STIM_007.jpg
1124.07	1.352	correct	regulate	Run2	regulate/STIM_007.jpg
1128.94	1.589	correct	regulate	Run2	regulate/STIM_008.jpg
1134.022	2.328	correct	regulate	Run2	regulate/STIM_008.jpg
1138.559	2.526	incorrect	regulate	Run2	regulate/STIM_008.jpg
1144.48	1.645	correct	regulate	Run2	regulate/STIM_008.jpg
1149.654	1.874	correct	regulate	Run2	regulate/STIM_009.jpg
1153.99	2.117	correct	regulate	Run2	regulate/STIM_009.jpg
1158.156	1.468	correct	regulate	Run2	regulate/STIM_009.jpg
1163.41	1.742	correct	regulate	Run2	regulate/STIM_009.jpg
1167.778	1.696	correct	regulate	Run2	regulate/STIM_010.jpg
1171.915	2.118	correct	regulate	Run2	regulate/STIM_010.jpg
1176.983	2.26	correct	regulate	Run2	regulate/STIM_010.jpg
1182.14	1.808	correct	regulate	Run2	regulate/STIM_010.jpg
1185.963	1.354	correct	regulate	Run2	regulate/STIM_011.jpg
1190.992	1.442	correct	regulate	Run2	regulate/STIM_011.jpg
1195.267	1.276	correct	regulate	Run2	regulate/STIM_011.jpg
1199.286	1.358	correct	regulate	Run2	regulate/STIM_011.jpg
1202.88	2.862	correct	regulate	Run2	regulate/STIM_012.jpg
1208.758	1.934	incorrect	regulate	Run2	regulate/STIM_012.jpg
1213.419	1.554	incorrect	regulate	Run2	regulate/STIM_012.jpg
1217.251	2.13	correct	regulate	Run2	regulate/STIM_012.jpg
1223.124	2.344	correct	regulate	Run2	regulate/STIM_013.jpg
1228.219	1.431	correct	regulate	Run2	regulate/STIM_013.jpg
1231.661	2.374	correct	regulate	Run2	regulate/STIM_013.jpg
1237.466	1.165	correct	regulate	Run2	regulate/STIM_013.jpg
1240.923	2.475	correct	regulate	Run2	regulate/STIM_014.jpg
1246.792	2.126	correct	regulate	Run2	regulate/STIM_014.jpg
1251.017	1.966	correct	regulate	Run2	regulate/STIM_014.jpg
1256.372	2.382	correct	regulate	Run2	regulate/STIM_014.jpg
1262.692	2.422	correct	regulate	Run2	regulate/STIM_015.jpg
1268.577	2.466	correct	regulate	Run2	regulate/STIM_015.jpg
1274.566	2.652	correct	regulate	Run2	regulate/STIM_015.jpg
1280.33	1.198	correct	regulate	Run2	regulate/STIM_015.jpg
1285.073	2.262	incorrect	regulate	Run2	regulate/STIM_016.jpg
1290.802	2.203	correct	regulate	Run2	regulate/STIM_016.jpg
1295.601	1.251	correct	regulate	Run2	regulate/STIM_016.jpg
1298.887	1.862	correct	regulate	Run2	regulate/STIM_016.jpg
1304.356	2.229	incorrect	regulate	Run2	regulate/STIM_017.jpg
1309.948	2.684	correct	regulate	Run2	regulate/STIM_017.jpg
1315.9	2.635	correct	regulate	Run2	regulate/STIM_017.jpg
1321.387	1.317	correct	regulate	Run2	regulate/STIM_017.jpg
1325.829	2.052	correct	regulate	Run2	regulate/STIM_018.jpg
1330.103	1.544	correct	regulate	Run2	regulate/STIM_018.jpg
1334.267	1.457	incorrect	regulate	Run2	regulate/STIM_018.jpg
1337.84	2.311	correct	regulate	Run2	regulate/STIM_018.jpg
1343.928	2.07	incorrect	regulate	Run2	regulate/STIM_019.jpg
1349.155	1.364	correct	regulate	Run2	regulate/STIM_019.jpg
1354.218	2.075	correct	regulate	Run2	regulate/STIM_019.jpg
1358.313	1.565	correct	regulate	Run2	regulate/STIM_019.jpg
1363.773	2.951	correct	regulate	Run2	regulate/STIM_020.jpg
1370.301	2.313	correct	regulate	Run2	regulate/STIM_020.jpg
1376.312	2.611	correct	regulate	Run2	regulate/STIM_020.jpg
1382.62	1.502	correct	regulate	Run2	regulate/STIM_020.jpg
1386.911	1.896	correct	regulate	Run2	regulate/STIM_021.jpg
1390.817	1.568	correct	regulate	Run2	regulate/STIM_021.jpg
1395.757	2.441	correct	regulate	Run2	regulate/STIM_021.jpg
1400.301	1.855	correct	regulate	Run2	regulate/STIM_021.jpg
1404.9	1.746	correct	regulate	Run2	regulate/STIM_022.jpg
1410.256	2.09	correct	regulate	Run2	regulate/STIM_022.jpg
1415.543	1.171	correct	regulate	Run2	regulate/STIM_022.jpg
1420.285	1.302	correct	regulate	Run2	regulate/STIM_022.jpg
1425.017	1.544	correct	regulate	Run2	regulate/STIM_023.jpg
1429.918	1.793	correct	regulate	Run2	regulate/STIM_023.jpg
1435.615	1.615	correct	regulate	Run2	regulate/STIM_023.jpg
1439.481	1.194	correct	regulate	Run2	regulate/STIM_023.jpg
1443.014	1.495	correct	regulate	Run2	regulate/STIM_024.jpg
1447.052	2.066	correct	regulate	Run2	regulate/STIM_024.jpg
1451.938	2.338	correct	regulate	Run2	regulate/STIM_024.jpg
1458.238	1.851	correct	regulate	Run2	regulate/STIM_024.jpg
1463.865	2.622	correct	regulate	Run2	regulate/STIM_025.jpg
1469.659	1.75	correct	regulate	Run2	regulate/STIM_025.jpg
1474.197	1.693	correct	regulate	Run2	regulate/STIM_025.jpg
1478.489	1.678	correct	regulate	Run2	regulate/STIM_025.jpg
1482.748	2.353	correct	regulate	Run2	regulate/STIM_026.jpg
1488.191	2.626	correct	regulate	Run2	regulate/STIM_026.jpg
1493.912	2.145	correct	regulate	Run2	regulate/STIM_026.jpg
1499.843	1.199	correct	regulate	Run2	regulate/STIM_026.jpg
1503.398	1.495	correct	regulate	Run2	regulate/STIM_027.jpg
1507.295	1.752	correct	regulate	Run2	regulate/STIM_027.jpg
1512.769	1.914	correct	regulate	Run2	regulate/STIM_027.jpg
1517.402	2.184	correct	regulate	Run2	regulate/STIM_027.jpg
1523.477	1.965	correct	regulate	Run2	regulate/STIM_028.jpg
1527.427	2.177	incorrect	regulate	Run2	regulate/STIM_028.jpg
1531.63	2.454	correct	regulate	Run2	regulate/STIM_028.jpg
1537.369	2.034	correct	regulate	Run2	regulate/STIM_028.jpg
1542.679	1.389	correct	regulate	Run2	regulate/STIM_029.jpg
1546.667	1.712	correct	regulate	Run2	regulate/STIM_029.jpg
1551.154	2.522	correct	regulate	Run2	regulate/STIM_029.jpg
1557.389	2.245	correct	regulate	Run2	regulate/STIM_029.jpg
1562.771	1.105	correct	observe	Run2	observe/STIM_000.jpg
1566.818	1.556	correct	observe	Run2	observe/STIM_000.jpg
1572.324	1.39	correct	observe	Run2	observe/STIM_000.jpg
1576.11	1.241	incorrect	observe	Run2	observe/STIM_000.jpg
1581.04	1.547	correct	observe	Run2	observe/STIM_001.jpg
1585.688	0.917	correct	observe	Run2	observe/STIM_001.jpg
1590.073	0.881	correct	observe	Run2	observe/STIM_001.jpg
1594.871	1.478	correct	observe	Run2	observe/STIM_001.jpg
1599.217	0.869	correct	observe	Run2	observe/STIM_002.jpg
1602.183	1.073	correct	observe	Run2	observe/STIM_002.jpg
1605.739	1.302	correct	observe	Run2	observe/STIM_002.jpg
1610.782	1.041	correct	observe	Run2	observe/STIM_002.jpg
1614.916	1.004	correct	observe	Run2	observe/STIM_003.jpg
1619.448	1.113	incorrect	observe	Run2	observe/STIM_003.jpg
1624.191	1.114	correct	observe	Run2	observe/STIM_003.jpg
1628.697	1.456	correct	observe	Run2	observe/STIM_003.jpg
1633.555	1.556	correct	observe	Run2	observe/STIM_004.jpg
1638.563	0.935	correct	observe	Run2	observe/STIM_004.jpg
1642.382	1.046	correct	observe	Run2	observe/STIM_004.jpg
1646.979	0.825	correct	observe	Run2	observe/STIM_004.jpg
1649.97	1.489	correct	observe	Run2	observe/STIM_005.jpg
1654.298	1.165	correct	observe	Run2	observe/STIM_005.jpg
1659.074	1.002	correct	observe	Run2	observe/STIM_005.jpg
1662.459	0.814	correct	observe	Run2	observe/STIM_005.jpg
1665.306	0.872	correct	observe	Run2	observe/STIM_006.jpg
1669.319	1.62	incorrect	observe	Run2	observe/STIM_006.jpg
1673.182	0.926	correct	observe	Run2	observe/STIM_006.jpg
1676.183	1.091	correct	observe	Run2	observe/STIM_006.jpg
1680.005	1.024	correct	observe	Run2	observe/STIM_007.jpg
1684.691	1.213	correct	observe	Run2	observe/STIM_007.jpg
1689.364	1.381	correct	observe	Run2	observe/STIM_007.jpg
1694.575	1.536	correct	observe	Run2	observe/STIM_007.jpg
1698.145	1.173	incorrect	observe	Run2	observe/STIM_008.jpg
1701.31	1.419	correct	observe	Run2	observe/STIM_008.jpg
1704.847	0.851	correct	observe	Run2	observe/STIM_008.jpg
1709.641	0.892	incorrect	observe	Run2	observe/STIM_008.jpg
1712.632	1.143	correct	observe	Run2	observe/STIM_009.jpg
1715.876	1.087	correct	observe	Run2	observe/STIM_009.jpg
1719.216	1.346	correct	observe	Run2	observe/STIM_009.jpg
1723.909	1.466	correct	observe	Run2	observe/STIM_009.jpg
1727.967	1.26	correct	observe	Run2	observe/STIM_010.jpg
1732.269	0.893	correct	observe	Run2	observe/STIM_010.jpg
1736.615	1.351	correct	observe	Run2	observe/STIM_010.jpg
1741.763	0.917	correct	observe	Run2	observe/STIM_010.jpg
1746.645	1.343	correct	observe	Run2	observe/STIM_011.jpg
1750.167	1.035	correct	observe	Run2	observe/STIM_011.jpg
1753.765	0.898	incorrect	observe	Run2	observe/STIM_011.jpg
1757.217	0.858	correct	observe	Run2	observe/STIM_011.jpg
1761.614	1.603	correct	observe	Run2	observe/STIM_012.jpg
1765.523	1.488	incorrect	observe	Run2	observe/STIM_012.jpg
1769.608	1.296	correct	observe	Run2	observe/STIM_012.jpg
1772.941	1.33	correct	observe	Run2	observe/STIM_012.jpg
1777.221	0.85	correct	observe	Run2	observe/STIM_013.jpg
1781.385	1.031	incorrect	observe	Run2	observe/STIM_013.jpg
1785.6	0.939	correct	observe	Run2	observe/STIM_013.jpg
1790.523	1.072	correct	observe	Run2	observe/STIM_013.jpg
1794.256	0.97	correct	observe	Run2	observe/STIM_014.jpg
1798.882	1.621	correct	observe	Run2	observe/STIM_014.jpg
1803.813	1.456	correct	observe	Run2	observe/STIM_014.jpg
1808.911	1.369	correct	observe	Run2	observe/STIM_014.jpg
1812.472	0.877	correct	observe	Run2	observe/STIM_015.jpg
1816.814	1.222	correct	observe	Run2	observe/STIM_015.jpg
1821.425	0.878	correct	observe	Run2	observe/STIM_015.jpg
1825.164	1.394	correct	observe	Run2	observe/STIM_015.jpg
1829.703	1.302	correct	observe	Run2	observe/STIM_016.jpg
1834.921	1.212	correct	observe	Run2	observe/STIM_016.jpg
1838.283	1.448	correct	observe	Run2	observe/STIM_016.jpg
1842.737	1.077	correct	observe	Run2	observe/STIM_016.jpg
1847.648	1.103	correct	observe	Run2	observe/STIM_017.jpg
1850.956	1.597	correct	observe	Run2	observe/STIM_017.jpg
1854.64	0.919	correct	observe	Run2	observe/STIM_017.jpg
1859.09	1.356	correct	observe	Run2	observe/STIM_017.jpg
1862.586	0.958	correct	observe	Run2	observe/STIM_018.jpg
1865.978	1.281	correct	observe	Run2	observe/STIM_018.jpg
1869.947	1.039	correct	observe	Run2	observe/STIM_018.jpg
1874.633	0.858	correct	observe	Run2	observe/STIM_018.jpg
1878.515	1.516	correct	observe	Run2	observe/STIM_019.jpg
1882.811	1.082	correct	observe	Run2	observe/STIM_019.jpg
1886.324	0.925	correct	observe	Run2	observe/STIM_019.jpg
1889.643	1.037	incorrect	observe	Run2	observe/STIM_019.jpg
1893.241	1.334	correct	regulate	Run3	regulate/STIM_000.jpg
1897.856	2.127	correct	regulate	Run3	regulate/STIM_000.jpg
1902.744	1.11	correct	regulate	Run3	regulate/STIM_000.jpg
1906.404	2.231	correct	regulate	Run3	regulate/STIM_000.jpg
1912.329	2.164	correct	regulate	Run3	regulate/STIM_001.jpg
1917.358	2.136	correct	regulate	Run3	regulate/STIM_001.jpg
1922.272	1.443	correct	regulate	Run3	regulate/STIM_001.jpg
1927.249	2.3	correct	regulate	Run3	regulate/STIM_001.jpg
1933.41	2.333	correct	regulate	Run3	regulate/STIM_002.jpg
1938.878	1.951	correct	regulate	Run3	regulate/STIM_002.jpg
1944.679	1.312	correct	regulate	Run3	regulate/STIM_002.jpg
1948.617	1.238	correct	regulate	Run3	regulate/STIM_002.jpg
1952.519	1.891	correct	regulate	Run3	regulate/STIM_003.jpg
1956.914	2.028	correct	regulate	Run3	regulate/STIM_003.jpg
1961.932	1.326	correct	regulate	Run3	regulate/STIM_003.jpg
1966.563	2.058	correct	regulate	Run3	regulate/STIM_003.jpg
1972.285	1.97	correct	regulate	Run3	regulate/STIM_004.jpg
1976.354	1.549	correct	regulate	Run3	regulate/STIM_004.jpg
1981.791	1.326	correct	regulate	Run3	regulate/STIM_004.jpg
1986.958	1.374	correct	regulate	Run3	regulate/STIM_004.jpg
1991.711	2.222	correct	regulate	Run3	regulate/STIM_005.jpg
1997.899	1.754	correct	regulate	Run3	regulate/STIM_005.jpg
2002.44	2.369	correct	regulate	Run3	regulate/STIM_005.jpg
2007.937	1.758	correct	regulate	Run3	regulate/STIM_005.jpg
2013.038	1.776	correct	regulate	Run3	regulate/STIM_006.jpg
2018.569	1.331	incorrect	regulate	Run3	regulate/STIM_006.jpg
2023.834	1.508	correct	regulate	Run3	regulate/STIM_006.jpg
2028.983	1.735	correct	regulate	Run3	regulate/STIM_006.jpg
2033.142	1.75	correct	regulate	Run3	regulate/STIM_007.jpg
2037.68	1.92	correct	regulate	Run3	regulate/STIM_007.jpg
2041.762	1.961	correct	regulate	Run3	regulate/STIM_007.jpg
2046.258	1.779	correct	regulate	Run3	regulate/STIM_007.jpg
2050.312	1.782	correct	regulate	Run3	regulate/STIM_008.jpg
2054.923	1.958	correct	regulate	Run3	regulate/STIM_008.jpg
2060.264	2.289	correct	regulate	Run3	regulate/STIM_008.jpg
2064.523	1.442	correct	regulate	Run3	regulate/STIM_008.jpg
2069.397	1.312	correct	regulate	Run3	regulate/STIM_009.jpg
2073.949	1.302	incorrect	regulate	Run3	regulate/STIM_009.jpg
2077.524	1.554	correct	regulate	Run3	regulate/STIM_009.jpg
2082.951	1.848	correct	regulate	Run3	regulate/STIM_009.jpg
2087.94	2.213	correct	regulate	Run3	regulate/STIM_010.jpg
2093.002	1.779	correct	regulate	Run3	regulate/STIM_010.jpg
2096.998	2.416	correct	regulate	Run3	regulate/STIM_010.jpg
2103.197	2.111	correct	regulate	Run3	regulate/STIM_010.jpg
2109.202	1.242	correct	regulate	Run3	regulate/STIM_011.jpg
2114.23	1.242	correct	regulate	Run3	regulate/STIM_011.jpg
2119.138	1.988	correct	regulate	Run3	regulate/STIM_011.jpg
2123.314	1.213	correct	regulate	Run3	regulate/STIM_011.jpg
2128.489	2.258	correct	regulate	Run3	regulate/STIM_012.jpg
2132.743	1.632	incorrect	regulate	Run3	regulate/STIM_012.jpg
2136.639	1.645	correct	regulate	Run3	regulate/STIM_012.jpg
2141.082	1.081	correct	regulate	Run3	regulate/STIM_012.jpg
2146.012	1.874	correct	regulate	Run3	regulate/STIM_013.jpg
2151.599	2.282	incorrect	regulate	Run3	regulate/STIM_013.jpg
2157.805	2.278	correct	regulate	Run3	regulate/STIM_013.jpg
2163.732	1.844	correct	regulate	Run3	regulate/STIM_013.jpg
2167.875	1.39	correct	regulate	Run3	regulate/STIM_014.jpg
2172.954	1.756	correct	regulate	Run3	regulate/STIM_014.jpg
2177.102	2.091	correct	regulate	Run3	regulate/STIM_014.jpg
2182.152	2.302	correct	regulate	Run3	regulate/STIM_014.jpg
2187.102	1.94	correct	regulate	Run3	regulate/STIM_015.jpg
2192.241	1.513	correct	regulate	Run3	regulate/STIM_015.jpg
2196.987	1.303	correct	regulate	Run3	regulate/STIM_015.jpg
2200.357	1.261	correct	regulate	Run3	regulate/STIM_015.jpg
2204.415	2.149	correct	regulate	Run3	regulate/STIM_016.jpg
2208.927	1.314	correct	regulate	Run3	regulate/STIM_016.jpg
2213.936	1.359	correct	regulate	Run3	regulate/STIM_016.jpg
2218.246	2.187	correct	regulate	Run3	regulate/STIM_016.jpg
2223.272	2.159	correct	regulate	Run3	regulate/STIM_017.jpg
2228.667	1.135	correct	regulate	Run3	regulate/STIM_017.jpg
2232.354	2.446	correct	regulate	Run3	regulate/STIM_017.jpg
2237.987	1.308	correct	regulate	Run3	regulate/STIM_017.jpg
2242.282	1.435	correct	regulate	Run3	regulate/STIM_018.jpg
2246.467	2.087	correct	regulate	Run3	regulate/STIM_018.jpg
2251.389	2.342	correct	regulate	Run3	regulate/STIM_018.jpg
2256.529	1.389	correct	regulate	Run3	regulate/STIM_018.jpg
2261.182	1.97	correct	regulate	Run3	regulate/STIM_019.jpg
2266.252	1.08	correct	regulate	Run3	regulate/STIM_019.jpg
2270.186	2.171	correct	regulate	Run3	regulate/STIM_019.jpg
2275.701	2.244	incorrect	regulate	Run3	regulate/STIM_019.jpg
2281.265	1.556	correct	regulate	Run3	regulate/STIM_020.jpg
2285.464	1.526	correct	regulate	Run3	regulate/STIM_020.jpg
2290.592	2.218	correct	regulate	Run3	regulate/STIM_020.jpg
2295.011	2.358	correct	regulate	Run3	regulate/STIM_020.jpg
2300.982	1.276	correct	regulate	Run3	regulate/STIM_021.jpg
2304.487	2.251	correct	regulate	Run3	regulate/STIM_021.jpg
2309.696	2.138	correct	regulate	Run3	regulate/STIM_021.jpg
2314.06	2.096	correct	regulate	Run3	regulate/STIM_021.jpg
2318.87	2.069	correct	regulate	Run3	regulate/STIM_022.jpg
2324.18	1.231	correct	regulate	Run3	regulate/STIM_022.jpg
2328.879	2.398	correct	regulate	Run3	regulate/STIM_022.jpg
2334.043	2.023	correct	regulate	Run3	regulate/STIM_022.jpg
2338.143	1.569	correct	regulate	Run3	regulate/STIM_023.jpg
2342.651	2.265	correct	regulate	Run3	regulate/STIM_023.jpg
2348.214	1.787	correct	regulate	Run3	regulate/STIM_023.jpg
2353.668	1.73	correct	regulate	Run3	regulate/STIM_023.jpg
2358.96	1.596	correct	regulate	Run3	regulate/STIM_024.jpg
2363.853	1.834	correct	regulate	Run3	regulate/STIM_024.jpg
2367.845	1.286	correct	regulate	Run3	regulate/STIM_024.jpg
2371.496	1.626	correct	regulate	Run3	regulate/STIM_024.jpg
2375.577	2.294	correct	regulate	Run3	regulate/STIM_025.jpg
2380.137	1.668	incorrect	regulate	Run3	regulate/STIM_025.jpg
2384.289	1.807	correct	regulate	Run3	regulate/STIM_025.jpg
2388.395	1.709	correct	regulate	Run3	regulate/STIM_025.jpg
2393.921	2.318	correct	regulate	Run3	regulate/STIM_026.jpg
2398.214	2.274	correct	regulate	Run3	regulate/STIM_026.jpg
2402.787	2.325	correct	regulate	Run3	regulate/STIM_026.jpg
2407.091	2.484	correct	regulate	Run3	regulate/STIM_026.jpg
2412.746	2.003	correct	regulate	Run3	regulate/STIM_027.jpg
2417.864	1.667	correct	regulate	Run3	regulate/STIM_027.jpg
2421.997	2.315	correct	regulate	Run3	regulate/STIM_027.jpg
2427.72	2.385	correct	regulate	Run3	regulate/STIM_027.jpg
2433.696	2.401	correct	regulate	Run3	regulate/STIM_028.jpg
2440.007	1.758	correct	regulate	Run3	regulate/STIM_028.jpg
2444.257	2.036	correct	regulate	Run3	regulate/STIM_028.jpg
2449.214	1.754	correct	regulate	Run3	regulate/STIM_028.jpg
2453.486	1.485	correct	regulate	Run3	regulate/STIM_029.jpg
2457.223	1.417	correct	regulate	Run3	regulate/STIM_029.jpg
2460.79	1.659	correct	regulate	Run3	regulate/STIM_029.jpg
2465.724	1.146	correct	regulate	Run3	regulate/STIM_029.jpg
2469.877	1.483	correct	observe	Run3	observe/STIM_000.jpg
2473.522	1.184	correct	observe	Run3	observe/STIM_000.jpg
2477.276	1.528	correct	observe	Run3	observe/STIM_000.jpg
2481.547	0.838	correct	observe	Run3	observe/STIM_000.jpg
2485.06	1.23	correct	observe	Run3	observe/STIM_001.jpg
2488.862	1.368	correct	observe	Run3	observe/STIM_001.jpg
2493.091	1.47	incorrect	observe	Run3	observe/STIM_001.jpg
2496.563	1.44	correct	observe	Run3	observe/STIM_001.jpg
2500.591	1.073	correct	observe	Run3	observe/STIM_002.jpg
2505.644	0.813	correct	observe	Run3	observe/STIM_002.jpg
2508.631	1.021	correct	observe	Run3	observe/STIM_002.jpg
2511.712	1.24	correct	observe	Run3	observe/STIM_002.jpg
2515.265	1.509	correct	observe	Run3	observe/STIM_003.jpg
2519.51	0.946	incorrect	observe	Run3	observe/STIM_003.jpg
2522.558	1.139	correct	observe	Run3	observe/STIM_003.jpg
2526.802	1.412	correct	observe	Run3	observe/STIM_003.jpg
2530.534	1.092	correct	observe	Run3	observe/STIM_004.jpg
2534.173	1.129	correct	observe	Run3	observe/STIM_004.jpg
2539.062	1.447	correct	observe	Run3	observe/STIM_004.jpg
2543.597	0.95	correct	observe	Run3	observe/STIM_004.jpg
2547.855	0.925	correct	observe	Run3	observe/STIM_005.jpg
2551.776	1.288	correct	observe	Run3	observe/STIM_005.jpg
2556.376	1.303	correct	observe	Run3	observe/STIM_005.jpg
2560.272	1.026	correct	observe	Run3	observe/STIM_005.jpg
2563.813	1.333	correct	observe	Run3	observe/STIM_006.jpg
2568.003	1.401	correct	observe	Run3	observe/STIM_006.jpg
2572.723	0.933	incorrect	observe	Run3	observe/STIM_006.jpg
2577.465	1.615	correct	observe	Run3	observe/STIM_006.jpg
2581.157	1.27	correct	observe	Run3	observe/STIM_007.jpg
2585.51	1.09	correct	observe	Run3	observe/STIM_007.jpg
2589.349	1.547	correct	observe	Run3	observe/STIM_007.jpg
2593.775	1.53	correct	observe	Run3	observe/STIM_007.jpg
2597.529	1.38	correct	observe	Run3	observe/STIM_008.jpg
2601.228	1.0	correct	observe	Run3	observe/STIM_008.jpg
2606.113	1.191	correct	observe	Run3	observe/STIM_008.jpg
2610.419	1.446	correct	observe	Run3	observe/STIM_008.jpg
2615.049	1.135	correct	observe	Run3	observe/STIM_009.jpg
2619.049	1.252	correct	observe	Run3	observe/STIM_009.jpg
2622.887	0.994	correct	observe	Run3	observe/STIM_009.jpg
2627.148	1.522	correct	observe	Run3	observe/STIM_009.jpg
2630.978	1.373	correct	observe	Run3	observe/STIM_010.jpg
2635.264	1.216	correct	observe	Run3	observe/STIM_010.jpg
2639.34	1.419	correct	observe	Run3	observe/STIM_010.jpg
2643.884	1.178	correct	observe	Run3	observe/STIM_010.jpg
2648.273	0.884	correct	observe	Run3	observe/STIM_011.jpg
2651.966	1.588	incorrect	observe	Run3	observe/STIM_011.jpg
2657.356	0.972	correct	observe	Run3	observe/STIM_011.jpg
2661.983	1.027	incorrect	observe	Run3	observe/STIM_011.jpg
2666.749	1.087	incorrect	observe	Run3	observe/STIM_012.jpg
2669.912	1.013	correct	observe	Run3	observe/STIM_012.jpg
2672.967	1.454	correct	observe	Run3	observe/STIM_012.jpg
2676.632	1.369	correct	observe	Run3	observe/STIM_012.jpg
2681.146	0.87	correct	observe	Run3	observe/STIM_013.jpg
2684.111	1.094	correct	observe	Run3	observe/STIM_013.jpg
2687.532	1.197	incorrect	observe	Run3	observe/STIM_013.jpg
2691.052	1.474	correct	observe	Run3	observe/STIM_013.jpg
2694.673	1.079	correct	observe	Run3	observe/STIM_014.jpg
2699.551	0.978	correct	observe	Run3	observe/STIM_014.jpg
2703.99	1.234	correct	observe	Run3	observe/STIM_014.jpg
2708.512	0.958	incorrect	observe	Run3	observe/STIM_014.jpg
2711.582	1.264	correct	observe	Run3	observe/STIM_015.jpg
2716.553	1.408	correct	observe	Run3	observe/STIM_015.jpg
2721.855	1.073	correct	observe	Run3	observe/STIM_015.jpg
2725.866	1.094	incorrect	observe	Run3	observe/STIM_015.jpg
2729.256	0.841	correct	observe	Run3	observe/STIM_016.jpg
2732.168	0.837	correct	observe	Run3	observe/STIM_016.jpg
2736.164	0.935	correct	observe	Run3	observe/STIM_016.jpg
2739.143	1.168	correct	observe	Run3	observe/STIM_016.jpg
2742.894	1.174	correct	observe	Run3	observe/STIM_017.jpg
2746.565	1.458	correct	observe	Run3	observe/STIM_017.jpg
2750.489	0.86	incorrect	observe	Run3	observe/STIM_017.jpg
2754.8	1.28	correct	observe	Run3	observe/STIM_017.jpg
2758.512	0.918	correct	observe	Run3	observe/STIM_018.jpg
2763.344	1.62	correct	observe	Run3	observe/STIM_018.jpg
2768.722	1.305	correct	observe	Run3	observe/STIM_018.jpg
2772.182	1.383	correct	observe	Run3	observe/STIM_018.jpg
2776.872	1.114	correct	observe	Run3	observe/STIM_019.jpg
2780.589	1.6	correct	observe	Run3	observe/STIM_019.jpg
2785.557	0.943	correct	observe	Run3	observe/STIM_019.jpg
2789.426	1.004	correct	observe	Run3	observe/STIM_019.jpg
