onset	duration	accuracy_binary	trial_type	learning_stage	stimulus
0.0	1.7	0	generate	Run1	generate/STIM_000.jpg
5.723	1.194	1	generate	Run1	generate/STIM_000.jpg
10.746	1.191	1	generate	Run1	generate/STIM_000.jpg
15.471	1.504	1	generate	Run1	generate/STIM_000.jpg
20.163	1.504	1	generate	Run1	generate/STIM_000.jpg
24.809	2.096	1	generate	Run1	generate/STIM_001.jpg
30.436	1.607	0	generate	Run1	generate/STIM_001.jpg
35.425	2.216	1	generate	Run1	generate/STIM_001.jpg
40.19	1.13	1	generate	Run1	generate/STIM_001.jpg
44.822	2.023	1	generate	Run1	generate/STIM_001.jpg
50.166	1.979	1	generate	Run1	generate/STIM_002.jpg
54.708	1.191	1	generate	Run1	generate/STIM_002.jpg
58.972	1.256	1	generate	Run1	generate/STIM_002.jpg
63.983	0.948	1	generate	Run1	generate/STIM_002.jpg
67.583	1.891	1	generate	Run1	generate/STIM_002.jpg
72.928	2.099	1	generate	Run1	generate/STIM_003.jpg
77.405	1.487	1	generate	Run1	generate/STIM_003.jpg
81.35	1.985	1	generate	Run1	generate/STIM_003.jpg
87.164	1.525	1	generate	Run1	generate/STIM_003.jpg
92.368	1.324	1	generate	Run1	generate/STIM_003.jpg
97.328	2.205	1	generate	Run1	generate/STIM_004.jpg
102.968	2.362	1	generate	Run1	generate/STIM_004.jpg
107.939	1.008	1	generate	Run1	generate/STIM_004.jpg
112.356	1.882	0	generate	Run1	generate/STIM_004.jpg
117.606	1.12	0	generate	Run1	generate/STIM_004.jpg
121.938	1.137	0	generate	Run1	generate/STIM_005.jpg
125.941	1.105	1	generate	Run1	generate/STIM_005.jpg
130.238	2.362	1	generate	Run1	generate/STIM_005.jpg
135.051	1.9	1	generate	Run1	generate/STIM_005.jpg
140.817	0.888	0	generate	Run1	generate/STIM_005.jpg
145.762	2.04	1	generate	Run1	generate/STIM_006.jpg
151.606	1.895	1	generate	Run1	generate/STIM_006.jpg
156.447	2.105	1	generate	Run1	generate/STIM_006.jpg
161.967	1.102	1	generate	Run1	generate/STIM_006.jpg
166.937	0.981	0	generate	Run1	generate/STIM_006.jpg
171.212	1.14	1	generate	Run1	generate/STIM_007.jpg
175.871	2.341	1	generate	Run1	generate/STIM_007.jpg
181.713	1.971	0	generate	Run1	generate/STIM_007.jpg
186.7	1.218	1	generate	Run1	generate/STIM_007.jpg
191.459	1.402	1	generate	Run1	generate/STIM_007.jpg
196.779	1.677	0	generate	Run1	generate/STIM_008.jpg
202.591	2.476	1	generate	Run1	generate/STIM_008.jpg
208.946	2.242	0	generate	Run1	generate/STIM_008.jpg
213.761	1.086	1	generate	Run1	generate/STIM_008.jpg
217.488	1.744	1	generate	Run1	generate/STIM_008.jpg
222.084	2.602	1	generate	Run1	generate/STIM_009.jpg
228.692	1.157	1	generate	Run1	generate/STIM_009.jpg
232.697	1.449	1	generate	Run1	generate/STIM_009.jpg
237.657	1.965	0	generate	Run1	generate/STIM_009.jpg
243.326	0.931	1	generate	Run1	generate/STIM_009.jpg
247.006	2.171	1	generate	Run1	generate/STIM_010.jpg
252.023	1.296	1	generate	Run1	generate/STIM_010.jpg
257.088	1.011	1	generate	Run1	generate/STIM_010.jpg
261.514	1.433	1	generate	Run1	generate/STIM_010.jpg
266.431	1.151	1	generate	Run1	generate/STIM_010.jpg
271.168	2.447	0	generate	Run1	generate/STIM_011.jpg
276.245	1.71	1	generate	Run1	generate/STIM_011.jpg
280.211	1.662	0	generate	Run1	generate/STIM_011.jpg
285.688	1.176	1	generate	Run1	generate/STIM_011.jpg
290.304	1.712	1	generate	Run1	generate/STIM_011.jpg
295.057	2.241	1	generate	Run1	generate/STIM_012.jpg
301.046	1.139	1	generate	Run1	generate/STIM_012.jpg
305.677	1.801	1	generate	Run1	generate/STIM_012.jpg
310.731	1.332	1	generate	Run1	generate/STIM_012.jpg
315.12	1.186	1	generate	Run1	generate/STIM_012.jpg
320.004	1.368	1	generate	Run1	generate/STIM_013.jpg
324.596	2.399	1	generate	Run1	generate/STIM_013.jpg
329.742	0.973	0	generate	Run1	generate/STIM_013.jpg
334.077	1.278	1	generate	Run1	generate/STIM_013.jpg
339.37	1.72	1	generate	Run1	generate/STIM_013.jpg
344.305	1.955	0	generate	Run1	generate/STIM_014.jpg
350.44	1.65	1	generate	Run1	generate/STIM_014.jpg
355.943	1.092	1	generate	Run1	generate/STIM_014.jpg
359.288	1.494	1	generate	Run1	generate/STIM_014.jpg
363.22	1.091	1	generate	Run1	generate/STIM_014.jpg
367.585	1.41	1	generate	Run1	generate/STIM_015.jpg
371.268	2.238	0	generate	Run1	generate/STIM_015.jpg
375.804	2.015	1	generate	Run1	generate/STIM_015.jpg
381.867	1.6	1	generate	Run1	generate/STIM_015.jpg
385.886	1.865	1	generate	Run1	generate/STIM_015.jpg
391.96	2.536	0	generate	Run1	generate/STIM_016.jpg
398.246	1.963	1	generate	Run1	generate/STIM_016.jpg
403.264	2.287	1	generate	Run1	generate/STIM_016.jpg
409.632	1.344	1	generate	Run1	generate/STIM_016.jpg
414.647	2.006	1	generate	Run1	generate/STIM_016.jpg
420.492	2.572	0	generate	Run1	generate/STIM_017.jpg
426.386	1.404	1	generate	Run1	generate/STIM_017.jpg
431.349	2.067	1	generate	Run1	generate/STIM_017.jpg
435.852	1.771	1	generate	Run1	generate/STIM_017.jpg
440.763	1.594	1	generate	Run1	generate/STIM_017.jpg
445.47	1.514	1	generate	Run1	generate/STIM_018.jpg
449.682	1.912	1	generate	Run1	generate/STIM_018.jpg
455.552	2.038	1	generate	Run1	generate/STIM_018.jpg
461.137	2.068	1	generate	Run1	generate/STIM_018.jpg
466.625	1.548	1	generate	Run1	generate/STIM_018.jpg
472.211	1.827	1	generate	Run1	generate/STIM_019.jpg
478.208	1.408	1	generate	Run1	generate/STIM_019.jpg
483.123	1.68	1	generate	Run1	generate/STIM_019.jpg
487.287	1.639	1	generate	Run1	generate/STIM_019.jpg
492.477	1.014	1	generate	Run1	generate/STIM_019.jpg
496.982	1.32	1	generate	Run1	generate/STIM_020.jpg
501.272	1.69	0	generate	Run1	generate/STIM_020.jpg
507.068	2.219	1	generate	Run1	generate/STIM_020.jpg
511.864	2.07	1	generate	Run1	generate/STIM_020.jpg
517.589	1.04	1	generate	Run1	generate/STIM_020.jpg
520.803	1.727	1	generate	Run1	generate/STIM_021.jpg
526.716	2.034	1	generate	Run1	generate/STIM_021.jpg
531.194	1.513	1	generate	Run1	generate/STIM_021.jpg
536.645	1.419	1	generate	Run1	generate/STIM_021.jpg
541.23	1.732	1	generate	Run1	generate/STIM_021.jpg
545.358	2.622	1	generate	Run1	generate/STIM_022.jpg
550.881	1.968	1	generate	Run1	generate/STIM_022.jpg
555.188	1.943	1	generate	Run1	generate/STIM_022.jpg
560.533	1.461	1	generate	Run1	generate/STIM_022.jpg
565.67	2.118	0	generate	Run1	generate/STIM_022.jpg
571.924	2.402	1	generate	Run1	generate/STIM_023.jpg
577.733	1.882	1	generate	Run1	generate/STIM_023.jpg
581.838	1.517	1	generate	Run1	generate/STIM_023.jpg
587.179	2.273	1	generate	Run1	generate/STIM_023.jpg
593.567	1.699	1	generate	Run1	generate/STIM_023.jpg
598.028	1.304	1	generate	Run1	generate/STIM_024.jpg
602.854	2.49	1	generate	Run1	generate/STIM_024.jpg
609.105	1.656	1	generate	Run1	generate/STIM_024.jpg
613.649	1.122	0	generate	Run1	generate/STIM_024.jpg
617.553	1.498	1	generate	Run1	generate/STIM_024.jpg
621.961	0.522	1	repeat	Run1	repeat/STIM_000.jpg
625.901	0.448	1	repeat	Run1	repeat/STIM_000.jpg
630.118	0.661	0	repeat	Run1	repeat/STIM_000.jpg
633.548	0.623	1	repeat	Run1	repeat/STIM_000.jpg
636.797	0.605	1	repeat	Run1	repeat/STIM_000.jpg
639.574	0.509	1	repeat	Run1	repeat/STIM_001.jpg
643.228	0.616	1	repeat	Run1	repeat/STIM_001.jpg
646.612	0.674	1	repeat	Run1	repeat/STIM_001.jpg
649.395	0.626	1	repeat	Run1	repeat/STIM_001.jpg
652.507	0.51	1	repeat	Run1	repeat/STIM_001.jpg
655.639	0.526	1	repeat	Run1	repeat/STIM_002.jpg
659.813	0.785	1	repeat	Run1	repeat/STIM_002.jpg
664.238	0.881	1	repeat	Run1	repeat/STIM_002.jpg
668.77	0.726	1	repeat	Run1	repeat/STIM_002.jpg
672.879	0.743	1	repeat	Run1	repeat/STIM_002.jpg
677.608	0.561	1	repeat	Run1	repeat/STIM_003.jpg
680.365	0.574	1	repeat	Run1	repeat/STIM_003.jpg
683.97	0.809	1	repeat	Run1	repeat/STIM_003.jpg
688.282	0.701	1	repeat	Run1	repeat/STIM_003.jpg
691.891	0.753	1	repeat	Run1	repeat/STIM_003.jpg
696.718	0.706	1	repeat	Run1	repeat/STIM_004.jpg
701.245	0.575	1	repeat	Run1	repeat/STIM_004.jpg
704.656	0.631	1	repeat	Run1	repeat/STIM_004.jpg
707.972	0.631	1	repeat	Run1	repeat/STIM_004.jpg
710.965	0.749	1	repeat	Run1	repeat/STIM_004.jpg
715.748	0.476	1	repeat	Run1	repeat/STIM_005.jpg
718.681	0.669	1	repeat	Run1	repeat/STIM_005.jpg
722.655	0.822	1	repeat	Run1	repeat/STIM_005.jpg
727.199	0.767	0	repeat	Run1	repeat/STIM_005.jpg
730.8	0.708	1	repeat	Run1	repeat/STIM_005.jpg
735.072	0.614	1	repeat	Run1	repeat/STIM_006.jpg
739.173	0.75	1	repeat	Run1	repeat/STIM_006.jpg
742.296	0.487	1	repeat	Run1	repeat/STIM_006.jpg
745.008	0.808	1	repeat	Run1	repeat/STIM_006.jpg
748.994	0.584	0	repeat	Run1	repeat/STIM_006.jpg
751.738	0.511	1	repeat	Run1	repeat/STIM_007.jpg
755.158	0.763	1	repeat	Run1	repeat/STIM_007.jpg
759.091	0.777	1	repeat	Run1	repeat/STIM_007.jpg
763.727	0.6	1	repeat	Run1	repeat/STIM_007.jpg
766.747	0.657	1	repeat	Run1	repeat/STIM_007.jpg
770.719	0.632	1	repeat	Run1	repeat/STIM_008.jpg
773.876	0.506	1	repeat	Run1	repeat/STIM_008.jpg
776.705	0.781	1	repeat	Run1	repeat/STIM_008.jpg
780.267	0.746	1	repeat	Run1	repeat/STIM_008.jpg
784.097	0.58	1	repeat	Run1	repeat/STIM_008.jpg
787.333	0.589	1	repeat	Run1	repeat/STIM_009.jpg
791.859	0.589	1	repeat	Run1	repeat/STIM_009.jpg
794.981	0.602	1	repeat	Run1	repeat/STIM_009.jpg
797.958	0.489	1	repeat	Run1	repeat/STIM_009.jpg
800.947	0.489	1	repeat	Run1	repeat/STIM_009.jpg
805.227	0.614	1	repeat	Run1	repeat/STIM_010.jpg
809.775	0.587	1	repeat	Run1	repeat/STIM_010.jpg
812.616	0.49	1	repeat	Run1	repeat/STIM_010.jpg
816.844	0.538	1	repeat	Run1	repeat/STIM_010.jpg
820.047	0.536	1	repeat	Run1	repeat/STIM_010.jpg
823.651	0.558	1	repeat	Run1	repeat/STIM_011.jpg
827.392	0.738	1	repeat	Run1	repeat/STIM_011.jpg
830.574	0.807	1	repeat	Run1	repeat/STIM_011.jpg
834.342	0.578	1	repeat	Run1	repeat/STIM_011.jpg
838.73	0.506	1	repeat	Run1	repeat/STIM_011.jpg
843.226	0.752	1	repeat	Run1	repeat/STIM_012.jpg
847.349	0.508	0	repeat	Run1	repeat/STIM_012.jpg
850.735	0.69	1	repeat	Run1	repeat/STIM_012.jpg
855.009	0.488	1	repeat	Run1	repeat/STIM_012.jpg
858.634	0.663	1	repeat	Run1	repeat/STIM_012.jpg
862.731	0.755	1	repeat	Run1	repeat/STIM_013.jpg
866.292	0.76	1	repeat	Run1	repeat/STIM_013.jpg
870.118	0.832	1	repeat	Run1	repeat/STIM_013.jpg
874.278	0.546	1	repeat	Run1	repeat/STIM_013.jpg
876.934	0.799	1	repeat	Run1	repeat/STIM_013.jpg
880.138	0.714	0	repeat	Run1	repeat/STIM_014.jpg
884.255	0.624	1	repeat	Run1	repeat/STIM_014.jpg
888.048	0.868	1	repeat	Run1	repeat/STIM_014.jpg
892.096	0.689	1	repeat	Run1	repeat/STIM_014.jpg
895.948	0.563	1	repeat	Run1	repeat/STIM_014.jpg
898.722	1.854	1	generate	Run2	generate/STIM_000.jpg
902.905	1.183	1	generate	Run2	generate/STIM_000.jpg
907.421	1.342	1	generate	Run2	generate/STIM_000.jpg
911.448	1.044	1	generate	Run2	generate/STIM_000.jpg
915.96	1.228	1	generate	Run2	generate/STIM_000.jpg
919.869	1.688	1	generate	Run2	generate/STIM_001.jpg
924.657	1.113	1	generate	Run2	generate/STIM_001.jpg
928.275	0.853	0	generate	Run2	generate/STIM_001.jpg
932.116	0.808	1	generate	Run2	generate/STIM_001.jpg
936.39	1.315	1	generate	Run2	generate/STIM_001.jpg
941.847	1.247	1	generate	Run2	generate/STIM_002.jpg
945.388	0.898	1	generate	Run2	generate/STIM_002.jpg
949.832	1.456	0	generate	Run2	generate/STIM_002.jpg
954.218	0.867	1	generate	Run2	generate/STIM_002.jpg
959.16	1.379	1	generate	Run2	generate/STIM_002.jpg
963.023	1.201	1	generate	Run2	generate/STIM_003.jpg
967.81	1.492	1	generate	Run2	generate/STIM_003.jpg
972.799	1.189	1	generate	Run2	generate/STIM_003.jpg
976.545	1.493	1	generate	Run2	generate/STIM_003.jpg
980.751	1.245	1	generate	Run2	generate/STIM_003.jpg
986.075	1.881	1	generate	Run2	generate/STIM_004.jpg
991.247	1.764	0	generate	Run2	generate/STIM_004.jpg
996.596	1.665	1	generate	Run2	generate/STIM_004.jpg
1000.727	1.517	1	generate	Run2	generate/STIM_004.jpg
1004.925	1.338	1	generate	Run2	generate/STIM_004.jpg
1009.27	1.192	1	generate	Run2	generate/STIM_005.jpg
1013.931	1.953	1	generate	Run2	generate/STIM_005.jpg
1019.425	0.859	1	generate	Run2	generate/STIM_005.jpg
1023.74	1.477	1	generate	Run2	generate/STIM_005.jpg
1029.017	1.458	1	generate	Run2	generate/STIM_005.jpg
1033.702	2.164	0	generate	Run2	generate/STIM_006.jpg
1039.244	1.367	1	generate	Run2	generate/STIM_006.jpg
1044.067	1.189	1	generate	Run2	generate/STIM_006.jpg
1048.478	0.967	1	generate	Run2	generate/STIM_006.jpg
1052.251	1.562	1	generate	Run2	generate/STIM_006.jpg
1057.61	1.263	1	generate	Run2	generate/STIM_007.jpg
1062.907	1.461	1	generate	Run2	generate/STIM_007.jpg
1067.722	1.91	1	generate	Run2	generate/STIM_007.jpg
1073.08	1.292	1	generate	Run2	generate/STIM_007.jpg
1077.648	1.788	1	generate	Run2	generate/STIM_007.jpg
1083.285	1.486	1	generate	Run2	generate/STIM_008.jpg
1088.343	2.086	1	generate	Run2	generate/STIM_008.jpg
1093.676	1.194	1	generate	Run2	generate/STIM_008.jpg
1098.331	1.82	1	generate	Run2	generate/STIM_008.jpg
1102.956	1.635	1	generate	Run2	generate/STIM_008.jpg
1107.088	1.464	1	generate	Run2	generate/STIM_009.jpg
1112.719	1.883	1	generate	Run2	generate/STIM_009.jpg
1117.013	1.65	1	generate	Run2	generate/STIM_009.jpg
1121.935	1.177	1	generate	Run2	generate/STIM_009.jpg
1125.822	0.78	1	generate	Run2	generate/STIM_009.jpg
1130.585	1.675	1	generate	Run2	generate/STIM_010.jpg
1136.229	1.521	1	generate	Run2	generate/STIM_010.jpg
1140.337	1.983	1	generate	Run2	generate/STIM_010.jpg
1144.883	1.382	0	generate	Run2	generate/STIM_010.jpg
1148.897	0.797	1	generate	Run2	generate/STIM_010.jpg
1153.407	1.994	0	generate	Run2	generate/STIM_011.jpg
1158.505	1.053	0	generate	Run2	generate/STIM_011.jpg
1162.594	1.747	1	generate	Run2	generate/STIM_011.jpg
1167.307	1.546	1	generate	Run2	generate/STIM_011.jpg
1172.467	1.658	1	generate	Run2	generate/STIM_011.jpg
1177.898	1.106	0	generate	Run2	generate/STIM_012.jpg
1181.292	2.001	1	generate	Run2	generate/STIM_012.jpg
1186.972	1.313	1	generate	Run2	generate/STIM_012.jpg
1191.461	1.647	1	generate	Run2	generate/STIM_012.jpg
1195.893	1.854	0	generate	Run2	generate/STIM_012.jpg
1200.304	1.636	1	generate	Run2	generate/STIM_013.jpg
1204.225	1.834	0	generate	Run2	generate/STIM_013.jpg
1210.162	1.127	1	generate	Run2	generate/STIM_013.jpg
1214.74	1.334	1	generate	Run2	generate/STIM_013.jpg
1219.191	1.166	1	generate	Run2	generate/STIM_013.jpg
1224.3	1.431	1	generate	Run2	generate/STIM_014.jpg
1228.269	1.368	1	generate	Run2	generate/STIM_014.jpg
1233.495	1.272	1	generate	Run2	generate/STIM_014.jpg
1238.511	0.779	1	generate	Run2	generate/STIM_014.jpg
1242.789	1.825	1	generate	Run2	generate/STIM_014.jpg
1247.143	1.506	1	generate	Run2	generate/STIM_015.jpg
1251.641	0.984	1	generate	Run2	generate/STIM_015.jpg
1255.27	0.83	1	generate	Run2	generate/STIM_015.jpg
1260.14	1.345	1	generate	Run2	generate/STIM_015.jpg
1264.935	1.676	1	generate	Run2	generate/STIM_015.jpg
1268.925	1.386	1	generate	Run2	generate/STIM_016.jpg
1272.903	0.863	1	generate	Run2	generate/STIM_016.jpg
1277.098	1.291	1	generate	Run2	generate/STIM_016.jpg
1281.404	1.76	1	generate	Run2	generate/STIM_016.jpg
1286.112	0.832	1	generate	Run2	generate/STIM_016.jpg
1290.697	2.182	1	generate	Run2	generate/STIM_017.jpg
1295.2	1.374	1	generate	Run2	generate/STIM_017.jpg
1299.833	1.178	1	generate	Run2	generate/STIM_017.jpg
1304.575	1.738	1	generate	Run2	generate/STIM_017.jpg
1309.729	1.135	1	generate	Run2	generate/STIM_017.jpg
1314.163	1.864	1	generate	Run2	generate/STIM_018.jpg
1318.923	1.039	1	generate	Run2	generate/STIM_018.jpg
1322.487	0.919	0	generate	Run2	generate/STIM_018.jpg
1325.521	1.565	0	generate	Run2	generate/STIM_018.jpg
1330.449	1.494	1	generate	Run2	generate/STIM_018.jpg
1335.5	1.226	1	generate	Run2	generate/STIM_019.jpg
1340.304	1.203	1	generate	Run2	generate/STIM_019.jpg
1345.455	1.874	0	generate	Run2	generate/STIM_019.jpg
1350.057	1.865	1	generate	Run2	generate/STIM_019.jpg
1355.764	1.174	1	generate	Run2	generate/STIM_019.jpg
1360.963	1.654	0	generate	Run2	generate/STIM_020.jpg
1364.964	1.3	1	generate	Run2	generate/STIM_020.jpg
1368.745	1.112	1	generate	Run2	generate/STIM_020.jpg
1373.483	1.523	1	generate	Run2	generate/STIM_020.jpg
1378.432	1.727	1	generate	Run2	generate/STIM_020.jpg
1382.526	2.23	1	generate	Run2	generate/STIM_021.jpg
1388.442	1.706	1	generate	Run2	generate/STIM_021.jpg
1392.487	1.049	1	generate	Run2	generate/STIM_021.jpg
1396.35	1.106	1	generate	Run2	generate/STIM_021.jpg
1400.611	1.244	1	generate	Run2	generate/STIM_021.jpg
1405.633	2.244	0	generate	Run2	generate/STIM_022.jpg
1411.841	2.028	0	generate	Run2	generate/STIM_022.jpg
1416.502	1.753	1	generate	Run2	generate/STIM_022.jpg
1420.527	1.348	1	generate	Run2	generate/STIM_022.jpg
1425.436	1.354	1	generate	Run2	generate/STIM_022.jpg
1429.732	1.858	1	generate	Run2	generate/STIM_023.jpg
1435.253	1.85	1	generate	Run2	generate/STIM_023.jpg
1440.945	0.962	1	generate	Run2	generate/STIM_023.jpg
1444.646	0.757	1	generate	Run2	generate/STIM_023.jpg
1448.539	1.48	1	generate	Run2	generate/STIM_023.jpg
1453.849	1.125	1	generate	Run2	generate/STIM_024.jpg
1458.306	1.228	1	generate	Run2	generate/STIM_024.jpg
1463.35	1.971	1	generate	Run2	generate/STIM_024.jpg
1469.412	1.333	1	generate	Run2	generate/STIM_024.jpg
1473.971	0.788	1	generate	Run2	generate/STIM_024.jpg
1477.806	0.729	1	repeat	Run2	repeat/STIM_000.jpg
1480.881	0.776	1	repeat	Run2	repeat/STIM_000.jpg
1485.5	0.735	1	repeat	Run2	repeat/STIM_000.jpg
1488.705	0.566	1	repeat	Run2	repeat/STIM_000.jpg
1491.948	0.828	1	repeat	Run2	repeat/STIM_000.jpg
1495.075	0.488	1	repeat	Run2	repeat/STIM_001.jpg
1499.555	0.649	1	repeat	Run2	repeat/STIM_001.jpg
1504.091	0.66	1	repeat	Run2	repeat/STIM_001.jpg
1507.718	0.513	1	repeat	Run2	repeat/STIM_001.jpg
1510.466	0.649	1	repeat	Run2	repeat/STIM_001.jpg
1513.777	0.827	1	repeat	Run2	repeat/STIM_002.jpg
1518.634	0.764	1	repeat	Run2	repeat/STIM_002.jpg
1523.267	0.478	1	repeat	Run2	repeat/STIM_002.jpg
1527.229	0.511	1	repeat	Run2	repeat/STIM_002.jpg
1529.836	0.661	1	repeat	Run2	repeat/STIM_002.jpg
1533.88	0.815	1	repeat	Run2	repeat/STIM_003.jpg
1537.158	0.65	0	repeat	Run2	repeat/STIM_003.jpg
1541.501	0.605	1	repeat	Run2	repeat/STIM_003.jpg
1545.505	0.533	1	repeat	Run2	repeat/STIM_003.jpg
1549.807	0.74	1	repeat	Run2	repeat/STIM_003.jpg
1554.526	0.594	1	repeat	Run2	repeat/STIM_004.jpg
1559.029	0.642	1	repeat	Run2	repeat/STIM_004.jpg
1562.128	0.594	1	repeat	Run2	repeat/STIM_004.jpg
1565.701	0.492	1	repeat	Run2	repeat/STIM_004.jpg
1569.716	0.652	1	repeat	Run2	repeat/STIM_004.jpg
1572.467	0.76	1	repeat	Run2	repeat/STIM_005.jpg
1575.937	0.792	0	repeat	Run2	repeat/STIM_005.jpg
1578.936	0.802	1	repeat	Run2	repeat/STIM_005.jpg
1582.668	0.852	1	repeat	Run2	repeat/STIM_005.jpg
1587.082	0.551	1	repeat	Run2	repeat/STIM_005.jpg
1590.573	0.829	1	repeat	Run2	repeat/STIM_006.jpg
1594.99	0.661	1	repeat	Run2	repeat/STIM_006.jpg
1599.266	0.749	1	repeat	Run2	repeat/STIM_006.jpg
1602.718	0.658	1	repeat	Run2	repeat/STIM_006.jpg
1605.484	0.858	1	repeat	Run2	repeat/STIM_006.jpg
1610.385	0.746	1	repeat	Run2	repeat/STIM_007.jpg
1613.246	0.462	1	repeat	Run2	repeat/STIM_007.jpg
1617.349	0.848	1	repeat	Run2	repeat/STIM_007.jpg
1620.613	0.875	0	repeat	Run2	repeat/STIM_007.jpg
1624.368	0.691	1	repeat	Run2	repeat/STIM_007.jpg
1627.722	0.726	1	repeat	Run2	repeat/STIM_008.jpg
1631.982	0.651	1	repeat	Run2	repeat/STIM_008.jpg
1636.177	0.832	1	repeat	Run2	repeat/STIM_008.jpg
1640.062	0.887	1	repeat	Run2	repeat/STIM_008.jpg
1643.432	0.653	1	repeat	Run2	repeat/STIM_008.jpg
1646.847	0.602	1	repeat	Run2	repeat/STIM_009.jpg
1650.848	0.875	1	repeat	Run2	repeat/STIM_009.jpg
1655.449	0.637	1	repeat	Run2	repeat/STIM_009.jpg
1659.92	0.493	1	repeat	Run2	repeat/STIM_009.jpg
1663.266	0.478	1	repeat	Run2	repeat/STIM_009.jpg
1666.912	0.671	1	repeat	Run2	repeat/STIM_010.jpg
1670.654	0.697	1	repeat	Run2	repeat/STIM_010.jpg
1674.443	0.741	1	repeat	Run2	repeat/STIM_010.jpg
1678.914	0.838	1	repeat	Run2	repeat/STIM_010.jpg
1683.586	0.477	1	repeat	Run2	repeat/STIM_010.jpg
1686.173	0.595	1	repeat	Run2	repeat/STIM_011.jpg
1690.302	0.526	1	repeat	Run2	repeat/STIM_011.jpg
1694.327	0.638	1	repeat	Run2	repeat/STIM_011.jpg
1697.649	0.734	1	repeat	Run2	repeat/STIM_011.jpg
1700.64	0.778	1	repeat	Run2	repeat/STIM_011.jpg
1704.897	0.528	1	repeat	Run2	repeat/STIM_012.jpg
1708.16	0.756	0	repeat	Run2	repeat/STIM_012.jpg
1712.814	0.803	1	repeat	Run2	repeat/STIM_012.jpg
1716.611	0.84	1	repeat	Run2	repeat/STIM_012.jpg
1721.154	0.609	1	repeat	Run2	repeat/STIM_012.jpg
1725.345	0.542	1	repeat	Run2	repeat/STIM_013.jpg
1729.91	0.855	1	repeat	Run2	repeat/STIM_013.jpg
1734.681	0.721	1	repeat	Run2	repeat/STIM_013.jpg
1737.883	0.728	1	repeat	Run2	repeat/STIM_013.jpg
1741.777	0.824	1	repeat	Run2	repeat/STIM_013.jpg
1746.398	0.532	1	repeat	Run2	repeat/STIM_014.jpg
1750.477	0.833	1	repeat	Run2	repeat/STIM_014.jpg
1754.45	0.674	1	repeat	Run2	repeat/STIM_014.jpg
1757.437	0.597	1	repeat	Run2	repeat/STIM_014.jpg
1760.474	0.689	1	repeat	Run2	repeat/STIM_014.jpg
1765.124	1.702	1	generate	Run3	generate/STIM_000.jpg
1770.544	1.192	1	generate	Run3	generate/STIM_000.jpg
1775.427	0.865	1	generate	Run3	generate/STIM_000.jpg
1779.768	0.86	1	generate	Run3	generate/STIM_000.jpg
1784.373	1.797	1	generate	Run3	generate/STIM_000.jpg
1789.668	1.706	1	generate	Run3	generate/STIM_001.jpg
1794.194	1.163	1	generate	Run3	generate/STIM_001.jpg
1797.759	1.782	1	generate	Run3	generate/STIM_001.jpg
1803.353	1.195	1	generate	Run3	generate/STIM_001.jpg
1808.476	1.564	1	generate	Run3	generate/STIM_001.jpg
1813.05	1.287	1	generate	Run3	generate/STIM_002.jpg
1817.236	1.73	1	generate	Run3	generate/STIM_002.jpg
1822.965	1.702	1	generate	Run3	generate/STIM_002.jpg
1827.597	1.235	1	generate	Run3	generate/STIM_002.jpg
1832.146	1.228	1	generate	Run3	generate/STIM_002.jpg
1836.389	1.206	1	generate	Run3	generate/STIM_003.jpg
1840.233	1.118	1	generate	Run3	generate/STIM_003.jpg
1843.758	1.129	1	generate	Run3	generate/STIM_003.jpg
1848.851	0.898	1	generate	Run3	generate/STIM_003.jpg
1853.393	1.631	1	generate	Run3	generate/STIM_003.jpg
1857.429	1.75	1	generate	Run3	generate/STIM_004.jpg
1861.47	1.63	1	generate	Run3	generate/STIM_004.jpg
1865.333	1.624	1	generate	Run3	generate/STIM_004.jpg
1870.328	0.951	1	generate	Run3	generate/STIM_004.jpg
1875.138	1.188	1	generate	Run3	generate/STIM_004.jpg
1880.005	1.376	1	generate	Run3	generate/STIM_005.jpg
1885.418	1.826	1	generate	Run3	generate/STIM_005.jpg
1890.319	1.021	1	generate	Run3	generate/STIM_005.jpg
1895.369	0.974	1	generate	Run3	generate/STIM_005.jpg
1900.14	1.78	1	generate	Run3	generate/STIM_005.jpg
1904.595	1.753	0	generate	Run3	generate/STIM_006.jpg
1908.858	1.498	1	generate	Run3	generate/STIM_006.jpg
1914.26	0.886	1	generate	Run3	generate/STIM_006.jpg
1917.323	1.572	1	generate	Run3	generate/STIM_006.jpg
1921.798	1.859	1	generate	Run3	generate/STIM_006.jpg
1926.221	0.813	1	generate	Run3	generate/STIM_007.jpg
1930.912	1.788	1	generate	Run3	generate/STIM_007.jpg
1935.025	0.946	1	generate	Run3	generate/STIM_007.jpg
1939.842	1.451	1	generate	Run3	generate/STIM_007.jpg
1945.11	1.059	1	generate	Run3	generate/STIM_007.jpg
1949.755	0.832	1	generate	Run3	generate/STIM_008.jpg
1953.324	1.354	0	generate	Run3	generate/STIM_008.jpg
1958.715	1.342	1	generate	Run3	generate/STIM_008.jpg
1964.023	0.8	1	generate	Run3	generate/STIM_008.jpg
1968.111	1.474	1	generate	Run3	generate/STIM_008.jpg
1972.123	1.1	1	generate	Run3	generate/STIM_009.jpg
1977.018	1.145	1	generate	Run3	generate/STIM_009.jpg
1980.839	1.037	1	generate	Run3	generate/STIM_009.jpg
1985.057	1.452	1	generate	Run3	generate/STIM_009.jpg
1989.843	0.941	1	generate	Run3	generate/STIM_009.jpg
1994.465	1.065	0	generate	Run3	generate/STIM_010.jpg
1997.751	1.486	1	generate	Run3	generate/STIM_010.jpg
2002.138	1.038	1	generate	Run3	generate/STIM_010.jpg
2006.257	1.316	1	generate	Run3	generate/STIM_010.jpg
2011.291	1.786	1	generate	Run3	generate/STIM_010.jpg
2015.571	1.526	1	generate	Run3	generate/STIM_011.jpg
2020.219	1.012	1	generate	Run3	generate/STIM_011.jpg
2023.857	1.346	1	generate	Run3	generate/STIM_011.jpg
2028.427	0.858	1	generate	Run3	generate/STIM_011.jpg
2033.229	1.153	1	generate	Run3	generate/STIM_011.jpg
2037.225	1.5	1	generate	Run3	generate/STIM_012.jpg
2041.901	1.299	1	generate	Run3	generate/STIM_012.jpg
2045.535	1.78	1	generate	Run3	generate/STIM_012.jpg
2051.305	1.52	1	generate	Run3	generate/STIM_012.jpg
2056.702	0.933	0	generate	Run3	generate/STIM_012.jpg
2059.887	1.55	1	generate	Run3	generate/STIM_013.jpg
2065.43	0.842	1	generate	Run3	generate/STIM_013.jpg
2069.631	1.529	1	generate	Run3	generate/STIM_013.jpg
2074.981	1.671	1	generate	Run3	generate/STIM_013.jpg
2080.816	1.367	1	generate	Run3	generate/STIM_013.jpg
2085.932	1.731	1	generate	Run3	generate/STIM_014.jpg
2091.617	0.946	1	generate	Run3	generate/STIM_014.jpg
2095.887	1.718	1	generate	Run3	generate/STIM_014.jpg
2100.239	1.728	1	generate	Run3	generate/STIM_014.jpg
2104.283	1.61	1	generate	Run3	generate/STIM_014.jpg
2108.374	0.867	0	generate	Run3	generate/STIM_015.jpg
2113.165	1.12	1	generate	Run3	generate/STIM_015.jpg
2117.54	1.734	1	generate	Run3	generate/STIM_015.jpg
2122.343	1.075	1	generate	Run3	generate/STIM_015.jpg
2126.092	1.609	1	generate	Run3	generate/STIM_015.jpg
2131.692	0.874	1	generate	Run3	generate/STIM_016.jpg
2135.977	1.089	0	generate	Run3	generate/STIM_016.jpg
2140.439	1.376	1	generate	Run3	generate/STIM_016.jpg
2144.845	1.178	1	generate	Run3	generate/STIM_016.jpg
2148.984	1.728	0	generate	Run3	generate/STIM_016.jpg
2154.192	1.445	1	generate	Run3	generate/STIM_017.jpg
2158.955	0.87	1	generate	Run3	generate/STIM_017.jpg
2163.315	1.695	1	generate	Run3	generate/STIM_017.jpg
2167.339	0.873	1	generate	Run3	generate/STIM_017.jpg
2170.414	0.76	1	generate	Run3	generate/STIM_017.jpg
2173.653	0.863	1	generate	Run3	generate/STIM_018.jpg
2178.522	0.827	0	generate	Run3	generate/STIM_018.jpg
2181.466	1.501	1	generate	Run3	generate/STIM_018.jpg
2185.696	0.883	1	generate	Run3	generate/STIM_018.jpg
2188.705	0.83	1	generate	Run3	generate/STIM_018.jpg
2193.069	0.968	1	generate	Run3	generate/STIM_019.jpg
2196.396	1.636	1	generate	Run3	generate/STIM_019.jpg
2201.04	1.258	1	generate	Run3	generate/STIM_019.jpg
2206.337	1.204	0	generate	Run3	generate/STIM_019.jpg
2210.752	1.046	1	generate	Run3	generate/STIM_019.jpg
2215.458	1.09	1	generate	Run3	generate/STIM_020.jpg
2220.103	0.879	1	generate	Run3	generate/STIM_020.jpg
2223.132	1.795	1	generate	Run3	generate/STIM_020.jpg
2228.76	1.123	1	generate	Run3	generate/STIM_020.jpg
2233.927	1.552	1	generate	Run3	generate/STIM_020.jpg
2239.359	1.05	1	generate	Run3	generate/STIM_021.jpg
2244.099	0.934	1	generate	Run3	generate/STIM_021.jpg
2247.728	1.313	1	generate	Run3	generate/STIM_021.jpg
2251.504	1.424	1	generate	Run3	generate/STIM_021.jpg
2255.865	1.581	1	generate	Run3	generate/STIM_021.jpg
2261.595	0.878	1	generate	Run3	generate/STIM_022.jpg
2265.682	0.852	1	generate	Run3	generate/STIM_022.jpg
2269.284	1.511	1	generate	Run3	generate/STIM_022.jpg
2273.773	0.979	1	generate	Run3	generate/STIM_022.jpg
2277.492	1.556	1	generate	Run3	generate/STIM_022.jpg
2282.598	0.817	1	generate	Run3	generate/STIM_023.jpg
2285.789	0.996	0	generate	Run3	generate/STIM_023.jpg
2289.275	1.076	1	generate	Run3	generate/STIM_023.jpg
2293.94	1.707	1	generate	Run3	generate/STIM_023.jpg
2298.491	1.357	1	generate	Run3	generate/STIM_023.jpg
2302.566	1.459	1	generate	Run3	generate/STIM_024.jpg
2306.451	1.449	1	generate	Run3	generate/STIM_024.jpg
2311.712	1.477	1	generate	Run3	generate/STIM_024.jpg
2316.227	0.783	1	generate	Run3	generate/STIM_024.jpg
2319.656	1.692	1	generate	Run3	generate/STIM_024.jpg
2323.63	0.82	1	repeat	Run3	repeat/STIM_000.jpg
2328.475	0.616	1	repeat	Run3	repeat/STIM_000.jpg
2331.819	0.476	0	repeat	Run3	repeat/STIM_000.jpg
2334.52	0.693	1	repeat	Run3	repeat/STIM_000.jpg
2338.054	0.875	0	repeat	Run3	repeat/STIM_000.jpg
2342.25	0.716	1	repeat	Run3	repeat/STIM_001.jpg
2345.091	0.728	1	repeat	Run3	repeat/STIM_001.jpg
2348.943	0.771	1	repeat	Run3	repeat/STIM_001.jpg
2353.204	0.81	1	repeat	Run3	repeat/STIM_001.jpg
2358.077	0.846	1	repeat	Run3	repeat/STIM_001.jpg
2362.111	0.807	1	repeat	Run3	repeat/STIM_002.jpg
2366.99	0.506	1	repeat	Run3	repeat/STIM_002.jpg
2371.049	0.717	1	repeat	Run3	repeat/STIM_002.jpg
2374.558	0.828	1	repeat	Run3	repeat/STIM_002.jpg
2378.308	0.703	1	repeat	Run3	repeat/STIM_002.jpg
2381.841	0.592	1	repeat	Run3	repeat/STIM_003.jpg
2384.993	0.467	1	repeat	Run3	repeat/STIM_003.jpg
2387.981	0.59	1	repeat	Run3	repeat/STIM_003.jpg
2391.885	0.555	1	repeat	Run3	repeat/STIM_003.jpg
2396.025	0.694	1	repeat	Run3	repeat/STIM_003.jpg
2399.852	0.547	1	repeat	Run3	repeat/STIM_004.jpg
2403.721	0.675	1	repeat	Run3	repeat/STIM_004.jpg
2407.026	0.46	0	repeat	Run3	repeat/STIM_004.jpg
2409.973	0.545	1	repeat	Run3	repeat/STIM_004.jpg
2412.807	0.772	1	repeat	Run3	repeat/STIM_004.jpg
2416.158	0.602	1	repeat	Run3	repeat/STIM_005.jpg
2419.904	0.754	1	repeat	Run3	repeat/STIM_005.jpg
2423.796	0.474	1	repeat	Run3	repeat/STIM_005.jpg
2426.767	0.633	1	repeat	Run3	repeat/STIM_005.jpg
2431.119	0.586	1	repeat	Run3	repeat/STIM_005.jpg
2434.895	0.809	1	repeat	Run3	repeat/STIM_006.jpg
2438.946	0.461	1	repeat	Run3	repeat/STIM_006.jpg
2442.358	0.468	0	repeat	Run3	repeat/STIM_006.jpg
2446.052	0.559	1	repeat	Run3	repeat/STIM_006.jpg
2449.62	0.55	1	repeat	Run3	repeat/STIM_006.jpg
2453.452	0.613	1	repeat	Run3	repeat/STIM_007.jpg
2457.137	0.516	1	repeat	Run3	repeat/STIM_007.jpg
2459.908	0.558	1	repeat	Run3	repeat/STIM_007.jpg
2464.308	0.772	1	repeat	Run3	repeat/STIM_007.jpg
2468.838	0.831	1	repeat	Run3	repeat/STIM_007.jpg
2472.38	0.633	1	repeat	Run3	repeat/STIM_008.jpg
2475.716	0.789	1	repeat	Run3	repeat/STIM_008.jpg
2479.545	0.637	1	repeat	Run3	repeat/STIM_008.jpg
2482.736	0.85	1	repeat	Run3	repeat/STIM_008.jpg
2486.395	0.857	1	repeat	Run3	repeat/STIM_008.jpg
2491.104	0.572	1	repeat	Run3	repeat/STIM_009.jpg
2494.344	0.603	1	repeat	Run3	repeat/STIM_009.jpg
2497.134	0.789	1	repeat	Run3	repeat/STIM_009.jpg
2500.14	0.736	1	repeat	Run3	repeat/STIM_009.jpg
2504.376	0.804	1	repeat	Run3	repeat/STIM_009.jpg
2508.551	0.773	0	repeat	Run3	repeat/STIM_010.jpg
2511.635	0.56	1	repeat	Run3	repeat/STIM_010.jpg
2515.383	0.704	1	repeat	Run3	repeat/STIM_010.jpg
2518.821	0.658	1	repeat	Run3	repeat/STIM_010.jpg
2522.37	0.721	0	repeat	Run3	repeat/STIM_010.jpg
2525.659	0.471	1	repeat	Run3	repeat/STIM_011.jpg
2528.444	0.73	1	repeat	Run3	repeat/STIM_011.jpg
2532.023	0.608	1	repeat	Run3	repeat/STIM_011.jpg
2535.034	0.507	1	repeat	Run3	repeat/STIM_011.jpg
2539.455	0.81	1	repeat	Run3	repeat/STIM_011.jpg
2544.182	0.842	1	repeat	Run3	repeat/STIM_012.jpg
2547.762	0.752	1	repeat	Run3	repeat/STIM_012.jpg
2551.266	0.621	1	repeat	Run3	repeat/STIM_012.jpg
2554.745	0.504	1	repeat	Run3	repeat/STIM_012.jpg
2558.356	0.583	1	repeat	Run3	repeat/STIM_012.jpg
2561.314	0.47	1	repeat	Run3	repeat/STIM_013.jpg
2564.281	0.857	1	repeat	Run3	repeat/STIM_013.jpg
2568.792	0.737	0	repeat	Run3	repeat/STIM_013.jpg
2571.62	0.634	1	repeat	Run3	repeat/STIM_013.jpg
2576.104	0.829	1	repeat	Run3	repeat/STIM_013.jpg
2579.74	0.668	1	repeat	Run3	repeat/STIM_014.jpg
2584.133	0.736	1	repeat	Run3	repeat/STIM_014.jpg
2587.214	0.734	1	repeat	Run3	repeat/STIM_014.jpg
2590.7	0.656	1	repeat	Run3	repeat/STIM_014.jpg
2595.055	0.873	1	repeat	Run3	repeat/STIM_014.jpg
2599.87	0.848	1	generate	Run4	generate/STIM_000.jpg
2604.183	0.939	1	generate	Run4	generate/STIM_000.jpg
2607.638	0.976	1	generate	Run4	generate/STIM_000.jpg
2612.557	0.888	1	generate	Run4	generate/STIM_000.jpg
2616.194	1.77	1	generate	Run4	generate/STIM_000.jpg
2621.16	1.555	1	generate	Run4	generate/STIM_001.jpg
2626.173	1.268	1	generate	Run4	generate/STIM_001.jpg
2631.25	1.599	1	generate	Run4	generate/STIM_001.jpg
2636.934	0.756	1	generate	Run4	generate/STIM_001.jpg
2640.718	1.803	1	generate	Run4	generate/STIM_001.jpg
2646.177	1.324	1	generate	Run4	generate/STIM_002.jpg
2650.448	0.871	1	generate	Run4	generate/STIM_002.jpg
2654.744	1.344	1	generate	Run4	generate/STIM_002.jpg
2660.168	1.718	1	generate	Run4	generate/STIM_002.jpg
2664.898	1.539	1	generate	Run4	generate/STIM_002.jpg
2669.5	1.29	1	generate	Run4	generate/STIM_003.jpg
2674.068	1.746	1	generate	Run4	generate/STIM_003.jpg
2679.744	0.986	1	generate	Run4	generate/STIM_003.jpg
2683.702	1.449	1	generate	Run4	generate/STIM_003.jpg
2688.561	1.034	1	generate	Run4	generate/STIM_003.jpg
2692.841	0.786	1	generate	Run4	generate/STIM_004.jpg
2696.344	1.261	1	generate	Run4	generate/STIM_004.jpg
2700.31	1.664	1	generate	Run4	generate/STIM_004.jpg
2705.33	1.107	1	generate	Run4	generate/STIM_004.jpg
2709.64	0.95	1	generate	Run4	generate/STIM_004.jpg
2714.357	1.388	1	generate	Run4	generate/STIM_005.jpg
2719.624	1.403	1	generate	Run4	generate/STIM_005.jpg
2724.229	1.797	1	generate	Run4	generate/STIM_005.jpg
2728.269	1.497	0	generate	Run4	generate/STIM_005.jpg
2732.939	1.801	1	generate	Run4	generate/STIM_005.jpg
2736.991	0.968	1	generate	Run4	generate/STIM_006.jpg
2740.595	1.67	1	generate	Run4	generate/STIM_006.jpg
2745.658	1.79	1	generate	Run4	generate/STIM_006.jpg
2749.712	0.758	1	generate	Run4	generate/STIM_006.jpg
2753.702	1.646	1	generate	Run4	generate/STIM_006.jpg
2759.382	1.66	1	generate	Run4	generate/STIM_007.jpg
2763.294	1.564	1	generate	Run4	generate/STIM_007.jpg
2768.194	0.997	1	generate	Run4	generate/STIM_007.jpg
2771.784	1.044	1	generate	Run4	generate/STIM_007.jpg
2776.523	1.722	1	generate	Run4	generate/STIM_007.jpg
2780.767	1.558	1	generate	Run4	generate/STIM_008.jpg
2784.95	1.567	1	generate	Run4	generate/STIM_008.jpg
2788.98	1.769	1	generate	Run4	generate/STIM_008.jpg
2793.559	1.22	1	generate	Run4	generate/STIM_008.jpg
2797.503	1.787	1	generate	Run4	generate/STIM_008.jpg
2803.176	1.849	1	generate	Run4	generate/STIM_009.jpg
2808.043	0.858	1	generate	Run4	generate/STIM_009.jpg
2812.219	1.293	1	generate	Run4	generate/STIM_009.jpg
2816.491	0.885	1	generate	Run4	generate/STIM_009.jpg
2820.295	0.922	1	generate	Run4	generate/STIM_009.jpg
2823.831	1.523	1	generate	Run4	generate/STIM_010.jpg
2828.521	1.797	1	generate	Run4	generate/STIM_010.jpg
2832.897	1.049	1	generate	Run4	generate/STIM_010.jpg
2837.41	1.77	1	generate	Run4	generate/STIM_010.jpg
2842.218	1.231	1	generate	Run4	generate/STIM_010.jpg
2846.682	0.783	1	generate	Run4	generate/STIM_011.jpg
2850.712	1.182	1	generate	Run4	generate/STIM_011.jpg
2854.677	1.529	1	generate	Run4	generate/STIM_011.jpg
2859.918	1.721	1	generate	Run4	generate/STIM_011.jpg
2863.938	1.74	1	generate	Run4	generate/STIM_011.jpg
2868.532	1.232	1	generate	Run4	generate/STIM_012.jpg
2872.161	1.616	1	generate	Run4	generate/STIM_012.jpg
2876.367	1.377	1	generate	Run4	generate/STIM_012.jpg
2880.251	1.309	1	generate	Run4	generate/STIM_012.jpg
2884.599	0.981	1	generate	Run4	generate/STIM_012.jpg
2889.249	0.892	1	generate	Run4	generate/STIM_013.jpg
2893.527	1.318	1	generate	Run4	generate/STIM_013.jpg
2898.905	0.982	1	generate	Run4	generate/STIM_013.jpg
2902.374	1.36	1	generate	Run4	generate/STIM_013.jpg
2907.228	1.621	1	generate	Run4	generate/STIM_013.jpg
2911.416	1.22	1	generate	Run4	generate/STIM_014.jpg
2915.648	1.622	1	generate	Run4	generate/STIM_014.jpg
2920.484	1.318	1	generate	Run4	generate/STIM_014.jpg
2924.215	1.214	1	generate	Run4	generate/STIM_014.jpg
2929.23	1.604	1	generate	Run4	generate/STIM_014.jpg
2934.103	1.375	0	generate	Run4	generate/STIM_015.jpg
2939.55	1.273	1	generate	Run4	generate/STIM_015.jpg
2943.969	1.265	1	generate	Run4	generate/STIM_015.jpg
2948.791	1.858	1	generate	Run4	generate/STIM_015.jpg
2954.225	1.61	0	generate	Run4	generate/STIM_015.jpg
2958.12	0.786	1	generate	Run4	generate/STIM_016.jpg
2961.723	1.325	1	generate	Run4	generate/STIM_016.jpg
2965.606	1.021	1	generate	Run4	generate/STIM_016.jpg
2969.71	1.257	1	generate	Run4	generate/STIM_016.jpg
2974.671	1.101	1	generate	Run4	generate/STIM_016.jpg
2978.632	1.301	1	generate	Run4	generate/STIM_017.jpg
2983.332	0.832	1	generate	Run4	generate/STIM_017.jpg
2986.414	1.08	1	generate	Run4	generate/STIM_017.jpg
2990.742	1.494	1	generate	Run4	generate/STIM_017.jpg
2994.771	1.434	1	generate	Run4	generate/STIM_017.jpg
3000.156	1.614	1	generate	Run4	generate/STIM_018.jpg
3004.894	0.994	1	generate	Run4	generate/STIM_018.jpg
3008.361	1.707	1	generate	Run4	generate/STIM_018.jpg
3014.022	0.964	1	generate	Run4	generate/STIM_018.jpg
3017.699	1.484	0	generate	Run4	generate/STIM_018.jpg
3022.665	0.871	1	generate	Run4	generate/STIM_019.jpg
3026.712	1.738	1	generate	Run4	generate/STIM_019.jpg
3032.474	1.806	1	generate	Run4	generate/STIM_019.jpg
3037.53	1.54	1	generate	Run4	generate/STIM_019.jpg
3041.82	1.215	1	generate	Run4	generate/STIM_019.jpg
3046.405	1.716	1	generate	Run4	generate/STIM_020.jpg
3051.89	0.857	1	generate	Run4	generate/STIM_020.jpg
3055.83	1.187	1	generate	Run4	generate/STIM_020.jpg
3060.622	0.952	1	generate	Run4	generate/STIM_020.jpg
3065.24	0.935	1	generate	Run4	generate/STIM_020.jpg
3068.649	0.756	1	generate	Run4	generate/STIM_021.jpg
3072.733	1.383	1	generate	Run4	generate/STIM_021.jpg
3077.423	1.462	1	generate	Run4	generate/STIM_021.jpg
3082.04	1.666	1	generate	Run4	generate/STIM_021.jpg
3086.526	1.641	1	generate	Run4	generate/STIM_021.jpg
3092.1	0.852	1	generate	Run4	generate/STIM_022.jpg
3096.243	1.054	1	generate	Run4	generate/STIM_022.jpg
3100.131	1.737	1	generate	Run4	generate/STIM_022.jpg
3104.268	0.846	1	generate	Run4	generate/STIM_022.jpg
3108.413	1.032	1	generate	Run4	generate/STIM_022.jpg
3112.781	1.613	1	generate	Run4	generate/STIM_023.jpg
3118.423	0.766	1	generate	Run4	generate/STIM_023.jpg
3122.164	1.637	1	generate	Run4	generate/STIM_023.jpg
3127.406	1.769	1	generate	Run4	generate/STIM_023.jpg
3132.993	0.802	1	generate	Run4	generate/STIM_023.jpg
3137.824	1.588	1	generate	Run4	generate/STIM_024.jpg
3143.572	1.169	1	generate	Run4	generate/STIM_024.jpg
3147.632	1.805	1	generate	Run4	generate/STIM_024.jpg
3152.521	0.948	1	generate	Run4	generate/STIM_024.jpg
3156.155	0.774	1	generate	Run4	generate/STIM_024.jpg
3160.609	0.717	1	repeat	Run4	repeat/STIM_000.jpg
3163.43	0.787	0	repeat	Run4	repeat/STIM_000.jpg
3167.073	0.675	1	repeat	Run4	repeat/STIM_000.jpg
3170.338	0.509	1	repeat	Run4	repeat/STIM_000.jpg
3173.507	0.861	1	repeat	Run4	repeat/STIM_000.jpg
3177.164	0.736	1	repeat	Run4	repeat/STIM_001.jpg
3181.449	0.851	1	repeat	Run4	repeat/STIM_001.jpg
3185.495	0.61	1	repeat	Run4	repeat/STIM_001.jpg
3190.042	0.484	1	repeat	Run4	repeat/STIM_001.jpg
3192.697	0.821	1	repeat	Run4	repeat/STIM_001.jpg
3196.368	0.849	1	repeat	Run4	repeat/STIM_002.jpg
3200.417	0.751	1	repeat	Run4	repeat/STIM_002.jpg
3204.997	0.848	1	repeat	Run4	repeat/STIM_002.jpg
3209.739	0.779	1	repeat	Run4	repeat/STIM_002.jpg
3213.259	0.608	1	repeat	Run4	repeat/STIM_002.jpg
3216.097	0.585	1	repeat	Run4	repeat/STIM_003.jpg
3219.393	0.726	1	repeat	Run4	repeat/STIM_003.jpg
3223.18	0.729	0	repeat	Run4	repeat/STIM_003.jpg
3227.58	0.849	1	repeat	Run4	repeat/STIM_003.jpg
3231.751	0.604	1	repeat	Run4	repeat/STIM_003.jpg
3234.489	0.834	1	repeat	Run4	repeat/STIM_004.jpg
3237.864	0.852	1	repeat	Run4	repeat/STIM_004.jpg
3241.912	0.602	1	repeat	Run4	repeat/STIM_004.jpg
3246.255	0.754	0	repeat	Run4	repeat/STIM_004.jpg
3249.635	0.56	1	repeat	Run4	repeat/STIM_004.jpg
3253.685	0.492	1	repeat	Run4	repeat/STIM_005.jpg
3257.349	0.866	1	repeat	Run4	repeat/STIM_005.jpg
3261.68	0.458	1	repeat	Run4	repeat/STIM_005.jpg
3265.953	0.611	1	repeat	Run4	repeat/STIM_005.jpg
3270.298	0.718	1	repeat	Run4	repeat/STIM_005.jpg
3274.373	0.886	1	repeat	Run4	repeat/STIM_006.jpg
3278.68	0.452	1	repeat	Run4	repeat/STIM_006.jpg
3281.29	0.615	1	repeat	Run4	repeat/STIM_006.jpg
3285.589	0.651	1	repeat	Run4	repeat/STIM_006.jpg
3289.856	0.483	1	repeat	Run4	repeat/STIM_006.jpg
3293.692	0.51	1	repeat	Run4	repeat/STIM_007.jpg
3297.888	0.861	1	repeat	Run4	repeat/STIM_007.jpg
3301.437	0.856	1	repeat	Run4	repeat/STIM_007.jpg
3305.76	0.601	1	repeat	Run4	repeat/STIM_007.jpg
3308.918	0.566	1	repeat	Run4	repeat/STIM_007.jpg
3312.28	0.875	1	repeat	Run4	repeat/STIM_008.jpg
3315.55	0.829	1	repeat	Run4	repeat/STIM_008.jpg
3320.141	0.647	1	repeat	Run4	repeat/STIM_008.jpg
3324.552	0.577	1	repeat	Run4	repeat/STIM_008.jpg
3327.362	0.46	1	repeat	Run4	repeat/STIM_008.jpg
3330.101	0.535	1	repeat	Run4	repeat/STIM_009.jpg
3334.319	0.46	1	repeat	Run4	repeat/STIM_009.jpg
3337.927	0.611	1	repeat	Run4	repeat/STIM_009.jpg
3340.853	0.707	1	repeat	Run4	repeat/STIM_009.jpg
3344.625	0.491	1	repeat	Run4	repeat/STIM_009.jpg
3347.457	0.766	1	repeat	Run4	repeat/STIM_010.jpg
3350.367	0.53	1	repeat	Run4	repeat/STIM_010.jpg
3353.387	0.543	1	repeat	Run4	repeat/STIM_010.jpg
3357.232	0.612	1	repeat	Run4	repeat/STIM_010.jpg
3360.903	0.747	1	repeat	Run4	repeat/STIM_010.jpg
3363.834	0.594	1	repeat	Run4	repeat/STIM_011.jpg
3367.717	0.767	1	repeat	Run4	repeat/STIM_011.jpg
3372.013	0.715	1	repeat	Run4	repeat/STIM_011.jpg
3376.472	0.869	1	repeat	Run4	repeat/STIM_011.jpg
3381.252	0.89	1	repeat	Run4	repeat/STIM_011.jpg
3385.373	0.703	1	repeat	Run4	repeat/STIM_012.jpg
3388.305	0.632	1	repeat	Run4	repeat/STIM_012.jpg
3392.845	0.637	0	repeat	Run4	repeat/STIM_012.jpg
3397.256	0.822	1	repeat	Run4	repeat/STIM_012.jpg
3400.877	0.658	1	repeat	Run4	repeat/STIM_012.jpg
3404.347	0.453	1	repeat	Run4	repeat/STIM_013.jpg
3408.583	0.81	1	repeat	Run4	repeat/STIM_013.jpg
3411.971	0.794	1	repeat	Run4	repeat/STIM_013.jpg
3416.583	0.576	1	repeat	Run4	repeat/STIM_013.jpg
3419.613	0.757	1	repeat	Run4	repeat/STIM_013.jpg
3424.06	0.603	1	repeat	Run4	repeat/STIM_014.jpg
3427.865	0.687	1	repeat	Run4	repeat/STIM_014.jpg
3431.865	0.584	1	repeat	Run4	repeat/STIM_014.jpg
3435.398	0.832	1	repeat	Run4	repeat/STIM_014.jpg
3438.745	0.84	1	repeat	Run4	repeat/STIM_014.jpg
