onset	duration	accuracy	trial_type	learning_stage	stimulus
0.0	1.823	incorrect	generate	Run1	generate/STIM_000.jpg
5.749	2.468	correct	generate	Run1	generate/STIM_000.jpg
10.372	3.342	correct	generate	Run1	generate/STIM_000.jpg
17.426	2.765	correct	generate	Run1	generate/STIM_000.jpg
23.396	2.294	correct	generate	Run1	generate/STIM_000.jpg
29.184	1.801	correct	generate	Run1	generate/STIM_001.jpg
33.186	2.211	correct	generate	Run1	generate/STIM_001.jpg
39.247	1.93	correct	generate	Run1	generate/STIM_001.jpg
43.776	1.29	correct	generate	Run1	generate/STIM_001.jpg
48.447	2.129	correct	generate	Run1	generate/STIM_001.jpg
54.531	2.395	correct	generate	Run1	generate/STIM_002.jpg
59.856	2.836	correct	generate	Run1	generate/STIM_002.jpg
65.397	1.859	correct	generate	Run1	generate/STIM_002.jpg
69.437	2.586	correct	generate	Run1	generate/STIM_002.jpg
74.153	2.028	correct	generate	Run1	generate/STIM_002.jpg
79.762	3.423	correct	generate	Run1	generate/STIM_003.jpg
85.84	2.772	correct	generate	Run1	generate/STIM_003.jpg
91.224	3.272	correct	generate	Run1	generate/STIM_003.jpg
97.879	2.202	correct	generate	Run1	generate/STIM_003.jpg
102.564	1.752	correct	generate	Run1	generate/STIM_003.jpg
106.841	3.403	correct	generate	Run1	generate/STIM_004.jpg
112.808	3.486	correct	generate	Run1	generate/STIM_004.jpg
118.543	1.486	correct	generate	Run1	generate/STIM_004.jpg
122.688	1.522	incorrect	generate	Run1	generate/STIM_004.jpg
127.677	2.306	correct	generate	Run1	generate/STIM_004.jpg
132.001	3.491	incorrect	generate	Run1	generate/STIM_005.jpg
139.4	3.089	correct	generate	Run1	generate/STIM_005.jpg
145.136	1.404	correct	generate	Run1	generate/STIM_005.jpg
149.69	2.978	correct	generate	Run1	generate/STIM_005.jpg
155.314	1.541	correct	generate	Run1	generate/STIM_005.jpg
159.491	3.108	correct	generate	Run1	generate/STIM_006.jpg
165.717	3.517	correct	generate	Run1	generate/STIM_006.jpg
172.898	3.121	correct	generate	Run1	generate/STIM_006.jpg
178.176	2.567	correct	generate	Run1	generate/STIM_006.jpg
183.334	2.043	correct	generate	Run1	generate/STIM_006.jpg
188.993	2.817	correct	generate	Run1	generate/STIM_007.jpg
194.724	3.162	correct	generate	Run1	generate/STIM_007.jpg
199.953	2.135	correct	generate	Run1	generate/STIM_007.jpg
204.26	1.552	correct	generate	Run1	generate/STIM_007.jpg
208.575	1.22	correct	generate	Run1	generate/STIM_007.jpg
212.563	2.677	correct	generate	Run1	generate/STIM_008.jpg
218.515	1.822	correct	generate	Run1	generate/STIM_008.jpg
222.454	3.247	correct	generate	Run1	generate/STIM_008.jpg
228.115	1.717	correct	generate	Run1	generate/STIM_008.jpg
233.475	2.063	correct	generate	Run1	generate/STIM_008.jpg
238.573	1.797	correct	generate	Run1	generate/STIM_009.jpg
244.158	3.391	correct	generate	Run1	generate/STIM_009.jpg
250.558	3.018	correct	generate	Run1	generate/STIM_009.jpg
256.926	1.527	correct	generate	Run1	generate/STIM_009.jpg
260.975	2.808	correct	generate	Run1	generate/STIM_009.jpg
265.88	2.279	correct	generate	Run1	generate/STIM_010.jpg
270.175	2.21	correct	generate	Run1	generate/STIM_010.jpg
275.71	2.398	correct	generate	Run1	generate/STIM_010.jpg
280.209	1.322	correct	generate	Run1	generate/STIM_010.jpg
284.913	2.84	correct	generate	Run1	generate/STIM_010.jpg
291.306	1.885	correct	generate	Run1	generate/STIM_011.jpg
295.703	3.038	correct	generate	Run1	generate/STIM_011.jpg
301.982	1.405	incorrect	generate	Run1	generate/STIM_011.jpg
306.834	2.779	correct	generate	Run1	generate/STIM_011.jpg
312.015	1.676	correct	generate	Run1	generate/STIM_011.jpg
317.506	2.983	correct	generate	Run1	generate/STIM_012.jpg
322.656	3.25	correct	generate	Run1	generate/STIM_012.jpg
329.44	2.443	correct	generate	Run1	generate/STIM_012.jpg
335.841	2.438	correct	generate	Run1	generate/STIM_012.jpg
340.63	2.096	correct	generate	Run1	generate/STIM_012.jpg
345.312	1.918	correct	generate	Run1	generate/STIM_013.jpg
350.018	1.92	correct	generate	Run1	generate/STIM_013.jpg
353.993	2.656	correct	generate	Run1	generate/STIM_013.jpg
359.557	2.542	correct	generate	Run1	generate/STIM_013.jpg
365.359	1.381	correct	generate	Run1	generate/STIM_013.jpg
370.58	2.958	correct	generate	Run1	generate/STIM_014.jpg
375.633	3.409	correct	generate	Run1	generate/STIM_014.jpg
381.729	1.641	correct	generate	Run1	generate/STIM_014.jpg
386.185	2.867	correct	generate	Run1	generate/STIM_014.jpg
392.548	2.011	correct	generate	Run1	generate/STIM_014.jpg
397.128	2.974	correct	generate	Run1	generate/STIM_015.jpg
403.802	2.452	incorrect	generate	Run1	generate/STIM_015.jpg
409.792	2.51	correct	generate	Run1	generate/STIM_015.jpg
416.144	2.924	correct	generate	Run1	generate/STIM_015.jpg
421.623	1.804	correct	generate	Run1	generate/STIM_015.jpg
425.621	2.37	incorrect	generate	Run1	generate/STIM_016.jpg
431.094	1.681	correct	generate	Run1	generate/STIM_016.jpg
435.679	3.238	correct	generate	Run1	generate/STIM_016.jpg
442.892	2.39	correct	generate	Run1	generate/STIM_016.jpg
448.764	1.442	correct	generate	Run1	generate/STIM_016.jpg
452.789	2.074	incorrect	generate	Run1	generate/STIM_017.jpg
457.502	1.531	correct	generate	Run1	generate/STIM_017.jpg
462.628	3.183	correct	generate	Run1	generate/STIM_017.jpg
469.319	2.688	correct	generate	Run1	generate/STIM_017.jpg
474.201	2.626	correct	generate	Run1	generate/STIM_017.jpg
479.286	1.782	correct	generate	Run1	generate/STIM_018.jpg
483.165	2.151	correct	generate	Run1	generate/STIM_018.jpg
487.539	1.732	correct	generate	Run1	generate/STIM_018.jpg
492.137	1.493	correct	generate	Run1	generate/STIM_018.jpg
497.084	2.905	correct	generate	Run1	generate/STIM_018.jpg
502.322	3.635	correct	generate	Run1	generate/STIM_019.jpg
508.581	3.288	correct	generate	Run1	generate/STIM_019.jpg
514.74	1.361	correct	generate	Run1	generate/STIM_019.jpg
518.489	2.652	correct	generate	Run1	generate/STIM_019.jpg
523.166	1.302	correct	generate	Run1	generate/STIM_019.jpg
526.767	2.76	correct	generate	Run1	generate/STIM_020.jpg
532.133	2.639	correct	generate	Run1	generate/STIM_020.jpg
538.765	1.815	correct	generate	Run1	generate/STIM_020.jpg
544.173	1.279	correct	generate	Run1	generate/STIM_020.jpg
548.169	1.455	correct	generate	Run1	generate/STIM_020.jpg
552.436	3.5	correct	generate	Run1	generate/STIM_021.jpg
559.292	1.632	correct	generate	Run1	generate/STIM_021.jpg
563.138	2.057	correct	generate	Run1	generate/STIM_021.jpg
568.331	3.164	correct	generate	Run1	generate/STIM_021.jpg
573.923	1.385	correct	generate	Run1	generate/STIM_021.jpg
577.771	2.723	correct	generate	Run1	generate/STIM_022.jpg
583.529	2.2	correct	generate	Run1	generate/STIM_022.jpg
588.666	2.791	correct	generate	Run1	generate/STIM_022.jpg
593.535	3.137	correct	generate	Run1	generate/STIM_022.jpg
599.827	2.86	incorrect	generate	Run1	generate/STIM_022.jpg
604.888	2.2	correct	generate	Run1	generate/STIM_023.jpg
610.585	2.814	correct	generate	Run1	generate/STIM_023.jpg
615.555	2.568	correct	generate	Run1	generate/STIM_023.jpg
621.771	3.041	correct	generate	Run1	generate/STIM_023.jpg
628.316	2.288	correct	generate	Run1	generate/STIM_023.jpg
633.288	1.822	correct	generate	Run1	generate/STIM_024.jpg
637.47	2.652	correct	generate	Run1	generate/STIM_024.jpg
643.023	1.433	correct	generate	Run1	generate/STIM_024.jpg
648.377	1.572	incorrect	generate	Run1	generate/STIM_024.jpg
653.453	1.302	correct	generate	Run1	generate/STIM_024.jpg
658.018	0.854	correct	repeat	Run1	repeat/STIM_000.jpg
662.673	1.041	correct	repeat	Run1	repeat/STIM_000.jpg
667.102	0.899	correct	repeat	Run1	repeat/STIM_000.jpg
671.625	0.974	correct	repeat	Run1	repeat/STIM_000.jpg
676.018	1.243	correct	repeat	Run1	repeat/STIM_000.jpg
681.148	1.143	correct	repeat	Run1	repeat/STIM_001.jpg
685.143	0.837	correct	repeat	Run1	repeat/STIM_001.jpg
689.36	0.671	correct	repeat	Run1	repeat/STIM_001.jpg
693.394	0.664	correct	repeat	Run1	repeat/STIM_001.jpg
696.368	0.702	correct	repeat	Run1	repeat/STIM_001.jpg
700.021	1.12	correct	repeat	Run1	repeat/STIM_002.jpg
703.454	1.134	correct	repeat	Run1	repeat/STIM_002.jpg
707.86	0.855	correct	repeat	Run1	repeat/STIM_002.jpg
712.63	0.778	correct	repeat	Run1	repeat/STIM_002.jpg
716.594	0.673	correct	repeat	Run1	repeat/STIM_002.jpg
719.54	0.987	correct	repeat	Run1	repeat/STIM_003.jpg
723.276	1.003	correct	repeat	Run1	repeat/STIM_003.jpg
726.692	0.732	correct	repeat	Run1	repeat/STIM_003.jpg
731.092	0.763	correct	repeat	Run1	repeat/STIM_003.jpg
735.688	0.708	correct	repeat	Run1	repeat/STIM_003.jpg
740.12	1.175	correct	repeat	Run1	repeat/STIM_004.jpg
743.84	1.121	correct	repeat	Run1	repeat/STIM_004.jpg
747.588	0.855	correct	repeat	Run1	repeat/STIM_004.jpg
751.715	0.684	correct	repeat	Run1	repeat/STIM_004.jpg
754.557	0.91	correct	repeat	Run1	repeat/STIM_004.jpg
758.674	0.637	correct	repeat	Run1	repeat/STIM_005.jpg
762.308	0.969	correct	repeat	Run1	repeat/STIM_005.jpg
765.684	0.653	correct	repeat	Run1	repeat/STIM_005.jpg
769.36	0.79	correct	repeat	Run1	repeat/STIM_005.jpg
773.867	1.11	correct	repeat	Run1	repeat/STIM_005.jpg
777.872	1.106	correct	repeat	Run1	repeat/STIM_006.jpg
782.318	0.638	correct	repeat	Run1	repeat/STIM_006.jpg
785.676	1.05	correct	repeat	Run1	repeat/STIM_006.jpg
789.177	1.001	correct	repeat	Run1	repeat/STIM_006.jpg
793.518	1.249	incorrect	repeat	Run1	repeat/STIM_006.jpg
796.815	0.647	correct	repeat	Run1	repeat/STIM_007.jpg
799.594	0.718	correct	repeat	Run1	repeat/STIM_007.jpg
803.344	1.178	correct	repeat	Run1	repeat/STIM_007.jpg
807.846	0.643	correct	repeat	Run1	repeat/STIM_007.jpg
811.075	0.891	correct	repeat	Run1	repeat/STIM_007.jpg
814.112	0.929	correct	repeat	Run1	repeat/STIM_008.jpg
817.88	0.798	correct	repeat	Run1	repeat/STIM_008.jpg
821.471	1.226	correct	repeat	Run1	repeat/STIM_008.jpg
826.421	0.769	correct	repeat	Run1	repeat/STIM_008.jpg
830.624	1.207	correct	repeat	Run1	repeat/STIM_008.jpg
834.035	0.651	correct	repeat	Run1	repeat/STIM_009.jpg
836.892	0.626	correct	repeat	Run1	repeat/STIM_009.jpg
840.105	0.978	correct	repeat	Run1	repeat/STIM_009.jpg
843.613	1.16	correct	repeat	Run1	repeat/STIM_009.jpg
848.578	0.649	correct	repeat	Run1	repeat/STIM_009.jpg
853.2	0.945	correct	repeat	Run1	repeat/STIM_010.jpg
856.93	1.121	correct	repeat	Run1	repeat/STIM_010.jpg
861.947	0.976	correct	repeat	Run1	repeat/STIM_010.jpg
866.369	0.989	correct	repeat	Run1	repeat/STIM_010.jpg
870.151	0.629	correct	repeat	Run1	repeat/STIM_010.jpg
873.72	0.79	correct	repeat	Run1	repeat/STIM_011.jpg
877.717	0.773	correct	repeat	Run1	repeat/STIM_011.jpg
880.507	1.25	correct	repeat	Run1	repeat/STIM_011.jpg
885.15	0.766	correct	repeat	Run1	repeat/STIM_011.jpg
888.224	1.042	correct	repeat	Run1	repeat/STIM_011.jpg
891.703	0.769	correct	repeat	Run1	repeat/STIM_012.jpg
895.755	0.664	correct	repeat	Run1	repeat/STIM_012.jpg
899.162	0.709	correct	repeat	Run1	repeat/STIM_012.jpg
902.374	0.761	correct	repeat	Run1	repeat/STIM_012.jpg
905.896	0.936	correct	repeat	Run1	repeat/STIM_012.jpg
909.334	0.781	correct	repeat	Run1	repeat/STIM_013.jpg
913.417	0.626	correct	repeat	Run1	repeat/STIM_013.jpg
916.954	0.856	correct	repeat	Run1	repeat/STIM_013.jpg
920.608	1.244	correct	repeat	Run1	repeat/STIM_013.jpg
923.875	0.906	correct	repeat	Run1	repeat/STIM_013.jpg
928.178	0.687	incorrect	repeat	Run1	repeat/STIM_014.jpg
931.753	0.704	correct	repeat	Run1	repeat/STIM_014.jpg
936.232	1.084	correct	repeat	Run1	repeat/STIM_014.jpg
940.754	0.795	correct	repeat	Run1	repeat/STIM_014.jpg
944.386	0.707	correct	repeat	Run1	repeat/STIM_014.jpg
947.807	1.854	correct	generate	Run2	generate/STIM_000.jpg
952.225	1.975	correct	generate	Run2	generate/STIM_000.jpg
956.836	2.383	correct	generate	Run2	generate/STIM_000.jpg
962.479	1.278	correct	generate	Run2	generate/STIM_000.jpg
966.864	2.261	correct	generate	Run2	generate/STIM_000.jpg
972.163	2.016	correct	generate	Run2	generate/STIM_001.jpg
977.832	2.405	correct	generate	Run2	generate/STIM_001.jpg
982.248	2.729	incorrect	generate	Run2	generate/STIM_001.jpg
988.165	1.805	correct	generate	Run2	generate/STIM_001.jpg
992.14	2.467	correct	generate	Run2	generate/STIM_001.jpg
998.323	1.477	correct	generate	Run2	generate/STIM_002.jpg
1002.498	2.358	correct	generate	Run2	generate/STIM_002.jpg
1007.584	2.509	incorrect	generate	Run2	generate/STIM_002.jpg
1012.849	1.236	correct	generate	Run2	generate/STIM_002.jpg
1016.159	1.319	correct	generate	Run2	generate/STIM_002.jpg
1019.573	2.065	correct	generate	Run2	generate/STIM_003.jpg
1024.417	1.415	correct	generate	Run2	generate/STIM_003.jpg
1027.991	1.813	correct	generate	Run2	generate/STIM_003.jpg
1032.454	1.599	correct	generate	Run2	generate/STIM_003.jpg
1036.502	1.617	correct	generate	Run2	generate/STIM_003.jpg
1040.541	1.599	correct	generate	Run2	generate/STIM_004.jpg
1045.012	2.609	correct	generate	Run2	generate/STIM_004.jpg
1050.822	1.777	correct	generate	Run2	generate/STIM_004.jpg
1054.758	1.49	correct	generate	Run2	generate/STIM_004.jpg
1059.816	1.476	correct	generate	Run2	generate/STIM_004.jpg
1064.751	1.85	correct	generate	Run2	generate/STIM_005.jpg
1069.227	1.819	correct	generate	Run2	generate/STIM_005.jpg
1074.361	2.233	correct	generate	Run2	generate/STIM_005.jpg
1080.199	1.529	correct	generate	Run2	generate/STIM_005.jpg
1084.376	2.186	correct	generate	Run2	generate/STIM_005.jpg
1088.769	2.602	correct	generate	Run2	generate/STIM_006.jpg
1095.292	1.435	correct	generate	Run2	generate/STIM_006.jpg
1100.7	1.816	correct	generate	Run2	generate/STIM_006.jpg
1106.217	2.113	correct	generate	Run2	generate/STIM_006.jpg
1111.4	1.538	correct	generate	Run2	generate/STIM_006.jpg
1115.272	2.103	correct	generate	Run2	generate/STIM_007.jpg
1119.517	2.288	correct	generate	Run2	generate/STIM_007.jpg
1125.119	1.411	correct	generate	Run2	generate/STIM_007.jpg
1129.656	2.239	correct	generate	Run2	generate/STIM_007.jpg
1134.48	1.695	correct	generate	Run2	generate/STIM_007.jpg
1139.565	2.107	correct	generate	Run2	generate/STIM_008.jpg
1144.747	2.77	correct	generate	Run2	generate/STIM_008.jpg
1150.201	2.252	correct	generate	Run2	generate/STIM_008.jpg
1155.525	1.447	correct	generate	Run2	generate/STIM_008.jpg
1160.908	2.083	correct	generate	Run2	generate/STIM_008.jpg
1165.482	3.009	correct	generate	Run2	generate/STIM_009.jpg
1171.892	2.742	correct	generate	Run2	generate/STIM_009.jpg
1177.062	1.885	correct	generate	Run2	generate/STIM_009.jpg
1181.852	1.186	correct	generate	Run2	generate/STIM_009.jpg
1185.74	2.171	correct	generate	Run2	generate/STIM_009.jpg
1190.964	1.828	correct	generate	Run2	generate/STIM_010.jpg
1195.688	2.483	correct	generate	Run2	generate/STIM_010.jpg
1200.281	2.143	correct	generate	Run2	generate/STIM_010.jpg
1205.846	1.87	correct	generate	Run2	generate/STIM_010.jpg
1211.005	1.867	correct	generate	Run2	generate/STIM_010.jpg
1215.234	3.081	incorrect	generate	Run2	generate/STIM_011.jpg
1220.772	1.633	correct	generate	Run2	generate/STIM_011.jpg
1224.672	1.727	correct	generate	Run2	generate/STIM_011.jpg
1229.322	1.889	correct	generate	Run2	generate/STIM_011.jpg
1234.538	2.596	correct	generate	Run2	generate/STIM_011.jpg
1240.398	2.154	correct	generate	Run2	generate/STIM_012.jpg
1245.143	1.424	correct	generate	Run2	generate/STIM_012.jpg
1249.742	1.915	correct	generate	Run2	generate/STIM_012.jpg
1254.115	1.422	correct	generate	Run2	generate/STIM_012.jpg
1257.945	1.398	correct	generate	Run2	generate/STIM_012.jpg
1262.727	1.511	correct	generate	Run2	generate/STIM_013.jpg
1266.923	1.588	incorrect	generate	Run2	generate/STIM_013.jpg
1271.259	2.612	correct	generate	Run2	generate/STIM_013.jpg
1276.405	1.682	correct	generate	Run2	generate/STIM_013.jpg
1280.278	2.605	correct	generate	Run2	generate/STIM_013.jpg
1286.585	2.26	correct	generate	Run2	generate/STIM_014.jpg
1292.342	1.253	correct	generate	Run2	generate/STIM_014.jpg
1296.85	2.735	correct	generate	Run2	generate/STIM_014.jpg
1302.028	2.442	correct	generate	Run2	generate/STIM_014.jpg
1307.884	2.572	correct	generate	Run2	generate/STIM_014.jpg
1313.08	1.676	correct	generate	Run2	generate/STIM_015.jpg
1316.861	2.441	correct	generate	Run2	generate/STIM_015.jpg
1322.281	1.284	correct	generate	Run2	generate/STIM_015.jpg
1326.192	1.198	correct	generate	Run2	generate/STIM_015.jpg
1330.998	1.675	correct	generate	Run2	generate/STIM_015.jpg
1336.285	2.547	correct	generate	Run2	generate/STIM_016.jpg
1342.686	2.247	correct	generate	Run2	generate/STIM_016.jpg
1347.609	1.205	correct	generate	Run2	generate/STIM_016.jpg
1351.653	2.435	correct	generate	Run2	generate/STIM_016.jpg
1356.791	1.346	correct	generate	Run2	generate/STIM_016.jpg
1360.886	1.969	correct	generate	Run2	generate/STIM_017.jpg
1365.198	2.622	correct	generate	Run2	generate/STIM_017.jpg
1371.356	1.598	correct	generate	Run2	generate/STIM_017.jpg
1375.568	2.23	correct	generate	Run2	generate/STIM_017.jpg
1381.378	1.493	correct	generate	Run2	generate/STIM_017.jpg
1386.64	1.991	correct	generate	Run2	generate/STIM_018.jpg
1391.019	1.961	correct	generate	Run2	generate/STIM_018.jpg
1396.525	1.349	correct	generate	Run2	generate/STIM_018.jpg
1400.478	1.101	incorrect	generate	Run2	generate/STIM_018.jpg
1404.04	2.503	correct	generate	Run2	generate/STIM_018.jpg
1409.521	2.386	correct	generate	Run2	generate/STIM_019.jpg
1415.149	2.512	correct	generate	Run2	generate/STIM_019.jpg
1421.09	2.245	correct	generate	Run2	generate/STIM_019.jpg
1425.968	1.674	correct	generate	Run2	generate/STIM_019.jpg
1430.491	2.097	correct	generate	Run2	generate/STIM_019.jpg
1434.624	1.429	correct	generate	Run2	generate/STIM_020.jpg
1438.378	1.551	correct	generate	Run2	generate/STIM_020.jpg
1443.52	2.408	correct	generate	Run2	generate/STIM_020.jpg
1449.278	1.889	correct	generate	Run2	generate/STIM_020.jpg
1455.012	1.646	correct	generate	Run2	generate/STIM_020.jpg
1458.994	2.492	correct	generate	Run2	generate/STIM_021.jpg
1464.931	1.693	correct	generate	Run2	generate/STIM_021.jpg
1468.949	2.336	correct	generate	Run2	generate/STIM_021.jpg
1474.499	1.586	correct	generate	Run2	generate/STIM_021.jpg
1478.486	1.785	correct	generate	Run2	generate/STIM_021.jpg
1482.732	3.132	correct	generate	Run2	generate/STIM_022.jpg
1488.776	1.26	correct	generate	Run2	generate/STIM_022.jpg
1493.199	2.188	correct	generate	Run2	generate/STIM_022.jpg
1498.911	2.09	correct	generate	Run2	generate/STIM_022.jpg
1503.299	1.502	correct	generate	Run2	generate/STIM_022.jpg
1508.57	1.323	correct	generate	Run2	generate/STIM_023.jpg
1513.421	1.266	correct	generate	Run2	generate/STIM_023.jpg
1518.25	2.079	correct	generate	Run2	generate/STIM_023.jpg
1523.646	1.462	correct	generate	Run2	generate/STIM_023.jpg
1527.75	2.538	correct	generate	Run2	generate/STIM_023.jpg
1532.536	1.557	correct	generate	Run2	generate/STIM_024.jpg
1536.876	2.358	correct	generate	Run2	generate/STIM_024.jpg
1542.089	1.704	correct	generate	Run2	generate/STIM_024.jpg
1546.205	2.554	correct	generate	Run2	generate/STIM_024.jpg
1551.206	2.064	correct	generate	Run2	generate/STIM_024.jpg
1555.875	1.112	correct	repeat	Run2	repeat/STIM_000.jpg
1560.216	1.128	correct	repeat	Run2	repeat/STIM_000.jpg
1565.257	0.811	correct	repeat	Run2	repeat/STIM_000.jpg
1569.477	1.043	correct	repeat	Run2	repeat/STIM_000.jpg
1573.609	0.721	correct	repeat	Run2	repeat/STIM_000.jpg
1577.372	0.914	correct	repeat	Run2	repeat/STIM_001.jpg
1580.993	0.74	correct	repeat	Run2	repeat/STIM_001.jpg
1585.563	1.244	correct	repeat	Run2	repeat/STIM_001.jpg
1590.725	1.043	correct	repeat	Run2	repeat/STIM_001.jpg
1593.849	0.753	correct	repeat	Run2	repeat/STIM_001.jpg
1597.259	0.752	correct	repeat	Run2	repeat/STIM_002.jpg
1601.926	1.034	correct	repeat	Run2	repeat/STIM_002.jpg
1606.815	0.746	correct	repeat	Run2	repeat/STIM_002.jpg
1609.673	0.776	correct	repeat	Run2	repeat/STIM_002.jpg
1613.238	1.12	correct	repeat	Run2	repeat/STIM_002.jpg
1618.162	1.16	correct	repeat	Run2	repeat/STIM_003.jpg
1623.282	0.644	correct	repeat	Run2	repeat/STIM_003.jpg
1626.209	0.781	correct	repeat	Run2	repeat/STIM_003.jpg
1630.597	0.648	correct	repeat	Run2	repeat/STIM_003.jpg
1634.766	0.879	correct	repeat	Run2	repeat/STIM_003.jpg
1639.535	0.889	correct	repeat	Run2	repeat/STIM_004.jpg
1643.364	0.769	correct	repeat	Run2	repeat/STIM_004.jpg
1647.707	0.793	correct	repeat	Run2	repeat/STIM_004.jpg
1652.491	1.157	correct	repeat	Run2	repeat/STIM_004.jpg
1657.099	1.138	correct	repeat	Run2	repeat/STIM_004.jpg
1660.322	1.149	correct	repeat	Run2	repeat/STIM_005.jpg
1664.346	0.742	correct	repeat	Run2	repeat/STIM_005.jpg
1667.807	1.001	correct	repeat	Run2	repeat/STIM_005.jpg
1672.211	1.015	correct	repeat	Run2	repeat/STIM_005.jpg
1676.975	0.749	correct	repeat	Run2	repeat/STIM_005.jpg
1681.284	1.106	correct	repeat	Run2	repeat/STIM_006.jpg
1685.983	0.637	correct	repeat	Run2	repeat/STIM_006.jpg
1690.357	1.206	correct	repeat	Run2	repeat/STIM_006.jpg
1693.931	1.09	correct	repeat	Run2	repeat/STIM_006.jpg
1698.443	0.648	correct	repeat	Run2	repeat/STIM_006.jpg
1702.417	1.012	correct	repeat	Run2	repeat/STIM_007.jpg
1706.64	0.833	correct	repeat	Run2	repeat/STIM_007.jpg
1709.989	0.696	correct	repeat	Run2	repeat/STIM_007.jpg
1713.931	0.841	correct	repeat	Run2	repeat/STIM_007.jpg
1717.359	0.758	correct	repeat	Run2	repeat/STIM_007.jpg
1721.708	0.692	correct	repeat	Run2	repeat/STIM_008.jpg
1725.753	1.102	correct	repeat	Run2	repeat/STIM_008.jpg
1729.528	0.631	correct	repeat	Run2	repeat/STIM_008.jpg
1734.124	0.778	correct	repeat	Run2	repeat/STIM_008.jpg
1738.607	1.118	correct	repeat	Run2	repeat/STIM_008.jpg
1742.474	1.156	correct	repeat	Run2	repeat/STIM_009.jpg
1745.956	1.022	correct	repeat	Run2	repeat/STIM_009.jpg
1750.521	0.855	correct	repeat	Run2	repeat/STIM_009.jpg
1754.678	1.178	correct	repeat	Run2	repeat/STIM_009.jpg
1758.562	1.227	correct	repeat	Run2	repeat/STIM_009.jpg
1762.744	1.042	correct	repeat	Run2	repeat/STIM_010.jpg
1765.82	0.832	correct	repeat	Run2	repeat/STIM_010.jpg
1769.866	0.853	correct	repeat	Run2	repeat/STIM_010.jpg
1772.727	0.78	correct	repeat	Run2	repeat/STIM_010.jpg
1776.996	1.209	correct	repeat	Run2	repeat/STIM_010.jpg
1780.569	0.994	correct	repeat	Run2	repeat/STIM_011.jpg
1785.109	1.088	correct	repeat	Run2	repeat/STIM_011.jpg
1789.031	0.702	correct	repeat	Run2	repeat/STIM_011.jpg
1792.92	1.042	correct	repeat	Run2	repeat/STIM_011.jpg
1795.966	1.059	correct	repeat	Run2	repeat/STIM_011.jpg
1799.843	0.853	correct	repeat	Run2	repeat/STIM_012.jpg
1804.112	0.876	correct	repeat	Run2	repeat/STIM_012.jpg
1808.979	0.738	correct	repeat	Run2	repeat/STIM_012.jpg
1812.082	1.02	correct	repeat	Run2	repeat/STIM_012.jpg
1816.63	0.723	correct	repeat	Run2	repeat/STIM_012.jpg
1820.372	0.662	correct	repeat	Run2	repeat/STIM_013.jpg
1824.022	0.754	correct	repeat	Run2	repeat/STIM_013.jpg
1827.349	1.04	correct	repeat	Run2	repeat/STIM_013.jpg
1831.891	0.881	correct	repeat	Run2	repeat/STIM_013.jpg
1835.877	0.79	correct	repeat	Run2	repeat/STIM_013.jpg
1839.589	1.0	correct	repeat	Run2	repeat/STIM_014.jpg
1843.009	1.226	correct	repeat	Run2	repeat/STIM_014.jpg
1847.068	1.202	correct	repeat	Run2	repeat/STIM_014.jpg
1851.061	1.012	correct	repeat	Run2	repeat/STIM_014.jpg
1855.447	1.197	correct	repeat	Run2	repeat/STIM_014.jpg
1859.704	2.623	correct	generate	Run3	generate/STIM_000.jpg
1864.74	2.208	correct	generate	Run3	generate/STIM_000.jpg
1869.919	1.834	correct	generate	Run3	generate/STIM_000.jpg
1875.549	1.638	correct	generate	Run3	generate/STIM_000.jpg
1880.998	2.199	correct	generate	Run3	generate/STIM_000.jpg
1885.839	1.186	correct	generate	Run3	generate/STIM_001.jpg
1889.7	1.223	correct	generate	Run3	generate/STIM_001.jpg
1894.271	1.175	correct	generate	Run3	generate/STIM_001.jpg
1898.32	1.718	correct	generate	Run3	generate/STIM_001.jpg
1904.034	2.409	correct	generate	Run3	generate/STIM_001.jpg
1908.986	2.599	correct	generate	Run3	generate/STIM_002.jpg
1914.678	2.496	correct	generate	Run3	generate/STIM_002.jpg
1919.825	2.043	correct	generate	Run3	generate/STIM_002.jpg
1924.034	1.249	correct	generate	Run3	generate/STIM_002.jpg
1927.61	1.522	correct	generate	Run3	generate/STIM_002.jpg
1931.989	2.172	correct	generate	Run3	generate/STIM_003.jpg
1937.979	2.004	correct	generate	Run3	generate/STIM_003.jpg
1943.336	2.154	correct	generate	Run3	generate/STIM_003.jpg
1948.298	1.804	correct	generate	Run3	generate/STIM_003.jpg
1954.072	1.956	correct	generate	Run3	generate/STIM_003.jpg
1958.686	2.382	correct	generate	Run3	generate/STIM_004.jpg
1963.211	1.395	correct	generate	Run3	generate/STIM_004.jpg
1968.258	2.115	correct	generate	Run3	generate/STIM_004.jpg
1974.156	2.444	correct	generate	Run3	generate/STIM_004.jpg
1978.686	2.474	correct	generate	Run3	generate/STIM_004.jpg
1984.726	2.494	correct	generate	Run3	generate/STIM_005.jpg
1990.525	2.259	correct	generate	Run3	generate/STIM_005.jpg
1994.976	1.693	correct	generate	Run3	generate/STIM_005.jpg
2000.293	1.652	correct	generate	Run3	generate/STIM_005.jpg
2005.677	1.374	correct	generate	Run3	generate/STIM_005.jpg
2010.205	1.113	correct	generate	Run3	generate/STIM_006.jpg
2014.691	1.962	correct	generate	Run3	generate/STIM_006.jpg
2019.632	2.388	correct	generate	Run3	generate/STIM_006.jpg
2025.362	1.393	correct	generate	Run3	generate/STIM_006.jpg
2029.959	1.575	correct	generate	Run3	generate/STIM_006.jpg
2033.659	1.256	correct	generate	Run3	generate/STIM_007.jpg
2038.617	1.889	correct	generate	Run3	generate/STIM_007.jpg
2043.166	2.045	correct	generate	Run3	generate/STIM_007.jpg
2048.393	1.456	correct	generate	Run3	generate/STIM_007.jpg
2052.701	1.141	correct	generate	Run3	generate/STIM_007.jpg
2057.491	2.564	correct	generate	Run3	generate/STIM_008.jpg
2063.746	1.887	correct	generate	Run3	generate/STIM_008.jpg
2068.329	2.189	correct	generate	Run3	generate/STIM_008.jpg
2072.956	1.316	correct	generate	Run3	generate/STIM_008.jpg
2077.738	1.313	correct	generate	Run3	generate/STIM_008.jpg
2082.392	1.579	correct	generate	Run3	generate/STIM_009.jpg
2086.311	1.922	correct	generate	Run3	generate/STIM_009.jpg
2092.043	1.976	correct	generate	Run3	generate/STIM_009.jpg
2097.228	1.62	correct	generate	Run3	generate/STIM_009.jpg
2102.703	1.482	correct	generate	Run3	generate/STIM_009.jpg
2106.7	1.873	incorrect	generate	Run3	generate/STIM_010.jpg
2112.089	2.522	correct	generate	Run3	generate/STIM_010.jpg
2118.14	2.288	correct	generate	Run3	generate/STIM_010.jpg
2123.697	1.723	correct	generate	Run3	generate/STIM_010.jpg
2128.543	2.597	correct	generate	Run3	generate/STIM_010.jpg
2133.588	1.89	correct	generate	Run3	generate/STIM_011.jpg
2139.248	1.675	correct	generate	Run3	generate/STIM_011.jpg
2144.412	2.056	correct	generate	Run3	generate/STIM_011.jpg
2149.182	1.776	correct	generate	Run3	generate/STIM_011.jpg
2154.387	1.672	correct	generate	Run3	generate/STIM_011.jpg
2159.547	2.44	correct	generate	Run3	generate/STIM_012.jpg
2164.061	1.24	correct	generate	Run3	generate/STIM_012.jpg
2167.434	1.506	correct	generate	Run3	generate/STIM_012.jpg
2171.89	1.945	correct	generate	Run3	generate/STIM_012.jpg
2176.312	1.71	correct	generate	Run3	generate/STIM_012.jpg
2180.124	2.378	correct	generate	Run3	generate/STIM_013.jpg
2185.622	1.51	correct	generate	Run3	generate/STIM_013.jpg
2190.333	1.804	correct	generate	Run3	generate/STIM_013.jpg
2195.555	1.358	correct	generate	Run3	generate/STIM_013.jpg
2199.428	1.366	correct	generate	Run3	generate/STIM_013.jpg
2203.583	2.339	correct	generate	Run3	generate/STIM_014.jpg
2209.354	1.492	correct	generate	Run3	generate/STIM_014.jpg
2213.235	2.013	correct	generate	Run3	generate/STIM_014.jpg
2219.19	1.758	correct	generate	Run3	generate/STIM_014.jpg
2223.63	2.106	correct	generate	Run3	generate/STIM_014.jpg
2227.779	2.128	correct	generate	Run3	generate/STIM_015.jpg
2232.905	1.575	correct	generate	Run3	generate/STIM_015.jpg
2238.055	2.472	correct	generate	Run3	generate/STIM_015.jpg
2242.557	2.498	correct	generate	Run3	generate/STIM_015.jpg
2247.583	1.652	correct	generate	Run3	generate/STIM_015.jpg
2251.241	2.371	correct	generate	Run3	generate/STIM_016.jpg
2256.426	1.856	correct	generate	Run3	generate/STIM_016.jpg
2261.011	1.792	correct	generate	Run3	generate/STIM_016.jpg
2265.867	1.281	correct	generate	Run3	generate/STIM_016.jpg
2270.014	1.844	correct	generate	Run3	generate/STIM_016.jpg
2274.984	2.316	correct	generate	Run3	generate/STIM_017.jpg
2279.315	1.791	correct	generate	Run3	generate/STIM_017.jpg
2284.52	1.899	correct	generate	Run3	generate/STIM_017.jpg
2288.494	1.845	correct	generate	Run3	generate/STIM_017.jpg
2293.375	1.628	correct	generate	Run3	generate/STIM_017.jpg
2297.454	2.5	correct	generate	Run3	generate/STIM_018.jpg
2302.852	1.952	incorrect	generate	Run3	generate/STIM_018.jpg
2308.379	1.41	correct	generate	Run3	generate/STIM_018.jpg
2313.012	2.343	correct	generate	Run3	generate/STIM_018.jpg
2317.787	1.432	correct	generate	Run3	generate/STIM_018.jpg
2321.335	1.187	correct	generate	Run3	generate/STIM_019.jpg
2325.711	1.362	correct	generate	Run3	generate/STIM_019.jpg
2330.43	1.446	correct	generate	Run3	generate/STIM_019.jpg
2334.707	1.633	correct	generate	Run3	generate/STIM_019.jpg
2339.753	1.351	correct	generate	Run3	generate/STIM_019.jpg
2344.772	2.335	correct	generate	Run3	generate/STIM_020.jpg
2349.452	1.495	correct	generate	Run3	generate/STIM_020.jpg
2353.115	2.221	correct	generate	Run3	generate/STIM_020.jpg
2358.527	2.543	correct	generate	Run3	generate/STIM_020.jpg
2364.029	2.186	correct	generate	Run3	generate/STIM_020.jpg
2369.757	1.613	correct	generate	Run3	generate/STIM_021.jpg
2374.572	1.343	correct	generate	Run3	generate/STIM_021.jpg
2379.684	1.223	correct	generate	Run3	generate/STIM_021.jpg
2383.041	2.225	correct	generate	Run3	generate/STIM_021.jpg
2387.654	1.396	correct	generate	Run3	generate/STIM_021.jpg
2391.581	1.331	correct	generate	Run3	generate/STIM_022.jpg
2396.767	2.135	correct	generate	Run3	generate/STIM_022.jpg
2401.066	1.788	correct	generate	Run3	generate/STIM_022.jpg
2406.603	2.011	correct	generate	Run3	generate/STIM_022.jpg
2410.902	1.815	correct	generate	Run3	generate/STIM_022.jpg
2415.391	1.277	correct	generate	Run3	generate/STIM_023.jpg
2420.347	1.653	correct	generate	Run3	generate/STIM_023.jpg
2425.554	2.493	correct	generate	Run3	generate/STIM_023.jpg
2431.899	1.851	correct	generate	Run3	generate/STIM_023.jpg
2437.5	1.571	correct	generate	Run3	generate/STIM_023.jpg
2442.201	1.248	correct	generate	Run3	generate/STIM_024.jpg
2447.431	2.365	correct	generate	Run3	generate/STIM_024.jpg
2451.991	2.28	correct	generate	Run3	generate/STIM_024.jpg
2458.24	2.161	correct	generate	Run3	generate/STIM_024.jpg
2462.726	2.365	correct	generate	Run3	generate/STIM_024.jpg
2468.247	1.216	correct	repeat	Run3	repeat/STIM_000.jpg
2472.794	1.132	correct	repeat	Run3	repeat/STIM_000.jpg
2477.521	0.872	correct	repeat	Run3	repeat/STIM_000.jpg
2482.024	0.871	correct	repeat	Run3	repeat/STIM_000.jpg
2486.097	0.852	correct	repeat	Run3	repeat/STIM_000.jpg
2490.328	1.112	correct	repeat	Run3	repeat/STIM_001.jpg
2493.52	1.085	correct	repeat	Run3	repeat/STIM_001.jpg
2498.186	1.025	correct	repeat	Run3	repeat/STIM_001.jpg
2502.26	0.704	correct	repeat	Run3	repeat/STIM_001.jpg
2505.695	1.153	correct	repeat	Run3	repeat/STIM_001.jpg
2509.836	1.177	correct	repeat	Run3	repeat/STIM_002.jpg
2514.104	1.047	correct	repeat	Run3	repeat/STIM_002.jpg
2517.617	1.022	correct	repeat	Run3	repeat/STIM_002.jpg
2521.844	0.649	correct	repeat	Run3	repeat/STIM_002.jpg
2526.322	0.956	correct	repeat	Run3	repeat/STIM_002.jpg
2530.988	1.035	correct	repeat	Run3	repeat/STIM_003.jpg
2534.338	0.772	correct	repeat	Run3	repeat/STIM_003.jpg
2538.968	0.79	correct	repeat	Run3	repeat/STIM_003.jpg
2543.547	0.746	correct	repeat	Run3	repeat/STIM_003.jpg
2548.08	0.645	correct	repeat	Run3	repeat/STIM_003.jpg
2551.784	1.25	correct	repeat	Run3	repeat/STIM_004.jpg
2556.982	1.114	correct	repeat	Run3	repeat/STIM_004.jpg
2560.406	1.219	incorrect	repeat	Run3	repeat/STIM_004.jpg
2564.861	0.916	correct	repeat	Run3	repeat/STIM_004.jpg
2569.571	0.797	correct	repeat	Run3	repeat/STIM_004.jpg
2573.013	0.751	correct	repeat	Run3	repeat/STIM_005.jpg
2577.336	0.717	correct	repeat	Run3	repeat/STIM_005.jpg
2582.047	1.149	correct	repeat	Run3	repeat/STIM_005.jpg
2585.737	0.734	correct	repeat	Run3	repeat/STIM_005.jpg
2590.111	1.052	correct	repeat	Run3	repeat/STIM_005.jpg
2594.865	0.761	correct	repeat	Run3	repeat/STIM_006.jpg
2598.321	1.188	correct	repeat	Run3	repeat/STIM_006.jpg
2602.353	0.859	correct	repeat	Run3	repeat/STIM_006.jpg
2606.469	1.183	correct	repeat	Run3	repeat/STIM_006.jpg
2611.515	0.638	correct	repeat	Run3	repeat/STIM_006.jpg
2614.307	0.975	correct	repeat	Run3	repeat/STIM_007.jpg
2617.836	1.146	correct	repeat	Run3	repeat/STIM_007.jpg
2621.393	1.071	correct	repeat	Run3	repeat/STIM_007.jpg
2625.285	0.661	correct	repeat	Run3	repeat/STIM_007.jpg
2629.077	0.756	correct	repeat	Run3	repeat/STIM_007.jpg
2632.645	1.24	correct	repeat	Run3	repeat/STIM_008.jpg
2635.99	0.909	correct	repeat	Run3	repeat/STIM_008.jpg
2639.957	0.809	correct	repeat	Run3	repeat/STIM_008.jpg
2643.802	0.63	correct	repeat	Run3	repeat/STIM_008.jpg
2647.812	1.249	correct	repeat	Run3	repeat/STIM_008.jpg
2652.3	0.783	correct	repeat	Run3	repeat/STIM_009.jpg
2655.904	1.198	correct	repeat	Run3	repeat/STIM_009.jpg
2659.94	0.811	correct	repeat	Run3	repeat/STIM_009.jpg
2664.693	0.626	correct	repeat	Run3	repeat/STIM_009.jpg
2667.79	0.817	correct	repeat	Run3	repeat/STIM_009.jpg
2670.826	0.792	correct	repeat	Run3	repeat/STIM_010.jpg
2673.778	1.161	correct	repeat	Run3	repeat/STIM_010.jpg
2678.184	1.007	correct	repeat	Run3	repeat/STIM_010.jpg
2681.588	0.986	correct	repeat	Run3	repeat/STIM_010.jpg
2685.288	0.944	incorrect	repeat	Run3	repeat/STIM_010.jpg
2689.543	1.103	correct	repeat	Run3	repeat/STIM_011.jpg
2693.055	0.983	correct	repeat	Run3	repeat/STIM_011.jpg
2697.725	0.756	correct	repeat	Run3	repeat/STIM_011.jpg
2701.308	0.709	correct	repeat	Run3	repeat/STIM_011.jpg
2704.803	0.627	correct	repeat	Run3	repeat/STIM_011.jpg
2707.536	1.102	correct	repeat	Run3	repeat/STIM_012.jpg
2711.338	1.084	correct	repeat	Run3	repeat/STIM_012.jpg
2716.227	0.745	correct	repeat	Run3	repeat/STIM_012.jpg
2720.769	0.728	correct	repeat	Run3	repeat/STIM_012.jpg
2725.203	0.653	correct	repeat	Run3	repeat/STIM_012.jpg
2728.37	0.775	correct	repeat	Run3	repeat/STIM_013.jpg
2732.595	1.006	correct	repeat	Run3	repeat/STIM_013.jpg
2737.34	1.077	incorrect	repeat	Run3	repeat/STIM_013.jpg
2740.753	1.202	correct	repeat	Run3	repeat/STIM_013.jpg
2745.318	1.065	correct	repeat	Run3	repeat/STIM_013.jpg
2749.179	0.684	correct	repeat	Run3	repeat/STIM_014.jpg
2753.205	0.848	correct	repeat	Run3	repeat/STIM_014.jpg
2756.706	0.998	correct	repeat	Run3	repeat/STIM_014.jpg
2760.565	1.06	correct	repeat	Run3	repeat/STIM_014.jpg
2763.848	1.029	correct	repeat	Run3	repeat/STIM_014.jpg
2767.907	1.792	correct	generate	Run4	generate/STIM_000.jpg
2773.297	1.197	correct	generate	Run4	generate/STIM_000.jpg
2777.718	1.68	correct	generate	Run4	generate/STIM_000.jpg
2781.577	1.496	correct	generate	Run4	generate/STIM_000.jpg
2785.672	2.326	correct	generate	Run4	generate/STIM_000.jpg
2790.657	2.35	correct	generate	Run4	generate/STIM_001.jpg
2795.605	1.274	correct	generate	Run4	generate/STIM_001.jpg
2800.619	2.233	correct	generate	Run4	generate/STIM_001.jpg
2806.529	1.095	correct	generate	Run4	generate/STIM_001.jpg
2810.694	1.351	correct	generate	Run4	generate/STIM_001.jpg
2814.532	2.232	correct	generate	Run4	generate/STIM_002.jpg
2819.897	2.2	correct	generate	Run4	generate/STIM_002.jpg
2825.778	2.594	correct	generate	Run4	generate/STIM_002.jpg
2831.006	2.428	correct	generate	Run4	generate/STIM_002.jpg
2836.361	2.082	correct	generate	Run4	generate/STIM_002.jpg
2841.554	2.007	correct	generate	Run4	generate/STIM_003.jpg
2847.528	1.797	correct	generate	Run4	generate/STIM_003.jpg
2851.771	2.511	correct	generate	Run4	generate/STIM_003.jpg
2858.236	2.522	correct	generate	Run4	generate/STIM_003.jpg
2862.894	2.225	correct	generate	Run4	generate/STIM_003.jpg
2867.797	2.166	correct	generate	Run4	generate/STIM_004.jpg
2872.016	1.143	correct	generate	Run4	generate/STIM_004.jpg
2876.808	2.136	correct	generate	Run4	generate/STIM_004.jpg
2881.495	1.574	correct	generate	Run4	generate/STIM_004.jpg
2885.392	2.278	correct	generate	Run4	generate/STIM_004.jpg
2891.328	1.451	correct	generate	Run4	generate/STIM_005.jpg
2896.498	1.552	correct	generate	Run4	generate/STIM_005.jpg
2900.267	1.438	correct	generate	Run4	generate/STIM_005.jpg
2904.507	2.342	incorrect	generate	Run4	generate/STIM_005.jpg
2909.395	1.556	correct	generate	Run4	generate/STIM_005.jpg
2914.483	2.227	correct	generate	Run4	generate/STIM_006.jpg
2919.372	1.601	correct	generate	Run4	generate/STIM_006.jpg
2923.293	2.439	correct	generate	Run4	generate/STIM_006.jpg
2927.92	1.992	correct	generate	Run4	generate/STIM_006.jpg
2932.581	1.194	correct	generate	Run4	generate/STIM_006.jpg
2937.716	1.73	correct	generate	Run4	generate/STIM_007.jpg
2942.867	1.463	correct	generate	Run4	generate/STIM_007.jpg
2947.449	2.304	correct	generate	Run4	generate/STIM_007.jpg
2952.996	1.282	correct	generate	Run4	generate/STIM_007.jpg
2958.176	2.436	correct	generate	Run4	generate/STIM_007.jpg
2964.203	2.394	correct	generate	Run4	generate/STIM_008.jpg
2970.022	2.599	correct	generate	Run4	generate/STIM_008.jpg
2975.671	1.69	correct	generate	Run4	generate/STIM_008.jpg
2980.794	2.252	correct	generate	Run4	generate/STIM_008.jpg
2985.409	1.403	correct	generate	Run4	generate/STIM_008.jpg
2990.217	2.031	correct	generate	Run4	generate/STIM_009.jpg
2995.752	1.821	correct	generate	Run4	generate/STIM_009.jpg
3000.907	1.782	correct	generate	Run4	generate/STIM_009.jpg
3005.733	2.544	correct	generate	Run4	generate/STIM_009.jpg
3011.502	2.012	correct	generate	Run4	generate/STIM_009.jpg
3017.028	1.926	correct	generate	Run4	generate/STIM_010.jpg
3021.971	2.019	correct	generate	Run4	generate/STIM_010.jpg
3026.654	2.381	correct	generate	Run4	generate/STIM_010.jpg
3032.904	2.071	correct	generate	Run4	generate/STIM_010.jpg
3037.595	1.357	correct	generate	Run4	generate/STIM_010.jpg
3041.662	1.968	correct	generate	Run4	generate/STIM_011.jpg
3045.883	2.24	correct	generate	Run4	generate/STIM_011.jpg
3052.106	2.437	correct	generate	Run4	generate/STIM_011.jpg
3056.605	2.62	correct	generate	Run4	generate/STIM_011.jpg
3063.159	2.268	correct	generate	Run4	generate/STIM_011.jpg
3069.277	2.017	correct	generate	Run4	generate/STIM_012.jpg
3073.573	2.478	correct	generate	Run4	generate/STIM_012.jpg
3079.209	2.316	correct	generate	Run4	generate/STIM_012.jpg
3085.165	2.247	correct	generate	Run4	generate/STIM_012.jpg
3090.875	2.542	correct	generate	Run4	generate/STIM_012.jpg
3096.577	1.404	correct	generate	Run4	generate/STIM_013.jpg
3100.251	1.194	correct	generate	Run4	generate/STIM_013.jpg
3104.36	2.159	correct	generate	Run4	generate/STIM_013.jpg
3110.058	2.195	correct	generate	Run4	generate/STIM_013.jpg
3115.546	1.92	correct	generate	Run4	generate/STIM_013.jpg
3119.965	1.098	correct	generate	Run4	generate/STIM_014.jpg
3123.56	1.385	correct	generate	Run4	generate/STIM_014.jpg
3128.221	2.418	correct	generate	Run4	generate/STIM_014.jpg
3134.545	1.748	correct	generate	Run4	generate/STIM_014.jpg
3138.978	1.988	correct	generate	Run4	generate/STIM_014.jpg
3144.1	1.065	correct	generate	Run4	generate/STIM_015.jpg
3148.724	2.116	correct	generate	Run4	generate/STIM_015.jpg
3153.287	2.235	correct	generate	Run4	generate/STIM_015.jpg
3157.816	1.367	correct	generate	Run4	generate/STIM_015.jpg
3161.253	1.154	incorrect	generate	Run4	generate/STIM_015.jpg
3164.482	2.576	correct	generate	Run4	generate/STIM_016.jpg
3170.063	2.385	correct	generate	Run4	generate/STIM_016.jpg
3176.383	1.938	correct	generate	Run4	generate/STIM_016.jpg
3180.372	1.532	correct	generate	Run4	generate/STIM_016.jpg
3185.167	2.368	correct	generate	Run4	generate/STIM_016.jpg
3190.05	2.271	correct	generate	Run4	generate/STIM_017.jpg
3194.395	1.731	correct	generate	Run4	generate/STIM_017.jpg
3199.197	2.018	correct	generate	Run4	generate/STIM_017.jpg
3203.419	1.849	correct	generate	Run4	generate/STIM_017.jpg
3208.211	1.334	correct	generate	Run4	generate/STIM_017.jpg
3213.497	1.902	correct	generate	Run4	generate/STIM_018.jpg
3217.442	1.068	correct	generate	Run4	generate/STIM_018.jpg
3222.365	2.035	correct	generate	Run4	generate/STIM_018.jpg
3228.364	1.276	correct	generate	Run4	generate/STIM_018.jpg
3231.735	1.33	incorrect	generate	Run4	generate/STIM_018.jpg
3236.562	2.03	correct	generate	Run4	generate/STIM_019.jpg
3242.536	1.129	correct	generate	Run4	generate/STIM_019.jpg
3246.449	2.031	correct	generate	Run4	generate/STIM_019.jpg
3251.417	2.173	correct	generate	Run4	generate/STIM_019.jpg
3256.037	1.164	correct	generate	Run4	generate/STIM_019.jpg
3260.002	2.352	correct	generate	Run4	generate/STIM_020.jpg
3265.832	1.194	correct	generate	Run4	generate/STIM_020.jpg
3270.967	2.586	correct	generate	Run4	generate/STIM_020.jpg
3275.736	2.338	correct	generate	Run4	generate/STIM_020.jpg
3281.666	1.716	correct	generate	Run4	generate/STIM_020.jpg
3286.952	2.166	correct	generate	Run4	generate/STIM_021.jpg
3292.912	2.513	correct	generate	Run4	generate/STIM_021.jpg
3298.506	1.073	correct	generate	Run4	generate/STIM_021.jpg
3303.487	2.01	correct	generate	Run4	generate/STIM_021.jpg
3308.643	1.532	correct	generate	Run4	generate/STIM_021.jpg
3313.735	1.943	correct	generate	Run4	generate/STIM_022.jpg
3318.856	2.446	correct	generate	Run4	generate/STIM_022.jpg
3325.224	1.682	correct	generate	Run4	generate/STIM_022.jpg
3330.395	1.731	correct	generate	Run4	generate/STIM_022.jpg
3335.396	1.98	correct	generate	Run4	generate/STIM_022.jpg
3341.35	1.952	correct	generate	Run4	generate/STIM_023.jpg
3346.324	2.022	correct	generate	Run4	generate/STIM_023.jpg
3352.012	2.181	correct	generate	Run4	generate/STIM_023.jpg
3358.051	1.402	correct	generate	Run4	generate/STIM_023.jpg
3362.59	1.328	correct	generate	Run4	generate/STIM_023.jpg
3367.296	1.764	correct	generate	Run4	generate/STIM_024.jpg
3371.727	1.915	correct	generate	Run4	generate/STIM_024.jpg
3375.778	2.47	correct	generate	Run4	generate/STIM_024.jpg
3381.803	2.382	correct	generate	Run4	generate/STIM_024.jpg
3386.85	1.443	correct	generate	Run4	generate/STIM_024.jpg
3391.946	0.635	correct	repeat	Run4	repeat/STIM_000.jpg
3395.453	1.163	incorrect	repeat	Run4	repeat/STIM_000.jpg
3400.583	0.777	correct	repeat	Run4	repeat/STIM_000.jpg
3405.206	0.916	correct	repeat	Run4	repeat/STIM_000.jpg
3408.777	1.197	correct	repeat	Run4	repeat/STIM_000.jpg
3412.074	0.778	correct	repeat	Run4	repeat/STIM_001.jpg
3415.892	0.731	correct	repeat	Run4	repeat/STIM_001.jpg
3419.971	0.827	correct	repeat	Run4	repeat/STIM_001.jpg
3424.695	0.828	correct	repeat	Run4	repeat/STIM_001.jpg
3428.006	0.709	correct	repeat	Run4	repeat/STIM_001.jpg
3431.325	1.146	correct	repeat	Run4	repeat/STIM_002.jpg
3435.022	0.932	correct	repeat	Run4	repeat/STIM_002.jpg
3439.124	1.181	correct	repeat	Run4	repeat/STIM_002.jpg
3443.173	0.904	correct	repeat	Run4	repeat/STIM_002.jpg
3447.831	1.212	correct	repeat	Run4	repeat/STIM_002.jpg
3452.529	0.634	correct	repeat	Run4	repeat/STIM_003.jpg
3455.326	1.202	correct	repeat	Run4	repeat/STIM_003.jpg
3460.348	0.934	correct	repeat	Run4	repeat/STIM_003.jpg
3463.318	1.165	correct	repeat	Run4	repeat/STIM_003.jpg
3467.066	1.209	correct	repeat	Run4	repeat/STIM_003.jpg
3471.665	0.957	incorrect	repeat	Run4	repeat/STIM_004.jpg
3476.079	0.855	correct	repeat	Run4	repeat/STIM_004.jpg
3479.412	1.027	correct	repeat	Run4	repeat/STIM_004.jpg
3483.022	0.999	correct	repeat	Run4	repeat/STIM_004.jpg
3487.657	1.166	correct	repeat	Run4	repeat/STIM_004.jpg
3491.481	0.721	correct	repeat	Run4	repeat/STIM_005.jpg
3496.109	1.22	correct	repeat	Run4	repeat/STIM_005.jpg
3501.116	0.948	correct	repeat	Run4	repeat/STIM_005.jpg
3504.166	0.644	correct	repeat	Run4	repeat/STIM_005.jpg
3508.135	0.711	correct	repeat	Run4	repeat/STIM_005.jpg
3512.627	0.848	correct	repeat	Run4	repeat/STIM_006.jpg
3516.08	1.034	correct	repeat	Run4	repeat/STIM_006.jpg
3519.734	1.159	correct	repeat	Run4	repeat/STIM_006.jpg
3524.551	1.03	correct	repeat	Run4	repeat/STIM_006.jpg
3528.112	0.811	correct	repeat	Run4	repeat/STIM_006.jpg
3531.668	0.957	correct	repeat	Run4	repeat/STIM_007.jpg
3536.417	1.036	correct	repeat	Run4	repeat/STIM_007.jpg
3541.093	0.726	correct	repeat	Run4	repeat/STIM_007.jpg
3544.876	0.861	correct	repeat	Run4	repeat/STIM_007.jpg
3548.449	0.658	correct	repeat	Run4	repeat/STIM_007.jpg
3551.856	0.667	correct	repeat	Run4	repeat/STIM_008.jpg
3554.968	0.971	correct	repeat	Run4	repeat/STIM_008.jpg
3558.581	0.626	correct	repeat	Run4	repeat/STIM_008.jpg
3561.826	1.138	correct	repeat	Run4	repeat/STIM_008.jpg
3565.382	0.702	correct	repeat	Run4	repeat/STIM_008.jpg
3569.777	0.664	correct	repeat	Run4	repeat/STIM_009.jpg
3572.785	1.105	correct	repeat	Run4	repeat/STIM_009.jpg
3577.236	0.71	correct	repeat	Run4	repeat/STIM_009.jpg
3580.323	1.102	correct	repeat	Run4	repeat/STIM_009.jpg
3585.142	0.727	correct	repeat	Run4	repeat/STIM_009.jpg
3588.442	0.69	correct	repeat	Run4	repeat/STIM_010.jpg
3591.377	1.224	correct	repeat	Run4	repeat/STIM_010.jpg
3596.431	0.642	correct	repeat	Run4	repeat/STIM_010.jpg
3600.992	1.234	correct	repeat	Run4	repeat/STIM_010.jpg
3604.525	0.731	correct	repeat	Run4	repeat/STIM_010.jpg
3608.717	1.07	correct	repeat	Run4	repeat/STIM_011.jpg
3613.674	0.937	correct	repeat	Run4	repeat/STIM_011.jpg
3618.051	0.628	correct	repeat	Run4	repeat/STIM_011.jpg
3620.836	1.169	correct	repeat	Run4	repeat/STIM_011.jpg
3625.472	0.852	correct	repeat	Run4	repeat/STIM_011.jpg
3629.768	0.997	correct	repeat	Run4	repeat/STIM_012.jpg
3632.894	1.022	correct	repeat	Run4	repeat/STIM_012.jpg
3636.898	0.967	incorrect	repeat	Run4	repeat/STIM_012.jpg
3640.959	0.77	correct	repeat	Run4	repeat/STIM_012.jpg
3645.574	0.701	correct	repeat	Run4	repeat/STIM_012.jpg
3649.41	0.678	correct	repeat	Run4	repeat/STIM_013.jpg
3652.17	0.964	correct	repeat	Run4	repeat/STIM_013.jpg
3655.375	0.798	correct	repeat	Run4	repeat/STIM_013.jpg
3658.255	0.887	incorrect	repeat	Run4	repeat/STIM_013.jpg
3662.885	0.934	correct	repeat	Run4	repeat/STIM_013.jpg
3666.041	1.073	correct	repeat	Run4	repeat/STIM_014.jpg
3670.878	1.22	correct	repeat	Run4	repeat/STIM_014.jpg
3674.654	1.242	correct	repeat	Run4	repeat/STIM_014.jpg
3679.227	0.902	correct	repeat	Run4	repeat/STIM_014.jpg
3682.978	1.029	correct	repeat	Run4	repeat/STIM_014.jpg
