onset	duration	response_time_ms	trial_type	learning_stage	stimulus	response_port
0.0	1.823	1822.7	generate	Run1	generate/STIM_000.jpg	99
5.749	2.468	2468.0	generate	Run1	generate/STIM_000.jpg	100
10.372	3.342	3341.8	generate	Run1	generate/STIM_000.jpg	100
17.426	2.765	2765.4	generate	Run1	generate/STIM_000.jpg	100
23.396	2.294	2294.2	generate	Run1	generate/STIM_000.jpg	100
29.184	1.801	1801.3	generate	Run1	generate/STIM_001.jpg	99
33.186	2.211	2210.8	generate	Run1	generate/STIM_001.jpg	99
39.247	1.93	1930.3	generate	Run1	generate/STIM_001.jpg	99
43.776	1.29	1289.7	generate	Run1	generate/STIM_001.jpg	99
48.447	2.129	2129.4	generate	Run1	generate/STIM_001.jpg	100
54.531	2.395	2394.7	generate	Run1	generate/STIM_002.jpg	100
59.856	2.836	2835.8	generate	Run1	generate/STIM_002.jpg	99
65.397	1.859	1859.1	generate	Run1	generate/STIM_002.jpg	100
69.437	2.586	2585.9	generate	Run1	generate/STIM_002.jpg	99
74.153	2.028	2028.4	generate	Run1	generate/STIM_002.jpg	100
79.762	3.423	3423.0	generate	Run1	generate/STIM_003.jpg	100
85.84	2.772	2771.8	generate	Run1	generate/STIM_003.jpg	100
91.224	3.272	3272.2	generate	Run1	generate/STIM_003.jpg	99
97.879	2.202	2201.6	generate	Run1	generate/STIM_003.jpg	99
102.564	1.752	1752.5	generate	Run1	generate/STIM_003.jpg	100
106.841	3.403	3402.7	generate	Run1	generate/STIM_004.jpg	100
112.808	3.486	3486.3	generate	Run1	generate/STIM_004.jpg	99
118.543	1.486	1485.7	generate	Run1	generate/STIM_004.jpg	99
122.688	1.522	1522.2	generate	Run1	generate/STIM_004.jpg	100
127.677	2.306	2306.4	generate	Run1	generate/STIM_004.jpg	100
132.001	3.491	3490.7	generate	Run1	generate/STIM_005.jpg	99
139.4	3.089	3089.4	generate	Run1	generate/STIM_005.jpg	100
145.136	1.404	1403.9	generate	Run1	generate/STIM_005.jpg	99
149.69	2.978	2978.1	generate	Run1	generate/STIM_005.jpg	99
155.314	1.541	1540.6	generate	Run1	generate/STIM_005.jpg	100
159.491	3.108	3108.1	generate	Run1	generate/STIM_006.jpg	99
165.717	3.517	3517.1	generate	Run1	generate/STIM_006.jpg	100
172.898	3.121	3121.1	generate	Run1	generate/STIM_006.jpg	100
178.176	2.567	2567.4	generate	Run1	generate/STIM_006.jpg	99
183.334	2.043	2043.1	generate	Run1	generate/STIM_006.jpg	100
188.993	2.817	2816.9	generate	Run1	generate/STIM_007.jpg	99
194.724	3.162	3161.5	generate	Run1	generate/STIM_007.jpg	99
199.953	2.135	2135.1	generate	Run1	generate/STIM_007.jpg	100
204.26	1.552	1552.4	generate	Run1	generate/STIM_007.jpg	99
208.575	1.22	1219.5	generate	Run1	generate/STIM_007.jpg	99
212.563	2.677	2677.4	generate	Run1	generate/STIM_008.jpg	100
218.515	1.822	1821.5	generate	Run1	generate/STIM_008.jpg	100
222.454	3.247	3247.1	generate	Run1	generate/STIM_008.jpg	99
228.115	1.717	1716.6	generate	Run1	generate/STIM_008.jpg	99
233.475	2.063	2063.3	generate	Run1	generate/STIM_008.jpg	100
238.573	1.797	1797.1	generate	Run1	generate/STIM_009.jpg	99
244.158	3.391	3390.7	generate	Run1	generate/STIM_009.jpg	100
250.558	3.018	3018.1	generate	Run1	generate/STIM_009.jpg	100
256.926	1.527	1526.9	generate	Run1	generate/STIM_009.jpg	100
260.975	2.808	2808.1	generate	Run1	generate/STIM_009.jpg	99
265.88	2.279	2278.7	generate	Run1	generate/STIM_010.jpg	100
270.175	2.21	2210.0	generate	Run1	generate/STIM_010.jpg	100
275.71	2.398	2398.3	generate	Run1	generate/STIM_010.jpg	100
280.209	1.322	1321.9	generate	Run1	generate/STIM_010.jpg	99
284.913	2.84	2840.4	generate	Run1	generate/STIM_010.jpg	99
291.306	1.885	1884.9	generate	Run1	generate/STIM_011.jpg	100
295.703	3.038	3038.5	generate	Run1	generate/STIM_011.jpg	100
301.982	1.405	1405.3	generate	Run1	generate/STIM_011.jpg	100
306.834	2.779	2779.1	generate	Run1	generate/STIM_011.jpg	100
312.015	1.676	1676.5	generate	Run1	generate/STIM_011.jpg	100
317.506	2.983	2982.9	generate	Run1	generate/STIM_012.jpg	100
322.656	3.25	3250.0	generate	Run1	generate/STIM_012.jpg	99
329.44	2.443	2443.4	generate	Run1	generate/STIM_012.jpg	99
335.841	2.438	2437.6	generate	Run1	generate/STIM_012.jpg	99
340.63	2.096	2096.5	generate	Run1	generate/STIM_012.jpg	100
345.312	1.918	1917.6	generate	Run1	generate/STIM_013.jpg	99
350.018	1.92	1920.5	generate	Run1	generate/STIM_013.jpg	99
353.993	2.656	2656.3	generate	Run1	generate/STIM_013.jpg	99
359.557	2.542	2542.0	generate	Run1	generate/STIM_013.jpg	100
365.359	1.381	1380.9	generate	Run1	generate/STIM_013.jpg	100
370.58	2.958	2958.1	generate	Run1	generate/STIM_014.jpg	99
375.633	3.409	3408.9	generate	Run1	generate/STIM_014.jpg	99
381.729	1.641	1641.4	generate	Run1	generate/STIM_014.jpg	100
386.185	2.867	2866.7	generate	Run1	generate/STIM_014.jpg	100
392.548	2.011	2011.0	generate	Run1	generate/STIM_014.jpg	99
397.128	2.974	2974.3	generate	Run1	generate/STIM_015.jpg	99
403.802	2.452	2451.7	generate	Run1	generate/STIM_015.jpg	99
409.792	2.51	2510.2	generate	Run1	generate/STIM_015.jpg	100
416.144	2.924	2923.8	generate	Run1	generate/STIM_015.jpg	100
421.623	1.804	1804.3	generate	Run1	generate/STIM_015.jpg	100
425.621	2.37	2370.1	generate	Run1	generate/STIM_016.jpg	100
431.094	1.681	1680.8	generate	Run1	generate/STIM_016.jpg	100
435.679	3.238	3238.1	generate	Run1	generate/STIM_016.jpg	99
442.892	2.39	2389.6	generate	Run1	generate/STIM_016.jpg	100
448.764	1.442	1441.8	generate	Run1	generate/STIM_016.jpg	100
452.789	2.074	2074.3	generate	Run1	generate/STIM_017.jpg	99
457.502	1.531	1530.8	generate	Run1	generate/STIM_017.jpg	99
462.628	3.183	3183.0	generate	Run1	generate/STIM_017.jpg	100
469.319	2.688	2687.5	generate	Run1	generate/STIM_017.jpg	100
474.201	2.626	2625.7	generate	Run1	generate/STIM_017.jpg	100
479.286	1.782	1782.3	generate	Run1	generate/STIM_018.jpg	100
483.165	2.151	2151.4	generate	Run1	generate/STIM_018.jpg	100
487.539	1.732	1732.5	generate	Run1	generate/STIM_018.jpg	100
492.137	1.493	1492.8	generate	Run1	generate/STIM_018.jpg	100
497.084	2.905	2905.3	generate	Run1	generate/STIM_018.jpg	99
502.322	3.635	3635.1	generate	Run1	generate/STIM_019.jpg	99
508.581	3.288	3287.5	generate	Run1	generate/STIM_019.jpg	100
514.74	1.361	1360.8	generate	Run1	generate/STIM_019.jpg	99
518.489	2.652	2652.4	generate	Run1	generate/STIM_019.jpg	100
523.166	1.302	1301.9	generate	Run1	generate/STIM_019.jpg	100
526.767	2.76	2759.8	generate	Run1	generate/STIM_020.jpg	100
532.133	2.639	2639.4	generate	Run1	generate/STIM_020.jpg	100
538.765	1.815	1815.1	generate	Run1	generate/STIM_020.jpg	100
544.173	1.279	1278.7	generate	Run1	generate/STIM_020.jpg	100
548.169	1.455	1455.0	generate	Run1	generate/STIM_020.jpg	100
552.436	3.5	3499.9	generate	Run1	generate/STIM_021.jpg	99
559.292	1.632	1632.1	generate	Run1	generate/STIM_021.jpg	99
563.138	2.057	2057.4	generate	Run1	generate/STIM_021.jpg	99
568.331	3.164	3164.1	generate	Run1	generate/STIM_021.jpg	100
573.923	1.385	1385.3	generate	Run1	generate/STIM_021.jpg	100
577.771	2.723	2722.6	generate	Run1	generate/STIM_022.jpg	100
583.529	2.2	2199.7	generate	Run1	generate/STIM_022.jpg	100
588.666	2.791	2790.9	generate	Run1	generate/STIM_022.jpg	100
593.535	3.137	3137.2	generate	Run1	generate/STIM_022.jpg	100
599.827	2.86	2859.8	generate	Run1	generate/STIM_022.jpg	99
604.888	2.2	2200.5	generate	Run1	generate/STIM_023.jpg	99
610.585	2.814	2813.6	generate	Run1	generate/STIM_023.jpg	99
615.555	2.568	2568.3	generate	Run1	generate/STIM_023.jpg	100
621.771	3.041	3040.6	generate	Run1	generate/STIM_023.jpg	99
628.316	2.288	2288.0	generate	Run1	generate/STIM_023.jpg	99
633.288	1.822	1822.0	generate	Run1	generate/STIM_024.jpg	99
637.47	2.652	2651.7	generate	Run1	generate/STIM_024.jpg	99
643.023	1.433	1432.8	generate	Run1	generate/STIM_024.jpg	100
648.377	1.572	1572.0	generate	Run1	generate/STIM_024.jpg	100
653.453	1.302	1301.9	generate	Run1	generate/STIM_024.jpg	100
658.018	0.854	853.8	repeat	Run1	repeat/STIM_000.jpg	99
662.673	1.041	1041.4	repeat	Run1	repeat/STIM_000.jpg	100
667.102	0.899	898.8	repeat	Run1	repeat/STIM_000.jpg	100
671.625	0.974	974.5	repeat	Run1	repeat/STIM_000.jpg	99
676.018	1.243	1242.8	repeat	Run1	repeat/STIM_000.jpg	99
681.148	1.143	1142.7	repeat	Run1	repeat/STIM_001.jpg	99
685.143	0.837	837.1	repeat	Run1	repeat/STIM_001.jpg	100
689.36	0.671	671.4	repeat	Run1	repeat/STIM_001.jpg	100
693.394	0.664	664.5	repeat	Run1	repeat/STIM_001.jpg	100
696.368	0.702	702.2	repeat	Run1	repeat/STIM_001.jpg	100
700.021	1.12	1120.4	repeat	Run1	repeat/STIM_002.jpg	99
703.454	1.134	1133.9	repeat	Run1	repeat/STIM_002.jpg	99
707.86	0.855	854.8	repeat	Run1	repeat/STIM_002.jpg	100
712.63	0.778	777.7	repeat	Run1	repeat/STIM_002.jpg	100
716.594	0.673	672.6	repeat	Run1	repeat/STIM_002.jpg	100
719.54	0.987	987.0	repeat	Run1	repeat/STIM_003.jpg	100
723.276	1.003	1003.4	repeat	Run1	repeat/STIM_003.jpg	99
726.692	0.732	731.9	repeat	Run1	repeat/STIM_003.jpg	99
731.092	0.763	762.6	repeat	Run1	repeat/STIM_003.jpg	100
735.688	0.708	708.4	repeat	Run1	repeat/STIM_003.jpg	99
740.12	1.175	1174.6	repeat	Run1	repeat/STIM_004.jpg	99
743.84	1.121	1120.7	repeat	Run1	repeat/STIM_004.jpg	99
747.588	0.855	855.2	repeat	Run1	repeat/STIM_004.jpg	100
751.715	0.684	684.1	repeat	Run1	repeat/STIM_004.jpg	99
754.557	0.91	910.2	repeat	Run1	repeat/STIM_004.jpg	99
758.674	0.637	636.7	repeat	Run1	repeat/STIM_005.jpg	100
762.308	0.969	969.1	repeat	Run1	repeat/STIM_005.jpg	100
765.684	0.653	653.1	repeat	Run1	repeat/STIM_005.jpg	99
769.36	0.79	790.1	repeat	Run1	repeat/STIM_005.jpg	100
773.867	1.11	1109.7	repeat	Run1	repeat/STIM_005.jpg	100
777.872	1.106	1105.9	repeat	Run1	repeat/STIM_006.jpg	99
782.318	0.638	637.6	repeat	Run1	repeat/STIM_006.jpg	100
785.676	1.05	1050.4	repeat	Run1	repeat/STIM_006.jpg	99
789.177	1.001	1000.8	repeat	Run1	repeat/STIM_006.jpg	99
793.518	1.249	1249.3	repeat	Run1	repeat/STIM_006.jpg	99
796.815	0.647	647.0	repeat	Run1	repeat/STIM_007.jpg	99
799.594	0.718	718.2	repeat	Run1	repeat/STIM_007.jpg	100
803.344	1.178	1177.8	repeat	Run1	repeat/STIM_007.jpg	100
807.846	0.643	643.0	repeat	Run1	repeat/STIM_007.jpg	99
811.075	0.891	891.3	repeat	Run1	repeat/STIM_007.jpg	100
814.112	0.929	928.7	repeat	Run1	repeat/STIM_008.jpg	100
817.88	0.798	797.8	repeat	Run1	repeat/STIM_008.jpg	99
821.471	1.226	1226.4	repeat	Run1	repeat/STIM_008.jpg	100
826.421	0.769	768.8	repeat	Run1	repeat/STIM_008.jpg	100
830.624	1.207	1206.6	repeat	Run1	repeat/STIM_008.jpg	100
834.035	0.651	651.2	repeat	Run1	repeat/STIM_009.jpg	99
836.892	0.626	625.9	repeat	Run1	repeat/STIM_009.jpg	100
840.105	0.978	978.5	repeat	Run1	repeat/STIM_009.jpg	100
843.613	1.16	1160.0	repeat	Run1	repeat/STIM_009.jpg	99
848.578	0.649	649.2	repeat	Run1	repeat/STIM_009.jpg	99
853.2	0.945	945.2	repeat	Run1	repeat/STIM_010.jpg	100
856.93	1.121	1121.1	repeat	Run1	repeat/STIM_010.jpg	99
861.947	0.976	975.9	repeat	Run1	repeat/STIM_010.jpg	99
866.369	0.989	988.7	repeat	Run1	repeat/STIM_010.jpg	99
870.151	0.629	628.6	repeat	Run1	repeat/STIM_010.jpg	100
873.72	0.79	789.5	repeat	Run1	repeat/STIM_011.jpg	99
877.717	0.773	773.0	repeat	Run1	repeat/STIM_011.jpg	100
880.507	1.25	1250.0	repeat	Run1	repeat/STIM_011.jpg	100
885.15	0.766	765.6	repeat	Run1	repeat/STIM_011.jpg	99
888.224	1.042	1041.8	repeat	Run1	repeat/STIM_011.jpg	100
891.703	0.769	768.9	repeat	Run1	repeat/STIM_012.jpg	100
895.755	0.664	663.9	repeat	Run1	repeat/STIM_012.jpg	100
899.162	0.709	709.1	repeat	Run1	repeat/STIM_012.jpg	100
902.374	0.761	761.1	repeat	Run1	repeat/STIM_012.jpg	100
905.896	0.936	935.7	repeat	Run1	repeat/STIM_012.jpg	100
909.334	0.781	781.0	repeat	Run1	repeat/STIM_013.jpg	99
913.417	0.626	626.1	repeat	Run1	repeat/STIM_013.jpg	99
916.954	0.856	856.1	repeat	Run1	repeat/STIM_013.jpg	100
920.608	1.244	1244.1	repeat	Run1	repeat/STIM_013.jpg	99
923.875	0.906	906.2	repeat	Run1	repeat/STIM_013.jpg	99
928.178	0.687	687.1	repeat	Run1	repeat/STIM_014.jpg	100
931.753	0.704	704.0	repeat	Run1	repeat/STIM_014.jpg	99
936.232	1.084	1083.8	repeat	Run1	repeat/STIM_014.jpg	100
940.754	0.795	794.8	repeat	Run1	repeat/STIM_014.jpg	100
944.386	0.707	707.0	repeat	Run1	repeat/STIM_014.jpg	100
947.807	1.854	1854.3	generate	Run2	generate/STIM_000.jpg	99
952.225	1.975	1975.3	generate	Run2	generate/STIM_000.jpg	100
956.836	2.383	2383.2	generate	Run2	generate/STIM_000.jpg	99
962.479	1.278	1277.9	generate	Run2	generate/STIM_000.jpg	99
966.864	2.261	2261.0	generate	Run2	generate/STIM_000.jpg	99
972.163	2.016	2016.1	generate	Run2	generate/STIM_001.jpg	99
977.832	2.405	2405.2	generate	Run2	generate/STIM_001.jpg	100
982.248	2.729	2729.2	generate	Run2	generate/STIM_001.jpg	99
988.165	1.805	1805.2	generate	Run2	generate/STIM_001.jpg	100
992.14	2.467	2467.0	generate	Run2	generate/STIM_001.jpg	100
998.323	1.477	1477.2	generate	Run2	generate/STIM_002.jpg	99
1002.498	2.358	2358.3	generate	Run2	generate/STIM_002.jpg	99
1007.584	2.509	2509.4	generate	Run2	generate/STIM_002.jpg	100
1012.849	1.236	1236.3	generate	Run2	generate/STIM_002.jpg	99
1016.159	1.319	1318.6	generate	Run2	generate/STIM_002.jpg	100
1019.573	2.065	2064.9	generate	Run2	generate/STIM_003.jpg	99
1024.417	1.415	1414.8	generate	Run2	generate/STIM_003.jpg	100
1027.991	1.813	1812.7	generate	Run2	generate/STIM_003.jpg	100
1032.454	1.599	1598.6	generate	Run2	generate/STIM_003.jpg	100
1036.502	1.617	1617.1	generate	Run2	generate/STIM_003.jpg	99
1040.541	1.599	1599.1	generate	Run2	generate/STIM_004.jpg	99
1045.012	2.609	2608.6	generate	Run2	generate/STIM_004.jpg	100
1050.822	1.777	1777.3	generate	Run2	generate/STIM_004.jpg	99
1054.758	1.49	1490.4	generate	Run2	generate/STIM_004.jpg	100
1059.816	1.476	1476.2	generate	Run2	generate/STIM_004.jpg	100
1064.751	1.85	1849.9	generate	Run2	generate/STIM_005.jpg	100
1069.227	1.819	1818.7	generate	Run2	generate/STIM_005.jpg	100
1074.361	2.233	2232.7	generate	Run2	generate/STIM_005.jpg	99
1080.199	1.529	1528.8	generate	Run2	generate/STIM_005.jpg	99
1084.376	2.186	2186.0	generate	Run2	generate/STIM_005.jpg	99
1088.769	2.602	2601.5	generate	Run2	generate/STIM_006.jpg	100
1095.292	1.435	1434.8	generate	Run2	generate/STIM_006.jpg	100
1100.7	1.816	1815.5	generate	Run2	generate/STIM_006.jpg	100
1106.217	2.113	2112.7	generate	Run2	generate/STIM_006.jpg	99
1111.4	1.538	1537.5	generate	Run2	generate/STIM_006.jpg	100
1115.272	2.103	2102.6	generate	Run2	generate/STIM_007.jpg	99
1119.517	2.288	2288.5	generate	Run2	generate/STIM_007.jpg	100
1125.119	1.411	1410.9	generate	Run2	generate/STIM_007.jpg	99
1129.656	2.239	2239.3	generate	Run2	generate/STIM_007.jpg	100
1134.48	1.695	1695.4	generate	Run2	generate/STIM_007.jpg	99
1139.565	2.107	2107.4	generate	Run2	generate/STIM_008.jpg	100
1144.747	2.77	2770.2	generate	Run2	generate/STIM_008.jpg	99
1150.201	2.252	2252.2	generate	Run2	generate/STIM_008.jpg	100
1155.525	1.447	1447.0	generate	Run2	generate/STIM_008.jpg	99
1160.908	2.083	2082.9	generate	Run2	generate/STIM_008.jpg	99
1165.482	3.009	3008.6	generate	Run2	generate/STIM_009.jpg	100
1171.892	2.742	2741.9	generate	Run2	generate/STIM_009.jpg	99
1177.062	1.885	1884.8	generate	Run2	generate/STIM_009.jpg	99
1181.852	1.186	1186.5	generate	Run2	generate/STIM_009.jpg	100
1185.74	2.171	2170.8	generate	Run2	generate/STIM_009.jpg	99
1190.964	1.828	1827.8	generate	Run2	generate/STIM_010.jpg	99
1195.688	2.483	2483.3	generate	Run2	generate/STIM_010.jpg	100
1200.281	2.143	2142.9	generate	Run2	generate/STIM_010.jpg	100
1205.846	1.87	1869.6	generate	Run2	generate/STIM_010.jpg	100
1211.005	1.867	1866.7	generate	Run2	generate/STIM_010.jpg	100
1215.234	3.081	3081.0	generate	Run2	generate/STIM_011.jpg	100
1220.772	1.633	1632.7	generate	Run2	generate/STIM_011.jpg	99
1224.672	1.727	1727.4	generate	Run2	generate/STIM_011.jpg	100
1229.322	1.889	1889.3	generate	Run2	generate/STIM_011.jpg	100
1234.538	2.596	2596.1	generate	Run2	generate/STIM_011.jpg	100
1240.398	2.154	2154.3	generate	Run2	generate/STIM_012.jpg	99
1245.143	1.424	1424.2	generate	Run2	generate/STIM_012.jpg	99
1249.742	1.915	1914.9	generate	Run2	generate/STIM_012.jpg	100
1254.115	1.422	1421.8	generate	Run2	generate/STIM_012.jpg	99
1257.945	1.398	1398.5	generate	Run2	generate/STIM_012.jpg	100
1262.727	1.511	1511.1	generate	Run2	generate/STIM_013.jpg	100
1266.923	1.588	1588.5	generate	Run2	generate/STIM_013.jpg	99
1271.259	2.612	2612.2	generate	Run2	generate/STIM_013.jpg	99
1276.405	1.682	1682.1	generate	Run2	generate/STIM_013.jpg	100
1280.278	2.605	2604.8	generate	Run2	generate/STIM_013.jpg	100
1286.585	2.26	2259.9	generate	Run2	generate/STIM_014.jpg	99
1292.342	1.253	1252.7	generate	Run2	generate/STIM_014.jpg	100
1296.85	2.735	2735.2	generate	Run2	generate/STIM_014.jpg	99
1302.028	2.442	2442.0	generate	Run2	generate/STIM_014.jpg	99
1307.884	2.572	2571.9	generate	Run2	generate/STIM_014.jpg	100
1313.08	1.676	1675.9	generate	Run2	generate/STIM_015.jpg	99
1316.861	2.441	2441.3	generate	Run2	generate/STIM_015.jpg	100
1322.281	1.284	1283.9	generate	Run2	generate/STIM_015.jpg	100
1326.192	1.198	1197.9	generate	Run2	generate/STIM_015.jpg	100
1330.998	1.675	1674.7	generate	Run2	generate/STIM_015.jpg	99
1336.285	2.547	2546.8	generate	Run2	generate/STIM_016.jpg	100
1342.686	2.247	2247.0	generate	Run2	generate/STIM_016.jpg	100
1347.609	1.205	1205.3	generate	Run2	generate/STIM_016.jpg	100
1351.653	2.435	2434.8	generate	Run2	generate/STIM_016.jpg	100
1356.791	1.346	1345.5	generate	Run2	generate/STIM_016.jpg	99
1360.886	1.969	1968.6	generate	Run2	generate/STIM_017.jpg	100
1365.198	2.622	2621.7	generate	Run2	generate/STIM_017.jpg	99
1371.356	1.598	1598.5	generate	Run2	generate/STIM_017.jpg	100
1375.568	2.23	2229.6	generate	Run2	generate/STIM_017.jpg	99
1381.378	1.493	1493.2	generate	Run2	generate/STIM_017.jpg	99
1386.64	1.991	1991.4	generate	Run2	generate/STIM_018.jpg	99
1391.019	1.961	1961.3	generate	Run2	generate/STIM_018.jpg	100
1396.525	1.349	1348.7	generate	Run2	generate/STIM_018.jpg	100
1400.478	1.101	1100.8	generate	Run2	generate/STIM_018.jpg	99
1404.04	2.503	2502.7	generate	Run2	generate/STIM_018.jpg	100
1409.521	2.386	2386.3	generate	Run2	generate/STIM_019.jpg	99
1415.149	2.512	2511.5	generate	Run2	generate/STIM_019.jpg	100
1421.09	2.245	2245.1	generate	Run2	generate/STIM_019.jpg	99
1425.968	1.674	1673.5	generate	Run2	generate/STIM_019.jpg	99
1430.491	2.097	2097.0	generate	Run2	generate/STIM_019.jpg	100
1434.624	1.429	1429.3	generate	Run2	generate/STIM_020.jpg	99
1438.378	1.551	1551.1	generate	Run2	generate/STIM_020.jpg	99
1443.52	2.408	2407.9	generate	Run2	generate/STIM_020.jpg	99
1449.278	1.889	1889.4	generate	Run2	generate/STIM_020.jpg	100
1455.012	1.646	1645.8	generate	Run2	generate/STIM_020.jpg	99
1458.994	2.492	2492.0	generate	Run2	generate/STIM_021.jpg	99
1464.931	1.693	1692.9	generate	Run2	generate/STIM_021.jpg	100
1468.949	2.336	2336.0	generate	Run2	generate/STIM_021.jpg	99
1474.499	1.586	1586.5	generate	Run2	generate/STIM_021.jpg	100
1478.486	1.785	1784.7	generate	Run2	generate/STIM_021.jpg	99
1482.732	3.132	3131.7	generate	Run2	generate/STIM_022.jpg	99
1488.776	1.26	1259.8	generate	Run2	generate/STIM_022.jpg	99
1493.199	2.188	2187.8	generate	Run2	generate/STIM_022.jpg	99
1498.911	2.09	2089.9	generate	Run2	generate/STIM_022.jpg	99
1503.299	1.502	1501.8	generate	Run2	generate/STIM_022.jpg	100
1508.57	1.323	1323.4	generate	Run2	generate/STIM_023.jpg	100
1513.421	1.266	1266.4	generate	Run2	generate/STIM_023.jpg	100
1518.25	2.079	2078.7	generate	Run2	generate/STIM_023.jpg	100
1523.646	1.462	1461.8	generate	Run2	generate/STIM_023.jpg	100
1527.75	2.538	2538.4	generate	Run2	generate/STIM_023.jpg	100
1532.536	1.557	1556.9	generate	Run2	generate/STIM_024.jpg	100
1536.876	2.358	2358.1	generate	Run2	generate/STIM_024.jpg	100
1542.089	1.704	1703.5	generate	Run2	generate/STIM_024.jpg	100
1546.205	2.554	2553.8	generate	Run2	generate/STIM_024.jpg	99
1551.206	2.064	2064.0	generate	Run2	generate/STIM_024.jpg	99
1555.875	1.112	1112.0	repeat	Run2	repeat/STIM_000.jpg	99
1560.216	1.128	1128.5	repeat	Run2	repeat/STIM_000.jpg	99
1565.257	0.811	811.4	repeat	Run2	repeat/STIM_000.jpg	100
1569.477	1.043	1043.3	repeat	Run2	repeat/STIM_000.jpg	99
1573.609	0.721	721.1	repeat	Run2	repeat/STIM_000.jpg	100
1577.372	0.914	913.8	repeat	Run2	repeat/STIM_001.jpg	100
1580.993	0.74	739.7	repeat	Run2	repeat/STIM_001.jpg	99
1585.563	1.244	1243.8	repeat	Run2	repeat/STIM_001.jpg	100
1590.725	1.043	1043.1	repeat	Run2	repeat/STIM_001.jpg	99
1593.849	0.753	752.7	repeat	Run2	repeat/STIM_001.jpg	99
1597.259	0.752	751.8	repeat	Run2	repeat/STIM_002.jpg	100
1601.926	1.034	1033.9	repeat	Run2	repeat/STIM_002.jpg	99
1606.815	0.746	745.8	repeat	Run2	repeat/STIM_002.jpg	100
1609.673	0.776	776.1	repeat	Run2	repeat/STIM_002.jpg	99
1613.238	1.12	1119.8	repeat	Run2	repeat/STIM_002.jpg	100
1618.162	1.16	1160.5	repeat	Run2	repeat/STIM_003.jpg	100
1623.282	0.644	644.4	repeat	Run2	repeat/STIM_003.jpg	100
1626.209	0.781	781.3	repeat	Run2	repeat/STIM_003.jpg	100
1630.597	0.648	648.0	repeat	Run2	repeat/STIM_003.jpg	100
1634.766	0.879	879.4	repeat	Run2	repeat/STIM_003.jpg	100
1639.535	0.889	889.0	repeat	Run2	repeat/STIM_004.jpg	99
1643.364	0.769	769.2	repeat	Run2	repeat/STIM_004.jpg	100
1647.707	0.793	792.6	repeat	Run2	repeat/STIM_004.jpg	100
1652.491	1.157	1157.3	repeat	Run2	repeat/STIM_004.jpg	100
1657.099	1.138	1138.1	repeat	Run2	repeat/STIM_004.jpg	99
1660.322	1.149	1148.9	repeat	Run2	repeat/STIM_005.jpg	100
1664.346	0.742	741.5	repeat	Run2	repeat/STIM_005.jpg	99
1667.807	1.001	1001.2	repeat	Run2	repeat/STIM_005.jpg	99
1672.211	1.015	1015.3	repeat	Run2	repeat/STIM_005.jpg	100
1676.975	0.749	748.9	repeat	Run2	repeat/STIM_005.jpg	99
1681.284	1.106	1106.2	repeat	Run2	repeat/STIM_006.jpg	100
1685.983	0.637	636.7	repeat	Run2	repeat/STIM_006.jpg	100
1690.357	1.206	1205.8	repeat	Run2	repeat/STIM_006.jpg	99
1693.931	1.09	1089.8	repeat	Run2	repeat/STIM_006.jpg	99
1698.443	0.648	647.7	repeat	Run2	repeat/STIM_006.jpg	99
1702.417	1.012	1012.5	repeat	Run2	repeat/STIM_007.jpg	99
1706.64	0.833	833.0	repeat	Run2	repeat/STIM_007.jpg	100
1709.989	0.696	696.0	repeat	Run2	repeat/STIM_007.jpg	99
1713.931	0.841	840.8	repeat	Run2	repeat/STIM_007.jpg	100
1717.359	0.758	757.9	repeat	Run2	repeat/STIM_007.jpg	99
1721.708	0.692	692.5	repeat	Run2	repeat/STIM_008.jpg	99
1725.753	1.102	1101.8	repeat	Run2	repeat/STIM_008.jpg	100
1729.528	0.631	630.6	repeat	Run2	repeat/STIM_008.jpg	99
1734.124	0.778	778.2	repeat	Run2	repeat/STIM_008.jpg	100
1738.607	1.118	1118.1	repeat	Run2	repeat/STIM_008.jpg	100
1742.474	1.156	1155.8	repeat	Run2	repeat/STIM_009.jpg	99
1745.956	1.022	1022.0	repeat	Run2	repeat/STIM_009.jpg	99
1750.521	0.855	855.4	repeat	Run2	repeat/STIM_009.jpg	99
1754.678	1.178	1177.7	repeat	Run2	repeat/STIM_009.jpg	99
1758.562	1.227	1227.2	repeat	Run2	repeat/STIM_009.jpg	99
1762.744	1.042	1041.7	repeat	Run2	repeat/STIM_010.jpg	100
1765.82	0.832	832.0	repeat	Run2	repeat/STIM_010.jpg	100
1769.866	0.853	852.9	repeat	Run2	repeat/STIM_010.jpg	99
1772.727	0.78	780.2	repeat	Run2	repeat/STIM_010.jpg	100
1776.996	1.209	1209.1	repeat	Run2	repeat/STIM_010.jpg	99
1780.569	0.994	994.1	repeat	Run2	repeat/STIM_011.jpg	99
1785.109	1.088	1088.1	repeat	Run2	repeat/STIM_011.jpg	99
1789.031	0.702	701.9	repeat	Run2	repeat/STIM_011.jpg	99
1792.92	1.042	1041.9	repeat	Run2	repeat/STIM_011.jpg	99
1795.966	1.059	1058.8	repeat	Run2	repeat/STIM_011.jpg	99
1799.843	0.853	852.9	repeat	Run2	repeat/STIM_012.jpg	100
1804.112	0.876	875.9	repeat	Run2	repeat/STIM_012.jpg	99
1808.979	0.738	737.5	repeat	Run2	repeat/STIM_012.jpg	99
1812.082	1.02	1020.0	repeat	Run2	repeat/STIM_012.jpg	100
1816.63	0.723	722.7	repeat	Run2	repeat/STIM_012.jpg	100
1820.372	0.662	662.3	repeat	Run2	repeat/STIM_013.jpg	99
1824.022	0.754	754.3	repeat	Run2	repeat/STIM_013.jpg	100
1827.349	1.04	1040.2	repeat	Run2	repeat/STIM_013.jpg	100
1831.891	0.881	880.8	repeat	Run2	repeat/STIM_013.jpg	100
1835.877	0.79	790.0	repeat	Run2	repeat/STIM_013.jpg	99
1839.589	1.0	1000.0	repeat	Run2	repeat/STIM_014.jpg	99
1843.009	1.226	1225.9	repeat	Run2	repeat/STIM_014.jpg	100
1847.068	1.202	1202.3	repeat	Run2	repeat/STIM_014.jpg	99
1851.061	1.012	1012.2	repeat	Run2	repeat/STIM_014.jpg	100
1855.447	1.197	1197.1	repeat	Run2	repeat/STIM_014.jpg	99
1859.704	2.623	2623.3	generate	Run3	generate/STIM_000.jpg	100
1864.74	2.208	2208.1	generate	Run3	generate/STIM_000.jpg	100
1869.919	1.834	1833.9	generate	Run3	generate/STIM_000.jpg	100
1875.549	1.638	1638.3	generate	Run3	generate/STIM_000.jpg	99
1880.998	2.199	2198.6	generate	Run3	generate/STIM_000.jpg	100
1885.839	1.186	1185.5	generate	Run3	generate/STIM_001.jpg	99
1889.7	1.223	1223.0	generate	Run3	generate/STIM_001.jpg	100
1894.271	1.175	1174.9	generate	Run3	generate/STIM_001.jpg	100
1898.32	1.718	1717.6	generate	Run3	generate/STIM_001.jpg	99
1904.034	2.409	2409.1	generate	Run3	generate/STIM_001.jpg	100
1908.986	2.599	2599.0	generate	Run3	generate/STIM_002.jpg	99
1914.678	2.496	2495.5	generate	Run3	generate/STIM_002.jpg	99
1919.825	2.043	2042.8	generate	Run3	generate/STIM_002.jpg	100
1924.034	1.249	1249.4	generate	Run3	generate/STIM_002.jpg	100
1927.61	1.522	1521.5	generate	Run3	generate/STIM_002.jpg	100
1931.989	2.172	2172.4	generate	Run3	generate/STIM_003.jpg	99
1937.979	2.004	2003.8	generate	Run3	generate/STIM_003.jpg	99
1943.336	2.154	2153.8	generate	Run3	generate/STIM_003.jpg	100
1948.298	1.804	1804.0	generate	Run3	generate/STIM_003.jpg	99
1954.072	1.956	1955.5	generate	Run3	generate/STIM_003.jpg	99
1958.686	2.382	2381.9	generate	Run3	generate/STIM_004.jpg	100
1963.211	1.395	1394.6	generate	Run3	generate/STIM_004.jpg	100
1968.258	2.115	2114.9	generate	Run3	generate/STIM_004.jpg	100
1974.156	2.444	2443.7	generate	Run3	generate/STIM_004.jpg	99
1978.686	2.474	2473.7	generate	Run3	generate/STIM_004.jpg	99
1984.726	2.494	2493.6	generate	Run3	generate/STIM_005.jpg	100
1990.525	2.259	2259.4	generate	Run3	generate/STIM_005.jpg	99
1994.976	1.693	1692.6	generate	Run3	generate/STIM_005.jpg	100
2000.293	1.652	1652.0	generate	Run3	generate/STIM_005.jpg	99
2005.677	1.374	1373.5	generate	Run3	generate/STIM_005.jpg	99
2010.205	1.113	1113.0	generate	Run3	generate/STIM_006.jpg	99
2014.691	1.962	1962.3	generate	Run3	generate/STIM_006.jpg	100
2019.632	2.388	2387.9	generate	Run3	generate/STIM_006.jpg	99
2025.362	1.393	1392.6	generate	Run3	generate/STIM_006.jpg	100
2029.959	1.575	1575.2	generate	Run3	generate/STIM_006.jpg	99
2033.659	1.256	1256.4	generate	Run3	generate/STIM_007.jpg	99
2038.617	1.889	1888.7	generate	Run3	generate/STIM_007.jpg	99
2043.166	2.045	2045.3	generate	Run3	generate/STIM_007.jpg	100
2048.393	1.456	1456.3	generate	Run3	generate/STIM_007.jpg	100
2052.701	1.141	1141.1	generate	Run3	generate/STIM_007.jpg	99
2057.491	2.564	2563.9	generate	Run3	generate/STIM_008.jpg	100
2063.746	1.887	1886.7	generate	Run3	generate/STIM_008.jpg	100
2068.329	2.189	2189.1	generate	Run3	generate/STIM_008.jpg	100
2072.956	1.316	1315.9	generate	Run3	generate/STIM_008.jpg	99
2077.738	1.313	1312.7	generate	Run3	generate/STIM_008.jpg	99
2082.392	1.579	1578.8	generate	Run3	generate/STIM_009.jpg	99
2086.311	1.922	1922.1	generate	Run3	generate/STIM_009.jpg	99
2092.043	1.976	1976.1	generate	Run3	generate/STIM_009.jpg	100
2097.228	1.62	1619.9	generate	Run3	generate/STIM_009.jpg	100
2102.703	1.482	1482.4	generate	Run3	generate/STIM_009.jpg	99
2106.7	1.873	1873.2	generate	Run3	generate/STIM_010.jpg	99
2112.089	2.522	2522.0	generate	Run3	generate/STIM_010.jpg	100
2118.14	2.288	2287.9	generate	Run3	generate/STIM_010.jpg	100
2123.697	1.723	1723.0	generate	Run3	generate/STIM_010.jpg	100
2128.543	2.597	2596.9	generate	Run3	generate/STIM_010.jpg	99
2133.588	1.89	1890.5	generate	Run3	generate/STIM_011.jpg	100
2139.248	1.675	1674.7	generate	Run3	generate/STIM_011.jpg	100
2144.412	2.056	2055.8	generate	Run3	generate/STIM_011.jpg	100
2149.182	1.776	1776.3	generate	Run3	generate/STIM_011.jpg	100
2154.387	1.672	1672.1	generate	Run3	generate/STIM_011.jpg	99
2159.547	2.44	2440.4	generate	Run3	generate/STIM_012.jpg	100
2164.061	1.24	1239.7	generate	Run3	generate/STIM_012.jpg	100
2167.434	1.506	1506.0	generate	Run3	generate/STIM_012.jpg	100
2171.89	1.945	1944.6	generate	Run3	generate/STIM_012.jpg	100
2176.312	1.71	1709.5	generate	Run3	generate/STIM_012.jpg	99
2180.124	2.378	2378.5	generate	Run3	generate/STIM_013.jpg	99
2185.622	1.51	1509.6	generate	Run3	generate/STIM_013.jpg	99
2190.333	1.804	1803.7	generate	Run3	generate/STIM_013.jpg	100
2195.555	1.358	1357.7	generate	Run3	generate/STIM_013.jpg	99
2199.428	1.366	1366.4	generate	Run3	generate/STIM_013.jpg	99
2203.583	2.339	2338.7	generate	Run3	generate/STIM_014.jpg	99
2209.354	1.492	1492.3	generate	Run3	generate/STIM_014.jpg	100
2213.235	2.013	2013.2	generate	Run3	generate/STIM_014.jpg	100
2219.19	1.758	1757.9	generate	Run3	generate/STIM_014.jpg	100
2223.63	2.106	2105.6	generate	Run3	generate/STIM_014.jpg	99
2227.779	2.128	2127.7	generate	Run3	generate/STIM_015.jpg	100
2232.905	1.575	1575.3	generate	Run3	generate/STIM_015.jpg	100
2238.055	2.472	2472.3	generate	Run3	generate/STIM_015.jpg	99
2242.557	2.498	2498.5	generate	Run3	generate/STIM_015.jpg	100
2247.583	1.652	1651.6	generate	Run3	generate/STIM_015.jpg	99
2251.241	2.371	2371.1	generate	Run3	generate/STIM_016.jpg	100
2256.426	1.856	1856.0	generate	Run3	generate/STIM_016.jpg	99
2261.011	1.792	1791.7	generate	Run3	generate/STIM_016.jpg	100
2265.867	1.281	1281.4	generate	Run3	generate/STIM_016.jpg	99
2270.014	1.844	1844.0	generate	Run3	generate/STIM_016.jpg	99
2274.984	2.316	2316.1	generate	Run3	generate/STIM_017.jpg	100
2279.315	1.791	1791.1	generate	Run3	generate/STIM_017.jpg	99
2284.52	1.899	1899.3	generate	Run3	generate/STIM_017.jpg	99
2288.494	1.845	1844.7	generate	Run3	generate/STIM_017.jpg	100
2293.375	1.628	1627.7	generate	Run3	generate/STIM_017.jpg	99
2297.454	2.5	2500.0	generate	Run3	generate/STIM_018.jpg	99
2302.852	1.952	1951.8	generate	Run3	generate/STIM_018.jpg	99
2308.379	1.41	1410.1	generate	Run3	generate/STIM_018.jpg	100
2313.012	2.343	2343.0	generate	Run3	generate/STIM_018.jpg	100
2317.787	1.432	1432.2	generate	Run3	generate/STIM_018.jpg	99
2321.335	1.187	1186.6	generate	Run3	generate/STIM_019.jpg	100
2325.711	1.362	1361.8	generate	Run3	generate/STIM_019.jpg	99
2330.43	1.446	1446.0	generate	Run3	generate/STIM_019.jpg	100
2334.707	1.633	1632.9	generate	Run3	generate/STIM_019.jpg	100
2339.753	1.351	1350.8	generate	Run3	generate/STIM_019.jpg	99
2344.772	2.335	2334.6	generate	Run3	generate/STIM_020.jpg	99
2349.452	1.495	1494.6	generate	Run3	generate/STIM_020.jpg	100
2353.115	2.221	2221.0	generate	Run3	generate/STIM_020.jpg	100
2358.527	2.543	2543.1	generate	Run3	generate/STIM_020.jpg	99
2364.029	2.186	2186.3	generate	Run3	generate/STIM_020.jpg	99
2369.757	1.613	1613.0	generate	Run3	generate/STIM_021.jpg	100
2374.572	1.343	1343.4	generate	Run3	generate/STIM_021.jpg	99
2379.684	1.223	1223.0	generate	Run3	generate/STIM_021.jpg	100
2383.041	2.225	2224.6	generate	Run3	generate/STIM_021.jpg	99
2387.654	1.396	1396.4	generate	Run3	generate/STIM_021.jpg	100
2391.581	1.331	1331.3	generate	Run3	generate/STIM_022.jpg	99
2396.767	2.135	2135.4	generate	Run3	generate/STIM_022.jpg	100
2401.066	1.788	1788.3	generate	Run3	generate/STIM_022.jpg	100
2406.603	2.011	2011.2	generate	Run3	generate/STIM_022.jpg	99
2410.902	1.815	1814.6	generate	Run3	generate/STIM_022.jpg	100
2415.391	1.277	1277.3	generate	Run3	generate/STIM_023.jpg	100
2420.347	1.653	1653.3	generate	Run3	generate/STIM_023.jpg	100
2425.554	2.493	2492.8	generate	Run3	generate/STIM_023.jpg	99
2431.899	1.851	1850.9	generate	Run3	generate/STIM_023.jpg	99
2437.5	1.571	1570.7	generate	Run3	generate/STIM_023.jpg	100
2442.201	1.248	1248.3	generate	Run3	generate/STIM_024.jpg	100
2447.431	2.365	2365.1	generate	Run3	generate/STIM_024.jpg	100
2451.991	2.28	2280.2	generate	Run3	generate/STIM_024.jpg	99
2458.24	2.161	2160.7	generate	Run3	generate/STIM_024.jpg	99
2462.726	2.365	2365.4	generate	Run3	generate/STIM_024.jpg	100
2468.247	1.216	1216.3	repeat	Run3	repeat/STIM_000.jpg	100
2472.794	1.132	1131.7	repeat	Run3	repeat/STIM_000.jpg	100
2477.521	0.872	872.1	repeat	Run3	repeat/STIM_000.jpg	99
2482.024	0.871	870.7	repeat	Run3	repeat/STIM_000.jpg	99
2486.097	0.852	852.1	repeat	Run3	repeat/STIM_000.jpg	99
2490.328	1.112	1112.2	repeat	Run3	repeat/STIM_001.jpg	99
2493.52	1.085	1085.0	repeat	Run3	repeat/STIM_001.jpg	100
2498.186	1.025	1025.0	repeat	Run3	repeat/STIM_001.jpg	100
2502.26	0.704	703.9	repeat	Run3	repeat/STIM_001.jpg	100
2505.695	1.153	1153.4	repeat	Run3	repeat/STIM_001.jpg	100
2509.836	1.177	1177.4	repeat	Run3	repeat/STIM_002.jpg	100
2514.104	1.047	1047.1	repeat	Run3	repeat/STIM_002.jpg	100
2517.617	1.022	1022.5	repeat	Run3	repeat/STIM_002.jpg	99
2521.844	0.649	648.7	repeat	Run3	repeat/STIM_002.jpg	99
2526.322	0.956	955.8	repeat	Run3	repeat/STIM_002.jpg	100
2530.988	1.035	1034.6	repeat	Run3	repeat/STIM_003.jpg	99
2534.338	0.772	772.3	repeat	Run3	repeat/STIM_003.jpg	100
2538.968	0.79	789.5	repeat	Run3	repeat/STIM_003.jpg	99
2543.547	0.746	745.7	repeat	Run3	repeat/STIM_003.jpg	100
2548.08	0.645	644.6	repeat	Run3	repeat/STIM_003.jpg	99
2551.784	1.25	1249.8	repeat	Run3	repeat/STIM_004.jpg	100
2556.982	1.114	1113.6	repeat	Run3	repeat/STIM_004.jpg	99
2560.406	1.219	1219.2	repeat	Run3	repeat/STIM_004.jpg	99
2564.861	0.916	915.6	repeat	Run3	repeat/STIM_004.jpg	100
2569.571	0.797	796.8	repeat	Run3	repeat/STIM_004.jpg	99
2573.013	0.751	750.8	repeat	Run3	repeat/STIM_005.jpg	100
2577.336	0.717	717.0	repeat	Run3	repeat/STIM_005.jpg	100
2582.047	1.149	1149.0	repeat	Run3	repeat/STIM_005.jpg	99
2585.737	0.734	734.3	repeat	Run3	repeat/STIM_005.jpg	100
2590.111	1.052	1051.7	repeat	Run3	repeat/STIM_005.jpg	100
2594.865	0.761	760.9	repeat	Run3	repeat/STIM_006.jpg	99
2598.321	1.188	1187.6	repeat	Run3	repeat/STIM_006.jpg	100
2602.353	0.859	859.0	repeat	Run3	repeat/STIM_006.jpg	100
2606.469	1.183	1182.6	repeat	Run3	repeat/STIM_006.jpg	99
2611.515	0.638	637.8	repeat	Run3	repeat/STIM_006.jpg	99
2614.307	0.975	975.4	repeat	Run3	repeat/STIM_007.jpg	99
2617.836	1.146	1145.8	repeat	Run3	repeat/STIM_007.jpg	100
2621.393	1.071	1071.0	repeat	Run3	repeat/STIM_007.jpg	100
2625.285	0.661	661.4	repeat	Run3	repeat/STIM_007.jpg	99
2629.077	0.756	755.9	repeat	Run3	repeat/STIM_007.jpg	99
2632.645	1.24	1240.1	repeat	Run3	repeat/STIM_008.jpg	99
2635.99	0.909	908.7	repeat	Run3	repeat/STIM_008.jpg	100
2639.957	0.809	809.1	repeat	Run3	repeat/STIM_008.jpg	99
2643.802	0.63	630.1	repeat	Run3	repeat/STIM_008.jpg	100
2647.812	1.249	1249.3	repeat	Run3	repeat/STIM_008.jpg	100
2652.3	0.783	783.0	repeat	Run3	repeat/STIM_009.jpg	99
2655.904	1.198	1197.7	repeat	Run3	repeat/STIM_009.jpg	99
2659.94	0.811	810.8	repeat	Run3	repeat/STIM_009.jpg	100
2664.693	0.626	625.8	repeat	Run3	repeat/STIM_009.jpg	99
2667.79	0.817	816.7	repeat	Run3	repeat/STIM_009.jpg	100
2670.826	0.792	792.0	repeat	Run3	repeat/STIM_010.jpg	99
2673.778	1.161	1160.9	repeat	Run3	repeat/STIM_010.jpg	99
2678.184	1.007	1006.6	repeat	Run3	repeat/STIM_010.jpg	99
2681.588	0.986	985.8	repeat	Run3	repeat/STIM_010.jpg	99
2685.288	0.944	943.5	repeat	Run3	repeat/STIM_010.jpg	100
2689.543	1.103	1102.7	repeat	Run3	repeat/STIM_011.jpg	99
2693.055	0.983	982.7	repeat	Run3	repeat/STIM_011.jpg	100
2697.725	0.756	756.1	repeat	Run3	repeat/STIM_011.jpg	100
2701.308	0.709	709.0	repeat	Run3	repeat/STIM_011.jpg	99
2704.803	0.627	627.4	repeat	Run3	repeat/STIM_011.jpg	100
2707.536	1.102	1101.8	repeat	Run3	repeat/STIM_012.jpg	100
2711.338	1.084	1084.0	repeat	Run3	repeat/STIM_012.jpg	99
2716.227	0.745	744.9	repeat	Run3	repeat/STIM_012.jpg	100
2720.769	0.728	727.7	repeat	Run3	repeat/STIM_012.jpg	99
2725.203	0.653	653.2	repeat	Run3	repeat/STIM_012.jpg	99
2728.37	0.775	774.7	repeat	Run3	repeat/STIM_013.jpg	99
2732.595	1.006	1005.6	repeat	Run3	repeat/STIM_013.jpg	100
2737.34	1.077	1077.2	repeat	Run3	repeat/STIM_013.jpg	100
2740.753	1.202	1202.1	repeat	Run3	repeat/STIM_013.jpg	99
2745.318	1.065	1064.8	repeat	Run3	repeat/STIM_013.jpg	99
2749.179	0.684	684.3	repeat	Run3	repeat/STIM_014.jpg	99
2753.205	0.848	848.5	repeat	Run3	repeat/STIM_014.jpg	100
2756.706	0.998	998.4	repeat	Run3	repeat/STIM_014.jpg	99
2760.565	1.06	1060.4	repeat	Run3	repeat/STIM_014.jpg	100
2763.848	1.029	1028.6	repeat	Run3	repeat/STIM_014.jpg	100
2767.907	1.792	1792.4	generate	Run4	generate/STIM_000.jpg	99
2773.297	1.197	1196.8	generate	Run4	generate/STIM_000.jpg	100
2777.718	1.68	1679.7	generate	Run4	generate/STIM_000.jpg	100
2781.577	1.496	1495.7	generate	Run4	generate/STIM_000.jpg	99
2785.672	2.326	2326.4	generate	Run4	generate/STIM_000.jpg	99
2790.657	2.35	2350.1	generate	Run4	generate/STIM_001.jpg	99
2795.605	1.274	1273.9	generate	Run4	generate/STIM_001.jpg	100
2800.619	2.233	2233.1	generate	Run4	generate/STIM_001.jpg	99
2806.529	1.095	1095.2	generate	Run4	generate/STIM_001.jpg	100
2810.694	1.351	1350.6	generate	Run4	generate/STIM_001.jpg	100
2814.532	2.232	2232.0	generate	Run4	generate/STIM_002.jpg	100
2819.897	2.2	2200.5	generate	Run4	generate/STIM_002.jpg	99
2825.778	2.594	2594.2	generate	Run4	generate/STIM_002.jpg	99
2831.006	2.428	2428.3	generate	Run4	generate/STIM_002.jpg	100
2836.361	2.082	2081.5	generate	Run4	generate/STIM_002.jpg	100
2841.554	2.007	2006.8	generate	Run4	generate/STIM_003.jpg	100
2847.528	1.797	1797.3	generate	Run4	generate/STIM_003.jpg	100
2851.771	2.511	2511.3	generate	Run4	generate/STIM_003.jpg	100
2858.236	2.522	2522.3	generate	Run4	generate/STIM_003.jpg	100
2862.894	2.225	2225.0	generate	Run4	generate/STIM_003.jpg	99
2867.797	2.166	2166.0	generate	Run4	generate/STIM_004.jpg	99
2872.016	1.143	1142.6	generate	Run4	generate/STIM_004.jpg	100
2876.808	2.136	2136.4	generate	Run4	generate/STIM_004.jpg	99
2881.495	1.574	1573.7	generate	Run4	generate/STIM_004.jpg	99
2885.392	2.278	2277.9	generate	Run4	generate/STIM_004.jpg	100
2891.328	1.451	1451.2	generate	Run4	generate/STIM_005.jpg	100
2896.498	1.552	1552.4	generate	Run4	generate/STIM_005.jpg	99
2900.267	1.438	1438.2	generate	Run4	generate/STIM_005.jpg	100
2904.507	2.342	2342.4	generate	Run4	generate/STIM_005.jpg	99
2909.395	1.556	1556.2	generate	Run4	generate/STIM_005.jpg	99
2914.483	2.227	2226.7	generate	Run4	generate/STIM_006.jpg	99
2919.372	1.601	1601.1	generate	Run4	generate/STIM_006.jpg	99
2923.293	2.439	2439.2	generate	Run4	generate/STIM_006.jpg	99
2927.92	1.992	1992.4	generate	Run4	generate/STIM_006.jpg	100
2932.581	1.194	1193.7	generate	Run4	generate/STIM_006.jpg	100
2937.716	1.73	1729.7	generate	Run4	generate/STIM_007.jpg	99
2942.867	1.463	1462.7	generate	Run4	generate/STIM_007.jpg	99
2947.449	2.304	2304.0	generate	Run4	generate/STIM_007.jpg	100
2952.996	1.282	1281.9	generate	Run4	generate/STIM_007.jpg	100
2958.176	2.436	2435.5	generate	Run4	generate/STIM_007.jpg	99
2964.203	2.394	2394.1	generate	Run4	generate/STIM_008.jpg	100
2970.022	2.599	2599.2	generate	Run4	generate/STIM_008.jpg	100
2975.671	1.69	1689.5	generate	Run4	generate/STIM_008.jpg	99
2980.794	2.252	2251.5	generate	Run4	generate/STIM_008.jpg	100
2985.409	1.403	1402.6	generate	Run4	generate/STIM_008.jpg	100
2990.217	2.031	2030.8	generate	Run4	generate/STIM_009.jpg	99
2995.752	1.821	1820.9	generate	Run4	generate/STIM_009.jpg	99
3000.907	1.782	1781.8	generate	Run4	generate/STIM_009.jpg	99
3005.733	2.544	2544.3	generate	Run4	generate/STIM_009.jpg	99
3011.502	2.012	2011.6	generate	Run4	generate/STIM_009.jpg	99
3017.028	1.926	1926.3	generate	Run4	generate/STIM_010.jpg	100
3021.971	2.019	2019.2	generate	Run4	generate/STIM_010.jpg	100
3026.654	2.381	2381.2	generate	Run4	generate/STIM_010.jpg	99
3032.904	2.071	2070.7	generate	Run4	generate/STIM_010.jpg	100
3037.595	1.357	1356.9	generate	Run4	generate/STIM_010.jpg	99
3041.662	1.968	1968.3	generate	Run4	generate/STIM_011.jpg	100
3045.883	2.24	2239.9	generate	Run4	generate/STIM_011.jpg	100
3052.106	2.437	2437.1	generate	Run4	generate/STIM_011.jpg	99
3056.605	2.62	2620.3	generate	Run4	generate/STIM_011.jpg	99
3063.159	2.268	2267.9	generate	Run4	generate/STIM_011.jpg	100
3069.277	2.017	2016.5	generate	Run4	generate/STIM_012.jpg	99
3073.573	2.478	2478.4	generate	Run4	generate/STIM_012.jpg	99
3079.209	2.316	2315.9	generate	Run4	generate/STIM_012.jpg	99
3085.165	2.247	2247.3	generate	Run4	generate/STIM_012.jpg	99
3090.875	2.542	2542.0	generate	Run4	generate/STIM_012.jpg	99
3096.577	1.404	1404.0	generate	Run4	generate/STIM_013.jpg	99
3100.251	1.194	1194.2	generate	Run4	generate/STIM_013.jpg	99
3104.36	2.159	2159.4	generate	Run4	generate/STIM_013.jpg	99
3110.058	2.195	2194.6	generate	Run4	generate/STIM_013.jpg	100
3115.546	1.92	1920.4	generate	Run4	generate/STIM_013.jpg	99
3119.965	1.098	1098.0	generate	Run4	generate/STIM_014.jpg	100
3123.56	1.385	1384.6	generate	Run4	generate/STIM_014.jpg	99
3128.221	2.418	2417.7	generate	Run4	generate/STIM_014.jpg	99
3134.545	1.748	1748.0	generate	Run4	generate/STIM_014.jpg	99
3138.978	1.988	1988.3	generate	Run4	generate/STIM_014.jpg	99
3144.1	1.065	1065.2	generate	Run4	generate/STIM_015.jpg	100
3148.724	2.116	2115.7	generate	Run4	generate/STIM_015.jpg	100
3153.287	2.235	2234.8	generate	Run4	generate/STIM_015.jpg	99
3157.816	1.367	1367.3	generate	Run4	generate/STIM_015.jpg	99
3161.253	1.154	1154.3	generate	Run4	generate/STIM_015.jpg	100
3164.482	2.576	2576.0	generate	Run4	generate/STIM_016.jpg	99
3170.063	2.385	2384.8	generate	Run4	generate/STIM_016.jpg	99
3176.383	1.938	1938.3	generate	Run4	generate/STIM_016.jpg	100
3180.372	1.532	1531.7	generate	Run4	generate/STIM_016.jpg	100
3185.167	2.368	2368.3	generate	Run4	generate/STIM_016.jpg	100
3190.05	2.271	2270.7	generate	Run4	generate/STIM_017.jpg	100
3194.395	1.731	1731.1	generate	Run4	generate/STIM_017.jpg	99
3199.197	2.018	2017.6	generate	Run4	generate/STIM_017.jpg	99
3203.419	1.849	1848.6	generate	Run4	generate/STIM_017.jpg	100
3208.211	1.334	1334.5	generate	Run4	generate/STIM_017.jpg	99
3213.497	1.902	1902.1	generate	Run4	generate/STIM_018.jpg	100
3217.442	1.068	1067.5	generate	Run4	generate/STIM_018.jpg	100
3222.365	2.035	2034.7	generate	Run4	generate/STIM_018.jpg	99
3228.364	1.276	1276.1	generate	Run4	generate/STIM_018.jpg	100
3231.735	1.33	1330.1	generate	Run4	generate/STIM_018.jpg	100
3236.562	2.03	2029.9	generate	Run4	generate/STIM_019.jpg	100
3242.536	1.129	1128.9	generate	Run4	generate/STIM_019.jpg	99
3246.449	2.031	2031.0	generate	Run4	generate/STIM_019.jpg	100
3251.417	2.173	2172.8	generate	Run4	generate/STIM_019.jpg	100
3256.037	1.164	1164.3	generate	Run4	generate/STIM_019.jpg	100
3260.002	2.352	2351.9	generate	Run4	generate/STIM_020.jpg	100
3265.832	1.194	1194.3	generate	Run4	generate/STIM_020.jpg	100
3270.967	2.586	2585.7	generate	Run4	generate/STIM_020.jpg	99
3275.736	2.338	2337.5	generate	Run4	generate/STIM_020.jpg	100
3281.666	1.716	1716.4	generate	Run4	generate/STIM_020.jpg	100
3286.952	2.166	2165.7	generate	Run4	generate/STIM_021.jpg	100
3292.912	2.513	2513.0	generate	Run4	generate/STIM_021.jpg	100
3298.506	1.073	1073.4	generate	Run4	generate/STIM_021.jpg	100
3303.487	2.01	2010.4	generate	Run4	generate/STIM_021.jpg	100
3308.643	1.532	1532.1	generate	Run4	generate/STIM_021.jpg	99
3313.735	1.943	1943.3	generate	Run4	generate/STIM_022.jpg	99
3318.856	2.446	2445.8	generate	Run4	generate/STIM_022.jpg	100
3325.224	1.682	1681.6	generate	Run4	generate/STIM_022.jpg	99
3330.395	1.731	1730.7	generate	Run4	generate/STIM_022.jpg	100
3335.396	1.98	1979.9	generate	Run4	generate/STIM_022.jpg	100
3341.35	1.952	1952.0	generate	Run4	generate/STIM_023.jpg	99
3346.324	2.022	2022.5	generate	Run4	generate/STIM_023.jpg	100
3352.012	2.181	2181.4	generate	Run4	generate/STIM_023.jpg	99
3358.051	1.402	1401.5	generate	Run4	generate/STIM_023.jpg	99
3362.59	1.328	1327.7	generate	Run4	generate/STIM_023.jpg	100
3367.296	1.764	1764.4	generate	Run4	generate/STIM_024.jpg	100
3371.727	1.915	1914.6	generate	Run4	generate/STIM_024.jpg	100
3375.778	2.47	2469.6	generate	Run4	generate/STIM_024.jpg	99
3381.803	2.382	2381.7	generate	Run4	generate/STIM_024.jpg	99
3386.85	1.443	1443.0	generate	Run4	generate/STIM_024.jpg	99
3391.946	0.635	634.7	repeat	Run4	repeat/STIM_000.jpg	100
3395.453	1.163	1162.6	repeat	Run4	repeat/STIM_000.jpg	99
3400.583	0.777	777.3	repeat	Run4	repeat/STIM_000.jpg	100
3405.206	0.916	915.6	repeat	Run4	repeat/STIM_000.jpg	99
3408.777	1.197	1196.6	repeat	Run4	repeat/STIM_000.jpg	99
3412.074	0.778	778.1	repeat	Run4	repeat/STIM_001.jpg	99
3415.892	0.731	730.8	repeat	Run4	repeat/STIM_001.jpg	99
3419.971	0.827	826.9	repeat	Run4	repeat/STIM_001.jpg	99
3424.695	0.828	828.5	repeat	Run4	repeat/STIM_001.jpg	99
3428.006	0.709	708.8	repeat	Run4	repeat/STIM_001.jpg	100
3431.325	1.146	1145.9	repeat	Run4	repeat/STIM_002.jpg	99
3435.022	0.932	931.6	repeat	Run4	repeat/STIM_002.jpg	99
3439.124	1.181	1180.9	repeat	Run4	repeat/STIM_002.jpg	99
3443.173	0.904	903.5	repeat	Run4	repeat/STIM_002.jpg	99
3447.831	1.212	1212.3	repeat	Run4	repeat/STIM_002.jpg	99
3452.529	0.634	633.9	repeat	Run4	repeat/STIM_003.jpg	100
3455.326	1.202	1202.3	repeat	Run4	repeat/STIM_003.jpg	100
3460.348	0.934	934.5	repeat	Run4	repeat/STIM_003.jpg	99
3463.318	1.165	1165.1	repeat	Run4	repeat/STIM_003.jpg	100
3467.066	1.209	1209.2	repeat	Run4	repeat/STIM_003.jpg	100
3471.665	0.957	956.7	repeat	Run4	repeat/STIM_004.jpg	100
3476.079	0.855	854.7	repeat	Run4	repeat/STIM_004.jpg	99
3479.412	1.027	1027.3	repeat	Run4	repeat/STIM_004.jpg	99
3483.022	0.999	999.2	repeat	Run4	repeat/STIM_004.jpg	99
3487.657	1.166	1165.6	repeat	Run4	repeat/STIM_004.jpg	100
3491.481	0.721	720.6	repeat	Run4	repeat/STIM_005.jpg	100
3496.109	1.22	1220.2	repeat	Run4	repeat/STIM_005.jpg	100
3501.116	0.948	947.7	repeat	Run4	repeat/STIM_005.jpg	99
3504.166	0.644	644.5	repeat	Run4	repeat/STIM_005.jpg	99
3508.135	0.711	711.1	repeat	Run4	repeat/STIM_005.jpg	99
3512.627	0.848	847.5	repeat	Run4	repeat/STIM_006.jpg	99
3516.08	1.034	1034.0	repeat	Run4	repeat/STIM_006.jpg	100
3519.734	1.159	1159.0	repeat	Run4	repeat/STIM_006.jpg	100
3524.551	1.03	1029.9	repeat	Run4	repeat/STIM_006.jpg	99
3528.112	0.811	810.6	repeat	Run4	repeat/STIM_006.jpg	100
3531.668	0.957	957.3	repeat	Run4	repeat/STIM_007.jpg	100
3536.417	1.036	1035.7	repeat	Run4	repeat/STIM_007.jpg	99
3541.093	0.726	725.5	repeat	Run4	repeat/STIM_007.jpg	99
3544.876	0.861	860.7	repeat	Run4	repeat/STIM_007.jpg	99
3548.449	0.658	658.3	repeat	Run4	repeat/STIM_007.jpg	99
3551.856	0.667	666.7	repeat	Run4	repeat/STIM_008.jpg	99
3554.968	0.971	970.9	repeat	Run4	repeat/STIM_008.jpg	100
3558.581	0.626	626.3	repeat	Run4	repeat/STIM_008.jpg	99
3561.826	1.138	1138.5	repeat	Run4	repeat/STIM_008.jpg	100
3565.382	0.702	701.5	repeat	Run4	repeat/STIM_008.jpg	99
3569.777	0.664	663.5	repeat	Run4	repeat/STIM_009.jpg	100
3572.785	1.105	1105.2	repeat	Run4	repeat/STIM_009.jpg	99
3577.236	0.71	710.3	repeat	Run4	repeat/STIM_009.jpg	99
3580.323	1.102	1101.9	repeat	Run4	repeat/STIM_009.jpg	99
3585.142	0.727	727.0	repeat	Run4	repeat/STIM_009.jpg	99
3588.442	0.69	689.5	repeat	Run4	repeat/STIM_010.jpg	99
3591.377	1.224	1224.2	repeat	Run4	repeat/STIM_010.jpg	100
3596.431	0.642	641.9	repeat	Run4	repeat/STIM_010.jpg	99
3600.992	1.234	1234.3	repeat	Run4	repeat/STIM_010.jpg	100
3604.525	0.731	731.2	repeat	Run4	repeat/STIM_010.jpg	99
3608.717	1.07	1069.8	repeat	Run4	repeat/STIM_011.jpg	100
3613.674	0.937	936.6	repeat	Run4	repeat/STIM_011.jpg	100
3618.051	0.628	627.7	repeat	Run4	repeat/STIM_011.jpg	100
3620.836	1.169	1168.8	repeat	Run4	repeat/STIM_011.jpg	99
3625.472	0.852	852.1	repeat	Run4	repeat/STIM_011.jpg	100
3629.768	0.997	996.8	repeat	Run4	repeat/STIM_012.jpg	100
3632.894	1.022	1022.4	repeat	Run4	repeat/STIM_012.jpg	99
3636.898	0.967	966.7	repeat	Run4	repeat/STIM_012.jpg	99
3640.959	0.77	769.9	repeat	Run4	repeat/STIM_012.jpg	100
3645.574	0.701	700.9	repeat	Run4	repeat/STIM_012.jpg	100
3649.41	0.678	678.3	repeat	Run4	repeat/STIM_013.jpg	99
3652.17	0.964	964.2	repeat	Run4	repeat/STIM_013.jpg	100
3655.375	0.798	798.4	repeat	Run4	repeat/STIM_013.jpg	100
3658.255	0.887	887.1	repeat	Run4	repeat/STIM_013.jpg	100
3662.885	0.934	934.1	repeat	Run4	repeat/STIM_013.jpg	100
3666.041	1.073	1072.9	repeat	Run4	repeat/STIM_014.jpg	100
3670.878	1.22	1219.7	repeat	Run4	repeat/STIM_014.jpg	99
3674.654	1.242	1242.1	repeat	Run4	repeat/STIM_014.jpg	99
3679.227	0.902	902.1	repeat	Run4	repeat/STIM_014.jpg	100
3682.978	1.029	1028.9	repeat	Run4	repeat/STIM_014.jpg	100
