onset	duration	response_time_ms	trial_type	learning_stage	stimulus	response_port
0.0	1.7	1699.8	generate	Run1	generate/STIM_000.jpg	99
5.723	1.194	1193.9	generate	Run1	generate/STIM_000.jpg	100
10.746	1.191	1190.7	generate	Run1	generate/STIM_000.jpg	100
15.471	1.504	1503.9	generate	Run1	generate/STIM_000.jpg	100
20.163	1.504	1503.8	generate	Run1	generate/STIM_000.jpg	100
24.809	2.096	2096.3	generate	Run1	generate/STIM_001.jpg	99
30.436	1.607	1606.9	generate	Run1	generate/STIM_001.jpg	99
35.425	2.216	2215.5	generate	Run1	generate/STIM_001.jpg	99
40.19	1.13	1130.4	generate	Run1	generate/STIM_001.jpg	99
44.822	2.023	2023.5	generate	Run1	generate/STIM_001.jpg	100
50.166	1.979	1979.2	generate	Run1	generate/STIM_002.jpg	100
54.708	1.191	1190.9	generate	Run1	generate/STIM_002.jpg	99
58.972	1.256	1256.0	generate	Run1	generate/STIM_002.jpg	100
63.983	0.948	947.6	generate	Run1	generate/STIM_002.jpg	99
67.583	1.891	1891.0	generate	Run1	generate/STIM_002.jpg	100
72.928	2.099	2099.1	generate	Run1	generate/STIM_003.jpg	100
77.405	1.487	1487.3	generate	Run1	generate/STIM_003.jpg	100
81.35	1.985	1984.7	generate	Run1	generate/STIM_003.jpg	99
87.164	1.525	1524.9	generate	Run1	generate/STIM_003.jpg	99
92.368	1.324	1324.5	generate	Run1	generate/STIM_003.jpg	100
97.328	2.205	2205.3	generate	Run1	generate/STIM_004.jpg	100
102.968	2.362	2362.1	generate	Run1	generate/STIM_004.jpg	99
107.939	1.008	1007.5	generate	Run1	generate/STIM_004.jpg	99
112.356	1.882	1882.2	generate	Run1	generate/STIM_004.jpg	100
117.606	1.12	1119.8	generate	Run1	generate/STIM_004.jpg	100
121.938	1.137	1136.7	generate	Run1	generate/STIM_005.jpg	99
125.941	1.105	1104.7	generate	Run1	generate/STIM_005.jpg	100
130.238	2.362	2362.4	generate	Run1	generate/STIM_005.jpg	99
135.051	1.9	1900.0	generate	Run1	generate/STIM_005.jpg	99
140.817	0.888	888.2	generate	Run1	generate/STIM_005.jpg	100
145.762	2.04	2040.3	generate	Run1	generate/STIM_006.jpg	99
151.606	1.895	1895.0	generate	Run1	generate/STIM_006.jpg	100
156.447	2.105	2105.0	generate	Run1	generate/STIM_006.jpg	100
161.967	1.102	1101.6	generate	Run1	generate/STIM_006.jpg	99
166.937	0.981	980.8	generate	Run1	generate/STIM_006.jpg	100
171.212	1.14	1140.1	generate	Run1	generate/STIM_007.jpg	99
175.871	2.341	2340.9	generate	Run1	generate/STIM_007.jpg	99
181.713	1.971	1970.9	generate	Run1	generate/STIM_007.jpg	100
186.7	1.218	1217.6	generate	Run1	generate/STIM_007.jpg	99
191.459	1.402	1401.7	generate	Run1	generate/STIM_007.jpg	99
196.779	1.677	1677.0	generate	Run1	generate/STIM_008.jpg	100
202.591	2.476	2475.5	generate	Run1	generate/STIM_008.jpg	100
208.946	2.242	2242.3	generate	Run1	generate/STIM_008.jpg	99
213.761	1.086	1085.5	generate	Run1	generate/STIM_008.jpg	99
217.488	1.744	1743.6	generate	Run1	generate/STIM_008.jpg	100
222.084	2.602	2601.5	generate	Run1	generate/STIM_009.jpg	99
228.692	1.157	1157.2	generate	Run1	generate/STIM_009.jpg	100
232.697	1.449	1449.2	generate	Run1	generate/STIM_009.jpg	100
237.657	1.965	1965.2	generate	Run1	generate/STIM_009.jpg	100
243.326	0.931	931.2	generate	Run1	generate/STIM_009.jpg	99
247.006	2.171	2170.9	generate	Run1	generate/STIM_010.jpg	100
252.023	1.296	1296.0	generate	Run1	generate/STIM_010.jpg	100
257.088	1.011	1010.8	generate	Run1	generate/STIM_010.jpg	100
261.514	1.433	1432.6	generate	Run1	generate/STIM_010.jpg	99
266.431	1.151	1151.0	generate	Run1	generate/STIM_010.jpg	99
271.168	2.447	2446.7	generate	Run1	generate/STIM_011.jpg	100
276.245	1.71	1710.0	generate	Run1	generate/STIM_011.jpg	100
280.211	1.662	1661.7	generate	Run1	generate/STIM_011.jpg	100
285.688	1.176	1175.9	generate	Run1	generate/STIM_011.jpg	100
290.304	1.712	1712.4	generate	Run1	generate/STIM_011.jpg	100
295.057	2.241	2240.9	generate	Run1	generate/STIM_012.jpg	100
301.046	1.139	1139.1	generate	Run1	generate/STIM_012.jpg	99
305.677	1.801	1801.4	generate	Run1	generate/STIM_012.jpg	99
310.731	1.332	1331.5	generate	Run1	generate/STIM_012.jpg	99
315.12	1.186	1186.4	generate	Run1	generate/STIM_012.jpg	100
320.004	1.368	1367.7	generate	Run1	generate/STIM_013.jpg	99
324.596	2.399	2398.9	generate	Run1	generate/STIM_013.jpg	99
329.742	0.973	972.7	generate	Run1	generate/STIM_013.jpg	99
334.077	1.278	1278.3	generate	Run1	generate/STIM_013.jpg	100
339.37	1.72	1720.1	generate	Run1	generate/STIM_013.jpg	100
344.305	1.955	1955.1	generate	Run1	generate/STIM_014.jpg	99
350.44	1.65	1649.9	generate	Run1	generate/STIM_014.jpg	99
355.943	1.092	1092.4	generate	Run1	generate/STIM_014.jpg	100
359.288	1.494	1493.5	generate	Run1	generate/STIM_014.jpg	100
363.22	1.091	1091.0	generate	Run1	generate/STIM_014.jpg	99
367.585	1.41	1409.9	generate	Run1	generate/STIM_015.jpg	99
371.268	2.238	2238.2	generate	Run1	generate/STIM_015.jpg	99
375.804	2.015	2014.8	generate	Run1	generate/STIM_015.jpg	100
381.867	1.6	1600.0	generate	Run1	generate/STIM_015.jpg	100
385.886	1.865	1865.0	generate	Run1	generate/STIM_015.jpg	100
391.96	2.536	2536.1	generate	Run1	generate/STIM_016.jpg	100
398.246	1.963	1962.6	generate	Run1	generate/STIM_016.jpg	100
403.264	2.287	2287.3	generate	Run1	generate/STIM_016.jpg	99
409.632	1.344	1344.4	generate	Run1	generate/STIM_016.jpg	100
414.647	2.006	2005.9	generate	Run1	generate/STIM_016.jpg	100
420.492	2.572	2571.6	generate	Run1	generate/STIM_017.jpg	99
426.386	1.404	1404.1	generate	Run1	generate/STIM_017.jpg	99
431.349	2.067	2066.7	generate	Run1	generate/STIM_017.jpg	100
435.852	1.771	1771.0	generate	Run1	generate/STIM_017.jpg	100
440.763	1.594	1594.1	generate	Run1	generate/STIM_017.jpg	100
445.47	1.514	1514.3	generate	Run1	generate/STIM_018.jpg	100
449.682	1.912	1911.7	generate	Run1	generate/STIM_018.jpg	100
455.552	2.038	2037.7	generate	Run1	generate/STIM_018.jpg	100
461.137	2.068	2067.7	generate	Run1	generate/STIM_018.jpg	100
466.625	1.548	1548.1	generate	Run1	generate/STIM_018.jpg	99
472.211	1.827	1827.3	generate	Run1	generate/STIM_019.jpg	99
478.208	1.408	1407.7	generate	Run1	generate/STIM_019.jpg	100
483.123	1.68	1680.1	generate	Run1	generate/STIM_019.jpg	99
487.287	1.639	1638.7	generate	Run1	generate/STIM_019.jpg	100
492.477	1.014	1013.5	generate	Run1	generate/STIM_019.jpg	100
496.982	1.32	1320.1	generate	Run1	generate/STIM_020.jpg	100
501.272	1.69	1689.6	generate	Run1	generate/STIM_020.jpg	100
507.068	2.219	2218.9	generate	Run1	generate/STIM_020.jpg	100
511.864	2.07	2070.4	generate	Run1	generate/STIM_020.jpg	100
517.589	1.04	1040.5	generate	Run1	generate/STIM_020.jpg	100
520.803	1.727	1727.4	generate	Run1	generate/STIM_021.jpg	99
526.716	2.034	2033.9	generate	Run1	generate/STIM_021.jpg	99
531.194	1.513	1513.4	generate	Run1	generate/STIM_021.jpg	99
536.645	1.419	1418.8	generate	Run1	generate/STIM_021.jpg	100
541.23	1.732	1732.3	generate	Run1	generate/STIM_021.jpg	100
545.358	2.622	2621.9	generate	Run1	generate/STIM_022.jpg	100
550.881	1.968	1967.8	generate	Run1	generate/STIM_022.jpg	100
555.188	1.943	1942.7	generate	Run1	generate/STIM_022.jpg	100
560.533	1.461	1461.3	generate	Run1	generate/STIM_022.jpg	100
565.67	2.118	2117.7	generate	Run1	generate/STIM_022.jpg	99
571.924	2.402	2401.8	generate	Run1	generate/STIM_023.jpg	99
577.733	1.882	1881.5	generate	Run1	generate/STIM_023.jpg	99
581.838	1.517	1517.4	generate	Run1	generate/STIM_023.jpg	100
587.179	2.273	2272.8	generate	Run1	generate/STIM_023.jpg	99
593.567	1.699	1699.3	generate	Run1	generate/STIM_023.jpg	99
598.028	1.304	1304.2	generate	Run1	generate/STIM_024.jpg	99
602.854	2.49	2490.0	generate	Run1	generate/STIM_024.jpg	99
609.105	1.656	1656.3	generate	Run1	generate/STIM_024.jpg	100
613.649	1.122	1122.4	generate	Run1	generate/STIM_024.jpg	100
617.553	1.498	1497.9	generate	Run1	generate/STIM_024.jpg	100
621.961	0.522	521.5	repeat	Run1	repeat/STIM_000.jpg	99
625.901	0.448	448.5	repeat	Run1	repeat/STIM_000.jpg	100
630.118	0.661	661.3	repeat	Run1	repeat/STIM_000.jpg	100
633.548	0.623	623.1	repeat	Run1	repeat/STIM_000.jpg	99
636.797	0.605	604.9	repeat	Run1	repeat/STIM_000.jpg	99
639.574	0.509	509.2	repeat	Run1	repeat/STIM_001.jpg	99
643.228	0.616	615.5	repeat	Run1	repeat/STIM_001.jpg	100
646.612	0.674	674.5	repeat	Run1	repeat/STIM_001.jpg	100
649.395	0.626	626.1	repeat	Run1	repeat/STIM_001.jpg	100
652.507	0.51	510.2	repeat	Run1	repeat/STIM_001.jpg	100
655.639	0.526	525.9	repeat	Run1	repeat/STIM_002.jpg	99
659.813	0.785	784.9	repeat	Run1	repeat/STIM_002.jpg	99
664.238	0.881	881.0	repeat	Run1	repeat/STIM_002.jpg	100
668.77	0.726	726.0	repeat	Run1	repeat/STIM_002.jpg	100
672.879	0.743	743.1	repeat	Run1	repeat/STIM_002.jpg	100
677.608	0.561	561.4	repeat	Run1	repeat/STIM_003.jpg	100
680.365	0.574	574.1	repeat	Run1	repeat/STIM_003.jpg	99
683.97	0.809	809.1	repeat	Run1	repeat/STIM_003.jpg	99
688.282	0.701	700.9	repeat	Run1	repeat/STIM_003.jpg	100
691.891	0.753	753.2	repeat	Run1	repeat/STIM_003.jpg	99
696.718	0.706	706.1	repeat	Run1	repeat/STIM_004.jpg	99
701.245	0.575	574.7	repeat	Run1	repeat/STIM_004.jpg	99
704.656	0.631	630.7	repeat	Run1	repeat/STIM_004.jpg	100
707.972	0.631	631.3	repeat	Run1	repeat/STIM_004.jpg	99
710.965	0.749	749.0	repeat	Run1	repeat/STIM_004.jpg	99
715.748	0.476	476.2	repeat	Run1	repeat/STIM_005.jpg	100
718.681	0.669	668.6	repeat	Run1	repeat/STIM_005.jpg	100
722.655	0.822	822.1	repeat	Run1	repeat/STIM_005.jpg	99
727.199	0.767	766.8	repeat	Run1	repeat/STIM_005.jpg	100
730.8	0.708	707.6	repeat	Run1	repeat/STIM_005.jpg	100
735.072	0.614	614.2	repeat	Run1	repeat/STIM_006.jpg	99
739.173	0.75	750.5	repeat	Run1	repeat/STIM_006.jpg	100
742.296	0.487	487.1	repeat	Run1	repeat/STIM_006.jpg	99
745.008	0.808	808.3	repeat	Run1	repeat/STIM_006.jpg	99
748.994	0.584	583.7	repeat	Run1	repeat/STIM_006.jpg	99
751.738	0.511	511.1	repeat	Run1	repeat/STIM_007.jpg	99
755.158	0.763	763.1	repeat	Run1	repeat/STIM_007.jpg	100
759.091	0.777	776.8	repeat	Run1	repeat/STIM_007.jpg	100
763.727	0.6	600.5	repeat	Run1	repeat/STIM_007.jpg	99
766.747	0.657	657.0	repeat	Run1	repeat/STIM_007.jpg	100
770.719	0.632	631.5	repeat	Run1	repeat/STIM_008.jpg	100
773.876	0.506	505.8	repeat	Run1	repeat/STIM_008.jpg	99
776.705	0.781	781.3	repeat	Run1	repeat/STIM_008.jpg	100
780.267	0.746	745.9	repeat	Run1	repeat/STIM_008.jpg	100
784.097	0.58	580.2	repeat	Run1	repeat/STIM_008.jpg	100
787.333	0.589	589.2	repeat	Run1	repeat/STIM_009.jpg	99
791.859	0.589	589.4	repeat	Run1	repeat/STIM_009.jpg	100
794.981	0.602	602.0	repeat	Run1	repeat/STIM_009.jpg	100
797.958	0.489	489.4	repeat	Run1	repeat/STIM_009.jpg	99
800.947	0.489	488.7	repeat	Run1	repeat/STIM_009.jpg	99
805.227	0.614	613.6	repeat	Run1	repeat/STIM_010.jpg	100
809.775	0.587	587.2	repeat	Run1	repeat/STIM_010.jpg	99
812.616	0.49	490.2	repeat	Run1	repeat/STIM_010.jpg	99
816.844	0.538	538.0	repeat	Run1	repeat/STIM_010.jpg	99
820.047	0.536	536.1	repeat	Run1	repeat/STIM_010.jpg	100
823.651	0.558	558.3	repeat	Run1	repeat/STIM_011.jpg	99
827.392	0.738	738.0	repeat	Run1	repeat/STIM_011.jpg	100
830.574	0.807	806.7	repeat	Run1	repeat/STIM_011.jpg	100
834.342	0.578	577.7	repeat	Run1	repeat/STIM_011.jpg	99
838.73	0.506	505.6	repeat	Run1	repeat/STIM_011.jpg	100
843.226	0.752	752.4	repeat	Run1	repeat/STIM_012.jpg	100
847.349	0.508	508.4	repeat	Run1	repeat/STIM_012.jpg	100
850.735	0.69	689.7	repeat	Run1	repeat/STIM_012.jpg	100
855.009	0.488	488.3	repeat	Run1	repeat/STIM_012.jpg	100
858.634	0.663	663.3	repeat	Run1	repeat/STIM_012.jpg	100
862.731	0.755	755.3	repeat	Run1	repeat/STIM_013.jpg	99
866.292	0.76	760.3	repeat	Run1	repeat/STIM_013.jpg	99
870.118	0.832	831.6	repeat	Run1	repeat/STIM_013.jpg	100
874.278	0.546	545.7	repeat	Run1	repeat/STIM_013.jpg	99
876.934	0.799	799.4	repeat	Run1	repeat/STIM_013.jpg	99
880.138	0.714	713.7	repeat	Run1	repeat/STIM_014.jpg	100
884.255	0.624	624.0	repeat	Run1	repeat/STIM_014.jpg	99
888.048	0.868	868.1	repeat	Run1	repeat/STIM_014.jpg	100
892.096	0.689	689.1	repeat	Run1	repeat/STIM_014.jpg	100
895.948	0.563	563.3	repeat	Run1	repeat/STIM_014.jpg	100
898.722	1.854	1853.7	generate	Run2	generate/STIM_000.jpg	99
902.905	1.183	1183.4	generate	Run2	generate/STIM_000.jpg	100
907.421	1.342	1342.4	generate	Run2	generate/STIM_000.jpg	99
911.448	1.044	1043.8	generate	Run2	generate/STIM_000.jpg	99
915.96	1.228	1228.5	generate	Run2	generate/STIM_000.jpg	99
919.869	1.688	1688.1	generate	Run2	generate/STIM_001.jpg	99
924.657	1.113	1113.3	generate	Run2	generate/STIM_001.jpg	100
928.275	0.853	853.2	generate	Run2	generate/STIM_001.jpg	99
932.116	0.808	808.5	generate	Run2	generate/STIM_001.jpg	100
936.39	1.315	1314.7	generate	Run2	generate/STIM_001.jpg	100
941.847	1.247	1247.2	generate	Run2	generate/STIM_002.jpg	99
945.388	0.898	898.4	generate	Run2	generate/STIM_002.jpg	99
949.832	1.456	1456.3	generate	Run2	generate/STIM_002.jpg	100
954.218	0.867	867.4	generate	Run2	generate/STIM_002.jpg	99
959.16	1.379	1379.4	generate	Run2	generate/STIM_002.jpg	100
963.023	1.201	1200.8	generate	Run2	generate/STIM_003.jpg	99
967.81	1.492	1491.9	generate	Run2	generate/STIM_003.jpg	100
972.799	1.189	1189.3	generate	Run2	generate/STIM_003.jpg	100
976.545	1.493	1493.4	generate	Run2	generate/STIM_003.jpg	100
980.751	1.245	1245.2	generate	Run2	generate/STIM_003.jpg	99
986.075	1.881	1881.4	generate	Run2	generate/STIM_004.jpg	99
991.247	1.764	1764.3	generate	Run2	generate/STIM_004.jpg	100
996.596	1.665	1665.1	generate	Run2	generate/STIM_004.jpg	99
1000.727	1.517	1517.2	generate	Run2	generate/STIM_004.jpg	100
1004.925	1.338	1338.2	generate	Run2	generate/STIM_004.jpg	100
1009.27	1.192	1191.8	generate	Run2	generate/STIM_005.jpg	100
1013.931	1.953	1953.4	generate	Run2	generate/STIM_005.jpg	100
1019.425	0.859	859.1	generate	Run2	generate/STIM_005.jpg	99
1023.74	1.477	1476.9	generate	Run2	generate/STIM_005.jpg	99
1029.017	1.458	1457.8	generate	Run2	generate/STIM_005.jpg	99
1033.702	2.164	2164.5	generate	Run2	generate/STIM_006.jpg	100
1039.244	1.367	1367.4	generate	Run2	generate/STIM_006.jpg	100
1044.067	1.189	1189.1	generate	Run2	generate/STIM_006.jpg	100
1048.478	0.967	966.7	generate	Run2	generate/STIM_006.jpg	99
1052.251	1.562	1562.1	generate	Run2	generate/STIM_006.jpg	100
1057.61	1.263	1262.9	generate	Run2	generate/STIM_007.jpg	99
1062.907	1.461	1460.6	generate	Run2	generate/STIM_007.jpg	100
1067.722	1.91	1909.9	generate	Run2	generate/STIM_007.jpg	99
1073.08	1.292	1292.4	generate	Run2	generate/STIM_007.jpg	100
1077.648	1.788	1788.2	generate	Run2	generate/STIM_007.jpg	99
1083.285	1.486	1485.5	generate	Run2	generate/STIM_008.jpg	100
1088.343	2.086	2085.7	generate	Run2	generate/STIM_008.jpg	99
1093.676	1.194	1194.4	generate	Run2	generate/STIM_008.jpg	100
1098.331	1.82	1819.7	generate	Run2	generate/STIM_008.jpg	99
1102.956	1.635	1635.2	generate	Run2	generate/STIM_008.jpg	99
1107.088	1.464	1463.5	generate	Run2	generate/STIM_009.jpg	100
1112.719	1.883	1882.7	generate	Run2	generate/STIM_009.jpg	99
1117.013	1.65	1649.5	generate	Run2	generate/STIM_009.jpg	99
1121.935	1.177	1177.4	generate	Run2	generate/STIM_009.jpg	100
1125.822	0.78	779.5	generate	Run2	generate/STIM_009.jpg	99
1130.585	1.675	1675.4	generate	Run2	generate/STIM_010.jpg	99
1136.229	1.521	1521.0	generate	Run2	generate/STIM_010.jpg	100
1140.337	1.983	1983.0	generate	Run2	generate/STIM_010.jpg	100
1144.883	1.382	1381.7	generate	Run2	generate/STIM_010.jpg	100
1148.897	0.797	797.3	generate	Run2	generate/STIM_010.jpg	100
1153.407	1.994	1994.4	generate	Run2	generate/STIM_011.jpg	100
1158.505	1.053	1053.4	generate	Run2	generate/STIM_011.jpg	99
1162.594	1.747	1746.9	generate	Run2	generate/STIM_011.jpg	100
1167.307	1.546	1546.4	generate	Run2	generate/STIM_011.jpg	100
1172.467	1.658	1658.0	generate	Run2	generate/STIM_011.jpg	100
1177.898	1.106	1106.4	generate	Run2	generate/STIM_012.jpg	99
1181.292	2.001	2000.6	generate	Run2	generate/STIM_012.jpg	99
1186.972	1.313	1312.9	generate	Run2	generate/STIM_012.jpg	100
1191.461	1.647	1647.1	generate	Run2	generate/STIM_012.jpg	99
1195.893	1.854	1854.5	generate	Run2	generate/STIM_012.jpg	100
1200.304	1.636	1636.0	generate	Run2	generate/STIM_013.jpg	100
1204.225	1.834	1834.1	generate	Run2	generate/STIM_013.jpg	99
1210.162	1.127	1126.7	generate	Run2	generate/STIM_013.jpg	99
1214.74	1.334	1333.9	generate	Run2	generate/STIM_013.jpg	100
1219.191	1.166	1166.0	generate	Run2	generate/STIM_013.jpg	100
1224.3	1.431	1430.7	generate	Run2	generate/STIM_014.jpg	99
1228.269	1.368	1367.8	generate	Run2	generate/STIM_014.jpg	100
1233.495	1.272	1271.5	generate	Run2	generate/STIM_014.jpg	99
1238.511	0.779	779.3	generate	Run2	generate/STIM_014.jpg	99
1242.789	1.825	1824.8	generate	Run2	generate/STIM_014.jpg	100
1247.143	1.506	1506.2	generate	Run2	generate/STIM_015.jpg	99
1251.641	0.984	984.2	generate	Run2	generate/STIM_015.jpg	100
1255.27	0.83	829.7	generate	Run2	generate/STIM_015.jpg	100
1260.14	1.345	1345.3	generate	Run2	generate/STIM_015.jpg	100
1264.935	1.676	1675.9	generate	Run2	generate/STIM_015.jpg	99
1268.925	1.386	1386.0	generate	Run2	generate/STIM_016.jpg	100
1272.903	0.863	863.3	generate	Run2	generate/STIM_016.jpg	100
1277.098	1.291	1291.4	generate	Run2	generate/STIM_016.jpg	100
1281.404	1.76	1759.6	generate	Run2	generate/STIM_016.jpg	100
1286.112	0.832	832.4	generate	Run2	generate/STIM_016.jpg	99
1290.697	2.182	2181.5	generate	Run2	generate/STIM_017.jpg	100
1295.2	1.374	1374.0	generate	Run2	generate/STIM_017.jpg	99
1299.833	1.178	1178.3	generate	Run2	generate/STIM_017.jpg	100
1304.575	1.738	1738.3	generate	Run2	generate/STIM_017.jpg	99
1309.729	1.135	1135.1	generate	Run2	generate/STIM_017.jpg	99
1314.163	1.864	1864.0	generate	Run2	generate/STIM_018.jpg	99
1318.923	1.039	1039.3	generate	Run2	generate/STIM_018.jpg	100
1322.487	0.919	919.4	generate	Run2	generate/STIM_018.jpg	100
1325.521	1.565	1564.7	generate	Run2	generate/STIM_018.jpg	99
1330.449	1.494	1493.6	generate	Run2	generate/STIM_018.jpg	100
1335.5	1.226	1225.7	generate	Run2	generate/STIM_019.jpg	99
1340.304	1.203	1202.9	generate	Run2	generate/STIM_019.jpg	100
1345.455	1.874	1873.9	generate	Run2	generate/STIM_019.jpg	99
1350.057	1.865	1864.6	generate	Run2	generate/STIM_019.jpg	99
1355.764	1.174	1174.5	generate	Run2	generate/STIM_019.jpg	100
1360.963	1.654	1653.8	generate	Run2	generate/STIM_020.jpg	99
1364.964	1.3	1300.2	generate	Run2	generate/STIM_020.jpg	99
1368.745	1.112	1112.2	generate	Run2	generate/STIM_020.jpg	99
1373.483	1.523	1523.3	generate	Run2	generate/STIM_020.jpg	100
1378.432	1.727	1727.3	generate	Run2	generate/STIM_020.jpg	99
1382.526	2.23	2229.6	generate	Run2	generate/STIM_021.jpg	99
1388.442	1.706	1705.5	generate	Run2	generate/STIM_021.jpg	100
1392.487	1.049	1048.7	generate	Run2	generate/STIM_021.jpg	99
1396.35	1.106	1106.4	generate	Run2	generate/STIM_021.jpg	100
1400.611	1.244	1243.5	generate	Run2	generate/STIM_021.jpg	99
1405.633	2.244	2243.6	generate	Run2	generate/STIM_022.jpg	99
1411.841	2.028	2028.1	generate	Run2	generate/STIM_022.jpg	99
1416.502	1.753	1752.7	generate	Run2	generate/STIM_022.jpg	99
1420.527	1.348	1348.1	generate	Run2	generate/STIM_022.jpg	99
1425.436	1.354	1354.3	generate	Run2	generate/STIM_022.jpg	100
1429.732	1.858	1857.8	generate	Run2	generate/STIM_023.jpg	100
1435.253	1.85	1850.1	generate	Run2	generate/STIM_023.jpg	100
1440.945	0.962	961.5	generate	Run2	generate/STIM_023.jpg	100
1444.646	0.757	757.1	generate	Run2	generate/STIM_023.jpg	100
1448.539	1.48	1479.5	generate	Run2	generate/STIM_023.jpg	100
1453.849	1.125	1125.0	generate	Run2	generate/STIM_024.jpg	100
1458.306	1.228	1227.9	generate	Run2	generate/STIM_024.jpg	100
1463.35	1.971	1970.7	generate	Run2	generate/STIM_024.jpg	100
1469.412	1.333	1332.8	generate	Run2	generate/STIM_024.jpg	99
1473.971	0.788	788.0	generate	Run2	generate/STIM_024.jpg	99
1477.806	0.729	728.6	repeat	Run2	repeat/STIM_000.jpg	99
1480.881	0.776	775.9	repeat	Run2	repeat/STIM_000.jpg	99
1485.5	0.735	734.7	repeat	Run2	repeat/STIM_000.jpg	100
1488.705	0.566	565.6	repeat	Run2	repeat/STIM_000.jpg	99
1491.948	0.828	828.5	repeat	Run2	repeat/STIM_000.jpg	100
1495.075	0.488	488.1	repeat	Run2	repeat/STIM_001.jpg	100
1499.555	0.649	649.1	repeat	Run2	repeat/STIM_001.jpg	99
1504.091	0.66	660.4	repeat	Run2	repeat/STIM_001.jpg	100
1507.718	0.513	513.2	repeat	Run2	repeat/STIM_001.jpg	99
1510.466	0.649	648.6	repeat	Run2	repeat/STIM_001.jpg	99
1513.777	0.827	826.9	repeat	Run2	repeat/STIM_002.jpg	100
1518.634	0.764	764.0	repeat	Run2	repeat/STIM_002.jpg	99
1523.267	0.478	478.1	repeat	Run2	repeat/STIM_002.jpg	100
1527.229	0.511	510.8	repeat	Run2	repeat/STIM_002.jpg	99
1529.836	0.661	661.3	repeat	Run2	repeat/STIM_002.jpg	100
1533.88	0.815	815.1	repeat	Run2	repeat/STIM_003.jpg	100
1537.158	0.65	650.3	repeat	Run2	repeat/STIM_003.jpg	100
1541.501	0.605	604.7	repeat	Run2	repeat/STIM_003.jpg	100
1545.505	0.533	533.3	repeat	Run2	repeat/STIM_003.jpg	100
1549.807	0.74	740.5	repeat	Run2	repeat/STIM_003.jpg	100
1554.526	0.594	593.9	repeat	Run2	repeat/STIM_004.jpg	99
1559.029	0.642	641.6	repeat	Run2	repeat/STIM_004.jpg	100
1562.128	0.594	594.0	repeat	Run2	repeat/STIM_004.jpg	100
1565.701	0.492	491.7	repeat	Run2	repeat/STIM_004.jpg	100
1569.716	0.652	651.7	repeat	Run2	repeat/STIM_004.jpg	99
1572.467	0.76	759.7	repeat	Run2	repeat/STIM_005.jpg	100
1575.937	0.792	792.4	repeat	Run2	repeat/STIM_005.jpg	99
1578.936	0.802	801.8	repeat	Run2	repeat/STIM_005.jpg	99
1582.668	0.852	852.5	repeat	Run2	repeat/STIM_005.jpg	100
1587.082	0.551	551.1	repeat	Run2	repeat/STIM_005.jpg	99
1590.573	0.829	829.3	repeat	Run2	repeat/STIM_006.jpg	100
1594.99	0.661	661.4	repeat	Run2	repeat/STIM_006.jpg	100
1599.266	0.749	749.4	repeat	Run2	repeat/STIM_006.jpg	99
1602.718	0.658	657.5	repeat	Run2	repeat/STIM_006.jpg	99
1605.484	0.858	857.6	repeat	Run2	repeat/STIM_006.jpg	99
1610.385	0.746	746.1	repeat	Run2	repeat/STIM_007.jpg	99
1613.246	0.462	461.6	repeat	Run2	repeat/STIM_007.jpg	100
1617.349	0.848	848.4	repeat	Run2	repeat/STIM_007.jpg	99
1620.613	0.875	875.3	repeat	Run2	repeat/STIM_007.jpg	100
1624.368	0.691	691.4	repeat	Run2	repeat/STIM_007.jpg	99
1627.722	0.726	725.7	repeat	Run2	repeat/STIM_008.jpg	99
1631.982	0.651	651.2	repeat	Run2	repeat/STIM_008.jpg	100
1636.177	0.832	832.0	repeat	Run2	repeat/STIM_008.jpg	99
1640.062	0.887	886.6	repeat	Run2	repeat/STIM_008.jpg	100
1643.432	0.653	653.3	repeat	Run2	repeat/STIM_008.jpg	100
1646.847	0.602	602.1	repeat	Run2	repeat/STIM_009.jpg	99
1650.848	0.875	875.1	repeat	Run2	repeat/STIM_009.jpg	99
1655.449	0.637	637.2	repeat	Run2	repeat/STIM_009.jpg	99
1659.92	0.493	493.0	repeat	Run2	repeat/STIM_009.jpg	99
1663.266	0.478	477.5	repeat	Run2	repeat/STIM_009.jpg	99
1666.912	0.671	671.2	repeat	Run2	repeat/STIM_010.jpg	100
1670.654	0.697	697.1	repeat	Run2	repeat/STIM_010.jpg	100
1674.443	0.741	740.8	repeat	Run2	repeat/STIM_010.jpg	99
1678.914	0.838	837.8	repeat	Run2	repeat/STIM_010.jpg	100
1683.586	0.477	476.9	repeat	Run2	repeat/STIM_010.jpg	99
1686.173	0.595	595.0	repeat	Run2	repeat/STIM_011.jpg	99
1690.302	0.526	526.1	repeat	Run2	repeat/STIM_011.jpg	99
1694.327	0.638	637.9	repeat	Run2	repeat/STIM_011.jpg	99
1697.649	0.734	734.5	repeat	Run2	repeat/STIM_011.jpg	99
1700.64	0.778	777.6	repeat	Run2	repeat/STIM_011.jpg	99
1704.897	0.528	528.0	repeat	Run2	repeat/STIM_012.jpg	100
1708.16	0.756	756.1	repeat	Run2	repeat/STIM_012.jpg	99
1712.814	0.803	803.0	repeat	Run2	repeat/STIM_012.jpg	99
1716.611	0.84	840.0	repeat	Run2	repeat/STIM_012.jpg	100
1721.154	0.609	608.9	repeat	Run2	repeat/STIM_012.jpg	100
1725.345	0.542	542.5	repeat	Run2	repeat/STIM_013.jpg	99
1729.91	0.855	854.9	repeat	Run2	repeat/STIM_013.jpg	100
1734.681	0.721	721.1	repeat	Run2	repeat/STIM_013.jpg	100
1737.883	0.728	728.0	repeat	Run2	repeat/STIM_013.jpg	100
1741.777	0.824	823.6	repeat	Run2	repeat/STIM_013.jpg	99
1746.398	0.532	532.0	repeat	Run2	repeat/STIM_014.jpg	99
1750.477	0.833	832.7	repeat	Run2	repeat/STIM_014.jpg	100
1754.45	0.674	673.5	repeat	Run2	repeat/STIM_014.jpg	99
1757.437	0.597	597.3	repeat	Run2	repeat/STIM_014.jpg	100
1760.474	0.689	689.2	repeat	Run2	repeat/STIM_014.jpg	99
1765.124	1.702	1702.5	generate	Run3	generate/STIM_000.jpg	100
1770.544	1.192	1192.5	generate	Run3	generate/STIM_000.jpg	100
1775.427	0.865	864.6	generate	Run3	generate/STIM_000.jpg	100
1779.768	0.86	860.0	generate	Run3	generate/STIM_000.jpg	99
1784.373	1.797	1796.8	generate	Run3	generate/STIM_000.jpg	100
1789.668	1.706	1706.2	generate	Run3	generate/STIM_001.jpg	99
1794.194	1.163	1163.3	generate	Run3	generate/STIM_001.jpg	100
1797.759	1.782	1782.0	generate	Run3	generate/STIM_001.jpg	100
1803.353	1.195	1195.2	generate	Run3	generate/STIM_001.jpg	99
1808.476	1.564	1564.2	generate	Run3	generate/STIM_001.jpg	100
1813.05	1.287	1286.9	generate	Run3	generate/STIM_002.jpg	99
1817.236	1.73	1730.3	generate	Run3	generate/STIM_002.jpg	99
1822.965	1.702	1701.7	generate	Run3	generate/STIM_002.jpg	100
1827.597	1.235	1235.3	generate	Run3	generate/STIM_002.jpg	100
1832.146	1.228	1228.2	generate	Run3	generate/STIM_002.jpg	100
1836.389	1.206	1206.0	generate	Run3	generate/STIM_003.jpg	99
1840.233	1.118	1117.6	generate	Run3	generate/STIM_003.jpg	99
1843.758	1.129	1128.7	generate	Run3	generate/STIM_003.jpg	100
1848.851	0.898	898.0	generate	Run3	generate/STIM_003.jpg	99
1853.393	1.631	1630.6	generate	Run3	generate/STIM_003.jpg	99
1857.429	1.75	1750.0	generate	Run3	generate/STIM_004.jpg	100
1861.47	1.63	1629.5	generate	Run3	generate/STIM_004.jpg	100
1865.333	1.624	1624.2	generate	Run3	generate/STIM_004.jpg	100
1870.328	0.951	951.0	generate	Run3	generate/STIM_004.jpg	99
1875.138	1.188	1187.6	generate	Run3	generate/STIM_004.jpg	99
1880.005	1.376	1375.6	generate	Run3	generate/STIM_005.jpg	100
1885.418	1.826	1825.8	generate	Run3	generate/STIM_005.jpg	99
1890.319	1.021	1021.4	generate	Run3	generate/STIM_005.jpg	100
1895.369	0.974	974.0	generate	Run3	generate/STIM_005.jpg	99
1900.14	1.78	1779.9	generate	Run3	generate/STIM_005.jpg	99
1904.595	1.753	1753.3	generate	Run3	generate/STIM_006.jpg	99
1908.858	1.498	1498.1	generate	Run3	generate/STIM_006.jpg	100
1914.26	0.886	885.9	generate	Run3	generate/STIM_006.jpg	99
1917.323	1.572	1571.8	generate	Run3	generate/STIM_006.jpg	100
1921.798	1.859	1858.6	generate	Run3	generate/STIM_006.jpg	99
1926.221	0.813	813.4	generate	Run3	generate/STIM_007.jpg	99
1930.912	1.788	1788.4	generate	Run3	generate/STIM_007.jpg	99
1935.025	0.946	945.5	generate	Run3	generate/STIM_007.jpg	100
1939.842	1.451	1451.0	generate	Run3	generate/STIM_007.jpg	100
1945.11	1.059	1059.0	generate	Run3	generate/STIM_007.jpg	99
1949.755	0.832	832.3	generate	Run3	generate/STIM_008.jpg	100
1953.324	1.354	1354.1	generate	Run3	generate/STIM_008.jpg	100
1958.715	1.342	1341.6	generate	Run3	generate/STIM_008.jpg	100
1964.023	0.8	799.8	generate	Run3	generate/STIM_008.jpg	99
1968.111	1.474	1474.5	generate	Run3	generate/STIM_008.jpg	99
1972.123	1.1	1100.5	generate	Run3	generate/STIM_009.jpg	99
1977.018	1.145	1145.3	generate	Run3	generate/STIM_009.jpg	99
1980.839	1.037	1037.1	generate	Run3	generate/STIM_009.jpg	100
1985.057	1.452	1451.6	generate	Run3	generate/STIM_009.jpg	100
1989.843	0.941	941.3	generate	Run3	generate/STIM_009.jpg	99
1994.465	1.065	1065.2	generate	Run3	generate/STIM_010.jpg	99
1997.751	1.486	1485.5	generate	Run3	generate/STIM_010.jpg	100
2002.138	1.038	1038.3	generate	Run3	generate/STIM_010.jpg	100
2006.257	1.316	1315.9	generate	Run3	generate/STIM_010.jpg	100
2011.291	1.786	1785.7	generate	Run3	generate/STIM_010.jpg	99
2015.571	1.526	1525.6	generate	Run3	generate/STIM_011.jpg	100
2020.219	1.012	1012.5	generate	Run3	generate/STIM_011.jpg	100
2023.857	1.346	1345.6	generate	Run3	generate/STIM_011.jpg	100
2028.427	0.858	857.5	generate	Run3	generate/STIM_011.jpg	100
2033.229	1.153	1153.0	generate	Run3	generate/STIM_011.jpg	99
2037.225	1.5	1499.9	generate	Run3	generate/STIM_012.jpg	100
2041.901	1.299	1299.4	generate	Run3	generate/STIM_012.jpg	100
2045.535	1.78	1780.3	generate	Run3	generate/STIM_012.jpg	100
2051.305	1.52	1519.8	generate	Run3	generate/STIM_012.jpg	100
2056.702	0.933	933.2	generate	Run3	generate/STIM_012.jpg	99
2059.887	1.55	1549.6	generate	Run3	generate/STIM_013.jpg	99
2065.43	0.842	841.6	generate	Run3	generate/STIM_013.jpg	99
2069.631	1.529	1529.0	generate	Run3	generate/STIM_013.jpg	100
2074.981	1.671	1670.6	generate	Run3	generate/STIM_013.jpg	99
2080.816	1.367	1367.2	generate	Run3	generate/STIM_013.jpg	99
2085.932	1.731	1731.0	generate	Run3	generate/STIM_014.jpg	99
2091.617	0.946	946.2	generate	Run3	generate/STIM_014.jpg	100
2095.887	1.718	1718.0	generate	Run3	generate/STIM_014.jpg	100
2100.239	1.728	1727.6	generate	Run3	generate/STIM_014.jpg	100
2104.283	1.61	1610.1	generate	Run3	generate/STIM_014.jpg	99
2108.374	0.867	866.7	generate	Run3	generate/STIM_015.jpg	100
2113.165	1.12	1120.1	generate	Run3	generate/STIM_015.jpg	100
2117.54	1.734	1733.7	generate	Run3	generate/STIM_015.jpg	99
2122.343	1.075	1074.9	generate	Run3	generate/STIM_015.jpg	100
2126.092	1.609	1609.3	generate	Run3	generate/STIM_015.jpg	99
2131.692	0.874	873.5	generate	Run3	generate/STIM_016.jpg	100
2135.977	1.089	1088.7	generate	Run3	generate/STIM_016.jpg	99
2140.439	1.376	1376.0	generate	Run3	generate/STIM_016.jpg	100
2144.845	1.178	1177.7	generate	Run3	generate/STIM_016.jpg	99
2148.984	1.728	1728.1	generate	Run3	generate/STIM_016.jpg	99
2154.192	1.445	1444.8	generate	Run3	generate/STIM_017.jpg	100
2158.955	0.87	869.6	generate	Run3	generate/STIM_017.jpg	99
2163.315	1.695	1694.7	generate	Run3	generate/STIM_017.jpg	99
2167.339	0.873	873.0	generate	Run3	generate/STIM_017.jpg	100
2170.414	0.76	760.3	generate	Run3	generate/STIM_017.jpg	99
2173.653	0.863	863.3	generate	Run3	generate/STIM_018.jpg	99
2178.522	0.827	827.1	generate	Run3	generate/STIM_018.jpg	99
2181.466	1.501	1501.2	generate	Run3	generate/STIM_018.jpg	100
2185.696	0.883	883.3	generate	Run3	generate/STIM_018.jpg	100
2188.705	0.83	830.5	generate	Run3	generate/STIM_018.jpg	99
2193.069	0.968	968.1	generate	Run3	generate/STIM_019.jpg	100
2196.396	1.636	1636.4	generate	Run3	generate/STIM_019.jpg	99
2201.04	1.258	1258.4	generate	Run3	generate/STIM_019.jpg	100
2206.337	1.204	1204.4	generate	Run3	generate/STIM_019.jpg	100
2210.752	1.046	1046.0	generate	Run3	generate/STIM_019.jpg	99
2215.458	1.09	1089.5	generate	Run3	generate/STIM_020.jpg	99
2220.103	0.879	879.4	generate	Run3	generate/STIM_020.jpg	100
2223.132	1.795	1795.1	generate	Run3	generate/STIM_020.jpg	100
2228.76	1.123	1122.6	generate	Run3	generate/STIM_020.jpg	99
2233.927	1.552	1552.3	generate	Run3	generate/STIM_020.jpg	99
2239.359	1.05	1050.1	generate	Run3	generate/STIM_021.jpg	100
2244.099	0.934	933.6	generate	Run3	generate/STIM_021.jpg	99
2247.728	1.313	1312.8	generate	Run3	generate/STIM_021.jpg	100
2251.504	1.424	1424.5	generate	Run3	generate/STIM_021.jpg	99
2255.865	1.581	1581.0	generate	Run3	generate/STIM_021.jpg	100
2261.595	0.878	877.6	generate	Run3	generate/STIM_022.jpg	99
2265.682	0.852	851.6	generate	Run3	generate/STIM_022.jpg	100
2269.284	1.511	1510.9	generate	Run3	generate/STIM_022.jpg	100
2273.773	0.979	979.3	generate	Run3	generate/STIM_022.jpg	99
2277.492	1.556	1556.4	generate	Run3	generate/STIM_022.jpg	100
2282.598	0.817	816.7	generate	Run3	generate/STIM_023.jpg	100
2285.789	0.996	996.4	generate	Run3	generate/STIM_023.jpg	100
2289.275	1.076	1075.5	generate	Run3	generate/STIM_023.jpg	99
2293.94	1.707	1706.8	generate	Run3	generate/STIM_023.jpg	99
2298.491	1.357	1356.8	generate	Run3	generate/STIM_023.jpg	100
2302.566	1.459	1458.7	generate	Run3	generate/STIM_024.jpg	100
2306.451	1.449	1448.7	generate	Run3	generate/STIM_024.jpg	100
2311.712	1.477	1477.0	generate	Run3	generate/STIM_024.jpg	99
2316.227	0.783	782.8	generate	Run3	generate/STIM_024.jpg	99
2319.656	1.692	1691.9	generate	Run3	generate/STIM_024.jpg	100
2323.63	0.82	820.4	repeat	Run3	repeat/STIM_000.jpg	100
2328.475	0.616	615.7	repeat	Run3	repeat/STIM_000.jpg	100
2331.819	0.476	476.1	repeat	Run3	repeat/STIM_000.jpg	99
2334.52	0.693	692.8	repeat	Run3	repeat/STIM_000.jpg	99
2338.054	0.875	875.0	repeat	Run3	repeat/STIM_000.jpg	99
2342.25	0.716	716.3	repeat	Run3	repeat/STIM_001.jpg	99
2345.091	0.728	727.6	repeat	Run3	repeat/STIM_001.jpg	100
2348.943	0.771	771.4	repeat	Run3	repeat/STIM_001.jpg	100
2353.204	0.81	809.7	repeat	Run3	repeat/STIM_001.jpg	100
2358.077	0.846	845.7	repeat	Run3	repeat/STIM_001.jpg	100
2362.111	0.807	807.0	repeat	Run3	repeat/STIM_002.jpg	100
2366.99	0.506	505.6	repeat	Run3	repeat/STIM_002.jpg	100
2371.049	0.717	716.8	repeat	Run3	repeat/STIM_002.jpg	99
2374.558	0.828	828.0	repeat	Run3	repeat/STIM_002.jpg	99
2378.308	0.703	702.8	repeat	Run3	repeat/STIM_002.jpg	100
2381.841	0.592	592.5	repeat	Run3	repeat/STIM_003.jpg	99
2384.993	0.467	466.7	repeat	Run3	repeat/STIM_003.jpg	100
2387.981	0.59	589.6	repeat	Run3	repeat/STIM_003.jpg	99
2391.885	0.555	555.3	repeat	Run3	repeat/STIM_003.jpg	100
2396.025	0.694	694.1	repeat	Run3	repeat/STIM_003.jpg	99
2399.852	0.547	547.0	repeat	Run3	repeat/STIM_004.jpg	100
2403.721	0.675	675.2	repeat	Run3	repeat/STIM_004.jpg	99
2407.026	0.46	459.9	repeat	Run3	repeat/STIM_004.jpg	99
2409.973	0.545	544.7	repeat	Run3	repeat/STIM_004.jpg	100
2412.807	0.772	771.5	repeat	Run3	repeat/STIM_004.jpg	99
2416.158	0.602	602.5	repeat	Run3	repeat/STIM_005.jpg	100
2419.904	0.754	754.0	repeat	Run3	repeat/STIM_005.jpg	100
2423.796	0.474	473.8	repeat	Run3	repeat/STIM_005.jpg	99
2426.767	0.633	633.4	repeat	Run3	repeat/STIM_005.jpg	100
2431.119	0.586	586.0	repeat	Run3	repeat/STIM_005.jpg	100
2434.895	0.809	808.9	repeat	Run3	repeat/STIM_006.jpg	99
2438.946	0.461	461.2	repeat	Run3	repeat/STIM_006.jpg	100
2442.358	0.468	468.0	repeat	Run3	repeat/STIM_006.jpg	100
2446.052	0.559	559.4	repeat	Run3	repeat/STIM_006.jpg	99
2449.62	0.55	550.4	repeat	Run3	repeat/STIM_006.jpg	99
2453.452	0.613	613.2	repeat	Run3	repeat/STIM_007.jpg	99
2457.137	0.516	515.5	repeat	Run3	repeat/STIM_007.jpg	100
2459.908	0.558	558.0	repeat	Run3	repeat/STIM_007.jpg	100
2464.308	0.772	771.9	repeat	Run3	repeat/STIM_007.jpg	99
2468.838	0.831	831.2	repeat	Run3	repeat/STIM_007.jpg	99
2472.38	0.633	632.7	repeat	Run3	repeat/STIM_008.jpg	99
2475.716	0.789	789.0	repeat	Run3	repeat/STIM_008.jpg	100
2479.545	0.637	636.7	repeat	Run3	repeat/STIM_008.jpg	99
2482.736	0.85	849.8	repeat	Run3	repeat/STIM_008.jpg	100
2486.395	0.857	857.3	repeat	Run3	repeat/STIM_008.jpg	100
2491.104	0.572	571.6	repeat	Run3	repeat/STIM_009.jpg	99
2494.344	0.603	602.8	repeat	Run3	repeat/STIM_009.jpg	99
2497.134	0.789	788.9	repeat	Run3	repeat/STIM_009.jpg	100
2500.14	0.736	735.9	repeat	Run3	repeat/STIM_009.jpg	99
2504.376	0.804	803.9	repeat	Run3	repeat/STIM_009.jpg	100
2508.551	0.773	773.1	repeat	Run3	repeat/STIM_010.jpg	99
2511.635	0.56	559.8	repeat	Run3	repeat/STIM_010.jpg	99
2515.383	0.704	703.6	repeat	Run3	repeat/STIM_010.jpg	99
2518.821	0.658	658.0	repeat	Run3	repeat/STIM_010.jpg	99
2522.37	0.721	721.2	repeat	Run3	repeat/STIM_010.jpg	100
2525.659	0.471	471.1	repeat	Run3	repeat/STIM_011.jpg	99
2528.444	0.73	729.8	repeat	Run3	repeat/STIM_011.jpg	100
2532.023	0.608	608.0	repeat	Run3	repeat/STIM_011.jpg	100
2535.034	0.507	507.4	repeat	Run3	repeat/STIM_011.jpg	99
2539.455	0.81	809.7	repeat	Run3	repeat/STIM_011.jpg	100
2544.182	0.842	842.3	repeat	Run3	repeat/STIM_012.jpg	100
2547.762	0.752	752.2	repeat	Run3	repeat/STIM_012.jpg	99
2551.266	0.621	621.4	repeat	Run3	repeat/STIM_012.jpg	100
2554.745	0.504	504.3	repeat	Run3	repeat/STIM_012.jpg	99
2558.356	0.583	583.4	repeat	Run3	repeat/STIM_012.jpg	99
2561.314	0.47	470.2	repeat	Run3	repeat/STIM_013.jpg	99
2564.281	0.857	856.7	repeat	Run3	repeat/STIM_013.jpg	100
2568.792	0.737	736.8	repeat	Run3	repeat/STIM_013.jpg	100
2571.62	0.634	633.5	repeat	Run3	repeat/STIM_013.jpg	99
2576.104	0.829	828.8	repeat	Run3	repeat/STIM_013.jpg	99
2579.74	0.668	668.1	repeat	Run3	repeat/STIM_014.jpg	99
2584.133	0.736	736.0	repeat	Run3	repeat/STIM_014.jpg	100
2587.214	0.734	733.9	repeat	Run3	repeat/STIM_014.jpg	99
2590.7	0.656	655.9	repeat	Run3	repeat/STIM_014.jpg	100
2595.055	0.873	873.4	repeat	Run3	repeat/STIM_014.jpg	100
2599.87	0.848	848.5	generate	Run4	generate/STIM_000.jpg	99
2604.183	0.939	939.0	generate	Run4	generate/STIM_000.jpg	100
2607.638	0.976	975.6	generate	Run4	generate/STIM_000.jpg	100
2612.557	0.888	887.7	generate	Run4	generate/STIM_000.jpg	99
2616.194	1.77	1769.5	generate	Run4	generate/STIM_000.jpg	99
2621.16	1.555	1554.9	generate	Run4	generate/STIM_001.jpg	99
2626.173	1.268	1268.1	generate	Run4	generate/STIM_001.jpg	100
2631.25	1.599	1598.6	generate	Run4	generate/STIM_001.jpg	99
2636.934	0.756	756.5	generate	Run4	generate/STIM_001.jpg	100
2640.718	1.803	1802.8	generate	Run4	generate/STIM_001.jpg	100
2646.177	1.324	1324.4	generate	Run4	generate/STIM_002.jpg	100
2650.448	0.871	870.6	generate	Run4	generate/STIM_002.jpg	99
2654.744	1.344	1344.2	generate	Run4	generate/STIM_002.jpg	99
2660.168	1.718	1717.6	generate	Run4	generate/STIM_002.jpg	100
2664.898	1.539	1539.4	generate	Run4	generate/STIM_002.jpg	100
2669.5	1.29	1290.1	generate	Run4	generate/STIM_003.jpg	100
2674.068	1.746	1745.6	generate	Run4	generate/STIM_003.jpg	100
2679.744	0.986	986.4	generate	Run4	generate/STIM_003.jpg	100
2683.702	1.449	1448.8	generate	Run4	generate/STIM_003.jpg	100
2688.561	1.034	1034.5	generate	Run4	generate/STIM_003.jpg	99
2692.841	0.786	785.8	generate	Run4	generate/STIM_004.jpg	99
2696.344	1.261	1260.7	generate	Run4	generate/STIM_004.jpg	100
2700.31	1.664	1664.0	generate	Run4	generate/STIM_004.jpg	99
2705.33	1.107	1106.8	generate	Run4	generate/STIM_004.jpg	99
2709.64	0.95	949.9	generate	Run4	generate/STIM_004.jpg	100
2714.357	1.388	1387.8	generate	Run4	generate/STIM_005.jpg	100
2719.624	1.403	1403.0	generate	Run4	generate/STIM_005.jpg	99
2724.229	1.797	1797.0	generate	Run4	generate/STIM_005.jpg	100
2728.269	1.497	1496.8	generate	Run4	generate/STIM_005.jpg	99
2732.939	1.801	1800.7	generate	Run4	generate/STIM_005.jpg	99
2736.991	0.968	967.6	generate	Run4	generate/STIM_006.jpg	99
2740.595	1.67	1669.9	generate	Run4	generate/STIM_006.jpg	99
2745.658	1.79	1789.5	generate	Run4	generate/STIM_006.jpg	99
2749.712	0.758	758.5	generate	Run4	generate/STIM_006.jpg	100
2753.702	1.646	1646.1	generate	Run4	generate/STIM_006.jpg	100
2759.382	1.66	1660.5	generate	Run4	generate/STIM_007.jpg	99
2763.294	1.564	1564.5	generate	Run4	generate/STIM_007.jpg	99
2768.194	0.997	997.2	generate	Run4	generate/STIM_007.jpg	100
2771.784	1.044	1044.5	generate	Run4	generate/STIM_007.jpg	100
2776.523	1.722	1722.4	generate	Run4	generate/STIM_007.jpg	99
2780.767	1.558	1558.2	generate	Run4	generate/STIM_008.jpg	100
2784.95	1.567	1566.7	generate	Run4	generate/STIM_008.jpg	100
2788.98	1.769	1769.3	generate	Run4	generate/STIM_008.jpg	99
2793.559	1.22	1220.0	generate	Run4	generate/STIM_008.jpg	100
2797.503	1.787	1787.2	generate	Run4	generate/STIM_008.jpg	100
2803.176	1.849	1848.6	generate	Run4	generate/STIM_009.jpg	99
2808.043	0.858	857.8	generate	Run4	generate/STIM_009.jpg	99
2812.219	1.293	1293.1	generate	Run4	generate/STIM_009.jpg	99
2816.491	0.885	884.9	generate	Run4	generate/STIM_009.jpg	99
2820.295	0.922	922.1	generate	Run4	generate/STIM_009.jpg	99
2823.831	1.523	1523.1	generate	Run4	generate/STIM_010.jpg	100
2828.521	1.797	1796.6	generate	Run4	generate/STIM_010.jpg	100
2832.897	1.049	1049.4	generate	Run4	generate/STIM_010.jpg	99
2837.41	1.77	1770.1	generate	Run4	generate/STIM_010.jpg	100
2842.218	1.231	1230.8	generate	Run4	generate/STIM_010.jpg	99
2846.682	0.783	782.6	generate	Run4	generate/STIM_011.jpg	100
2850.712	1.182	1182.2	generate	Run4	generate/STIM_011.jpg	100
2854.677	1.529	1529.2	generate	Run4	generate/STIM_011.jpg	99
2859.918	1.721	1721.0	generate	Run4	generate/STIM_011.jpg	99
2863.938	1.74	1740.2	generate	Run4	generate/STIM_011.jpg	100
2868.532	1.232	1232.3	generate	Run4	generate/STIM_012.jpg	99
2872.161	1.616	1615.6	generate	Run4	generate/STIM_012.jpg	99
2876.367	1.377	1377.0	generate	Run4	generate/STIM_012.jpg	99
2880.251	1.309	1309.3	generate	Run4	generate/STIM_012.jpg	99
2884.599	0.981	981.2	generate	Run4	generate/STIM_012.jpg	99
2889.249	0.892	892.2	generate	Run4	generate/STIM_013.jpg	99
2893.527	1.318	1317.7	generate	Run4	generate/STIM_013.jpg	99
2898.905	0.982	981.9	generate	Run4	generate/STIM_013.jpg	99
2902.374	1.36	1359.5	generate	Run4	generate/STIM_013.jpg	100
2907.228	1.621	1620.9	generate	Run4	generate/STIM_013.jpg	99
2911.416	1.22	1219.8	generate	Run4	generate/STIM_014.jpg	100
2915.648	1.622	1622.5	generate	Run4	generate/STIM_014.jpg	99
2920.484	1.318	1317.6	generate	Run4	generate/STIM_014.jpg	99
2924.215	1.214	1213.7	generate	Run4	generate/STIM_014.jpg	99
2929.23	1.604	1603.5	generate	Run4	generate/STIM_014.jpg	99
2934.103	1.375	1375.4	generate	Run4	generate/STIM_015.jpg	100
2939.55	1.273	1273.0	generate	Run4	generate/STIM_015.jpg	100
2943.969	1.265	1265.0	generate	Run4	generate/STIM_015.jpg	99
2948.791	1.858	1857.8	generate	Run4	generate/STIM_015.jpg	99
2954.225	1.61	1609.7	generate	Run4	generate/STIM_015.jpg	100
2958.12	0.786	786.3	generate	Run4	generate/STIM_016.jpg	99
2961.723	1.325	1324.7	generate	Run4	generate/STIM_016.jpg	99
2965.606	1.021	1021.3	generate	Run4	generate/STIM_016.jpg	100
2969.71	1.257	1256.7	generate	Run4	generate/STIM_016.jpg	100
2974.671	1.101	1100.6	generate	Run4	generate/STIM_016.jpg	100
2978.632	1.301	1301.0	generate	Run4	generate/STIM_017.jpg	100
2983.332	0.832	831.5	generate	Run4	generate/STIM_017.jpg	99
2986.414	1.08	1079.8	generate	Run4	generate/STIM_017.jpg	99
2990.742	1.494	1493.8	generate	Run4	generate/STIM_017.jpg	100
2994.771	1.434	1434.4	generate	Run4	generate/STIM_017.jpg	99
3000.156	1.614	1613.8	generate	Run4	generate/STIM_018.jpg	100
3004.894	0.994	994.5	generate	Run4	generate/STIM_018.jpg	100
3008.361	1.707	1706.9	generate	Run4	generate/STIM_018.jpg	99
3014.022	0.964	963.9	generate	Run4	generate/STIM_018.jpg	100
3017.699	1.484	1484.0	generate	Run4	generate/STIM_018.jpg	100
3022.665	0.871	871.2	generate	Run4	generate/STIM_019.jpg	100
3026.712	1.738	1737.5	generate	Run4	generate/STIM_019.jpg	99
3032.474	1.806	1806.1	generate	Run4	generate/STIM_019.jpg	100
3037.53	1.54	1539.6	generate	Run4	generate/STIM_019.jpg	100
3041.82	1.215	1214.6	generate	Run4	generate/STIM_019.jpg	100
3046.405	1.716	1715.6	generate	Run4	generate/STIM_020.jpg	100
3051.89	0.857	857.1	generate	Run4	generate/STIM_020.jpg	100
3055.83	1.187	1186.9	generate	Run4	generate/STIM_020.jpg	99
3060.622	0.952	951.6	generate	Run4	generate/STIM_020.jpg	100
3065.24	0.935	934.6	generate	Run4	generate/STIM_020.jpg	100
3068.649	0.756	756.3	generate	Run4	generate/STIM_021.jpg	100
3072.733	1.383	1383.1	generate	Run4	generate/STIM_021.jpg	100
3077.423	1.462	1462.5	generate	Run4	generate/STIM_021.jpg	100
3082.04	1.666	1666.0	generate	Run4	generate/STIM_021.jpg	100
3086.526	1.641	1641.0	generate	Run4	generate/STIM_021.jpg	99
3092.1	0.852	852.1	generate	Run4	generate/STIM_022.jpg	99
3096.243	1.054	1053.7	generate	Run4	generate/STIM_022.jpg	100
3100.131	1.737	1736.8	generate	Run4	generate/STIM_022.jpg	99
3104.268	0.846	846.4	generate	Run4	generate/STIM_022.jpg	100
3108.413	1.032	1031.9	generate	Run4	generate/STIM_022.jpg	100
3112.781	1.613	1612.9	generate	Run4	generate/STIM_023.jpg	99
3118.423	0.766	766.2	generate	Run4	generate/STIM_023.jpg	100
3122.164	1.637	1636.6	generate	Run4	generate/STIM_023.jpg	99
3127.406	1.769	1768.9	generate	Run4	generate/STIM_023.jpg	99
3132.993	0.802	801.8	generate	Run4	generate/STIM_023.jpg	100
3137.824	1.588	1587.6	generate	Run4	generate/STIM_024.jpg	100
3143.572	1.169	1169.0	generate	Run4	generate/STIM_024.jpg	100
3147.632	1.805	1805.3	generate	Run4	generate/STIM_024.jpg	99
3152.521	0.948	947.6	generate	Run4	generate/STIM_024.jpg	99
3156.155	0.774	774.1	generate	Run4	generate/STIM_024.jpg	99
3160.609	0.717	716.9	repeat	Run4	repeat/STIM_000.jpg	100
3163.43	0.787	787.3	repeat	Run4	repeat/STIM_000.jpg	99
3167.073	0.675	675.2	repeat	Run4	repeat/STIM_000.jpg	100
3170.338	0.509	509.3	repeat	Run4	repeat/STIM_000.jpg	99
3173.507	0.861	860.7	repeat	Run4	repeat/STIM_000.jpg	99
3177.164	0.736	735.8	repeat	Run4	repeat/STIM_001.jpg	99
3181.449	0.851	851.1	repeat	Run4	repeat/STIM_001.jpg	99
3185.495	0.61	610.1	repeat	Run4	repeat/STIM_001.jpg	99
3190.042	0.484	484.2	repeat	Run4	repeat/STIM_001.jpg	99
3192.697	0.821	820.8	repeat	Run4	repeat/STIM_001.jpg	100
3196.368	0.849	849.2	repeat	Run4	repeat/STIM_002.jpg	99
3200.417	0.751	750.7	repeat	Run4	repeat/STIM_002.jpg	99
3204.997	0.848	848.0	repeat	Run4	repeat/STIM_002.jpg	99
3209.739	0.779	778.9	repeat	Run4	repeat/STIM_002.jpg	99
3213.259	0.608	608.3	repeat	Run4	repeat/STIM_002.jpg	99
3216.097	0.585	584.9	repeat	Run4	repeat/STIM_003.jpg	100
3219.393	0.726	725.7	repeat	Run4	repeat/STIM_003.jpg	100
3223.18	0.729	729.4	repeat	Run4	repeat/STIM_003.jpg	99
3227.58	0.849	849.1	repeat	Run4	repeat/STIM_003.jpg	100
3231.751	0.604	604.4	repeat	Run4	repeat/STIM_003.jpg	100
3234.489	0.834	834.0	repeat	Run4	repeat/STIM_004.jpg	100
3237.864	0.852	852.5	repeat	Run4	repeat/STIM_004.jpg	99
3241.912	0.602	602.1	repeat	Run4	repeat/STIM_004.jpg	99
3246.255	0.754	754.2	repeat	Run4	repeat/STIM_004.jpg	99
3249.635	0.56	559.7	repeat	Run4	repeat/STIM_004.jpg	100
3253.685	0.492	492.1	repeat	Run4	repeat/STIM_005.jpg	100
3257.349	0.866	866.0	repeat	Run4	repeat/STIM_005.jpg	100
3261.68	0.458	458.2	repeat	Run4	repeat/STIM_005.jpg	99
3265.953	0.611	610.8	repeat	Run4	repeat/STIM_005.jpg	99
3270.298	0.718	718.2	repeat	Run4	repeat/STIM_005.jpg	99
3274.373	0.886	885.7	repeat	Run4	repeat/STIM_006.jpg	99
3278.68	0.452	452.5	repeat	Run4	repeat/STIM_006.jpg	100
3281.29	0.615	615.2	repeat	Run4	repeat/STIM_006.jpg	100
3285.589	0.651	651.2	repeat	Run4	repeat/STIM_006.jpg	99
3289.856	0.483	482.7	repeat	Run4	repeat/STIM_006.jpg	100
3293.692	0.51	509.6	repeat	Run4	repeat/STIM_007.jpg	100
3297.888	0.861	861.0	repeat	Run4	repeat/STIM_007.jpg	99
3301.437	0.856	855.8	repeat	Run4	repeat/STIM_007.jpg	99
3305.76	0.601	601.2	repeat	Run4	repeat/STIM_007.jpg	99
3308.918	0.566	566.4	repeat	Run4	repeat/STIM_007.jpg	99
3312.28	0.875	875.0	repeat	Run4	repeat/STIM_008.jpg	99
3315.55	0.829	828.6	repeat	Run4	repeat/STIM_008.jpg	100
3320.141	0.647	646.9	repeat	Run4	repeat/STIM_008.jpg	99
3324.552	0.577	576.6	repeat	Run4	repeat/STIM_008.jpg	100
3327.362	0.46	459.5	repeat	Run4	repeat/STIM_008.jpg	99
3330.101	0.535	535.1	repeat	Run4	repeat/STIM_009.jpg	100
3334.319	0.46	459.8	repeat	Run4	repeat/STIM_009.jpg	99
3337.927	0.611	611.3	repeat	Run4	repeat/STIM_009.jpg	99
3340.853	0.707	707.0	repeat	Run4	repeat/STIM_009.jpg	99
3344.625	0.491	491.3	repeat	Run4	repeat/STIM_009.jpg	99
3347.457	0.766	766.3	repeat	Run4	repeat/STIM_010.jpg	99
3350.367	0.53	530.2	repeat	Run4	repeat/STIM_010.jpg	100
3353.387	0.543	543.0	repeat	Run4	repeat/STIM_010.jpg	99
3357.232	0.612	611.9	repeat	Run4	repeat/STIM_010.jpg	100
3360.903	0.747	747.3	repeat	Run4	repeat/STIM_010.jpg	99
3363.834	0.594	594.5	repeat	Run4	repeat/STIM_011.jpg	100
3367.717	0.767	766.8	repeat	Run4	repeat/STIM_011.jpg	100
3372.013	0.715	715.2	repeat	Run4	repeat/STIM_011.jpg	100
3376.472	0.869	869.2	repeat	Run4	repeat/STIM_011.jpg	99
3381.252	0.89	889.8	repeat	Run4	repeat/STIM_011.jpg	100
3385.373	0.703	703.1	repeat	Run4	repeat/STIM_012.jpg	100
3388.305	0.632	632.5	repeat	Run4	repeat/STIM_012.jpg	99
3392.845	0.637	636.8	repeat	Run4	repeat/STIM_012.jpg	99
3397.256	0.822	821.7	repeat	Run4	repeat/STIM_012.jpg	100
3400.877	0.658	657.7	repeat	Run4	repeat/STIM_012.jpg	100
3404.347	0.453	453.4	repeat	Run4	repeat/STIM_013.jpg	99
3408.583	0.81	810.3	repeat	Run4	repeat/STIM_013.jpg	100
3411.971	0.794	793.7	repeat	Run4	repeat/STIM_013.jpg	100
3416.583	0.576	576.3	repeat	Run4	repeat/STIM_013.jpg	100
3419.613	0.757	756.7	repeat	Run4	repeat/STIM_013.jpg	100
3424.06	0.603	602.8	repeat	Run4	repeat/STIM_014.jpg	100
3427.865	0.687	687.3	repeat	Run4	repeat/STIM_014.jpg	99
3431.865	0.584	584.3	repeat	Run4	repeat/STIM_014.jpg	99
3435.398	0.832	832.1	repeat	Run4	repeat/STIM_014.jpg	100
3438.745	0.84	839.8	repeat	Run4	repeat/STIM_014.jpg	100
