onset	duration	response_time_ms	trial_type	learning_stage	stimulus	response_port
0.0	1.219	1218.6	generate	Run1	generate/STIM_000.jpg	99
3.277	1.537	1537.3	generate	Run1	generate/STIM_000.jpg	100
8.312	1.566	1565.5	generate	Run1	generate/STIM_000.jpg	99
12.198	1.374	1373.5	generate	Run1	generate/STIM_000.jpg	100
17.351	1.056	1056.3	generate	Run1	generate/STIM_000.jpg	100
21.268	1.39	1389.8	generate	Run1	generate/STIM_001.jpg	100
25.814	2.678	2678.2	generate	Run1	generate/STIM_001.jpg	100
32.083	2.136	2135.6	generate	Run1	generate/STIM_001.jpg	100
36.543	1.883	1883.1	generate	Run1	generate/STIM_001.jpg	100
40.65	1.938	1937.6	generate	Run1	generate/STIM_001.jpg	100
46.127	1.836	1836.1	generate	Run1	generate/STIM_002.jpg	100
50.93	1.382	1381.8	generate	Run1	generate/STIM_002.jpg	100
55.211	1.286	1285.8	generate	Run1	generate/STIM_002.jpg	99
59.93	2.389	2388.7	generate	Run1	generate/STIM_002.jpg	99
64.661	2.033	2032.6	generate	Run1	generate/STIM_002.jpg	100
69.109	1.633	1633.3	generate	Run1	generate/STIM_003.jpg	100
73.93	2.652	2652.5	generate	Run1	generate/STIM_003.jpg	99
80.552	2.378	2378.0	generate	Run1	generate/STIM_003.jpg	99
85.668	2.387	2387.1	generate	Run1	generate/STIM_003.jpg	99
91.134	1.763	1763.3	generate	Run1	generate/STIM_003.jpg	99
95.237	2.011	2011.5	generate	Run1	generate/STIM_004.jpg	99
100.942	2.626	2626.1	generate	Run1	generate/STIM_004.jpg	100
106.021	1.816	1816.5	generate	Run1	generate/STIM_004.jpg	99
111.844	1.868	1867.9	generate	Run1	generate/STIM_004.jpg	99
117.591	1.006	1005.8	generate	Run1	generate/STIM_004.jpg	99
120.702	2.297	2297.0	generate	Run1	generate/STIM_005.jpg	99
126.781	1.332	1331.8	generate	Run1	generate/STIM_005.jpg	100
130.774	1.81	1810.0	generate	Run1	generate/STIM_005.jpg	100
135.316	1.168	1168.5	generate	Run1	generate/STIM_005.jpg	99
138.533	1.749	1748.8	generate	Run1	generate/STIM_005.jpg	100
142.339	2.83	2829.6	generate	Run1	generate/STIM_006.jpg	99
148.756	2.398	2397.9	generate	Run1	generate/STIM_006.jpg	99
154.942	1.127	1127.2	generate	Run1	generate/STIM_006.jpg	100
158.29	1.416	1415.5	generate	Run1	generate/STIM_006.jpg	99
161.913	2.155	2155.0	generate	Run1	generate/STIM_006.jpg	100
166.416	2.348	2347.7	generate	Run1	generate/STIM_007.jpg	100
172.72	1.832	1832.2	generate	Run1	generate/STIM_007.jpg	100
176.759	1.752	1752.3	generate	Run1	generate/STIM_007.jpg	99
182.487	1.297	1296.9	generate	Run1	generate/STIM_007.jpg	99
186.752	1.362	1361.7	generate	Run1	generate/STIM_007.jpg	99
191.204	1.768	1768.2	generate	Run1	generate/STIM_008.jpg	100
196.546	2.514	2513.7	generate	Run1	generate/STIM_008.jpg	99
201.426	2.031	2031.5	generate	Run1	generate/STIM_008.jpg	99
207.374	2.001	2000.8	generate	Run1	generate/STIM_008.jpg	99
211.638	1.398	1398.5	generate	Run1	generate/STIM_008.jpg	100
216.048	2.347	2347.2	generate	Run1	generate/STIM_009.jpg	99
221.083	2.266	2266.3	generate	Run1	generate/STIM_009.jpg	100
226.58	1.118	1118.0	generate	Run1	generate/STIM_009.jpg	99
230.63	2.204	2203.9	generate	Run1	generate/STIM_009.jpg	99
236.776	2.233	2232.6	generate	Run1	generate/STIM_009.jpg	100
241.977	2.812	2811.8	generate	Run1	generate/STIM_010.jpg	100
248.633	1.67	1670.4	generate	Run1	generate/STIM_010.jpg	99
252.657	1.723	1723.1	generate	Run1	generate/STIM_010.jpg	100
256.481	1.591	1591.1	generate	Run1	generate/STIM_010.jpg	99
261.159	1.161	1160.8	generate	Run1	generate/STIM_010.jpg	100
264.685	2.3	2299.6	generate	Run1	generate/STIM_011.jpg	100
269.834	1.475	1475.1	generate	Run1	generate/STIM_011.jpg	99
273.884	2.262	2262.3	generate	Run1	generate/STIM_011.jpg	100
279.132	1.961	1960.7	generate	Run1	generate/STIM_011.jpg	100
283.797	1.157	1156.8	generate	Run1	generate/STIM_011.jpg	100
287.554	2.409	2409.3	generate	Run1	generate/STIM_012.jpg	100
292.403	1.328	1327.6	generate	Run1	generate/STIM_012.jpg	99
296.633	2.113	2113.4	generate	Run1	generate/STIM_012.jpg	100
301.94	2.129	2129.3	generate	Run1	generate/STIM_012.jpg	99
306.804	1.54	1539.8	generate	Run1	generate/STIM_012.jpg	100
311.115	2.27	2269.8	generate	Run1	generate/STIM_013.jpg	99
315.704	1.925	1924.7	generate	Run1	generate/STIM_013.jpg	99
321.097	2.539	2538.7	generate	Run1	generate/STIM_013.jpg	100
326.582	2.105	2105.3	generate	Run1	generate/STIM_013.jpg	99
331.938	1.614	1613.8	generate	Run1	generate/STIM_013.jpg	100
337.071	2.259	2259.2	generate	Run1	generate/STIM_014.jpg	99
341.906	1.319	1319.1	generate	Run1	generate/STIM_014.jpg	99
346.395	2.283	2282.8	generate	Run1	generate/STIM_014.jpg	99
352.525	1.842	1841.5	generate	Run1	generate/STIM_014.jpg	100
356.986	1.706	1705.7	generate	Run1	generate/STIM_014.jpg	99
360.805	1.689	1688.6	generate	Run1	generate/STIM_015.jpg	99
365.666	2.115	2115.2	generate	Run1	generate/STIM_015.jpg	100
370.497	2.362	2362.1	generate	Run1	generate/STIM_015.jpg	100
376.27	2.372	2372.1	generate	Run1	generate/STIM_015.jpg	100
382.713	1.621	1621.2	generate	Run1	generate/STIM_015.jpg	100
386.953	2.448	2447.8	generate	Run1	generate/STIM_016.jpg	100
392.304	1.15	1149.5	generate	Run1	generate/STIM_016.jpg	99
395.94	1.609	1609.0	generate	Run1	generate/STIM_016.jpg	99
400.902	2.347	2346.7	generate	Run1	generate/STIM_016.jpg	100
406.566	1.063	1063.1	generate	Run1	generate/STIM_016.jpg	99
411.268	2.036	2036.3	generate	Run1	generate/STIM_017.jpg	100
417.233	1.981	1981.4	generate	Run1	generate/STIM_017.jpg	100
422.83	1.531	1531.1	generate	Run1	generate/STIM_017.jpg	100
426.717	1.392	1392.3	generate	Run1	generate/STIM_017.jpg	99
430.833	1.932	1931.6	generate	Run1	generate/STIM_017.jpg	100
435.442	1.631	1630.6	generate	Run1	generate/STIM_018.jpg	99
439.287	1.764	1764.4	generate	Run1	generate/STIM_018.jpg	100
444.778	2.049	2049.4	generate	Run1	generate/STIM_018.jpg	99
449.137	2.292	2292.5	generate	Run1	generate/STIM_018.jpg	100
454.978	2.279	2279.3	generate	Run1	generate/STIM_018.jpg	100
459.647	1.302	1301.7	generate	Run1	generate/STIM_019.jpg	100
464.461	2.566	2566.3	generate	Run1	generate/STIM_019.jpg	99
470.05	2.34	2340.5	generate	Run1	generate/STIM_019.jpg	100
475.96	1.77	1769.8	generate	Run1	generate/STIM_019.jpg	99
481.294	1.86	1860.4	generate	Run1	generate/STIM_019.jpg	99
486.641	1.721	1720.6	generate	Run1	generate/STIM_020.jpg	100
491.651	2.438	2438.3	generate	Run1	generate/STIM_020.jpg	100
496.766	1.687	1686.6	generate	Run1	generate/STIM_020.jpg	100
501.312	1.425	1425.3	generate	Run1	generate/STIM_020.jpg	99
505.217	1.94	1939.9	generate	Run1	generate/STIM_020.jpg	99
510.159	2.239	2239.4	generate	Run1	generate/STIM_021.jpg	99
516.38	2.739	2738.6	generate	Run1	generate/STIM_021.jpg	100
522.934	1.054	1053.6	generate	Run1	generate/STIM_021.jpg	100
527.285	1.954	1953.8	generate	Run1	generate/STIM_021.jpg	100
532.048	2.073	2072.8	generate	Run1	generate/STIM_021.jpg	100
536.75	2.496	2495.6	generate	Run1	generate/STIM_022.jpg	99
542.44	2.311	2310.7	generate	Run1	generate/STIM_022.jpg	100
548.259	2.013	2013.2	generate	Run1	generate/STIM_022.jpg	99
552.941	1.091	1090.7	generate	Run1	generate/STIM_022.jpg	99
557.892	1.02	1019.5	generate	Run1	generate/STIM_022.jpg	100
562.882	2.863	2862.7	generate	Run1	generate/STIM_023.jpg	100
569.585	2.25	2249.7	generate	Run1	generate/STIM_023.jpg	100
575.878	1.756	1755.5	generate	Run1	generate/STIM_023.jpg	99
580.092	1.167	1166.6	generate	Run1	generate/STIM_023.jpg	99
584.829	1.756	1755.8	generate	Run1	generate/STIM_023.jpg	100
589.667	2.201	2201.3	generate	Run1	generate/STIM_024.jpg	100
595.734	1.543	1542.7	generate	Run1	generate/STIM_024.jpg	100
600.109	1.624	1623.6	generate	Run1	generate/STIM_024.jpg	99
604.724	2.27	2269.7	generate	Run1	generate/STIM_024.jpg	99
609.389	1.551	1551.1	generate	Run1	generate/STIM_024.jpg	100
614.923	0.669	668.9	repeat	Run1	repeat/STIM_000.jpg	99
618.567	0.624	623.9	repeat	Run1	repeat/STIM_000.jpg	99
622.176	0.586	585.7	repeat	Run1	repeat/STIM_000.jpg	99
626.752	0.922	922.2	repeat	Run1	repeat/STIM_000.jpg	100
630.398	0.792	792.4	repeat	Run1	repeat/STIM_000.jpg	100
635.131	0.632	632.3	repeat	Run1	repeat/STIM_001.jpg	100
638.169	0.644	643.8	repeat	Run1	repeat/STIM_001.jpg	100
642.167	0.516	515.5	repeat	Run1	repeat/STIM_001.jpg	99
645.641	0.765	764.6	repeat	Run1	repeat/STIM_001.jpg	100
649.25	0.656	656.1	repeat	Run1	repeat/STIM_001.jpg	99
653.709	0.703	702.9	repeat	Run1	repeat/STIM_002.jpg	99
656.85	0.591	590.9	repeat	Run1	repeat/STIM_002.jpg	99
660.931	0.708	708.0	repeat	Run1	repeat/STIM_002.jpg	99
664.227	0.919	919.4	repeat	Run1	repeat/STIM_002.jpg	100
667.286	0.793	792.6	repeat	Run1	repeat/STIM_002.jpg	100
670.517	0.809	809.2	repeat	Run1	repeat/STIM_003.jpg	100
674.507	0.665	665.1	repeat	Run1	repeat/STIM_003.jpg	99
677.859	0.844	843.5	repeat	Run1	repeat/STIM_003.jpg	99
681.839	0.876	876.3	repeat	Run1	repeat/STIM_003.jpg	100
685.499	0.709	709.0	repeat	Run1	repeat/STIM_003.jpg	100
688.727	0.82	819.6	repeat	Run1	repeat/STIM_004.jpg	100
693.148	0.666	665.9	repeat	Run1	repeat/STIM_004.jpg	99
697.619	0.558	557.9	repeat	Run1	repeat/STIM_004.jpg	99
701.238	0.635	635.2	repeat	Run1	repeat/STIM_004.jpg	100
704.654	0.834	834.2	repeat	Run1	repeat/STIM_004.jpg	100
707.888	0.638	638.4	repeat	Run1	repeat/STIM_005.jpg	99
712.222	0.579	579.1	repeat	Run1	repeat/STIM_005.jpg	99
716.465	0.909	909.2	repeat	Run1	repeat/STIM_005.jpg	99
720.432	0.85	850.1	repeat	Run1	repeat/STIM_005.jpg	99
724.104	0.599	599.3	repeat	Run1	repeat/STIM_005.jpg	99
727.521	0.793	793.0	repeat	Run1	repeat/STIM_006.jpg	99
731.378	0.833	832.7	repeat	Run1	repeat/STIM_006.jpg	99
736.214	0.765	765.3	repeat	Run1	repeat/STIM_006.jpg	100
739.018	0.778	778.5	repeat	Run1	repeat/STIM_006.jpg	99
743.819	0.814	814.1	repeat	Run1	repeat/STIM_006.jpg	100
748.046	0.736	735.5	repeat	Run1	repeat/STIM_007.jpg	100
750.835	0.78	779.8	repeat	Run1	repeat/STIM_007.jpg	99
753.749	0.706	705.7	repeat	Run1	repeat/STIM_007.jpg	100
758.242	0.778	778.3	repeat	Run1	repeat/STIM_007.jpg	100
762.311	0.768	767.7	repeat	Run1	repeat/STIM_007.jpg	99
765.362	0.499	499.4	repeat	Run1	repeat/STIM_008.jpg	99
769.323	0.615	614.9	repeat	Run1	repeat/STIM_008.jpg	99
773.724	0.613	612.8	repeat	Run1	repeat/STIM_008.jpg	100
776.529	0.654	653.6	repeat	Run1	repeat/STIM_008.jpg	100
781.009	0.537	537.3	repeat	Run1	repeat/STIM_008.jpg	99
784.274	0.961	960.9	repeat	Run1	repeat/STIM_009.jpg	99
787.295	0.646	646.1	repeat	Run1	repeat/STIM_009.jpg	100
791.566	0.748	748.2	repeat	Run1	repeat/STIM_009.jpg	100
795.673	0.808	808.3	repeat	Run1	repeat/STIM_009.jpg	100
799.117	0.62	619.7	repeat	Run1	repeat/STIM_009.jpg	99
803.599	0.704	704.1	repeat	Run1	repeat/STIM_010.jpg	100
807.575	0.952	952.2	repeat	Run1	repeat/STIM_010.jpg	100
811.798	0.967	966.9	repeat	Run1	repeat/STIM_010.jpg	100
815.863	0.562	561.6	repeat	Run1	repeat/STIM_010.jpg	99
819.298	0.677	677.2	repeat	Run1	repeat/STIM_010.jpg	100
822.698	0.717	716.6	repeat	Run1	repeat/STIM_011.jpg	99
827.128	0.847	847.3	repeat	Run1	repeat/STIM_011.jpg	100
830.76	0.554	554.4	repeat	Run1	repeat/STIM_011.jpg	100
834.3	0.71	709.8	repeat	Run1	repeat/STIM_011.jpg	100
838.744	0.752	752.5	repeat	Run1	repeat/STIM_011.jpg	99
841.941	0.775	774.6	repeat	Run1	repeat/STIM_012.jpg	100
845.31	0.664	664.1	repeat	Run1	repeat/STIM_012.jpg	99
848.459	0.593	592.8	repeat	Run1	repeat/STIM_012.jpg	100
851.553	0.64	640.3	repeat	Run1	repeat/STIM_012.jpg	99
854.642	0.523	523.4	repeat	Run1	repeat/STIM_012.jpg	99
857.693	0.548	547.6	repeat	Run1	repeat/STIM_013.jpg	99
860.607	0.526	526.2	repeat	Run1	repeat/STIM_013.jpg	100
864.725	0.964	964.2	repeat	Run1	repeat/STIM_013.jpg	99
868.625	0.796	795.9	repeat	Run1	repeat/STIM_013.jpg	99
871.635	0.694	694.3	repeat	Run1	repeat/STIM_013.jpg	100
876.028	0.665	665.3	repeat	Run1	repeat/STIM_014.jpg	99
880.127	0.913	912.7	repeat	Run1	repeat/STIM_014.jpg	99
884.422	0.542	541.6	repeat	Run1	repeat/STIM_014.jpg	99
888.052	0.767	767.0	repeat	Run1	repeat/STIM_014.jpg	99
892.365	0.54	540.2	repeat	Run1	repeat/STIM_014.jpg	100
896.673	1.384	1384.5	generate	Run2	generate/STIM_000.jpg	100
900.399	1.085	1085.0	generate	Run2	generate/STIM_000.jpg	99
904.594	1.946	1945.7	generate	Run2	generate/STIM_000.jpg	100
908.98	1.206	1206.4	generate	Run2	generate/STIM_000.jpg	99
914.206	1.246	1245.9	generate	Run2	generate/STIM_000.jpg	100
917.53	1.562	1562.1	generate	Run2	generate/STIM_001.jpg	99
922.599	1.42	1419.6	generate	Run2	generate/STIM_001.jpg	99
928.06	1.363	1363.3	generate	Run2	generate/STIM_001.jpg	100
933.345	1.675	1675.3	generate	Run2	generate/STIM_001.jpg	99
938.343	1.553	1553.0	generate	Run2	generate/STIM_001.jpg	99
943.471	1.931	1930.7	generate	Run2	generate/STIM_002.jpg	99
947.971	1.86	1859.6	generate	Run2	generate/STIM_002.jpg	99
953.699	1.93	1930.0	generate	Run2	generate/STIM_002.jpg	99
958.598	1.867	1867.0	generate	Run2	generate/STIM_002.jpg	100
964.447	1.388	1388.3	generate	Run2	generate/STIM_002.jpg	99
968.016	1.289	1288.6	generate	Run2	generate/STIM_003.jpg	100
972.182	1.109	1108.8	generate	Run2	generate/STIM_003.jpg	99
976.686	0.913	912.6	generate	Run2	generate/STIM_003.jpg	99
981.574	1.931	1931.3	generate	Run2	generate/STIM_003.jpg	100
987.331	1.533	1533.4	generate	Run2	generate/STIM_003.jpg	99
992.265	2.015	2015.1	generate	Run2	generate/STIM_004.jpg	99
998.213	2.142	2141.5	generate	Run2	generate/STIM_004.jpg	100
1003.451	2.136	2135.5	generate	Run2	generate/STIM_004.jpg	100
1008.476	1.162	1162.5	generate	Run2	generate/STIM_004.jpg	99
1012.511	1.382	1381.7	generate	Run2	generate/STIM_004.jpg	99
1017.464	2.049	2048.8	generate	Run2	generate/STIM_005.jpg	100
1023.027	1.745	1744.9	generate	Run2	generate/STIM_005.jpg	99
1027.851	1.844	1843.7	generate	Run2	generate/STIM_005.jpg	100
1032.065	1.222	1221.7	generate	Run2	generate/STIM_005.jpg	100
1035.751	1.148	1148.5	generate	Run2	generate/STIM_005.jpg	100
1040.783	2.401	2400.8	generate	Run2	generate/STIM_006.jpg	99
1046.823	2.05	2049.9	generate	Run2	generate/STIM_006.jpg	99
1052.058	1.354	1353.5	generate	Run2	generate/STIM_006.jpg	100
1056.032	1.908	1907.7	generate	Run2	generate/STIM_006.jpg	100
1060.648	1.637	1636.8	generate	Run2	generate/STIM_006.jpg	100
1065.845	1.401	1401.0	generate	Run2	generate/STIM_007.jpg	99
1070.953	1.609	1608.9	generate	Run2	generate/STIM_007.jpg	100
1074.997	0.991	990.8	generate	Run2	generate/STIM_007.jpg	99
1078.996	1.031	1031.1	generate	Run2	generate/STIM_007.jpg	99
1082.246	1.367	1366.9	generate	Run2	generate/STIM_007.jpg	99
1086.348	1.325	1325.1	generate	Run2	generate/STIM_008.jpg	100
1089.856	1.812	1811.9	generate	Run2	generate/STIM_008.jpg	99
1094.19	1.247	1246.7	generate	Run2	generate/STIM_008.jpg	99
1098.568	1.961	1960.6	generate	Run2	generate/STIM_008.jpg	99
1104.517	1.345	1344.9	generate	Run2	generate/STIM_008.jpg	99
1108.476	2.041	2040.6	generate	Run2	generate/STIM_009.jpg	99
1113.343	0.942	942.1	generate	Run2	generate/STIM_009.jpg	99
1116.371	2.107	2106.7	generate	Run2	generate/STIM_009.jpg	99
1120.615	0.947	947.3	generate	Run2	generate/STIM_009.jpg	100
1125.294	0.849	848.9	generate	Run2	generate/STIM_009.jpg	99
1129.536	1.299	1298.8	generate	Run2	generate/STIM_010.jpg	99
1134.648	1.128	1127.8	generate	Run2	generate/STIM_010.jpg	99
1138.065	0.95	950.0	generate	Run2	generate/STIM_010.jpg	100
1141.391	1.37	1370.1	generate	Run2	generate/STIM_010.jpg	99
1145.691	1.757	1756.7	generate	Run2	generate/STIM_010.jpg	99
1151.341	2.049	2049.2	generate	Run2	generate/STIM_011.jpg	99
1155.923	1.165	1164.7	generate	Run2	generate/STIM_011.jpg	100
1159.309	0.961	961.3	generate	Run2	generate/STIM_011.jpg	99
1162.593	1.33	1329.6	generate	Run2	generate/STIM_011.jpg	99
1166.396	1.423	1423.2	generate	Run2	generate/STIM_011.jpg	99
1170.058	1.468	1467.7	generate	Run2	generate/STIM_012.jpg	99
1174.423	1.454	1453.6	generate	Run2	generate/STIM_012.jpg	100
1178.62	1.836	1835.6	generate	Run2	generate/STIM_012.jpg	99
1184.366	1.824	1823.6	generate	Run2	generate/STIM_012.jpg	100
1189.211	0.981	981.2	generate	Run2	generate/STIM_012.jpg	100
1192.97	1.017	1016.9	generate	Run2	generate/STIM_013.jpg	99
1196.964	0.989	989.2	generate	Run2	generate/STIM_013.jpg	99
1201.368	0.957	957.4	generate	Run2	generate/STIM_013.jpg	99
1205.609	1.971	1971.2	generate	Run2	generate/STIM_013.jpg	100
1210.238	1.126	1126.5	generate	Run2	generate/STIM_013.jpg	99
1214.209	1.311	1311.0	generate	Run2	generate/STIM_014.jpg	99
1219.376	1.719	1718.8	generate	Run2	generate/STIM_014.jpg	99
1224.738	1.16	1160.1	generate	Run2	generate/STIM_014.jpg	99
1228.884	1.648	1647.5	generate	Run2	generate/STIM_014.jpg	100
1234.335	1.762	1762.5	generate	Run2	generate/STIM_014.jpg	99
1239.903	1.378	1378.4	generate	Run2	generate/STIM_015.jpg	99
1243.927	2.147	2147.0	generate	Run2	generate/STIM_015.jpg	99
1249.945	1.772	1772.1	generate	Run2	generate/STIM_015.jpg	100
1255.144	1.614	1613.9	generate	Run2	generate/STIM_015.jpg	100
1260.336	0.992	991.6	generate	Run2	generate/STIM_015.jpg	99
1263.848	2.455	2454.7	generate	Run2	generate/STIM_016.jpg	99
1268.534	1.661	1660.6	generate	Run2	generate/STIM_016.jpg	99
1273.239	1.767	1767.2	generate	Run2	generate/STIM_016.jpg	100
1277.836	1.069	1069.1	generate	Run2	generate/STIM_016.jpg	99
1282.368	1.662	1661.9	generate	Run2	generate/STIM_016.jpg	99
1287.48	1.683	1682.9	generate	Run2	generate/STIM_017.jpg	99
1291.441	0.956	956.2	generate	Run2	generate/STIM_017.jpg	100
1295.592	1.586	1585.7	generate	Run2	generate/STIM_017.jpg	99
1299.72	0.841	841.4	generate	Run2	generate/STIM_017.jpg	100
1303.481	0.947	947.0	generate	Run2	generate/STIM_017.jpg	100
1308.148	1.563	1563.4	generate	Run2	generate/STIM_018.jpg	100
1312.043	2.047	2046.9	generate	Run2	generate/STIM_018.jpg	99
1316.895	1.332	1332.3	generate	Run2	generate/STIM_018.jpg	99
1320.943	1.563	1562.7	generate	Run2	generate/STIM_018.jpg	99
1325.612	1.369	1369.0	generate	Run2	generate/STIM_018.jpg	99
1331.002	1.41	1410.2	generate	Run2	generate/STIM_019.jpg	100
1335.154	0.992	992.2	generate	Run2	generate/STIM_019.jpg	100
1339.706	1.718	1717.6	generate	Run2	generate/STIM_019.jpg	99
1343.698	1.028	1028.5	generate	Run2	generate/STIM_019.jpg	100
1347.879	1.68	1679.7	generate	Run2	generate/STIM_019.jpg	99
1352.279	1.42	1419.9	generate	Run2	generate/STIM_020.jpg	100
1357.513	1.205	1205.4	generate	Run2	generate/STIM_020.jpg	100
1361.023	1.237	1236.8	generate	Run2	generate/STIM_020.jpg	100
1364.69	1.518	1518.4	generate	Run2	generate/STIM_020.jpg	100
1368.882	0.928	927.9	generate	Run2	generate/STIM_020.jpg	99
1373.179	1.038	1038.0	generate	Run2	generate/STIM_021.jpg	100
1376.954	1.346	1345.5	generate	Run2	generate/STIM_021.jpg	99
1381.847	1.427	1427.1	generate	Run2	generate/STIM_021.jpg	100
1385.372	1.039	1039.0	generate	Run2	generate/STIM_021.jpg	100
1389.868	1.451	1451.3	generate	Run2	generate/STIM_021.jpg	100
1395.287	2.064	2064.0	generate	Run2	generate/STIM_022.jpg	100
1400.067	1.951	1951.3	generate	Run2	generate/STIM_022.jpg	99
1405.985	1.84	1840.4	generate	Run2	generate/STIM_022.jpg	100
1410.247	0.83	829.7	generate	Run2	generate/STIM_022.jpg	100
1413.951	1.176	1175.8	generate	Run2	generate/STIM_022.jpg	99
1417.9	1.595	1595.3	generate	Run2	generate/STIM_023.jpg	99
1423.099	2.008	2007.7	generate	Run2	generate/STIM_023.jpg	100
1428.933	2.083	2083.1	generate	Run2	generate/STIM_023.jpg	100
1434.355	1.976	1975.7	generate	Run2	generate/STIM_023.jpg	99
1440.278	1.009	1009.1	generate	Run2	generate/STIM_023.jpg	99
1443.984	2.219	2218.8	generate	Run2	generate/STIM_024.jpg	99
1448.65	2.319	2319.1	generate	Run2	generate/STIM_024.jpg	99
1453.108	1.79	1790.3	generate	Run2	generate/STIM_024.jpg	100
1457.508	1.212	1212.3	generate	Run2	generate/STIM_024.jpg	100
1461.827	0.935	935.0	generate	Run2	generate/STIM_024.jpg	99
1466.423	0.956	955.8	repeat	Run2	repeat/STIM_000.jpg	99
1469.567	0.622	622.4	repeat	Run2	repeat/STIM_000.jpg	100
1472.851	0.853	852.6	repeat	Run2	repeat/STIM_000.jpg	100
1476.146	0.684	684.0	repeat	Run2	repeat/STIM_000.jpg	100
1480.671	0.59	590.0	repeat	Run2	repeat/STIM_000.jpg	100
1485.172	0.754	753.6	repeat	Run2	repeat/STIM_001.jpg	99
1489.848	0.94	939.9	repeat	Run2	repeat/STIM_001.jpg	100
1493.718	0.898	897.5	repeat	Run2	repeat/STIM_001.jpg	99
1497.087	0.621	620.6	repeat	Run2	repeat/STIM_001.jpg	99
1500.891	0.799	799.1	repeat	Run2	repeat/STIM_001.jpg	99
1503.734	0.828	827.7	repeat	Run2	repeat/STIM_002.jpg	99
1508.532	0.593	592.6	repeat	Run2	repeat/STIM_002.jpg	99
1511.9	0.857	857.1	repeat	Run2	repeat/STIM_002.jpg	100
1515.098	0.697	697.4	repeat	Run2	repeat/STIM_002.jpg	99
1518.156	0.629	629.1	repeat	Run2	repeat/STIM_002.jpg	99
1522.318	0.946	946.0	repeat	Run2	repeat/STIM_003.jpg	99
1526.653	0.937	937.2	repeat	Run2	repeat/STIM_003.jpg	99
1529.805	0.656	656.3	repeat	Run2	repeat/STIM_003.jpg	100
1534.36	0.896	896.3	repeat	Run2	repeat/STIM_003.jpg	99
1537.298	0.605	605.2	repeat	Run2	repeat/STIM_003.jpg	99
1541.041	0.658	657.9	repeat	Run2	repeat/STIM_004.jpg	99
1544.67	0.956	955.5	repeat	Run2	repeat/STIM_004.jpg	100
1549.482	0.786	785.8	repeat	Run2	repeat/STIM_004.jpg	100
1552.594	0.572	571.5	repeat	Run2	repeat/STIM_004.jpg	99
1555.329	0.512	511.8	repeat	Run2	repeat/STIM_004.jpg	100
1559.347	0.636	636.4	repeat	Run2	repeat/STIM_005.jpg	99
1563.987	0.953	952.7	repeat	Run2	repeat/STIM_005.jpg	99
1568.187	0.881	880.7	repeat	Run2	repeat/STIM_005.jpg	99
1571.279	0.772	771.7	repeat	Run2	repeat/STIM_005.jpg	99
1574.348	0.756	756.2	repeat	Run2	repeat/STIM_005.jpg	100
1578.5	0.866	865.9	repeat	Run2	repeat/STIM_006.jpg	100
1582.02	0.884	883.6	repeat	Run2	repeat/STIM_006.jpg	99
1585.976	0.943	942.6	repeat	Run2	repeat/STIM_006.jpg	100
1589.307	0.773	772.8	repeat	Run2	repeat/STIM_006.jpg	99
1592.112	0.892	891.7	repeat	Run2	repeat/STIM_006.jpg	100
1596.834	0.488	488.1	repeat	Run2	repeat/STIM_007.jpg	99
1599.338	0.781	780.9	repeat	Run2	repeat/STIM_007.jpg	99
1603.366	0.696	696.0	repeat	Run2	repeat/STIM_007.jpg	99
1607.163	0.679	678.8	repeat	Run2	repeat/STIM_007.jpg	100
1611.242	0.935	935.2	repeat	Run2	repeat/STIM_007.jpg	100
1615.902	0.807	807.3	repeat	Run2	repeat/STIM_008.jpg	100
1619.644	0.901	900.9	repeat	Run2	repeat/STIM_008.jpg	100
1623.825	0.61	609.7	repeat	Run2	repeat/STIM_008.jpg	99
1628.21	0.843	842.9	repeat	Run2	repeat/STIM_008.jpg	99
1632.004	0.806	806.5	repeat	Run2	repeat/STIM_008.jpg	99
1636.164	0.925	924.7	repeat	Run2	repeat/STIM_009.jpg	100
1640.833	0.934	933.9	repeat	Run2	repeat/STIM_009.jpg	100
1645.507	0.789	789.4	repeat	Run2	repeat/STIM_009.jpg	99
1648.583	0.738	737.6	repeat	Run2	repeat/STIM_009.jpg	99
1651.71	0.772	772.3	repeat	Run2	repeat/STIM_009.jpg	100
1655.791	0.879	879.0	repeat	Run2	repeat/STIM_010.jpg	99
1659.088	0.721	721.4	repeat	Run2	repeat/STIM_010.jpg	99
1663.496	0.629	628.7	repeat	Run2	repeat/STIM_010.jpg	100
1666.669	0.713	713.3	repeat	Run2	repeat/STIM_010.jpg	99
1670.434	0.95	949.5	repeat	Run2	repeat/STIM_010.jpg	99
1674.64	0.856	856.0	repeat	Run2	repeat/STIM_011.jpg	99
1678.691	0.618	617.7	repeat	Run2	repeat/STIM_011.jpg	100
1681.44	0.63	630.1	repeat	Run2	repeat/STIM_011.jpg	100
1684.821	0.666	665.5	repeat	Run2	repeat/STIM_011.jpg	100
1688.48	0.732	731.6	repeat	Run2	repeat/STIM_011.jpg	100
1693.056	0.668	668.2	repeat	Run2	repeat/STIM_012.jpg	99
1696.887	0.9	899.9	repeat	Run2	repeat/STIM_012.jpg	100
1701.629	0.61	610.1	repeat	Run2	repeat/STIM_012.jpg	99
1705.471	0.743	742.6	repeat	Run2	repeat/STIM_012.jpg	100
1710.17	0.593	593.4	repeat	Run2	repeat/STIM_012.jpg	100
1714.025	0.741	741.2	repeat	Run2	repeat/STIM_013.jpg	100
1717.065	0.841	840.7	repeat	Run2	repeat/STIM_013.jpg	100
1720.295	0.532	532.4	repeat	Run2	repeat/STIM_013.jpg	100
1724.783	0.542	542.5	repeat	Run2	repeat/STIM_013.jpg	100
1727.957	0.629	628.6	repeat	Run2	repeat/STIM_013.jpg	99
1732.486	0.516	515.6	repeat	Run2	repeat/STIM_014.jpg	100
1735.257	0.734	733.9	repeat	Run2	repeat/STIM_014.jpg	99
1739.145	0.555	554.6	repeat	Run2	repeat/STIM_014.jpg	99
1743.587	0.699	699.0	repeat	Run2	repeat/STIM_014.jpg	99
1748.056	0.73	730.1	repeat	Run2	repeat/STIM_014.jpg	100
1751.611	1.338	1338.5	generate	Run3	generate/STIM_000.jpg	99
1756.275	1.409	1408.6	generate	Run3	generate/STIM_000.jpg	99
1760.09	1.792	1792.1	generate	Run3	generate/STIM_000.jpg	99
1764.615	1.452	1451.8	generate	Run3	generate/STIM_000.jpg	99
1769.999	1.303	1302.8	generate	Run3	generate/STIM_000.jpg	100
1774.974	1.661	1660.7	generate	Run3	generate/STIM_001.jpg	99
1779.839	1.306	1306.2	generate	Run3	generate/STIM_001.jpg	99
1783.983	1.331	1330.6	generate	Run3	generate/STIM_001.jpg	99
1787.494	1.692	1692.3	generate	Run3	generate/STIM_001.jpg	99
1791.295	2.013	2012.6	generate	Run3	generate/STIM_001.jpg	99
1796.878	1.573	1573.2	generate	Run3	generate/STIM_002.jpg	100
1800.795	0.85	849.9	generate	Run3	generate/STIM_002.jpg	100
1805.43	0.971	971.0	generate	Run3	generate/STIM_002.jpg	100
1808.931	2.018	2018.4	generate	Run3	generate/STIM_002.jpg	99
1813.154	1.3	1300.2	generate	Run3	generate/STIM_002.jpg	99
1817.828	1.291	1291.4	generate	Run3	generate/STIM_003.jpg	100
1821.735	1.195	1195.0	generate	Run3	generate/STIM_003.jpg	99
1825.983	1.659	1658.6	generate	Run3	generate/STIM_003.jpg	99
1831.166	1.52	1520.5	generate	Run3	generate/STIM_003.jpg	99
1836.098	1.971	1971.2	generate	Run3	generate/STIM_003.jpg	100
1840.486	1.164	1164.2	generate	Run3	generate/STIM_004.jpg	100
1843.702	2.015	2014.6	generate	Run3	generate/STIM_004.jpg	100
1849.146	1.256	1255.6	generate	Run3	generate/STIM_004.jpg	99
1852.784	0.881	881.4	generate	Run3	generate/STIM_004.jpg	100
1856.313	1.267	1266.7	generate	Run3	generate/STIM_004.jpg	99
1861.083	1.227	1227.0	generate	Run3	generate/STIM_005.jpg	99
1865.179	1.632	1632.0	generate	Run3	generate/STIM_005.jpg	99
1870.707	1.593	1593.1	generate	Run3	generate/STIM_005.jpg	99
1875.524	1.917	1916.9	generate	Run3	generate/STIM_005.jpg	100
1879.527	1.778	1778.1	generate	Run3	generate/STIM_005.jpg	100
1884.714	1.426	1426.3	generate	Run3	generate/STIM_006.jpg	99
1890.028	1.662	1661.6	generate	Run3	generate/STIM_006.jpg	99
1895.639	1.644	1644.5	generate	Run3	generate/STIM_006.jpg	99
1900.164	1.27	1270.4	generate	Run3	generate/STIM_006.jpg	100
1905.463	1.502	1501.8	generate	Run3	generate/STIM_006.jpg	100
1909.797	0.912	911.7	generate	Run3	generate/STIM_007.jpg	100
1912.896	1.415	1414.6	generate	Run3	generate/STIM_007.jpg	100
1916.67	1.026	1026.5	generate	Run3	generate/STIM_007.jpg	99
1920.008	1.618	1618.1	generate	Run3	generate/STIM_007.jpg	99
1924.901	1.858	1857.5	generate	Run3	generate/STIM_007.jpg	100
1930.657	1.009	1009.4	generate	Run3	generate/STIM_008.jpg	99
1935.26	1.504	1503.8	generate	Run3	generate/STIM_008.jpg	100
1940.422	0.918	918.2	generate	Run3	generate/STIM_008.jpg	99
1944.755	1.14	1140.0	generate	Run3	generate/STIM_008.jpg	100
1948.288	1.049	1048.7	generate	Run3	generate/STIM_008.jpg	100
1952.484	1.274	1273.8	generate	Run3	generate/STIM_009.jpg	100
1955.936	1.501	1501.4	generate	Run3	generate/STIM_009.jpg	99
1960.877	1.773	1773.4	generate	Run3	generate/STIM_009.jpg	100
1965.684	1.908	1908.1	generate	Run3	generate/STIM_009.jpg	99
1971.551	1.795	1795.0	generate	Run3	generate/STIM_009.jpg	99
1976.378	1.122	1122.4	generate	Run3	generate/STIM_010.jpg	99
1979.849	1.927	1926.9	generate	Run3	generate/STIM_010.jpg	100
1984.841	1.192	1191.8	generate	Run3	generate/STIM_010.jpg	99
1988.49	0.886	885.9	generate	Run3	generate/STIM_010.jpg	100
1993.081	1.304	1304.1	generate	Run3	generate/STIM_010.jpg	100
1997.489	1.011	1010.6	generate	Run3	generate/STIM_011.jpg	100
2002.53	0.854	854.5	generate	Run3	generate/STIM_011.jpg	99
2007.404	1.722	1722.5	generate	Run3	generate/STIM_011.jpg	100
2013.053	1.431	1431.3	generate	Run3	generate/STIM_011.jpg	99
2018.097	1.342	1342.5	generate	Run3	generate/STIM_011.jpg	99
2022.032	1.193	1193.0	generate	Run3	generate/STIM_012.jpg	100
2026.648	2.022	2022.4	generate	Run3	generate/STIM_012.jpg	100
2031.882	1.881	1881.4	generate	Run3	generate/STIM_012.jpg	100
2036.689	0.914	913.9	generate	Run3	generate/STIM_012.jpg	99
2041.549	2.005	2005.2	generate	Run3	generate/STIM_012.jpg	99
2046.152	1.416	1415.8	generate	Run3	generate/STIM_013.jpg	100
2049.826	1.749	1749.4	generate	Run3	generate/STIM_013.jpg	100
2053.682	0.979	978.9	generate	Run3	generate/STIM_013.jpg	100
2057.356	0.876	876.5	generate	Run3	generate/STIM_013.jpg	99
2060.417	1.812	1812.5	generate	Run3	generate/STIM_013.jpg	99
2065.2	1.105	1105.3	generate	Run3	generate/STIM_014.jpg	99
2069.994	1.229	1229.1	generate	Run3	generate/STIM_014.jpg	100
2073.717	1.902	1902.2	generate	Run3	generate/STIM_014.jpg	100
2078.633	1.601	1600.9	generate	Run3	generate/STIM_014.jpg	99
2082.366	1.491	1490.8	generate	Run3	generate/STIM_014.jpg	99
2087.766	1.606	1606.0	generate	Run3	generate/STIM_015.jpg	99
2093.065	1.291	1290.9	generate	Run3	generate/STIM_015.jpg	100
2097.552	1.07	1070.4	generate	Run3	generate/STIM_015.jpg	99
2102.114	1.815	1815.3	generate	Run3	generate/STIM_015.jpg	99
2107.585	0.824	823.5	generate	Run3	generate/STIM_015.jpg	100
2111.425	1.991	1990.9	generate	Run3	generate/STIM_016.jpg	99
2116.949	2.016	2015.6	generate	Run3	generate/STIM_016.jpg	100
2121.08	1.046	1046.0	generate	Run3	generate/STIM_016.jpg	99
2124.761	1.476	1475.6	generate	Run3	generate/STIM_016.jpg	100
2129.883	1.456	1455.7	generate	Run3	generate/STIM_016.jpg	99
2134.395	1.76	1759.6	generate	Run3	generate/STIM_017.jpg	100
2139.938	1.453	1452.7	generate	Run3	generate/STIM_017.jpg	100
2144.285	1.882	1882.4	generate	Run3	generate/STIM_017.jpg	99
2150.205	1.962	1962.2	generate	Run3	generate/STIM_017.jpg	100
2155.621	1.435	1435.4	generate	Run3	generate/STIM_017.jpg	100
2160.819	2.012	2011.6	generate	Run3	generate/STIM_018.jpg	100
2165.911	1.864	1864.3	generate	Run3	generate/STIM_018.jpg	100
2171.721	0.896	896.4	generate	Run3	generate/STIM_018.jpg	100
2176.505	0.987	986.6	generate	Run3	generate/STIM_018.jpg	100
2181.232	0.953	952.6	generate	Run3	generate/STIM_018.jpg	99
2184.424	1.001	1000.6	generate	Run3	generate/STIM_019.jpg	99
2188.904	1.049	1048.9	generate	Run3	generate/STIM_019.jpg	99
2192.467	1.871	1871.2	generate	Run3	generate/STIM_019.jpg	100
2197.507	0.85	849.6	generate	Run3	generate/STIM_019.jpg	99
2202.039	0.848	848.5	generate	Run3	generate/STIM_019.jpg	100
2204.927	1.686	1686.4	generate	Run3	generate/STIM_020.jpg	99
2208.974	1.876	1876.2	generate	Run3	generate/STIM_020.jpg	100
2214.28	1.564	1564.5	generate	Run3	generate/STIM_020.jpg	100
2219.523	1.096	1096.2	generate	Run3	generate/STIM_020.jpg	100
2224.232	1.631	1631.0	generate	Run3	generate/STIM_020.jpg	100
2228.743	1.414	1414.3	generate	Run3	generate/STIM_021.jpg	99
2233.28	1.937	1936.9	generate	Run3	generate/STIM_021.jpg	99
2237.586	0.841	841.3	generate	Run3	generate/STIM_021.jpg	99
2240.858	0.879	879.2	generate	Run3	generate/STIM_021.jpg	100
2245.295	1.684	1683.5	generate	Run3	generate/STIM_021.jpg	99
2249.208	1.687	1687.1	generate	Run3	generate/STIM_022.jpg	100
2254.867	1.33	1329.7	generate	Run3	generate/STIM_022.jpg	99
2259.636	1.054	1054.5	generate	Run3	generate/STIM_022.jpg	100
2262.807	0.986	986.4	generate	Run3	generate/STIM_022.jpg	100
2267.233	1.523	1523.4	generate	Run3	generate/STIM_022.jpg	100
2271.773	1.038	1038.1	generate	Run3	generate/STIM_023.jpg	99
2275.851	1.722	1722.2	generate	Run3	generate/STIM_023.jpg	99
2279.906	1.68	1680.5	generate	Run3	generate/STIM_023.jpg	100
2285.333	1.399	1398.6	generate	Run3	generate/STIM_023.jpg	99
2288.836	1.666	1666.1	generate	Run3	generate/STIM_023.jpg	100
2294.283	1.135	1135.2	generate	Run3	generate/STIM_024.jpg	99
2298.582	1.904	1904.3	generate	Run3	generate/STIM_024.jpg	100
2303.435	1.223	1222.9	generate	Run3	generate/STIM_024.jpg	100
2308.076	1.638	1638.2	generate	Run3	generate/STIM_024.jpg	99
2313.683	1.868	1868.2	generate	Run3	generate/STIM_024.jpg	100
2319.339	0.678	677.6	repeat	Run3	repeat/STIM_000.jpg	99
2323.933	0.887	887.2	repeat	Run3	repeat/STIM_000.jpg	100
2327.884	0.701	700.6	repeat	Run3	repeat/STIM_000.jpg	99
2332.181	0.763	762.7	repeat	Run3	repeat/STIM_000.jpg	99
2336.916	0.682	682.5	repeat	Run3	repeat/STIM_000.jpg	100
2340.0	0.488	487.9	repeat	Run3	repeat/STIM_001.jpg	99
2344.48	0.741	740.6	repeat	Run3	repeat/STIM_001.jpg	99
2348.376	0.789	789.1	repeat	Run3	repeat/STIM_001.jpg	99
2352.706	0.578	578.5	repeat	Run3	repeat/STIM_001.jpg	99
2357.274	0.495	495.4	repeat	Run3	repeat/STIM_001.jpg	100
2361.5	0.519	519.2	repeat	Run3	repeat/STIM_002.jpg	99
2365.261	0.674	674.3	repeat	Run3	repeat/STIM_002.jpg	100
2368.283	0.921	920.7	repeat	Run3	repeat/STIM_002.jpg	100
2372.737	0.569	568.8	repeat	Run3	repeat/STIM_002.jpg	100
2376.96	0.719	718.9	repeat	Run3	repeat/STIM_002.jpg	100
2380.288	0.901	901.1	repeat	Run3	repeat/STIM_003.jpg	99
2385.062	0.631	630.6	repeat	Run3	repeat/STIM_003.jpg	99
2388.465	0.585	585.2	repeat	Run3	repeat/STIM_003.jpg	100
2391.143	0.7	700.0	repeat	Run3	repeat/STIM_003.jpg	100
2394.574	0.882	882.2	repeat	Run3	repeat/STIM_003.jpg	99
2398.998	0.915	914.9	repeat	Run3	repeat/STIM_004.jpg	99
2403.235	0.837	837.0	repeat	Run3	repeat/STIM_004.jpg	99
2407.668	0.901	900.9	repeat	Run3	repeat/STIM_004.jpg	99
2410.96	0.718	717.9	repeat	Run3	repeat/STIM_004.jpg	100
2414.077	0.897	897.3	repeat	Run3	repeat/STIM_004.jpg	99
2417.625	0.609	608.9	repeat	Run3	repeat/STIM_005.jpg	100
2421.441	0.942	941.5	repeat	Run3	repeat/STIM_005.jpg	100
2425.898	0.962	962.1	repeat	Run3	repeat/STIM_005.jpg	100
2429.74	0.72	719.5	repeat	Run3	repeat/STIM_005.jpg	100
2433.918	0.848	848.3	repeat	Run3	repeat/STIM_005.jpg	99
2438.16	0.516	515.5	repeat	Run3	repeat/STIM_006.jpg	99
2441.379	0.895	894.9	repeat	Run3	repeat/STIM_006.jpg	100
2444.318	0.555	555.3	repeat	Run3	repeat/STIM_006.jpg	100
2448.271	0.547	547.4	repeat	Run3	repeat/STIM_006.jpg	99
2450.997	0.555	555.1	repeat	Run3	repeat/STIM_006.jpg	99
2454.411	0.807	807.1	repeat	Run3	repeat/STIM_007.jpg	100
2457.492	0.877	876.8	repeat	Run3	repeat/STIM_007.jpg	100
2461.416	0.75	750.1	repeat	Run3	repeat/STIM_007.jpg	100
2464.384	0.522	522.3	repeat	Run3	repeat/STIM_007.jpg	100
2468.163	0.738	738.0	repeat	Run3	repeat/STIM_007.jpg	100
2472.446	0.875	875.0	repeat	Run3	repeat/STIM_008.jpg	99
2475.755	0.598	597.5	repeat	Run3	repeat/STIM_008.jpg	99
2479.579	0.849	849.4	repeat	Run3	repeat/STIM_008.jpg	99
2482.961	0.911	910.9	repeat	Run3	repeat/STIM_008.jpg	100
2485.905	0.962	962.2	repeat	Run3	repeat/STIM_008.jpg	99
2490.205	0.595	594.6	repeat	Run3	repeat/STIM_009.jpg	99
2493.273	0.565	565.0	repeat	Run3	repeat/STIM_009.jpg	100
2497.673	0.777	777.0	repeat	Run3	repeat/STIM_009.jpg	99
2501.081	0.776	775.8	repeat	Run3	repeat/STIM_009.jpg	100
2505.266	0.81	809.9	repeat	Run3	repeat/STIM_009.jpg	100
2509.583	0.948	948.5	repeat	Run3	repeat/STIM_010.jpg	100
2513.086	0.956	955.7	repeat	Run3	repeat/STIM_010.jpg	99
2516.15	0.772	771.9	repeat	Run3	repeat/STIM_010.jpg	100
2520.181	0.9	899.6	repeat	Run3	repeat/STIM_010.jpg	99
2524.274	0.66	660.1	repeat	Run3	repeat/STIM_010.jpg	99
2527.732	0.727	727.3	repeat	Run3	repeat/STIM_011.jpg	99
2530.758	0.563	563.3	repeat	Run3	repeat/STIM_011.jpg	100
2534.726	0.545	545.1	repeat	Run3	repeat/STIM_011.jpg	99
2538.469	0.605	605.4	repeat	Run3	repeat/STIM_011.jpg	99
2542.455	0.518	518.4	repeat	Run3	repeat/STIM_011.jpg	99
2545.466	0.87	869.5	repeat	Run3	repeat/STIM_012.jpg	100
2548.736	0.518	518.3	repeat	Run3	repeat/STIM_012.jpg	99
2551.515	0.644	644.4	repeat	Run3	repeat/STIM_012.jpg	100
2554.998	0.91	910.0	repeat	Run3	repeat/STIM_012.jpg	100
2559.228	0.775	775.2	repeat	Run3	repeat/STIM_012.jpg	100
2563.871	0.722	721.7	repeat	Run3	repeat/STIM_013.jpg	99
2568.59	0.615	615.3	repeat	Run3	repeat/STIM_013.jpg	99
2572.914	0.81	810.4	repeat	Run3	repeat/STIM_013.jpg	100
2577.375	0.756	756.5	repeat	Run3	repeat/STIM_013.jpg	100
2580.547	0.688	688.4	repeat	Run3	repeat/STIM_013.jpg	100
2583.792	0.938	937.6	repeat	Run3	repeat/STIM_014.jpg	100
2587.366	0.576	575.7	repeat	Run3	repeat/STIM_014.jpg	100
2591.921	0.68	680.4	repeat	Run3	repeat/STIM_014.jpg	100
2596.524	0.743	742.7	repeat	Run3	repeat/STIM_014.jpg	99
2601.182	0.602	602.2	repeat	Run3	repeat/STIM_014.jpg	100
2605.206	0.902	902.3	generate	Run4	generate/STIM_000.jpg	99
2608.919	0.837	837.4	generate	Run4	generate/STIM_000.jpg	99
2613.06	1.599	1599.4	generate	Run4	generate/STIM_000.jpg	100
2617.633	1.122	1121.9	generate	Run4	generate/STIM_000.jpg	99
2621.085	1.902	1902.3	generate	Run4	generate/STIM_000.jpg	100
2626.337	1.135	1134.7	generate	Run4	generate/STIM_001.jpg	99
2629.53	1.034	1034.0	generate	Run4	generate/STIM_001.jpg	100
2634.363	1.384	1384.1	generate	Run4	generate/STIM_001.jpg	100
2639.466	1.021	1020.9	generate	Run4	generate/STIM_001.jpg	100
2643.9	0.924	924.5	generate	Run4	generate/STIM_001.jpg	99
2646.944	1.161	1160.7	generate	Run4	generate/STIM_002.jpg	99
2650.508	1.937	1936.6	generate	Run4	generate/STIM_002.jpg	99
2654.749	1.376	1375.6	generate	Run4	generate/STIM_002.jpg	99
2659.358	1.697	1696.6	generate	Run4	generate/STIM_002.jpg	99
2664.91	1.753	1753.2	generate	Run4	generate/STIM_002.jpg	100
2669.857	1.303	1302.7	generate	Run4	generate/STIM_003.jpg	100
2674.129	1.613	1613.4	generate	Run4	generate/STIM_003.jpg	100
2679.202	1.218	1217.7	generate	Run4	generate/STIM_003.jpg	100
2682.822	1.705	1705.0	generate	Run4	generate/STIM_003.jpg	100
2687.129	1.796	1795.9	generate	Run4	generate/STIM_003.jpg	100
2691.129	1.947	1947.2	generate	Run4	generate/STIM_004.jpg	100
2695.896	1.908	1907.7	generate	Run4	generate/STIM_004.jpg	100
2701.599	1.85	1849.5	generate	Run4	generate/STIM_004.jpg	99
2705.984	1.451	1451.3	generate	Run4	generate/STIM_004.jpg	99
2710.335	1.362	1362.1	generate	Run4	generate/STIM_004.jpg	99
2714.247	1.63	1629.7	generate	Run4	generate/STIM_005.jpg	100
2719.357	1.116	1115.8	generate	Run4	generate/STIM_005.jpg	100
2722.93	0.976	976.4	generate	Run4	generate/STIM_005.jpg	99
2726.011	1.774	1774.1	generate	Run4	generate/STIM_005.jpg	99
2730.682	2.036	2036.3	generate	Run4	generate/STIM_005.jpg	99
2735.193	0.875	875.2	generate	Run4	generate/STIM_006.jpg	99
2739.958	1.22	1220.3	generate	Run4	generate/STIM_006.jpg	99
2744.398	1.91	1909.8	generate	Run4	generate/STIM_006.jpg	100
2749.894	1.714	1714.5	generate	Run4	generate/STIM_006.jpg	100
2754.794	1.207	1206.9	generate	Run4	generate/STIM_006.jpg	100
2759.535	1.746	1746.2	generate	Run4	generate/STIM_007.jpg	99
2763.931	0.968	967.8	generate	Run4	generate/STIM_007.jpg	100
2767.725	1.245	1245.0	generate	Run4	generate/STIM_007.jpg	100
2771.22	1.791	1791.1	generate	Run4	generate/STIM_007.jpg	99
2775.272	1.486	1486.0	generate	Run4	generate/STIM_007.jpg	100
2780.31	1.757	1757.3	generate	Run4	generate/STIM_008.jpg	99
2785.229	1.336	1335.8	generate	Run4	generate/STIM_008.jpg	99
2789.148	1.584	1584.0	generate	Run4	generate/STIM_008.jpg	100
2793.838	1.66	1660.0	generate	Run4	generate/STIM_008.jpg	100
2798.135	1.066	1065.9	generate	Run4	generate/STIM_008.jpg	99
2802.296	0.847	847.1	generate	Run4	generate/STIM_009.jpg	100
2805.666	0.992	992.3	generate	Run4	generate/STIM_009.jpg	99
2809.308	1.342	1342.1	generate	Run4	generate/STIM_009.jpg	99
2814.064	1.193	1193.4	generate	Run4	generate/STIM_009.jpg	99
2818.837	1.132	1132.0	generate	Run4	generate/STIM_009.jpg	99
2823.148	1.709	1709.0	generate	Run4	generate/STIM_010.jpg	99
2826.966	1.307	1307.0	generate	Run4	generate/STIM_010.jpg	99
2830.414	0.935	934.9	generate	Run4	generate/STIM_010.jpg	100
2834.697	1.888	1888.2	generate	Run4	generate/STIM_010.jpg	100
2840.119	1.595	1594.7	generate	Run4	generate/STIM_010.jpg	100
2844.544	1.889	1888.6	generate	Run4	generate/STIM_011.jpg	99
2850.175	0.891	890.9	generate	Run4	generate/STIM_011.jpg	99
2854.21	1.495	1494.9	generate	Run4	generate/STIM_011.jpg	99
2858.42	1.44	1440.5	generate	Run4	generate/STIM_011.jpg	100
2863.577	1.649	1649.1	generate	Run4	generate/STIM_011.jpg	100
2869.223	1.531	1530.7	generate	Run4	generate/STIM_012.jpg	100
2873.917	1.703	1702.9	generate	Run4	generate/STIM_012.jpg	100
2878.052	0.904	904.4	generate	Run4	generate/STIM_012.jpg	100
2881.593	1.7	1700.1	generate	Run4	generate/STIM_012.jpg	100
2886.192	0.902	902.5	generate	Run4	generate/STIM_012.jpg	100
2890.395	1.198	1198.1	generate	Run4	generate/STIM_013.jpg	99
2893.942	1.58	1580.3	generate	Run4	generate/STIM_013.jpg	99
2898.325	1.969	1968.8	generate	Run4	generate/STIM_013.jpg	100
2903.712	1.954	1954.1	generate	Run4	generate/STIM_013.jpg	99
2908.621	2.007	2007.4	generate	Run4	generate/STIM_013.jpg	99
2913.717	1.376	1375.5	generate	Run4	generate/STIM_014.jpg	99
2918.589	1.149	1148.7	generate	Run4	generate/STIM_014.jpg	99
2921.859	0.968	968.0	generate	Run4	generate/STIM_014.jpg	100
2925.099	1.639	1638.8	generate	Run4	generate/STIM_014.jpg	99
2930.439	0.902	901.7	generate	Run4	generate/STIM_014.jpg	99
2933.719	1.357	1357.1	generate	Run4	generate/STIM_015.jpg	99
2937.15	0.95	950.5	generate	Run4	generate/STIM_015.jpg	99
2941.912	1.909	1908.7	generate	Run4	generate/STIM_015.jpg	100
2947.021	1.454	1453.8	generate	Run4	generate/STIM_015.jpg	100
2950.79	0.984	983.8	generate	Run4	generate/STIM_015.jpg	100
2954.829	2.019	2018.9	generate	Run4	generate/STIM_016.jpg	99
2959.63	1.791	1791.4	generate	Run4	generate/STIM_016.jpg	100
2964.193	1.22	1219.8	generate	Run4	generate/STIM_016.jpg	99
2967.743	1.808	1807.5	generate	Run4	generate/STIM_016.jpg	99
2972.001	1.294	1294.4	generate	Run4	generate/STIM_016.jpg	99
2977.153	1.566	1566.4	generate	Run4	generate/STIM_017.jpg	100
2981.201	1.758	1757.6	generate	Run4	generate/STIM_017.jpg	100
2985.365	1.616	1615.6	generate	Run4	generate/STIM_017.jpg	99
2989.234	1.689	1688.6	generate	Run4	generate/STIM_017.jpg	100
2994.189	1.752	1751.7	generate	Run4	generate/STIM_017.jpg	100
2999.677	1.51	1509.6	generate	Run4	generate/STIM_018.jpg	99
3004.414	1.409	1408.6	generate	Run4	generate/STIM_018.jpg	99
3009.814	1.308	1307.6	generate	Run4	generate/STIM_018.jpg	100
3014.353	1.599	1598.9	generate	Run4	generate/STIM_018.jpg	100
3018.336	1.464	1464.3	generate	Run4	generate/STIM_018.jpg	100
3023.459	1.758	1757.8	generate	Run4	generate/STIM_019.jpg	99
3027.832	1.634	1634.2	generate	Run4	generate/STIM_019.jpg	99
3032.926	1.214	1214.2	generate	Run4	generate/STIM_019.jpg	99
3037.352	0.909	909.0	generate	Run4	generate/STIM_019.jpg	100
3041.747	0.88	880.2	generate	Run4	generate/STIM_019.jpg	100
3045.711	1.902	1901.5	generate	Run4	generate/STIM_020.jpg	100
3050.367	1.777	1777.3	generate	Run4	generate/STIM_020.jpg	100
3055.601	1.953	1953.2	generate	Run4	generate/STIM_020.jpg	100
3060.51	1.412	1411.6	generate	Run4	generate/STIM_020.jpg	100
3065.661	1.432	1431.9	generate	Run4	generate/STIM_020.jpg	100
3069.759	1.622	1622.1	generate	Run4	generate/STIM_021.jpg	99
3074.036	0.937	936.8	generate	Run4	generate/STIM_021.jpg	100
3077.86	1.844	1844.1	generate	Run4	generate/STIM_021.jpg	100
3083.404	0.997	996.8	generate	Run4	generate/STIM_021.jpg	100
3086.706	1.82	1820.3	generate	Run4	generate/STIM_021.jpg	99
3091.362	1.72	1719.9	generate	Run4	generate/STIM_022.jpg	99
3096.685	1.697	1697.2	generate	Run4	generate/STIM_022.jpg	100
3100.571	0.993	993.0	generate	Run4	generate/STIM_022.jpg	100
3104.348	1.985	1985.3	generate	Run4	generate/STIM_022.jpg	100
3108.601	1.027	1027.0	generate	Run4	generate/STIM_022.jpg	99
3111.684	1.036	1036.4	generate	Run4	generate/STIM_023.jpg	99
3115.111	1.947	1947.3	generate	Run4	generate/STIM_023.jpg	100
3120.444	0.877	876.9	generate	Run4	generate/STIM_023.jpg	99
3124.268	1.397	1397.0	generate	Run4	generate/STIM_023.jpg	100
3127.8	1.222	1222.3	generate	Run4	generate/STIM_023.jpg	100
3132.328	1.172	1171.8	generate	Run4	generate/STIM_024.jpg	100
3135.691	1.748	1747.5	generate	Run4	generate/STIM_024.jpg	99
3139.667	1.495	1495.2	generate	Run4	generate/STIM_024.jpg	99
3145.12	1.428	1427.7	generate	Run4	generate/STIM_024.jpg	99
3149.113	0.853	852.6	generate	Run4	generate/STIM_024.jpg	100
3152.708	0.593	592.9	repeat	Run4	repeat/STIM_000.jpg	100
3156.325	0.61	610.4	repeat	Run4	repeat/STIM_000.jpg	100
3159.993	0.548	547.8	repeat	Run4	repeat/STIM_000.jpg	99
3162.667	0.952	952.5	repeat	Run4	repeat/STIM_000.jpg	99
3166.435	0.947	946.6	repeat	Run4	repeat/STIM_000.jpg	100
3171.198	0.756	756.0	repeat	Run4	repeat/STIM_001.jpg	99
3175.346	0.744	744.3	repeat	Run4	repeat/STIM_001.jpg	100
3178.631	0.583	583.0	repeat	Run4	repeat/STIM_001.jpg	100
3183.145	0.589	588.9	repeat	Run4	repeat/STIM_001.jpg	99
3187.542	0.517	516.7	repeat	Run4	repeat/STIM_001.jpg	99
3190.616	0.877	876.7	repeat	Run4	repeat/STIM_002.jpg	99
3193.623	0.598	598.0	repeat	Run4	repeat/STIM_002.jpg	100
3196.5	0.836	835.7	repeat	Run4	repeat/STIM_002.jpg	99
3200.917	0.635	635.0	repeat	Run4	repeat/STIM_002.jpg	99
3204.88	0.55	550.4	repeat	Run4	repeat/STIM_002.jpg	100
3208.042	0.799	799.4	repeat	Run4	repeat/STIM_003.jpg	100
3210.907	0.714	714.4	repeat	Run4	repeat/STIM_003.jpg	99
3215.116	0.75	749.8	repeat	Run4	repeat/STIM_003.jpg	99
3219.417	0.868	868.5	repeat	Run4	repeat/STIM_003.jpg	99
3224.305	0.643	642.6	repeat	Run4	repeat/STIM_003.jpg	99
3227.397	0.663	662.6	repeat	Run4	repeat/STIM_004.jpg	100
3231.729	0.677	676.9	repeat	Run4	repeat/STIM_004.jpg	99
3234.528	0.94	939.7	repeat	Run4	repeat/STIM_004.jpg	100
3239.224	0.671	670.7	repeat	Run4	repeat/STIM_004.jpg	99
3243.773	0.845	845.1	repeat	Run4	repeat/STIM_004.jpg	99
3248.373	0.686	686.3	repeat	Run4	repeat/STIM_005.jpg	100
3251.899	0.563	562.9	repeat	Run4	repeat/STIM_005.jpg	99
3254.5	0.589	588.7	repeat	Run4	repeat/STIM_005.jpg	99
3258.783	0.51	509.9	repeat	Run4	repeat/STIM_005.jpg	99
3263.119	0.875	875.2	repeat	Run4	repeat/STIM_005.jpg	99
3266.825	0.62	619.9	repeat	Run4	repeat/STIM_006.jpg	100
3269.951	0.819	818.9	repeat	Run4	repeat/STIM_006.jpg	99
3273.216	0.843	843.2	repeat	Run4	repeat/STIM_006.jpg	100
3277.568	0.716	715.8	repeat	Run4	repeat/STIM_006.jpg	99
3282.03	0.765	765.0	repeat	Run4	repeat/STIM_006.jpg	99
3285.967	0.868	867.6	repeat	Run4	repeat/STIM_007.jpg	99
3289.171	0.614	614.0	repeat	Run4	repeat/STIM_007.jpg	99
3292.633	0.702	701.5	repeat	Run4	repeat/STIM_007.jpg	100
3296.876	0.936	936.5	repeat	Run4	repeat/STIM_007.jpg	100
3301.11	0.729	729.4	repeat	Run4	repeat/STIM_007.jpg	99
3303.999	0.954	953.9	repeat	Run4	repeat/STIM_008.jpg	100
3307.166	0.716	715.6	repeat	Run4	repeat/STIM_008.jpg	99
3311.337	0.81	810.3	repeat	Run4	repeat/STIM_008.jpg	99
3315.944	0.539	538.7	repeat	Run4	repeat/STIM_008.jpg	99
3319.253	0.749	748.6	repeat	Run4	repeat/STIM_008.jpg	100
3322.21	0.932	932.1	repeat	Run4	repeat/STIM_009.jpg	99
3326.195	0.914	914.1	repeat	Run4	repeat/STIM_009.jpg	99
3331.028	0.632	631.9	repeat	Run4	repeat/STIM_009.jpg	99
3335.129	0.597	597.3	repeat	Run4	repeat/STIM_009.jpg	99
3338.57	0.728	728.4	repeat	Run4	repeat/STIM_009.jpg	100
3342.188	0.917	917.2	repeat	Run4	repeat/STIM_010.jpg	100
3345.511	0.584	584.2	repeat	Run4	repeat/STIM_010.jpg	99
3348.724	0.633	633.1	repeat	Run4	repeat/STIM_010.jpg	100
3353.347	0.537	536.7	repeat	Run4	repeat/STIM_010.jpg	100
3357.69	0.832	832.4	repeat	Run4	repeat/STIM_010.jpg	99
3361.767	0.89	889.8	repeat	Run4	repeat/STIM_011.jpg	100
3365.222	0.588	588.4	repeat	Run4	repeat/STIM_011.jpg	99
3368.478	0.734	733.9	repeat	Run4	repeat/STIM_011.jpg	100
3372.944	0.746	745.5	repeat	Run4	repeat/STIM_011.jpg	100
3376.918	0.665	665.4	repeat	Run4	repeat/STIM_011.jpg	100
3380.974	0.582	581.6	repeat	Run4	repeat/STIM_012.jpg	100
3384.853	0.647	647.3	repeat	Run4	repeat/STIM_012.jpg	100
3388.523	0.65	649.6	repeat	Run4	repeat/STIM_012.jpg	100
3391.743	0.494	494.1	repeat	Run4	repeat/STIM_012.jpg	99
3395.73	0.9	900.0	repeat	Run4	repeat/STIM_012.jpg	99
3400.154	0.759	758.9	repeat	Run4	repeat/STIM_013.jpg	99
3404.513	0.824	824.0	repeat	Run4	repeat/STIM_013.jpg	99
3408.415	0.728	727.5	repeat	Run4	repeat/STIM_013.jpg	100
3411.592	0.679	679.3	repeat	Run4	repeat/STIM_013.jpg	99
3414.438	0.856	855.9	repeat	Run4	repeat/STIM_013.jpg	100
3418.439	0.725	724.6	repeat	Run4	repeat/STIM_014.jpg	99
3422.13	0.809	809.3	repeat	Run4	repeat/STIM_014.jpg	99
3425.527	0.505	505.1	repeat	Run4	repeat/STIM_014.jpg	99
3429.138	0.532	531.5	repeat	Run4	repeat/STIM_014.jpg	99
3433.428	0.766	765.5	repeat	Run4	repeat/STIM_014.jpg	100
