onset	duration	accuracy_binary	trial_type	learning_stage	stimulus
0.0	2.532	0	generate	Run1	generate/STIM_000.jpg
5.582	2.968	1	generate	Run1	generate/STIM_000.jpg
11.275	2.15	0	generate	Run1	generate/STIM_000.jpg
15.482	2.206	1	generate	Run1	generate/STIM_000.jpg
20.816	1.796	1	generate	Run1	generate/STIM_000.jpg
25.326	2.048	1	generate	Run1	generate/STIM_001.jpg
30.334	2.565	1	generate	Run1	generate/STIM_001.jpg
35.386	1.322	1	generate	Run1	generate/STIM_001.jpg
40.467	1.885	0	generate	Run1	generate/STIM_001.jpg
45.778	2.026	1	generate	Run1	generate/STIM_001.jpg
51.746	2.464	0	generate	Run1	generate/STIM_002.jpg
57.819	2.388	1	generate	Run1	generate/STIM_002.jpg
62.6	2.504	1	generate	Run1	generate/STIM_002.jpg
68.783	2.335	0	generate	Run1	generate/STIM_002.jpg
74.0	1.254	1	generate	Run1	generate/STIM_002.jpg
78.398	1.5	1	generate	Run1	generate/STIM_003.jpg
82.085	1.939	0	generate	Run1	generate/STIM_003.jpg
87.664	2.674	0	generate	Run1	generate/STIM_003.jpg
93.026	2.149	1	generate	Run1	generate/STIM_003.jpg
99.115	1.638	1	generate	Run1	generate/STIM_003.jpg
103.298	1.915	1	generate	Run1	generate/STIM_004.jpg
107.693	1.351	0	generate	Run1	generate/STIM_004.jpg
111.766	2.056	1	generate	Run1	generate/STIM_004.jpg
116.563	2.366	0	generate	Run1	generate/STIM_004.jpg
122.377	2.211	0	generate	Run1	generate/STIM_004.jpg
128.151	1.415	0	generate	Run1	generate/STIM_005.jpg
131.875	2.566	0	generate	Run1	generate/STIM_005.jpg
138.12	1.226	1	generate	Run1	generate/STIM_005.jpg
141.56	2.688	1	generate	Run1	generate/STIM_005.jpg
147.088	2.345	1	generate	Run1	generate/STIM_005.jpg
153.054	1.913	0	generate	Run1	generate/STIM_006.jpg
158.418	2.107	1	generate	Run1	generate/STIM_006.jpg
163.392	2.792	0	generate	Run1	generate/STIM_006.jpg
168.287	2.412	0	generate	Run1	generate/STIM_006.jpg
172.935	2.133	1	generate	Run1	generate/STIM_006.jpg
178.038	1.859	1	generate	Run1	generate/STIM_007.jpg
182.313	2.333	1	generate	Run1	generate/STIM_007.jpg
187.2	1.763	1	generate	Run1	generate/STIM_007.jpg
191.809	2.067	1	generate	Run1	generate/STIM_007.jpg
196.981	1.629	1	generate	Run1	generate/STIM_007.jpg
202.594	2.317	1	generate	Run1	generate/STIM_008.jpg
208.244	1.33	0	generate	Run1	generate/STIM_008.jpg
212.603	2.522	1	generate	Run1	generate/STIM_008.jpg
217.71	2.266	0	generate	Run1	generate/STIM_008.jpg
222.543	1.79	1	generate	Run1	generate/STIM_008.jpg
227.694	1.391	1	generate	Run1	generate/STIM_009.jpg
231.842	2.839	1	generate	Run1	generate/STIM_009.jpg
237.383	1.686	1	generate	Run1	generate/STIM_009.jpg
242.892	1.305	0	generate	Run1	generate/STIM_009.jpg
247.758	2.462	1	generate	Run1	generate/STIM_009.jpg
253.583	2.043	0	generate	Run1	generate/STIM_010.jpg
258.672	2.358	1	generate	Run1	generate/STIM_010.jpg
264.707	2.061	1	generate	Run1	generate/STIM_010.jpg
270.235	2.464	1	generate	Run1	generate/STIM_010.jpg
276.133	1.834	1	generate	Run1	generate/STIM_010.jpg
281.418	1.327	0	generate	Run1	generate/STIM_011.jpg
286.519	1.961	0	generate	Run1	generate/STIM_011.jpg
291.087	2.278	1	generate	Run1	generate/STIM_011.jpg
295.791	2.209	1	generate	Run1	generate/STIM_011.jpg
300.804	2.482	0	generate	Run1	generate/STIM_011.jpg
306.794	1.484	0	generate	Run1	generate/STIM_012.jpg
311.114	2.922	1	generate	Run1	generate/STIM_012.jpg
317.364	1.34	1	generate	Run1	generate/STIM_012.jpg
321.204	1.161	1	generate	Run1	generate/STIM_012.jpg
324.987	1.369	0	generate	Run1	generate/STIM_012.jpg
329.59	2.99	1	generate	Run1	generate/STIM_013.jpg
334.705	2.534	1	generate	Run1	generate/STIM_013.jpg
341.206	1.81	0	generate	Run1	generate/STIM_013.jpg
345.654	2.431	1	generate	Run1	generate/STIM_013.jpg
351.449	1.236	0	generate	Run1	generate/STIM_013.jpg
355.654	2.718	1	generate	Run1	generate/STIM_014.jpg
362.005	2.006	1	generate	Run1	generate/STIM_014.jpg
366.289	2.552	1	generate	Run1	generate/STIM_014.jpg
371.234	1.241	0	generate	Run1	generate/STIM_014.jpg
375.575	1.368	1	generate	Run1	generate/STIM_014.jpg
379.683	2.472	1	generate	Run1	generate/STIM_015.jpg
384.333	2.814	1	generate	Run1	generate/STIM_015.jpg
390.355	1.753	0	generate	Run1	generate/STIM_015.jpg
394.618	2.126	1	generate	Run1	generate/STIM_015.jpg
398.958	1.078	1	generate	Run1	generate/STIM_015.jpg
403.534	2.276	1	generate	Run1	generate/STIM_016.jpg
408.681	1.521	1	generate	Run1	generate/STIM_016.jpg
412.224	2.19	1	generate	Run1	generate/STIM_016.jpg
418.172	1.894	1	generate	Run1	generate/STIM_016.jpg
422.563	1.475	0	generate	Run1	generate/STIM_016.jpg
427.398	1.747	1	generate	Run1	generate/STIM_017.jpg
432.518	2.064	1	generate	Run1	generate/STIM_017.jpg
436.824	1.815	1	generate	Run1	generate/STIM_017.jpg
441.846	1.98	1	generate	Run1	generate/STIM_017.jpg
446.92	1.915	1	generate	Run1	generate/STIM_017.jpg
452.748	2.602	0	generate	Run1	generate/STIM_018.jpg
458.323	1.75	1	generate	Run1	generate/STIM_018.jpg
462.321	2.407	1	generate	Run1	generate/STIM_018.jpg
467.259	2.018	1	generate	Run1	generate/STIM_018.jpg
472.546	2.422	1	generate	Run1	generate/STIM_018.jpg
477.491	1.92	1	generate	Run1	generate/STIM_019.jpg
482.269	2.25	1	generate	Run1	generate/STIM_019.jpg
487.068	2.255	1	generate	Run1	generate/STIM_019.jpg
492.643	1.287	0	generate	Run1	generate/STIM_019.jpg
496.785	1.75	1	generate	Run1	generate/STIM_019.jpg
502.07	2.312	0	generate	Run1	generate/STIM_020.jpg
508.257	2.029	1	generate	Run1	generate/STIM_020.jpg
513.129	1.768	1	generate	Run1	generate/STIM_020.jpg
517.399	1.612	1	generate	Run1	generate/STIM_020.jpg
522.639	2.305	1	generate	Run1	generate/STIM_020.jpg
528.548	1.918	1	generate	Run1	generate/STIM_021.jpg
532.512	2.276	1	generate	Run1	generate/STIM_021.jpg
538.634	2.21	1	generate	Run1	generate/STIM_021.jpg
544.255	2.32	1	generate	Run1	generate/STIM_021.jpg
550.374	2.266	1	generate	Run1	generate/STIM_021.jpg
556.495	1.638	1	generate	Run1	generate/STIM_022.jpg
561.039	2.07	0	generate	Run1	generate/STIM_022.jpg
566.912	1.989	1	generate	Run1	generate/STIM_022.jpg
572.036	1.185	1	generate	Run1	generate/STIM_022.jpg
575.363	1.999	1	generate	Run1	generate/STIM_022.jpg
580.277	1.805	0	generate	Run1	generate/STIM_023.jpg
584.932	1.546	0	generate	Run1	generate/STIM_023.jpg
589.05	2.341	1	generate	Run1	generate/STIM_023.jpg
593.752	1.421	0	generate	Run1	generate/STIM_023.jpg
597.458	1.616	1	generate	Run1	generate/STIM_023.jpg
601.899	2.971	1	generate	Run1	generate/STIM_024.jpg
607.164	2.363	0	generate	Run1	generate/STIM_024.jpg
612.195	2.641	0	generate	Run1	generate/STIM_024.jpg
617.375	1.372	1	generate	Run1	generate/STIM_024.jpg
622.456	1.776	1	generate	Run1	generate/STIM_024.jpg
627.66	0.867	1	repeat	Run1	repeat/STIM_000.jpg
631.76	0.559	0	repeat	Run1	repeat/STIM_000.jpg
635.248	0.648	1	repeat	Run1	repeat/STIM_000.jpg
639.095	0.904	1	repeat	Run1	repeat/STIM_000.jpg
643.507	0.586	1	repeat	Run1	repeat/STIM_000.jpg
646.94	0.534	1	repeat	Run1	repeat/STIM_001.jpg
650.5	0.631	1	repeat	Run1	repeat/STIM_001.jpg
654.398	0.721	1	repeat	Run1	repeat/STIM_001.jpg
658.215	0.991	1	repeat	Run1	repeat/STIM_001.jpg
662.359	0.959	0	repeat	Run1	repeat/STIM_001.jpg
666.141	0.899	1	repeat	Run1	repeat/STIM_002.jpg
669.618	0.906	1	repeat	Run1	repeat/STIM_002.jpg
672.68	0.666	1	repeat	Run1	repeat/STIM_002.jpg
676.229	0.986	1	repeat	Run1	repeat/STIM_002.jpg
679.762	0.883	1	repeat	Run1	repeat/STIM_002.jpg
683.158	0.638	1	repeat	Run1	repeat/STIM_003.jpg
686.0	0.614	1	repeat	Run1	repeat/STIM_003.jpg
689.448	0.8	1	repeat	Run1	repeat/STIM_003.jpg
693.738	0.749	1	repeat	Run1	repeat/STIM_003.jpg
697.032	0.807	1	repeat	Run1	repeat/STIM_003.jpg
701.552	0.837	1	repeat	Run1	repeat/STIM_004.jpg
704.646	0.797	0	repeat	Run1	repeat/STIM_004.jpg
707.897	0.768	1	repeat	Run1	repeat/STIM_004.jpg
711.429	0.803	1	repeat	Run1	repeat/STIM_004.jpg
715.483	0.821	1	repeat	Run1	repeat/STIM_004.jpg
719.117	0.728	1	repeat	Run1	repeat/STIM_005.jpg
722.518	0.578	1	repeat	Run1	repeat/STIM_005.jpg
725.909	0.819	1	repeat	Run1	repeat/STIM_005.jpg
728.994	0.534	1	repeat	Run1	repeat/STIM_005.jpg
732.348	0.668	1	repeat	Run1	repeat/STIM_005.jpg
735.659	0.731	1	repeat	Run1	repeat/STIM_006.jpg
740.237	0.97	1	repeat	Run1	repeat/STIM_006.jpg
744.931	0.674	1	repeat	Run1	repeat/STIM_006.jpg
748.141	0.705	1	repeat	Run1	repeat/STIM_006.jpg
751.578	0.708	1	repeat	Run1	repeat/STIM_006.jpg
754.466	0.727	1	repeat	Run1	repeat/STIM_007.jpg
759.064	0.957	0	repeat	Run1	repeat/STIM_007.jpg
763.157	0.892	1	repeat	Run1	repeat/STIM_007.jpg
766.564	0.849	1	repeat	Run1	repeat/STIM_007.jpg
770.771	1.038	1	repeat	Run1	repeat/STIM_007.jpg
774.722	0.538	1	repeat	Run1	repeat/STIM_008.jpg
778.405	0.908	1	repeat	Run1	repeat/STIM_008.jpg
781.574	1.051	1	repeat	Run1	repeat/STIM_008.jpg
786.337	1.031	1	repeat	Run1	repeat/STIM_008.jpg
789.743	0.648	1	repeat	Run1	repeat/STIM_008.jpg
792.652	1.048	1	repeat	Run1	repeat/STIM_009.jpg
796.316	0.78	1	repeat	Run1	repeat/STIM_009.jpg
800.288	0.814	1	repeat	Run1	repeat/STIM_009.jpg
804.931	0.689	1	repeat	Run1	repeat/STIM_009.jpg
809.071	0.671	1	repeat	Run1	repeat/STIM_009.jpg
812.803	0.562	1	repeat	Run1	repeat/STIM_010.jpg
817.023	1.057	1	repeat	Run1	repeat/STIM_010.jpg
821.146	0.721	1	repeat	Run1	repeat/STIM_010.jpg
824.481	0.905	1	repeat	Run1	repeat/STIM_010.jpg
827.781	1.052	0	repeat	Run1	repeat/STIM_010.jpg
832.491	1.004	1	repeat	Run1	repeat/STIM_011.jpg
837.466	0.689	1	repeat	Run1	repeat/STIM_011.jpg
840.395	0.786	1	repeat	Run1	repeat/STIM_011.jpg
844.553	0.753	1	repeat	Run1	repeat/STIM_011.jpg
848.323	0.537	1	repeat	Run1	repeat/STIM_011.jpg
851.751	0.531	1	repeat	Run1	repeat/STIM_012.jpg
854.726	1.005	0	repeat	Run1	repeat/STIM_012.jpg
859.016	0.592	0	repeat	Run1	repeat/STIM_012.jpg
862.52	0.86	1	repeat	Run1	repeat/STIM_012.jpg
866.422	0.673	1	repeat	Run1	repeat/STIM_012.jpg
869.702	0.846	1	repeat	Run1	repeat/STIM_013.jpg
872.951	0.552	1	repeat	Run1	repeat/STIM_013.jpg
875.883	0.914	1	repeat	Run1	repeat/STIM_013.jpg
880.708	0.838	1	repeat	Run1	repeat/STIM_013.jpg
885.082	0.863	1	repeat	Run1	repeat/STIM_013.jpg
888.459	0.841	1	repeat	Run1	repeat/STIM_014.jpg
891.822	0.744	1	repeat	Run1	repeat/STIM_014.jpg
895.151	0.955	1	repeat	Run1	repeat/STIM_014.jpg
900.006	1.026	1	repeat	Run1	repeat/STIM_014.jpg
903.26	0.844	1	repeat	Run1	repeat/STIM_014.jpg
906.269	1.498	1	generate	Run2	generate/STIM_000.jpg
910.226	1.325	1	generate	Run2	generate/STIM_000.jpg
915.1	1.947	1	generate	Run2	generate/STIM_000.jpg
921.028	1.771	1	generate	Run2	generate/STIM_000.jpg
926.774	1.201	1	generate	Run2	generate/STIM_000.jpg
930.919	2.281	0	generate	Run2	generate/STIM_001.jpg
936.99	1.318	1	generate	Run2	generate/STIM_001.jpg
940.506	1.838	1	generate	Run2	generate/STIM_001.jpg
945.915	1.689	1	generate	Run2	generate/STIM_001.jpg
951.347	1.153	0	generate	Run2	generate/STIM_001.jpg
954.638	2.305	0	generate	Run2	generate/STIM_002.jpg
959.657	1.217	1	generate	Run2	generate/STIM_002.jpg
963.9	1.578	1	generate	Run2	generate/STIM_002.jpg
969.143	1.833	1	generate	Run2	generate/STIM_002.jpg
974.481	2.085	0	generate	Run2	generate/STIM_002.jpg
979.612	2.064	1	generate	Run2	generate/STIM_003.jpg
985.311	1.828	1	generate	Run2	generate/STIM_003.jpg
991.004	2.238	1	generate	Run2	generate/STIM_003.jpg
995.763	1.783	1	generate	Run2	generate/STIM_003.jpg
1001.449	1.617	1	generate	Run2	generate/STIM_003.jpg
1005.609	1.261	0	generate	Run2	generate/STIM_004.jpg
1008.957	2.404	1	generate	Run2	generate/STIM_004.jpg
1013.955	1.58	1	generate	Run2	generate/STIM_004.jpg
1019.286	1.227	1	generate	Run2	generate/STIM_004.jpg
1022.824	1.883	1	generate	Run2	generate/STIM_004.jpg
1027.566	1.448	1	generate	Run2	generate/STIM_005.jpg
1032.653	2.324	0	generate	Run2	generate/STIM_005.jpg
1038.116	1.463	1	generate	Run2	generate/STIM_005.jpg
1043.251	2.176	1	generate	Run2	generate/STIM_005.jpg
1048.067	1.534	0	generate	Run2	generate/STIM_005.jpg
1053.569	1.886	1	generate	Run2	generate/STIM_006.jpg
1057.729	1.798	1	generate	Run2	generate/STIM_006.jpg
1062.682	1.492	0	generate	Run2	generate/STIM_006.jpg
1067.275	1.779	1	generate	Run2	generate/STIM_006.jpg
1072.528	2.182	1	generate	Run2	generate/STIM_006.jpg
1076.93	2.079	1	generate	Run2	generate/STIM_007.jpg
1081.339	1.289	1	generate	Run2	generate/STIM_007.jpg
1085.319	1.902	1	generate	Run2	generate/STIM_007.jpg
1090.639	1.614	1	generate	Run2	generate/STIM_007.jpg
1095.269	1.281	1	generate	Run2	generate/STIM_007.jpg
1098.74	1.238	1	generate	Run2	generate/STIM_008.jpg
1102.229	1.689	0	generate	Run2	generate/STIM_008.jpg
1107.199	1.598	0	generate	Run2	generate/STIM_008.jpg
1111.217	2.03	1	generate	Run2	generate/STIM_008.jpg
1115.977	1.022	1	generate	Run2	generate/STIM_008.jpg
1119.602	1.978	1	generate	Run2	generate/STIM_009.jpg
1124.011	1.568	1	generate	Run2	generate/STIM_009.jpg
1128.324	2.188	1	generate	Run2	generate/STIM_009.jpg
1133.832	1.604	1	generate	Run2	generate/STIM_009.jpg
1138.859	2.006	1	generate	Run2	generate/STIM_009.jpg
1144.178	1.874	0	generate	Run2	generate/STIM_010.jpg
1148.944	1.864	1	generate	Run2	generate/STIM_010.jpg
1154.524	1.519	1	generate	Run2	generate/STIM_010.jpg
1158.854	1.691	0	generate	Run2	generate/STIM_010.jpg
1162.636	1.777	1	generate	Run2	generate/STIM_010.jpg
1166.688	1.228	1	generate	Run2	generate/STIM_011.jpg
1170.806	2.315	1	generate	Run2	generate/STIM_011.jpg
1176.004	2.291	0	generate	Run2	generate/STIM_011.jpg
1181.664	1.96	1	generate	Run2	generate/STIM_011.jpg
1186.647	0.908	0	generate	Run2	generate/STIM_011.jpg
1189.749	2.066	0	generate	Run2	generate/STIM_012.jpg
1194.291	1.887	1	generate	Run2	generate/STIM_012.jpg
1199.206	2.062	1	generate	Run2	generate/STIM_012.jpg
1203.468	1.588	1	generate	Run2	generate/STIM_012.jpg
1208.493	0.939	1	generate	Run2	generate/STIM_012.jpg
1212.413	2.246	1	generate	Run2	generate/STIM_013.jpg
1218.219	2.471	1	generate	Run2	generate/STIM_013.jpg
1224.183	0.982	1	generate	Run2	generate/STIM_013.jpg
1227.699	1.134	1	generate	Run2	generate/STIM_013.jpg
1232.813	2.022	1	generate	Run2	generate/STIM_013.jpg
1236.874	2.084	0	generate	Run2	generate/STIM_014.jpg
1241.005	1.989	0	generate	Run2	generate/STIM_014.jpg
1245.414	1.845	0	generate	Run2	generate/STIM_014.jpg
1250.783	0.987	1	generate	Run2	generate/STIM_014.jpg
1255.505	1.061	1	generate	Run2	generate/STIM_014.jpg
1260.307	1.433	0	generate	Run2	generate/STIM_015.jpg
1264.992	1.522	1	generate	Run2	generate/STIM_015.jpg
1270.195	1.005	1	generate	Run2	generate/STIM_015.jpg
1273.942	1.184	1	generate	Run2	generate/STIM_015.jpg
1277.526	1.587	1	generate	Run2	generate/STIM_015.jpg
1281.649	2.374	1	generate	Run2	generate/STIM_016.jpg
1287.009	1.336	1	generate	Run2	generate/STIM_016.jpg
1290.45	0.983	1	generate	Run2	generate/STIM_016.jpg
1293.785	1.88	1	generate	Run2	generate/STIM_016.jpg
1297.898	2.127	1	generate	Run2	generate/STIM_016.jpg
1302.967	1.585	1	generate	Run2	generate/STIM_017.jpg
1306.724	2.022	1	generate	Run2	generate/STIM_017.jpg
1312.449	2.334	1	generate	Run2	generate/STIM_017.jpg
1317.165	1.938	1	generate	Run2	generate/STIM_017.jpg
1322.03	1.753	1	generate	Run2	generate/STIM_017.jpg
1327.419	1.635	1	generate	Run2	generate/STIM_018.jpg
1331.117	1.841	1	generate	Run2	generate/STIM_018.jpg
1335.531	1.8	1	generate	Run2	generate/STIM_018.jpg
1341.073	2.085	1	generate	Run2	generate/STIM_018.jpg
1346.851	1.147	1	generate	Run2	generate/STIM_018.jpg
1351.775	2.018	1	generate	Run2	generate/STIM_019.jpg
1356.896	2.002	1	generate	Run2	generate/STIM_019.jpg
1361.099	2.385	0	generate	Run2	generate/STIM_019.jpg
1367.398	1.378	0	generate	Run2	generate/STIM_019.jpg
1371.906	2.034	1	generate	Run2	generate/STIM_019.jpg
1377.606	1.667	0	generate	Run2	generate/STIM_020.jpg
1382.229	1.138	1	generate	Run2	generate/STIM_020.jpg
1385.966	1.536	1	generate	Run2	generate/STIM_020.jpg
1391.183	1.417	1	generate	Run2	generate/STIM_020.jpg
1394.953	0.906	1	generate	Run2	generate/STIM_020.jpg
1398.869	2.647	0	generate	Run2	generate/STIM_021.jpg
1403.786	1.839	1	generate	Run2	generate/STIM_021.jpg
1408.486	1.905	1	generate	Run2	generate/STIM_021.jpg
1412.47	1.303	1	generate	Run2	generate/STIM_021.jpg
1416.273	1.072	1	generate	Run2	generate/STIM_021.jpg
1421.025	1.942	1	generate	Run2	generate/STIM_022.jpg
1425.537	1.402	0	generate	Run2	generate/STIM_022.jpg
1430.19	1.503	1	generate	Run2	generate/STIM_022.jpg
1435.437	1.741	1	generate	Run2	generate/STIM_022.jpg
1440.985	1.756	1	generate	Run2	generate/STIM_022.jpg
1445.628	2.108	1	generate	Run2	generate/STIM_023.jpg
1451.037	2.072	1	generate	Run2	generate/STIM_023.jpg
1456.423	1.93	1	generate	Run2	generate/STIM_023.jpg
1460.706	1.2	1	generate	Run2	generate/STIM_023.jpg
1464.417	2.013	0	generate	Run2	generate/STIM_023.jpg
1468.695	2.052	1	generate	Run2	generate/STIM_024.jpg
1474.253	1.712	1	generate	Run2	generate/STIM_024.jpg
1479.768	1.72	1	generate	Run2	generate/STIM_024.jpg
1483.589	1.887	1	generate	Run2	generate/STIM_024.jpg
1488.705	1.779	1	generate	Run2	generate/STIM_024.jpg
1493.311	0.886	1	repeat	Run2	repeat/STIM_000.jpg
1497.27	0.543	1	repeat	Run2	repeat/STIM_000.jpg
1500.939	0.564	1	repeat	Run2	repeat/STIM_000.jpg
1505.448	0.706	1	repeat	Run2	repeat/STIM_000.jpg
1508.606	0.824	1	repeat	Run2	repeat/STIM_000.jpg
1513.406	0.632	1	repeat	Run2	repeat/STIM_001.jpg
1516.236	0.607	1	repeat	Run2	repeat/STIM_001.jpg
1520.268	1.046	0	repeat	Run2	repeat/STIM_001.jpg
1524.15	0.984	1	repeat	Run2	repeat/STIM_001.jpg
1529.042	0.975	1	repeat	Run2	repeat/STIM_001.jpg
1532.517	0.906	1	repeat	Run2	repeat/STIM_002.jpg
1535.723	0.781	1	repeat	Run2	repeat/STIM_002.jpg
1540.418	0.649	1	repeat	Run2	repeat/STIM_002.jpg
1543.7	0.96	1	repeat	Run2	repeat/STIM_002.jpg
1547.399	1.029	1	repeat	Run2	repeat/STIM_002.jpg
1550.739	0.572	1	repeat	Run2	repeat/STIM_003.jpg
1553.363	0.768	1	repeat	Run2	repeat/STIM_003.jpg
1556.412	0.629	1	repeat	Run2	repeat/STIM_003.jpg
1559.371	0.819	0	repeat	Run2	repeat/STIM_003.jpg
1563.852	0.534	1	repeat	Run2	repeat/STIM_003.jpg
1567.919	0.675	1	repeat	Run2	repeat/STIM_004.jpg
1571.001	0.612	1	repeat	Run2	repeat/STIM_004.jpg
1574.538	0.675	1	repeat	Run2	repeat/STIM_004.jpg
1577.966	0.559	1	repeat	Run2	repeat/STIM_004.jpg
1582.385	0.816	0	repeat	Run2	repeat/STIM_004.jpg
1587.105	0.87	1	repeat	Run2	repeat/STIM_005.jpg
1590.502	1.035	0	repeat	Run2	repeat/STIM_005.jpg
1594.528	0.946	1	repeat	Run2	repeat/STIM_005.jpg
1598.1	0.82	1	repeat	Run2	repeat/STIM_005.jpg
1602.535	0.867	1	repeat	Run2	repeat/STIM_005.jpg
1606.667	0.967	1	repeat	Run2	repeat/STIM_006.jpg
1609.973	0.89	1	repeat	Run2	repeat/STIM_006.jpg
1614.778	1.009	1	repeat	Run2	repeat/STIM_006.jpg
1619.539	0.703	1	repeat	Run2	repeat/STIM_006.jpg
1623.328	0.884	1	repeat	Run2	repeat/STIM_006.jpg
1627.365	1.049	1	repeat	Run2	repeat/STIM_007.jpg
1631.411	0.635	1	repeat	Run2	repeat/STIM_007.jpg
1634.204	0.833	1	repeat	Run2	repeat/STIM_007.jpg
1637.325	0.589	1	repeat	Run2	repeat/STIM_007.jpg
1640.38	0.915	1	repeat	Run2	repeat/STIM_007.jpg
1643.688	0.932	1	repeat	Run2	repeat/STIM_008.jpg
1648.417	0.656	0	repeat	Run2	repeat/STIM_008.jpg
1652.045	0.829	1	repeat	Run2	repeat/STIM_008.jpg
1655.653	0.574	1	repeat	Run2	repeat/STIM_008.jpg
1658.457	0.759	0	repeat	Run2	repeat/STIM_008.jpg
1662.319	0.594	1	repeat	Run2	repeat/STIM_009.jpg
1666.855	0.781	1	repeat	Run2	repeat/STIM_009.jpg
1670.975	0.721	1	repeat	Run2	repeat/STIM_009.jpg
1675.27	0.654	1	repeat	Run2	repeat/STIM_009.jpg
1679.78	0.983	1	repeat	Run2	repeat/STIM_009.jpg
1683.863	0.794	1	repeat	Run2	repeat/STIM_010.jpg
1687.361	0.713	1	repeat	Run2	repeat/STIM_010.jpg
1691.519	0.842	1	repeat	Run2	repeat/STIM_010.jpg
1695.38	0.664	1	repeat	Run2	repeat/STIM_010.jpg
1699.519	0.958	1	repeat	Run2	repeat/STIM_010.jpg
1704.03	0.837	1	repeat	Run2	repeat/STIM_011.jpg
1707.54	0.675	1	repeat	Run2	repeat/STIM_011.jpg
1711.796	0.923	1	repeat	Run2	repeat/STIM_011.jpg
1715.941	0.542	1	repeat	Run2	repeat/STIM_011.jpg
1718.72	0.846	1	repeat	Run2	repeat/STIM_011.jpg
1723.159	0.56	1	repeat	Run2	repeat/STIM_012.jpg
1726.258	1.055	0	repeat	Run2	repeat/STIM_012.jpg
1730.199	0.632	1	repeat	Run2	repeat/STIM_012.jpg
1734.728	0.861	1	repeat	Run2	repeat/STIM_012.jpg
1738.319	0.595	1	repeat	Run2	repeat/STIM_012.jpg
1741.031	0.763	1	repeat	Run2	repeat/STIM_013.jpg
1745.437	0.585	1	repeat	Run2	repeat/STIM_013.jpg
1749.015	0.954	1	repeat	Run2	repeat/STIM_013.jpg
1751.973	0.725	1	repeat	Run2	repeat/STIM_013.jpg
1756.606	0.612	1	repeat	Run2	repeat/STIM_013.jpg
1760.749	0.608	0	repeat	Run2	repeat/STIM_014.jpg
1764.71	0.644	1	repeat	Run2	repeat/STIM_014.jpg
1768.284	0.822	1	repeat	Run2	repeat/STIM_014.jpg
1771.902	0.922	1	repeat	Run2	repeat/STIM_014.jpg
1775.252	0.677	1	repeat	Run2	repeat/STIM_014.jpg
1778.228	1.968	1	generate	Run3	generate/STIM_000.jpg
1782.876	1.623	1	generate	Run3	generate/STIM_000.jpg
1787.774	1.013	1	generate	Run3	generate/STIM_000.jpg
1790.948	1.574	1	generate	Run3	generate/STIM_000.jpg
1795.464	1.074	1	generate	Run3	generate/STIM_000.jpg
1799.737	1.756	1	generate	Run3	generate/STIM_001.jpg
1804.227	2.131	1	generate	Run3	generate/STIM_001.jpg
1810.263	1.484	1	generate	Run3	generate/STIM_001.jpg
1815.699	0.972	1	generate	Run3	generate/STIM_001.jpg
1820.188	0.995	1	generate	Run3	generate/STIM_001.jpg
1825.116	2.14	1	generate	Run3	generate/STIM_002.jpg
1831.109	1.154	1	generate	Run3	generate/STIM_002.jpg
1834.67	2.224	1	generate	Run3	generate/STIM_002.jpg
1840.131	1.133	1	generate	Run3	generate/STIM_002.jpg
1843.486	2.102	1	generate	Run3	generate/STIM_002.jpg
1849.267	1.022	1	generate	Run3	generate/STIM_003.jpg
1852.973	1.777	0	generate	Run3	generate/STIM_003.jpg
1857.86	0.939	1	generate	Run3	generate/STIM_003.jpg
1862.648	1.129	1	generate	Run3	generate/STIM_003.jpg
1867.34	1.088	1	generate	Run3	generate/STIM_003.jpg
1871.426	0.983	1	generate	Run3	generate/STIM_004.jpg
1875.969	2.163	1	generate	Run3	generate/STIM_004.jpg
1880.965	1.99	1	generate	Run3	generate/STIM_004.jpg
1885.133	1.804	1	generate	Run3	generate/STIM_004.jpg
1889.47	1.952	1	generate	Run3	generate/STIM_004.jpg
1894.277	1.599	1	generate	Run3	generate/STIM_005.jpg
1898.158	1.795	1	generate	Run3	generate/STIM_005.jpg
1902.36	1.704	0	generate	Run3	generate/STIM_005.jpg
1907.967	0.994	1	generate	Run3	generate/STIM_005.jpg
1912.378	1.193	1	generate	Run3	generate/STIM_005.jpg
1916.634	1.877	1	generate	Run3	generate/STIM_006.jpg
1921.12	1.08	1	generate	Run3	generate/STIM_006.jpg
1925.531	1.034	0	generate	Run3	generate/STIM_006.jpg
1929.356	1.162	1	generate	Run3	generate/STIM_006.jpg
1933.454	1.13	1	generate	Run3	generate/STIM_006.jpg
1938.087	2.102	0	generate	Run3	generate/STIM_007.jpg
1943.649	1.41	1	generate	Run3	generate/STIM_007.jpg
1948.582	1.929	1	generate	Run3	generate/STIM_007.jpg
1953.716	1.278	1	generate	Run3	generate/STIM_007.jpg
1957.387	1.599	1	generate	Run3	generate/STIM_007.jpg
1961.584	1.822	1	generate	Run3	generate/STIM_008.jpg
1965.518	2.198	1	generate	Run3	generate/STIM_008.jpg
1970.137	1.068	1	generate	Run3	generate/STIM_008.jpg
1974.212	2.205	1	generate	Run3	generate/STIM_008.jpg
1979.333	1.861	1	generate	Run3	generate/STIM_008.jpg
1983.567	1.797	0	generate	Run3	generate/STIM_009.jpg
1988.229	0.909	0	generate	Run3	generate/STIM_009.jpg
1993.01	0.998	0	generate	Run3	generate/STIM_009.jpg
1997.238	1.924	1	generate	Run3	generate/STIM_009.jpg
2001.199	2.187	1	generate	Run3	generate/STIM_009.jpg
2006.972	1.074	0	generate	Run3	generate/STIM_010.jpg
2010.847	2.119	1	generate	Run3	generate/STIM_010.jpg
2016.871	1.957	1	generate	Run3	generate/STIM_010.jpg
2021.45	1.331	1	generate	Run3	generate/STIM_010.jpg
2026.451	1.301	1	generate	Run3	generate/STIM_010.jpg
2030.488	1.292	0	generate	Run3	generate/STIM_011.jpg
2035.567	1.253	1	generate	Run3	generate/STIM_011.jpg
2039.465	1.919	1	generate	Run3	generate/STIM_011.jpg
2044.108	1.73	1	generate	Run3	generate/STIM_011.jpg
2048.161	1.489	1	generate	Run3	generate/STIM_011.jpg
2053.56	1.651	1	generate	Run3	generate/STIM_012.jpg
2057.608	2.142	1	generate	Run3	generate/STIM_012.jpg
2062.594	1.383	1	generate	Run3	generate/STIM_012.jpg
2067.265	2.214	1	generate	Run3	generate/STIM_012.jpg
2073.278	1.859	1	generate	Run3	generate/STIM_012.jpg
2078.385	1.532	1	generate	Run3	generate/STIM_013.jpg
2082.034	1.17	1	generate	Run3	generate/STIM_013.jpg
2086.09	2.227	1	generate	Run3	generate/STIM_013.jpg
2091.359	1.393	1	generate	Run3	generate/STIM_013.jpg
2095.87	0.899	1	generate	Run3	generate/STIM_013.jpg
2098.813	1.592	1	generate	Run3	generate/STIM_014.jpg
2102.839	2.131	1	generate	Run3	generate/STIM_014.jpg
2108.5	1.13	1	generate	Run3	generate/STIM_014.jpg
2111.968	1.99	1	generate	Run3	generate/STIM_014.jpg
2116.211	0.984	1	generate	Run3	generate/STIM_014.jpg
2120.308	2.112	1	generate	Run3	generate/STIM_015.jpg
2125.43	1.611	1	generate	Run3	generate/STIM_015.jpg
2130.225	1.816	0	generate	Run3	generate/STIM_015.jpg
2134.868	1.909	0	generate	Run3	generate/STIM_015.jpg
2139.459	2.012	1	generate	Run3	generate/STIM_015.jpg
2143.882	1.969	1	generate	Run3	generate/STIM_016.jpg
2148.589	1.506	1	generate	Run3	generate/STIM_016.jpg
2153.884	1.304	1	generate	Run3	generate/STIM_016.jpg
2157.689	1.315	1	generate	Run3	generate/STIM_016.jpg
2161.729	1.591	0	generate	Run3	generate/STIM_016.jpg
2165.546	1.0	1	generate	Run3	generate/STIM_017.jpg
2168.603	2.226	1	generate	Run3	generate/STIM_017.jpg
2174.674	1.746	1	generate	Run3	generate/STIM_017.jpg
2178.701	1.439	1	generate	Run3	generate/STIM_017.jpg
2182.737	2.121	1	generate	Run3	generate/STIM_017.jpg
2187.567	1.883	1	generate	Run3	generate/STIM_018.jpg
2192.206	1.76	1	generate	Run3	generate/STIM_018.jpg
2197.437	1.467	0	generate	Run3	generate/STIM_018.jpg
2200.977	0.994	1	generate	Run3	generate/STIM_018.jpg
2204.215	1.539	1	generate	Run3	generate/STIM_018.jpg
2208.967	1.54	1	generate	Run3	generate/STIM_019.jpg
2212.53	2.08	1	generate	Run3	generate/STIM_019.jpg
2217.48	1.609	1	generate	Run3	generate/STIM_019.jpg
2221.559	1.413	1	generate	Run3	generate/STIM_019.jpg
2225.315	2.122	1	generate	Run3	generate/STIM_019.jpg
2231.414	1.555	1	generate	Run3	generate/STIM_020.jpg
2235.714	1.45	1	generate	Run3	generate/STIM_020.jpg
2239.994	1.88	1	generate	Run3	generate/STIM_020.jpg
2243.936	1.02	1	generate	Run3	generate/STIM_020.jpg
2247.858	2.077	1	generate	Run3	generate/STIM_020.jpg
2253.624	2.053	0	generate	Run3	generate/STIM_021.jpg
2259.038	1.55	1	generate	Run3	generate/STIM_021.jpg
2263.376	1.452	1	generate	Run3	generate/STIM_021.jpg
2268.387	1.947	1	generate	Run3	generate/STIM_021.jpg
2272.659	1.77	1	generate	Run3	generate/STIM_021.jpg
2278.417	1.707	1	generate	Run3	generate/STIM_022.jpg
2282.155	2.177	1	generate	Run3	generate/STIM_022.jpg
2287.354	0.904	1	generate	Run3	generate/STIM_022.jpg
2292.04	1.118	1	generate	Run3	generate/STIM_022.jpg
2296.194	1.719	1	generate	Run3	generate/STIM_022.jpg
2300.941	0.95	1	generate	Run3	generate/STIM_023.jpg
2304.418	1.194	1	generate	Run3	generate/STIM_023.jpg
2308.324	1.934	1	generate	Run3	generate/STIM_023.jpg
2312.578	1.049	1	generate	Run3	generate/STIM_023.jpg
2316.77	1.604	1	generate	Run3	generate/STIM_023.jpg
2320.412	1.973	0	generate	Run3	generate/STIM_024.jpg
2324.87	1.135	1	generate	Run3	generate/STIM_024.jpg
2328.928	0.993	0	generate	Run3	generate/STIM_024.jpg
2332.125	2.005	1	generate	Run3	generate/STIM_024.jpg
2337.855	0.963	1	generate	Run3	generate/STIM_024.jpg
2342.221	0.76	1	repeat	Run3	repeat/STIM_000.jpg
2345.578	0.816	1	repeat	Run3	repeat/STIM_000.jpg
2349.665	1.046	0	repeat	Run3	repeat/STIM_000.jpg
2353.809	1.042	1	repeat	Run3	repeat/STIM_000.jpg
2357.625	0.606	1	repeat	Run3	repeat/STIM_000.jpg
2361.079	0.915	1	repeat	Run3	repeat/STIM_001.jpg
2365.529	0.727	1	repeat	Run3	repeat/STIM_001.jpg
2370.114	0.797	1	repeat	Run3	repeat/STIM_001.jpg
2373.068	0.99	0	repeat	Run3	repeat/STIM_001.jpg
2376.435	1.012	1	repeat	Run3	repeat/STIM_001.jpg
2379.596	0.77	1	repeat	Run3	repeat/STIM_002.jpg
2383.043	0.795	1	repeat	Run3	repeat/STIM_002.jpg
2386.412	0.549	1	repeat	Run3	repeat/STIM_002.jpg
2389.115	0.645	1	repeat	Run3	repeat/STIM_002.jpg
2393.481	1.01	1	repeat	Run3	repeat/STIM_002.jpg
2396.538	0.62	1	repeat	Run3	repeat/STIM_003.jpg
2399.512	0.624	1	repeat	Run3	repeat/STIM_003.jpg
2403.079	1.06	1	repeat	Run3	repeat/STIM_003.jpg
2408.1	0.646	1	repeat	Run3	repeat/STIM_003.jpg
2412.254	1.038	1	repeat	Run3	repeat/STIM_003.jpg
2416.439	1.044	1	repeat	Run3	repeat/STIM_004.jpg
2419.695	0.888	1	repeat	Run3	repeat/STIM_004.jpg
2423.505	0.783	1	repeat	Run3	repeat/STIM_004.jpg
2426.472	0.926	1	repeat	Run3	repeat/STIM_004.jpg
2430.813	0.541	1	repeat	Run3	repeat/STIM_004.jpg
2433.414	0.922	1	repeat	Run3	repeat/STIM_005.jpg
2437.977	1.024	1	repeat	Run3	repeat/STIM_005.jpg
2441.226	0.538	1	repeat	Run3	repeat/STIM_005.jpg
2445.079	1.049	1	repeat	Run3	repeat/STIM_005.jpg
2448.232	0.597	1	repeat	Run3	repeat/STIM_005.jpg
2452.43	0.799	0	repeat	Run3	repeat/STIM_006.jpg
2455.736	1.052	1	repeat	Run3	repeat/STIM_006.jpg
2458.911	0.83	1	repeat	Run3	repeat/STIM_006.jpg
2462.452	0.779	1	repeat	Run3	repeat/STIM_006.jpg
2465.69	0.864	1	repeat	Run3	repeat/STIM_006.jpg
2469.358	0.543	0	repeat	Run3	repeat/STIM_007.jpg
2473.812	0.984	0	repeat	Run3	repeat/STIM_007.jpg
2478.753	0.774	1	repeat	Run3	repeat/STIM_007.jpg
2482.082	0.827	1	repeat	Run3	repeat/STIM_007.jpg
2486.271	0.622	1	repeat	Run3	repeat/STIM_007.jpg
2490.199	0.776	1	repeat	Run3	repeat/STIM_008.jpg
2493.985	0.572	1	repeat	Run3	repeat/STIM_008.jpg
2496.781	0.537	1	repeat	Run3	repeat/STIM_008.jpg
2500.284	0.643	1	repeat	Run3	repeat/STIM_008.jpg
2503.043	0.58	1	repeat	Run3	repeat/STIM_008.jpg
2506.107	0.72	1	repeat	Run3	repeat/STIM_009.jpg
2509.661	0.79	1	repeat	Run3	repeat/STIM_009.jpg
2512.487	0.675	0	repeat	Run3	repeat/STIM_009.jpg
2515.415	0.547	1	repeat	Run3	repeat/STIM_009.jpg
2518.705	0.972	1	repeat	Run3	repeat/STIM_009.jpg
2522.953	1.034	0	repeat	Run3	repeat/STIM_010.jpg
2526.531	0.875	1	repeat	Run3	repeat/STIM_010.jpg
2531.156	0.91	0	repeat	Run3	repeat/STIM_010.jpg
2535.727	1.055	1	repeat	Run3	repeat/STIM_010.jpg
2539.989	0.982	1	repeat	Run3	repeat/STIM_010.jpg
2544.252	0.686	1	repeat	Run3	repeat/STIM_011.jpg
2548.421	0.663	1	repeat	Run3	repeat/STIM_011.jpg
2553.008	0.909	1	repeat	Run3	repeat/STIM_011.jpg
2557.035	0.603	1	repeat	Run3	repeat/STIM_011.jpg
2560.204	0.915	1	repeat	Run3	repeat/STIM_011.jpg
2563.497	0.689	0	repeat	Run3	repeat/STIM_012.jpg
2566.665	0.55	0	repeat	Run3	repeat/STIM_012.jpg
2570.874	0.935	1	repeat	Run3	repeat/STIM_012.jpg
2574.452	1.023	1	repeat	Run3	repeat/STIM_012.jpg
2579.052	0.639	1	repeat	Run3	repeat/STIM_012.jpg
2581.89	1.007	1	repeat	Run3	repeat/STIM_013.jpg
2585.682	0.749	1	repeat	Run3	repeat/STIM_013.jpg
2589.54	0.758	1	repeat	Run3	repeat/STIM_013.jpg
2594.202	0.772	1	repeat	Run3	repeat/STIM_013.jpg
2598.222	0.947	1	repeat	Run3	repeat/STIM_013.jpg
2602.813	0.537	1	repeat	Run3	repeat/STIM_014.jpg
2606.445	0.65	1	repeat	Run3	repeat/STIM_014.jpg
2610.059	0.673	1	repeat	Run3	repeat/STIM_014.jpg
2613.958	0.924	1	repeat	Run3	repeat/STIM_014.jpg
2618.506	0.798	1	repeat	Run3	repeat/STIM_014.jpg
2621.556	1.38	1	generate	Run4	generate/STIM_000.jpg
2625.009	1.736	1	generate	Run4	generate/STIM_000.jpg
2629.697	1.745	1	generate	Run4	generate/STIM_000.jpg
2633.648	1.144	1	generate	Run4	generate/STIM_000.jpg
2637.06	1.369	1	generate	Run4	generate/STIM_000.jpg
2642.141	1.514	1	generate	Run4	generate/STIM_001.jpg
2647.506	1.465	1	generate	Run4	generate/STIM_001.jpg
2651.362	1.814	1	generate	Run4	generate/STIM_001.jpg
2656.153	1.307	1	generate	Run4	generate/STIM_001.jpg
2660.427	1.169	1	generate	Run4	generate/STIM_001.jpg
2665.226	2.169	1	generate	Run4	generate/STIM_002.jpg
2670.983	1.653	1	generate	Run4	generate/STIM_002.jpg
2675.614	2.026	1	generate	Run4	generate/STIM_002.jpg
2680.577	1.021	1	generate	Run4	generate/STIM_002.jpg
2684.161	2.021	1	generate	Run4	generate/STIM_002.jpg
2688.859	1.447	1	generate	Run4	generate/STIM_003.jpg
2693.268	1.421	0	generate	Run4	generate/STIM_003.jpg
2697.604	2.05	1	generate	Run4	generate/STIM_003.jpg
2703.36	0.916	1	generate	Run4	generate/STIM_003.jpg
2707.401	1.063	1	generate	Run4	generate/STIM_003.jpg
2712.063	1.019	1	generate	Run4	generate/STIM_004.jpg
2715.664	1.483	1	generate	Run4	generate/STIM_004.jpg
2720.933	0.963	1	generate	Run4	generate/STIM_004.jpg
2724.594	1.714	1	generate	Run4	generate/STIM_004.jpg
2728.642	1.993	1	generate	Run4	generate/STIM_004.jpg
2734.456	2.186	1	generate	Run4	generate/STIM_005.jpg
2740.375	1.787	0	generate	Run4	generate/STIM_005.jpg
2744.737	2.178	1	generate	Run4	generate/STIM_005.jpg
2749.628	1.344	1	generate	Run4	generate/STIM_005.jpg
2754.484	0.901	1	generate	Run4	generate/STIM_005.jpg
2759.208	1.312	1	generate	Run4	generate/STIM_006.jpg
2763.636	1.811	1	generate	Run4	generate/STIM_006.jpg
2768.067	1.621	1	generate	Run4	generate/STIM_006.jpg
2771.895	1.229	1	generate	Run4	generate/STIM_006.jpg
2775.184	1.532	1	generate	Run4	generate/STIM_006.jpg
2778.852	1.244	1	generate	Run4	generate/STIM_007.jpg
2782.396	1.425	1	generate	Run4	generate/STIM_007.jpg
2787.499	2.126	1	generate	Run4	generate/STIM_007.jpg
2793.019	2.084	1	generate	Run4	generate/STIM_007.jpg
2797.451	1.74	1	generate	Run4	generate/STIM_007.jpg
2801.424	1.591	1	generate	Run4	generate/STIM_008.jpg
2806.232	1.225	1	generate	Run4	generate/STIM_008.jpg
2810.145	1.606	1	generate	Run4	generate/STIM_008.jpg
2813.983	1.391	1	generate	Run4	generate/STIM_008.jpg
2817.805	0.918	1	generate	Run4	generate/STIM_008.jpg
2821.861	1.675	1	generate	Run4	generate/STIM_009.jpg
2826.228	1.472	1	generate	Run4	generate/STIM_009.jpg
2830.255	1.337	1	generate	Run4	generate/STIM_009.jpg
2833.847	2.196	1	generate	Run4	generate/STIM_009.jpg
2838.961	1.254	1	generate	Run4	generate/STIM_009.jpg
2843.396	1.55	1	generate	Run4	generate/STIM_010.jpg
2847.655	1.959	1	generate	Run4	generate/STIM_010.jpg
2853.109	1.456	1	generate	Run4	generate/STIM_010.jpg
2858.155	1.203	1	generate	Run4	generate/STIM_010.jpg
2863.129	2.118	1	generate	Run4	generate/STIM_010.jpg
2868.705	1.066	1	generate	Run4	generate/STIM_011.jpg
2872.145	1.249	1	generate	Run4	generate/STIM_011.jpg
2875.472	1.887	1	generate	Run4	generate/STIM_011.jpg
2881.043	1.847	1	generate	Run4	generate/STIM_011.jpg
2886.152	1.234	1	generate	Run4	generate/STIM_011.jpg
2889.639	2.118	1	generate	Run4	generate/STIM_012.jpg
2894.356	1.109	1	generate	Run4	generate/STIM_012.jpg
2898.87	1.722	1	generate	Run4	generate/STIM_012.jpg
2903.065	1.339	1	generate	Run4	generate/STIM_012.jpg
2906.86	1.07	1	generate	Run4	generate/STIM_012.jpg
2911.576	2.057	1	generate	Run4	generate/STIM_013.jpg
2917.526	1.212	1	generate	Run4	generate/STIM_013.jpg
2920.987	2.047	1	generate	Run4	generate/STIM_013.jpg
2927.0	1.178	0	generate	Run4	generate/STIM_013.jpg
2931.219	1.009	1	generate	Run4	generate/STIM_013.jpg
2934.887	1.721	1	generate	Run4	generate/STIM_014.jpg
2939.959	1.764	1	generate	Run4	generate/STIM_014.jpg
2945.57	1.656	1	generate	Run4	generate/STIM_014.jpg
2949.496	1.593	1	generate	Run4	generate/STIM_014.jpg
2954.231	0.982	1	generate	Run4	generate/STIM_014.jpg
2957.729	1.284	1	generate	Run4	generate/STIM_015.jpg
2962.283	1.37	1	generate	Run4	generate/STIM_015.jpg
2966.948	2.023	1	generate	Run4	generate/STIM_015.jpg
2972.853	1.211	1	generate	Run4	generate/STIM_015.jpg
2976.832	1.038	1	generate	Run4	generate/STIM_015.jpg
2980.232	2.192	1	generate	Run4	generate/STIM_016.jpg
2986.342	1.992	0	generate	Run4	generate/STIM_016.jpg
2990.656	0.956	1	generate	Run4	generate/STIM_016.jpg
2995.067	1.42	1	generate	Run4	generate/STIM_016.jpg
3000.454	1.346	1	generate	Run4	generate/STIM_016.jpg
3004.205	1.17	1	generate	Run4	generate/STIM_017.jpg
3009.07	1.169	1	generate	Run4	generate/STIM_017.jpg
3013.092	2.221	1	generate	Run4	generate/STIM_017.jpg
3018.944	1.829	1	generate	Run4	generate/STIM_017.jpg
3022.784	1.05	1	generate	Run4	generate/STIM_017.jpg
3026.371	1.372	1	generate	Run4	generate/STIM_018.jpg
3031.111	2.134	1	generate	Run4	generate/STIM_018.jpg
3035.783	1.486	1	generate	Run4	generate/STIM_018.jpg
3039.598	1.791	1	generate	Run4	generate/STIM_018.jpg
3043.687	1.163	1	generate	Run4	generate/STIM_018.jpg
3047.49	2.129	1	generate	Run4	generate/STIM_019.jpg
3052.581	2.084	1	generate	Run4	generate/STIM_019.jpg
3057.019	1.604	1	generate	Run4	generate/STIM_019.jpg
3061.124	1.416	1	generate	Run4	generate/STIM_019.jpg
3065.882	1.682	1	generate	Run4	generate/STIM_019.jpg
3071.254	1.503	1	generate	Run4	generate/STIM_020.jpg
3075.375	1.691	1	generate	Run4	generate/STIM_020.jpg
3080.68	1.754	0	generate	Run4	generate/STIM_020.jpg
3086.213	0.989	1	generate	Run4	generate/STIM_020.jpg
3089.799	1.355	1	generate	Run4	generate/STIM_020.jpg
3093.6	1.468	1	generate	Run4	generate/STIM_021.jpg
3098.547	1.19	1	generate	Run4	generate/STIM_021.jpg
3102.443	1.134	1	generate	Run4	generate/STIM_021.jpg
3106.425	1.126	1	generate	Run4	generate/STIM_021.jpg
3111.508	1.985	1	generate	Run4	generate/STIM_021.jpg
3117.164	1.421	1	generate	Run4	generate/STIM_022.jpg
3121.733	1.48	1	generate	Run4	generate/STIM_022.jpg
3125.981	1.5	1	generate	Run4	generate/STIM_022.jpg
3130.133	1.006	1	generate	Run4	generate/STIM_022.jpg
3133.323	1.522	1	generate	Run4	generate/STIM_022.jpg
3138.59	1.066	1	generate	Run4	generate/STIM_023.jpg
3141.914	2.129	1	generate	Run4	generate/STIM_023.jpg
3146.353	1.514	0	generate	Run4	generate/STIM_023.jpg
3150.733	1.73	1	generate	Run4	generate/STIM_023.jpg
3155.183	0.95	1	generate	Run4	generate/STIM_023.jpg
3158.279	1.099	1	generate	Run4	generate/STIM_024.jpg
3162.963	1.145	1	generate	Run4	generate/STIM_024.jpg
3167.748	1.547	1	generate	Run4	generate/STIM_024.jpg
3173.129	1.685	1	generate	Run4	generate/STIM_024.jpg
3177.579	2.114	1	generate	Run4	generate/STIM_024.jpg
3183.433	0.977	1	repeat	Run4	repeat/STIM_000.jpg
3187.232	0.936	0	repeat	Run4	repeat/STIM_000.jpg
3191.217	0.727	0	repeat	Run4	repeat/STIM_000.jpg
3195.165	0.691	0	repeat	Run4	repeat/STIM_000.jpg
3197.944	0.789	1	repeat	Run4	repeat/STIM_000.jpg
3201.411	1.039	1	repeat	Run4	repeat/STIM_001.jpg
3205.431	0.742	1	repeat	Run4	repeat/STIM_001.jpg
3209.927	0.592	1	repeat	Run4	repeat/STIM_001.jpg
3214.212	0.982	1	repeat	Run4	repeat/STIM_001.jpg
3218.3	0.944	1	repeat	Run4	repeat/STIM_001.jpg
3222.278	0.662	1	repeat	Run4	repeat/STIM_002.jpg
3226.76	0.653	1	repeat	Run4	repeat/STIM_002.jpg
3230.005	0.976	1	repeat	Run4	repeat/STIM_002.jpg
3233.352	0.772	1	repeat	Run4	repeat/STIM_002.jpg
3237.024	0.54	0	repeat	Run4	repeat/STIM_002.jpg
3240.236	0.934	0	repeat	Run4	repeat/STIM_003.jpg
3244.133	0.605	1	repeat	Run4	repeat/STIM_003.jpg
3248.627	0.848	1	repeat	Run4	repeat/STIM_003.jpg
3252.076	0.898	1	repeat	Run4	repeat/STIM_003.jpg
3256.803	0.914	1	repeat	Run4	repeat/STIM_003.jpg
3260.064	1.004	1	repeat	Run4	repeat/STIM_004.jpg
3264.925	0.599	1	repeat	Run4	repeat/STIM_004.jpg
3268.854	0.713	1	repeat	Run4	repeat/STIM_004.jpg
3273.302	0.768	1	repeat	Run4	repeat/STIM_004.jpg
3278.016	1.001	1	repeat	Run4	repeat/STIM_004.jpg
3281.198	0.722	1	repeat	Run4	repeat/STIM_005.jpg
3284.697	0.751	1	repeat	Run4	repeat/STIM_005.jpg
3288.101	0.678	1	repeat	Run4	repeat/STIM_005.jpg
3292.529	0.939	1	repeat	Run4	repeat/STIM_005.jpg
3296.65	0.834	1	repeat	Run4	repeat/STIM_005.jpg
3300.612	0.865	1	repeat	Run4	repeat/STIM_006.jpg
3305.377	0.912	1	repeat	Run4	repeat/STIM_006.jpg
3308.977	0.667	1	repeat	Run4	repeat/STIM_006.jpg
3313.552	0.916	1	repeat	Run4	repeat/STIM_006.jpg
3317.599	0.596	1	repeat	Run4	repeat/STIM_006.jpg
3321.145	0.97	1	repeat	Run4	repeat/STIM_007.jpg
3326.059	0.734	1	repeat	Run4	repeat/STIM_007.jpg
3329.818	0.776	1	repeat	Run4	repeat/STIM_007.jpg
3333.109	0.902	1	repeat	Run4	repeat/STIM_007.jpg
3336.29	0.798	1	repeat	Run4	repeat/STIM_007.jpg
3340.455	0.816	1	repeat	Run4	repeat/STIM_008.jpg
3344.101	0.703	1	repeat	Run4	repeat/STIM_008.jpg
3347.036	0.677	1	repeat	Run4	repeat/STIM_008.jpg
3351.534	0.768	1	repeat	Run4	repeat/STIM_008.jpg
3354.425	0.993	1	repeat	Run4	repeat/STIM_008.jpg
3357.518	1.033	1	repeat	Run4	repeat/STIM_009.jpg
3362.094	1.029	0	repeat	Run4	repeat/STIM_009.jpg
3366.953	0.776	1	repeat	Run4	repeat/STIM_009.jpg
3371.466	0.74	0	repeat	Run4	repeat/STIM_009.jpg
3375.431	0.869	1	repeat	Run4	repeat/STIM_009.jpg
3379.411	0.616	1	repeat	Run4	repeat/STIM_010.jpg
3383.152	0.606	1	repeat	Run4	repeat/STIM_010.jpg
3387.052	0.896	0	repeat	Run4	repeat/STIM_010.jpg
3391.546	0.929	0	repeat	Run4	repeat/STIM_010.jpg
3395.149	0.776	1	repeat	Run4	repeat/STIM_010.jpg
3399.386	0.616	1	repeat	Run4	repeat/STIM_011.jpg
3403.501	1.016	0	repeat	Run4	repeat/STIM_011.jpg
3407.04	0.584	1	repeat	Run4	repeat/STIM_011.jpg
3410.658	0.918	1	repeat	Run4	repeat/STIM_011.jpg
3414.2	0.71	1	repeat	Run4	repeat/STIM_011.jpg
3416.947	0.66	1	repeat	Run4	repeat/STIM_012.jpg
3421.161	0.886	1	repeat	Run4	repeat/STIM_012.jpg
3424.977	0.706	1	repeat	Run4	repeat/STIM_012.jpg
3428.044	0.762	0	repeat	Run4	repeat/STIM_012.jpg
3431.369	0.689	1	repeat	Run4	repeat/STIM_012.jpg
3435.306	0.94	1	repeat	Run4	repeat/STIM_013.jpg
3438.454	0.859	1	repeat	Run4	repeat/STIM_013.jpg
3441.729	0.563	1	repeat	Run4	repeat/STIM_013.jpg
3445.514	0.749	1	repeat	Run4	repeat/STIM_013.jpg
3449.769	0.634	1	repeat	Run4	repeat/STIM_013.jpg
3453.424	0.578	1	repeat	Run4	repeat/STIM_014.jpg
3456.318	0.621	1	repeat	Run4	repeat/STIM_014.jpg
3459.804	0.918	1	repeat	Run4	repeat/STIM_014.jpg
3463.129	0.956	1	repeat	Run4	repeat/STIM_014.jpg
3466.097	0.871	0	repeat	Run4	repeat/STIM_014.jpg
