onset	duration	accuracy	trial_type	learning_stage	stimulus
0.0	2.177	correct	generate	Run1	generate/STIM_000.jpg
5.879	2.213	incorrect	generate	Run1	generate/STIM_000.jpg
11.551	2.219	correct	generate	Run1	generate/STIM_000.jpg
17.036	1.988	correct	generate	Run1	generate/STIM_000.jpg
21.544	1.266	correct	generate	Run1	generate/STIM_000.jpg
26.082	1.132	incorrect	generate	Run1	generate/STIM_001.jpg
31.042	1.202	correct	generate	Run1	generate/STIM_001.jpg
35.043	2.029	correct	generate	Run1	generate/STIM_001.jpg
40.648	2.018	correct	generate	Run1	generate/STIM_001.jpg
45.335	2.113	correct	generate	Run1	generate/STIM_001.jpg
49.739	1.34	incorrect	generate	Run1	generate/STIM_002.jpg
54.613	1.373	correct	generate	Run1	generate/STIM_002.jpg
59.33	1.995	incorrect	generate	Run1	generate/STIM_002.jpg
64.163	1.245	correct	generate	Run1	generate/STIM_002.jpg
68.517	0.854	correct	generate	Run1	generate/STIM_002.jpg
73.027	2.507	incorrect	generate	Run1	generate/STIM_003.jpg
79.182	1.064	correct	generate	Run1	generate/STIM_003.jpg
82.924	1.201	correct	generate	Run1	generate/STIM_003.jpg
86.356	1.113	correct	generate	Run1	generate/STIM_003.jpg
89.99	1.286	correct	generate	Run1	generate/STIM_003.jpg
95.122	2.508	correct	generate	Run1	generate/STIM_004.jpg
101.819	2.28	incorrect	generate	Run1	generate/STIM_004.jpg
106.645	1.11	correct	generate	Run1	generate/STIM_004.jpg
111.11	1.3	correct	generate	Run1	generate/STIM_004.jpg
114.9	1.747	correct	generate	Run1	generate/STIM_004.jpg
119.142	2.454	correct	generate	Run1	generate/STIM_005.jpg
125.089	1.701	correct	generate	Run1	generate/STIM_005.jpg
129.75	1.038	correct	generate	Run1	generate/STIM_005.jpg
134.445	1.742	correct	generate	Run1	generate/STIM_005.jpg
139.175	1.306	correct	generate	Run1	generate/STIM_005.jpg
143.6	2.103	correct	generate	Run1	generate/STIM_006.jpg
148.765	0.985	incorrect	generate	Run1	generate/STIM_006.jpg
153.198	1.241	correct	generate	Run1	generate/STIM_006.jpg
156.662	2.03	incorrect	generate	Run1	generate/STIM_006.jpg
161.528	1.303	incorrect	generate	Run1	generate/STIM_006.jpg
164.99	2.426	incorrect	generate	Run1	generate/STIM_007.jpg
170.03	1.533	correct	generate	Run1	generate/STIM_007.jpg
175.112	1.177	correct	generate	Run1	generate/STIM_007.jpg
179.314	1.491	correct	generate	Run1	generate/STIM_007.jpg
184.294	1.501	correct	generate	Run1	generate/STIM_007.jpg
188.51	1.195	correct	generate	Run1	generate/STIM_008.jpg
191.924	1.134	incorrect	generate	Run1	generate/STIM_008.jpg
195.654	1.772	incorrect	generate	Run1	generate/STIM_008.jpg
200.868	2.077	correct	generate	Run1	generate/STIM_008.jpg
206.104	1.341	correct	generate	Run1	generate/STIM_008.jpg
210.383	1.841	correct	generate	Run1	generate/STIM_009.jpg
216.067	1.406	correct	generate	Run1	generate/STIM_009.jpg
221.162	1.54	correct	generate	Run1	generate/STIM_009.jpg
226.101	1.736	correct	generate	Run1	generate/STIM_009.jpg
230.655	0.901	correct	generate	Run1	generate/STIM_009.jpg
233.91	2.071	correct	generate	Run1	generate/STIM_010.jpg
238.708	1.851	correct	generate	Run1	generate/STIM_010.jpg
243.04	2.254	incorrect	generate	Run1	generate/STIM_010.jpg
249.122	1.342	correct	generate	Run1	generate/STIM_010.jpg
254.15	1.524	correct	generate	Run1	generate/STIM_010.jpg
258.04	1.756	correct	generate	Run1	generate/STIM_011.jpg
264.017	1.514	correct	generate	Run1	generate/STIM_011.jpg
268.944	0.86	correct	generate	Run1	generate/STIM_011.jpg
273.415	1.147	correct	generate	Run1	generate/STIM_011.jpg
277.425	1.244	correct	generate	Run1	generate/STIM_011.jpg
282.314	2.17	correct	generate	Run1	generate/STIM_012.jpg
287.04	2.571	incorrect	generate	Run1	generate/STIM_012.jpg
293.699	1.326	correct	generate	Run1	generate/STIM_012.jpg
297.554	1.231	correct	generate	Run1	generate/STIM_012.jpg
302.016	1.201	correct	generate	Run1	generate/STIM_012.jpg
306.486	1.234	incorrect	generate	Run1	generate/STIM_013.jpg
310.974	1.688	correct	generate	Run1	generate/STIM_013.jpg
316.078	1.503	correct	generate	Run1	generate/STIM_013.jpg
321.669	1.396	correct	generate	Run1	generate/STIM_013.jpg
326.388	1.17	correct	generate	Run1	generate/STIM_013.jpg
329.852	1.136	incorrect	generate	Run1	generate/STIM_014.jpg
333.39	1.321	incorrect	generate	Run1	generate/STIM_014.jpg
337.165	2.04	correct	generate	Run1	generate/STIM_014.jpg
343.447	1.743	correct	generate	Run1	generate/STIM_014.jpg
349.094	1.541	correct	generate	Run1	generate/STIM_014.jpg
354.877	1.902	correct	generate	Run1	generate/STIM_015.jpg
359.61	1.442	correct	generate	Run1	generate/STIM_015.jpg
363.833	1.821	correct	generate	Run1	generate/STIM_015.jpg
368.166	1.41	incorrect	generate	Run1	generate/STIM_015.jpg
372.554	1.764	correct	generate	Run1	generate/STIM_015.jpg
378.285	1.126	correct	generate	Run1	generate/STIM_016.jpg
382.282	2.234	incorrect	generate	Run1	generate/STIM_016.jpg
388.253	1.27	incorrect	generate	Run1	generate/STIM_016.jpg
391.837	0.919	correct	generate	Run1	generate/STIM_016.jpg
396.836	2.006	incorrect	generate	Run1	generate/STIM_016.jpg
403.12	1.823	incorrect	generate	Run1	generate/STIM_017.jpg
407.409	2.145	correct	generate	Run1	generate/STIM_017.jpg
413.825	1.328	correct	generate	Run1	generate/STIM_017.jpg
417.304	1.278	correct	generate	Run1	generate/STIM_017.jpg
421.502	1.474	correct	generate	Run1	generate/STIM_017.jpg
425.712	1.675	correct	generate	Run1	generate/STIM_018.jpg
430.297	1.065	correct	generate	Run1	generate/STIM_018.jpg
435.178	1.797	incorrect	generate	Run1	generate/STIM_018.jpg
441.108	1.852	correct	generate	Run1	generate/STIM_018.jpg
446.914	1.714	correct	generate	Run1	generate/STIM_018.jpg
451.033	2.156	correct	generate	Run1	generate/STIM_019.jpg
455.692	2.364	correct	generate	Run1	generate/STIM_019.jpg
461.733	1.291	correct	generate	Run1	generate/STIM_019.jpg
467.057	1.112	correct	generate	Run1	generate/STIM_019.jpg
472.319	1.587	correct	generate	Run1	generate/STIM_019.jpg
476.997	1.966	correct	generate	Run1	generate/STIM_020.jpg
481.47	1.836	correct	generate	Run1	generate/STIM_020.jpg
486.327	1.546	correct	generate	Run1	generate/STIM_020.jpg
490.134	1.45	correct	generate	Run1	generate/STIM_020.jpg
494.541	1.935	correct	generate	Run1	generate/STIM_020.jpg
499.117	1.898	incorrect	generate	Run1	generate/STIM_021.jpg
504.235	0.999	correct	generate	Run1	generate/STIM_021.jpg
509.203	2.042	correct	generate	Run1	generate/STIM_021.jpg
514.089	1.834	correct	generate	Run1	generate/STIM_021.jpg
519.442	1.04	incorrect	generate	Run1	generate/STIM_021.jpg
524.32	2.667	correct	generate	Run1	generate/STIM_022.jpg
531.023	1.6	correct	generate	Run1	generate/STIM_022.jpg
535.584	1.668	correct	generate	Run1	generate/STIM_022.jpg
540.284	1.006	correct	generate	Run1	generate/STIM_022.jpg
544.387	1.65	correct	generate	Run1	generate/STIM_022.jpg
548.937	1.171	correct	generate	Run1	generate/STIM_023.jpg
553.95	1.908	incorrect	generate	Run1	generate/STIM_023.jpg
559.956	1.262	incorrect	generate	Run1	generate/STIM_023.jpg
563.328	0.962	correct	generate	Run1	generate/STIM_023.jpg
567.055	1.992	correct	generate	Run1	generate/STIM_023.jpg
572.201	1.312	correct	generate	Run1	generate/STIM_024.jpg
576.674	2.553	correct	generate	Run1	generate/STIM_024.jpg
582.524	1.791	incorrect	generate	Run1	generate/STIM_024.jpg
587.839	1.694	correct	generate	Run1	generate/STIM_024.jpg
593.23	1.954	correct	generate	Run1	generate/STIM_024.jpg
598.287	0.718	correct	repeat	Run1	repeat/STIM_000.jpg
602.076	0.656	correct	repeat	Run1	repeat/STIM_000.jpg
606.551	0.854	correct	repeat	Run1	repeat/STIM_000.jpg
610.633	0.834	correct	repeat	Run1	repeat/STIM_000.jpg
614.442	0.806	correct	repeat	Run1	repeat/STIM_000.jpg
618.097	0.906	correct	repeat	Run1	repeat/STIM_001.jpg
622.196	0.611	correct	repeat	Run1	repeat/STIM_001.jpg
625.909	0.849	correct	repeat	Run1	repeat/STIM_001.jpg
629.16	0.581	correct	repeat	Run1	repeat/STIM_001.jpg
632.471	0.643	correct	repeat	Run1	repeat/STIM_001.jpg
636.643	0.608	correct	repeat	Run1	repeat/STIM_002.jpg
641.044	0.846	correct	repeat	Run1	repeat/STIM_002.jpg
645.501	0.485	correct	repeat	Run1	repeat/STIM_002.jpg
648.41	0.631	correct	repeat	Run1	repeat/STIM_002.jpg
652.583	0.598	correct	repeat	Run1	repeat/STIM_002.jpg
656.623	0.961	correct	repeat	Run1	repeat/STIM_003.jpg
660.121	0.512	correct	repeat	Run1	repeat/STIM_003.jpg
663.382	0.804	correct	repeat	Run1	repeat/STIM_003.jpg
667.351	0.551	correct	repeat	Run1	repeat/STIM_003.jpg
670.455	0.729	correct	repeat	Run1	repeat/STIM_003.jpg
674.663	0.669	correct	repeat	Run1	repeat/STIM_004.jpg
679.153	0.574	correct	repeat	Run1	repeat/STIM_004.jpg
682.228	0.649	correct	repeat	Run1	repeat/STIM_004.jpg
685.253	0.525	correct	repeat	Run1	repeat/STIM_004.jpg
687.917	0.721	correct	repeat	Run1	repeat/STIM_004.jpg
691.706	0.507	correct	repeat	Run1	repeat/STIM_005.jpg
696.263	0.961	correct	repeat	Run1	repeat/STIM_005.jpg
700.378	0.407	correct	repeat	Run1	repeat/STIM_005.jpg
703.072	0.587	correct	repeat	Run1	repeat/STIM_005.jpg
705.752	0.742	correct	repeat	Run1	repeat/STIM_005.jpg
708.695	0.973	correct	repeat	Run1	repeat/STIM_006.jpg
712.768	0.733	correct	repeat	Run1	repeat/STIM_006.jpg
717.464	0.684	correct	repeat	Run1	repeat/STIM_006.jpg
722.025	0.735	correct	repeat	Run1	repeat/STIM_006.jpg
726.678	0.486	correct	repeat	Run1	repeat/STIM_006.jpg
730.065	0.448	correct	repeat	Run1	repeat/STIM_007.jpg
733.942	0.468	correct	repeat	Run1	repeat/STIM_007.jpg
737.71	0.73	correct	repeat	Run1	repeat/STIM_007.jpg
742.11	0.581	correct	repeat	Run1	repeat/STIM_007.jpg
745.383	0.689	correct	repeat	Run1	repeat/STIM_007.jpg
750.12	0.47	correct	repeat	Run1	repeat/STIM_008.jpg
752.906	0.852	correct	repeat	Run1	repeat/STIM_008.jpg
757.351	0.744	correct	repeat	Run1	repeat/STIM_008.jpg
760.726	0.556	correct	repeat	Run1	repeat/STIM_008.jpg
763.733	0.548	correct	repeat	Run1	repeat/STIM_008.jpg
767.795	0.975	correct	repeat	Run1	repeat/STIM_009.jpg
772.082	0.46	correct	repeat	Run1	repeat/STIM_009.jpg
776.466	0.892	correct	repeat	Run1	repeat/STIM_009.jpg
779.445	0.551	correct	repeat	Run1	repeat/STIM_009.jpg
782.579	0.816	correct	repeat	Run1	repeat/STIM_009.jpg
787.333	0.722	correct	repeat	Run1	repeat/STIM_010.jpg
791.124	0.585	correct	repeat	Run1	repeat/STIM_010.jpg
794.846	0.755	correct	repeat	Run1	repeat/STIM_010.jpg
799.021	0.685	correct	repeat	Run1	repeat/STIM_010.jpg
803.19	0.618	correct	repeat	Run1	repeat/STIM_010.jpg
807.904	0.691	correct	repeat	Run1	repeat/STIM_011.jpg
811.205	0.479	correct	repeat	Run1	repeat/STIM_011.jpg
815.594	0.47	correct	repeat	Run1	repeat/STIM_011.jpg
818.475	0.852	correct	repeat	Run1	repeat/STIM_011.jpg
822.838	0.512	correct	repeat	Run1	repeat/STIM_011.jpg
825.976	0.733	correct	repeat	Run1	repeat/STIM_012.jpg
830.029	0.636	correct	repeat	Run1	repeat/STIM_012.jpg
833.245	0.741	correct	repeat	Run1	repeat/STIM_012.jpg
837.749	0.808	correct	repeat	Run1	repeat/STIM_012.jpg
842.042	0.627	correct	repeat	Run1	repeat/STIM_012.jpg
846.442	0.735	incorrect	repeat	Run1	repeat/STIM_013.jpg
849.282	0.84	correct	repeat	Run1	repeat/STIM_013.jpg
852.755	0.709	correct	repeat	Run1	repeat/STIM_013.jpg
855.892	0.376	correct	repeat	Run1	repeat/STIM_013.jpg
859.011	0.739	correct	repeat	Run1	repeat/STIM_013.jpg
863.273	0.829	correct	repeat	Run1	repeat/STIM_014.jpg
868.123	0.556	correct	repeat	Run1	repeat/STIM_014.jpg
872.282	0.624	correct	repeat	Run1	repeat/STIM_014.jpg
875.957	0.595	correct	repeat	Run1	repeat/STIM_014.jpg
879.461	0.756	correct	repeat	Run1	repeat/STIM_014.jpg
883.922	2.052	correct	generate	Run2	generate/STIM_000.jpg
888.837	1.003	incorrect	generate	Run2	generate/STIM_000.jpg
892.063	1.177	correct	generate	Run2	generate/STIM_000.jpg
895.361	1.46	incorrect	generate	Run2	generate/STIM_000.jpg
900.137	1.616	correct	generate	Run2	generate/STIM_000.jpg
904.921	1.223	correct	generate	Run2	generate/STIM_001.jpg
909.426	1.79	correct	generate	Run2	generate/STIM_001.jpg
915.361	1.754	correct	generate	Run2	generate/STIM_001.jpg
920.944	1.19	correct	generate	Run2	generate/STIM_001.jpg
924.746	1.42	correct	generate	Run2	generate/STIM_001.jpg
930.123	1.112	correct	generate	Run2	generate/STIM_002.jpg
933.652	0.834	correct	generate	Run2	generate/STIM_002.jpg
936.994	1.264	correct	generate	Run2	generate/STIM_002.jpg
940.615	0.938	correct	generate	Run2	generate/STIM_002.jpg
944.338	0.967	correct	generate	Run2	generate/STIM_002.jpg
948.956	1.146	correct	generate	Run2	generate/STIM_003.jpg
952.813	1.823	incorrect	generate	Run2	generate/STIM_003.jpg
958.333	1.476	correct	generate	Run2	generate/STIM_003.jpg
962.399	1.656	incorrect	generate	Run2	generate/STIM_003.jpg
966.477	1.338	correct	generate	Run2	generate/STIM_003.jpg
969.991	1.92	correct	generate	Run2	generate/STIM_004.jpg
974.766	1.788	correct	generate	Run2	generate/STIM_004.jpg
980.72	1.095	correct	generate	Run2	generate/STIM_004.jpg
985.234	0.828	correct	generate	Run2	generate/STIM_004.jpg
988.726	1.043	correct	generate	Run2	generate/STIM_004.jpg
993.105	2.074	correct	generate	Run2	generate/STIM_005.jpg
998.489	1.53	correct	generate	Run2	generate/STIM_005.jpg
1003.088	1.383	incorrect	generate	Run2	generate/STIM_005.jpg
1006.859	1.135	correct	generate	Run2	generate/STIM_005.jpg
1011.407	1.684	correct	generate	Run2	generate/STIM_005.jpg
1015.742	1.956	correct	generate	Run2	generate/STIM_006.jpg
1020.921	2.08	correct	generate	Run2	generate/STIM_006.jpg
1025.925	1.724	correct	generate	Run2	generate/STIM_006.jpg
1031.536	1.104	correct	generate	Run2	generate/STIM_006.jpg
1035.192	1.447	correct	generate	Run2	generate/STIM_006.jpg
1040.009	2.196	correct	generate	Run2	generate/STIM_007.jpg
1046.422	1.038	correct	generate	Run2	generate/STIM_007.jpg
1050.707	1.065	correct	generate	Run2	generate/STIM_007.jpg
1054.738	1.099	correct	generate	Run2	generate/STIM_007.jpg
1059.423	1.506	correct	generate	Run2	generate/STIM_007.jpg
1065.012	2.027	correct	generate	Run2	generate/STIM_008.jpg
1069.91	1.174	correct	generate	Run2	generate/STIM_008.jpg
1075.181	1.45	correct	generate	Run2	generate/STIM_008.jpg
1080.016	1.102	incorrect	generate	Run2	generate/STIM_008.jpg
1083.942	0.797	incorrect	generate	Run2	generate/STIM_008.jpg
1087.959	1.441	correct	generate	Run2	generate/STIM_009.jpg
1092.369	2.006	correct	generate	Run2	generate/STIM_009.jpg
1097.361	1.04	correct	generate	Run2	generate/STIM_009.jpg
1101.318	1.639	correct	generate	Run2	generate/STIM_009.jpg
1105.351	1.167	correct	generate	Run2	generate/STIM_009.jpg
1108.757	1.209	correct	generate	Run2	generate/STIM_010.jpg
1112.695	1.129	correct	generate	Run2	generate/STIM_010.jpg
1116.508	1.099	incorrect	generate	Run2	generate/STIM_010.jpg
1120.765	1.164	correct	generate	Run2	generate/STIM_010.jpg
1125.274	1.273	correct	generate	Run2	generate/STIM_010.jpg
1130.178	2.049	incorrect	generate	Run2	generate/STIM_011.jpg
1135.173	1.16	correct	generate	Run2	generate/STIM_011.jpg
1139.973	1.264	correct	generate	Run2	generate/STIM_011.jpg
1143.903	0.956	correct	generate	Run2	generate/STIM_011.jpg
1147.898	1.164	correct	generate	Run2	generate/STIM_011.jpg
1151.329	1.192	correct	generate	Run2	generate/STIM_012.jpg
1155.262	1.736	correct	generate	Run2	generate/STIM_012.jpg
1160.619	1.721	correct	generate	Run2	generate/STIM_012.jpg
1166.201	1.416	correct	generate	Run2	generate/STIM_012.jpg
1169.993	1.505	correct	generate	Run2	generate/STIM_012.jpg
1175.137	2.169	correct	generate	Run2	generate/STIM_013.jpg
1180.359	2.024	correct	generate	Run2	generate/STIM_013.jpg
1184.978	2.06	correct	generate	Run2	generate/STIM_013.jpg
1190.311	0.88	incorrect	generate	Run2	generate/STIM_013.jpg
1194.791	1.294	correct	generate	Run2	generate/STIM_013.jpg
1198.471	1.017	correct	generate	Run2	generate/STIM_014.jpg
1202.815	2.027	correct	generate	Run2	generate/STIM_014.jpg
1208.925	0.906	correct	generate	Run2	generate/STIM_014.jpg
1212.386	1.532	correct	generate	Run2	generate/STIM_014.jpg
1218.153	1.749	correct	generate	Run2	generate/STIM_014.jpg
1224.087	1.022	correct	generate	Run2	generate/STIM_015.jpg
1227.671	1.408	correct	generate	Run2	generate/STIM_015.jpg
1233.046	1.183	correct	generate	Run2	generate/STIM_015.jpg
1237.259	1.575	correct	generate	Run2	generate/STIM_015.jpg
1242.963	1.094	correct	generate	Run2	generate/STIM_015.jpg
1246.456	2.098	correct	generate	Run2	generate/STIM_016.jpg
1251.672	1.661	correct	generate	Run2	generate/STIM_016.jpg
1255.656	1.365	correct	generate	Run2	generate/STIM_016.jpg
1261.197	1.094	correct	generate	Run2	generate/STIM_016.jpg
1266.124	1.687	incorrect	generate	Run2	generate/STIM_016.jpg
1271.78	1.178	correct	generate	Run2	generate/STIM_017.jpg
1275.66	1.923	correct	generate	Run2	generate/STIM_017.jpg
1281.128	0.897	correct	generate	Run2	generate/STIM_017.jpg
1285.612	1.612	correct	generate	Run2	generate/STIM_017.jpg
1291.251	0.935	correct	generate	Run2	generate/STIM_017.jpg
1296.101	1.925	correct	generate	Run2	generate/STIM_018.jpg
1302.004	1.966	correct	generate	Run2	generate/STIM_018.jpg
1306.692	1.592	correct	generate	Run2	generate/STIM_018.jpg
1312.26	1.533	correct	generate	Run2	generate/STIM_018.jpg
1316.105	1.357	correct	generate	Run2	generate/STIM_018.jpg
1319.911	2.032	correct	generate	Run2	generate/STIM_019.jpg
1326.159	1.635	correct	generate	Run2	generate/STIM_019.jpg
1332.029	1.575	correct	generate	Run2	generate/STIM_019.jpg
1335.833	1.252	correct	generate	Run2	generate/STIM_019.jpg
1340.08	0.831	correct	generate	Run2	generate/STIM_019.jpg
1343.465	2.044	correct	generate	Run2	generate/STIM_020.jpg
1348.567	1.57	correct	generate	Run2	generate/STIM_020.jpg
1353.371	1.911	correct	generate	Run2	generate/STIM_020.jpg
1359.498	1.481	correct	generate	Run2	generate/STIM_020.jpg
1364.606	1.765	correct	generate	Run2	generate/STIM_020.jpg
1368.766	1.973	correct	generate	Run2	generate/STIM_021.jpg
1374.146	1.692	correct	generate	Run2	generate/STIM_021.jpg
1378.302	1.327	correct	generate	Run2	generate/STIM_021.jpg
1382.083	0.958	correct	generate	Run2	generate/STIM_021.jpg
1385.189	1.234	correct	generate	Run2	generate/STIM_021.jpg
1389.288	2.114	incorrect	generate	Run2	generate/STIM_022.jpg
1393.824	2.007	correct	generate	Run2	generate/STIM_022.jpg
1399.483	1.573	correct	generate	Run2	generate/STIM_022.jpg
1405.182	1.044	correct	generate	Run2	generate/STIM_022.jpg
1409.237	1.428	correct	generate	Run2	generate/STIM_022.jpg
1414.465	0.936	correct	generate	Run2	generate/STIM_023.jpg
1418.926	1.257	correct	generate	Run2	generate/STIM_023.jpg
1423.39	1.166	correct	generate	Run2	generate/STIM_023.jpg
1427.99	1.104	correct	generate	Run2	generate/STIM_023.jpg
1432.0	1.776	correct	generate	Run2	generate/STIM_023.jpg
1436.429	1.433	incorrect	generate	Run2	generate/STIM_024.jpg
1441.018	1.808	correct	generate	Run2	generate/STIM_024.jpg
1446.006	1.463	correct	generate	Run2	generate/STIM_024.jpg
1450.711	1.238	correct	generate	Run2	generate/STIM_024.jpg
1454.268	0.938	correct	generate	Run2	generate/STIM_024.jpg
1457.554	0.622	correct	repeat	Run2	repeat/STIM_000.jpg
1461.133	0.85	correct	repeat	Run2	repeat/STIM_000.jpg
1464.844	0.508	correct	repeat	Run2	repeat/STIM_000.jpg
1468.442	0.66	correct	repeat	Run2	repeat/STIM_000.jpg
1472.77	0.592	correct	repeat	Run2	repeat/STIM_000.jpg
1476.92	0.525	correct	repeat	Run2	repeat/STIM_001.jpg
1479.909	0.682	correct	repeat	Run2	repeat/STIM_001.jpg
1484.574	0.653	correct	repeat	Run2	repeat/STIM_001.jpg
1488.551	0.654	correct	repeat	Run2	repeat/STIM_001.jpg
1492.247	0.637	correct	repeat	Run2	repeat/STIM_001.jpg
1495.223	0.786	correct	repeat	Run2	repeat/STIM_002.jpg
1498.233	0.51	correct	repeat	Run2	repeat/STIM_002.jpg
1501.108	0.624	correct	repeat	Run2	repeat/STIM_002.jpg
1504.857	0.844	correct	repeat	Run2	repeat/STIM_002.jpg
1508.473	0.697	correct	repeat	Run2	repeat/STIM_002.jpg
1513.001	0.641	correct	repeat	Run2	repeat/STIM_003.jpg
1516.599	0.668	correct	repeat	Run2	repeat/STIM_003.jpg
1520.576	0.52	correct	repeat	Run2	repeat/STIM_003.jpg
1523.914	0.816	correct	repeat	Run2	repeat/STIM_003.jpg
1526.891	0.48	incorrect	repeat	Run2	repeat/STIM_003.jpg
1530.029	0.762	correct	repeat	Run2	repeat/STIM_004.jpg
1533.1	0.336	correct	repeat	Run2	repeat/STIM_004.jpg
1536.17	0.898	correct	repeat	Run2	repeat/STIM_004.jpg
1541.056	0.678	correct	repeat	Run2	repeat/STIM_004.jpg
1544.64	0.568	correct	repeat	Run2	repeat/STIM_004.jpg
1547.578	0.438	correct	repeat	Run2	repeat/STIM_005.jpg
1551.359	0.643	correct	repeat	Run2	repeat/STIM_005.jpg
1556.011	0.806	incorrect	repeat	Run2	repeat/STIM_005.jpg
1558.957	0.863	correct	repeat	Run2	repeat/STIM_005.jpg
1562.526	0.663	incorrect	repeat	Run2	repeat/STIM_005.jpg
1565.673	0.78	correct	repeat	Run2	repeat/STIM_006.jpg
1570.475	0.657	correct	repeat	Run2	repeat/STIM_006.jpg
1573.885	0.786	correct	repeat	Run2	repeat/STIM_006.jpg
1577.358	0.567	correct	repeat	Run2	repeat/STIM_006.jpg
1580.521	0.591	correct	repeat	Run2	repeat/STIM_006.jpg
1583.29	0.775	correct	repeat	Run2	repeat/STIM_007.jpg
1587.344	0.538	correct	repeat	Run2	repeat/STIM_007.jpg
1591.402	0.839	correct	repeat	Run2	repeat/STIM_007.jpg
1595.915	0.551	correct	repeat	Run2	repeat/STIM_007.jpg
1599.197	0.772	correct	repeat	Run2	repeat/STIM_007.jpg
1602.72	0.533	correct	repeat	Run2	repeat/STIM_008.jpg
1606.754	0.449	correct	repeat	Run2	repeat/STIM_008.jpg
1609.54	0.806	correct	repeat	Run2	repeat/STIM_008.jpg
1613.118	0.377	correct	repeat	Run2	repeat/STIM_008.jpg
1616.914	0.496	correct	repeat	Run2	repeat/STIM_008.jpg
1620.653	0.762	correct	repeat	Run2	repeat/STIM_009.jpg
1624.345	0.63	correct	repeat	Run2	repeat/STIM_009.jpg
1627.636	0.612	correct	repeat	Run2	repeat/STIM_009.jpg
1631.652	0.502	correct	repeat	Run2	repeat/STIM_009.jpg
1635.636	0.743	correct	repeat	Run2	repeat/STIM_009.jpg
1639.371	0.786	correct	repeat	Run2	repeat/STIM_010.jpg
1644.146	0.905	correct	repeat	Run2	repeat/STIM_010.jpg
1648.532	0.537	correct	repeat	Run2	repeat/STIM_010.jpg
1652.487	0.653	correct	repeat	Run2	repeat/STIM_010.jpg
1656.883	0.658	correct	repeat	Run2	repeat/STIM_010.jpg
1661.402	0.629	correct	repeat	Run2	repeat/STIM_011.jpg
1664.421	0.817	correct	repeat	Run2	repeat/STIM_011.jpg
1668.721	0.613	correct	repeat	Run2	repeat/STIM_011.jpg
1672.294	0.951	correct	repeat	Run2	repeat/STIM_011.jpg
1675.536	0.58	correct	repeat	Run2	repeat/STIM_011.jpg
1679.865	0.8	correct	repeat	Run2	repeat/STIM_012.jpg
1683.551	0.632	correct	repeat	Run2	repeat/STIM_012.jpg
1686.65	0.542	correct	repeat	Run2	repeat/STIM_012.jpg
1690.966	0.409	correct	repeat	Run2	repeat/STIM_012.jpg
1694.676	0.844	correct	repeat	Run2	repeat/STIM_012.jpg
1699.158	0.791	correct	repeat	Run2	repeat/STIM_013.jpg
1703.02	0.735	correct	repeat	Run2	repeat/STIM_013.jpg
1707.201	0.698	correct	repeat	Run2	repeat/STIM_013.jpg
1711.74	0.693	correct	repeat	Run2	repeat/STIM_013.jpg
1715.394	0.588	correct	repeat	Run2	repeat/STIM_013.jpg
1719.91	0.754	incorrect	repeat	Run2	repeat/STIM_014.jpg
1723.033	0.458	correct	repeat	Run2	repeat/STIM_014.jpg
1725.668	0.66	correct	repeat	Run2	repeat/STIM_014.jpg
1729.752	0.632	correct	repeat	Run2	repeat/STIM_014.jpg
1734.256	0.805	correct	repeat	Run2	repeat/STIM_014.jpg
1738.193	1.043	correct	generate	Run3	generate/STIM_000.jpg
1743.101	1.563	correct	generate	Run3	generate/STIM_000.jpg
1748.343	1.766	correct	generate	Run3	generate/STIM_000.jpg
1752.786	1.083	correct	generate	Run3	generate/STIM_000.jpg
1756.664	1.8	correct	generate	Run3	generate/STIM_000.jpg
1761.25	1.322	correct	generate	Run3	generate/STIM_001.jpg
1765.013	1.506	correct	generate	Run3	generate/STIM_001.jpg
1769.698	1.652	correct	generate	Run3	generate/STIM_001.jpg
1775.359	1.487	correct	generate	Run3	generate/STIM_001.jpg
1779.445	0.826	correct	generate	Run3	generate/STIM_001.jpg
1783.602	0.787	correct	generate	Run3	generate/STIM_002.jpg
1787.498	1.826	correct	generate	Run3	generate/STIM_002.jpg
1791.604	1.391	incorrect	generate	Run3	generate/STIM_002.jpg
1795.741	1.613	correct	generate	Run3	generate/STIM_002.jpg
1800.503	1.025	incorrect	generate	Run3	generate/STIM_002.jpg
1805.241	0.932	correct	generate	Run3	generate/STIM_003.jpg
1810.023	1.338	correct	generate	Run3	generate/STIM_003.jpg
1814.22	1.692	correct	generate	Run3	generate/STIM_003.jpg
1818.693	1.466	correct	generate	Run3	generate/STIM_003.jpg
1823.581	1.755	correct	generate	Run3	generate/STIM_003.jpg
1829.412	1.365	correct	generate	Run3	generate/STIM_004.jpg
1834.401	0.811	correct	generate	Run3	generate/STIM_004.jpg
1838.083	0.821	correct	generate	Run3	generate/STIM_004.jpg
1841.434	0.844	correct	generate	Run3	generate/STIM_004.jpg
1844.984	1.754	correct	generate	Run3	generate/STIM_004.jpg
1850.701	1.107	correct	generate	Run3	generate/STIM_005.jpg
1855.023	1.832	incorrect	generate	Run3	generate/STIM_005.jpg
1860.707	1.051	correct	generate	Run3	generate/STIM_005.jpg
1865.514	1.786	correct	generate	Run3	generate/STIM_005.jpg
1870.793	0.928	correct	generate	Run3	generate/STIM_005.jpg
1874.866	1.189	correct	generate	Run3	generate/STIM_006.jpg
1879.861	1.43	correct	generate	Run3	generate/STIM_006.jpg
1884.788	1.059	correct	generate	Run3	generate/STIM_006.jpg
1889.393	1.274	correct	generate	Run3	generate/STIM_006.jpg
1894.635	1.275	correct	generate	Run3	generate/STIM_006.jpg
1898.702	0.737	correct	generate	Run3	generate/STIM_007.jpg
1902.774	1.431	correct	generate	Run3	generate/STIM_007.jpg
1907.405	1.657	incorrect	generate	Run3	generate/STIM_007.jpg
1911.451	1.1	correct	generate	Run3	generate/STIM_007.jpg
1916.16	1.625	correct	generate	Run3	generate/STIM_007.jpg
1920.116	1.217	correct	generate	Run3	generate/STIM_008.jpg
1924.637	1.419	incorrect	generate	Run3	generate/STIM_008.jpg
1929.738	1.192	correct	generate	Run3	generate/STIM_008.jpg
1934.892	1.461	correct	generate	Run3	generate/STIM_008.jpg
1939.28	1.142	correct	generate	Run3	generate/STIM_008.jpg
1943.456	1.656	incorrect	generate	Run3	generate/STIM_009.jpg
1947.414	0.883	incorrect	generate	Run3	generate/STIM_009.jpg
1951.836	0.955	correct	generate	Run3	generate/STIM_009.jpg
1955.672	0.744	correct	generate	Run3	generate/STIM_009.jpg
1958.651	1.331	correct	generate	Run3	generate/STIM_009.jpg
1963.522	0.801	correct	generate	Run3	generate/STIM_010.jpg
1967.899	1.271	correct	generate	Run3	generate/STIM_010.jpg
1972.983	1.519	correct	generate	Run3	generate/STIM_010.jpg
1978.37	1.178	correct	generate	Run3	generate/STIM_010.jpg
1982.295	1.36	correct	generate	Run3	generate/STIM_010.jpg
1987.057	1.229	correct	generate	Run3	generate/STIM_011.jpg
1990.808	1.164	correct	generate	Run3	generate/STIM_011.jpg
1994.986	1.468	correct	generate	Run3	generate/STIM_011.jpg
1999.583	0.873	correct	generate	Run3	generate/STIM_011.jpg
2004.19	1.008	correct	generate	Run3	generate/STIM_011.jpg
2009.257	1.353	correct	generate	Run3	generate/STIM_012.jpg
2013.164	0.906	correct	generate	Run3	generate/STIM_012.jpg
2016.739	0.932	correct	generate	Run3	generate/STIM_012.jpg
2020.732	1.353	correct	generate	Run3	generate/STIM_012.jpg
2025.631	1.669	correct	generate	Run3	generate/STIM_012.jpg
2031.342	1.38	correct	generate	Run3	generate/STIM_013.jpg
2035.917	1.709	correct	generate	Run3	generate/STIM_013.jpg
2040.133	1.406	correct	generate	Run3	generate/STIM_013.jpg
2044.71	1.685	correct	generate	Run3	generate/STIM_013.jpg
2050.429	0.939	incorrect	generate	Run3	generate/STIM_013.jpg
2054.31	0.945	correct	generate	Run3	generate/STIM_014.jpg
2058.562	1.288	correct	generate	Run3	generate/STIM_014.jpg
2063.639	1.671	correct	generate	Run3	generate/STIM_014.jpg
2069.152	1.3	correct	generate	Run3	generate/STIM_014.jpg
2072.901	1.555	correct	generate	Run3	generate/STIM_014.jpg
2078.304	1.623	correct	generate	Run3	generate/STIM_015.jpg
2083.388	1.345	correct	generate	Run3	generate/STIM_015.jpg
2088.026	1.509	correct	generate	Run3	generate/STIM_015.jpg
2091.724	1.574	correct	generate	Run3	generate/STIM_015.jpg
2096.724	1.453	correct	generate	Run3	generate/STIM_015.jpg
2101.029	1.121	incorrect	generate	Run3	generate/STIM_016.jpg
2104.867	1.699	correct	generate	Run3	generate/STIM_016.jpg
2110.6	1.151	correct	generate	Run3	generate/STIM_016.jpg
2115.067	0.916	correct	generate	Run3	generate/STIM_016.jpg
2118.682	1.387	correct	generate	Run3	generate/STIM_016.jpg
2123.546	0.831	correct	generate	Run3	generate/STIM_017.jpg
2128.112	1.578	correct	generate	Run3	generate/STIM_017.jpg
2133.314	1.215	correct	generate	Run3	generate/STIM_017.jpg
2137.302	1.84	correct	generate	Run3	generate/STIM_017.jpg
2142.052	1.361	correct	generate	Run3	generate/STIM_017.jpg
2147.167	0.88	correct	generate	Run3	generate/STIM_018.jpg
2151.806	1.569	correct	generate	Run3	generate/STIM_018.jpg
2155.695	1.013	correct	generate	Run3	generate/STIM_018.jpg
2159.268	1.14	correct	generate	Run3	generate/STIM_018.jpg
2163.941	1.626	correct	generate	Run3	generate/STIM_018.jpg
2168.301	1.113	correct	generate	Run3	generate/STIM_019.jpg
2173.125	1.903	correct	generate	Run3	generate/STIM_019.jpg
2177.533	1.28	correct	generate	Run3	generate/STIM_019.jpg
2182.058	1.575	correct	generate	Run3	generate/STIM_019.jpg
2186.941	1.538	correct	generate	Run3	generate/STIM_019.jpg
2191.817	1.825	correct	generate	Run3	generate/STIM_020.jpg
2196.269	1.18	correct	generate	Run3	generate/STIM_020.jpg
2199.653	1.426	correct	generate	Run3	generate/STIM_020.jpg
2205.017	0.682	correct	generate	Run3	generate/STIM_020.jpg
2209.246	0.962	correct	generate	Run3	generate/STIM_020.jpg
2212.899	1.146	correct	generate	Run3	generate/STIM_021.jpg
2216.915	1.224	correct	generate	Run3	generate/STIM_021.jpg
2220.823	0.955	correct	generate	Run3	generate/STIM_021.jpg
2225.804	1.228	correct	generate	Run3	generate/STIM_021.jpg
2229.978	1.79	correct	generate	Run3	generate/STIM_021.jpg
2235.364	1.6	correct	generate	Run3	generate/STIM_022.jpg
2241.088	1.061	correct	generate	Run3	generate/STIM_022.jpg
2244.609	0.825	correct	generate	Run3	generate/STIM_022.jpg
2249.462	1.357	correct	generate	Run3	generate/STIM_022.jpg
2254.795	1.522	correct	generate	Run3	generate/STIM_022.jpg
2259.077	0.824	correct	generate	Run3	generate/STIM_023.jpg
2262.465	1.632	correct	generate	Run3	generate/STIM_023.jpg
2267.693	1.039	correct	generate	Run3	generate/STIM_023.jpg
2271.996	1.502	correct	generate	Run3	generate/STIM_023.jpg
2277.381	1.039	correct	generate	Run3	generate/STIM_023.jpg
2280.667	0.824	correct	generate	Run3	generate/STIM_024.jpg
2283.912	1.71	correct	generate	Run3	generate/STIM_024.jpg
2288.472	0.933	correct	generate	Run3	generate/STIM_024.jpg
2292.542	0.745	correct	generate	Run3	generate/STIM_024.jpg
2295.993	1.596	correct	generate	Run3	generate/STIM_024.jpg
2301.635	0.539	correct	repeat	Run3	repeat/STIM_000.jpg
2305.816	0.66	correct	repeat	Run3	repeat/STIM_000.jpg
2309.241	0.771	incorrect	repeat	Run3	repeat/STIM_000.jpg
2312.386	0.719	correct	repeat	Run3	repeat/STIM_000.jpg
2316.894	0.563	correct	repeat	Run3	repeat/STIM_000.jpg
2320.72	0.833	correct	repeat	Run3	repeat/STIM_001.jpg
2325.546	0.562	correct	repeat	Run3	repeat/STIM_001.jpg
2329.874	0.534	correct	repeat	Run3	repeat/STIM_001.jpg
2333.059	0.503	correct	repeat	Run3	repeat/STIM_001.jpg
2336.046	0.585	correct	repeat	Run3	repeat/STIM_001.jpg
2340.418	0.758	correct	repeat	Run3	repeat/STIM_002.jpg
2343.942	0.7	correct	repeat	Run3	repeat/STIM_002.jpg
2347.246	0.828	correct	repeat	Run3	repeat/STIM_002.jpg
2352.015	0.537	correct	repeat	Run3	repeat/STIM_002.jpg
2356.184	0.706	correct	repeat	Run3	repeat/STIM_002.jpg
2360.538	0.462	correct	repeat	Run3	repeat/STIM_003.jpg
2363.466	0.447	correct	repeat	Run3	repeat/STIM_003.jpg
2366.454	0.802	correct	repeat	Run3	repeat/STIM_003.jpg
2369.764	0.505	correct	repeat	Run3	repeat/STIM_003.jpg
2372.431	0.891	incorrect	repeat	Run3	repeat/STIM_003.jpg
2375.917	0.53	incorrect	repeat	Run3	repeat/STIM_004.jpg
2379.734	0.93	correct	repeat	Run3	repeat/STIM_004.jpg
2383.538	0.881	correct	repeat	Run3	repeat/STIM_004.jpg
2388.442	0.56	correct	repeat	Run3	repeat/STIM_004.jpg
2391.116	0.508	correct	repeat	Run3	repeat/STIM_004.jpg
2395.39	0.768	correct	repeat	Run3	repeat/STIM_005.jpg
2399.156	0.565	correct	repeat	Run3	repeat/STIM_005.jpg
2402.755	0.806	correct	repeat	Run3	repeat/STIM_005.jpg
2406.481	0.811	correct	repeat	Run3	repeat/STIM_005.jpg
2410.992	0.53	correct	repeat	Run3	repeat/STIM_005.jpg
2415.211	0.48	correct	repeat	Run3	repeat/STIM_006.jpg
2418.277	0.554	correct	repeat	Run3	repeat/STIM_006.jpg
2421.375	0.729	correct	repeat	Run3	repeat/STIM_006.jpg
2424.831	0.618	correct	repeat	Run3	repeat/STIM_006.jpg
2428.831	0.644	correct	repeat	Run3	repeat/STIM_006.jpg
2432.752	0.46	correct	repeat	Run3	repeat/STIM_007.jpg
2436.106	0.655	correct	repeat	Run3	repeat/STIM_007.jpg
2440.296	0.784	correct	repeat	Run3	repeat/STIM_007.jpg
2444.204	0.771	correct	repeat	Run3	repeat/STIM_007.jpg
2448.805	0.698	incorrect	repeat	Run3	repeat/STIM_007.jpg
2452.7	0.871	correct	repeat	Run3	repeat/STIM_008.jpg
2455.751	0.599	correct	repeat	Run3	repeat/STIM_008.jpg
2458.667	0.591	correct	repeat	Run3	repeat/STIM_008.jpg
2463.273	0.543	correct	repeat	Run3	repeat/STIM_008.jpg
2466.407	0.499	correct	repeat	Run3	repeat/STIM_008.jpg
2469.896	0.534	correct	repeat	Run3	repeat/STIM_009.jpg
2472.824	0.88	correct	repeat	Run3	repeat/STIM_009.jpg
2476.312	0.506	correct	repeat	Run3	repeat/STIM_009.jpg
2479.561	0.477	correct	repeat	Run3	repeat/STIM_009.jpg
2482.627	0.86	correct	repeat	Run3	repeat/STIM_009.jpg
2487.052	0.5	correct	repeat	Run3	repeat/STIM_010.jpg
2490.095	0.714	correct	repeat	Run3	repeat/STIM_010.jpg
2494.354	0.742	correct	repeat	Run3	repeat/STIM_010.jpg
2497.349	0.788	correct	repeat	Run3	repeat/STIM_010.jpg
2500.441	0.789	correct	repeat	Run3	repeat/STIM_010.jpg
2505.288	0.579	correct	repeat	Run3	repeat/STIM_011.jpg
2509.32	0.827	correct	repeat	Run3	repeat/STIM_011.jpg
2513.899	0.743	correct	repeat	Run3	repeat/STIM_011.jpg
2517.311	0.591	correct	repeat	Run3	repeat/STIM_011.jpg
2520.501	0.607	correct	repeat	Run3	repeat/STIM_011.jpg
2524.396	0.618	correct	repeat	Run3	repeat/STIM_012.jpg
2527.868	0.602	correct	repeat	Run3	repeat/STIM_012.jpg
2530.976	0.694	correct	repeat	Run3	repeat/STIM_012.jpg
2534.88	0.902	correct	repeat	Run3	repeat/STIM_012.jpg
2539.189	0.774	correct	repeat	Run3	repeat/STIM_012.jpg
2543.789	0.562	incorrect	repeat	Run3	repeat/STIM_013.jpg
2548.01	0.788	correct	repeat	Run3	repeat/STIM_013.jpg
2552.749	0.812	correct	repeat	Run3	repeat/STIM_013.jpg
2556.428	0.563	correct	repeat	Run3	repeat/STIM_013.jpg
2559.555	0.581	correct	repeat	Run3	repeat/STIM_013.jpg
2563.966	0.59	correct	repeat	Run3	repeat/STIM_014.jpg
2568.231	0.47	correct	repeat	Run3	repeat/STIM_014.jpg
2571.11	0.417	correct	repeat	Run3	repeat/STIM_014.jpg
2574.392	0.465	correct	repeat	Run3	repeat/STIM_014.jpg
2577.112	0.631	correct	repeat	Run3	repeat/STIM_014.jpg
2580.691	1.83	correct	generate	Run4	generate/STIM_000.jpg
2586.772	1.426	correct	generate	Run4	generate/STIM_000.jpg
2590.783	0.995	correct	generate	Run4	generate/STIM_000.jpg
2595.522	1.161	correct	generate	Run4	generate/STIM_000.jpg
2600.611	1.144	incorrect	generate	Run4	generate/STIM_000.jpg
2604.289	1.449	correct	generate	Run4	generate/STIM_001.jpg
2609.82	1.436	correct	generate	Run4	generate/STIM_001.jpg
2614.688	1.916	correct	generate	Run4	generate/STIM_001.jpg
2619.499	0.875	correct	generate	Run4	generate/STIM_001.jpg
2622.666	1.52	correct	generate	Run4	generate/STIM_001.jpg
2628.194	1.57	correct	generate	Run4	generate/STIM_002.jpg
2632.599	1.644	correct	generate	Run4	generate/STIM_002.jpg
2637.463	0.893	incorrect	generate	Run4	generate/STIM_002.jpg
2641.087	0.977	correct	generate	Run4	generate/STIM_002.jpg
2645.64	0.971	correct	generate	Run4	generate/STIM_002.jpg
2649.717	0.844	incorrect	generate	Run4	generate/STIM_003.jpg
2653.142	0.852	correct	generate	Run4	generate/STIM_003.jpg
2656.432	1.486	correct	generate	Run4	generate/STIM_003.jpg
2662.033	1.367	incorrect	generate	Run4	generate/STIM_003.jpg
2665.573	1.05	correct	generate	Run4	generate/STIM_003.jpg
2668.858	1.516	correct	generate	Run4	generate/STIM_004.jpg
2673.401	1.693	correct	generate	Run4	generate/STIM_004.jpg
2678.746	1.032	incorrect	generate	Run4	generate/STIM_004.jpg
2683.744	1.838	correct	generate	Run4	generate/STIM_004.jpg
2689.055	1.514	correct	generate	Run4	generate/STIM_004.jpg
2693.644	1.157	correct	generate	Run4	generate/STIM_005.jpg
2697.526	1.721	correct	generate	Run4	generate/STIM_005.jpg
2702.72	1.75	correct	generate	Run4	generate/STIM_005.jpg
2708.396	1.299	correct	generate	Run4	generate/STIM_005.jpg
2713.482	0.844	correct	generate	Run4	generate/STIM_005.jpg
2718.439	1.187	correct	generate	Run4	generate/STIM_006.jpg
2723.126	1.066	correct	generate	Run4	generate/STIM_006.jpg
2728.101	1.235	correct	generate	Run4	generate/STIM_006.jpg
2731.837	1.308	correct	generate	Run4	generate/STIM_006.jpg
2736.901	1.01	correct	generate	Run4	generate/STIM_006.jpg
2741.518	0.83	correct	generate	Run4	generate/STIM_007.jpg
2744.745	1.417	correct	generate	Run4	generate/STIM_007.jpg
2749.137	0.932	correct	generate	Run4	generate/STIM_007.jpg
2753.306	1.005	correct	generate	Run4	generate/STIM_007.jpg
2758.203	0.99	incorrect	generate	Run4	generate/STIM_007.jpg
2761.676	1.26	correct	generate	Run4	generate/STIM_008.jpg
2765.555	0.846	correct	generate	Run4	generate/STIM_008.jpg
2768.925	0.996	correct	generate	Run4	generate/STIM_008.jpg
2773.11	0.951	correct	generate	Run4	generate/STIM_008.jpg
2777.934	1.384	correct	generate	Run4	generate/STIM_008.jpg
2783.131	1.661	correct	generate	Run4	generate/STIM_009.jpg
2788.62	0.888	correct	generate	Run4	generate/STIM_009.jpg
2792.298	1.092	correct	generate	Run4	generate/STIM_009.jpg
2795.938	1.48	correct	generate	Run4	generate/STIM_009.jpg
2801.396	1.729	correct	generate	Run4	generate/STIM_009.jpg
2805.509	1.275	correct	generate	Run4	generate/STIM_010.jpg
2810.144	1.615	correct	generate	Run4	generate/STIM_010.jpg
2815.239	1.623	correct	generate	Run4	generate/STIM_010.jpg
2819.301	1.253	correct	generate	Run4	generate/STIM_010.jpg
2823.855	1.642	correct	generate	Run4	generate/STIM_010.jpg
2828.114	1.195	correct	generate	Run4	generate/STIM_011.jpg
2832.061	1.391	correct	generate	Run4	generate/STIM_011.jpg
2836.282	1.524	correct	generate	Run4	generate/STIM_011.jpg
2840.392	1.681	correct	generate	Run4	generate/STIM_011.jpg
2845.13	1.004	correct	generate	Run4	generate/STIM_011.jpg
2849.045	1.468	correct	generate	Run4	generate/STIM_012.jpg
2854.081	1.63	correct	generate	Run4	generate/STIM_012.jpg
2858.887	1.73	correct	generate	Run4	generate/STIM_012.jpg
2863.202	1.222	correct	generate	Run4	generate/STIM_012.jpg
2866.956	1.783	correct	generate	Run4	generate/STIM_012.jpg
2872.557	1.23	correct	generate	Run4	generate/STIM_013.jpg
2875.827	1.547	correct	generate	Run4	generate/STIM_013.jpg
2879.897	1.821	correct	generate	Run4	generate/STIM_013.jpg
2885.522	1.172	correct	generate	Run4	generate/STIM_013.jpg
2889.486	1.323	correct	generate	Run4	generate/STIM_013.jpg
2893.273	1.467	correct	generate	Run4	generate/STIM_014.jpg
2896.919	1.226	correct	generate	Run4	generate/STIM_014.jpg
2901.212	0.742	correct	generate	Run4	generate/STIM_014.jpg
2905.564	1.519	correct	generate	Run4	generate/STIM_014.jpg
2909.841	1.786	correct	generate	Run4	generate/STIM_014.jpg
2914.304	0.784	correct	generate	Run4	generate/STIM_015.jpg
2917.963	1.494	correct	generate	Run4	generate/STIM_015.jpg
2922.691	1.816	correct	generate	Run4	generate/STIM_015.jpg
2928.561	1.893	correct	generate	Run4	generate/STIM_015.jpg
2934.284	1.339	correct	generate	Run4	generate/STIM_015.jpg
2939.42	1.321	correct	generate	Run4	generate/STIM_016.jpg
2944.521	1.012	correct	generate	Run4	generate/STIM_016.jpg
2949.397	1.759	correct	generate	Run4	generate/STIM_016.jpg
2954.72	1.117	correct	generate	Run4	generate/STIM_016.jpg
2958.936	1.536	correct	generate	Run4	generate/STIM_016.jpg
2963.34	0.949	correct	generate	Run4	generate/STIM_017.jpg
2967.992	1.841	correct	generate	Run4	generate/STIM_017.jpg
2973.127	1.228	correct	generate	Run4	generate/STIM_017.jpg
2976.673	1.274	correct	generate	Run4	generate/STIM_017.jpg
2981.657	1.448	correct	generate	Run4	generate/STIM_017.jpg
2986.393	0.944	correct	generate	Run4	generate/STIM_018.jpg
2990.278	0.987	correct	generate	Run4	generate/STIM_018.jpg
2994.462	1.412	correct	generate	Run4	generate/STIM_018.jpg
2998.418	1.454	correct	generate	Run4	generate/STIM_018.jpg
3003.416	0.971	correct	generate	Run4	generate/STIM_018.jpg
3006.732	1.082	correct	generate	Run4	generate/STIM_019.jpg
3011.41	1.744	correct	generate	Run4	generate/STIM_019.jpg
3015.847	1.612	correct	generate	Run4	generate/STIM_019.jpg
3021.237	0.879	correct	generate	Run4	generate/STIM_019.jpg
3025.712	1.691	correct	generate	Run4	generate/STIM_019.jpg
3031.033	1.323	correct	generate	Run4	generate/STIM_020.jpg
3034.878	1.007	correct	generate	Run4	generate/STIM_020.jpg
3039.45	0.955	correct	generate	Run4	generate/STIM_020.jpg
3043.22	0.98	correct	generate	Run4	generate/STIM_020.jpg
3047.11	0.842	correct	generate	Run4	generate/STIM_020.jpg
3051.004	1.621	correct	generate	Run4	generate/STIM_021.jpg
3055.135	0.883	correct	generate	Run4	generate/STIM_021.jpg
3059.974	1.51	correct	generate	Run4	generate/STIM_021.jpg
3065.374	1.012	correct	generate	Run4	generate/STIM_021.jpg
3069.381	1.546	correct	generate	Run4	generate/STIM_021.jpg
3074.69	1.9	correct	generate	Run4	generate/STIM_022.jpg
3079.533	0.754	correct	generate	Run4	generate/STIM_022.jpg
3083.178	1.071	correct	generate	Run4	generate/STIM_022.jpg
3088.096	1.527	correct	generate	Run4	generate/STIM_022.jpg
3092.987	0.817	correct	generate	Run4	generate/STIM_022.jpg
3097.089	1.744	correct	generate	Run4	generate/STIM_023.jpg
3101.643	1.542	correct	generate	Run4	generate/STIM_023.jpg
3107.352	0.859	correct	generate	Run4	generate/STIM_023.jpg
3111.67	1.056	correct	generate	Run4	generate/STIM_023.jpg
3114.931	1.243	correct	generate	Run4	generate/STIM_023.jpg
3118.425	1.796	correct	generate	Run4	generate/STIM_024.jpg
3124.082	1.68	correct	generate	Run4	generate/STIM_024.jpg
3129.492	1.556	correct	generate	Run4	generate/STIM_024.jpg
3133.314	1.451	correct	generate	Run4	generate/STIM_024.jpg
3137.137	1.122	correct	generate	Run4	generate/STIM_024.jpg
3141.968	0.716	correct	repeat	Run4	repeat/STIM_000.jpg
3145.005	0.826	incorrect	repeat	Run4	repeat/STIM_000.jpg
3148.796	0.43	correct	repeat	Run4	repeat/STIM_000.jpg
3152.189	0.616	correct	repeat	Run4	repeat/STIM_000.jpg
3156.567	0.637	correct	repeat	Run4	repeat/STIM_000.jpg
3160.86	0.808	correct	repeat	Run4	repeat/STIM_001.jpg
3164.865	0.769	correct	repeat	Run4	repeat/STIM_001.jpg
3168.532	0.586	correct	repeat	Run4	repeat/STIM_001.jpg
3171.449	0.818	correct	repeat	Run4	repeat/STIM_001.jpg
3174.778	0.774	correct	repeat	Run4	repeat/STIM_001.jpg
3178.034	0.606	correct	repeat	Run4	repeat/STIM_002.jpg
3181.04	0.653	correct	repeat	Run4	repeat/STIM_002.jpg
3184.578	0.621	correct	repeat	Run4	repeat/STIM_002.jpg
3187.359	0.538	correct	repeat	Run4	repeat/STIM_002.jpg
3190.491	0.781	correct	repeat	Run4	repeat/STIM_002.jpg
3194.95	0.474	correct	repeat	Run4	repeat/STIM_003.jpg
3197.756	0.656	correct	repeat	Run4	repeat/STIM_003.jpg
3200.789	0.523	correct	repeat	Run4	repeat/STIM_003.jpg
3205.161	0.649	incorrect	repeat	Run4	repeat/STIM_003.jpg
3208.855	0.712	correct	repeat	Run4	repeat/STIM_003.jpg
3211.851	0.838	correct	repeat	Run4	repeat/STIM_004.jpg
3216.063	0.73	correct	repeat	Run4	repeat/STIM_004.jpg
3219.227	0.693	correct	repeat	Run4	repeat/STIM_004.jpg
3222.035	0.631	correct	repeat	Run4	repeat/STIM_004.jpg
3225.514	0.492	correct	repeat	Run4	repeat/STIM_004.jpg
3229.702	0.794	correct	repeat	Run4	repeat/STIM_005.jpg
3233.173	0.764	correct	repeat	Run4	repeat/STIM_005.jpg
3236.724	0.754	correct	repeat	Run4	repeat/STIM_005.jpg
3241.268	0.564	correct	repeat	Run4	repeat/STIM_005.jpg
3245.533	0.457	correct	repeat	Run4	repeat/STIM_005.jpg
3248.318	0.68	correct	repeat	Run4	repeat/STIM_006.jpg
3251.997	0.456	correct	repeat	Run4	repeat/STIM_006.jpg
3254.681	0.521	correct	repeat	Run4	repeat/STIM_006.jpg
3259.178	0.629	correct	repeat	Run4	repeat/STIM_006.jpg
3262.37	0.536	correct	repeat	Run4	repeat/STIM_006.jpg
3266.916	0.839	correct	repeat	Run4	repeat/STIM_007.jpg
3270.498	0.705	correct	repeat	Run4	repeat/STIM_007.jpg
3274.353	0.45	correct	repeat	Run4	repeat/STIM_007.jpg
3277.59	0.42	correct	repeat	Run4	repeat/STIM_007.jpg
3280.563	0.498	correct	repeat	Run4	repeat/STIM_007.jpg
3283.242	0.552	correct	repeat	Run4	repeat/STIM_008.jpg
3286.552	0.619	correct	repeat	Run4	repeat/STIM_008.jpg
3291.028	0.492	correct	repeat	Run4	repeat/STIM_008.jpg
3294.219	0.553	correct	repeat	Run4	repeat/STIM_008.jpg
3297.776	0.875	correct	repeat	Run4	repeat/STIM_008.jpg
3302.282	0.446	correct	repeat	Run4	repeat/STIM_009.jpg
3305.381	0.737	correct	repeat	Run4	repeat/STIM_009.jpg
3309.08	0.777	correct	repeat	Run4	repeat/STIM_009.jpg
3313.386	0.537	correct	repeat	Run4	repeat/STIM_009.jpg
3316.847	0.646	correct	repeat	Run4	repeat/STIM_009.jpg
3320.884	0.715	correct	repeat	Run4	repeat/STIM_010.jpg
3325.077	0.441	correct	repeat	Run4	repeat/STIM_010.jpg
3327.765	0.531	correct	repeat	Run4	repeat/STIM_010.jpg
3331.237	0.745	correct	repeat	Run4	repeat/STIM_010.jpg
3334.338	0.816	correct	repeat	Run4	repeat/STIM_010.jpg
3337.49	0.846	correct	repeat	Run4	repeat/STIM_011.jpg
3341.365	0.842	correct	repeat	Run4	repeat/STIM_011.jpg
3344.905	0.741	correct	repeat	Run4	repeat/STIM_011.jpg
3349.077	0.742	correct	repeat	Run4	repeat/STIM_011.jpg
3353.704	0.711	correct	repeat	Run4	repeat/STIM_011.jpg
3357.865	0.596	correct	repeat	Run4	repeat/STIM_012.jpg
3361.205	0.435	correct	repeat	Run4	repeat/STIM_012.jpg
3365.356	0.569	correct	repeat	Run4	repeat/STIM_012.jpg
3369.184	0.773	correct	repeat	Run4	repeat/STIM_012.jpg
3373.108	0.73	correct	repeat	Run4	repeat/STIM_012.jpg
3377.218	0.452	correct	repeat	Run4	repeat/STIM_013.jpg
3381.565	0.629	correct	repeat	Run4	repeat/STIM_013.jpg
3384.593	0.807	correct	repeat	Run4	repeat/STIM_013.jpg
3388.651	0.743	correct	repeat	Run4	repeat/STIM_013.jpg
3393.067	0.736	correct	repeat	Run4	repeat/STIM_013.jpg
3397.722	0.803	correct	repeat	Run4	repeat/STIM_014.jpg
3400.733	0.94	correct	repeat	Run4	repeat/STIM_014.jpg
3405.092	0.716	correct	repeat	Run4	repeat/STIM_014.jpg
3409.456	0.392	correct	repeat	Run4	repeat/STIM_014.jpg
3412.581	0.88	correct	repeat	Run4	repeat/STIM_014.jpg
