onset	duration	response_time_ms	trial_type	learning_stage	stimulus	response_port
0.0	2.341	2341.3	generate	Run1	generate/STIM_000.jpg	99
5.221	2.947	2946.7	generate	Run1	generate/STIM_000.jpg	99
11.118	2.229	2229.3	generate	Run1	generate/STIM_000.jpg	100
16.048	1.94	1939.8	generate	Run1	generate/STIM_000.jpg	99
21.561	2.499	2499.0	generate	Run1	generate/STIM_000.jpg	99
26.151	3.361	3360.7	generate	Run1	generate/STIM_001.jpg	99
31.62	2.429	2429.0	generate	Run1	generate/STIM_001.jpg	99
36.958	2.978	2977.5	generate	Run1	generate/STIM_001.jpg	100
43.229	2.657	2657.0	generate	Run1	generate/STIM_001.jpg	100
49.244	1.457	1456.9	generate	Run1	generate/STIM_001.jpg	99
52.864	2.576	2576.5	generate	Run1	generate/STIM_002.jpg	99
59.01	3.913	3913.1	generate	Run1	generate/STIM_002.jpg	99
65.998	3.184	3183.5	generate	Run1	generate/STIM_002.jpg	99
71.34	2.76	2759.7	generate	Run1	generate/STIM_002.jpg	99
77.646	2.27	2269.6	generate	Run1	generate/STIM_002.jpg	99
82.703	3.725	3725.0	generate	Run1	generate/STIM_003.jpg	99
88.804	1.747	1746.8	generate	Run1	generate/STIM_003.jpg	99
94.491	3.761	3761.0	generate	Run1	generate/STIM_003.jpg	100
100.439	1.805	1804.9	generate	Run1	generate/STIM_003.jpg	99
106.085	2.55	2550.0	generate	Run1	generate/STIM_003.jpg	100
112.285	1.954	1953.9	generate	Run1	generate/STIM_004.jpg	100
118.015	2.721	2721.0	generate	Run1	generate/STIM_004.jpg	99
123.573	2.084	2083.7	generate	Run1	generate/STIM_004.jpg	99
127.727	1.456	1456.1	generate	Run1	generate/STIM_004.jpg	99
132.839	2.058	2057.7	generate	Run1	generate/STIM_004.jpg	99
138.418	2.657	2656.6	generate	Run1	generate/STIM_005.jpg	99
143.667	3.967	3967.2	generate	Run1	generate/STIM_005.jpg	100
150.326	3.587	3587.2	generate	Run1	generate/STIM_005.jpg	99
156.047	2.971	2971.2	generate	Run1	generate/STIM_005.jpg	100
161.288	1.594	1593.5	generate	Run1	generate/STIM_005.jpg	99
165.216	2.68	2679.8	generate	Run1	generate/STIM_006.jpg	100
171.211	3.163	3162.7	generate	Run1	generate/STIM_006.jpg	99
177.595	2.495	2494.9	generate	Run1	generate/STIM_006.jpg	100
183.899	2.457	2457.3	generate	Run1	generate/STIM_006.jpg	99
188.951	2.735	2734.9	generate	Run1	generate/STIM_006.jpg	99
195.518	4.027	4027.2	generate	Run1	generate/STIM_007.jpg	99
202.037	3.353	3352.7	generate	Run1	generate/STIM_007.jpg	100
208.011	2.703	2702.9	generate	Run1	generate/STIM_007.jpg	99
213.252	3.28	3280.3	generate	Run1	generate/STIM_007.jpg	100
219.944	1.751	1751.2	generate	Run1	generate/STIM_007.jpg	100
224.91	1.932	1931.5	generate	Run1	generate/STIM_008.jpg	99
230.033	2.89	2890.4	generate	Run1	generate/STIM_008.jpg	99
236.795	1.554	1554.3	generate	Run1	generate/STIM_008.jpg	100
241.97	1.801	1800.9	generate	Run1	generate/STIM_008.jpg	100
245.894	2.86	2860.3	generate	Run1	generate/STIM_008.jpg	100
252.249	3.209	3209.3	generate	Run1	generate/STIM_009.jpg	99
259.429	2.729	2729.1	generate	Run1	generate/STIM_009.jpg	99
264.252	1.562	1561.5	generate	Run1	generate/STIM_009.jpg	100
269.692	2.686	2685.7	generate	Run1	generate/STIM_009.jpg	100
275.814	2.845	2844.9	generate	Run1	generate/STIM_009.jpg	100
282.052	3.846	3846.2	generate	Run1	generate/STIM_010.jpg	99
288.498	2.917	2917.2	generate	Run1	generate/STIM_010.jpg	100
294.954	2.367	2367.4	generate	Run1	generate/STIM_010.jpg	100
299.618	2.937	2937.4	generate	Run1	generate/STIM_010.jpg	100
304.753	2.975	2975.3	generate	Run1	generate/STIM_010.jpg	99
311.132	1.948	1948.5	generate	Run1	generate/STIM_011.jpg	99
316.364	3.01	3009.5	generate	Run1	generate/STIM_011.jpg	99
322.924	3.234	3233.9	generate	Run1	generate/STIM_011.jpg	99
328.476	3.229	3229.1	generate	Run1	generate/STIM_011.jpg	99
333.873	1.374	1373.5	generate	Run1	generate/STIM_011.jpg	100
338.786	2.154	2153.8	generate	Run1	generate/STIM_012.jpg	100
343.257	2.104	2104.2	generate	Run1	generate/STIM_012.jpg	99
349.36	2.867	2867.3	generate	Run1	generate/STIM_012.jpg	100
355.039	2.989	2988.7	generate	Run1	generate/STIM_012.jpg	100
360.436	1.928	1927.7	generate	Run1	generate/STIM_012.jpg	99
364.934	3.195	3194.6	generate	Run1	generate/STIM_013.jpg	99
371.162	3.55	3550.0	generate	Run1	generate/STIM_013.jpg	99
377.186	3.766	3766.4	generate	Run1	generate/STIM_013.jpg	100
383.018	1.839	1838.9	generate	Run1	generate/STIM_013.jpg	100
387.094	2.17	2170.2	generate	Run1	generate/STIM_013.jpg	100
392.265	1.759	1759.2	generate	Run1	generate/STIM_014.jpg	99
397.779	1.929	1929.0	generate	Run1	generate/STIM_014.jpg	99
402.105	1.543	1543.4	generate	Run1	generate/STIM_014.jpg	99
407.23	2.986	2986.5	generate	Run1	generate/STIM_014.jpg	99
414.008	1.66	1660.0	generate	Run1	generate/STIM_014.jpg	100
419.234	1.744	1744.0	generate	Run1	generate/STIM_015.jpg	99
423.691	2.065	2064.7	generate	Run1	generate/STIM_015.jpg	99
428.699	3.292	3292.0	generate	Run1	generate/STIM_015.jpg	100
434.366	1.87	1870.0	generate	Run1	generate/STIM_015.jpg	100
439.331	2.816	2816.2	generate	Run1	generate/STIM_015.jpg	99
444.752	3.769	3768.8	generate	Run1	generate/STIM_016.jpg	99
451.988	3.512	3512.5	generate	Run1	generate/STIM_016.jpg	99
457.528	3.29	3290.5	generate	Run1	generate/STIM_016.jpg	99
463.969	3.364	3364.2	generate	Run1	generate/STIM_016.jpg	100
471.055	1.837	1836.9	generate	Run1	generate/STIM_016.jpg	99
475.353	2.663	2663.1	generate	Run1	generate/STIM_017.jpg	100
481.056	2.977	2976.9	generate	Run1	generate/STIM_017.jpg	100
486.154	2.406	2406.4	generate	Run1	generate/STIM_017.jpg	99
491.43	2.452	2451.9	generate	Run1	generate/STIM_017.jpg	99
496.25	3.254	3253.5	generate	Run1	generate/STIM_017.jpg	99
503.454	2.226	2225.7	generate	Run1	generate/STIM_018.jpg	99
509.117	2.969	2968.7	generate	Run1	generate/STIM_018.jpg	99
514.678	2.308	2307.6	generate	Run1	generate/STIM_018.jpg	100
520.549	2.847	2847.3	generate	Run1	generate/STIM_018.jpg	100
526.637	1.417	1416.9	generate	Run1	generate/STIM_018.jpg	100
531.096	2.148	2147.7	generate	Run1	generate/STIM_019.jpg	99
537.036	2.865	2865.1	generate	Run1	generate/STIM_019.jpg	100
542.362	3.622	3622.4	generate	Run1	generate/STIM_019.jpg	100
548.918	1.677	1677.1	generate	Run1	generate/STIM_019.jpg	100
553.653	1.859	1859.3	generate	Run1	generate/STIM_019.jpg	99
558.165	3.636	3635.8	generate	Run1	generate/STIM_020.jpg	100
565.584	3.271	3270.7	generate	Run1	generate/STIM_020.jpg	100
572.407	1.947	1946.6	generate	Run1	generate/STIM_020.jpg	99
577.733	2.363	2362.8	generate	Run1	generate/STIM_020.jpg	100
582.527	2.18	2179.6	generate	Run1	generate/STIM_020.jpg	100
587.329	1.757	1757.0	generate	Run1	generate/STIM_021.jpg	99
591.986	3.489	3489.1	generate	Run1	generate/STIM_021.jpg	99
597.896	3.388	3388.3	generate	Run1	generate/STIM_021.jpg	100
604.418	3.177	3176.8	generate	Run1	generate/STIM_021.jpg	99
610.502	2.265	2264.6	generate	Run1	generate/STIM_021.jpg	99
616.106	2.672	2672.5	generate	Run1	generate/STIM_022.jpg	100
621.074	3.111	3110.8	generate	Run1	generate/STIM_022.jpg	100
627.336	3.123	3122.9	generate	Run1	generate/STIM_022.jpg	100
633.085	2.413	2413.1	generate	Run1	generate/STIM_022.jpg	100
639.214	3.256	3256.3	generate	Run1	generate/STIM_022.jpg	100
646.21	1.781	1781.2	generate	Run1	generate/STIM_023.jpg	100
651.298	3.021	3021.4	generate	Run1	generate/STIM_023.jpg	99
658.159	1.531	1531.4	generate	Run1	generate/STIM_023.jpg	99
662.463	1.474	1474.4	generate	Run1	generate/STIM_023.jpg	99
666.703	2.207	2207.4	generate	Run1	generate/STIM_023.jpg	100
671.157	3.67	3669.7	generate	Run1	generate/STIM_024.jpg	99
678.051	1.982	1982.4	generate	Run1	generate/STIM_024.jpg	100
682.624	2.842	2841.6	generate	Run1	generate/STIM_024.jpg	100
687.636	2.902	2902.3	generate	Run1	generate/STIM_024.jpg	99
692.773	1.765	1764.7	generate	Run1	generate/STIM_024.jpg	100
696.915	0.814	814.3	repeat	Run1	repeat/STIM_000.jpg	99
701.102	1.17	1169.9	repeat	Run1	repeat/STIM_000.jpg	99
706.072	0.795	794.6	repeat	Run1	repeat/STIM_000.jpg	99
710.507	1.192	1192.2	repeat	Run1	repeat/STIM_000.jpg	100
715.537	0.722	722.1	repeat	Run1	repeat/STIM_000.jpg	99
719.973	0.847	846.8	repeat	Run1	repeat/STIM_001.jpg	99
723.365	0.862	862.3	repeat	Run1	repeat/STIM_001.jpg	100
726.295	1.053	1052.7	repeat	Run1	repeat/STIM_001.jpg	99
730.045	0.719	719.2	repeat	Run1	repeat/STIM_001.jpg	99
733.245	1.311	1310.9	repeat	Run1	repeat/STIM_001.jpg	99
737.332	1.083	1083.0	repeat	Run1	repeat/STIM_002.jpg	99
741.488	1.376	1376.4	repeat	Run1	repeat/STIM_002.jpg	100
746.132	0.839	839.4	repeat	Run1	repeat/STIM_002.jpg	99
750.383	1.404	1404.2	repeat	Run1	repeat/STIM_002.jpg	100
754.013	1.153	1153.2	repeat	Run1	repeat/STIM_002.jpg	100
759.148	0.881	880.6	repeat	Run1	repeat/STIM_003.jpg	99
762.351	0.742	741.6	repeat	Run1	repeat/STIM_003.jpg	99
765.632	1.033	1032.8	repeat	Run1	repeat/STIM_003.jpg	99
770.581	0.746	746.1	repeat	Run1	repeat/STIM_003.jpg	100
775.006	0.827	826.8	repeat	Run1	repeat/STIM_003.jpg	99
778.278	1.161	1161.1	repeat	Run1	repeat/STIM_004.jpg	100
781.554	0.768	768.3	repeat	Run1	repeat/STIM_004.jpg	99
784.39	0.906	905.8	repeat	Run1	repeat/STIM_004.jpg	100
789.239	1.388	1388.1	repeat	Run1	repeat/STIM_004.jpg	99
793.371	1.199	1199.2	repeat	Run1	repeat/STIM_004.jpg	99
797.547	1.042	1041.6	repeat	Run1	repeat/STIM_005.jpg	100
801.221	0.924	924.3	repeat	Run1	repeat/STIM_005.jpg	99
804.384	1.175	1175.4	repeat	Run1	repeat/STIM_005.jpg	100
809.009	1.356	1356.0	repeat	Run1	repeat/STIM_005.jpg	99
812.913	1.277	1277.4	repeat	Run1	repeat/STIM_005.jpg	100
816.824	1.209	1209.0	repeat	Run1	repeat/STIM_006.jpg	99
821.183	0.9	900.3	repeat	Run1	repeat/STIM_006.jpg	99
825.519	0.969	969.4	repeat	Run1	repeat/STIM_006.jpg	99
829.151	0.886	885.7	repeat	Run1	repeat/STIM_006.jpg	99
833.776	0.989	989.0	repeat	Run1	repeat/STIM_006.jpg	100
838.34	0.747	747.0	repeat	Run1	repeat/STIM_007.jpg	100
841.713	0.988	988.5	repeat	Run1	repeat/STIM_007.jpg	99
845.212	1.185	1184.8	repeat	Run1	repeat/STIM_007.jpg	100
849.575	1.318	1317.8	repeat	Run1	repeat/STIM_007.jpg	100
854.711	1.345	1344.9	repeat	Run1	repeat/STIM_007.jpg	99
858.883	1.355	1354.6	repeat	Run1	repeat/STIM_008.jpg	99
864.003	1.269	1269.3	repeat	Run1	repeat/STIM_008.jpg	100
867.415	1.114	1114.2	repeat	Run1	repeat/STIM_008.jpg	100
871.285	1.075	1074.7	repeat	Run1	repeat/STIM_008.jpg	100
876.064	1.0	999.7	repeat	Run1	repeat/STIM_008.jpg	100
879.4	1.398	1398.1	repeat	Run1	repeat/STIM_009.jpg	100
884.15	1.221	1221.4	repeat	Run1	repeat/STIM_009.jpg	99
887.644	1.339	1339.3	repeat	Run1	repeat/STIM_009.jpg	99
891.052	1.068	1068.3	repeat	Run1	repeat/STIM_009.jpg	99
894.299	1.262	1262.0	repeat	Run1	repeat/STIM_009.jpg	100
897.877	0.777	776.7	repeat	Run1	repeat/STIM_010.jpg	99
901.457	0.806	805.7	repeat	Run1	repeat/STIM_010.jpg	100
904.606	0.965	964.8	repeat	Run1	repeat/STIM_010.jpg	100
907.596	1.125	1124.8	repeat	Run1	repeat/STIM_010.jpg	100
912.143	1.402	1401.9	repeat	Run1	repeat/STIM_010.jpg	99
916.468	0.866	866.0	repeat	Run1	repeat/STIM_011.jpg	99
921.323	1.245	1244.6	repeat	Run1	repeat/STIM_011.jpg	100
925.729	1.347	1347.0	repeat	Run1	repeat/STIM_011.jpg	99
930.687	1.323	1323.0	repeat	Run1	repeat/STIM_011.jpg	99
935.324	0.912	912.0	repeat	Run1	repeat/STIM_011.jpg	100
938.59	1.313	1313.3	repeat	Run1	repeat/STIM_012.jpg	99
943.016	0.706	706.1	repeat	Run1	repeat/STIM_012.jpg	100
947.051	1.04	1039.9	repeat	Run1	repeat/STIM_012.jpg	100
951.342	0.751	750.7	repeat	Run1	repeat/STIM_012.jpg	99
955.246	1.239	1238.9	repeat	Run1	repeat/STIM_012.jpg	100
958.855	0.778	778.0	repeat	Run1	repeat/STIM_013.jpg	100
962.906	1.084	1083.7	repeat	Run1	repeat/STIM_013.jpg	100
967.802	1.338	1338.0	repeat	Run1	repeat/STIM_013.jpg	100
972.554	0.857	857.2	repeat	Run1	repeat/STIM_013.jpg	99
977.015	1.323	1323.0	repeat	Run1	repeat/STIM_013.jpg	100
981.537	0.969	969.4	repeat	Run1	repeat/STIM_014.jpg	99
985.286	0.985	984.7	repeat	Run1	repeat/STIM_014.jpg	99
989.754	0.831	831.0	repeat	Run1	repeat/STIM_014.jpg	99
994.273	0.917	917.1	repeat	Run1	repeat/STIM_014.jpg	100
998.721	1.255	1255.2	repeat	Run1	repeat/STIM_014.jpg	99
1002.706	3.488	3488.3	generate	Run2	generate/STIM_000.jpg	100
1009.139	2.317	2317.3	generate	Run2	generate/STIM_000.jpg	99
1013.567	1.4	1400.1	generate	Run2	generate/STIM_000.jpg	99
1018.518	1.566	1566.5	generate	Run2	generate/STIM_000.jpg	100
1022.349	1.636	1636.0	generate	Run2	generate/STIM_000.jpg	100
1026.882	3.214	3213.9	generate	Run2	generate/STIM_001.jpg	99
1032.421	2.24	2239.9	generate	Run2	generate/STIM_001.jpg	99
1038.596	1.42	1420.4	generate	Run2	generate/STIM_001.jpg	100
1042.29	2.704	2703.7	generate	Run2	generate/STIM_001.jpg	99
1047.413	2.222	2221.5	generate	Run2	generate/STIM_001.jpg	100
1052.145	1.459	1458.7	generate	Run2	generate/STIM_002.jpg	99
1056.377	3.113	3112.8	generate	Run2	generate/STIM_002.jpg	100
1062.384	2.072	2071.5	generate	Run2	generate/STIM_002.jpg	100
1067.369	1.411	1411.2	generate	Run2	generate/STIM_002.jpg	100
1071.266	2.76	2760.0	generate	Run2	generate/STIM_002.jpg	99
1077.904	2.0	1999.7	generate	Run2	generate/STIM_003.jpg	100
1082.639	2.623	2622.7	generate	Run2	generate/STIM_003.jpg	99
1087.536	2.846	2845.5	generate	Run2	generate/STIM_003.jpg	99
1092.972	2.913	2912.7	generate	Run2	generate/STIM_003.jpg	100
1098.282	2.751	2751.4	generate	Run2	generate/STIM_003.jpg	100
1104.848	3.01	3010.2	generate	Run2	generate/STIM_004.jpg	100
1111.714	1.879	1878.8	generate	Run2	generate/STIM_004.jpg	100
1116.973	1.74	1739.9	generate	Run2	generate/STIM_004.jpg	100
1121.161	1.218	1218.1	generate	Run2	generate/STIM_004.jpg	99
1124.554	2.88	2880.5	generate	Run2	generate/STIM_004.jpg	99
1129.448	2.426	2426.0	generate	Run2	generate/STIM_005.jpg	100
1133.889	2.438	2437.5	generate	Run2	generate/STIM_005.jpg	99
1139.406	2.456	2455.7	generate	Run2	generate/STIM_005.jpg	99
1144.155	1.56	1560.1	generate	Run2	generate/STIM_005.jpg	100
1148.237	2.134	2133.5	generate	Run2	generate/STIM_005.jpg	100
1154.295	2.025	2024.8	generate	Run2	generate/STIM_006.jpg	100
1160.256	2.052	2051.5	generate	Run2	generate/STIM_006.jpg	100
1164.845	1.863	1863.3	generate	Run2	generate/STIM_006.jpg	99
1169.963	2.29	2290.2	generate	Run2	generate/STIM_006.jpg	99
1175.593	2.221	2220.7	generate	Run2	generate/STIM_006.jpg	99
1181.309	2.292	2291.8	generate	Run2	generate/STIM_007.jpg	99
1186.033	2.844	2843.6	generate	Run2	generate/STIM_007.jpg	99
1192.577	2.258	2258.0	generate	Run2	generate/STIM_007.jpg	99
1198.369	1.949	1948.9	generate	Run2	generate/STIM_007.jpg	100
1202.826	1.635	1634.8	generate	Run2	generate/STIM_007.jpg	99
1206.94	2.212	2211.5	generate	Run2	generate/STIM_008.jpg	100
1211.7	2.804	2804.4	generate	Run2	generate/STIM_008.jpg	100
1217.899	2.156	2155.6	generate	Run2	generate/STIM_008.jpg	99
1222.768	2.353	2353.0	generate	Run2	generate/STIM_008.jpg	100
1228.975	2.037	2036.6	generate	Run2	generate/STIM_008.jpg	99
1233.586	3.271	3271.4	generate	Run2	generate/STIM_009.jpg	100
1239.152	2.084	2083.5	generate	Run2	generate/STIM_009.jpg	100
1245.026	2.689	2689.0	generate	Run2	generate/STIM_009.jpg	99
1250.818	1.812	1812.2	generate	Run2	generate/STIM_009.jpg	100
1255.966	1.872	1872.1	generate	Run2	generate/STIM_009.jpg	100
1260.159	3.384	3383.7	generate	Run2	generate/STIM_010.jpg	99
1267.417	2.307	2307.4	generate	Run2	generate/STIM_010.jpg	99
1272.83	2.295	2294.6	generate	Run2	generate/STIM_010.jpg	100
1278.842	1.527	1527.2	generate	Run2	generate/STIM_010.jpg	100
1284.246	2.416	2415.9	generate	Run2	generate/STIM_010.jpg	100
1289.313	2.436	2436.3	generate	Run2	generate/STIM_011.jpg	99
1293.831	1.361	1361.3	generate	Run2	generate/STIM_011.jpg	99
1297.205	2.595	2595.2	generate	Run2	generate/STIM_011.jpg	99
1302.87	1.848	1847.9	generate	Run2	generate/STIM_011.jpg	100
1308.419	2.511	2511.1	generate	Run2	generate/STIM_011.jpg	99
1313.844	3.548	3547.5	generate	Run2	generate/STIM_012.jpg	99
1319.968	2.005	2004.6	generate	Run2	generate/STIM_012.jpg	99
1324.893	1.705	1705.3	generate	Run2	generate/STIM_012.jpg	99
1330.056	2.066	2065.5	generate	Run2	generate/STIM_012.jpg	100
1335.395	2.435	2435.4	generate	Run2	generate/STIM_012.jpg	99
1340.338	1.556	1555.8	generate	Run2	generate/STIM_013.jpg	99
1344.674	2.83	2830.5	generate	Run2	generate/STIM_013.jpg	100
1350.865	1.28	1280.5	generate	Run2	generate/STIM_013.jpg	99
1354.335	2.614	2613.5	generate	Run2	generate/STIM_013.jpg	100
1359.473	2.074	2073.7	generate	Run2	generate/STIM_013.jpg	99
1363.899	3.336	3336.5	generate	Run2	generate/STIM_014.jpg	100
1369.642	1.897	1896.8	generate	Run2	generate/STIM_014.jpg	99
1374.393	1.93	1930.2	generate	Run2	generate/STIM_014.jpg	100
1380.153	1.735	1735.2	generate	Run2	generate/STIM_014.jpg	100
1384.707	1.782	1782.1	generate	Run2	generate/STIM_014.jpg	99
1390.356	1.563	1562.8	generate	Run2	generate/STIM_015.jpg	100
1395.917	2.92	2920.2	generate	Run2	generate/STIM_015.jpg	99
1401.875	2.748	2747.9	generate	Run2	generate/STIM_015.jpg	100
1407.295	2.503	2502.6	generate	Run2	generate/STIM_015.jpg	99
1412.602	1.894	1893.6	generate	Run2	generate/STIM_015.jpg	99
1418.049	3.542	3542.2	generate	Run2	generate/STIM_016.jpg	99
1424.798	2.762	2761.5	generate	Run2	generate/STIM_016.jpg	99
1430.295	1.301	1300.9	generate	Run2	generate/STIM_016.jpg	100
1434.05	1.868	1867.5	generate	Run2	generate/STIM_016.jpg	100
1438.445	2.676	2675.9	generate	Run2	generate/STIM_016.jpg	100
1444.198	3.354	3353.6	generate	Run2	generate/STIM_017.jpg	99
1451.411	3.235	3235.1	generate	Run2	generate/STIM_017.jpg	100
1457.105	2.347	2346.8	generate	Run2	generate/STIM_017.jpg	100
1463.177	1.291	1290.6	generate	Run2	generate/STIM_017.jpg	99
1466.833	2.694	2693.5	generate	Run2	generate/STIM_017.jpg	100
1471.683	3.162	3161.8	generate	Run2	generate/STIM_018.jpg	99
1477.097	2.059	2058.9	generate	Run2	generate/STIM_018.jpg	100
1481.496	2.21	2209.6	generate	Run2	generate/STIM_018.jpg	99
1485.718	1.784	1783.5	generate	Run2	generate/STIM_018.jpg	99
1489.911	1.587	1587.1	generate	Run2	generate/STIM_018.jpg	99
1494.074	2.789	2789.1	generate	Run2	generate/STIM_019.jpg	100
1500.739	3.09	3090.2	generate	Run2	generate/STIM_019.jpg	99
1507.324	2.294	2294.1	generate	Run2	generate/STIM_019.jpg	100
1512.238	2.016	2016.2	generate	Run2	generate/STIM_019.jpg	100
1517.78	1.984	1984.2	generate	Run2	generate/STIM_019.jpg	100
1523.182	3.406	3405.6	generate	Run2	generate/STIM_020.jpg	100
1529.061	2.059	2058.6	generate	Run2	generate/STIM_020.jpg	99
1533.513	1.491	1491.3	generate	Run2	generate/STIM_020.jpg	99
1537.588	2.85	2849.6	generate	Run2	generate/STIM_020.jpg	99
1543.044	1.737	1737.3	generate	Run2	generate/STIM_020.jpg	99
1547.671	1.555	1555.1	generate	Run2	generate/STIM_021.jpg	99
1551.274	1.504	1503.8	generate	Run2	generate/STIM_021.jpg	99
1554.879	2.053	2052.7	generate	Run2	generate/STIM_021.jpg	99
1559.732	1.6	1599.7	generate	Run2	generate/STIM_021.jpg	100
1564.431	1.274	1274.4	generate	Run2	generate/STIM_021.jpg	99
1568.85	3.202	3202.5	generate	Run2	generate/STIM_022.jpg	100
1574.81	3.024	3024.1	generate	Run2	generate/STIM_022.jpg	100
1580.34	2.332	2332.1	generate	Run2	generate/STIM_022.jpg	99
1585.529	2.711	2711.2	generate	Run2	generate/STIM_022.jpg	100
1591.065	1.977	1976.9	generate	Run2	generate/STIM_022.jpg	100
1596.64	3.44	3439.5	generate	Run2	generate/STIM_023.jpg	99
1602.978	1.567	1567.4	generate	Run2	generate/STIM_023.jpg	100
1607.382	2.52	2520.3	generate	Run2	generate/STIM_023.jpg	99
1611.914	1.255	1255.3	generate	Run2	generate/STIM_023.jpg	100
1615.497	2.029	2028.8	generate	Run2	generate/STIM_023.jpg	100
1620.641	2.107	2107.1	generate	Run2	generate/STIM_024.jpg	100
1625.09	2.363	2362.8	generate	Run2	generate/STIM_024.jpg	100
1631.36	1.66	1660.0	generate	Run2	generate/STIM_024.jpg	100
1635.38	1.928	1927.8	generate	Run2	generate/STIM_024.jpg	99
1640.947	1.65	1649.7	generate	Run2	generate/STIM_024.jpg	100
1645.054	0.838	838.2	repeat	Run2	repeat/STIM_000.jpg	100
1648.768	1.319	1319.3	repeat	Run2	repeat/STIM_000.jpg	99
1652.432	1.007	1007.1	repeat	Run2	repeat/STIM_000.jpg	99
1656.147	0.982	981.9	repeat	Run2	repeat/STIM_000.jpg	100
1660.038	1.14	1140.5	repeat	Run2	repeat/STIM_000.jpg	100
1664.176	1.151	1151.4	repeat	Run2	repeat/STIM_001.jpg	100
1669.126	1.132	1132.2	repeat	Run2	repeat/STIM_001.jpg	99
1672.686	0.721	721.1	repeat	Run2	repeat/STIM_001.jpg	100
1677.243	1.281	1280.7	repeat	Run2	repeat/STIM_001.jpg	99
1681.841	1.346	1345.5	repeat	Run2	repeat/STIM_001.jpg	99
1686.782	0.73	730.3	repeat	Run2	repeat/STIM_002.jpg	99
1690.439	1.398	1398.5	repeat	Run2	repeat/STIM_002.jpg	100
1694.172	0.775	774.6	repeat	Run2	repeat/STIM_002.jpg	100
1698.669	0.98	980.1	repeat	Run2	repeat/STIM_002.jpg	100
1703.466	1.39	1390.4	repeat	Run2	repeat/STIM_002.jpg	100
1707.973	0.815	815.1	repeat	Run2	repeat/STIM_003.jpg	99
1712.588	1.185	1185.0	repeat	Run2	repeat/STIM_003.jpg	100
1716.739	0.846	846.1	repeat	Run2	repeat/STIM_003.jpg	100
1720.878	1.166	1166.1	repeat	Run2	repeat/STIM_003.jpg	100
1725.388	1.092	1091.8	repeat	Run2	repeat/STIM_003.jpg	99
1729.142	1.021	1021.2	repeat	Run2	repeat/STIM_004.jpg	99
1733.999	0.729	728.7	repeat	Run2	repeat/STIM_004.jpg	100
1737.923	0.843	843.2	repeat	Run2	repeat/STIM_004.jpg	99
1740.864	0.746	745.8	repeat	Run2	repeat/STIM_004.jpg	100
1745.173	1.302	1302.5	repeat	Run2	repeat/STIM_004.jpg	99
1749.498	0.977	976.7	repeat	Run2	repeat/STIM_005.jpg	99
1752.998	1.162	1162.1	repeat	Run2	repeat/STIM_005.jpg	99
1757.884	0.922	922.2	repeat	Run2	repeat/STIM_005.jpg	100
1761.413	0.985	985.3	repeat	Run2	repeat/STIM_005.jpg	99
1764.971	1.091	1091.1	repeat	Run2	repeat/STIM_005.jpg	99
1769.826	1.14	1139.6	repeat	Run2	repeat/STIM_006.jpg	99
1773.813	1.197	1197.0	repeat	Run2	repeat/STIM_006.jpg	100
1778.564	0.746	746.0	repeat	Run2	repeat/STIM_006.jpg	99
1782.274	1.014	1013.9	repeat	Run2	repeat/STIM_006.jpg	99
1785.435	1.007	1006.9	repeat	Run2	repeat/STIM_006.jpg	100
1789.938	0.876	876.3	repeat	Run2	repeat/STIM_007.jpg	99
1794.601	0.943	943.3	repeat	Run2	repeat/STIM_007.jpg	99
1799.324	1.256	1255.6	repeat	Run2	repeat/STIM_007.jpg	99
1803.596	0.965	965.3	repeat	Run2	repeat/STIM_007.jpg	100
1807.057	1.109	1108.8	repeat	Run2	repeat/STIM_007.jpg	99
1811.133	1.143	1142.9	repeat	Run2	repeat/STIM_008.jpg	99
1814.763	0.728	727.9	repeat	Run2	repeat/STIM_008.jpg	100
1818.716	1.12	1119.8	repeat	Run2	repeat/STIM_008.jpg	99
1823.226	1.093	1093.1	repeat	Run2	repeat/STIM_008.jpg	100
1827.165	1.12	1120.2	repeat	Run2	repeat/STIM_008.jpg	99
1831.807	1.021	1021.0	repeat	Run2	repeat/STIM_009.jpg	100
1835.563	1.08	1080.1	repeat	Run2	repeat/STIM_009.jpg	99
1840.225	1.364	1363.8	repeat	Run2	repeat/STIM_009.jpg	99
1844.383	0.972	972.4	repeat	Run2	repeat/STIM_009.jpg	100
1848.067	1.181	1181.4	repeat	Run2	repeat/STIM_009.jpg	100
1851.618	1.234	1234.3	repeat	Run2	repeat/STIM_010.jpg	100
1855.16	0.872	872.0	repeat	Run2	repeat/STIM_010.jpg	99
1859.317	0.796	796.1	repeat	Run2	repeat/STIM_010.jpg	100
1863.38	0.984	983.9	repeat	Run2	repeat/STIM_010.jpg	99
1867.45	1.164	1163.7	repeat	Run2	repeat/STIM_010.jpg	100
1871.616	1.017	1016.8	repeat	Run2	repeat/STIM_011.jpg	100
1875.536	1.102	1102.5	repeat	Run2	repeat/STIM_011.jpg	99
1878.704	0.792	791.7	repeat	Run2	repeat/STIM_011.jpg	100
1882.303	0.874	873.8	repeat	Run2	repeat/STIM_011.jpg	100
1886.78	1.014	1013.7	repeat	Run2	repeat/STIM_011.jpg	100
1891.603	1.152	1152.2	repeat	Run2	repeat/STIM_012.jpg	100
1894.793	1.123	1123.2	repeat	Run2	repeat/STIM_012.jpg	100
1898.317	0.833	832.6	repeat	Run2	repeat/STIM_012.jpg	99
1902.747	0.86	859.9	repeat	Run2	repeat/STIM_012.jpg	100
1906.605	1.301	1301.1	repeat	Run2	repeat/STIM_012.jpg	99
1910.096	1.147	1146.6	repeat	Run2	repeat/STIM_013.jpg	99
1915.022	1.371	1370.6	repeat	Run2	repeat/STIM_013.jpg	100
1919.567	1.13	1129.5	repeat	Run2	repeat/STIM_013.jpg	100
1922.9	0.965	965.1	repeat	Run2	repeat/STIM_013.jpg	100
1927.861	1.249	1248.8	repeat	Run2	repeat/STIM_013.jpg	100
1932.358	0.984	984.1	repeat	Run2	repeat/STIM_014.jpg	100
1936.698	1.264	1263.8	repeat	Run2	repeat/STIM_014.jpg	100
1939.976	0.935	934.7	repeat	Run2	repeat/STIM_014.jpg	100
1943.096	0.783	783.2	repeat	Run2	repeat/STIM_014.jpg	100
1945.898	1.265	1265.1	repeat	Run2	repeat/STIM_014.jpg	99
1950.833	1.741	1741.1	generate	Run3	generate/STIM_000.jpg	99
1955.991	1.341	1341.1	generate	Run3	generate/STIM_000.jpg	99
1961.286	1.298	1297.7	generate	Run3	generate/STIM_000.jpg	100
1965.426	1.233	1232.9	generate	Run3	generate/STIM_000.jpg	99
1969.237	2.434	2434.3	generate	Run3	generate/STIM_000.jpg	100
1974.927	2.455	2455.3	generate	Run3	generate/STIM_001.jpg	100
1979.811	1.334	1333.9	generate	Run3	generate/STIM_001.jpg	100
1984.908	1.233	1232.6	generate	Run3	generate/STIM_001.jpg	99
1988.606	2.414	2414.0	generate	Run3	generate/STIM_001.jpg	100
1993.363	2.806	2806.0	generate	Run3	generate/STIM_001.jpg	99
1998.361	2.908	2907.6	generate	Run3	generate/STIM_002.jpg	99
2003.525	1.439	1438.7	generate	Run3	generate/STIM_002.jpg	100
2007.346	1.544	1543.9	generate	Run3	generate/STIM_002.jpg	100
2011.943	2.713	2712.8	generate	Run3	generate/STIM_002.jpg	99
2018.147	2.396	2396.5	generate	Run3	generate/STIM_002.jpg	99
2024.09	1.849	1848.7	generate	Run3	generate/STIM_003.jpg	100
2028.087	2.046	2045.6	generate	Run3	generate/STIM_003.jpg	99
2032.829	2.092	2091.8	generate	Run3	generate/STIM_003.jpg	99
2037.211	2.422	2422.5	generate	Run3	generate/STIM_003.jpg	100
2042.863	2.745	2745.0	generate	Run3	generate/STIM_003.jpg	99
2048.564	1.532	1532.0	generate	Run3	generate/STIM_004.jpg	100
2054.024	1.579	1579.4	generate	Run3	generate/STIM_004.jpg	100
2058.551	1.741	1740.9	generate	Run3	generate/STIM_004.jpg	99
2063.286	2.747	2747.1	generate	Run3	generate/STIM_004.jpg	100
2068.412	1.72	1719.6	generate	Run3	generate/STIM_004.jpg	100
2073.544	2.666	2665.5	generate	Run3	generate/STIM_005.jpg	99
2078.663	2.061	2061.2	generate	Run3	generate/STIM_005.jpg	99
2083.781	2.616	2615.7	generate	Run3	generate/STIM_005.jpg	99
2088.444	2.837	2837.1	generate	Run3	generate/STIM_005.jpg	100
2093.464	1.829	1829.4	generate	Run3	generate/STIM_005.jpg	99
2098.964	2.415	2415.2	generate	Run3	generate/STIM_006.jpg	99
2104.732	2.362	2362.1	generate	Run3	generate/STIM_006.jpg	100
2109.472	1.304	1304.0	generate	Run3	generate/STIM_006.jpg	100
2114.208	1.226	1226.2	generate	Run3	generate/STIM_006.jpg	100
2118.202	2.393	2393.1	generate	Run3	generate/STIM_006.jpg	100
2123.299	2.852	2851.9	generate	Run3	generate/STIM_007.jpg	99
2128.608	1.539	1538.7	generate	Run3	generate/STIM_007.jpg	99
2132.615	2.333	2332.6	generate	Run3	generate/STIM_007.jpg	100
2137.753	2.71	2709.5	generate	Run3	generate/STIM_007.jpg	99
2144.447	1.379	1379.4	generate	Run3	generate/STIM_007.jpg	99
2149.292	1.672	1672.3	generate	Run3	generate/STIM_008.jpg	100
2154.273	1.539	1539.3	generate	Run3	generate/STIM_008.jpg	99
2158.238	1.374	1374.5	generate	Run3	generate/STIM_008.jpg	100
2162.939	1.386	1386.4	generate	Run3	generate/STIM_008.jpg	100
2168.04	1.326	1325.5	generate	Run3	generate/STIM_008.jpg	100
2173.355	2.657	2656.7	generate	Run3	generate/STIM_009.jpg	100
2178.046	1.724	1723.6	generate	Run3	generate/STIM_009.jpg	100
2181.879	1.628	1628.5	generate	Run3	generate/STIM_009.jpg	99
2186.504	1.394	1393.7	generate	Run3	generate/STIM_009.jpg	100
2190.338	1.338	1338.0	generate	Run3	generate/STIM_009.jpg	99
2194.84	2.942	2941.5	generate	Run3	generate/STIM_010.jpg	100
2200.775	1.445	1444.8	generate	Run3	generate/STIM_010.jpg	99
2204.633	1.64	1639.8	generate	Run3	generate/STIM_010.jpg	99
2209.71	1.894	1894.4	generate	Run3	generate/STIM_010.jpg	99
2214.498	2.57	2569.9	generate	Run3	generate/STIM_010.jpg	99
2219.088	1.52	1519.7	generate	Run3	generate/STIM_011.jpg	99
2223.416	2.852	2851.6	generate	Run3	generate/STIM_011.jpg	99
2230.033	2.519	2518.7	generate	Run3	generate/STIM_011.jpg	100
2235.089	1.621	1621.0	generate	Run3	generate/STIM_011.jpg	99
2238.78	1.443	1443.2	generate	Run3	generate/STIM_011.jpg	100
2243.24	1.932	1931.7	generate	Run3	generate/STIM_012.jpg	99
2249.12	2.09	2089.6	generate	Run3	generate/STIM_012.jpg	99
2254.955	2.711	2711.3	generate	Run3	generate/STIM_012.jpg	100
2261.608	2.37	2370.3	generate	Run3	generate/STIM_012.jpg	100
2267.196	2.11	2110.3	generate	Run3	generate/STIM_012.jpg	99
2271.534	1.628	1627.9	generate	Run3	generate/STIM_013.jpg	100
2276.934	2.53	2530.5	generate	Run3	generate/STIM_013.jpg	100
2282.936	2.187	2186.7	generate	Run3	generate/STIM_013.jpg	99
2288.378	2.797	2797.4	generate	Run3	generate/STIM_013.jpg	100
2293.31	2.158	2158.0	generate	Run3	generate/STIM_013.jpg	100
2298.658	1.836	1836.2	generate	Run3	generate/STIM_014.jpg	100
2303.548	1.268	1267.5	generate	Run3	generate/STIM_014.jpg	99
2307.73	1.886	1886.0	generate	Run3	generate/STIM_014.jpg	100
2312.384	2.141	2140.8	generate	Run3	generate/STIM_014.jpg	100
2317.74	1.208	1207.6	generate	Run3	generate/STIM_014.jpg	100
2322.787	1.269	1268.8	generate	Run3	generate/STIM_015.jpg	99
2326.898	1.797	1797.4	generate	Run3	generate/STIM_015.jpg	99
2331.405	1.516	1515.7	generate	Run3	generate/STIM_015.jpg	100
2334.983	1.402	1402.0	generate	Run3	generate/STIM_015.jpg	99
2339.418	1.613	1612.9	generate	Run3	generate/STIM_015.jpg	99
2343.952	1.341	1340.8	generate	Run3	generate/STIM_016.jpg	100
2347.997	2.469	2469.2	generate	Run3	generate/STIM_016.jpg	100
2352.801	2.303	2303.1	generate	Run3	generate/STIM_016.jpg	100
2358.385	2.187	2187.4	generate	Run3	generate/STIM_016.jpg	99
2363.768	2.394	2394.1	generate	Run3	generate/STIM_016.jpg	100
2368.627	1.533	1533.0	generate	Run3	generate/STIM_017.jpg	99
2372.948	2.102	2102.4	generate	Run3	generate/STIM_017.jpg	99
2377.164	2.105	2104.6	generate	Run3	generate/STIM_017.jpg	99
2382.136	2.027	2027.2	generate	Run3	generate/STIM_017.jpg	100
2388.124	2.729	2729.3	generate	Run3	generate/STIM_017.jpg	100
2393.392	1.877	1876.9	generate	Run3	generate/STIM_018.jpg	99
2398.853	2.58	2580.5	generate	Run3	generate/STIM_018.jpg	100
2404.462	2.751	2751.2	generate	Run3	generate/STIM_018.jpg	99
2410.218	1.943	1943.0	generate	Run3	generate/STIM_018.jpg	99
2415.838	2.088	2088.3	generate	Run3	generate/STIM_018.jpg	100
2420.91	1.626	1626.0	generate	Run3	generate/STIM_019.jpg	99
2425.48	2.131	2131.2	generate	Run3	generate/STIM_019.jpg	100
2430.355	1.544	1543.8	generate	Run3	generate/STIM_019.jpg	99
2434.42	2.367	2366.7	generate	Run3	generate/STIM_019.jpg	100
2438.842	2.628	2628.0	generate	Run3	generate/STIM_019.jpg	100
2443.566	2.642	2641.8	generate	Run3	generate/STIM_020.jpg	99
2448.76	1.275	1275.1	generate	Run3	generate/STIM_020.jpg	99
2453.291	1.513	1512.7	generate	Run3	generate/STIM_020.jpg	100
2458.186	2.777	2776.8	generate	Run3	generate/STIM_020.jpg	100
2463.679	2.086	2085.8	generate	Run3	generate/STIM_020.jpg	99
2468.758	2.601	2601.0	generate	Run3	generate/STIM_021.jpg	99
2475.253	1.387	1387.3	generate	Run3	generate/STIM_021.jpg	100
2479.168	2.841	2841.0	generate	Run3	generate/STIM_021.jpg	99
2484.602	2.893	2892.6	generate	Run3	generate/STIM_021.jpg	100
2490.755	1.667	1667.0	generate	Run3	generate/STIM_021.jpg	99
2496.37	1.267	1267.3	generate	Run3	generate/STIM_022.jpg	100
2499.859	2.028	2028.3	generate	Run3	generate/STIM_022.jpg	100
2505.515	1.648	1647.7	generate	Run3	generate/STIM_022.jpg	100
2510.55	2.198	2198.5	generate	Run3	generate/STIM_022.jpg	99
2515.552	1.708	1707.9	generate	Run3	generate/STIM_022.jpg	99
2520.653	2.689	2689.0	generate	Run3	generate/STIM_023.jpg	99
2526.497	2.662	2661.5	generate	Run3	generate/STIM_023.jpg	100
2532.381	1.775	1775.2	generate	Run3	generate/STIM_023.jpg	100
2538.017	2.455	2454.7	generate	Run3	generate/STIM_023.jpg	100
2542.981	1.386	1385.5	generate	Run3	generate/STIM_023.jpg	99
2548.244	1.645	1644.6	generate	Run3	generate/STIM_024.jpg	100
2552.976	2.469	2468.7	generate	Run3	generate/STIM_024.jpg	100
2557.726	2.946	2946.2	generate	Run3	generate/STIM_024.jpg	100
2563.07	2.674	2674.1	generate	Run3	generate/STIM_024.jpg	99
2568.004	2.629	2629.0	generate	Run3	generate/STIM_024.jpg	100
2573.176	1.011	1011.0	repeat	Run3	repeat/STIM_000.jpg	100
2576.603	0.773	772.6	repeat	Run3	repeat/STIM_000.jpg	99
2579.835	1.363	1362.8	repeat	Run3	repeat/STIM_000.jpg	100
2583.243	1.043	1043.4	repeat	Run3	repeat/STIM_000.jpg	99
2587.206	1.095	1094.7	repeat	Run3	repeat/STIM_000.jpg	99
2592.186	1.289	1288.9	repeat	Run3	repeat/STIM_001.jpg	100
2597.255	0.851	851.1	repeat	Run3	repeat/STIM_001.jpg	99
2601.737	1.067	1066.6	repeat	Run3	repeat/STIM_001.jpg	100
2604.805	0.924	923.7	repeat	Run3	repeat/STIM_001.jpg	100
2607.913	1.094	1094.4	repeat	Run3	repeat/STIM_001.jpg	100
2612.332	0.744	744.5	repeat	Run3	repeat/STIM_002.jpg	100
2616.519	1.218	1218.5	repeat	Run3	repeat/STIM_002.jpg	99
2619.925	1.258	1257.7	repeat	Run3	repeat/STIM_002.jpg	99
2623.582	0.912	911.7	repeat	Run3	repeat/STIM_002.jpg	100
2627.59	1.16	1160.1	repeat	Run3	repeat/STIM_002.jpg	100
2631.158	1.077	1077.2	repeat	Run3	repeat/STIM_003.jpg	99
2635.185	1.262	1261.5	repeat	Run3	repeat/STIM_003.jpg	100
2639.63	1.179	1178.8	repeat	Run3	repeat/STIM_003.jpg	99
2642.888	0.829	829.0	repeat	Run3	repeat/STIM_003.jpg	99
2646.886	1.172	1171.5	repeat	Run3	repeat/STIM_003.jpg	100
2650.972	1.32	1320.5	repeat	Run3	repeat/STIM_004.jpg	99
2655.298	1.106	1105.8	repeat	Run3	repeat/STIM_004.jpg	99
2660.195	1.168	1168.0	repeat	Run3	repeat/STIM_004.jpg	99
2663.494	1.29	1290.1	repeat	Run3	repeat/STIM_004.jpg	99
2668.33	1.114	1113.5	repeat	Run3	repeat/STIM_004.jpg	100
2672.658	1.153	1153.2	repeat	Run3	repeat/STIM_005.jpg	99
2676.908	0.964	963.7	repeat	Run3	repeat/STIM_005.jpg	100
2680.618	1.244	1244.2	repeat	Run3	repeat/STIM_005.jpg	99
2685.081	0.979	979.0	repeat	Run3	repeat/STIM_005.jpg	100
2688.75	1.115	1115.1	repeat	Run3	repeat/STIM_005.jpg	99
2693.765	0.745	745.4	repeat	Run3	repeat/STIM_006.jpg	99
2697.717	1.133	1133.4	repeat	Run3	repeat/STIM_006.jpg	99
2700.915	0.996	996.3	repeat	Run3	repeat/STIM_006.jpg	100
2704.461	1.294	1293.9	repeat	Run3	repeat/STIM_006.jpg	99
2709.446	1.091	1091.4	repeat	Run3	repeat/STIM_006.jpg	99
2713.87	1.246	1245.8	repeat	Run3	repeat/STIM_007.jpg	99
2718.702	0.737	737.1	repeat	Run3	repeat/STIM_007.jpg	100
2721.567	0.706	705.6	repeat	Run3	repeat/STIM_007.jpg	100
2724.293	1.317	1317.4	repeat	Run3	repeat/STIM_007.jpg	99
2728.761	1.018	1017.9	repeat	Run3	repeat/STIM_007.jpg	99
2732.977	0.798	797.9	repeat	Run3	repeat/STIM_008.jpg	100
2737.409	1.206	1206.0	repeat	Run3	repeat/STIM_008.jpg	100
2741.761	1.18	1180.5	repeat	Run3	repeat/STIM_008.jpg	100
2745.913	1.182	1182.0	repeat	Run3	repeat/STIM_008.jpg	100
2750.332	0.914	914.2	repeat	Run3	repeat/STIM_008.jpg	100
2754.48	1.331	1330.9	repeat	Run3	repeat/STIM_009.jpg	99
2759.538	1.063	1062.9	repeat	Run3	repeat/STIM_009.jpg	99
2763.253	1.042	1041.8	repeat	Run3	repeat/STIM_009.jpg	100
2767.174	1.083	1083.4	repeat	Run3	repeat/STIM_009.jpg	100
2771.286	1.025	1025.3	repeat	Run3	repeat/STIM_009.jpg	100
2774.463	1.319	1319.3	repeat	Run3	repeat/STIM_010.jpg	99
2778.905	1.114	1113.7	repeat	Run3	repeat/STIM_010.jpg	99
2782.51	1.354	1353.5	repeat	Run3	repeat/STIM_010.jpg	99
2787.813	0.842	841.7	repeat	Run3	repeat/STIM_010.jpg	100
2791.32	0.97	969.8	repeat	Run3	repeat/STIM_010.jpg	99
2795.033	1.147	1147.1	repeat	Run3	repeat/STIM_011.jpg	100
2798.447	1.294	1294.1	repeat	Run3	repeat/STIM_011.jpg	100
2803.145	0.992	992.0	repeat	Run3	repeat/STIM_011.jpg	99
2807.964	1.298	1298.3	repeat	Run3	repeat/STIM_011.jpg	100
2812.744	0.938	937.6	repeat	Run3	repeat/STIM_011.jpg	99
2816.357	0.777	777.2	repeat	Run3	repeat/STIM_012.jpg	99
2820.358	1.162	1161.5	repeat	Run3	repeat/STIM_012.jpg	100
2823.553	1.104	1103.7	repeat	Run3	repeat/STIM_012.jpg	99
2828.435	1.364	1364.1	repeat	Run3	repeat/STIM_012.jpg	100
2832.67	0.926	926.3	repeat	Run3	repeat/STIM_012.jpg	100
2836.656	0.922	921.7	repeat	Run3	repeat/STIM_013.jpg	99
2841.067	0.753	752.7	repeat	Run3	repeat/STIM_013.jpg	99
2845.135	1.344	1344.3	repeat	Run3	repeat/STIM_013.jpg	99
2849.726	1.234	1233.6	repeat	Run3	repeat/STIM_013.jpg	100
2853.139	1.167	1167.3	repeat	Run3	repeat/STIM_013.jpg	99
2857.979	0.832	832.1	repeat	Run3	repeat/STIM_014.jpg	100
2862.547	1.281	1281.4	repeat	Run3	repeat/STIM_014.jpg	100
2866.487	1.303	1303.2	repeat	Run3	repeat/STIM_014.jpg	100
2870.849	0.93	930.0	repeat	Run3	repeat/STIM_014.jpg	100
2875.062	0.72	719.6	repeat	Run3	repeat/STIM_014.jpg	99
2879.082	2.681	2680.9	generate	Run4	generate/STIM_000.jpg	99
2884.316	2.627	2627.1	generate	Run4	generate/STIM_000.jpg	100
2890.141	1.672	1672.0	generate	Run4	generate/STIM_000.jpg	100
2895.717	2.89	2890.5	generate	Run4	generate/STIM_000.jpg	99
2902.454	2.386	2385.5	generate	Run4	generate/STIM_000.jpg	99
2907.986	1.527	1526.8	generate	Run4	generate/STIM_001.jpg	99
2912.95	2.823	2822.8	generate	Run4	generate/STIM_001.jpg	100
2919.473	2.081	2081.1	generate	Run4	generate/STIM_001.jpg	99
2923.646	2.073	2073.0	generate	Run4	generate/STIM_001.jpg	99
2929.029	1.474	1474.2	generate	Run4	generate/STIM_001.jpg	99
2933.422	2.481	2480.8	generate	Run4	generate/STIM_002.jpg	99
2938.045	1.854	1854.1	generate	Run4	generate/STIM_002.jpg	100
2943.024	1.947	1947.2	generate	Run4	generate/STIM_002.jpg	99
2947.191	1.966	1966.4	generate	Run4	generate/STIM_002.jpg	100
2951.844	1.579	1579.1	generate	Run4	generate/STIM_002.jpg	99
2956.047	2.666	2666.3	generate	Run4	generate/STIM_003.jpg	100
2961.362	1.46	1459.6	generate	Run4	generate/STIM_003.jpg	100
2966.256	1.808	1808.3	generate	Run4	generate/STIM_003.jpg	99
2971.992	2.136	2136.4	generate	Run4	generate/STIM_003.jpg	100
2976.131	1.991	1990.9	generate	Run4	generate/STIM_003.jpg	99
2980.822	1.974	1974.3	generate	Run4	generate/STIM_004.jpg	99
2986.553	2.668	2667.8	generate	Run4	generate/STIM_004.jpg	99
2991.819	2.185	2185.4	generate	Run4	generate/STIM_004.jpg	100
2996.258	2.084	2083.9	generate	Run4	generate/STIM_004.jpg	100
3000.806	1.545	1545.1	generate	Run4	generate/STIM_004.jpg	100
3005.44	2.647	2646.8	generate	Run4	generate/STIM_005.jpg	99
3011.965	1.603	1603.2	generate	Run4	generate/STIM_005.jpg	100
3016.702	2.366	2366.4	generate	Run4	generate/STIM_005.jpg	100
3021.306	1.982	1982.0	generate	Run4	generate/STIM_005.jpg	99
3027.028	1.822	1822.5	generate	Run4	generate/STIM_005.jpg	99
3031.257	2.166	2166.0	generate	Run4	generate/STIM_006.jpg	99
3036.762	1.652	1651.7	generate	Run4	generate/STIM_006.jpg	100
3040.426	2.094	2093.6	generate	Run4	generate/STIM_006.jpg	100
3046.459	1.285	1285.2	generate	Run4	generate/STIM_006.jpg	99
3051.647	1.598	1598.3	generate	Run4	generate/STIM_006.jpg	99
3056.207	2.128	2128.0	generate	Run4	generate/STIM_007.jpg	100
3061.475	2.744	2744.4	generate	Run4	generate/STIM_007.jpg	99
3066.932	2.133	2132.9	generate	Run4	generate/STIM_007.jpg	99
3071.535	1.306	1306.4	generate	Run4	generate/STIM_007.jpg	99
3076.703	1.199	1198.8	generate	Run4	generate/STIM_007.jpg	100
3080.003	2.73	2729.6	generate	Run4	generate/STIM_008.jpg	99
3085.73	1.958	1958.2	generate	Run4	generate/STIM_008.jpg	100
3089.871	2.807	2806.6	generate	Run4	generate/STIM_008.jpg	99
3096.545	1.224	1223.6	generate	Run4	generate/STIM_008.jpg	99
3101.383	2.686	2686.5	generate	Run4	generate/STIM_008.jpg	99
3106.699	2.746	2746.4	generate	Run4	generate/STIM_009.jpg	100
3112.513	1.53	1529.5	generate	Run4	generate/STIM_009.jpg	100
3117.438	1.293	1292.9	generate	Run4	generate/STIM_009.jpg	100
3122.496	2.802	2802.4	generate	Run4	generate/STIM_009.jpg	99
3128.1	2.22	2220.1	generate	Run4	generate/STIM_009.jpg	100
3133.222	2.585	2585.1	generate	Run4	generate/STIM_010.jpg	100
3138.012	2.295	2294.7	generate	Run4	generate/STIM_010.jpg	99
3143.492	1.646	1646.3	generate	Run4	generate/STIM_010.jpg	99
3148.17	1.792	1792.1	generate	Run4	generate/STIM_010.jpg	100
3153.093	2.868	2868.4	generate	Run4	generate/STIM_010.jpg	99
3158.649	2.098	2098.1	generate	Run4	generate/STIM_011.jpg	99
3163.626	2.43	2430.0	generate	Run4	generate/STIM_011.jpg	100
3168.069	2.335	2334.9	generate	Run4	generate/STIM_011.jpg	99
3173.044	2.128	2128.2	generate	Run4	generate/STIM_011.jpg	99
3177.326	2.504	2503.9	generate	Run4	generate/STIM_011.jpg	99
3182.868	2.202	2202.0	generate	Run4	generate/STIM_012.jpg	100
3187.735	2.945	2945.4	generate	Run4	generate/STIM_012.jpg	100
3193.054	2.838	2838.2	generate	Run4	generate/STIM_012.jpg	100
3199.351	2.504	2503.9	generate	Run4	generate/STIM_012.jpg	100
3205.207	1.675	1674.9	generate	Run4	generate/STIM_012.jpg	99
3209.929	1.595	1594.9	generate	Run4	generate/STIM_013.jpg	99
3214.111	2.358	2358.4	generate	Run4	generate/STIM_013.jpg	99
3219.472	2.5	2500.2	generate	Run4	generate/STIM_013.jpg	99
3225.116	1.419	1419.1	generate	Run4	generate/STIM_013.jpg	99
3230.484	1.582	1581.8	generate	Run4	generate/STIM_013.jpg	100
3234.557	1.638	1637.7	generate	Run4	generate/STIM_014.jpg	100
3240.038	1.377	1377.3	generate	Run4	generate/STIM_014.jpg	100
3243.862	2.053	2053.2	generate	Run4	generate/STIM_014.jpg	100
3249.406	2.934	2934.0	generate	Run4	generate/STIM_014.jpg	99
3254.851	2.472	2471.5	generate	Run4	generate/STIM_014.jpg	99
3261.302	1.441	1440.6	generate	Run4	generate/STIM_015.jpg	99
3264.819	1.504	1504.5	generate	Run4	generate/STIM_015.jpg	99
3269.256	2.313	2312.7	generate	Run4	generate/STIM_015.jpg	100
3274.583	2.478	2477.7	generate	Run4	generate/STIM_015.jpg	100
3280.935	2.627	2627.1	generate	Run4	generate/STIM_015.jpg	99
3286.933	1.482	1482.4	generate	Run4	generate/STIM_016.jpg	99
3291.505	1.371	1371.2	generate	Run4	generate/STIM_016.jpg	99
3296.17	2.635	2634.6	generate	Run4	generate/STIM_016.jpg	99
3302.473	2.709	2708.7	generate	Run4	generate/STIM_016.jpg	100
3308.144	2.193	2193.4	generate	Run4	generate/STIM_016.jpg	99
3314.168	2.683	2683.1	generate	Run4	generate/STIM_017.jpg	99
3320.1	1.281	1281.0	generate	Run4	generate/STIM_017.jpg	99
3323.978	2.863	2863.1	generate	Run4	generate/STIM_017.jpg	99
3329.824	2.199	2199.0	generate	Run4	generate/STIM_017.jpg	100
3334.392	2.23	2230.3	generate	Run4	generate/STIM_017.jpg	99
3340.416	1.954	1953.6	generate	Run4	generate/STIM_018.jpg	99
3345.916	1.437	1437.0	generate	Run4	generate/STIM_018.jpg	100
3351.328	1.261	1260.6	generate	Run4	generate/STIM_018.jpg	99
3355.298	1.33	1330.4	generate	Run4	generate/STIM_018.jpg	100
3359.858	2.051	2050.9	generate	Run4	generate/STIM_018.jpg	99
3365.177	2.843	2842.7	generate	Run4	generate/STIM_019.jpg	100
3370.77	1.601	1601.3	generate	Run4	generate/STIM_019.jpg	99
3375.55	2.616	2616.4	generate	Run4	generate/STIM_019.jpg	100
3380.903	2.179	2178.7	generate	Run4	generate/STIM_019.jpg	99
3386.083	2.702	2702.2	generate	Run4	generate/STIM_019.jpg	99
3391.119	1.648	1647.5	generate	Run4	generate/STIM_020.jpg	99
3394.856	1.547	1547.2	generate	Run4	generate/STIM_020.jpg	100
3398.708	2.756	2756.4	generate	Run4	generate/STIM_020.jpg	100
3405.071	2.645	2645.4	generate	Run4	generate/STIM_020.jpg	99
3409.812	2.704	2703.8	generate	Run4	generate/STIM_020.jpg	99
3416.451	1.954	1954.2	generate	Run4	generate/STIM_021.jpg	100
3420.406	1.511	1510.9	generate	Run4	generate/STIM_021.jpg	100
3424.066	1.191	1190.8	generate	Run4	generate/STIM_021.jpg	100
3428.788	1.502	1502.2	generate	Run4	generate/STIM_021.jpg	100
3433.246	1.389	1388.8	generate	Run4	generate/STIM_021.jpg	99
3437.675	2.682	2681.7	generate	Run4	generate/STIM_022.jpg	100
3442.943	2.478	2478.3	generate	Run4	generate/STIM_022.jpg	100
3449.301	1.758	1758.5	generate	Run4	generate/STIM_022.jpg	100
3453.558	1.784	1784.0	generate	Run4	generate/STIM_022.jpg	100
3459.053	2.619	2619.0	generate	Run4	generate/STIM_022.jpg	100
3465.496	2.459	2458.6	generate	Run4	generate/STIM_023.jpg	99
3470.304	2.162	2162.3	generate	Run4	generate/STIM_023.jpg	99
3476.031	2.385	2385.3	generate	Run4	generate/STIM_023.jpg	99
3482.001	2.004	2004.3	generate	Run4	generate/STIM_023.jpg	100
3486.053	1.749	1748.7	generate	Run4	generate/STIM_023.jpg	100
3491.741	2.766	2765.6	generate	Run4	generate/STIM_024.jpg	100
3497.207	1.35	1349.8	generate	Run4	generate/STIM_024.jpg	100
3501.546	1.24	1239.5	generate	Run4	generate/STIM_024.jpg	100
3505.473	2.956	2955.6	generate	Run4	generate/STIM_024.jpg	100
3511.239	2.069	2068.6	generate	Run4	generate/STIM_024.jpg	99
3516.8	1.316	1316.4	repeat	Run4	repeat/STIM_000.jpg	100
3522.061	1.325	1325.4	repeat	Run4	repeat/STIM_000.jpg	99
3525.465	0.956	955.6	repeat	Run4	repeat/STIM_000.jpg	99
3530.028	1.311	1311.1	repeat	Run4	repeat/STIM_000.jpg	100
3533.607	1.243	1243.4	repeat	Run4	repeat/STIM_000.jpg	99
3537.883	0.716	716.3	repeat	Run4	repeat/STIM_001.jpg	100
3542.528	1.104	1103.6	repeat	Run4	repeat/STIM_001.jpg	99
3546.815	1.36	1359.8	repeat	Run4	repeat/STIM_001.jpg	100
3551.632	1.301	1301.3	repeat	Run4	repeat/STIM_001.jpg	100
3555.847	0.715	714.6	repeat	Run4	repeat/STIM_001.jpg	100
3559.887	0.878	878.0	repeat	Run4	repeat/STIM_002.jpg	99
3562.88	0.751	750.9	repeat	Run4	repeat/STIM_002.jpg	100
3566.191	1.195	1195.1	repeat	Run4	repeat/STIM_002.jpg	100
3569.6	1.327	1327.4	repeat	Run4	repeat/STIM_002.jpg	99
3574.222	0.714	714.5	repeat	Run4	repeat/STIM_002.jpg	100
3578.046	1.26	1260.4	repeat	Run4	repeat/STIM_003.jpg	100
3582.807	0.913	913.4	repeat	Run4	repeat/STIM_003.jpg	99
3585.842	1.052	1051.7	repeat	Run4	repeat/STIM_003.jpg	99
3590.123	1.132	1132.2	repeat	Run4	repeat/STIM_003.jpg	99
3594.797	1.126	1126.0	repeat	Run4	repeat/STIM_003.jpg	99
3598.869	1.378	1378.5	repeat	Run4	repeat/STIM_004.jpg	100
3604.232	1.165	1164.7	repeat	Run4	repeat/STIM_004.jpg	99
3607.92	1.276	1275.7	repeat	Run4	repeat/STIM_004.jpg	99
3612.375	1.145	1145.1	repeat	Run4	repeat/STIM_004.jpg	100
3616.872	0.787	787.3	repeat	Run4	repeat/STIM_004.jpg	99
3620.447	0.872	872.5	repeat	Run4	repeat/STIM_005.jpg	99
3623.745	1.073	1072.7	repeat	Run4	repeat/STIM_005.jpg	99
3626.862	1.292	1292.4	repeat	Run4	repeat/STIM_005.jpg	99
3631.292	1.396	1396.5	repeat	Run4	repeat/STIM_005.jpg	99
3634.861	1.384	1383.5	repeat	Run4	repeat/STIM_005.jpg	99
3639.461	0.922	922.0	repeat	Run4	repeat/STIM_006.jpg	99
3644.116	1.195	1194.7	repeat	Run4	repeat/STIM_006.jpg	100
3647.383	1.389	1389.4	repeat	Run4	repeat/STIM_006.jpg	99
3652.109	0.772	771.6	repeat	Run4	repeat/STIM_006.jpg	99
3655.908	1.319	1318.9	repeat	Run4	repeat/STIM_006.jpg	100
3660.03	1.004	1004.0	repeat	Run4	repeat/STIM_007.jpg	99
3664.474	1.128	1127.5	repeat	Run4	repeat/STIM_007.jpg	100
3667.66	0.999	999.1	repeat	Run4	repeat/STIM_007.jpg	99
3671.485	1.134	1134.5	repeat	Run4	repeat/STIM_007.jpg	100
3675.651	0.89	890.1	repeat	Run4	repeat/STIM_007.jpg	100
3679.139	1.223	1223.2	repeat	Run4	repeat/STIM_008.jpg	99
3683.142	1.16	1160.5	repeat	Run4	repeat/STIM_008.jpg	100
3686.873	0.714	714.4	repeat	Run4	repeat/STIM_008.jpg	100
3690.492	0.93	930.1	repeat	Run4	repeat/STIM_008.jpg	100
3693.734	0.994	993.8	repeat	Run4	repeat/STIM_008.jpg	99
3698.261	0.904	904.1	repeat	Run4	repeat/STIM_009.jpg	99
3701.865	1.361	1360.6	repeat	Run4	repeat/STIM_009.jpg	99
3705.446	1.321	1320.9	repeat	Run4	repeat/STIM_009.jpg	99
3708.923	1.328	1328.4	repeat	Run4	repeat/STIM_009.jpg	99
3712.772	0.746	746.2	repeat	Run4	repeat/STIM_009.jpg	99
3716.389	1.391	1390.6	repeat	Run4	repeat/STIM_010.jpg	100
3720.754	1.164	1163.7	repeat	Run4	repeat/STIM_010.jpg	99
3725.841	1.347	1346.8	repeat	Run4	repeat/STIM_010.jpg	99
3730.622	1.396	1395.9	repeat	Run4	repeat/STIM_010.jpg	100
3734.138	0.98	979.5	repeat	Run4	repeat/STIM_010.jpg	99
3738.848	0.761	761.2	repeat	Run4	repeat/STIM_011.jpg	99
3741.69	1.409	1409.4	repeat	Run4	repeat/STIM_011.jpg	100
3746.724	0.743	743.4	repeat	Run4	repeat/STIM_011.jpg	99
3750.042	0.82	819.7	repeat	Run4	repeat/STIM_011.jpg	100
3752.951	1.258	1257.9	repeat	Run4	repeat/STIM_011.jpg	99
3756.779	0.726	726.4	repeat	Run4	repeat/STIM_012.jpg	99
3761.393	1.146	1145.5	repeat	Run4	repeat/STIM_012.jpg	100
3766.213	1.305	1304.6	repeat	Run4	repeat/STIM_012.jpg	99
3769.893	0.827	827.4	repeat	Run4	repeat/STIM_012.jpg	99
3774.278	1.084	1084.4	repeat	Run4	repeat/STIM_012.jpg	100
3777.988	0.982	982.3	repeat	Run4	repeat/STIM_013.jpg	100
3782.453	1.138	1138.3	repeat	Run4	repeat/STIM_013.jpg	100
3786.956	1.184	1184.2	repeat	Run4	repeat/STIM_013.jpg	100
3792.137	1.186	1186.5	repeat	Run4	repeat/STIM_013.jpg	99
3795.505	0.98	980.5	repeat	Run4	repeat/STIM_013.jpg	99
3798.928	0.734	734.2	repeat	Run4	repeat/STIM_014.jpg	100
3802.011	1.396	1396.5	repeat	Run4	repeat/STIM_014.jpg	99
3805.438	1.276	1275.7	repeat	Run4	repeat/STIM_014.jpg	100
3809.455	1.064	1063.9	repeat	Run4	repeat/STIM_014.jpg	99
3814.03	1.377	1376.7	repeat	Run4	repeat/STIM_014.jpg	99
