onset	duration	accuracy_binary	trial_type	learning_stage	stimulus
0.0	2.177	1	generate	Run1	generate/STIM_000.jpg
5.879	2.213	0	generate	Run1	generate/STIM_000.jpg
11.551	2.219	1	generate	Run1	generate/STIM_000.jpg
17.036	1.988	1	generate	Run1	generate/STIM_000.jpg
21.544	1.266	1	generate	Run1	generate/STIM_000.jpg
26.082	1.132	0	generate	Run1	generate/STIM_001.jpg
31.042	1.202	1	generate	Run1	generate/STIM_001.jpg
35.043	2.029	1	generate	Run1	generate/STIM_001.jpg
40.648	2.018	1	generate	Run1	generate/STIM_001.jpg
45.335	2.113	1	generate	Run1	generate/STIM_001.jpg
49.739	1.34	0	generate	Run1	generate/STIM_002.jpg
54.613	1.373	1	generate	Run1	generate/STIM_002.jpg
59.33	1.995	0	generate	Run1	generate/STIM_002.jpg
64.163	1.245	1	generate	Run1	generate/STIM_002.jpg
68.517	0.854	1	generate	Run1	generate/STIM_002.jpg
73.027	2.507	0	generate	Run1	generate/STIM_003.jpg
79.182	1.064	1	generate	Run1	generate/STIM_003.jpg
82.924	1.201	1	generate	Run1	generate/STIM_003.jpg
86.356	1.113	1	generate	Run1	generate/STIM_003.jpg
89.99	1.286	1	generate	Run1	generate/STIM_003.jpg
95.122	2.508	1	generate	Run1	generate/STIM_004.jpg
101.819	2.28	0	generate	Run1	generate/STIM_004.jpg
106.645	1.11	1	generate	Run1	generate/STIM_004.jpg
111.11	1.3	1	generate	Run1	generate/STIM_004.jpg
114.9	1.747	1	generate	Run1	generate/STIM_004.jpg
119.142	2.454	1	generate	Run1	generate/STIM_005.jpg
125.089	1.701	1	generate	Run1	generate/STIM_005.jpg
129.75	1.038	1	generate	Run1	generate/STIM_005.jpg
134.445	1.742	1	generate	Run1	generate/STIM_005.jpg
139.175	1.306	1	generate	Run1	generate/STIM_005.jpg
143.6	2.103	1	generate	Run1	generate/STIM_006.jpg
148.765	0.985	0	generate	Run1	generate/STIM_006.jpg
153.198	1.241	1	generate	Run1	generate/STIM_006.jpg
156.662	2.03	0	generate	Run1	generate/STIM_006.jpg
161.528	1.303	0	generate	Run1	generate/STIM_006.jpg
164.99	2.426	0	generate	Run1	generate/STIM_007.jpg
170.03	1.533	1	generate	Run1	generate/STIM_007.jpg
175.112	1.177	1	generate	Run1	generate/STIM_007.jpg
179.314	1.491	1	generate	Run1	generate/STIM_007.jpg
184.294	1.501	1	generate	Run1	generate/STIM_007.jpg
188.51	1.195	1	generate	Run1	generate/STIM_008.jpg
191.924	1.134	0	generate	Run1	generate/STIM_008.jpg
195.654	1.772	0	generate	Run1	generate/STIM_008.jpg
200.868	2.077	1	generate	Run1	generate/STIM_008.jpg
206.104	1.341	1	generate	Run1	generate/STIM_008.jpg
210.383	1.841	1	generate	Run1	generate/STIM_009.jpg
216.067	1.406	1	generate	Run1	generate/STIM_009.jpg
221.162	1.54	1	generate	Run1	generate/STIM_009.jpg
226.101	1.736	1	generate	Run1	generate/STIM_009.jpg
230.655	0.901	1	generate	Run1	generate/STIM_009.jpg
233.91	2.071	1	generate	Run1	generate/STIM_010.jpg
238.708	1.851	1	generate	Run1	generate/STIM_010.jpg
243.04	2.254	0	generate	Run1	generate/STIM_010.jpg
249.122	1.342	1	generate	Run1	generate/STIM_010.jpg
254.15	1.524	1	generate	Run1	generate/STIM_010.jpg
258.04	1.756	1	generate	Run1	generate/STIM_011.jpg
264.017	1.514	1	generate	Run1	generate/STIM_011.jpg
268.944	0.86	1	generate	Run1	generate/STIM_011.jpg
273.415	1.147	1	generate	Run1	generate/STIM_011.jpg
277.425	1.244	1	generate	Run1	generate/STIM_011.jpg
282.314	2.17	1	generate	Run1	generate/STIM_012.jpg
287.04	2.571	0	generate	Run1	generate/STIM_012.jpg
293.699	1.326	1	generate	Run1	generate/STIM_012.jpg
297.554	1.231	1	generate	Run1	generate/STIM_012.jpg
302.016	1.201	1	generate	Run1	generate/STIM_012.jpg
306.486	1.234	0	generate	Run1	generate/STIM_013.jpg
310.974	1.688	1	generate	Run1	generate/STIM_013.jpg
316.078	1.503	1	generate	Run1	generate/STIM_013.jpg
321.669	1.396	1	generate	Run1	generate/STIM_013.jpg
326.388	1.17	1	generate	Run1	generate/STIM_013.jpg
329.852	1.136	0	generate	Run1	generate/STIM_014.jpg
333.39	1.321	0	generate	Run1	generate/STIM_014.jpg
337.165	2.04	1	generate	Run1	generate/STIM_014.jpg
343.447	1.743	1	generate	Run1	generate/STIM_014.jpg
349.094	1.541	1	generate	Run1	generate/STIM_014.jpg
354.877	1.902	1	generate	Run1	generate/STIM_015.jpg
359.61	1.442	1	generate	Run1	generate/STIM_015.jpg
363.833	1.821	1	generate	Run1	generate/STIM_015.jpg
368.166	1.41	0	generate	Run1	generate/STIM_015.jpg
372.554	1.764	1	generate	Run1	generate/STIM_015.jpg
378.285	1.126	1	generate	Run1	generate/STIM_016.jpg
382.282	2.234	0	generate	Run1	generate/STIM_016.jpg
388.253	1.27	0	generate	Run1	generate/STIM_016.jpg
391.837	0.919	1	generate	Run1	generate/STIM_016.jpg
396.836	2.006	0	generate	Run1	generate/STIM_016.jpg
403.12	1.823	0	generate	Run1	generate/STIM_017.jpg
407.409	2.145	1	generate	Run1	generate/STIM_017.jpg
413.825	1.328	1	generate	Run1	generate/STIM_017.jpg
417.304	1.278	1	generate	Run1	generate/STIM_017.jpg
421.502	1.474	1	generate	Run1	generate/STIM_017.jpg
425.712	1.675	1	generate	Run1	generate/STIM_018.jpg
430.297	1.065	1	generate	Run1	generate/STIM_018.jpg
435.178	1.797	0	generate	Run1	generate/STIM_018.jpg
441.108	1.852	1	generate	Run1	generate/STIM_018.jpg
446.914	1.714	1	generate	Run1	generate/STIM_018.jpg
451.033	2.156	1	generate	Run1	generate/STIM_019.jpg
455.692	2.364	1	generate	Run1	generate/STIM_019.jpg
461.733	1.291	1	generate	Run1	generate/STIM_019.jpg
467.057	1.112	1	generate	Run1	generate/STIM_019.jpg
472.319	1.587	1	generate	Run1	generate/STIM_019.jpg
476.997	1.966	1	generate	Run1	generate/STIM_020.jpg
481.47	1.836	1	generate	Run1	generate/STIM_020.jpg
486.327	1.546	1	generate	Run1	generate/STIM_020.jpg
490.134	1.45	1	generate	Run1	generate/STIM_020.jpg
494.541	1.935	1	generate	Run1	generate/STIM_020.jpg
499.117	1.898	0	generate	Run1	generate/STIM_021.jpg
504.235	0.999	1	generate	Run1	generate/STIM_021.jpg
509.203	2.042	1	generate	Run1	generate/STIM_021.jpg
514.089	1.834	1	generate	Run1	generate/STIM_021.jpg
519.442	1.04	0	generate	Run1	generate/STIM_021.jpg
524.32	2.667	1	generate	Run1	generate/STIM_022.jpg
531.023	1.6	1	generate	Run1	generate/STIM_022.jpg
535.584	1.668	1	generate	Run1	generate/STIM_022.jpg
540.284	1.006	1	generate	Run1	generate/STIM_022.jpg
544.387	1.65	1	generate	Run1	generate/STIM_022.jpg
548.937	1.171	1	generate	Run1	generate/STIM_023.jpg
553.95	1.908	0	generate	Run1	generate/STIM_023.jpg
559.956	1.262	0	generate	Run1	generate/STIM_023.jpg
563.328	0.962	1	generate	Run1	generate/STIM_023.jpg
567.055	1.992	1	generate	Run1	generate/STIM_023.jpg
572.201	1.312	1	generate	Run1	generate/STIM_024.jpg
576.674	2.553	1	generate	Run1	generate/STIM_024.jpg
582.524	1.791	0	generate	Run1	generate/STIM_024.jpg
587.839	1.694	1	generate	Run1	generate/STIM_024.jpg
593.23	1.954	1	generate	Run1	generate/STIM_024.jpg
598.287	0.718	1	repeat	Run1	repeat/STIM_000.jpg
602.076	0.656	1	repeat	Run1	repeat/STIM_000.jpg
606.551	0.854	1	repeat	Run1	repeat/STIM_000.jpg
610.633	0.834	1	repeat	Run1	repeat/STIM_000.jpg
614.442	0.806	1	repeat	Run1	repeat/STIM_000.jpg
618.097	0.906	1	repeat	Run1	repeat/STIM_001.jpg
622.196	0.611	1	repeat	Run1	repeat/STIM_001.jpg
625.909	0.849	1	repeat	Run1	repeat/STIM_001.jpg
629.16	0.581	1	repeat	Run1	repeat/STIM_001.jpg
632.471	0.643	1	repeat	Run1	repeat/STIM_001.jpg
636.643	0.608	1	repeat	Run1	repeat/STIM_002.jpg
641.044	0.846	1	repeat	Run1	repeat/STIM_002.jpg
645.501	0.485	1	repeat	Run1	repeat/STIM_002.jpg
648.41	0.631	1	repeat	Run1	repeat/STIM_002.jpg
652.583	0.598	1	repeat	Run1	repeat/STIM_002.jpg
656.623	0.961	1	repeat	Run1	repeat/STIM_003.jpg
660.121	0.512	1	repeat	Run1	repeat/STIM_003.jpg
663.382	0.804	1	repeat	Run1	repeat/STIM_003.jpg
667.351	0.551	1	repeat	Run1	repeat/STIM_003.jpg
670.455	0.729	1	repeat	Run1	repeat/STIM_003.jpg
674.663	0.669	1	repeat	Run1	repeat/STIM_004.jpg
679.153	0.574	1	repeat	Run1	repeat/STIM_004.jpg
682.228	0.649	1	repeat	Run1	repeat/STIM_004.jpg
685.253	0.525	1	repeat	Run1	repeat/STIM_004.jpg
687.917	0.721	1	repeat	Run1	repeat/STIM_004.jpg
691.706	0.507	1	repeat	Run1	repeat/STIM_005.jpg
696.263	0.961	1	repeat	Run1	repeat/STIM_005.jpg
700.378	0.407	1	repeat	Run1	repeat/STIM_005.jpg
703.072	0.587	1	repeat	Run1	repeat/STIM_005.jpg
705.752	0.742	1	repeat	Run1	repeat/STIM_005.jpg
708.695	0.973	1	repeat	Run1	repeat/STIM_006.jpg
712.768	0.733	1	repeat	Run1	repeat/STIM_006.jpg
717.464	0.684	1	repeat	Run1	repeat/STIM_006.jpg
722.025	0.735	1	repeat	Run1	repeat/STIM_006.jpg
726.678	0.486	1	repeat	Run1	repeat/STIM_006.jpg
730.065	0.448	1	repeat	Run1	repeat/STIM_007.jpg
733.942	0.468	1	repeat	Run1	repeat/STIM_007.jpg
737.71	0.73	1	repeat	Run1	repeat/STIM_007.jpg
742.11	0.581	1	repeat	Run1	repeat/STIM_007.jpg
745.383	0.689	1	repeat	Run1	repeat/STIM_007.jpg
750.12	0.47	1	repeat	Run1	repeat/STIM_008.jpg
752.906	0.852	1	repeat	Run1	repeat/STIM_008.jpg
757.351	0.744	1	repeat	Run1	repeat/STIM_008.jpg
760.726	0.556	1	repeat	Run1	repeat/STIM_008.jpg
763.733	0.548	1	repeat	Run1	repeat/STIM_008.jpg
767.795	0.975	1	repeat	Run1	repeat/STIM_009.jpg
772.082	0.46	1	repeat	Run1	repeat/STIM_009.jpg
776.466	0.892	1	repeat	Run1	repeat/STIM_009.jpg
779.445	0.551	1	repeat	Run1	repeat/STIM_009.jpg
782.579	0.816	1	repeat	Run1	repeat/STIM_009.jpg
787.333	0.722	1	repeat	Run1	repeat/STIM_010.jpg
791.124	0.585	1	repeat	Run1	repeat/STIM_010.jpg
794.846	0.755	1	repeat	Run1	repeat/STIM_010.jpg
799.021	0.685	1	repeat	Run1	repeat/STIM_010.jpg
803.19	0.618	1	repeat	Run1	repeat/STIM_010.jpg
807.904	0.691	1	repeat	Run1	repeat/STIM_011.jpg
811.205	0.479	1	repeat	Run1	repeat/STIM_011.jpg
815.594	0.47	1	repeat	Run1	repeat/STIM_011.jpg
818.475	0.852	1	repeat	Run1	repeat/STIM_011.jpg
822.838	0.512	1	repeat	Run1	repeat/STIM_011.jpg
825.976	0.733	1	repeat	Run1	repeat/STIM_012.jpg
830.029	0.636	1	repeat	Run1	repeat/STIM_012.jpg
833.245	0.741	1	repeat	Run1	repeat/STIM_012.jpg
837.749	0.808	1	repeat	Run1	repeat/STIM_012.jpg
842.042	0.627	1	repeat	Run1	repeat/STIM_012.jpg
846.442	0.735	0	repeat	Run1	repeat/STIM_013.jpg
849.282	0.84	1	repeat	Run1	repeat/STIM_013.jpg
852.755	0.709	1	repeat	Run1	repeat/STIM_013.jpg
855.892	0.376	1	repeat	Run1	repeat/STIM_013.jpg
859.011	0.739	1	repeat	Run1	repeat/STIM_013.jpg
863.273	0.829	1	repeat	Run1	repeat/STIM_014.jpg
868.123	0.556	1	repeat	Run1	repeat/STIM_014.jpg
872.282	0.624	1	repeat	Run1	repeat/STIM_014.jpg
875.957	0.595	1	repeat	Run1	repeat/STIM_014.jpg
879.461	0.756	1	repeat	Run1	repeat/STIM_014.jpg
883.922	2.052	1	generate	Run2	generate/STIM_000.jpg
888.837	1.003	0	generate	Run2	generate/STIM_000.jpg
892.063	1.177	1	generate	Run2	generate/STIM_000.jpg
895.361	1.46	0	generate	Run2	generate/STIM_000.jpg
900.137	1.616	1	generate	Run2	generate/STIM_000.jpg
904.921	1.223	1	generate	Run2	generate/STIM_001.jpg
909.426	1.79	1	generate	Run2	generate/STIM_001.jpg
915.361	1.754	1	generate	Run2	generate/STIM_001.jpg
920.944	1.19	1	generate	Run2	generate/STIM_001.jpg
924.746	1.42	1	generate	Run2	generate/STIM_001.jpg
930.123	1.112	1	generate	Run2	generate/STIM_002.jpg
933.652	0.834	1	generate	Run2	generate/STIM_002.jpg
936.994	1.264	1	generate	Run2	generate/STIM_002.jpg
940.615	0.938	1	generate	Run2	generate/STIM_002.jpg
944.338	0.967	1	generate	Run2	generate/STIM_002.jpg
948.956	1.146	1	generate	Run2	generate/STIM_003.jpg
952.813	1.823	0	generate	Run2	generate/STIM_003.jpg
958.333	1.476	1	generate	Run2	generate/STIM_003.jpg
962.399	1.656	0	generate	Run2	generate/STIM_003.jpg
966.477	1.338	1	generate	Run2	generate/STIM_003.jpg
969.991	1.92	1	generate	Run2	generate/STIM_004.jpg
974.766	1.788	1	generate	Run2	generate/STIM_004.jpg
980.72	1.095	1	generate	Run2	generate/STIM_004.jpg
985.234	0.828	1	generate	Run2	generate/STIM_004.jpg
988.726	1.043	1	generate	Run2	generate/STIM_004.jpg
993.105	2.074	1	generate	Run2	generate/STIM_005.jpg
998.489	1.53	1	generate	Run2	generate/STIM_005.jpg
1003.088	1.383	0	generate	Run2	generate/STIM_005.jpg
1006.859	1.135	1	generate	Run2	generate/STIM_005.jpg
1011.407	1.684	1	generate	Run2	generate/STIM_005.jpg
1015.742	1.956	1	generate	Run2	generate/STIM_006.jpg
1020.921	2.08	1	generate	Run2	generate/STIM_006.jpg
1025.925	1.724	1	generate	Run2	generate/STIM_006.jpg
1031.536	1.104	1	generate	Run2	generate/STIM_006.jpg
1035.192	1.447	1	generate	Run2	generate/STIM_006.jpg
1040.009	2.196	1	generate	Run2	generate/STIM_007.jpg
1046.422	1.038	1	generate	Run2	generate/STIM_007.jpg
1050.707	1.065	1	generate	Run2	generate/STIM_007.jpg
1054.738	1.099	1	generate	Run2	generate/STIM_007.jpg
1059.423	1.506	1	generate	Run2	generate/STIM_007.jpg
1065.012	2.027	1	generate	Run2	generate/STIM_008.jpg
1069.91	1.174	1	generate	Run2	generate/STIM_008.jpg
1075.181	1.45	1	generate	Run2	generate/STIM_008.jpg
1080.016	1.102	0	generate	Run2	generate/STIM_008.jpg
1083.942	0.797	0	generate	Run2	generate/STIM_008.jpg
1087.959	1.441	1	generate	Run2	generate/STIM_009.jpg
1092.369	2.006	1	generate	Run2	generate/STIM_009.jpg
1097.361	1.04	1	generate	Run2	generate/STIM_009.jpg
1101.318	1.639	1	generate	Run2	generate/STIM_009.jpg
1105.351	1.167	1	generate	Run2	generate/STIM_009.jpg
1108.757	1.209	1	generate	Run2	generate/STIM_010.jpg
1112.695	1.129	1	generate	Run2	generate/STIM_010.jpg
1116.508	1.099	0	generate	Run2	generate/STIM_010.jpg
1120.765	1.164	1	generate	Run2	generate/STIM_010.jpg
1125.274	1.273	1	generate	Run2	generate/STIM_010.jpg
1130.178	2.049	0	generate	Run2	generate/STIM_011.jpg
1135.173	1.16	1	generate	Run2	generate/STIM_011.jpg
1139.973	1.264	1	generate	Run2	generate/STIM_011.jpg
1143.903	0.956	1	generate	Run2	generate/STIM_011.jpg
1147.898	1.164	1	generate	Run2	generate/STIM_011.jpg
1151.329	1.192	1	generate	Run2	generate/STIM_012.jpg
1155.262	1.736	1	generate	Run2	generate/STIM_012.jpg
1160.619	1.721	1	generate	Run2	generate/STIM_012.jpg
1166.201	1.416	1	generate	Run2	generate/STIM_012.jpg
1169.993	1.505	1	generate	Run2	generate/STIM_012.jpg
1175.137	2.169	1	generate	Run2	generate/STIM_013.jpg
1180.359	2.024	1	generate	Run2	generate/STIM_013.jpg
1184.978	2.06	1	generate	Run2	generate/STIM_013.jpg
1190.311	0.88	0	generate	Run2	generate/STIM_013.jpg
1194.791	1.294	1	generate	Run2	generate/STIM_013.jpg
1198.471	1.017	1	generate	Run2	generate/STIM_014.jpg
1202.815	2.027	1	generate	Run2	generate/STIM_014.jpg
1208.925	0.906	1	generate	Run2	generate/STIM_014.jpg
1212.386	1.532	1	generate	Run2	generate/STIM_014.jpg
1218.153	1.749	1	generate	Run2	generate/STIM_014.jpg
1224.087	1.022	1	generate	Run2	generate/STIM_015.jpg
1227.671	1.408	1	generate	Run2	generate/STIM_015.jpg
1233.046	1.183	1	generate	Run2	generate/STIM_015.jpg
1237.259	1.575	1	generate	Run2	generate/STIM_015.jpg
1242.963	1.094	1	generate	Run2	generate/STIM_015.jpg
1246.456	2.098	1	generate	Run2	generate/STIM_016.jpg
1251.672	1.661	1	generate	Run2	generate/STIM_016.jpg
1255.656	1.365	1	generate	Run2	generate/STIM_016.jpg
1261.197	1.094	1	generate	Run2	generate/STIM_016.jpg
1266.124	1.687	0	generate	Run2	generate/STIM_016.jpg
1271.78	1.178	1	generate	Run2	generate/STIM_017.jpg
1275.66	1.923	1	generate	Run2	generate/STIM_017.jpg
1281.128	0.897	1	generate	Run2	generate/STIM_017.jpg
1285.612	1.612	1	generate	Run2	generate/STIM_017.jpg
1291.251	0.935	1	generate	Run2	generate/STIM_017.jpg
1296.101	1.925	1	generate	Run2	generate/STIM_018.jpg
1302.004	1.966	1	generate	Run2	generate/STIM_018.jpg
1306.692	1.592	1	generate	Run2	generate/STIM_018.jpg
1312.26	1.533	1	generate	Run2	generate/STIM_018.jpg
1316.105	1.357	1	generate	Run2	generate/STIM_018.jpg
1319.911	2.032	1	generate	Run2	generate/STIM_019.jpg
1326.159	1.635	1	generate	Run2	generate/STIM_019.jpg
1332.029	1.575	1	generate	Run2	generate/STIM_019.jpg
1335.833	1.252	1	generate	Run2	generate/STIM_019.jpg
1340.08	0.831	1	generate	Run2	generate/STIM_019.jpg
1343.465	2.044	1	generate	Run2	generate/STIM_020.jpg
1348.567	1.57	1	generate	Run2	generate/STIM_020.jpg
1353.371	1.911	1	generate	Run2	generate/STIM_020.jpg
1359.498	1.481	1	generate	Run2	generate/STIM_020.jpg
1364.606	1.765	1	generate	Run2	generate/STIM_020.jpg
1368.766	1.973	1	generate	Run2	generate/STIM_021.jpg
1374.146	1.692	1	generate	Run2	generate/STIM_021.jpg
1378.302	1.327	1	generate	Run2	generate/STIM_021.jpg
1382.083	0.958	1	generate	Run2	generate/STIM_021.jpg
1385.189	1.234	1	generate	Run2	generate/STIM_021.jpg
1389.288	2.114	0	generate	Run2	generate/STIM_022.jpg
1393.824	2.007	1	generate	Run2	generate/STIM_022.jpg
1399.483	1.573	1	generate	Run2	generate/STIM_022.jpg
1405.182	1.044	1	generate	Run2	generate/STIM_022.jpg
1409.237	1.428	1	generate	Run2	generate/STIM_022.jpg
1414.465	0.936	1	generate	Run2	generate/STIM_023.jpg
1418.926	1.257	1	generate	Run2	generate/STIM_023.jpg
1423.39	1.166	1	generate	Run2	generate/STIM_023.jpg
1427.99	1.104	1	generate	Run2	generate/STIM_023.jpg
1432.0	1.776	1	generate	Run2	generate/STIM_023.jpg
1436.429	1.433	0	generate	Run2	generate/STIM_024.jpg
1441.018	1.808	1	generate	Run2	generate/STIM_024.jpg
1446.006	1.463	1	generate	Run2	generate/STIM_024.jpg
1450.711	1.238	1	generate	Run2	generate/STIM_024.jpg
1454.268	0.938	1	generate	Run2	generate/STIM_024.jpg
1457.554	0.622	1	repeat	Run2	repeat/STIM_000.jpg
1461.133	0.85	1	repeat	Run2	repeat/STIM_000.jpg
1464.844	0.508	1	repeat	Run2	repeat/STIM_000.jpg
1468.442	0.66	1	repeat	Run2	repeat/STIM_000.jpg
1472.77	0.592	1	repeat	Run2	repeat/STIM_000.jpg
1476.92	0.525	1	repeat	Run2	repeat/STIM_001.jpg
1479.909	0.682	1	repeat	Run2	repeat/STIM_001.jpg
1484.574	0.653	1	repeat	Run2	repeat/STIM_001.jpg
1488.551	0.654	1	repeat	Run2	repeat/STIM_001.jpg
1492.247	0.637	1	repeat	Run2	repeat/STIM_001.jpg
1495.223	0.786	1	repeat	Run2	repeat/STIM_002.jpg
1498.233	0.51	1	repeat	Run2	repeat/STIM_002.jpg
1501.108	0.624	1	repeat	Run2	repeat/STIM_002.jpg
1504.857	0.844	1	repeat	Run2	repeat/STIM_002.jpg
1508.473	0.697	1	repeat	Run2	repeat/STIM_002.jpg
1513.001	0.641	1	repeat	Run2	repeat/STIM_003.jpg
1516.599	0.668	1	repeat	Run2	repeat/STIM_003.jpg
1520.576	0.52	1	repeat	Run2	repeat/STIM_003.jpg
1523.914	0.816	1	repeat	Run2	repeat/STIM_003.jpg
1526.891	0.48	0	repeat	Run2	repeat/STIM_003.jpg
1530.029	0.762	1	repeat	Run2	repeat/STIM_004.jpg
1533.1	0.336	1	repeat	Run2	repeat/STIM_004.jpg
1536.17	0.898	1	repeat	Run2	repeat/STIM_004.jpg
1541.056	0.678	1	repeat	Run2	repeat/STIM_004.jpg
1544.64	0.568	1	repeat	Run2	repeat/STIM_004.jpg
1547.578	0.438	1	repeat	Run2	repeat/STIM_005.jpg
1551.359	0.643	1	repeat	Run2	repeat/STIM_005.jpg
1556.011	0.806	0	repeat	Run2	repeat/STIM_005.jpg
1558.957	0.863	1	repeat	Run2	repeat/STIM_005.jpg
1562.526	0.663	0	repeat	Run2	repeat/STIM_005.jpg
1565.673	0.78	1	repeat	Run2	repeat/STIM_006.jpg
1570.475	0.657	1	repeat	Run2	repeat/STIM_006.jpg
1573.885	0.786	1	repeat	Run2	repeat/STIM_006.jpg
1577.358	0.567	1	repeat	Run2	repeat/STIM_006.jpg
1580.521	0.591	1	repeat	Run2	repeat/STIM_006.jpg
1583.29	0.775	1	repeat	Run2	repeat/STIM_007.jpg
1587.344	0.538	1	repeat	Run2	repeat/STIM_007.jpg
1591.402	0.839	1	repeat	Run2	repeat/STIM_007.jpg
1595.915	0.551	1	repeat	Run2	repeat/STIM_007.jpg
1599.197	0.772	1	repeat	Run2	repeat/STIM_007.jpg
1602.72	0.533	1	repeat	Run2	repeat/STIM_008.jpg
1606.754	0.449	1	repeat	Run2	repeat/STIM_008.jpg
1609.54	0.806	1	repeat	Run2	repeat/STIM_008.jpg
1613.118	0.377	1	repeat	Run2	repeat/STIM_008.jpg
1616.914	0.496	1	repeat	Run2	repeat/STIM_008.jpg
1620.653	0.762	1	repeat	Run2	repeat/STIM_009.jpg
1624.345	0.63	1	repeat	Run2	repeat/STIM_009.jpg
1627.636	0.612	1	repeat	Run2	repeat/STIM_009.jpg
1631.652	0.502	1	repeat	Run2	repeat/STIM_009.jpg
1635.636	0.743	1	repeat	Run2	repeat/STIM_009.jpg
1639.371	0.786	1	repeat	Run2	repeat/STIM_010.jpg
1644.146	0.905	1	repeat	Run2	repeat/STIM_010.jpg
1648.532	0.537	1	repeat	Run2	repeat/STIM_010.jpg
1652.487	0.653	1	repeat	Run2	repeat/STIM_010.jpg
1656.883	0.658	1	repeat	Run2	repeat/STIM_010.jpg
1661.402	0.629	1	repeat	Run2	repeat/STIM_011.jpg
1664.421	0.817	1	repeat	Run2	repeat/STIM_011.jpg
1668.721	0.613	1	repeat	Run2	repeat/STIM_011.jpg
1672.294	0.951	1	repeat	Run2	repeat/STIM_011.jpg
1675.536	0.58	1	repeat	Run2	repeat/STIM_011.jpg
1679.865	0.8	1	repeat	Run2	repeat/STIM_012.jpg
1683.551	0.632	1	repeat	Run2	repeat/STIM_012.jpg
1686.65	0.542	1	repeat	Run2	repeat/STIM_012.jpg
1690.966	0.409	1	repeat	Run2	repeat/STIM_012.jpg
1694.676	0.844	1	repeat	Run2	repeat/STIM_012.jpg
1699.158	0.791	1	repeat	Run2	repeat/STIM_013.jpg
1703.02	0.735	1	repeat	Run2	repeat/STIM_013.jpg
1707.201	0.698	1	repeat	Run2	repeat/STIM_013.jpg
1711.74	0.693	1	repeat	Run2	repeat/STIM_013.jpg
1715.394	0.588	1	repeat	Run2	repeat/STIM_013.jpg
1719.91	0.754	0	repeat	Run2	repeat/STIM_014.jpg
1723.033	0.458	1	repeat	Run2	repeat/STIM_014.jpg
1725.668	0.66	1	repeat	Run2	repeat/STIM_014.jpg
1729.752	0.632	1	repeat	Run2	repeat/STIM_014.jpg
1734.256	0.805	1	repeat	Run2	repeat/STIM_014.jpg
1738.193	1.043	1	generate	Run3	generate/STIM_000.jpg
1743.101	1.563	1	generate	Run3	generate/STIM_000.jpg
1748.343	1.766	1	generate	Run3	generate/STIM_000.jpg
1752.786	1.083	1	generate	Run3	generate/STIM_000.jpg
1756.664	1.8	1	generate	Run3	generate/STIM_000.jpg
1761.25	1.322	1	generate	Run3	generate/STIM_001.jpg
1765.013	1.506	1	generate	Run3	generate/STIM_001.jpg
1769.698	1.652	1	generate	Run3	generate/STIM_001.jpg
1775.359	1.487	1	generate	Run3	generate/STIM_001.jpg
1779.445	0.826	1	generate	Run3	generate/STIM_001.jpg
1783.602	0.787	1	generate	Run3	generate/STIM_002.jpg
1787.498	1.826	1	generate	Run3	generate/STIM_002.jpg
1791.604	1.391	0	generate	Run3	generate/STIM_002.jpg
1795.741	1.613	1	generate	Run3	generate/STIM_002.jpg
1800.503	1.025	0	generate	Run3	generate/STIM_002.jpg
1805.241	0.932	1	generate	Run3	generate/STIM_003.jpg
1810.023	1.338	1	generate	Run3	generate/STIM_003.jpg
1814.22	1.692	1	generate	Run3	generate/STIM_003.jpg
1818.693	1.466	1	generate	Run3	generate/STIM_003.jpg
1823.581	1.755	1	generate	Run3	generate/STIM_003.jpg
1829.412	1.365	1	generate	Run3	generate/STIM_004.jpg
1834.401	0.811	1	generate	Run3	generate/STIM_004.jpg
1838.083	0.821	1	generate	Run3	generate/STIM_004.jpg
1841.434	0.844	1	generate	Run3	generate/STIM_004.jpg
1844.984	1.754	1	generate	Run3	generate/STIM_004.jpg
1850.701	1.107	1	generate	Run3	generate/STIM_005.jpg
1855.023	1.832	0	generate	Run3	generate/STIM_005.jpg
1860.707	1.051	1	generate	Run3	generate/STIM_005.jpg
1865.514	1.786	1	generate	Run3	generate/STIM_005.jpg
1870.793	0.928	1	generate	Run3	generate/STIM_005.jpg
1874.866	1.189	1	generate	Run3	generate/STIM_006.jpg
1879.861	1.43	1	generate	Run3	generate/STIM_006.jpg
1884.788	1.059	1	generate	Run3	generate/STIM_006.jpg
1889.393	1.274	1	generate	Run3	generate/STIM_006.jpg
1894.635	1.275	1	generate	Run3	generate/STIM_006.jpg
1898.702	0.737	1	generate	Run3	generate/STIM_007.jpg
1902.774	1.431	1	generate	Run3	generate/STIM_007.jpg
1907.405	1.657	0	generate	Run3	generate/STIM_007.jpg
1911.451	1.1	1	generate	Run3	generate/STIM_007.jpg
1916.16	1.625	1	generate	Run3	generate/STIM_007.jpg
1920.116	1.217	1	generate	Run3	generate/STIM_008.jpg
1924.637	1.419	0	generate	Run3	generate/STIM_008.jpg
1929.738	1.192	1	generate	Run3	generate/STIM_008.jpg
1934.892	1.461	1	generate	Run3	generate/STIM_008.jpg
1939.28	1.142	1	generate	Run3	generate/STIM_008.jpg
1943.456	1.656	0	generate	Run3	generate/STIM_009.jpg
1947.414	0.883	0	generate	Run3	generate/STIM_009.jpg
1951.836	0.955	1	generate	Run3	generate/STIM_009.jpg
1955.672	0.744	1	generate	Run3	generate/STIM_009.jpg
1958.651	1.331	1	generate	Run3	generate/STIM_009.jpg
1963.522	0.801	1	generate	Run3	generate/STIM_010.jpg
1967.899	1.271	1	generate	Run3	generate/STIM_010.jpg
1972.983	1.519	1	generate	Run3	generate/STIM_010.jpg
1978.37	1.178	1	generate	Run3	generate/STIM_010.jpg
1982.295	1.36	1	generate	Run3	generate/STIM_010.jpg
1987.057	1.229	1	generate	Run3	generate/STIM_011.jpg
1990.808	1.164	1	generate	Run3	generate/STIM_011.jpg
1994.986	1.468	1	generate	Run3	generate/STIM_011.jpg
1999.583	0.873	1	generate	Run3	generate/STIM_011.jpg
2004.19	1.008	1	generate	Run3	generate/STIM_011.jpg
2009.257	1.353	1	generate	Run3	generate/STIM_012.jpg
2013.164	0.906	1	generate	Run3	generate/STIM_012.jpg
2016.739	0.932	1	generate	Run3	generate/STIM_012.jpg
2020.732	1.353	1	generate	Run3	generate/STIM_012.jpg
2025.631	1.669	1	generate	Run3	generate/STIM_012.jpg
2031.342	1.38	1	generate	Run3	generate/STIM_013.jpg
2035.917	1.709	1	generate	Run3	generate/STIM_013.jpg
2040.133	1.406	1	generate	Run3	generate/STIM_013.jpg
2044.71	1.685	1	generate	Run3	generate/STIM_013.jpg
2050.429	0.939	0	generate	Run3	generate/STIM_013.jpg
2054.31	0.945	1	generate	Run3	generate/STIM_014.jpg
2058.562	1.288	1	generate	Run3	generate/STIM_014.jpg
2063.639	1.671	1	generate	Run3	generate/STIM_014.jpg
2069.152	1.3	1	generate	Run3	generate/STIM_014.jpg
2072.901	1.555	1	generate	Run3	generate/STIM_014.jpg
2078.304	1.623	1	generate	Run3	generate/STIM_015.jpg
2083.388	1.345	1	generate	Run3	generate/STIM_015.jpg
2088.026	1.509	1	generate	Run3	generate/STIM_015.jpg
2091.724	1.574	1	generate	Run3	generate/STIM_015.jpg
2096.724	1.453	1	generate	Run3	generate/STIM_015.jpg
2101.029	1.121	0	generate	Run3	generate/STIM_016.jpg
2104.867	1.699	1	generate	Run3	generate/STIM_016.jpg
2110.6	1.151	1	generate	Run3	generate/STIM_016.jpg
2115.067	0.916	1	generate	Run3	generate/STIM_016.jpg
2118.682	1.387	1	generate	Run3	generate/STIM_016.jpg
2123.546	0.831	1	generate	Run3	generate/STIM_017.jpg
2128.112	1.578	1	generate	Run3	generate/STIM_017.jpg
2133.314	1.215	1	generate	Run3	generate/STIM_017.jpg
2137.302	1.84	1	generate	Run3	generate/STIM_017.jpg
2142.052	1.361	1	generate	Run3	generate/STIM_017.jpg
2147.167	0.88	1	generate	Run3	generate/STIM_018.jpg
2151.806	1.569	1	generate	Run3	generate/STIM_018.jpg
2155.695	1.013	1	generate	Run3	generate/STIM_018.jpg
2159.268	1.14	1	generate	Run3	generate/STIM_018.jpg
2163.941	1.626	1	generate	Run3	generate/STIM_018.jpg
2168.301	1.113	1	generate	Run3	generate/STIM_019.jpg
2173.125	1.903	1	generate	Run3	generate/STIM_019.jpg
2177.533	1.28	1	generate	Run3	generate/STIM_019.jpg
2182.058	1.575	1	generate	Run3	generate/STIM_019.jpg
2186.941	1.538	1	generate	Run3	generate/STIM_019.jpg
2191.817	1.825	1	generate	Run3	generate/STIM_020.jpg
2196.269	1.18	1	generate	Run3	generate/STIM_020.jpg
2199.653	1.426	1	generate	Run3	generate/STIM_020.jpg
2205.017	0.682	1	generate	Run3	generate/STIM_020.jpg
2209.246	0.962	1	generate	Run3	generate/STIM_020.jpg
2212.899	1.146	1	generate	Run3	generate/STIM_021.jpg
2216.915	1.224	1	generate	Run3	generate/STIM_021.jpg
2220.823	0.955	1	generate	Run3	generate/STIM_021.jpg
2225.804	1.228	1	generate	Run3	generate/STIM_021.jpg
2229.978	1.79	1	generate	Run3	generate/STIM_021.jpg
2235.364	1.6	1	generate	Run3	generate/STIM_022.jpg
2241.088	1.061	1	generate	Run3	generate/STIM_022.jpg
2244.609	0.825	1	generate	Run3	generate/STIM_022.jpg
2249.462	1.357	1	generate	Run3	generate/STIM_022.jpg
2254.795	1.522	1	generate	Run3	generate/STIM_022.jpg
2259.077	0.824	1	generate	Run3	generate/STIM_023.jpg
2262.465	1.632	1	generate	Run3	generate/STIM_023.jpg
2267.693	1.039	1	generate	Run3	generate/STIM_023.jpg
2271.996	1.502	1	generate	Run3	generate/STIM_023.jpg
2277.381	1.039	1	generate	Run3	generate/STIM_023.jpg
2280.667	0.824	1	generate	Run3	generate/STIM_024.jpg
2283.912	1.71	1	generate	Run3	generate/STIM_024.jpg
2288.472	0.933	1	generate	Run3	generate/STIM_024.jpg
2292.542	0.745	1	generate	Run3	generate/STIM_024.jpg
2295.993	1.596	1	generate	Run3	generate/STIM_024.jpg
2301.635	0.539	1	repeat	Run3	repeat/STIM_000.jpg
2305.816	0.66	1	repeat	Run3	repeat/STIM_000.jpg
2309.241	0.771	0	repeat	Run3	repeat/STIM_000.jpg
2312.386	0.719	1	repeat	Run3	repeat/STIM_000.jpg
2316.894	0.563	1	repeat	Run3	repeat/STIM_000.jpg
2320.72	0.833	1	repeat	Run3	repeat/STIM_001.jpg
2325.546	0.562	1	repeat	Run3	repeat/STIM_001.jpg
2329.874	0.534	1	repeat	Run3	repeat/STIM_001.jpg
2333.059	0.503	1	repeat	Run3	repeat/STIM_001.jpg
2336.046	0.585	1	repeat	Run3	repeat/STIM_001.jpg
2340.418	0.758	1	repeat	Run3	repeat/STIM_002.jpg
2343.942	0.7	1	repeat	Run3	repeat/STIM_002.jpg
2347.246	0.828	1	repeat	Run3	repeat/STIM_002.jpg
2352.015	0.537	1	repeat	Run3	repeat/STIM_002.jpg
2356.184	0.706	1	repeat	Run3	repeat/STIM_002.jpg
2360.538	0.462	1	repeat	Run3	repeat/STIM_003.jpg
2363.466	0.447	1	repeat	Run3	repeat/STIM_003.jpg
2366.454	0.802	1	repeat	Run3	repeat/STIM_003.jpg
2369.764	0.505	1	repeat	Run3	repeat/STIM_003.jpg
2372.431	0.891	0	repeat	Run3	repeat/STIM_003.jpg
2375.917	0.53	0	repeat	Run3	repeat/STIM_004.jpg
2379.734	0.93	1	repeat	Run3	repeat/STIM_004.jpg
2383.538	0.881	1	repeat	Run3	repeat/STIM_004.jpg
2388.442	0.56	1	repeat	Run3	repeat/STIM_004.jpg
2391.116	0.508	1	repeat	Run3	repeat/STIM_004.jpg
2395.39	0.768	1	repeat	Run3	repeat/STIM_005.jpg
2399.156	0.565	1	repeat	Run3	repeat/STIM_005.jpg
2402.755	0.806	1	repeat	Run3	repeat/STIM_005.jpg
2406.481	0.811	1	repeat	Run3	repeat/STIM_005.jpg
2410.992	0.53	1	repeat	Run3	repeat/STIM_005.jpg
2415.211	0.48	1	repeat	Run3	repeat/STIM_006.jpg
2418.277	0.554	1	repeat	Run3	repeat/STIM_006.jpg
2421.375	0.729	1	repeat	Run3	repeat/STIM_006.jpg
2424.831	0.618	1	repeat	Run3	repeat/STIM_006.jpg
2428.831	0.644	1	repeat	Run3	repeat/STIM_006.jpg
2432.752	0.46	1	repeat	Run3	repeat/STIM_007.jpg
2436.106	0.655	1	repeat	Run3	repeat/STIM_007.jpg
2440.296	0.784	1	repeat	Run3	repeat/STIM_007.jpg
2444.204	0.771	1	repeat	Run3	repeat/STIM_007.jpg
2448.805	0.698	0	repeat	Run3	repeat/STIM_007.jpg
2452.7	0.871	1	repeat	Run3	repeat/STIM_008.jpg
2455.751	0.599	1	repeat	Run3	repeat/STIM_008.jpg
2458.667	0.591	1	repeat	Run3	repeat/STIM_008.jpg
2463.273	0.543	1	repeat	Run3	repeat/STIM_008.jpg
2466.407	0.499	1	repeat	Run3	repeat/STIM_008.jpg
2469.896	0.534	1	repeat	Run3	repeat/STIM_009.jpg
2472.824	0.88	1	repeat	Run3	repeat/STIM_009.jpg
2476.312	0.506	1	repeat	Run3	repeat/STIM_009.jpg
2479.561	0.477	1	repeat	Run3	repeat/STIM_009.jpg
2482.627	0.86	1	repeat	Run3	repeat/STIM_009.jpg
2487.052	0.5	1	repeat	Run3	repeat/STIM_010.jpg
2490.095	0.714	1	repeat	Run3	repeat/STIM_010.jpg
2494.354	0.742	1	repeat	Run3	repeat/STIM_010.jpg
2497.349	0.788	1	repeat	Run3	repeat/STIM_010.jpg
2500.441	0.789	1	repeat	Run3	repeat/STIM_010.jpg
2505.288	0.579	1	repeat	Run3	repeat/STIM_011.jpg
2509.32	0.827	1	repeat	Run3	repeat/STIM_011.jpg
2513.899	0.743	1	repeat	Run3	repeat/STIM_011.jpg
2517.311	0.591	1	repeat	Run3	repeat/STIM_011.jpg
2520.501	0.607	1	repeat	Run3	repeat/STIM_011.jpg
2524.396	0.618	1	repeat	Run3	repeat/STIM_012.jpg
2527.868	0.602	1	repeat	Run3	repeat/STIM_012.jpg
2530.976	0.694	1	repeat	Run3	repeat/STIM_012.jpg
2534.88	0.902	1	repeat	Run3	repeat/STIM_012.jpg
2539.189	0.774	1	repeat	Run3	repeat/STIM_012.jpg
2543.789	0.562	0	repeat	Run3	repeat/STIM_013.jpg
2548.01	0.788	1	repeat	Run3	repeat/STIM_013.jpg
2552.749	0.812	1	repeat	Run3	repeat/STIM_013.jpg
2556.428	0.563	1	repeat	Run3	repeat/STIM_013.jpg
2559.555	0.581	1	repeat	Run3	repeat/STIM_013.jpg
2563.966	0.59	1	repeat	Run3	repeat/STIM_014.jpg
2568.231	0.47	1	repeat	Run3	repeat/STIM_014.jpg
2571.11	0.417	1	repeat	Run3	repeat/STIM_014.jpg
2574.392	0.465	1	repeat	Run3	repeat/STIM_014.jpg
2577.112	0.631	1	repeat	Run3	repeat/STIM_014.jpg
2580.691	1.83	1	generate	Run4	generate/STIM_000.jpg
2586.772	1.426	1	generate	Run4	generate/STIM_000.jpg
2590.783	0.995	1	generate	Run4	generate/STIM_000.jpg
2595.522	1.161	1	generate	Run4	generate/STIM_000.jpg
2600.611	1.144	0	generate	Run4	generate/STIM_000.jpg
2604.289	1.449	1	generate	Run4	generate/STIM_001.jpg
2609.82	1.436	1	generate	Run4	generate/STIM_001.jpg
2614.688	1.916	1	generate	Run4	generate/STIM_001.jpg
2619.499	0.875	1	generate	Run4	generate/STIM_001.jpg
2622.666	1.52	1	generate	Run4	generate/STIM_001.jpg
2628.194	1.57	1	generate	Run4	generate/STIM_002.jpg
2632.599	1.644	1	generate	Run4	generate/STIM_002.jpg
2637.463	0.893	0	generate	Run4	generate/STIM_002.jpg
2641.087	0.977	1	generate	Run4	generate/STIM_002.jpg
2645.64	0.971	1	generate	Run4	generate/STIM_002.jpg
2649.717	0.844	0	generate	Run4	generate/STIM_003.jpg
2653.142	0.852	1	generate	Run4	generate/STIM_003.jpg
2656.432	1.486	1	generate	Run4	generate/STIM_003.jpg
2662.033	1.367	0	generate	Run4	generate/STIM_003.jpg
2665.573	1.05	1	generate	Run4	generate/STIM_003.jpg
2668.858	1.516	1	generate	Run4	generate/STIM_004.jpg
2673.401	1.693	1	generate	Run4	generate/STIM_004.jpg
2678.746	1.032	0	generate	Run4	generate/STIM_004.jpg
2683.744	1.838	1	generate	Run4	generate/STIM_004.jpg
2689.055	1.514	1	generate	Run4	generate/STIM_004.jpg
2693.644	1.157	1	generate	Run4	generate/STIM_005.jpg
2697.526	1.721	1	generate	Run4	generate/STIM_005.jpg
2702.72	1.75	1	generate	Run4	generate/STIM_005.jpg
2708.396	1.299	1	generate	Run4	generate/STIM_005.jpg
2713.482	0.844	1	generate	Run4	generate/STIM_005.jpg
2718.439	1.187	1	generate	Run4	generate/STIM_006.jpg
2723.126	1.066	1	generate	Run4	generate/STIM_006.jpg
2728.101	1.235	1	generate	Run4	generate/STIM_006.jpg
2731.837	1.308	1	generate	Run4	generate/STIM_006.jpg
2736.901	1.01	1	generate	Run4	generate/STIM_006.jpg
2741.518	0.83	1	generate	Run4	generate/STIM_007.jpg
2744.745	1.417	1	generate	Run4	generate/STIM_007.jpg
2749.137	0.932	1	generate	Run4	generate/STIM_007.jpg
2753.306	1.005	1	generate	Run4	generate/STIM_007.jpg
2758.203	0.99	0	generate	Run4	generate/STIM_007.jpg
2761.676	1.26	1	generate	Run4	generate/STIM_008.jpg
2765.555	0.846	1	generate	Run4	generate/STIM_008.jpg
2768.925	0.996	1	generate	Run4	generate/STIM_008.jpg
2773.11	0.951	1	generate	Run4	generate/STIM_008.jpg
2777.934	1.384	1	generate	Run4	generate/STIM_008.jpg
2783.131	1.661	1	generate	Run4	generate/STIM_009.jpg
2788.62	0.888	1	generate	Run4	generate/STIM_009.jpg
2792.298	1.092	1	generate	Run4	generate/STIM_009.jpg
2795.938	1.48	1	generate	Run4	generate/STIM_009.jpg
2801.396	1.729	1	generate	Run4	generate/STIM_009.jpg
2805.509	1.275	1	generate	Run4	generate/STIM_010.jpg
2810.144	1.615	1	generate	Run4	generate/STIM_010.jpg
2815.239	1.623	1	generate	Run4	generate/STIM_010.jpg
2819.301	1.253	1	generate	Run4	generate/STIM_010.jpg
2823.855	1.642	1	generate	Run4	generate/STIM_010.jpg
2828.114	1.195	1	generate	Run4	generate/STIM_011.jpg
2832.061	1.391	1	generate	Run4	generate/STIM_011.jpg
2836.282	1.524	1	generate	Run4	generate/STIM_011.jpg
2840.392	1.681	1	generate	Run4	generate/STIM_011.jpg
2845.13	1.004	1	generate	Run4	generate/STIM_011.jpg
2849.045	1.468	1	generate	Run4	generate/STIM_012.jpg
2854.081	1.63	1	generate	Run4	generate/STIM_012.jpg
2858.887	1.73	1	generate	Run4	generate/STIM_012.jpg
2863.202	1.222	1	generate	Run4	generate/STIM_012.jpg
2866.956	1.783	1	generate	Run4	generate/STIM_012.jpg
2872.557	1.23	1	generate	Run4	generate/STIM_013.jpg
2875.827	1.547	1	generate	Run4	generate/STIM_013.jpg
2879.897	1.821	1	generate	Run4	generate/STIM_013.jpg
2885.522	1.172	1	generate	Run4	generate/STIM_013.jpg
2889.486	1.323	1	generate	Run4	generate/STIM_013.jpg
2893.273	1.467	1	generate	Run4	generate/STIM_014.jpg
2896.919	1.226	1	generate	Run4	generate/STIM_014.jpg
2901.212	0.742	1	generate	Run4	generate/STIM_014.jpg
2905.564	1.519	1	generate	Run4	generate/STIM_014.jpg
2909.841	1.786	1	generate	Run4	generate/STIM_014.jpg
2914.304	0.784	1	generate	Run4	generate/STIM_015.jpg
2917.963	1.494	1	generate	Run4	generate/STIM_015.jpg
2922.691	1.816	1	generate	Run4	generate/STIM_015.jpg
2928.561	1.893	1	generate	Run4	generate/STIM_015.jpg
2934.284	1.339	1	generate	Run4	generate/STIM_015.jpg
2939.42	1.321	1	generate	Run4	generate/STIM_016.jpg
2944.521	1.012	1	generate	Run4	generate/STIM_016.jpg
2949.397	1.759	1	generate	Run4	generate/STIM_016.jpg
2954.72	1.117	1	generate	Run4	generate/STIM_016.jpg
2958.936	1.536	1	generate	Run4	generate/STIM_016.jpg
2963.34	0.949	1	generate	Run4	generate/STIM_017.jpg
2967.992	1.841	1	generate	Run4	generate/STIM_017.jpg
2973.127	1.228	1	generate	Run4	generate/STIM_017.jpg
2976.673	1.274	1	generate	Run4	generate/STIM_017.jpg
2981.657	1.448	1	generate	Run4	generate/STIM_017.jpg
2986.393	0.944	1	generate	Run4	generate/STIM_018.jpg
2990.278	0.987	1	generate	Run4	generate/STIM_018.jpg
2994.462	1.412	1	generate	Run4	generate/STIM_018.jpg
2998.418	1.454	1	generate	Run4	generate/STIM_018.jpg
3003.416	0.971	1	generate	Run4	generate/STIM_018.jpg
3006.732	1.082	1	generate	Run4	generate/STIM_019.jpg
3011.41	1.744	1	generate	Run4	generate/STIM_019.jpg
3015.847	1.612	1	generate	Run4	generate/STIM_019.jpg
3021.237	0.879	1	generate	Run4	generate/STIM_019.jpg
3025.712	1.691	1	generate	Run4	generate/STIM_019.jpg
3031.033	1.323	1	generate	Run4	generate/STIM_020.jpg
3034.878	1.007	1	generate	Run4	generate/STIM_020.jpg
3039.45	0.955	1	generate	Run4	generate/STIM_020.jpg
3043.22	0.98	1	generate	Run4	generate/STIM_020.jpg
3047.11	0.842	1	generate	Run4	generate/STIM_020.jpg
3051.004	1.621	1	generate	Run4	generate/STIM_021.jpg
3055.135	0.883	1	generate	Run4	generate/STIM_021.jpg
3059.974	1.51	1	generate	Run4	generate/STIM_021.jpg
3065.374	1.012	1	generate	Run4	generate/STIM_021.jpg
3069.381	1.546	1	generate	Run4	generate/STIM_021.jpg
3074.69	1.9	1	generate	Run4	generate/STIM_022.jpg
3079.533	0.754	1	generate	Run4	generate/STIM_022.jpg
3083.178	1.071	1	generate	Run4	generate/STIM_022.jpg
3088.096	1.527	1	generate	Run4	generate/STIM_022.jpg
3092.987	0.817	1	generate	Run4	generate/STIM_022.jpg
3097.089	1.744	1	generate	Run4	generate/STIM_023.jpg
3101.643	1.542	1	generate	Run4	generate/STIM_023.jpg
3107.352	0.859	1	generate	Run4	generate/STIM_023.jpg
3111.67	1.056	1	generate	Run4	generate/STIM_023.jpg
3114.931	1.243	1	generate	Run4	generate/STIM_023.jpg
3118.425	1.796	1	generate	Run4	generate/STIM_024.jpg
3124.082	1.68	1	generate	Run4	generate/STIM_024.jpg
3129.492	1.556	1	generate	Run4	generate/STIM_024.jpg
3133.314	1.451	1	generate	Run4	generate/STIM_024.jpg
3137.137	1.122	1	generate	Run4	generate/STIM_024.jpg
3141.968	0.716	1	repeat	Run4	repeat/STIM_000.jpg
3145.005	0.826	0	repeat	Run4	repeat/STIM_000.jpg
3148.796	0.43	1	repeat	Run4	repeat/STIM_000.jpg
3152.189	0.616	1	repeat	Run4	repeat/STIM_000.jpg
3156.567	0.637	1	repeat	Run4	repeat/STIM_000.jpg
3160.86	0.808	1	repeat	Run4	repeat/STIM_001.jpg
3164.865	0.769	1	repeat	Run4	repeat/STIM_001.jpg
3168.532	0.586	1	repeat	Run4	repeat/STIM_001.jpg
3171.449	0.818	1	repeat	Run4	repeat/STIM_001.jpg
3174.778	0.774	1	repeat	Run4	repeat/STIM_001.jpg
3178.034	0.606	1	repeat	Run4	repeat/STIM_002.jpg
3181.04	0.653	1	repeat	Run4	repeat/STIM_002.jpg
3184.578	0.621	1	repeat	Run4	repeat/STIM_002.jpg
3187.359	0.538	1	repeat	Run4	repeat/STIM_002.jpg
3190.491	0.781	1	repeat	Run4	repeat/STIM_002.jpg
3194.95	0.474	1	repeat	Run4	repeat/STIM_003.jpg
3197.756	0.656	1	repeat	Run4	repeat/STIM_003.jpg
3200.789	0.523	1	repeat	Run4	repeat/STIM_003.jpg
3205.161	0.649	0	repeat	Run4	repeat/STIM_003.jpg
3208.855	0.712	1	repeat	Run4	repeat/STIM_003.jpg
3211.851	0.838	1	repeat	Run4	repeat/STIM_004.jpg
3216.063	0.73	1	repeat	Run4	repeat/STIM_004.jpg
3219.227	0.693	1	repeat	Run4	repeat/STIM_004.jpg
3222.035	0.631	1	repeat	Run4	repeat/STIM_004.jpg
3225.514	0.492	1	repeat	Run4	repeat/STIM_004.jpg
3229.702	0.794	1	repeat	Run4	repeat/STIM_005.jpg
3233.173	0.764	1	repeat	Run4	repeat/STIM_005.jpg
3236.724	0.754	1	repeat	Run4	repeat/STIM_005.jpg
3241.268	0.564	1	repeat	Run4	repeat/STIM_005.jpg
3245.533	0.457	1	repeat	Run4	repeat/STIM_005.jpg
3248.318	0.68	1	repeat	Run4	repeat/STIM_006.jpg
3251.997	0.456	1	repeat	Run4	repeat/STIM_006.jpg
3254.681	0.521	1	repeat	Run4	repeat/STIM_006.jpg
3259.178	0.629	1	repeat	Run4	repeat/STIM_006.jpg
3262.37	0.536	1	repeat	Run4	repeat/STIM_006.jpg
3266.916	0.839	1	repeat	Run4	repeat/STIM_007.jpg
3270.498	0.705	1	repeat	Run4	repeat/STIM_007.jpg
3274.353	0.45	1	repeat	Run4	repeat/STIM_007.jpg
3277.59	0.42	1	repeat	Run4	repeat/STIM_007.jpg
3280.563	0.498	1	repeat	Run4	repeat/STIM_007.jpg
3283.242	0.552	1	repeat	Run4	repeat/STIM_008.jpg
3286.552	0.619	1	repeat	Run4	repeat/STIM_008.jpg
3291.028	0.492	1	repeat	Run4	repeat/STIM_008.jpg
3294.219	0.553	1	repeat	Run4	repeat/STIM_008.jpg
3297.776	0.875	1	repeat	Run4	repeat/STIM_008.jpg
3302.282	0.446	1	repeat	Run4	repeat/STIM_009.jpg
3305.381	0.737	1	repeat	Run4	repeat/STIM_009.jpg
3309.08	0.777	1	repeat	Run4	repeat/STIM_009.jpg
3313.386	0.537	1	repeat	Run4	repeat/STIM_009.jpg
3316.847	0.646	1	repeat	Run4	repeat/STIM_009.jpg
3320.884	0.715	1	repeat	Run4	repeat/STIM_010.jpg
3325.077	0.441	1	repeat	Run4	repeat/STIM_010.jpg
3327.765	0.531	1	repeat	Run4	repeat/STIM_010.jpg
3331.237	0.745	1	repeat	Run4	repeat/STIM_010.jpg
3334.338	0.816	1	repeat	Run4	repeat/STIM_010.jpg
3337.49	0.846	1	repeat	Run4	repeat/STIM_011.jpg
3341.365	0.842	1	repeat	Run4	repeat/STIM_011.jpg
3344.905	0.741	1	repeat	Run4	repeat/STIM_011.jpg
3349.077	0.742	1	repeat	Run4	repeat/STIM_011.jpg
3353.704	0.711	1	repeat	Run4	repeat/STIM_011.jpg
3357.865	0.596	1	repeat	Run4	repeat/STIM_012.jpg
3361.205	0.435	1	repeat	Run4	repeat/STIM_012.jpg
3365.356	0.569	1	repeat	Run4	repeat/STIM_012.jpg
3369.184	0.773	1	repeat	Run4	repeat/STIM_012.jpg
3373.108	0.73	1	repeat	Run4	repeat/STIM_012.jpg
3377.218	0.452	1	repeat	Run4	repeat/STIM_013.jpg
3381.565	0.629	1	repeat	Run4	repeat/STIM_013.jpg
3384.593	0.807	1	repeat	Run4	repeat/STIM_013.jpg
3388.651	0.743	1	repeat	Run4	repeat/STIM_013.jpg
3393.067	0.736	1	repeat	Run4	repeat/STIM_013.jpg
3397.722	0.803	1	repeat	Run4	repeat/STIM_014.jpg
3400.733	0.94	1	repeat	Run4	repeat/STIM_014.jpg
3405.092	0.716	1	repeat	Run4	repeat/STIM_014.jpg
3409.456	0.392	1	repeat	Run4	repeat/STIM_014.jpg
3412.581	0.88	1	repeat	Run4	repeat/STIM_014.jpg
