onset	duration	accuracy	trial_type	learning_stage	stimulus
0.0	2.341	correct	generate	Run1	generate/STIM_000.jpg
5.221	2.947	incorrect	generate	Run1	generate/STIM_000.jpg
11.118	2.229	correct	generate	Run1	generate/STIM_000.jpg
16.048	1.94	correct	generate	Run1	generate/STIM_000.jpg
21.561	2.499	correct	generate	Run1	generate/STIM_000.jpg
26.151	3.361	incorrect	generate	Run1	generate/STIM_001.jpg
31.62	2.429	correct	generate	Run1	generate/STIM_001.jpg
36.958	2.978	correct	generate	Run1	generate/STIM_001.jpg
43.229	2.657	correct	generate	Run1	generate/STIM_001.jpg
49.244	1.457	correct	generate	Run1	generate/STIM_001.jpg
52.864	2.576	incorrect	generate	Run1	generate/STIM_002.jpg
59.01	3.913	incorrect	generate	Run1	generate/STIM_002.jpg
65.998	3.184	incorrect	generate	Run1	generate/STIM_002.jpg
71.34	2.76	correct	generate	Run1	generate/STIM_002.jpg
77.646	2.27	correct	generate	Run1	generate/STIM_002.jpg
82.703	3.725	incorrect	generate	Run1	generate/STIM_003.jpg
88.804	1.747	correct	generate	Run1	generate/STIM_003.jpg
94.491	3.761	correct	generate	Run1	generate/STIM_003.jpg
100.439	1.805	correct	generate	Run1	generate/STIM_003.jpg
106.085	2.55	correct	generate	Run1	generate/STIM_003.jpg
112.285	1.954	correct	generate	Run1	generate/STIM_004.jpg
118.015	2.721	incorrect	generate	Run1	generate/STIM_004.jpg
123.573	2.084	correct	generate	Run1	generate/STIM_004.jpg
127.727	1.456	correct	generate	Run1	generate/STIM_004.jpg
132.839	2.058	incorrect	generate	Run1	generate/STIM_004.jpg
138.418	2.657	correct	generate	Run1	generate/STIM_005.jpg
143.667	3.967	correct	generate	Run1	generate/STIM_005.jpg
150.326	3.587	correct	generate	Run1	generate/STIM_005.jpg
156.047	2.971	correct	generate	Run1	generate/STIM_005.jpg
161.288	1.594	correct	generate	Run1	generate/STIM_005.jpg
165.216	2.68	correct	generate	Run1	generate/STIM_006.jpg
171.211	3.163	incorrect	generate	Run1	generate/STIM_006.jpg
177.595	2.495	correct	generate	Run1	generate/STIM_006.jpg
183.899	2.457	correct	generate	Run1	generate/STIM_006.jpg
188.951	2.735	incorrect	generate	Run1	generate/STIM_006.jpg
195.518	4.027	incorrect	generate	Run1	generate/STIM_007.jpg
202.037	3.353	correct	generate	Run1	generate/STIM_007.jpg
208.011	2.703	correct	generate	Run1	generate/STIM_007.jpg
213.252	3.28	correct	generate	Run1	generate/STIM_007.jpg
219.944	1.751	correct	generate	Run1	generate/STIM_007.jpg
224.91	1.932	correct	generate	Run1	generate/STIM_008.jpg
230.033	2.89	incorrect	generate	Run1	generate/STIM_008.jpg
236.795	1.554	incorrect	generate	Run1	generate/STIM_008.jpg
241.97	1.801	correct	generate	Run1	generate/STIM_008.jpg
245.894	2.86	correct	generate	Run1	generate/STIM_008.jpg
252.249	3.209	correct	generate	Run1	generate/STIM_009.jpg
259.429	2.729	correct	generate	Run1	generate/STIM_009.jpg
264.252	1.562	correct	generate	Run1	generate/STIM_009.jpg
269.692	2.686	correct	generate	Run1	generate/STIM_009.jpg
275.814	2.845	correct	generate	Run1	generate/STIM_009.jpg
282.052	3.846	incorrect	generate	Run1	generate/STIM_010.jpg
288.498	2.917	correct	generate	Run1	generate/STIM_010.jpg
294.954	2.367	incorrect	generate	Run1	generate/STIM_010.jpg
299.618	2.937	correct	generate	Run1	generate/STIM_010.jpg
304.753	2.975	incorrect	generate	Run1	generate/STIM_010.jpg
311.132	1.948	incorrect	generate	Run1	generate/STIM_011.jpg
316.364	3.01	correct	generate	Run1	generate/STIM_011.jpg
322.924	3.234	correct	generate	Run1	generate/STIM_011.jpg
328.476	3.229	correct	generate	Run1	generate/STIM_011.jpg
333.873	1.374	correct	generate	Run1	generate/STIM_011.jpg
338.786	2.154	correct	generate	Run1	generate/STIM_012.jpg
343.257	2.104	incorrect	generate	Run1	generate/STIM_012.jpg
349.36	2.867	correct	generate	Run1	generate/STIM_012.jpg
355.039	2.989	correct	generate	Run1	generate/STIM_012.jpg
360.436	1.928	correct	generate	Run1	generate/STIM_012.jpg
364.934	3.195	incorrect	generate	Run1	generate/STIM_013.jpg
371.162	3.55	correct	generate	Run1	generate/STIM_013.jpg
377.186	3.766	correct	generate	Run1	generate/STIM_013.jpg
383.018	1.839	correct	generate	Run1	generate/STIM_013.jpg
387.094	2.17	incorrect	generate	Run1	generate/STIM_013.jpg
392.265	1.759	incorrect	generate	Run1	generate/STIM_014.jpg
397.779	1.929	incorrect	generate	Run1	generate/STIM_014.jpg
402.105	1.543	correct	generate	Run1	generate/STIM_014.jpg
407.23	2.986	correct	generate	Run1	generate/STIM_014.jpg
414.008	1.66	correct	generate	Run1	generate/STIM_014.jpg
419.234	1.744	correct	generate	Run1	generate/STIM_015.jpg
423.691	2.065	correct	generate	Run1	generate/STIM_015.jpg
428.699	3.292	correct	generate	Run1	generate/STIM_015.jpg
434.366	1.87	incorrect	generate	Run1	generate/STIM_015.jpg
439.331	2.816	correct	generate	Run1	generate/STIM_015.jpg
444.752	3.769	correct	generate	Run1	generate/STIM_016.jpg
451.988	3.512	incorrect	generate	Run1	generate/STIM_016.jpg
457.528	3.29	correct	generate	Run1	generate/STIM_016.jpg
463.969	3.364	correct	generate	Run1	generate/STIM_016.jpg
471.055	1.837	incorrect	generate	Run1	generate/STIM_016.jpg
475.353	2.663	incorrect	generate	Run1	generate/STIM_017.jpg
481.056	2.977	correct	generate	Run1	generate/STIM_017.jpg
486.154	2.406	incorrect	generate	Run1	generate/STIM_017.jpg
491.43	2.452	correct	generate	Run1	generate/STIM_017.jpg
496.25	3.254	correct	generate	Run1	generate/STIM_017.jpg
503.454	2.226	correct	generate	Run1	generate/STIM_018.jpg
509.117	2.969	correct	generate	Run1	generate/STIM_018.jpg
514.678	2.308	incorrect	generate	Run1	generate/STIM_018.jpg
520.549	2.847	correct	generate	Run1	generate/STIM_018.jpg
526.637	1.417	correct	generate	Run1	generate/STIM_018.jpg
531.096	2.148	correct	generate	Run1	generate/STIM_019.jpg
537.036	2.865	incorrect	generate	Run1	generate/STIM_019.jpg
542.362	3.622	correct	generate	Run1	generate/STIM_019.jpg
548.918	1.677	correct	generate	Run1	generate/STIM_019.jpg
553.653	1.859	correct	generate	Run1	generate/STIM_019.jpg
558.165	3.636	correct	generate	Run1	generate/STIM_020.jpg
565.584	3.271	correct	generate	Run1	generate/STIM_020.jpg
572.407	1.947	correct	generate	Run1	generate/STIM_020.jpg
577.733	2.363	correct	generate	Run1	generate/STIM_020.jpg
582.527	2.18	correct	generate	Run1	generate/STIM_020.jpg
587.329	1.757	incorrect	generate	Run1	generate/STIM_021.jpg
591.986	3.489	correct	generate	Run1	generate/STIM_021.jpg
597.896	3.388	correct	generate	Run1	generate/STIM_021.jpg
604.418	3.177	incorrect	generate	Run1	generate/STIM_021.jpg
610.502	2.265	incorrect	generate	Run1	generate/STIM_021.jpg
616.106	2.672	correct	generate	Run1	generate/STIM_022.jpg
621.074	3.111	correct	generate	Run1	generate/STIM_022.jpg
627.336	3.123	correct	generate	Run1	generate/STIM_022.jpg
633.085	2.413	correct	generate	Run1	generate/STIM_022.jpg
639.214	3.256	correct	generate	Run1	generate/STIM_022.jpg
646.21	1.781	correct	generate	Run1	generate/STIM_023.jpg
651.298	3.021	incorrect	generate	Run1	generate/STIM_023.jpg
658.159	1.531	incorrect	generate	Run1	generate/STIM_023.jpg
662.463	1.474	correct	generate	Run1	generate/STIM_023.jpg
666.703	2.207	correct	generate	Run1	generate/STIM_023.jpg
671.157	3.67	correct	generate	Run1	generate/STIM_024.jpg
678.051	1.982	correct	generate	Run1	generate/STIM_024.jpg
682.624	2.842	incorrect	generate	Run1	generate/STIM_024.jpg
687.636	2.902	correct	generate	Run1	generate/STIM_024.jpg
692.773	1.765	correct	generate	Run1	generate/STIM_024.jpg
696.915	0.814	correct	repeat	Run1	repeat/STIM_000.jpg
701.102	1.17	correct	repeat	Run1	repeat/STIM_000.jpg
706.072	0.795	correct	repeat	Run1	repeat/STIM_000.jpg
710.507	1.192	correct	repeat	Run1	repeat/STIM_000.jpg
715.537	0.722	correct	repeat	Run1	repeat/STIM_000.jpg
719.973	0.847	correct	repeat	Run1	repeat/STIM_001.jpg
723.365	0.862	correct	repeat	Run1	repeat/STIM_001.jpg
726.295	1.053	correct	repeat	Run1	repeat/STIM_001.jpg
730.045	0.719	correct	repeat	Run1	repeat/STIM_001.jpg
733.245	1.311	correct	repeat	Run1	repeat/STIM_001.jpg
737.332	1.083	correct	repeat	Run1	repeat/STIM_002.jpg
741.488	1.376	correct	repeat	Run1	repeat/STIM_002.jpg
746.132	0.839	incorrect	repeat	Run1	repeat/STIM_002.jpg
750.383	1.404	incorrect	repeat	Run1	repeat/STIM_002.jpg
754.013	1.153	correct	repeat	Run1	repeat/STIM_002.jpg
759.148	0.881	correct	repeat	Run1	repeat/STIM_003.jpg
762.351	0.742	correct	repeat	Run1	repeat/STIM_003.jpg
765.632	1.033	incorrect	repeat	Run1	repeat/STIM_003.jpg
770.581	0.746	correct	repeat	Run1	repeat/STIM_003.jpg
775.006	0.827	correct	repeat	Run1	repeat/STIM_003.jpg
778.278	1.161	correct	repeat	Run1	repeat/STIM_004.jpg
781.554	0.768	incorrect	repeat	Run1	repeat/STIM_004.jpg
784.39	0.906	correct	repeat	Run1	repeat/STIM_004.jpg
789.239	1.388	correct	repeat	Run1	repeat/STIM_004.jpg
793.371	1.199	incorrect	repeat	Run1	repeat/STIM_004.jpg
797.547	1.042	correct	repeat	Run1	repeat/STIM_005.jpg
801.221	0.924	correct	repeat	Run1	repeat/STIM_005.jpg
804.384	1.175	correct	repeat	Run1	repeat/STIM_005.jpg
809.009	1.356	correct	repeat	Run1	repeat/STIM_005.jpg
812.913	1.277	correct	repeat	Run1	repeat/STIM_005.jpg
816.824	1.209	correct	repeat	Run1	repeat/STIM_006.jpg
821.183	0.9	correct	repeat	Run1	repeat/STIM_006.jpg
825.519	0.969	correct	repeat	Run1	repeat/STIM_006.jpg
829.151	0.886	correct	repeat	Run1	repeat/STIM_006.jpg
833.776	0.989	correct	repeat	Run1	repeat/STIM_006.jpg
838.34	0.747	correct	repeat	Run1	repeat/STIM_007.jpg
841.713	0.988	correct	repeat	Run1	repeat/STIM_007.jpg
845.212	1.185	incorrect	repeat	Run1	repeat/STIM_007.jpg
849.575	1.318	correct	repeat	Run1	repeat/STIM_007.jpg
854.711	1.345	correct	repeat	Run1	repeat/STIM_007.jpg
858.883	1.355	correct	repeat	Run1	repeat/STIM_008.jpg
864.003	1.269	correct	repeat	Run1	repeat/STIM_008.jpg
867.415	1.114	correct	repeat	Run1	repeat/STIM_008.jpg
871.285	1.075	correct	repeat	Run1	repeat/STIM_008.jpg
876.064	1.0	incorrect	repeat	Run1	repeat/STIM_008.jpg
879.4	1.398	correct	repeat	Run1	repeat/STIM_009.jpg
884.15	1.221	correct	repeat	Run1	repeat/STIM_009.jpg
887.644	1.339	correct	repeat	Run1	repeat/STIM_009.jpg
891.052	1.068	correct	repeat	Run1	repeat/STIM_009.jpg
894.299	1.262	correct	repeat	Run1	repeat/STIM_009.jpg
897.877	0.777	correct	repeat	Run1	repeat/STIM_010.jpg
901.457	0.806	correct	repeat	Run1	repeat/STIM_010.jpg
904.606	0.965	correct	repeat	Run1	repeat/STIM_010.jpg
907.596	1.125	correct	repeat	Run1	repeat/STIM_010.jpg
912.143	1.402	correct	repeat	Run1	repeat/STIM_010.jpg
916.468	0.866	correct	repeat	Run1	repeat/STIM_011.jpg
921.323	1.245	correct	repeat	Run1	repeat/STIM_011.jpg
925.729	1.347	correct	repeat	Run1	repeat/STIM_011.jpg
930.687	1.323	correct	repeat	Run1	repeat/STIM_011.jpg
935.324	0.912	correct	repeat	Run1	repeat/STIM_011.jpg
938.59	1.313	correct	repeat	Run1	repeat/STIM_012.jpg
943.016	0.706	correct	repeat	Run1	repeat/STIM_012.jpg
947.051	1.04	correct	repeat	Run1	repeat/STIM_012.jpg
951.342	0.751	correct	repeat	Run1	repeat/STIM_012.jpg
955.246	1.239	correct	repeat	Run1	repeat/STIM_012.jpg
958.855	0.778	incorrect	repeat	Run1	repeat/STIM_013.jpg
962.906	1.084	correct	repeat	Run1	repeat/STIM_013.jpg
967.802	1.338	correct	repeat	Run1	repeat/STIM_013.jpg
972.554	0.857	correct	repeat	Run1	repeat/STIM_013.jpg
977.015	1.323	correct	repeat	Run1	repeat/STIM_013.jpg
981.537	0.969	correct	repeat	Run1	repeat/STIM_014.jpg
985.286	0.985	correct	repeat	Run1	repeat/STIM_014.jpg
989.754	0.831	correct	repeat	Run1	repeat/STIM_014.jpg
994.273	0.917	correct	repeat	Run1	repeat/STIM_014.jpg
998.721	1.255	correct	repeat	Run1	repeat/STIM_014.jpg
1002.706	3.488	correct	generate	Run2	generate/STIM_000.jpg
1009.139	2.317	incorrect	generate	Run2	generate/STIM_000.jpg
1013.567	1.4	correct	generate	Run2	generate/STIM_000.jpg
1018.518	1.566	incorrect	generate	Run2	generate/STIM_000.jpg
1022.349	1.636	correct	generate	Run2	generate/STIM_000.jpg
1026.882	3.214	correct	generate	Run2	generate/STIM_001.jpg
1032.421	2.24	correct	generate	Run2	generate/STIM_001.jpg
1038.596	1.42	correct	generate	Run2	generate/STIM_001.jpg
1042.29	2.704	correct	generate	Run2	generate/STIM_001.jpg
1047.413	2.222	correct	generate	Run2	generate/STIM_001.jpg
1052.145	1.459	correct	generate	Run2	generate/STIM_002.jpg
1056.377	3.113	correct	generate	Run2	generate/STIM_002.jpg
1062.384	2.072	correct	generate	Run2	generate/STIM_002.jpg
1067.369	1.411	correct	generate	Run2	generate/STIM_002.jpg
1071.266	2.76	correct	generate	Run2	generate/STIM_002.jpg
1077.904	2.0	correct	generate	Run2	generate/STIM_003.jpg
1082.639	2.623	correct	generate	Run2	generate/STIM_003.jpg
1087.536	2.846	incorrect	generate	Run2	generate/STIM_003.jpg
1092.972	2.913	incorrect	generate	Run2	generate/STIM_003.jpg
1098.282	2.751	correct	generate	Run2	generate/STIM_003.jpg
1104.848	3.01	correct	generate	Run2	generate/STIM_004.jpg
1111.714	1.879	correct	generate	Run2	generate/STIM_004.jpg
1116.973	1.74	correct	generate	Run2	generate/STIM_004.jpg
1121.161	1.218	correct	generate	Run2	generate/STIM_004.jpg
1124.554	2.88	correct	generate	Run2	generate/STIM_004.jpg
1129.448	2.426	correct	generate	Run2	generate/STIM_005.jpg
1133.889	2.438	incorrect	generate	Run2	generate/STIM_005.jpg
1139.406	2.456	correct	generate	Run2	generate/STIM_005.jpg
1144.155	1.56	correct	generate	Run2	generate/STIM_005.jpg
1148.237	2.134	correct	generate	Run2	generate/STIM_005.jpg
1154.295	2.025	correct	generate	Run2	generate/STIM_006.jpg
1160.256	2.052	correct	generate	Run2	generate/STIM_006.jpg
1164.845	1.863	correct	generate	Run2	generate/STIM_006.jpg
1169.963	2.29	correct	generate	Run2	generate/STIM_006.jpg
1175.593	2.221	correct	generate	Run2	generate/STIM_006.jpg
1181.309	2.292	correct	generate	Run2	generate/STIM_007.jpg
1186.033	2.844	correct	generate	Run2	generate/STIM_007.jpg
1192.577	2.258	correct	generate	Run2	generate/STIM_007.jpg
1198.369	1.949	correct	generate	Run2	generate/STIM_007.jpg
1202.826	1.635	incorrect	generate	Run2	generate/STIM_007.jpg
1206.94	2.212	correct	generate	Run2	generate/STIM_008.jpg
1211.7	2.804	correct	generate	Run2	generate/STIM_008.jpg
1217.899	2.156	correct	generate	Run2	generate/STIM_008.jpg
1222.768	2.353	incorrect	generate	Run2	generate/STIM_008.jpg
1228.975	2.037	incorrect	generate	Run2	generate/STIM_008.jpg
1233.586	3.271	correct	generate	Run2	generate/STIM_009.jpg
1239.152	2.084	correct	generate	Run2	generate/STIM_009.jpg
1245.026	2.689	incorrect	generate	Run2	generate/STIM_009.jpg
1250.818	1.812	correct	generate	Run2	generate/STIM_009.jpg
1255.966	1.872	correct	generate	Run2	generate/STIM_009.jpg
1260.159	3.384	correct	generate	Run2	generate/STIM_010.jpg
1267.417	2.307	correct	generate	Run2	generate/STIM_010.jpg
1272.83	2.295	incorrect	generate	Run2	generate/STIM_010.jpg
1278.842	1.527	correct	generate	Run2	generate/STIM_010.jpg
1284.246	2.416	correct	generate	Run2	generate/STIM_010.jpg
1289.313	2.436	incorrect	generate	Run2	generate/STIM_011.jpg
1293.831	1.361	incorrect	generate	Run2	generate/STIM_011.jpg
1297.205	2.595	correct	generate	Run2	generate/STIM_011.jpg
1302.87	1.848	correct	generate	Run2	generate/STIM_011.jpg
1308.419	2.511	correct	generate	Run2	generate/STIM_011.jpg
1313.844	3.548	correct	generate	Run2	generate/STIM_012.jpg
1319.968	2.005	correct	generate	Run2	generate/STIM_012.jpg
1324.893	1.705	correct	generate	Run2	generate/STIM_012.jpg
1330.056	2.066	correct	generate	Run2	generate/STIM_012.jpg
1335.395	2.435	correct	generate	Run2	generate/STIM_012.jpg
1340.338	1.556	correct	generate	Run2	generate/STIM_013.jpg
1344.674	2.83	correct	generate	Run2	generate/STIM_013.jpg
1350.865	1.28	correct	generate	Run2	generate/STIM_013.jpg
1354.335	2.614	incorrect	generate	Run2	generate/STIM_013.jpg
1359.473	2.074	incorrect	generate	Run2	generate/STIM_013.jpg
1363.899	3.336	correct	generate	Run2	generate/STIM_014.jpg
1369.642	1.897	correct	generate	Run2	generate/STIM_014.jpg
1374.393	1.93	correct	generate	Run2	generate/STIM_014.jpg
1380.153	1.735	correct	generate	Run2	generate/STIM_014.jpg
1384.707	1.782	correct	generate	Run2	generate/STIM_014.jpg
1390.356	1.563	correct	generate	Run2	generate/STIM_015.jpg
1395.917	2.92	incorrect	generate	Run2	generate/STIM_015.jpg
1401.875	2.748	correct	generate	Run2	generate/STIM_015.jpg
1407.295	2.503	correct	generate	Run2	generate/STIM_015.jpg
1412.602	1.894	correct	generate	Run2	generate/STIM_015.jpg
1418.049	3.542	correct	generate	Run2	generate/STIM_016.jpg
1424.798	2.762	correct	generate	Run2	generate/STIM_016.jpg
1430.295	1.301	correct	generate	Run2	generate/STIM_016.jpg
1434.05	1.868	correct	generate	Run2	generate/STIM_016.jpg
1438.445	2.676	correct	generate	Run2	generate/STIM_016.jpg
1444.198	3.354	correct	generate	Run2	generate/STIM_017.jpg
1451.411	3.235	correct	generate	Run2	generate/STIM_017.jpg
1457.105	2.347	correct	generate	Run2	generate/STIM_017.jpg
1463.177	1.291	correct	generate	Run2	generate/STIM_017.jpg
1466.833	2.694	correct	generate	Run2	generate/STIM_017.jpg
1471.683	3.162	correct	generate	Run2	generate/STIM_018.jpg
1477.097	2.059	correct	generate	Run2	generate/STIM_018.jpg
1481.496	2.21	correct	generate	Run2	generate/STIM_018.jpg
1485.718	1.784	correct	generate	Run2	generate/STIM_018.jpg
1489.911	1.587	correct	generate	Run2	generate/STIM_018.jpg
1494.074	2.789	correct	generate	Run2	generate/STIM_019.jpg
1500.739	3.09	correct	generate	Run2	generate/STIM_019.jpg
1507.324	2.294	correct	generate	Run2	generate/STIM_019.jpg
1512.238	2.016	correct	generate	Run2	generate/STIM_019.jpg
1517.78	1.984	correct	generate	Run2	generate/STIM_019.jpg
1523.182	3.406	correct	generate	Run2	generate/STIM_020.jpg
1529.061	2.059	correct	generate	Run2	generate/STIM_020.jpg
1533.513	1.491	correct	generate	Run2	generate/STIM_020.jpg
1537.588	2.85	correct	generate	Run2	generate/STIM_020.jpg
1543.044	1.737	correct	generate	Run2	generate/STIM_020.jpg
1547.671	1.555	correct	generate	Run2	generate/STIM_021.jpg
1551.274	1.504	correct	generate	Run2	generate/STIM_021.jpg
1554.879	2.053	correct	generate	Run2	generate/STIM_021.jpg
1559.732	1.6	correct	generate	Run2	generate/STIM_021.jpg
1564.431	1.274	correct	generate	Run2	generate/STIM_021.jpg
1568.85	3.202	incorrect	generate	Run2	generate/STIM_022.jpg
1574.81	3.024	correct	generate	Run2	generate/STIM_022.jpg
1580.34	2.332	correct	generate	Run2	generate/STIM_022.jpg
1585.529	2.711	correct	generate	Run2	generate/STIM_022.jpg
1591.065	1.977	correct	generate	Run2	generate/STIM_022.jpg
1596.64	3.44	correct	generate	Run2	generate/STIM_023.jpg
1602.978	1.567	correct	generate	Run2	generate/STIM_023.jpg
1607.382	2.52	correct	generate	Run2	generate/STIM_023.jpg
1611.914	1.255	correct	generate	Run2	generate/STIM_023.jpg
1615.497	2.029	correct	generate	Run2	generate/STIM_023.jpg
1620.641	2.107	incorrect	generate	Run2	generate/STIM_024.jpg
1625.09	2.363	correct	generate	Run2	generate/STIM_024.jpg
1631.36	1.66	incorrect	generate	Run2	generate/STIM_024.jpg
1635.38	1.928	correct	generate	Run2	generate/STIM_024.jpg
1640.947	1.65	correct	generate	Run2	generate/STIM_024.jpg
1645.054	0.838	correct	repeat	Run2	repeat/STIM_000.jpg
1648.768	1.319	correct	repeat	Run2	repeat/STIM_000.jpg
1652.432	1.007	correct	repeat	Run2	repeat/STIM_000.jpg
1656.147	0.982	correct	repeat	Run2	repeat/STIM_000.jpg
1660.038	1.14	correct	repeat	Run2	repeat/STIM_000.jpg
1664.176	1.151	correct	repeat	Run2	repeat/STIM_001.jpg
1669.126	1.132	correct	repeat	Run2	repeat/STIM_001.jpg
1672.686	0.721	correct	repeat	Run2	repeat/STIM_001.jpg
1677.243	1.281	correct	repeat	Run2	repeat/STIM_001.jpg
1681.841	1.346	correct	repeat	Run2	repeat/STIM_001.jpg
1686.782	0.73	incorrect	repeat	Run2	repeat/STIM_002.jpg
1690.439	1.398	correct	repeat	Run2	repeat/STIM_002.jpg
1694.172	0.775	correct	repeat	Run2	repeat/STIM_002.jpg
1698.669	0.98	correct	repeat	Run2	repeat/STIM_002.jpg
1703.466	1.39	correct	repeat	Run2	repeat/STIM_002.jpg
1707.973	0.815	incorrect	repeat	Run2	repeat/STIM_003.jpg
1712.588	1.185	correct	repeat	Run2	repeat/STIM_003.jpg
1716.739	0.846	correct	repeat	Run2	repeat/STIM_003.jpg
1720.878	1.166	correct	repeat	Run2	repeat/STIM_003.jpg
1725.388	1.092	incorrect	repeat	Run2	repeat/STIM_003.jpg
1729.142	1.021	correct	repeat	Run2	repeat/STIM_004.jpg
1733.999	0.729	correct	repeat	Run2	repeat/STIM_004.jpg
1737.923	0.843	correct	repeat	Run2	repeat/STIM_004.jpg
1740.864	0.746	correct	repeat	Run2	repeat/STIM_004.jpg
1745.173	1.302	incorrect	repeat	Run2	repeat/STIM_004.jpg
1749.498	0.977	correct	repeat	Run2	repeat/STIM_005.jpg
1752.998	1.162	correct	repeat	Run2	repeat/STIM_005.jpg
1757.884	0.922	incorrect	repeat	Run2	repeat/STIM_005.jpg
1761.413	0.985	correct	repeat	Run2	repeat/STIM_005.jpg
1764.971	1.091	correct	repeat	Run2	repeat/STIM_005.jpg
1769.826	1.14	correct	repeat	Run2	repeat/STIM_006.jpg
1773.813	1.197	correct	repeat	Run2	repeat/STIM_006.jpg
1778.564	0.746	correct	repeat	Run2	repeat/STIM_006.jpg
1782.274	1.014	correct	repeat	Run2	repeat/STIM_006.jpg
1785.435	1.007	correct	repeat	Run2	repeat/STIM_006.jpg
1789.938	0.876	correct	repeat	Run2	repeat/STIM_007.jpg
1794.601	0.943	correct	repeat	Run2	repeat/STIM_007.jpg
1799.324	1.256	correct	repeat	Run2	repeat/STIM_007.jpg
1803.596	0.965	correct	repeat	Run2	repeat/STIM_007.jpg
1807.057	1.109	correct	repeat	Run2	repeat/STIM_007.jpg
1811.133	1.143	correct	repeat	Run2	repeat/STIM_008.jpg
1814.763	0.728	correct	repeat	Run2	repeat/STIM_008.jpg
1818.716	1.12	correct	repeat	Run2	repeat/STIM_008.jpg
1823.226	1.093	correct	repeat	Run2	repeat/STIM_008.jpg
1827.165	1.12	correct	repeat	Run2	repeat/STIM_008.jpg
1831.807	1.021	correct	repeat	Run2	repeat/STIM_009.jpg
1835.563	1.08	correct	repeat	Run2	repeat/STIM_009.jpg
1840.225	1.364	correct	repeat	Run2	repeat/STIM_009.jpg
1844.383	0.972	correct	repeat	Run2	repeat/STIM_009.jpg
1848.067	1.181	correct	repeat	Run2	repeat/STIM_009.jpg
1851.618	1.234	correct	repeat	Run2	repeat/STIM_010.jpg
1855.16	0.872	correct	repeat	Run2	repeat/STIM_010.jpg
1859.317	0.796	correct	repeat	Run2	repeat/STIM_010.jpg
1863.38	0.984	correct	repeat	Run2	repeat/STIM_010.jpg
1867.45	1.164	correct	repeat	Run2	repeat/STIM_010.jpg
1871.616	1.017	correct	repeat	Run2	repeat/STIM_011.jpg
1875.536	1.102	correct	repeat	Run2	repeat/STIM_011.jpg
1878.704	0.792	correct	repeat	Run2	repeat/STIM_011.jpg
1882.303	0.874	correct	repeat	Run2	repeat/STIM_011.jpg
1886.78	1.014	correct	repeat	Run2	repeat/STIM_011.jpg
1891.603	1.152	correct	repeat	Run2	repeat/STIM_012.jpg
1894.793	1.123	correct	repeat	Run2	repeat/STIM_012.jpg
1898.317	0.833	correct	repeat	Run2	repeat/STIM_012.jpg
1902.747	0.86	correct	repeat	Run2	repeat/STIM_012.jpg
1906.605	1.301	correct	repeat	Run2	repeat/STIM_012.jpg
1910.096	1.147	correct	repeat	Run2	repeat/STIM_013.jpg
1915.022	1.371	correct	repeat	Run2	repeat/STIM_013.jpg
1919.567	1.13	correct	repeat	Run2	repeat/STIM_013.jpg
1922.9	0.965	correct	repeat	Run2	repeat/STIM_013.jpg
1927.861	1.249	correct	repeat	Run2	repeat/STIM_013.jpg
1932.358	0.984	incorrect	repeat	Run2	repeat/STIM_014.jpg
1936.698	1.264	incorrect	repeat	Run2	repeat/STIM_014.jpg
1939.976	0.935	correct	repeat	Run2	repeat/STIM_014.jpg
1943.096	0.783	correct	repeat	Run2	repeat/STIM_014.jpg
1945.898	1.265	correct	repeat	Run2	repeat/STIM_014.jpg
1950.833	1.741	correct	generate	Run3	generate/STIM_000.jpg
1955.991	1.341	correct	generate	Run3	generate/STIM_000.jpg
1961.286	1.298	correct	generate	Run3	generate/STIM_000.jpg
1965.426	1.233	correct	generate	Run3	generate/STIM_000.jpg
1969.237	2.434	correct	generate	Run3	generate/STIM_000.jpg
1974.927	2.455	correct	generate	Run3	generate/STIM_001.jpg
1979.811	1.334	correct	generate	Run3	generate/STIM_001.jpg
1984.908	1.233	correct	generate	Run3	generate/STIM_001.jpg
1988.606	2.414	incorrect	generate	Run3	generate/STIM_001.jpg
1993.363	2.806	correct	generate	Run3	generate/STIM_001.jpg
1998.361	2.908	correct	generate	Run3	generate/STIM_002.jpg
2003.525	1.439	correct	generate	Run3	generate/STIM_002.jpg
2007.346	1.544	incorrect	generate	Run3	generate/STIM_002.jpg
2011.943	2.713	incorrect	generate	Run3	generate/STIM_002.jpg
2018.147	2.396	incorrect	generate	Run3	generate/STIM_002.jpg
2024.09	1.849	correct	generate	Run3	generate/STIM_003.jpg
2028.087	2.046	correct	generate	Run3	generate/STIM_003.jpg
2032.829	2.092	correct	generate	Run3	generate/STIM_003.jpg
2037.211	2.422	correct	generate	Run3	generate/STIM_003.jpg
2042.863	2.745	correct	generate	Run3	generate/STIM_003.jpg
2048.564	1.532	correct	generate	Run3	generate/STIM_004.jpg
2054.024	1.579	correct	generate	Run3	generate/STIM_004.jpg
2058.551	1.741	correct	generate	Run3	generate/STIM_004.jpg
2063.286	2.747	correct	generate	Run3	generate/STIM_004.jpg
2068.412	1.72	correct	generate	Run3	generate/STIM_004.jpg
2073.544	2.666	correct	generate	Run3	generate/STIM_005.jpg
2078.663	2.061	incorrect	generate	Run3	generate/STIM_005.jpg
2083.781	2.616	correct	generate	Run3	generate/STIM_005.jpg
2088.444	2.837	correct	generate	Run3	generate/STIM_005.jpg
2093.464	1.829	correct	generate	Run3	generate/STIM_005.jpg
2098.964	2.415	correct	generate	Run3	generate/STIM_006.jpg
2104.732	2.362	correct	generate	Run3	generate/STIM_006.jpg
2109.472	1.304	correct	generate	Run3	generate/STIM_006.jpg
2114.208	1.226	correct	generate	Run3	generate/STIM_006.jpg
2118.202	2.393	correct	generate	Run3	generate/STIM_006.jpg
2123.299	2.852	correct	generate	Run3	generate/STIM_007.jpg
2128.608	1.539	correct	generate	Run3	generate/STIM_007.jpg
2132.615	2.333	incorrect	generate	Run3	generate/STIM_007.jpg
2137.753	2.71	correct	generate	Run3	generate/STIM_007.jpg
2144.447	1.379	correct	generate	Run3	generate/STIM_007.jpg
2149.292	1.672	correct	generate	Run3	generate/STIM_008.jpg
2154.273	1.539	incorrect	generate	Run3	generate/STIM_008.jpg
2158.238	1.374	incorrect	generate	Run3	generate/STIM_008.jpg
2162.939	1.386	correct	generate	Run3	generate/STIM_008.jpg
2168.04	1.326	correct	generate	Run3	generate/STIM_008.jpg
2173.355	2.657	incorrect	generate	Run3	generate/STIM_009.jpg
2178.046	1.724	correct	generate	Run3	generate/STIM_009.jpg
2181.879	1.628	correct	generate	Run3	generate/STIM_009.jpg
2186.504	1.394	correct	generate	Run3	generate/STIM_009.jpg
2190.338	1.338	correct	generate	Run3	generate/STIM_009.jpg
2194.84	2.942	correct	generate	Run3	generate/STIM_010.jpg
2200.775	1.445	correct	generate	Run3	generate/STIM_010.jpg
2204.633	1.64	correct	generate	Run3	generate/STIM_010.jpg
2209.71	1.894	correct	generate	Run3	generate/STIM_010.jpg
2214.498	2.57	correct	generate	Run3	generate/STIM_010.jpg
2219.088	1.52	incorrect	generate	Run3	generate/STIM_011.jpg
2223.416	2.852	correct	generate	Run3	generate/STIM_011.jpg
2230.033	2.519	correct	generate	Run3	generate/STIM_011.jpg
2235.089	1.621	correct	generate	Run3	generate/STIM_011.jpg
2238.78	1.443	correct	generate	Run3	generate/STIM_011.jpg
2243.24	1.932	correct	generate	Run3	generate/STIM_012.jpg
2249.12	2.09	incorrect	generate	Run3	generate/STIM_012.jpg
2254.955	2.711	correct	generate	Run3	generate/STIM_012.jpg
2261.608	2.37	correct	generate	Run3	generate/STIM_012.jpg
2267.196	2.11	correct	generate	Run3	generate/STIM_012.jpg
2271.534	1.628	correct	generate	Run3	generate/STIM_013.jpg
2276.934	2.53	correct	generate	Run3	generate/STIM_013.jpg
2282.936	2.187	correct	generate	Run3	generate/STIM_013.jpg
2288.378	2.797	correct	generate	Run3	generate/STIM_013.jpg
2293.31	2.158	incorrect	generate	Run3	generate/STIM_013.jpg
2298.658	1.836	correct	generate	Run3	generate/STIM_014.jpg
2303.548	1.268	correct	generate	Run3	generate/STIM_014.jpg
2307.73	1.886	correct	generate	Run3	generate/STIM_014.jpg
2312.384	2.141	incorrect	generate	Run3	generate/STIM_014.jpg
2317.74	1.208	correct	generate	Run3	generate/STIM_014.jpg
2322.787	1.269	correct	generate	Run3	generate/STIM_015.jpg
2326.898	1.797	incorrect	generate	Run3	generate/STIM_015.jpg
2331.405	1.516	correct	generate	Run3	generate/STIM_015.jpg
2334.983	1.402	correct	generate	Run3	generate/STIM_015.jpg
2339.418	1.613	correct	generate	Run3	generate/STIM_015.jpg
2343.952	1.341	incorrect	generate	Run3	generate/STIM_016.jpg
2347.997	2.469	correct	generate	Run3	generate/STIM_016.jpg
2352.801	2.303	correct	generate	Run3	generate/STIM_016.jpg
2358.385	2.187	correct	generate	Run3	generate/STIM_016.jpg
2363.768	2.394	correct	generate	Run3	generate/STIM_016.jpg
2368.627	1.533	correct	generate	Run3	generate/STIM_017.jpg
2372.948	2.102	incorrect	generate	Run3	generate/STIM_017.jpg
2377.164	2.105	correct	generate	Run3	generate/STIM_017.jpg
2382.136	2.027	correct	generate	Run3	generate/STIM_017.jpg
2388.124	2.729	correct	generate	Run3	generate/STIM_017.jpg
2393.392	1.877	correct	generate	Run3	generate/STIM_018.jpg
2398.853	2.58	correct	generate	Run3	generate/STIM_018.jpg
2404.462	2.751	correct	generate	Run3	generate/STIM_018.jpg
2410.218	1.943	correct	generate	Run3	generate/STIM_018.jpg
2415.838	2.088	correct	generate	Run3	generate/STIM_018.jpg
2420.91	1.626	correct	generate	Run3	generate/STIM_019.jpg
2425.48	2.131	correct	generate	Run3	generate/STIM_019.jpg
2430.355	1.544	correct	generate	Run3	generate/STIM_019.jpg
2434.42	2.367	correct	generate	Run3	generate/STIM_019.jpg
2438.842	2.628	correct	generate	Run3	generate/STIM_019.jpg
2443.566	2.642	correct	generate	Run3	generate/STIM_020.jpg
2448.76	1.275	correct	generate	Run3	generate/STIM_020.jpg
2453.291	1.513	correct	generate	Run3	generate/STIM_020.jpg
2458.186	2.777	correct	generate	Run3	generate/STIM_020.jpg
2463.679	2.086	correct	generate	Run3	generate/STIM_020.jpg
2468.758	2.601	correct	generate	Run3	generate/STIM_021.jpg
2475.253	1.387	correct	generate	Run3	generate/STIM_021.jpg
2479.168	2.841	correct	generate	Run3	generate/STIM_021.jpg
2484.602	2.893	correct	generate	Run3	generate/STIM_021.jpg
2490.755	1.667	incorrect	generate	Run3	generate/STIM_021.jpg
2496.37	1.267	incorrect	generate	Run3	generate/STIM_022.jpg
2499.859	2.028	correct	generate	Run3	generate/STIM_022.jpg
2505.515	1.648	incorrect	generate	Run3	generate/STIM_022.jpg
2510.55	2.198	correct	generate	Run3	generate/STIM_022.jpg
2515.552	1.708	correct	generate	Run3	generate/STIM_022.jpg
2520.653	2.689	correct	generate	Run3	generate/STIM_023.jpg
2526.497	2.662	correct	generate	Run3	generate/STIM_023.jpg
2532.381	1.775	correct	generate	Run3	generate/STIM_023.jpg
2538.017	2.455	correct	generate	Run3	generate/STIM_023.jpg
2542.981	1.386	correct	generate	Run3	generate/STIM_023.jpg
2548.244	1.645	correct	generate	Run3	generate/STIM_024.jpg
2552.976	2.469	correct	generate	Run3	generate/STIM_024.jpg
2557.726	2.946	correct	generate	Run3	generate/STIM_024.jpg
2563.07	2.674	correct	generate	Run3	generate/STIM_024.jpg
2568.004	2.629	correct	generate	Run3	generate/STIM_024.jpg
2573.176	1.011	correct	repeat	Run3	repeat/STIM_000.jpg
2576.603	0.773	correct	repeat	Run3	repeat/STIM_000.jpg
2579.835	1.363	incorrect	repeat	Run3	repeat/STIM_000.jpg
2583.243	1.043	correct	repeat	Run3	repeat/STIM_000.jpg
2587.206	1.095	correct	repeat	Run3	repeat/STIM_000.jpg
2592.186	1.289	correct	repeat	Run3	repeat/STIM_001.jpg
2597.255	0.851	correct	repeat	Run3	repeat/STIM_001.jpg
2601.737	1.067	correct	repeat	Run3	repeat/STIM_001.jpg
2604.805	0.924	correct	repeat	Run3	repeat/STIM_001.jpg
2607.913	1.094	correct	repeat	Run3	repeat/STIM_001.jpg
2612.332	0.744	correct	repeat	Run3	repeat/STIM_002.jpg
2616.519	1.218	correct	repeat	Run3	repeat/STIM_002.jpg
2619.925	1.258	correct	repeat	Run3	repeat/STIM_002.jpg
2623.582	0.912	correct	repeat	Run3	repeat/STIM_002.jpg
2627.59	1.16	correct	repeat	Run3	repeat/STIM_002.jpg
2631.158	1.077	correct	repeat	Run3	repeat/STIM_003.jpg
2635.185	1.262	correct	repeat	Run3	repeat/STIM_003.jpg
2639.63	1.179	correct	repeat	Run3	repeat/STIM_003.jpg
2642.888	0.829	correct	repeat	Run3	repeat/STIM_003.jpg
2646.886	1.172	incorrect	repeat	Run3	repeat/STIM_003.jpg
2650.972	1.32	incorrect	repeat	Run3	repeat/STIM_004.jpg
2655.298	1.106	correct	repeat	Run3	repeat/STIM_004.jpg
2660.195	1.168	correct	repeat	Run3	repeat/STIM_004.jpg
2663.494	1.29	correct	repeat	Run3	repeat/STIM_004.jpg
2668.33	1.114	correct	repeat	Run3	repeat/STIM_004.jpg
2672.658	1.153	correct	repeat	Run3	repeat/STIM_005.jpg
2676.908	0.964	correct	repeat	Run3	repeat/STIM_005.jpg
2680.618	1.244	correct	repeat	Run3	repeat/STIM_005.jpg
2685.081	0.979	correct	repeat	Run3	repeat/STIM_005.jpg
2688.75	1.115	correct	repeat	Run3	repeat/STIM_005.jpg
2693.765	0.745	correct	repeat	Run3	repeat/STIM_006.jpg
2697.717	1.133	correct	repeat	Run3	repeat/STIM_006.jpg
2700.915	0.996	correct	repeat	Run3	repeat/STIM_006.jpg
2704.461	1.294	correct	repeat	Run3	repeat/STIM_006.jpg
2709.446	1.091	correct	repeat	Run3	repeat/STIM_006.jpg
2713.87	1.246	correct	repeat	Run3	repeat/STIM_007.jpg
2718.702	0.737	correct	repeat	Run3	repeat/STIM_007.jpg
2721.567	0.706	correct	repeat	Run3	repeat/STIM_007.jpg
2724.293	1.317	correct	repeat	Run3	repeat/STIM_007.jpg
2728.761	1.018	incorrect	repeat	Run3	repeat/STIM_007.jpg
2732.977	0.798	correct	repeat	Run3	repeat/STIM_008.jpg
2737.409	1.206	correct	repeat	Run3	repeat/STIM_008.jpg
2741.761	1.18	correct	repeat	Run3	repeat/STIM_008.jpg
2745.913	1.182	correct	repeat	Run3	repeat/STIM_008.jpg
2750.332	0.914	correct	repeat	Run3	repeat/STIM_008.jpg
2754.48	1.331	correct	repeat	Run3	repeat/STIM_009.jpg
2759.538	1.063	correct	repeat	Run3	repeat/STIM_009.jpg
2763.253	1.042	correct	repeat	Run3	repeat/STIM_009.jpg
2767.174	1.083	correct	repeat	Run3	repeat/STIM_009.jpg
2771.286	1.025	correct	repeat	Run3	repeat/STIM_009.jpg
2774.463	1.319	correct	repeat	Run3	repeat/STIM_010.jpg
2778.905	1.114	correct	repeat	Run3	repeat/STIM_010.jpg
2782.51	1.354	incorrect	repeat	Run3	repeat/STIM_010.jpg
2787.813	0.842	correct	repeat	Run3	repeat/STIM_010.jpg
2791.32	0.97	correct	repeat	Run3	repeat/STIM_010.jpg
2795.033	1.147	correct	repeat	Run3	repeat/STIM_011.jpg
2798.447	1.294	correct	repeat	Run3	repeat/STIM_011.jpg
2803.145	0.992	correct	repeat	Run3	repeat/STIM_011.jpg
2807.964	1.298	correct	repeat	Run3	repeat/STIM_011.jpg
2812.744	0.938	correct	repeat	Run3	repeat/STIM_011.jpg
2816.357	0.777	correct	repeat	Run3	repeat/STIM_012.jpg
2820.358	1.162	correct	repeat	Run3	repeat/STIM_012.jpg
2823.553	1.104	correct	repeat	Run3	repeat/STIM_012.jpg
2828.435	1.364	correct	repeat	Run3	repeat/STIM_012.jpg
2832.67	0.926	correct	repeat	Run3	repeat/STIM_012.jpg
2836.656	0.922	incorrect	repeat	Run3	repeat/STIM_013.jpg
2841.067	0.753	correct	repeat	Run3	repeat/STIM_013.jpg
2845.135	1.344	correct	repeat	Run3	repeat/STIM_013.jpg
2849.726	1.234	correct	repeat	Run3	repeat/STIM_013.jpg
2853.139	1.167	correct	repeat	Run3	repeat/STIM_013.jpg
2857.979	0.832	correct	repeat	Run3	repeat/STIM_014.jpg
2862.547	1.281	correct	repeat	Run3	repeat/STIM_014.jpg
2866.487	1.303	correct	repeat	Run3	repeat/STIM_014.jpg
2870.849	0.93	correct	repeat	Run3	repeat/STIM_014.jpg
2875.062	0.72	correct	repeat	Run3	repeat/STIM_014.jpg
2879.082	2.681	correct	generate	Run4	generate/STIM_000.jpg
2884.316	2.627	correct	generate	Run4	generate/STIM_000.jpg
2890.141	1.672	correct	generate	Run4	generate/STIM_000.jpg
2895.717	2.89	correct	generate	Run4	generate/STIM_000.jpg
2902.454	2.386	incorrect	generate	Run4	generate/STIM_000.jpg
2907.986	1.527	correct	generate	Run4	generate/STIM_001.jpg
2912.95	2.823	correct	generate	Run4	generate/STIM_001.jpg
2919.473	2.081	incorrect	generate	Run4	generate/STIM_001.jpg
2923.646	2.073	correct	generate	Run4	generate/STIM_001.jpg
2929.029	1.474	correct	generate	Run4	generate/STIM_001.jpg
2933.422	2.481	correct	generate	Run4	generate/STIM_002.jpg
2938.045	1.854	correct	generate	Run4	generate/STIM_002.jpg
2943.024	1.947	incorrect	generate	Run4	generate/STIM_002.jpg
2947.191	1.966	correct	generate	Run4	generate/STIM_002.jpg
2951.844	1.579	correct	generate	Run4	generate/STIM_002.jpg
2956.047	2.666	correct	generate	Run4	generate/STIM_003.jpg
2961.362	1.46	correct	generate	Run4	generate/STIM_003.jpg
2966.256	1.808	correct	generate	Run4	generate/STIM_003.jpg
2971.992	2.136	incorrect	generate	Run4	generate/STIM_003.jpg
2976.131	1.991	correct	generate	Run4	generate/STIM_003.jpg
2980.822	1.974	correct	generate	Run4	generate/STIM_004.jpg
2986.553	2.668	correct	generate	Run4	generate/STIM_004.jpg
2991.819	2.185	incorrect	generate	Run4	generate/STIM_004.jpg
2996.258	2.084	correct	generate	Run4	generate/STIM_004.jpg
3000.806	1.545	correct	generate	Run4	generate/STIM_004.jpg
3005.44	2.647	correct	generate	Run4	generate/STIM_005.jpg
3011.965	1.603	correct	generate	Run4	generate/STIM_005.jpg
3016.702	2.366	correct	generate	Run4	generate/STIM_005.jpg
3021.306	1.982	correct	generate	Run4	generate/STIM_005.jpg
3027.028	1.822	correct	generate	Run4	generate/STIM_005.jpg
3031.257	2.166	correct	generate	Run4	generate/STIM_006.jpg
3036.762	1.652	correct	generate	Run4	generate/STIM_006.jpg
3040.426	2.094	correct	generate	Run4	generate/STIM_006.jpg
3046.459	1.285	correct	generate	Run4	generate/STIM_006.jpg
3051.647	1.598	correct	generate	Run4	generate/STIM_006.jpg
3056.207	2.128	correct	generate	Run4	generate/STIM_007.jpg
3061.475	2.744	correct	generate	Run4	generate/STIM_007.jpg
3066.932	2.133	correct	generate	Run4	generate/STIM_007.jpg
3071.535	1.306	correct	generate	Run4	generate/STIM_007.jpg
3076.703	1.199	incorrect	generate	Run4	generate/STIM_007.jpg
3080.003	2.73	correct	generate	Run4	generate/STIM_008.jpg
3085.73	1.958	correct	generate	Run4	generate/STIM_008.jpg
3089.871	2.807	correct	generate	Run4	generate/STIM_008.jpg
3096.545	1.224	correct	generate	Run4	generate/STIM_008.jpg
3101.383	2.686	correct	generate	Run4	generate/STIM_008.jpg
3106.699	2.746	correct	generate	Run4	generate/STIM_009.jpg
3112.513	1.53	correct	generate	Run4	generate/STIM_009.jpg
3117.438	1.293	correct	generate	Run4	generate/STIM_009.jpg
3122.496	2.802	correct	generate	Run4	generate/STIM_009.jpg
3128.1	2.22	correct	generate	Run4	generate/STIM_009.jpg
3133.222	2.585	correct	generate	Run4	generate/STIM_010.jpg
3138.012	2.295	correct	generate	Run4	generate/STIM_010.jpg
3143.492	1.646	correct	generate	Run4	generate/STIM_010.jpg
3148.17	1.792	correct	generate	Run4	generate/STIM_010.jpg
3153.093	2.868	correct	generate	Run4	generate/STIM_010.jpg
3158.649	2.098	correct	generate	Run4	generate/STIM_011.jpg
3163.626	2.43	correct	generate	Run4	generate/STIM_011.jpg
3168.069	2.335	correct	generate	Run4	generate/STIM_011.jpg
3173.044	2.128	correct	generate	Run4	generate/STIM_011.jpg
3177.326	2.504	correct	generate	Run4	generate/STIM_011.jpg
3182.868	2.202	correct	generate	Run4	generate/STIM_012.jpg
3187.735	2.945	correct	generate	Run4	generate/STIM_012.jpg
3193.054	2.838	correct	generate	Run4	generate/STIM_012.jpg
3199.351	2.504	correct	generate	Run4	generate/STIM_012.jpg
3205.207	1.675	correct	generate	Run4	generate/STIM_012.jpg
3209.929	1.595	correct	generate	Run4	generate/STIM_013.jpg
3214.111	2.358	correct	generate	Run4	generate/STIM_013.jpg
3219.472	2.5	correct	generate	Run4	generate/STIM_013.jpg
3225.116	1.419	correct	generate	Run4	generate/STIM_013.jpg
3230.484	1.582	correct	generate	Run4	generate/STIM_013.jpg
3234.557	1.638	correct	generate	Run4	generate/STIM_014.jpg
3240.038	1.377	correct	generate	Run4	generate/STIM_014.jpg
3243.862	2.053	correct	generate	Run4	generate/STIM_014.jpg
3249.406	2.934	correct	generate	Run4	generate/STIM_014.jpg
3254.851	2.472	correct	generate	Run4	generate/STIM_014.jpg
3261.302	1.441	correct	generate	Run4	generate/STIM_015.jpg
3264.819	1.504	correct	generate	Run4	generate/STIM_015.jpg
3269.256	2.313	correct	generate	Run4	generate/STIM_015.jpg
3274.583	2.478	correct	generate	Run4	generate/STIM_015.jpg
3280.935	2.627	correct	generate	Run4	generate/STIM_015.jpg
3286.933	1.482	correct	generate	Run4	generate/STIM_016.jpg
3291.505	1.371	correct	generate	Run4	generate/STIM_016.jpg
3296.17	2.635	correct	generate	Run4	generate/STIM_016.jpg
3302.473	2.709	correct	generate	Run4	generate/STIM_016.jpg
3308.144	2.193	correct	generate	Run4	generate/STIM_016.jpg
3314.168	2.683	correct	generate	Run4	generate/STIM_017.jpg
3320.1	1.281	correct	generate	Run4	generate/STIM_017.jpg
3323.978	2.863	correct	generate	Run4	generate/STIM_017.jpg
3329.824	2.199	correct	generate	Run4	generate/STIM_017.jpg
3334.392	2.23	correct	generate	Run4	generate/STIM_017.jpg
3340.416	1.954	correct	generate	Run4	generate/STIM_018.jpg
3345.916	1.437	correct	generate	Run4	generate/STIM_018.jpg
3351.328	1.261	correct	generate	Run4	generate/STIM_018.jpg
3355.298	1.33	correct	generate	Run4	generate/STIM_018.jpg
3359.858	2.051	correct	generate	Run4	generate/STIM_018.jpg
3365.177	2.843	correct	generate	Run4	generate/STIM_019.jpg
3370.77	1.601	correct	generate	Run4	generate/STIM_019.jpg
3375.55	2.616	correct	generate	Run4	generate/STIM_019.jpg
3380.903	2.179	correct	generate	Run4	generate/STIM_019.jpg
3386.083	2.702	correct	generate	Run4	generate/STIM_019.jpg
3391.119	1.648	correct	generate	Run4	generate/STIM_020.jpg
3394.856	1.547	correct	generate	Run4	generate/STIM_020.jpg
3398.708	2.756	correct	generate	Run4	generate/STIM_020.jpg
3405.071	2.645	incorrect	generate	Run4	generate/STIM_020.jpg
3409.812	2.704	correct	generate	Run4	generate/STIM_020.jpg
3416.451	1.954	correct	generate	Run4	generate/STIM_021.jpg
3420.406	1.511	correct	generate	Run4	generate/STIM_021.jpg
3424.066	1.191	correct	generate	Run4	generate/STIM_021.jpg
3428.788	1.502	correct	generate	Run4	generate/STIM_021.jpg
3433.246	1.389	correct	generate	Run4	generate/STIM_021.jpg
3437.675	2.682	correct	generate	Run4	generate/STIM_022.jpg
3442.943	2.478	correct	generate	Run4	generate/STIM_022.jpg
3449.301	1.758	correct	generate	Run4	generate/STIM_022.jpg
3453.558	1.784	correct	generate	Run4	generate/STIM_022.jpg
3459.053	2.619	correct	generate	Run4	generate/STIM_022.jpg
3465.496	2.459	correct	generate	Run4	generate/STIM_023.jpg
3470.304	2.162	correct	generate	Run4	generate/STIM_023.jpg
3476.031	2.385	correct	generate	Run4	generate/STIM_023.jpg
3482.001	2.004	correct	generate	Run4	generate/STIM_023.jpg
3486.053	1.749	correct	generate	Run4	generate/STIM_023.jpg
3491.741	2.766	correct	generate	Run4	generate/STIM_024.jpg
3497.207	1.35	correct	generate	Run4	generate/STIM_024.jpg
3501.546	1.24	correct	generate	Run4	generate/STIM_024.jpg
3505.473	2.956	correct	generate	Run4	generate/STIM_024.jpg
3511.239	2.069	correct	generate	Run4	generate/STIM_024.jpg
3516.8	1.316	correct	repeat	Run4	repeat/STIM_000.jpg
3522.061	1.325	incorrect	repeat	Run4	repeat/STIM_000.jpg
3525.465	0.956	correct	repeat	Run4	repeat/STIM_000.jpg
3530.028	1.311	correct	repeat	Run4	repeat/STIM_000.jpg
3533.607	1.243	incorrect	repeat	Run4	repeat/STIM_000.jpg
3537.883	0.716	correct	repeat	Run4	repeat/STIM_001.jpg
3542.528	1.104	correct	repeat	Run4	repeat/STIM_001.jpg
3546.815	1.36	correct	repeat	Run4	repeat/STIM_001.jpg
3551.632	1.301	correct	repeat	Run4	repeat/STIM_001.jpg
3555.847	0.715	correct	repeat	Run4	repeat/STIM_001.jpg
3559.887	0.878	correct	repeat	Run4	repeat/STIM_002.jpg
3562.88	0.751	correct	repeat	Run4	repeat/STIM_002.jpg
3566.191	1.195	correct	repeat	Run4	repeat/STIM_002.jpg
3569.6	1.327	correct	repeat	Run4	repeat/STIM_002.jpg
3574.222	0.714	incorrect	repeat	Run4	repeat/STIM_002.jpg
3578.046	1.26	correct	repeat	Run4	repeat/STIM_003.jpg
3582.807	0.913	correct	repeat	Run4	repeat/STIM_003.jpg
3585.842	1.052	correct	repeat	Run4	repeat/STIM_003.jpg
3590.123	1.132	incorrect	repeat	Run4	repeat/STIM_003.jpg
3594.797	1.126	correct	repeat	Run4	repeat/STIM_003.jpg
3598.869	1.378	incorrect	repeat	Run4	repeat/STIM_004.jpg
3604.232	1.165	correct	repeat	Run4	repeat/STIM_004.jpg
3607.92	1.276	correct	repeat	Run4	repeat/STIM_004.jpg
3612.375	1.145	correct	repeat	Run4	repeat/STIM_004.jpg
3616.872	0.787	correct	repeat	Run4	repeat/STIM_004.jpg
3620.447	0.872	correct	repeat	Run4	repeat/STIM_005.jpg
3623.745	1.073	correct	repeat	Run4	repeat/STIM_005.jpg
3626.862	1.292	correct	repeat	Run4	repeat/STIM_005.jpg
3631.292	1.396	correct	repeat	Run4	repeat/STIM_005.jpg
3634.861	1.384	correct	repeat	Run4	repeat/STIM_005.jpg
3639.461	0.922	correct	repeat	Run4	repeat/STIM_006.jpg
3644.116	1.195	correct	repeat	Run4	repeat/STIM_006.jpg
3647.383	1.389	correct	repeat	Run4	repeat/STIM_006.jpg
3652.109	0.772	correct	repeat	Run4	repeat/STIM_006.jpg
3655.908	1.319	correct	repeat	Run4	repeat/STIM_006.jpg
3660.03	1.004	correct	repeat	Run4	repeat/STIM_007.jpg
3664.474	1.128	correct	repeat	Run4	repeat/STIM_007.jpg
3667.66	0.999	incorrect	repeat	Run4	repeat/STIM_007.jpg
3671.485	1.134	correct	repeat	Run4	repeat/STIM_007.jpg
3675.651	0.89	correct	repeat	Run4	repeat/STIM_007.jpg
3679.139	1.223	correct	repeat	Run4	repeat/STIM_008.jpg
3683.142	1.16	correct	repeat	Run4	repeat/STIM_008.jpg
3686.873	0.714	correct	repeat	Run4	repeat/STIM_008.jpg
3690.492	0.93	correct	repeat	Run4	repeat/STIM_008.jpg
3693.734	0.994	correct	repeat	Run4	repeat/STIM_008.jpg
3698.261	0.904	correct	repeat	Run4	repeat/STIM_009.jpg
3701.865	1.361	correct	repeat	Run4	repeat/STIM_009.jpg
3705.446	1.321	correct	repeat	Run4	repeat/STIM_009.jpg
3708.923	1.328	correct	repeat	Run4	repeat/STIM_009.jpg
3712.772	0.746	correct	repeat	Run4	repeat/STIM_009.jpg
3716.389	1.391	correct	repeat	Run4	repeat/STIM_010.jpg
3720.754	1.164	correct	repeat	Run4	repeat/STIM_010.jpg
3725.841	1.347	correct	repeat	Run4	repeat/STIM_010.jpg
3730.622	1.396	correct	repeat	Run4	repeat/STIM_010.jpg
3734.138	0.98	correct	repeat	Run4	repeat/STIM_010.jpg
3738.848	0.761	correct	repeat	Run4	repeat/STIM_011.jpg
3741.69	1.409	correct	repeat	Run4	repeat/STIM_011.jpg
3746.724	0.743	correct	repeat	Run4	repeat/STIM_011.jpg
3750.042	0.82	correct	repeat	Run4	repeat/STIM_011.jpg
3752.951	1.258	correct	repeat	Run4	repeat/STIM_011.jpg
3756.779	0.726	correct	repeat	Run4	repeat/STIM_012.jpg
3761.393	1.146	correct	repeat	Run4	repeat/STIM_012.jpg
3766.213	1.305	correct	repeat	Run4	repeat/STIM_012.jpg
3769.893	0.827	correct	repeat	Run4	repeat/STIM_012.jpg
3774.278	1.084	correct	repeat	Run4	repeat/STIM_012.jpg
3777.988	0.982	correct	repeat	Run4	repeat/STIM_013.jpg
3782.453	1.138	correct	repeat	Run4	repeat/STIM_013.jpg
3786.956	1.184	correct	repeat	Run4	repeat/STIM_013.jpg
3792.137	1.186	correct	repeat	Run4	repeat/STIM_013.jpg
3795.505	0.98	correct	repeat	Run4	repeat/STIM_013.jpg
3798.928	0.734	correct	repeat	Run4	repeat/STIM_014.jpg
3802.011	1.396	correct	repeat	Run4	repeat/STIM_014.jpg
3805.438	1.276	correct	repeat	Run4	repeat/STIM_014.jpg
3809.455	1.064	correct	repeat	Run4	repeat/STIM_014.jpg
3814.03	1.377	correct	repeat	Run4	repeat/STIM_014.jpg
