onset	duration	response_time_ms	trial_type	learning_stage	stimulus	response_port
0.0	3.541	3540.8	navigation	Trial1	navigation/STIM_000.jpg	100
5.997	1.632	1631.6	navigation	Trial1	navigation/STIM_000.jpg	100
11.083	1.408	1407.7	navigation	Trial1	navigation/STIM_000.jpg	99
15.531	2.83	2829.5	navigation	Trial1	navigation/STIM_000.jpg	100
21.032	2.524	2523.9	navigation	Trial1	navigation/STIM_000.jpg	99
26.133	2.302	2302.0	navigation	Trial1	navigation/STIM_000.jpg	100
31.239	1.878	1877.5	navigation	Trial1	navigation/STIM_001.jpg	100
36.098	3.434	3434.4	navigation	Trial1	navigation/STIM_001.jpg	100
42.952	2.052	2052.3	navigation	Trial1	navigation/STIM_001.jpg	100
48.879	2.441	2440.7	navigation	Trial1	navigation/STIM_001.jpg	99
54.431	1.519	1518.6	navigation	Trial1	navigation/STIM_001.jpg	99
58.291	2.552	2552.1	navigation	Trial1	navigation/STIM_001.jpg	99
64.499	1.719	1718.9	navigation	Trial1	navigation/STIM_002.jpg	100
70.036	2.655	2655.4	navigation	Trial1	navigation/STIM_002.jpg	100
76.132	3.001	3001.2	navigation	Trial1	navigation/STIM_002.jpg	100
82.842	2.863	2863.4	navigation	Trial1	navigation/STIM_002.jpg	100
88.325	2.144	2144.4	navigation	Trial1	navigation/STIM_002.jpg	100
93.898	2.175	2174.9	navigation	Trial1	navigation/STIM_002.jpg	99
98.251	3.251	3251.4	navigation	Trial1	navigation/STIM_003.jpg	100
103.744	1.708	1707.7	navigation	Trial1	navigation/STIM_003.jpg	99
108.343	3.215	3214.6	navigation	Trial1	navigation/STIM_003.jpg	99
114.11	1.918	1918.0	navigation	Trial1	navigation/STIM_003.jpg	100
119.701	1.655	1655.2	navigation	Trial1	navigation/STIM_003.jpg	100
124.826	1.961	1961.0	navigation	Trial1	navigation/STIM_003.jpg	99
130.179	2.228	2228.0	navigation	Trial1	navigation/STIM_004.jpg	99
134.759	2.279	2279.3	navigation	Trial1	navigation/STIM_004.jpg	100
140.666	3.008	3008.0	navigation	Trial1	navigation/STIM_004.jpg	100
146.749	2.011	2010.6	navigation	Trial1	navigation/STIM_004.jpg	100
150.984	2.131	2131.0	navigation	Trial1	navigation/STIM_004.jpg	99
156.408	1.192	1191.6	navigation	Trial1	navigation/STIM_004.jpg	99
160.316	3.286	3286.0	navigation	Trial1	navigation/STIM_005.jpg	100
167.309	1.469	1468.9	navigation	Trial1	navigation/STIM_005.jpg	99
170.918	2.63	2630.1	navigation	Trial1	navigation/STIM_005.jpg	99
176.278	2.862	2862.2	navigation	Trial1	navigation/STIM_005.jpg	99
181.759	2.675	2675.2	navigation	Trial1	navigation/STIM_005.jpg	100
187.211	1.765	1764.7	navigation	Trial1	navigation/STIM_005.jpg	100
192.607	2.02	2020.3	navigation	Trial1	navigation/STIM_006.jpg	100
197.224	1.709	1709.3	navigation	Trial1	navigation/STIM_006.jpg	99
201.0	2.83	2829.5	navigation	Trial1	navigation/STIM_006.jpg	100
207.492	2.783	2782.7	navigation	Trial1	navigation/STIM_006.jpg	99
212.715	1.239	1238.9	navigation	Trial1	navigation/STIM_006.jpg	100
217.646	1.824	1823.5	navigation	Trial1	navigation/STIM_006.jpg	100
222.017	3.117	3117.1	navigation	Trial1	navigation/STIM_007.jpg	99
228.168	2.564	2563.9	navigation	Trial1	navigation/STIM_007.jpg	99
234.072	2.564	2564.2	navigation	Trial1	navigation/STIM_007.jpg	100
239.242	2.157	2157.2	navigation	Trial1	navigation/STIM_007.jpg	99
245.102	2.109	2108.9	navigation	Trial1	navigation/STIM_007.jpg	99
251.211	1.664	1664.3	navigation	Trial1	navigation/STIM_007.jpg	99
255.878	1.975	1975.2	navigation	Trial1	navigation/STIM_008.jpg	99
260.557	3.216	3216.0	navigation	Trial1	navigation/STIM_008.jpg	100
267.624	3.205	3205.0	navigation	Trial1	navigation/STIM_008.jpg	99
274.51	2.502	2501.6	navigation	Trial1	navigation/STIM_008.jpg	100
280.123	1.56	1560.2	navigation	Trial1	navigation/STIM_008.jpg	100
284.732	2.229	2229.1	navigation	Trial1	navigation/STIM_008.jpg	100
290.732	1.649	1649.4	navigation	Trial1	navigation/STIM_009.jpg	99
295.385	1.831	1831.2	navigation	Trial1	navigation/STIM_009.jpg	100
301.185	2.236	2236.0	navigation	Trial1	navigation/STIM_009.jpg	99
306.542	1.966	1966.2	navigation	Trial1	navigation/STIM_009.jpg	99
312.44	2.468	2468.0	navigation	Trial1	navigation/STIM_009.jpg	100
317.837	2.272	2272.3	navigation	Trial1	navigation/STIM_009.jpg	100
323.722	2.664	2663.6	navigation	Trial1	navigation/STIM_010.jpg	99
328.856	1.978	1978.4	navigation	Trial1	navigation/STIM_010.jpg	99
333.778	2.208	2208.2	navigation	Trial1	navigation/STIM_010.jpg	99
338.311	2.311	2310.9	navigation	Trial1	navigation/STIM_010.jpg	99
344.093	2.624	2624.4	navigation	Trial1	navigation/STIM_010.jpg	100
348.81	2.326	2325.5	navigation	Trial1	navigation/STIM_010.jpg	100
353.601	3.516	3515.5	navigation	Trial1	navigation/STIM_011.jpg	100
359.382	2.962	2961.8	navigation	Trial1	navigation/STIM_011.jpg	100
365.695	1.387	1387.1	navigation	Trial1	navigation/STIM_011.jpg	100
370.561	2.504	2503.6	navigation	Trial1	navigation/STIM_011.jpg	99
377.01	1.215	1215.0	navigation	Trial1	navigation/STIM_011.jpg	99
380.602	1.774	1773.8	navigation	Trial1	navigation/STIM_011.jpg	99
386.008	1.019	1018.9	pointing	Trial1	pointing/STIM_000.jpg	99
390.305	0.894	894.0	pointing	Trial1	pointing/STIM_000.jpg	99
393.427	0.883	883.2	pointing	Trial1	pointing/STIM_000.jpg	99
397.108	1.062	1062.3	pointing	Trial1	pointing/STIM_000.jpg	99
401.864	0.634	634.1	pointing	Trial1	pointing/STIM_000.jpg	99
404.643	1.058	1057.8	pointing	Trial1	pointing/STIM_000.jpg	100
408.794	0.739	739.0	pointing	Trial1	pointing/STIM_001.jpg	100
411.549	0.906	905.6	pointing	Trial1	pointing/STIM_001.jpg	99
414.922	0.907	906.8	pointing	Trial1	pointing/STIM_001.jpg	99
419.299	0.801	801.3	pointing	Trial1	pointing/STIM_001.jpg	99
423.754	0.911	910.9	pointing	Trial1	pointing/STIM_001.jpg	99
428.18	0.941	940.6	pointing	Trial1	pointing/STIM_001.jpg	100
432.891	0.954	953.8	pointing	Trial1	pointing/STIM_002.jpg	99
437.258	0.612	611.6	pointing	Trial1	pointing/STIM_002.jpg	100
440.606	0.913	913.3	pointing	Trial1	pointing/STIM_002.jpg	99
443.996	0.843	842.6	pointing	Trial1	pointing/STIM_002.jpg	100
447.359	0.976	976.5	pointing	Trial1	pointing/STIM_002.jpg	100
452.224	1.033	1033.1	pointing	Trial1	pointing/STIM_002.jpg	99
455.536	0.623	622.8	pointing	Trial1	pointing/STIM_003.jpg	99
458.659	0.63	629.6	pointing	Trial1	pointing/STIM_003.jpg	100
461.71	0.703	703.4	pointing	Trial1	pointing/STIM_003.jpg	100
465.796	1.003	1002.8	pointing	Trial1	pointing/STIM_003.jpg	100
469.268	0.899	899.3	pointing	Trial1	pointing/STIM_003.jpg	100
473.633	0.596	596.0	pointing	Trial1	pointing/STIM_003.jpg	99
476.655	1.05	1049.9	pointing	Trial1	pointing/STIM_004.jpg	100
481.115	0.584	584.4	pointing	Trial1	pointing/STIM_004.jpg	99
484.362	0.899	899.0	pointing	Trial1	pointing/STIM_004.jpg	100
488.301	0.795	795.2	pointing	Trial1	pointing/STIM_004.jpg	100
491.789	0.786	785.5	pointing	Trial1	pointing/STIM_004.jpg	100
495.513	0.843	843.1	pointing	Trial1	pointing/STIM_004.jpg	99
499.35	0.939	938.7	pointing	Trial1	pointing/STIM_005.jpg	99
503.692	0.747	746.9	pointing	Trial1	pointing/STIM_005.jpg	99
506.538	0.912	912.4	pointing	Trial1	pointing/STIM_005.jpg	100
509.902	0.668	668.1	pointing	Trial1	pointing/STIM_005.jpg	100
512.661	0.927	926.9	pointing	Trial1	pointing/STIM_005.jpg	100
517.032	0.632	631.7	pointing	Trial1	pointing/STIM_005.jpg	99
520.139	0.7	699.5	pointing	Trial1	pointing/STIM_006.jpg	100
523.96	0.67	670.1	pointing	Trial1	pointing/STIM_006.jpg	99
527.726	0.619	619.1	pointing	Trial1	pointing/STIM_006.jpg	99
531.631	0.781	781.3	pointing	Trial1	pointing/STIM_006.jpg	99
536.096	0.613	612.7	pointing	Trial1	pointing/STIM_006.jpg	100
539.9	0.747	746.6	pointing	Trial1	pointing/STIM_006.jpg	100
543.786	0.909	908.6	pointing	Trial1	pointing/STIM_007.jpg	100
548.173	0.685	685.2	pointing	Trial1	pointing/STIM_007.jpg	99
552.738	1.053	1053.1	pointing	Trial1	pointing/STIM_007.jpg	99
556.193	0.642	642.2	pointing	Trial1	pointing/STIM_007.jpg	100
559.167	0.871	871.2	pointing	Trial1	pointing/STIM_007.jpg	100
562.185	0.752	751.8	pointing	Trial1	pointing/STIM_007.jpg	100
565.441	0.749	748.6	pointing	Trial1	pointing/STIM_008.jpg	99
569.376	0.722	722.3	pointing	Trial1	pointing/STIM_008.jpg	100
572.29	0.649	649.1	pointing	Trial1	pointing/STIM_008.jpg	99
576.103	0.616	616.1	pointing	Trial1	pointing/STIM_008.jpg	99
580.082	0.977	976.9	pointing	Trial1	pointing/STIM_008.jpg	99
583.983	0.819	819.0	pointing	Trial1	pointing/STIM_008.jpg	99
588.678	0.624	624.0	pointing	Trial1	pointing/STIM_009.jpg	99
592.934	1.047	1047.3	pointing	Trial1	pointing/STIM_009.jpg	99
596.011	0.813	812.9	pointing	Trial1	pointing/STIM_009.jpg	100
599.29	0.973	972.8	pointing	Trial1	pointing/STIM_009.jpg	100
603.185	0.664	663.6	pointing	Trial1	pointing/STIM_009.jpg	99
607.569	0.87	870.0	pointing	Trial1	pointing/STIM_009.jpg	100
610.847	0.639	638.9	pointing	Trial1	pointing/STIM_010.jpg	100
614.331	0.62	619.7	pointing	Trial1	pointing/STIM_010.jpg	100
617.026	0.718	717.7	pointing	Trial1	pointing/STIM_010.jpg	100
620.503	0.846	845.6	pointing	Trial1	pointing/STIM_010.jpg	100
625.13	1.077	1077.3	pointing	Trial1	pointing/STIM_010.jpg	99
628.618	0.908	908.3	pointing	Trial1	pointing/STIM_010.jpg	99
632.399	0.812	812.4	pointing	Trial1	pointing/STIM_011.jpg	100
636.918	0.962	962.5	pointing	Trial1	pointing/STIM_011.jpg	100
640.269	0.748	747.8	pointing	Trial1	pointing/STIM_011.jpg	100
644.377	0.874	874.2	pointing	Trial1	pointing/STIM_011.jpg	100
648.474	0.89	889.9	pointing	Trial1	pointing/STIM_011.jpg	100
652.051	0.897	896.7	pointing	Trial1	pointing/STIM_011.jpg	99
656.025	2.08	2080.0	navigation	Trial2	navigation/STIM_000.jpg	99
661.307	1.53	1530.0	navigation	Trial2	navigation/STIM_000.jpg	99
665.303	1.106	1105.8	navigation	Trial2	navigation/STIM_000.jpg	99
670.33	2.403	2403.2	navigation	Trial2	navigation/STIM_000.jpg	99
675.098	2.475	2474.7	navigation	Trial2	navigation/STIM_000.jpg	100
679.624	2.149	2148.9	navigation	Trial2	navigation/STIM_000.jpg	100
683.931	2.116	2115.8	navigation	Trial2	navigation/STIM_001.jpg	100
688.909	1.89	1889.9	navigation	Trial2	navigation/STIM_001.jpg	99
693.736	2.278	2277.6	navigation	Trial2	navigation/STIM_001.jpg	99
699.917	1.014	1014.5	navigation	Trial2	navigation/STIM_001.jpg	100
703.904	1.021	1021.3	navigation	Trial2	navigation/STIM_001.jpg	99
707.866	1.621	1620.7	navigation	Trial2	navigation/STIM_001.jpg	100
712.194	1.721	1721.2	navigation	Trial2	navigation/STIM_002.jpg	99
717.326	2.149	2149.3	navigation	Trial2	navigation/STIM_002.jpg	99
722.232	2.695	2694.8	navigation	Trial2	navigation/STIM_002.jpg	99
728.043	1.617	1617.2	navigation	Trial2	navigation/STIM_002.jpg	99
733.386	1.657	1657.4	navigation	Trial2	navigation/STIM_002.jpg	100
737.733	2.127	2127.0	navigation	Trial2	navigation/STIM_002.jpg	99
743.454	2.788	2787.8	navigation	Trial2	navigation/STIM_003.jpg	99
749.717	2.041	2041.4	navigation	Trial2	navigation/STIM_003.jpg	100
754.674	1.421	1421.1	navigation	Trial2	navigation/STIM_003.jpg	99
760.035	1.367	1367.0	navigation	Trial2	navigation/STIM_003.jpg	99
763.702	2.516	2516.5	navigation	Trial2	navigation/STIM_003.jpg	99
769.835	1.546	1545.7	navigation	Trial2	navigation/STIM_003.jpg	99
775.251	1.317	1317.3	navigation	Trial2	navigation/STIM_004.jpg	100
780.53	2.501	2501.2	navigation	Trial2	navigation/STIM_004.jpg	100
786.864	2.283	2283.1	navigation	Trial2	navigation/STIM_004.jpg	100
791.949	1.128	1128.0	navigation	Trial2	navigation/STIM_004.jpg	99
795.31	1.788	1788.2	navigation	Trial2	navigation/STIM_004.jpg	99
801.037	2.168	2168.4	navigation	Trial2	navigation/STIM_004.jpg	100
806.867	1.773	1773.2	navigation	Trial2	navigation/STIM_005.jpg	100
810.855	2.134	2133.6	navigation	Trial2	navigation/STIM_005.jpg	99
815.216	1.367	1367.2	navigation	Trial2	navigation/STIM_005.jpg	100
819.553	1.306	1306.5	navigation	Trial2	navigation/STIM_005.jpg	99
823.88	2.099	2099.0	navigation	Trial2	navigation/STIM_005.jpg	99
828.564	2.362	2362.2	navigation	Trial2	navigation/STIM_005.jpg	99
834.323	2.706	2705.6	navigation	Trial2	navigation/STIM_006.jpg	100
839.906	2.405	2404.9	navigation	Trial2	navigation/STIM_006.jpg	100
846.156	2.499	2498.8	navigation	Trial2	navigation/STIM_006.jpg	99
850.831	1.648	1647.7	navigation	Trial2	navigation/STIM_006.jpg	99
855.503	2.23	2230.3	navigation	Trial2	navigation/STIM_006.jpg	99
861.279	1.448	1448.4	navigation	Trial2	navigation/STIM_006.jpg	100
865.536	1.662	1662.5	navigation	Trial2	navigation/STIM_007.jpg	100
869.662	2.197	2196.9	navigation	Trial2	navigation/STIM_007.jpg	99
875.323	1.298	1297.9	navigation	Trial2	navigation/STIM_007.jpg	99
879.135	1.416	1416.5	navigation	Trial2	navigation/STIM_007.jpg	100
883.124	1.271	1271.3	navigation	Trial2	navigation/STIM_007.jpg	100
888.167	1.145	1144.7	navigation	Trial2	navigation/STIM_007.jpg	100
891.78	1.857	1856.7	navigation	Trial2	navigation/STIM_008.jpg	99
896.846	2.399	2399.3	navigation	Trial2	navigation/STIM_008.jpg	99
902.55	1.995	1995.4	navigation	Trial2	navigation/STIM_008.jpg	100
906.89	2.0	1999.5	navigation	Trial2	navigation/STIM_008.jpg	100
912.486	1.662	1662.5	navigation	Trial2	navigation/STIM_008.jpg	99
917.361	2.078	2077.5	navigation	Trial2	navigation/STIM_008.jpg	99
923.123	1.656	1655.7	navigation	Trial2	navigation/STIM_009.jpg	100
928.511	1.192	1191.7	navigation	Trial2	navigation/STIM_009.jpg	100
932.945	1.292	1292.5	navigation	Trial2	navigation/STIM_009.jpg	99
937.976	1.832	1831.7	navigation	Trial2	navigation/STIM_009.jpg	99
941.813	1.232	1232.4	navigation	Trial2	navigation/STIM_009.jpg	99
945.423	1.474	1473.9	navigation	Trial2	navigation/STIM_009.jpg	99
950.867	1.463	1463.3	navigation	Trial2	navigation/STIM_010.jpg	99
954.58	1.503	1502.8	navigation	Trial2	navigation/STIM_010.jpg	100
959.253	1.53	1529.9	navigation	Trial2	navigation/STIM_010.jpg	99
963.696	1.67	1669.5	navigation	Trial2	navigation/STIM_010.jpg	100
968.868	2.408	2408.4	navigation	Trial2	navigation/STIM_010.jpg	100
973.88	2.472	2472.2	navigation	Trial2	navigation/STIM_010.jpg	99
979.531	1.98	1980.5	navigation	Trial2	navigation/STIM_011.jpg	100
984.588	2.376	2376.5	navigation	Trial2	navigation/STIM_011.jpg	100
990.879	2.368	2367.6	navigation	Trial2	navigation/STIM_011.jpg	100
995.382	1.78	1780.3	navigation	Trial2	navigation/STIM_011.jpg	100
999.625	1.387	1386.8	navigation	Trial2	navigation/STIM_011.jpg	100
1003.99	2.352	2351.5	navigation	Trial2	navigation/STIM_011.jpg	100
1010.314	0.68	680.4	pointing	Trial2	pointing/STIM_000.jpg	99
1014.266	0.646	646.5	pointing	Trial2	pointing/STIM_000.jpg	99
1017.905	0.826	825.9	pointing	Trial2	pointing/STIM_000.jpg	100
1022.069	0.811	810.6	pointing	Trial2	pointing/STIM_000.jpg	99
1025.979	0.857	857.4	pointing	Trial2	pointing/STIM_000.jpg	99
1030.074	1.056	1055.7	pointing	Trial2	pointing/STIM_000.jpg	100
1034.019	0.869	868.8	pointing	Trial2	pointing/STIM_001.jpg	100
1037.462	0.989	989.4	pointing	Trial2	pointing/STIM_001.jpg	99
1041.257	0.928	927.6	pointing	Trial2	pointing/STIM_001.jpg	100
1045.731	1.077	1076.6	pointing	Trial2	pointing/STIM_001.jpg	100
1049.285	1.023	1023.0	pointing	Trial2	pointing/STIM_001.jpg	100
1053.752	0.855	854.9	pointing	Trial2	pointing/STIM_001.jpg	99
1058.447	0.976	975.9	pointing	Trial2	pointing/STIM_002.jpg	100
1061.626	0.898	898.1	pointing	Trial2	pointing/STIM_002.jpg	99
1065.065	0.823	823.0	pointing	Trial2	pointing/STIM_002.jpg	100
1069.824	1.01	1010.3	pointing	Trial2	pointing/STIM_002.jpg	99
1074.183	0.864	864.2	pointing	Trial2	pointing/STIM_002.jpg	100
1078.879	0.687	687.3	pointing	Trial2	pointing/STIM_002.jpg	99
1082.11	0.701	701.3	pointing	Trial2	pointing/STIM_003.jpg	100
1086.484	0.976	976.3	pointing	Trial2	pointing/STIM_003.jpg	99
1091.417	0.861	861.1	pointing	Trial2	pointing/STIM_003.jpg	100
1095.129	0.667	667.3	pointing	Trial2	pointing/STIM_003.jpg	100
1098.674	0.966	965.9	pointing	Trial2	pointing/STIM_003.jpg	99
1101.835	0.766	766.2	pointing	Trial2	pointing/STIM_003.jpg	100
1106.533	0.862	861.5	pointing	Trial2	pointing/STIM_004.jpg	99
1111.069	0.767	767.1	pointing	Trial2	pointing/STIM_004.jpg	99
1115.149	0.613	612.7	pointing	Trial2	pointing/STIM_004.jpg	99
1119.613	0.784	783.5	pointing	Trial2	pointing/STIM_004.jpg	100
1123.125	0.706	706.0	pointing	Trial2	pointing/STIM_004.jpg	99
1126.797	0.912	912.5	pointing	Trial2	pointing/STIM_004.jpg	99
1131.644	0.778	777.6	pointing	Trial2	pointing/STIM_005.jpg	100
1134.601	0.8	800.0	pointing	Trial2	pointing/STIM_005.jpg	99
1137.714	0.872	871.6	pointing	Trial2	pointing/STIM_005.jpg	100
1141.303	0.749	748.6	pointing	Trial2	pointing/STIM_005.jpg	99
1144.275	0.969	969.2	pointing	Trial2	pointing/STIM_005.jpg	100
1147.559	0.8	799.7	pointing	Trial2	pointing/STIM_005.jpg	100
1151.164	1.059	1059.1	pointing	Trial2	pointing/STIM_006.jpg	100
1156.053	1.019	1019.4	pointing	Trial2	pointing/STIM_006.jpg	100
1160.198	0.886	885.5	pointing	Trial2	pointing/STIM_006.jpg	99
1164.411	1.054	1053.5	pointing	Trial2	pointing/STIM_006.jpg	99
1169.338	0.791	791.0	pointing	Trial2	pointing/STIM_006.jpg	99
1173.997	0.948	947.6	pointing	Trial2	pointing/STIM_006.jpg	100
1177.157	0.803	803.1	pointing	Trial2	pointing/STIM_007.jpg	99
1181.183	0.985	985.0	pointing	Trial2	pointing/STIM_007.jpg	100
1186.129	0.866	865.8	pointing	Trial2	pointing/STIM_007.jpg	100
1189.832	0.916	915.5	pointing	Trial2	pointing/STIM_007.jpg	99
1194.597	0.704	703.5	pointing	Trial2	pointing/STIM_007.jpg	99
1197.995	0.649	648.6	pointing	Trial2	pointing/STIM_007.jpg	99
1202.309	1.028	1028.5	pointing	Trial2	pointing/STIM_008.jpg	99
1205.402	0.73	729.7	pointing	Trial2	pointing/STIM_008.jpg	100
1208.83	0.86	860.4	pointing	Trial2	pointing/STIM_008.jpg	100
1211.922	0.796	796.5	pointing	Trial2	pointing/STIM_008.jpg	100
1215.777	0.637	637.2	pointing	Trial2	pointing/STIM_008.jpg	99
1219.412	0.626	625.5	pointing	Trial2	pointing/STIM_008.jpg	99
1222.451	0.655	655.3	pointing	Trial2	pointing/STIM_009.jpg	99
1226.783	0.897	897.0	pointing	Trial2	pointing/STIM_009.jpg	100
1229.748	1.028	1027.6	pointing	Trial2	pointing/STIM_009.jpg	100
1233.853	0.668	667.8	pointing	Trial2	pointing/STIM_009.jpg	100
1237.817	0.943	942.8	pointing	Trial2	pointing/STIM_009.jpg	99
1241.295	0.62	619.8	pointing	Trial2	pointing/STIM_009.jpg	100
1245.631	0.659	659.4	pointing	Trial2	pointing/STIM_010.jpg	100
1250.119	0.893	892.6	pointing	Trial2	pointing/STIM_010.jpg	99
1253.711	0.878	878.4	pointing	Trial2	pointing/STIM_010.jpg	100
1257.121	0.823	822.9	pointing	Trial2	pointing/STIM_010.jpg	100
1261.293	0.682	682.4	pointing	Trial2	pointing/STIM_010.jpg	99
1265.476	0.865	864.9	pointing	Trial2	pointing/STIM_010.jpg	99
1268.384	0.941	941.4	pointing	Trial2	pointing/STIM_011.jpg	100
1272.577	0.741	741.2	pointing	Trial2	pointing/STIM_011.jpg	100
1277.22	0.812	811.8	pointing	Trial2	pointing/STIM_011.jpg	99
1281.124	0.627	626.8	pointing	Trial2	pointing/STIM_011.jpg	99
1284.626	0.742	742.5	pointing	Trial2	pointing/STIM_011.jpg	99
1289.251	0.993	992.7	pointing	Trial2	pointing/STIM_011.jpg	100
1293.731	2.203	2202.8	navigation	Trial3	navigation/STIM_000.jpg	100
1299.463	1.81	1809.9	navigation	Trial3	navigation/STIM_000.jpg	100
1303.814	1.347	1347.1	navigation	Trial3	navigation/STIM_000.jpg	100
1309.153	1.756	1755.7	navigation	Trial3	navigation/STIM_000.jpg	99
1313.293	2.133	2132.7	navigation	Trial3	navigation/STIM_000.jpg	100
1318.801	1.711	1711.2	navigation	Trial3	navigation/STIM_000.jpg	99
1323.986	2.118	2118.3	navigation	Trial3	navigation/STIM_001.jpg	99
1329.474	1.405	1405.2	navigation	Trial3	navigation/STIM_001.jpg	99
1332.953	1.349	1349.0	navigation	Trial3	navigation/STIM_001.jpg	100
1338.182	1.161	1160.8	navigation	Trial3	navigation/STIM_001.jpg	100
1341.93	1.42	1420.5	navigation	Trial3	navigation/STIM_001.jpg	99
1345.891	1.254	1254.2	navigation	Trial3	navigation/STIM_001.jpg	99
1349.149	1.742	1742.4	navigation	Trial3	navigation/STIM_002.jpg	99
1353.983	1.492	1491.6	navigation	Trial3	navigation/STIM_002.jpg	99
1357.607	2.022	2021.6	navigation	Trial3	navigation/STIM_002.jpg	100
1363.514	1.869	1869.0	navigation	Trial3	navigation/STIM_002.jpg	99
1368.621	2.408	2407.5	navigation	Trial3	navigation/STIM_002.jpg	100
1374.625	1.408	1407.5	navigation	Trial3	navigation/STIM_002.jpg	99
1378.037	2.446	2445.8	navigation	Trial3	navigation/STIM_003.jpg	99
1383.594	2.218	2217.9	navigation	Trial3	navigation/STIM_003.jpg	100
1388.115	1.605	1605.4	navigation	Trial3	navigation/STIM_003.jpg	99
1392.465	2.266	2265.7	navigation	Trial3	navigation/STIM_003.jpg	99
1397.48	1.683	1683.4	navigation	Trial3	navigation/STIM_003.jpg	100
1403.043	2.444	2443.8	navigation	Trial3	navigation/STIM_003.jpg	99
1408.55	1.371	1371.3	navigation	Trial3	navigation/STIM_004.jpg	100
1412.026	1.21	1209.6	navigation	Trial3	navigation/STIM_004.jpg	100
1415.358	1.793	1792.6	navigation	Trial3	navigation/STIM_004.jpg	99
1420.587	2.054	2053.8	navigation	Trial3	navigation/STIM_004.jpg	100
1426.027	1.851	1850.9	navigation	Trial3	navigation/STIM_004.jpg	100
1431.749	2.014	2013.7	navigation	Trial3	navigation/STIM_004.jpg	100
1437.501	2.496	2496.1	navigation	Trial3	navigation/STIM_005.jpg	100
1442.908	1.594	1593.5	navigation	Trial3	navigation/STIM_005.jpg	99
1448.003	1.819	1818.6	navigation	Trial3	navigation/STIM_005.jpg	99
1452.903	1.223	1222.7	navigation	Trial3	navigation/STIM_005.jpg	100
1457.081	1.875	1875.0	navigation	Trial3	navigation/STIM_005.jpg	99
1462.27	1.157	1156.8	navigation	Trial3	navigation/STIM_005.jpg	99
1466.311	2.413	2413.2	navigation	Trial3	navigation/STIM_006.jpg	99
1470.96	1.605	1605.3	navigation	Trial3	navigation/STIM_006.jpg	100
1474.774	1.281	1280.6	navigation	Trial3	navigation/STIM_006.jpg	99
1478.956	1.159	1158.7	navigation	Trial3	navigation/STIM_006.jpg	100
1483.491	1.538	1538.5	navigation	Trial3	navigation/STIM_006.jpg	99
1488.054	1.628	1628.1	navigation	Trial3	navigation/STIM_006.jpg	100
1493.645	1.903	1903.2	navigation	Trial3	navigation/STIM_007.jpg	99
1499.365	1.208	1208.0	navigation	Trial3	navigation/STIM_007.jpg	99
1504.43	2.035	2034.6	navigation	Trial3	navigation/STIM_007.jpg	100
1509.279	1.084	1083.8	navigation	Trial3	navigation/STIM_007.jpg	100
1513.844	1.934	1934.0	navigation	Trial3	navigation/STIM_007.jpg	99
1518.531	1.674	1673.6	navigation	Trial3	navigation/STIM_007.jpg	100
1523.494	2.043	2043.4	navigation	Trial3	navigation/STIM_008.jpg	99
1528.728	1.091	1090.9	navigation	Trial3	navigation/STIM_008.jpg	99
1533.53	2.216	2216.4	navigation	Trial3	navigation/STIM_008.jpg	100
1538.163	1.552	1551.6	navigation	Trial3	navigation/STIM_008.jpg	99
1543.019	1.116	1116.0	navigation	Trial3	navigation/STIM_008.jpg	100
1546.384	1.684	1684.0	navigation	Trial3	navigation/STIM_008.jpg	99
1551.538	1.388	1387.5	navigation	Trial3	navigation/STIM_009.jpg	100
1556.81	2.258	2258.5	navigation	Trial3	navigation/STIM_009.jpg	100
1562.059	1.925	1925.4	navigation	Trial3	navigation/STIM_009.jpg	99
1567.406	1.274	1274.2	navigation	Trial3	navigation/STIM_009.jpg	99
1571.531	2.452	2451.8	navigation	Trial3	navigation/STIM_009.jpg	99
1577.413	2.224	2223.6	navigation	Trial3	navigation/STIM_009.jpg	99
1582.883	1.475	1475.4	navigation	Trial3	navigation/STIM_010.jpg	99
1587.197	2.506	2505.6	navigation	Trial3	navigation/STIM_010.jpg	99
1592.371	1.318	1317.6	navigation	Trial3	navigation/STIM_010.jpg	100
1597.484	1.975	1974.7	navigation	Trial3	navigation/STIM_010.jpg	99
1602.808	1.644	1643.9	navigation	Trial3	navigation/STIM_010.jpg	99
1608.06	1.793	1792.8	navigation	Trial3	navigation/STIM_010.jpg	99
1612.51	1.421	1421.0	navigation	Trial3	navigation/STIM_011.jpg	100
1616.807	1.952	1951.9	navigation	Trial3	navigation/STIM_011.jpg	100
1622.74	1.19	1190.3	navigation	Trial3	navigation/STIM_011.jpg	100
1627.171	1.687	1686.9	navigation	Trial3	navigation/STIM_011.jpg	99
1631.243	2.118	2117.6	navigation	Trial3	navigation/STIM_011.jpg	99
1636.292	2.14	2139.5	navigation	Trial3	navigation/STIM_011.jpg	99
1641.536	1.064	1064.0	pointing	Trial3	pointing/STIM_000.jpg	99
1644.811	0.919	919.1	pointing	Trial3	pointing/STIM_000.jpg	100
1649.489	0.612	612.4	pointing	Trial3	pointing/STIM_000.jpg	99
1653.202	0.641	640.6	pointing	Trial3	pointing/STIM_000.jpg	100
1656.183	0.65	649.8	pointing	Trial3	pointing/STIM_000.jpg	100
1660.242	0.837	837.3	pointing	Trial3	pointing/STIM_000.jpg	100
1663.627	0.732	732.3	pointing	Trial3	pointing/STIM_001.jpg	99
1667.542	0.957	957.2	pointing	Trial3	pointing/STIM_001.jpg	100
1671.58	1.054	1053.9	pointing	Trial3	pointing/STIM_001.jpg	100
1675.867	0.684	683.5	pointing	Trial3	pointing/STIM_001.jpg	99
1679.031	1.016	1016.0	pointing	Trial3	pointing/STIM_001.jpg	99
1682.733	0.579	578.8	pointing	Trial3	pointing/STIM_001.jpg	100
1686.874	0.896	896.3	pointing	Trial3	pointing/STIM_002.jpg	99
1691.297	0.744	744.1	pointing	Trial3	pointing/STIM_002.jpg	99
1695.421	0.978	978.3	pointing	Trial3	pointing/STIM_002.jpg	99
1699.586	0.826	825.8	pointing	Trial3	pointing/STIM_002.jpg	99
1703.954	0.634	633.8	pointing	Trial3	pointing/STIM_002.jpg	99
1706.644	1.081	1081.1	pointing	Trial3	pointing/STIM_002.jpg	100
1710.815	0.771	771.1	pointing	Trial3	pointing/STIM_003.jpg	99
1714.887	0.737	736.7	pointing	Trial3	pointing/STIM_003.jpg	99
1719.064	0.946	946.2	pointing	Trial3	pointing/STIM_003.jpg	100
1722.829	0.91	909.7	pointing	Trial3	pointing/STIM_003.jpg	99
1726.858	0.734	734.4	pointing	Trial3	pointing/STIM_003.jpg	99
1730.215	0.827	826.6	pointing	Trial3	pointing/STIM_003.jpg	100
1734.813	1.024	1024.1	pointing	Trial3	pointing/STIM_004.jpg	100
1739.125	0.706	706.1	pointing	Trial3	pointing/STIM_004.jpg	100
1743.073	0.859	858.8	pointing	Trial3	pointing/STIM_004.jpg	100
1747.051	1.064	1064.1	pointing	Trial3	pointing/STIM_004.jpg	100
1750.816	0.614	613.7	pointing	Trial3	pointing/STIM_004.jpg	100
1753.862	0.748	748.4	pointing	Trial3	pointing/STIM_004.jpg	99
1756.765	0.666	666.5	pointing	Trial3	pointing/STIM_005.jpg	99
1760.774	0.69	689.5	pointing	Trial3	pointing/STIM_005.jpg	99
1765.368	0.776	776.2	pointing	Trial3	pointing/STIM_005.jpg	99
1769.561	0.809	808.7	pointing	Trial3	pointing/STIM_005.jpg	99
1774.254	0.628	627.8	pointing	Trial3	pointing/STIM_005.jpg	99
1778.174	0.99	990.2	pointing	Trial3	pointing/STIM_005.jpg	100
1782.031	0.85	850.4	pointing	Trial3	pointing/STIM_006.jpg	100
1786.209	0.968	968.1	pointing	Trial3	pointing/STIM_006.jpg	100
1790.6	1.039	1038.7	pointing	Trial3	pointing/STIM_006.jpg	100
1795.017	0.986	986.5	pointing	Trial3	pointing/STIM_006.jpg	99
1799.785	0.821	821.3	pointing	Trial3	pointing/STIM_006.jpg	99
1804.151	0.996	996.2	pointing	Trial3	pointing/STIM_006.jpg	99
1808.464	1.037	1036.7	pointing	Trial3	pointing/STIM_007.jpg	99
1811.639	0.912	911.7	pointing	Trial3	pointing/STIM_007.jpg	100
1816.282	0.806	806.4	pointing	Trial3	pointing/STIM_007.jpg	100
1819.28	0.782	782.5	pointing	Trial3	pointing/STIM_007.jpg	100
1823.452	0.923	923.1	pointing	Trial3	pointing/STIM_007.jpg	99
1827.124	0.93	930.5	pointing	Trial3	pointing/STIM_007.jpg	99
1830.622	0.959	958.8	pointing	Trial3	pointing/STIM_008.jpg	100
1834.516	0.586	585.7	pointing	Trial3	pointing/STIM_008.jpg	100
1837.628	0.636	635.7	pointing	Trial3	pointing/STIM_008.jpg	99
1841.325	0.706	705.6	pointing	Trial3	pointing/STIM_008.jpg	99
1845.418	0.897	896.6	pointing	Trial3	pointing/STIM_008.jpg	99
1849.663	0.582	582.0	pointing	Trial3	pointing/STIM_008.jpg	100
1853.822	0.621	621.3	pointing	Trial3	pointing/STIM_009.jpg	99
1857.706	0.645	644.7	pointing	Trial3	pointing/STIM_009.jpg	100
1862.322	0.675	674.7	pointing	Trial3	pointing/STIM_009.jpg	100
1865.72	0.726	726.4	pointing	Trial3	pointing/STIM_009.jpg	99
1868.849	0.673	672.9	pointing	Trial3	pointing/STIM_009.jpg	99
1871.57	0.697	696.7	pointing	Trial3	pointing/STIM_009.jpg	100
1875.055	0.794	793.9	pointing	Trial3	pointing/STIM_010.jpg	100
1879.059	0.578	578.5	pointing	Trial3	pointing/STIM_010.jpg	99
1882.008	0.929	928.9	pointing	Trial3	pointing/STIM_010.jpg	100
1885.664	0.98	980.1	pointing	Trial3	pointing/STIM_010.jpg	99
1890.398	0.609	608.9	pointing	Trial3	pointing/STIM_010.jpg	100
1893.362	0.8	799.7	pointing	Trial3	pointing/STIM_010.jpg	100
1897.066	0.861	861.1	pointing	Trial3	pointing/STIM_011.jpg	99
1900.218	0.84	839.8	pointing	Trial3	pointing/STIM_011.jpg	100
1904.643	0.739	739.4	pointing	Trial3	pointing/STIM_011.jpg	99
1907.905	0.636	635.9	pointing	Trial3	pointing/STIM_011.jpg	100
1911.647	0.916	916.2	pointing	Trial3	pointing/STIM_011.jpg	99
1914.871	0.976	975.7	pointing	Trial3	pointing/STIM_011.jpg	100
