onset	duration	response_time_ms	trial_type	learning_stage	stimulus	response_port
0.0	4.13	4130.2	navigation	Trial1	navigation/STIM_000.jpg	99
6.296	4.725	4724.6	navigation	Trial1	navigation/STIM_000.jpg	100
14.191	2.089	2088.8	navigation	Trial1	navigation/STIM_000.jpg	99
19.756	2.636	2635.5	navigation	Trial1	navigation/STIM_000.jpg	100
26.136	3.234	3233.6	navigation	Trial1	navigation/STIM_000.jpg	99
32.428	2.41	2409.7	navigation	Trial1	navigation/STIM_000.jpg	99
36.99	4.544	4544.4	navigation	Trial1	navigation/STIM_001.jpg	100
43.868	5.024	5024.0	navigation	Trial1	navigation/STIM_001.jpg	99
51.006	2.422	2421.9	navigation	Trial1	navigation/STIM_001.jpg	100
56.465	3.34	3339.5	navigation	Trial1	navigation/STIM_001.jpg	100
62.629	4.065	4064.8	navigation	Trial1	navigation/STIM_001.jpg	100
69.531	2.871	2870.7	navigation	Trial1	navigation/STIM_001.jpg	99
75.129	3.954	3953.8	navigation	Trial1	navigation/STIM_002.jpg	99
81.44	2.988	2988.5	navigation	Trial1	navigation/STIM_002.jpg	100
87.852	2.508	2508.4	navigation	Trial1	navigation/STIM_002.jpg	100
93.745	4.326	4326.4	navigation	Trial1	navigation/STIM_002.jpg	100
101.558	2.781	2780.8	navigation	Trial1	navigation/STIM_002.jpg	99
107.726	3.189	3189.3	navigation	Trial1	navigation/STIM_002.jpg	100
113.24	2.949	2949.1	navigation	Trial1	navigation/STIM_003.jpg	100
118.316	2.105	2105.1	navigation	Trial1	navigation/STIM_003.jpg	99
122.5	2.215	2214.7	navigation	Trial1	navigation/STIM_003.jpg	100
127.458	3.494	3494.3	navigation	Trial1	navigation/STIM_003.jpg	100
134.163	3.163	3163.4	navigation	Trial1	navigation/STIM_003.jpg	100
141.214	1.674	1673.5	navigation	Trial1	navigation/STIM_003.jpg	100
145.203	2.965	2964.7	navigation	Trial1	navigation/STIM_004.jpg	99
151.946	2.165	2164.7	navigation	Trial1	navigation/STIM_004.jpg	99
156.422	2.462	2461.6	navigation	Trial1	navigation/STIM_004.jpg	99
161.96	3.361	3361.3	navigation	Trial1	navigation/STIM_004.jpg	99
169.087	2.036	2035.7	navigation	Trial1	navigation/STIM_004.jpg	100
174.463	3.273	3273.0	navigation	Trial1	navigation/STIM_004.jpg	99
181.647	2.371	2371.2	navigation	Trial1	navigation/STIM_005.jpg	99
187.361	3.441	3441.2	navigation	Trial1	navigation/STIM_005.jpg	99
194.135	1.93	1930.5	navigation	Trial1	navigation/STIM_005.jpg	100
199.487	2.55	2550.3	navigation	Trial1	navigation/STIM_005.jpg	100
204.705	2.589	2588.9	navigation	Trial1	navigation/STIM_005.jpg	99
209.314	3.462	3462.5	navigation	Trial1	navigation/STIM_005.jpg	100
215.599	3.422	3422.0	navigation	Trial1	navigation/STIM_006.jpg	100
221.326	3.056	3056.5	navigation	Trial1	navigation/STIM_006.jpg	99
227.787	2.263	2263.3	navigation	Trial1	navigation/STIM_006.jpg	100
233.74	2.908	2907.7	navigation	Trial1	navigation/STIM_006.jpg	99
240.229	2.204	2203.5	navigation	Trial1	navigation/STIM_006.jpg	99
244.638	1.606	1605.9	navigation	Trial1	navigation/STIM_006.jpg	99
249.821	4.798	4797.8	navigation	Trial1	navigation/STIM_007.jpg	100
257.0	4.871	4870.6	navigation	Trial1	navigation/STIM_007.jpg	100
264.141	2.391	2391.2	navigation	Trial1	navigation/STIM_007.jpg	99
269.703	3.183	3183.4	navigation	Trial1	navigation/STIM_007.jpg	99
275.753	2.388	2388.3	navigation	Trial1	navigation/STIM_007.jpg	99
280.644	3.397	3396.8	navigation	Trial1	navigation/STIM_007.jpg	99
287.322	3.22	3220.3	navigation	Trial1	navigation/STIM_008.jpg	99
294.123	4.787	4786.9	navigation	Trial1	navigation/STIM_008.jpg	99
302.827	3.268	3268.2	navigation	Trial1	navigation/STIM_008.jpg	100
308.53	2.527	2526.7	navigation	Trial1	navigation/STIM_008.jpg	99
313.491	2.382	2382.2	navigation	Trial1	navigation/STIM_008.jpg	100
318.541	3.732	3732.3	navigation	Trial1	navigation/STIM_008.jpg	100
324.65	2.6	2599.8	navigation	Trial1	navigation/STIM_009.jpg	99
330.914	3.568	3568.0	navigation	Trial1	navigation/STIM_009.jpg	99
338.375	4.214	4213.9	navigation	Trial1	navigation/STIM_009.jpg	100
344.766	2.084	2083.9	navigation	Trial1	navigation/STIM_009.jpg	100
350.443	1.911	1911.4	navigation	Trial1	navigation/STIM_009.jpg	100
355.092	2.105	2104.6	navigation	Trial1	navigation/STIM_009.jpg	100
359.668	2.374	2374.1	navigation	Trial1	navigation/STIM_010.jpg	100
365.514	3.487	3487.0	navigation	Trial1	navigation/STIM_010.jpg	100
372.031	2.092	2092.5	navigation	Trial1	navigation/STIM_010.jpg	100
376.544	2.384	2384.5	navigation	Trial1	navigation/STIM_010.jpg	99
382.663	2.217	2216.6	navigation	Trial1	navigation/STIM_010.jpg	100
387.916	2.326	2325.6	navigation	Trial1	navigation/STIM_010.jpg	99
393.259	2.771	2771.4	navigation	Trial1	navigation/STIM_011.jpg	99
399.841	4.695	4694.8	navigation	Trial1	navigation/STIM_011.jpg	99
408.262	3.009	3008.8	navigation	Trial1	navigation/STIM_011.jpg	99
414.761	3.176	3176.0	navigation	Trial1	navigation/STIM_011.jpg	100
419.982	2.603	2602.7	navigation	Trial1	navigation/STIM_011.jpg	100
426.046	2.202	2201.5	navigation	Trial1	navigation/STIM_011.jpg	100
430.638	1.13	1129.5	pointing	Trial1	pointing/STIM_000.jpg	99
434.6	1.198	1198.4	pointing	Trial1	pointing/STIM_000.jpg	99
438.493	1.385	1384.8	pointing	Trial1	pointing/STIM_000.jpg	99
442.68	1.124	1123.7	pointing	Trial1	pointing/STIM_000.jpg	99
445.999	0.997	996.7	pointing	Trial1	pointing/STIM_000.jpg	100
449.773	0.92	919.6	pointing	Trial1	pointing/STIM_000.jpg	99
454.625	1.021	1021.4	pointing	Trial1	pointing/STIM_001.jpg	100
459.475	1.093	1092.9	pointing	Trial1	pointing/STIM_001.jpg	100
463.73	1.371	1370.9	pointing	Trial1	pointing/STIM_001.jpg	100
468.642	1.506	1506.5	pointing	Trial1	pointing/STIM_001.jpg	100
473.326	1.073	1073.3	pointing	Trial1	pointing/STIM_001.jpg	100
477.928	1.048	1048.5	pointing	Trial1	pointing/STIM_001.jpg	99
481.457	1.565	1564.7	pointing	Trial1	pointing/STIM_002.jpg	100
486.133	1.574	1573.7	pointing	Trial1	pointing/STIM_002.jpg	99
490.31	0.887	886.6	pointing	Trial1	pointing/STIM_002.jpg	99
494.554	1.468	1467.6	pointing	Trial1	pointing/STIM_002.jpg	99
498.122	1.363	1363.2	pointing	Trial1	pointing/STIM_002.jpg	100
502.174	0.855	855.2	pointing	Trial1	pointing/STIM_002.jpg	99
506.97	1.041	1041.0	pointing	Trial1	pointing/STIM_003.jpg	100
510.545	1.236	1235.8	pointing	Trial1	pointing/STIM_003.jpg	100
513.971	1.464	1464.5	pointing	Trial1	pointing/STIM_003.jpg	100
519.124	1.448	1447.5	pointing	Trial1	pointing/STIM_003.jpg	99
523.632	1.319	1318.6	pointing	Trial1	pointing/STIM_003.jpg	100
528.506	1.175	1174.7	pointing	Trial1	pointing/STIM_003.jpg	99
533.061	1.341	1341.1	pointing	Trial1	pointing/STIM_004.jpg	100
536.709	1.504	1504.2	pointing	Trial1	pointing/STIM_004.jpg	99
541.233	1.304	1304.0	pointing	Trial1	pointing/STIM_004.jpg	100
545.237	1.49	1489.7	pointing	Trial1	pointing/STIM_004.jpg	99
548.948	0.85	849.7	pointing	Trial1	pointing/STIM_004.jpg	99
553.656	1.464	1463.9	pointing	Trial1	pointing/STIM_004.jpg	100
559.003	1.342	1342.2	pointing	Trial1	pointing/STIM_005.jpg	99
562.907	1.563	1563.1	pointing	Trial1	pointing/STIM_005.jpg	99
567.661	1.051	1050.8	pointing	Trial1	pointing/STIM_005.jpg	99
570.896	1.247	1247.1	pointing	Trial1	pointing/STIM_005.jpg	99
575.254	1.028	1028.1	pointing	Trial1	pointing/STIM_005.jpg	100
578.385	1.091	1091.2	pointing	Trial1	pointing/STIM_005.jpg	100
583.265	1.544	1544.1	pointing	Trial1	pointing/STIM_006.jpg	100
587.348	1.463	1462.9	pointing	Trial1	pointing/STIM_006.jpg	99
591.366	1.569	1569.0	pointing	Trial1	pointing/STIM_006.jpg	100
595.832	1.457	1456.8	pointing	Trial1	pointing/STIM_006.jpg	100
599.937	0.865	865.1	pointing	Trial1	pointing/STIM_006.jpg	100
603.407	1.104	1103.6	pointing	Trial1	pointing/STIM_006.jpg	100
608.354	1.513	1513.0	pointing	Trial1	pointing/STIM_007.jpg	99
611.903	0.987	987.2	pointing	Trial1	pointing/STIM_007.jpg	100
616.135	1.084	1083.9	pointing	Trial1	pointing/STIM_007.jpg	99
621.161	1.05	1049.7	pointing	Trial1	pointing/STIM_007.jpg	100
625.701	1.376	1375.5	pointing	Trial1	pointing/STIM_007.jpg	99
630.159	1.195	1194.9	pointing	Trial1	pointing/STIM_007.jpg	100
633.558	1.092	1092.1	pointing	Trial1	pointing/STIM_008.jpg	99
637.716	1.084	1083.9	pointing	Trial1	pointing/STIM_008.jpg	100
641.46	0.88	879.6	pointing	Trial1	pointing/STIM_008.jpg	100
645.188	1.183	1183.4	pointing	Trial1	pointing/STIM_008.jpg	99
649.082	0.961	961.0	pointing	Trial1	pointing/STIM_008.jpg	99
653.865	1.064	1064.5	pointing	Trial1	pointing/STIM_008.jpg	100
658.447	1.014	1014.2	pointing	Trial1	pointing/STIM_009.jpg	99
662.491	0.879	879.0	pointing	Trial1	pointing/STIM_009.jpg	100
667.182	1.528	1527.9	pointing	Trial1	pointing/STIM_009.jpg	99
671.033	0.952	952.0	pointing	Trial1	pointing/STIM_009.jpg	100
674.335	0.93	930.4	pointing	Trial1	pointing/STIM_009.jpg	99
678.626	1.291	1290.8	pointing	Trial1	pointing/STIM_009.jpg	99
683.334	1.584	1583.6	pointing	Trial1	pointing/STIM_010.jpg	99
688.512	1.462	1462.5	pointing	Trial1	pointing/STIM_010.jpg	100
693.822	1.394	1393.6	pointing	Trial1	pointing/STIM_010.jpg	99
698.742	0.978	978.3	pointing	Trial1	pointing/STIM_010.jpg	100
701.955	1.051	1051.0	pointing	Trial1	pointing/STIM_010.jpg	99
706.33	1.549	1549.0	pointing	Trial1	pointing/STIM_010.jpg	99
711.243	1.294	1293.8	pointing	Trial1	pointing/STIM_011.jpg	100
714.666	1.083	1082.9	pointing	Trial1	pointing/STIM_011.jpg	100
718.23	1.282	1282.5	pointing	Trial1	pointing/STIM_011.jpg	100
723.245	1.081	1080.7	pointing	Trial1	pointing/STIM_011.jpg	100
726.426	1.44	1440.1	pointing	Trial1	pointing/STIM_011.jpg	100
731.825	1.48	1480.2	pointing	Trial1	pointing/STIM_011.jpg	99
735.553	3.785	3784.9	navigation	Trial2	navigation/STIM_000.jpg	100
742.64	1.885	1884.7	navigation	Trial2	navigation/STIM_000.jpg	99
747.19	3.679	3678.7	navigation	Trial2	navigation/STIM_000.jpg	99
753.376	2.578	2577.6	navigation	Trial2	navigation/STIM_000.jpg	99
758.233	2.837	2837.0	navigation	Trial2	navigation/STIM_000.jpg	99
764.406	3.018	3018.3	navigation	Trial2	navigation/STIM_000.jpg	100
769.989	3.219	3219.3	navigation	Trial2	navigation/STIM_001.jpg	100
776.743	3.701	3700.8	navigation	Trial2	navigation/STIM_001.jpg	100
783.994	1.907	1906.8	navigation	Trial2	navigation/STIM_001.jpg	100
789.75	2.504	2503.5	navigation	Trial2	navigation/STIM_001.jpg	100
794.356	3.486	3486.0	navigation	Trial2	navigation/STIM_001.jpg	100
799.953	3.646	3645.5	navigation	Trial2	navigation/STIM_001.jpg	99
805.979	3.81	3809.9	navigation	Trial2	navigation/STIM_002.jpg	99
813.119	1.727	1726.6	navigation	Trial2	navigation/STIM_002.jpg	99
818.356	3.261	3260.8	navigation	Trial2	navigation/STIM_002.jpg	99
824.847	2.538	2538.0	navigation	Trial2	navigation/STIM_002.jpg	100
830.319	3.1	3099.6	navigation	Trial2	navigation/STIM_002.jpg	99
837.366	2.908	2908.3	navigation	Trial2	navigation/STIM_002.jpg	100
844.255	4.004	4004.3	navigation	Trial2	navigation/STIM_003.jpg	100
852.176	3.105	3105.4	navigation	Trial2	navigation/STIM_003.jpg	99
858.204	2.984	2983.5	navigation	Trial2	navigation/STIM_003.jpg	99
864.296	2.176	2176.3	navigation	Trial2	navigation/STIM_003.jpg	99
870.252	3.285	3284.8	navigation	Trial2	navigation/STIM_003.jpg	100
877.458	3.213	3212.6	navigation	Trial2	navigation/STIM_003.jpg	99
883.888	2.69	2690.0	navigation	Trial2	navigation/STIM_004.jpg	99
889.632	3.364	3363.8	navigation	Trial2	navigation/STIM_004.jpg	99
895.685	1.68	1679.5	navigation	Trial2	navigation/STIM_004.jpg	100
901.135	3.617	3617.2	navigation	Trial2	navigation/STIM_004.jpg	100
908.22	2.358	2358.5	navigation	Trial2	navigation/STIM_004.jpg	100
914.008	3.597	3596.8	navigation	Trial2	navigation/STIM_004.jpg	100
920.015	4.422	4422.2	navigation	Trial2	navigation/STIM_005.jpg	99
926.473	3.998	3997.8	navigation	Trial2	navigation/STIM_005.jpg	99
934.295	3.576	3575.5	navigation	Trial2	navigation/STIM_005.jpg	99
940.835	3.337	3337.0	navigation	Trial2	navigation/STIM_005.jpg	99
947.437	1.713	1712.7	navigation	Trial2	navigation/STIM_005.jpg	99
952.952	2.079	2079.1	navigation	Trial2	navigation/STIM_005.jpg	99
958.028	3.069	3068.6	navigation	Trial2	navigation/STIM_006.jpg	100
964.642	1.917	1916.8	navigation	Trial2	navigation/STIM_006.jpg	99
970.452	2.151	2151.0	navigation	Trial2	navigation/STIM_006.jpg	99
975.409	1.797	1796.8	navigation	Trial2	navigation/STIM_006.jpg	100
980.83	2.121	2121.1	navigation	Trial2	navigation/STIM_006.jpg	100
985.662	2.813	2813.4	navigation	Trial2	navigation/STIM_006.jpg	99
990.784	2.559	2558.8	navigation	Trial2	navigation/STIM_007.jpg	99
996.948	2.207	2206.8	navigation	Trial2	navigation/STIM_007.jpg	100
1001.3	3.07	3070.0	navigation	Trial2	navigation/STIM_007.jpg	100
1006.645	2.203	2203.0	navigation	Trial2	navigation/STIM_007.jpg	100
1012.345	2.154	2153.9	navigation	Trial2	navigation/STIM_007.jpg	99
1017.297	2.099	2098.8	navigation	Trial2	navigation/STIM_007.jpg	100
1023.275	2.754	2754.0	navigation	Trial2	navigation/STIM_008.jpg	100
1030.021	2.912	2912.3	navigation	Trial2	navigation/STIM_008.jpg	100
1035.543	3.206	3206.5	navigation	Trial2	navigation/STIM_008.jpg	100
1041.579	3.285	3285.4	navigation	Trial2	navigation/STIM_008.jpg	100
1046.928	1.5	1499.6	navigation	Trial2	navigation/STIM_008.jpg	100
1051.034	3.284	3284.2	navigation	Trial2	navigation/STIM_008.jpg	100
1057.064	2.702	2701.5	navigation	Trial2	navigation/STIM_009.jpg	99
1062.152	1.839	1839.3	navigation	Trial2	navigation/STIM_009.jpg	100
1067.47	1.656	1656.5	navigation	Trial2	navigation/STIM_009.jpg	100
1072.395	1.88	1879.8	navigation	Trial2	navigation/STIM_009.jpg	100
1077.942	3.354	3353.8	navigation	Trial2	navigation/STIM_009.jpg	99
1084.985	2.683	2683.3	navigation	Trial2	navigation/STIM_009.jpg	100
1090.823	2.673	2673.1	navigation	Trial2	navigation/STIM_010.jpg	99
1096.832	2.111	2111.0	navigation	Trial2	navigation/STIM_010.jpg	99
1101.291	2.71	2709.9	navigation	Trial2	navigation/STIM_010.jpg	100
1106.136	2.914	2913.6	navigation	Trial2	navigation/STIM_010.jpg	100
1111.87	3.299	3299.2	navigation	Trial2	navigation/STIM_010.jpg	100
1118.384	3.297	3297.3	navigation	Trial2	navigation/STIM_010.jpg	99
1125.061	3.786	3785.5	navigation	Trial2	navigation/STIM_011.jpg	99
1131.352	2.007	2007.3	navigation	Trial2	navigation/STIM_011.jpg	99
1136.326	2.761	2760.7	navigation	Trial2	navigation/STIM_011.jpg	100
1142.727	3.469	3468.8	navigation	Trial2	navigation/STIM_011.jpg	100
1149.88	1.824	1824.5	navigation	Trial2	navigation/STIM_011.jpg	100
1155.671	2.424	2424.4	navigation	Trial2	navigation/STIM_011.jpg	100
1160.236	1.073	1073.3	pointing	Trial2	pointing/STIM_000.jpg	99
1163.959	1.381	1380.7	pointing	Trial2	pointing/STIM_000.jpg	100
1167.528	1.057	1057.3	pointing	Trial2	pointing/STIM_000.jpg	100
1171.233	1.08	1080.5	pointing	Trial2	pointing/STIM_000.jpg	100
1174.848	1.208	1208.1	pointing	Trial2	pointing/STIM_000.jpg	99
1179.427	1.496	1496.4	pointing	Trial2	pointing/STIM_000.jpg	100
1184.629	1.419	1418.9	pointing	Trial2	pointing/STIM_001.jpg	100
1189.361	1.529	1529.0	pointing	Trial2	pointing/STIM_001.jpg	99
1193.561	0.945	945.2	pointing	Trial2	pointing/STIM_001.jpg	99
1197.137	1.098	1098.0	pointing	Trial2	pointing/STIM_001.jpg	100
1201.73	0.955	955.2	pointing	Trial2	pointing/STIM_001.jpg	100
1206.637	1.372	1371.6	pointing	Trial2	pointing/STIM_001.jpg	99
1210.904	1.249	1249.1	pointing	Trial2	pointing/STIM_002.jpg	100
1215.766	1.003	1003.1	pointing	Trial2	pointing/STIM_002.jpg	99
1219.06	1.58	1580.3	pointing	Trial2	pointing/STIM_002.jpg	99
1223.006	1.417	1417.3	pointing	Trial2	pointing/STIM_002.jpg	100
1227.482	1.578	1577.6	pointing	Trial2	pointing/STIM_002.jpg	99
1232.134	1.502	1502.4	pointing	Trial2	pointing/STIM_002.jpg	99
1236.555	0.871	871.2	pointing	Trial2	pointing/STIM_003.jpg	100
1241.006	1.438	1438.5	pointing	Trial2	pointing/STIM_003.jpg	99
1244.852	1.487	1487.0	pointing	Trial2	pointing/STIM_003.jpg	100
1248.64	1.417	1417.1	pointing	Trial2	pointing/STIM_003.jpg	100
1253.322	1.369	1368.6	pointing	Trial2	pointing/STIM_003.jpg	99
1257.704	1.089	1088.8	pointing	Trial2	pointing/STIM_003.jpg	100
1260.889	1.047	1046.7	pointing	Trial2	pointing/STIM_004.jpg	100
1264.642	1.142	1142.5	pointing	Trial2	pointing/STIM_004.jpg	99
1269.607	1.504	1503.6	pointing	Trial2	pointing/STIM_004.jpg	100
1274.98	0.925	925.2	pointing	Trial2	pointing/STIM_004.jpg	99
1279.64	1.511	1511.3	pointing	Trial2	pointing/STIM_004.jpg	100
1284.409	1.531	1531.2	pointing	Trial2	pointing/STIM_004.jpg	100
1289.338	0.967	966.6	pointing	Trial2	pointing/STIM_005.jpg	100
1293.138	0.976	976.5	pointing	Trial2	pointing/STIM_005.jpg	99
1297.523	1.377	1376.7	pointing	Trial2	pointing/STIM_005.jpg	99
1302.195	0.897	896.8	pointing	Trial2	pointing/STIM_005.jpg	99
1306.437	0.918	918.3	pointing	Trial2	pointing/STIM_005.jpg	99
1309.956	1.462	1462.0	pointing	Trial2	pointing/STIM_005.jpg	99
1314.872	1.083	1083.0	pointing	Trial2	pointing/STIM_006.jpg	100
1318.14	1.321	1320.7	pointing	Trial2	pointing/STIM_006.jpg	99
1322.563	1.338	1337.6	pointing	Trial2	pointing/STIM_006.jpg	99
1327.65	1.48	1479.7	pointing	Trial2	pointing/STIM_006.jpg	99
1332.48	1.412	1411.5	pointing	Trial2	pointing/STIM_006.jpg	99
1336.661	1.487	1487.3	pointing	Trial2	pointing/STIM_006.jpg	100
1341.092	0.98	979.8	pointing	Trial2	pointing/STIM_007.jpg	100
1344.877	1.346	1346.2	pointing	Trial2	pointing/STIM_007.jpg	100
1349.61	1.543	1543.0	pointing	Trial2	pointing/STIM_007.jpg	99
1354.768	1.11	1110.4	pointing	Trial2	pointing/STIM_007.jpg	99
1359.074	1.481	1481.4	pointing	Trial2	pointing/STIM_007.jpg	100
1363.219	1.01	1010.1	pointing	Trial2	pointing/STIM_007.jpg	99
1366.948	1.173	1173.3	pointing	Trial2	pointing/STIM_008.jpg	100
1371.327	0.987	987.2	pointing	Trial2	pointing/STIM_008.jpg	100
1375.164	1.258	1257.7	pointing	Trial2	pointing/STIM_008.jpg	100
1380.398	1.401	1401.0	pointing	Trial2	pointing/STIM_008.jpg	99
1384.211	0.902	901.8	pointing	Trial2	pointing/STIM_008.jpg	99
1388.229	1.27	1270.4	pointing	Trial2	pointing/STIM_008.jpg	100
1393.047	1.344	1343.8	pointing	Trial2	pointing/STIM_009.jpg	99
1397.768	1.525	1525.3	pointing	Trial2	pointing/STIM_009.jpg	99
1402.506	1.127	1127.2	pointing	Trial2	pointing/STIM_009.jpg	100
1406.926	0.966	966.2	pointing	Trial2	pointing/STIM_009.jpg	99
1411.462	0.914	914.3	pointing	Trial2	pointing/STIM_009.jpg	99
1414.531	1.092	1092.2	pointing	Trial2	pointing/STIM_009.jpg	99
1419.608	0.949	949.1	pointing	Trial2	pointing/STIM_010.jpg	99
1424.241	1.421	1420.9	pointing	Trial2	pointing/STIM_010.jpg	100
1429.242	1.527	1526.6	pointing	Trial2	pointing/STIM_010.jpg	99
1433.684	1.059	1059.2	pointing	Trial2	pointing/STIM_010.jpg	100
1437.854	0.969	969.2	pointing	Trial2	pointing/STIM_010.jpg	100
1441.867	1.097	1097.0	pointing	Trial2	pointing/STIM_010.jpg	99
1445.98	1.317	1317.1	pointing	Trial2	pointing/STIM_011.jpg	99
1450.964	1.472	1472.3	pointing	Trial2	pointing/STIM_011.jpg	100
1455.987	1.465	1464.7	pointing	Trial2	pointing/STIM_011.jpg	99
1459.978	1.358	1357.6	pointing	Trial2	pointing/STIM_011.jpg	100
1464.104	1.494	1494.0	pointing	Trial2	pointing/STIM_011.jpg	100
1468.495	1.432	1432.4	pointing	Trial2	pointing/STIM_011.jpg	100
1473.641	3.615	3615.3	navigation	Trial3	navigation/STIM_000.jpg	100
1480.08	2.712	2711.8	navigation	Trial3	navigation/STIM_000.jpg	100
1484.878	2.233	2233.2	navigation	Trial3	navigation/STIM_000.jpg	99
1489.688	3.646	3645.6	navigation	Trial3	navigation/STIM_000.jpg	100
1496.046	2.813	2813.4	navigation	Trial3	navigation/STIM_000.jpg	100
1502.134	1.897	1897.0	navigation	Trial3	navigation/STIM_000.jpg	100
1507.275	3.459	3458.7	navigation	Trial3	navigation/STIM_001.jpg	99
1514.6	2.363	2363.2	navigation	Trial3	navigation/STIM_001.jpg	100
1519.704	2.477	2476.9	navigation	Trial3	navigation/STIM_001.jpg	100
1525.903	2.8	2800.4	navigation	Trial3	navigation/STIM_001.jpg	99
1531.534	1.551	1550.9	navigation	Trial3	navigation/STIM_001.jpg	100
1536.188	3.28	3280.5	navigation	Trial3	navigation/STIM_001.jpg	99
1541.579	2.032	2032.3	navigation	Trial3	navigation/STIM_002.jpg	100
1545.893	3.278	3277.6	navigation	Trial3	navigation/STIM_002.jpg	99
1552.644	2.686	2685.6	navigation	Trial3	navigation/STIM_002.jpg	100
1558.198	3.49	3489.8	navigation	Trial3	navigation/STIM_002.jpg	99
1565.185	3.168	3168.3	navigation	Trial3	navigation/STIM_002.jpg	100
1571.804	3.409	3409.3	navigation	Trial3	navigation/STIM_002.jpg	99
1577.975	2.687	2687.2	navigation	Trial3	navigation/STIM_003.jpg	100
1583.82	2.934	2933.8	navigation	Trial3	navigation/STIM_003.jpg	100
1589.436	2.559	2559.1	navigation	Trial3	navigation/STIM_003.jpg	99
1595.562	3.683	3682.9	navigation	Trial3	navigation/STIM_003.jpg	99
1601.627	3.68	3679.9	navigation	Trial3	navigation/STIM_003.jpg	99
1607.547	2.832	2832.0	navigation	Trial3	navigation/STIM_003.jpg	99
1613.183	1.922	1921.6	navigation	Trial3	navigation/STIM_004.jpg	99
1617.281	3.08	3080.0	navigation	Trial3	navigation/STIM_004.jpg	99
1623.253	2.771	2770.8	navigation	Trial3	navigation/STIM_004.jpg	99
1628.532	3.007	3006.9	navigation	Trial3	navigation/STIM_004.jpg	100
1633.585	2.805	2805.3	navigation	Trial3	navigation/STIM_004.jpg	100
1639.196	2.818	2818.4	navigation	Trial3	navigation/STIM_004.jpg	99
1644.985	2.233	2233.2	navigation	Trial3	navigation/STIM_005.jpg	99
1650.1	2.154	2154.5	navigation	Trial3	navigation/STIM_005.jpg	99
1655.768	2.306	2306.0	navigation	Trial3	navigation/STIM_005.jpg	99
1660.112	2.416	2416.2	navigation	Trial3	navigation/STIM_005.jpg	99
1666.077	2.719	2719.2	navigation	Trial3	navigation/STIM_005.jpg	99
1670.967	1.725	1725.2	navigation	Trial3	navigation/STIM_005.jpg	100
1675.368	2.049	2049.2	navigation	Trial3	navigation/STIM_006.jpg	99
1681.03	2.494	2494.4	navigation	Trial3	navigation/STIM_006.jpg	99
1686.101	3.125	3125.4	navigation	Trial3	navigation/STIM_006.jpg	99
1691.343	1.842	1842.5	navigation	Trial3	navigation/STIM_006.jpg	100
1695.868	1.934	1933.6	navigation	Trial3	navigation/STIM_006.jpg	99
1700.394	1.849	1849.4	navigation	Trial3	navigation/STIM_006.jpg	99
1706.158	3.646	3646.4	navigation	Trial3	navigation/STIM_007.jpg	100
1712.681	3.026	3025.7	navigation	Trial3	navigation/STIM_007.jpg	100
1719.331	1.988	1988.4	navigation	Trial3	navigation/STIM_007.jpg	99
1724.359	1.818	1817.6	navigation	Trial3	navigation/STIM_007.jpg	99
1729.233	2.379	2379.4	navigation	Trial3	navigation/STIM_007.jpg	100
1734.63	3.62	3620.2	navigation	Trial3	navigation/STIM_007.jpg	100
1741.149	1.745	1745.2	navigation	Trial3	navigation/STIM_008.jpg	99
1746.734	3.421	3421.4	navigation	Trial3	navigation/STIM_008.jpg	99
1753.604	1.599	1599.1	navigation	Trial3	navigation/STIM_008.jpg	100
1758.533	3.012	3011.8	navigation	Trial3	navigation/STIM_008.jpg	99
1763.755	1.948	1947.9	navigation	Trial3	navigation/STIM_008.jpg	99
1769.7	2.828	2828.3	navigation	Trial3	navigation/STIM_008.jpg	100
1776.269	2.791	2790.6	navigation	Trial3	navigation/STIM_009.jpg	100
1782.154	1.883	1883.4	navigation	Trial3	navigation/STIM_009.jpg	100
1787.418	1.668	1668.1	navigation	Trial3	navigation/STIM_009.jpg	100
1791.972	3.494	3494.3	navigation	Trial3	navigation/STIM_009.jpg	99
1797.936	2.36	2359.6	navigation	Trial3	navigation/STIM_009.jpg	99
1803.074	2.561	2561.4	navigation	Trial3	navigation/STIM_009.jpg	100
1809.501	1.97	1970.4	navigation	Trial3	navigation/STIM_010.jpg	99
1814.898	3.487	3487.0	navigation	Trial3	navigation/STIM_010.jpg	99
1821.632	2.535	2534.6	navigation	Trial3	navigation/STIM_010.jpg	99
1826.191	2.953	2952.9	navigation	Trial3	navigation/STIM_010.jpg	100
1831.154	3.336	3336.3	navigation	Trial3	navigation/STIM_010.jpg	100
1837.375	3.648	3647.7	navigation	Trial3	navigation/STIM_010.jpg	99
1844.596	2.978	2978.3	navigation	Trial3	navigation/STIM_011.jpg	100
1850.6	1.715	1714.8	navigation	Trial3	navigation/STIM_011.jpg	100
1854.618	2.255	2255.1	navigation	Trial3	navigation/STIM_011.jpg	100
1858.915	3.591	3591.4	navigation	Trial3	navigation/STIM_011.jpg	99
1866.236	3.009	3008.7	navigation	Trial3	navigation/STIM_011.jpg	100
1872.673	2.234	2234.0	navigation	Trial3	navigation/STIM_011.jpg	100
1877.487	1.253	1253.0	pointing	Trial3	pointing/STIM_000.jpg	99
1882.507	0.922	922.0	pointing	Trial3	pointing/STIM_000.jpg	100
1887.264	1.442	1441.9	pointing	Trial3	pointing/STIM_000.jpg	99
1890.716	1.392	1391.5	pointing	Trial3	pointing/STIM_000.jpg	100
1894.593	0.854	854.1	pointing	Trial3	pointing/STIM_000.jpg	99
1899.047	1.325	1324.9	pointing	Trial3	pointing/STIM_000.jpg	100
1903.912	1.241	1241.3	pointing	Trial3	pointing/STIM_001.jpg	99
1907.595	1.176	1176.4	pointing	Trial3	pointing/STIM_001.jpg	99
1911.037	1.278	1277.6	pointing	Trial3	pointing/STIM_001.jpg	99
1914.505	1.483	1483.3	pointing	Trial3	pointing/STIM_001.jpg	99
1919.262	1.07	1070.1	pointing	Trial3	pointing/STIM_001.jpg	99
1922.606	1.379	1378.7	pointing	Trial3	pointing/STIM_001.jpg	99
1926.687	1.47	1470.3	pointing	Trial3	pointing/STIM_002.jpg	100
1930.854	1.03	1029.8	pointing	Trial3	pointing/STIM_002.jpg	99
1934.109	0.979	978.7	pointing	Trial3	pointing/STIM_002.jpg	100
1937.384	1.038	1037.8	pointing	Trial3	pointing/STIM_002.jpg	99
1941.061	1.429	1429.2	pointing	Trial3	pointing/STIM_002.jpg	99
1946.347	1.394	1393.8	pointing	Trial3	pointing/STIM_002.jpg	100
1951.297	1.446	1445.8	pointing	Trial3	pointing/STIM_003.jpg	100
1955.863	1.524	1524.4	pointing	Trial3	pointing/STIM_003.jpg	99
1960.556	1.525	1524.9	pointing	Trial3	pointing/STIM_003.jpg	99
1964.522	1.144	1144.0	pointing	Trial3	pointing/STIM_003.jpg	100
1968.794	1.435	1435.1	pointing	Trial3	pointing/STIM_003.jpg	100
1973.736	0.868	867.6	pointing	Trial3	pointing/STIM_003.jpg	99
1976.995	0.96	960.4	pointing	Trial3	pointing/STIM_004.jpg	99
1981.522	1.45	1449.6	pointing	Trial3	pointing/STIM_004.jpg	100
1985.022	1.021	1020.6	pointing	Trial3	pointing/STIM_004.jpg	99
1989.944	1.127	1126.8	pointing	Trial3	pointing/STIM_004.jpg	99
1994.973	1.338	1338.0	pointing	Trial3	pointing/STIM_004.jpg	99
1999.937	0.951	951.0	pointing	Trial3	pointing/STIM_004.jpg	99
2003.589	1.081	1080.7	pointing	Trial3	pointing/STIM_005.jpg	99
2007.257	1.434	1434.3	pointing	Trial3	pointing/STIM_005.jpg	99
2012.641	1.293	1293.4	pointing	Trial3	pointing/STIM_005.jpg	99
2016.277	1.207	1206.7	pointing	Trial3	pointing/STIM_005.jpg	99
2021.139	1.236	1236.3	pointing	Trial3	pointing/STIM_005.jpg	99
2025.925	1.182	1182.3	pointing	Trial3	pointing/STIM_005.jpg	99
2030.08	1.217	1216.7	pointing	Trial3	pointing/STIM_006.jpg	99
2033.529	1.521	1521.0	pointing	Trial3	pointing/STIM_006.jpg	100
2038.516	1.346	1346.0	pointing	Trial3	pointing/STIM_006.jpg	99
2042.086	0.853	853.3	pointing	Trial3	pointing/STIM_006.jpg	100
2046.239	1.22	1220.2	pointing	Trial3	pointing/STIM_006.jpg	100
2051.222	1.058	1057.5	pointing	Trial3	pointing/STIM_006.jpg	100
2054.356	0.951	951.2	pointing	Trial3	pointing/STIM_007.jpg	100
2057.862	1.567	1566.9	pointing	Trial3	pointing/STIM_007.jpg	99
2061.957	1.039	1039.3	pointing	Trial3	pointing/STIM_007.jpg	99
2066.539	1.196	1196.1	pointing	Trial3	pointing/STIM_007.jpg	100
2069.993	1.218	1217.6	pointing	Trial3	pointing/STIM_007.jpg	99
2074.025	1.125	1124.6	pointing	Trial3	pointing/STIM_007.jpg	99
2077.507	1.278	1278.0	pointing	Trial3	pointing/STIM_008.jpg	100
2082.689	1.075	1075.1	pointing	Trial3	pointing/STIM_008.jpg	100
2087.727	1.182	1182.5	pointing	Trial3	pointing/STIM_008.jpg	100
2091.947	1.316	1315.8	pointing	Trial3	pointing/STIM_008.jpg	99
2096.177	1.567	1566.9	pointing	Trial3	pointing/STIM_008.jpg	100
2100.014	1.447	1447.0	pointing	Trial3	pointing/STIM_008.jpg	99
2104.626	1.064	1064.3	pointing	Trial3	pointing/STIM_009.jpg	100
2109.507	1.05	1050.3	pointing	Trial3	pointing/STIM_009.jpg	99
2114.006	1.56	1559.9	pointing	Trial3	pointing/STIM_009.jpg	100
2117.835	1.029	1029.2	pointing	Trial3	pointing/STIM_009.jpg	100
2122.426	1.537	1536.9	pointing	Trial3	pointing/STIM_009.jpg	100
2126.025	1.315	1315.4	pointing	Trial3	pointing/STIM_009.jpg	99
2129.906	0.926	925.8	pointing	Trial3	pointing/STIM_010.jpg	100
2134.729	1.117	1117.0	pointing	Trial3	pointing/STIM_010.jpg	99
2138.102	1.282	1282.5	pointing	Trial3	pointing/STIM_010.jpg	99
2142.212	1.518	1518.3	pointing	Trial3	pointing/STIM_010.jpg	99
2147.248	1.231	1230.7	pointing	Trial3	pointing/STIM_010.jpg	99
2150.712	1.451	1451.1	pointing	Trial3	pointing/STIM_010.jpg	100
2154.5	0.907	907.4	pointing	Trial3	pointing/STIM_011.jpg	99
2158.251	0.938	938.1	pointing	Trial3	pointing/STIM_011.jpg	99
2161.604	1.557	1557.3	pointing	Trial3	pointing/STIM_011.jpg	100
2167.136	1.022	1021.9	pointing	Trial3	pointing/STIM_011.jpg	100
2171.122	1.578	1577.7	pointing	Trial3	pointing/STIM_011.jpg	100
2174.729	1.016	1015.8	pointing	Trial3	pointing/STIM_011.jpg	100
