onset	duration	accuracy_binary	trial_type	learning_stage	stimulus
0.0	4.366	1	navigation	Trial1	navigation/STIM_000.jpg
7.524	4.694	1	navigation	Trial1	navigation/STIM_000.jpg
14.41	4.029	1	navigation	Trial1	navigation/STIM_000.jpg
21.518	2.656	1	navigation	Trial1	navigation/STIM_000.jpg
26.661	2.147	1	navigation	Trial1	navigation/STIM_000.jpg
31.086	4.04	0	navigation	Trial1	navigation/STIM_000.jpg
37.966	4.852	1	navigation	Trial1	navigation/STIM_001.jpg
44.63	3.136	1	navigation	Trial1	navigation/STIM_001.jpg
51.338	1.931	1	navigation	Trial1	navigation/STIM_001.jpg
56.855	4.15	1	navigation	Trial1	navigation/STIM_001.jpg
63.173	4.06	1	navigation	Trial1	navigation/STIM_001.jpg
70.662	2.144	1	navigation	Trial1	navigation/STIM_001.jpg
76.155	5.386	0	navigation	Trial1	navigation/STIM_002.jpg
84.252	3.808	1	navigation	Trial1	navigation/STIM_002.jpg
90.907	2.353	0	navigation	Trial1	navigation/STIM_002.jpg
95.266	3.869	0	navigation	Trial1	navigation/STIM_002.jpg
101.574	3.352	1	navigation	Trial1	navigation/STIM_002.jpg
106.874	3.48	1	navigation	Trial1	navigation/STIM_002.jpg
112.306	4.613	1	navigation	Trial1	navigation/STIM_003.jpg
119.689	4.842	1	navigation	Trial1	navigation/STIM_003.jpg
126.857	2.842	1	navigation	Trial1	navigation/STIM_003.jpg
133.229	2.41	1	navigation	Trial1	navigation/STIM_003.jpg
139.177	2.736	1	navigation	Trial1	navigation/STIM_003.jpg
144.299	3.213	1	navigation	Trial1	navigation/STIM_003.jpg
150.36	3.378	1	navigation	Trial1	navigation/STIM_004.jpg
157.303	3.124	0	navigation	Trial1	navigation/STIM_004.jpg
162.378	2.428	0	navigation	Trial1	navigation/STIM_004.jpg
168.607	2.377	1	navigation	Trial1	navigation/STIM_004.jpg
173.057	4.227	1	navigation	Trial1	navigation/STIM_004.jpg
180.782	1.903	1	navigation	Trial1	navigation/STIM_004.jpg
184.982	3.787	0	navigation	Trial1	navigation/STIM_005.jpg
191.359	3.391	0	navigation	Trial1	navigation/STIM_005.jpg
197.977	3.493	0	navigation	Trial1	navigation/STIM_005.jpg
203.602	2.544	1	navigation	Trial1	navigation/STIM_005.jpg
208.548	1.864	1	navigation	Trial1	navigation/STIM_005.jpg
213.276	3.008	1	navigation	Trial1	navigation/STIM_005.jpg
218.996	2.735	1	navigation	Trial1	navigation/STIM_006.jpg
225.108	2.163	1	navigation	Trial1	navigation/STIM_006.jpg
230.422	4.328	1	navigation	Trial1	navigation/STIM_006.jpg
238.257	3.335	1	navigation	Trial1	navigation/STIM_006.jpg
244.14	4.282	1	navigation	Trial1	navigation/STIM_006.jpg
250.613	3.147	1	navigation	Trial1	navigation/STIM_006.jpg
256.977	4.166	0	navigation	Trial1	navigation/STIM_007.jpg
264.261	3.785	1	navigation	Trial1	navigation/STIM_007.jpg
271.406	2.528	1	navigation	Trial1	navigation/STIM_007.jpg
276.401	4.613	0	navigation	Trial1	navigation/STIM_007.jpg
284.524	4.193	1	navigation	Trial1	navigation/STIM_007.jpg
292.139	2.972	1	navigation	Trial1	navigation/STIM_007.jpg
297.607	2.485	0	navigation	Trial1	navigation/STIM_008.jpg
302.833	4.613	1	navigation	Trial1	navigation/STIM_008.jpg
310.066	1.998	0	navigation	Trial1	navigation/STIM_008.jpg
315.833	2.023	1	navigation	Trial1	navigation/STIM_008.jpg
320.591	3.822	1	navigation	Trial1	navigation/STIM_008.jpg
326.139	3.736	0	navigation	Trial1	navigation/STIM_008.jpg
332.085	4.309	1	navigation	Trial1	navigation/STIM_009.jpg
340.102	3.618	1	navigation	Trial1	navigation/STIM_009.jpg
345.604	2.197	1	navigation	Trial1	navigation/STIM_009.jpg
350.377	3.177	1	navigation	Trial1	navigation/STIM_009.jpg
357.055	3.762	1	navigation	Trial1	navigation/STIM_009.jpg
362.524	3.194	1	navigation	Trial1	navigation/STIM_009.jpg
369.347	5.108	0	navigation	Trial1	navigation/STIM_010.jpg
376.71	3.588	0	navigation	Trial1	navigation/STIM_010.jpg
383.762	2.703	1	navigation	Trial1	navigation/STIM_010.jpg
388.884	3.542	1	navigation	Trial1	navigation/STIM_010.jpg
394.356	4.1	1	navigation	Trial1	navigation/STIM_010.jpg
401.254	3.892	1	navigation	Trial1	navigation/STIM_010.jpg
408.798	5.209	0	navigation	Trial1	navigation/STIM_011.jpg
417.322	4.283	1	navigation	Trial1	navigation/STIM_011.jpg
423.548	4.302	0	navigation	Trial1	navigation/STIM_011.jpg
429.771	3.819	1	navigation	Trial1	navigation/STIM_011.jpg
435.368	3.67	1	navigation	Trial1	navigation/STIM_011.jpg
442.25	2.604	1	navigation	Trial1	navigation/STIM_011.jpg
447.319	1.055	0	pointing	Trial1	pointing/STIM_000.jpg
451.528	1.166	1	pointing	Trial1	pointing/STIM_000.jpg
455.456	1.242	1	pointing	Trial1	pointing/STIM_000.jpg
459.987	1.456	1	pointing	Trial1	pointing/STIM_000.jpg
465.196	0.842	1	pointing	Trial1	pointing/STIM_000.jpg
468.132	0.977	1	pointing	Trial1	pointing/STIM_000.jpg
471.694	1.351	1	pointing	Trial1	pointing/STIM_001.jpg
476.81	1.036	1	pointing	Trial1	pointing/STIM_001.jpg
480.953	0.966	1	pointing	Trial1	pointing/STIM_001.jpg
483.852	1.061	1	pointing	Trial1	pointing/STIM_001.jpg
487.902	1.532	0	pointing	Trial1	pointing/STIM_001.jpg
492.074	0.993	1	pointing	Trial1	pointing/STIM_001.jpg
495.841	1.048	1	pointing	Trial1	pointing/STIM_002.jpg
499.046	1.499	1	pointing	Trial1	pointing/STIM_002.jpg
503.212	1.487	1	pointing	Trial1	pointing/STIM_002.jpg
507.689	1.242	1	pointing	Trial1	pointing/STIM_002.jpg
512.802	1.282	1	pointing	Trial1	pointing/STIM_002.jpg
517.116	1.558	1	pointing	Trial1	pointing/STIM_002.jpg
522.371	1.085	1	pointing	Trial1	pointing/STIM_003.jpg
526.847	1.033	0	pointing	Trial1	pointing/STIM_003.jpg
530.163	1.449	1	pointing	Trial1	pointing/STIM_003.jpg
535.482	1.62	1	pointing	Trial1	pointing/STIM_003.jpg
540.086	1.043	1	pointing	Trial1	pointing/STIM_003.jpg
543.174	1.451	1	pointing	Trial1	pointing/STIM_003.jpg
548.258	0.969	1	pointing	Trial1	pointing/STIM_004.jpg
551.409	1.552	1	pointing	Trial1	pointing/STIM_004.jpg
555.148	1.231	1	pointing	Trial1	pointing/STIM_004.jpg
558.58	0.925	1	pointing	Trial1	pointing/STIM_004.jpg
563.362	1.138	1	pointing	Trial1	pointing/STIM_004.jpg
567.823	1.334	1	pointing	Trial1	pointing/STIM_004.jpg
571.218	0.941	1	pointing	Trial1	pointing/STIM_005.jpg
575.541	0.938	1	pointing	Trial1	pointing/STIM_005.jpg
578.731	1.217	1	pointing	Trial1	pointing/STIM_005.jpg
583.574	1.044	0	pointing	Trial1	pointing/STIM_005.jpg
588.14	1.496	1	pointing	Trial1	pointing/STIM_005.jpg
592.007	1.022	1	pointing	Trial1	pointing/STIM_005.jpg
595.133	1.506	1	pointing	Trial1	pointing/STIM_006.jpg
600.05	1.076	1	pointing	Trial1	pointing/STIM_006.jpg
603.985	1.266	1	pointing	Trial1	pointing/STIM_006.jpg
608.721	1.314	1	pointing	Trial1	pointing/STIM_006.jpg
612.782	1.243	1	pointing	Trial1	pointing/STIM_006.jpg
617.06	1.205	1	pointing	Trial1	pointing/STIM_006.jpg
621.168	0.987	1	pointing	Trial1	pointing/STIM_007.jpg
624.271	1.013	1	pointing	Trial1	pointing/STIM_007.jpg
628.408	1.068	1	pointing	Trial1	pointing/STIM_007.jpg
632.409	1.351	1	pointing	Trial1	pointing/STIM_007.jpg
637.121	1.057	1	pointing	Trial1	pointing/STIM_007.jpg
640.457	1.054	1	pointing	Trial1	pointing/STIM_007.jpg
644.489	1.31	1	pointing	Trial1	pointing/STIM_008.jpg
648.489	1.271	1	pointing	Trial1	pointing/STIM_008.jpg
652.888	0.946	1	pointing	Trial1	pointing/STIM_008.jpg
657.396	1.428	1	pointing	Trial1	pointing/STIM_008.jpg
661.183	1.086	1	pointing	Trial1	pointing/STIM_008.jpg
666.047	1.25	1	pointing	Trial1	pointing/STIM_008.jpg
670.879	0.957	1	pointing	Trial1	pointing/STIM_009.jpg
674.924	1.308	1	pointing	Trial1	pointing/STIM_009.jpg
679.058	1.158	1	pointing	Trial1	pointing/STIM_009.jpg
683.655	0.9	1	pointing	Trial1	pointing/STIM_009.jpg
686.962	0.91	1	pointing	Trial1	pointing/STIM_009.jpg
690.742	1.279	1	pointing	Trial1	pointing/STIM_009.jpg
695.757	1.218	1	pointing	Trial1	pointing/STIM_010.jpg
700.894	1.072	1	pointing	Trial1	pointing/STIM_010.jpg
705.693	1.192	1	pointing	Trial1	pointing/STIM_010.jpg
709.84	1.537	0	pointing	Trial1	pointing/STIM_010.jpg
713.883	1.072	1	pointing	Trial1	pointing/STIM_010.jpg
718.656	1.346	1	pointing	Trial1	pointing/STIM_010.jpg
722.518	1.362	1	pointing	Trial1	pointing/STIM_011.jpg
727.355	0.998	1	pointing	Trial1	pointing/STIM_011.jpg
731.436	1.327	1	pointing	Trial1	pointing/STIM_011.jpg
736.251	1.262	0	pointing	Trial1	pointing/STIM_011.jpg
740.085	1.145	0	pointing	Trial1	pointing/STIM_011.jpg
744.208	1.162	1	pointing	Trial1	pointing/STIM_011.jpg
747.897	3.105	1	navigation	Trial2	navigation/STIM_000.jpg
753.356	2.054	1	navigation	Trial2	navigation/STIM_000.jpg
757.288	2.226	1	navigation	Trial2	navigation/STIM_000.jpg
761.402	3.768	1	navigation	Trial2	navigation/STIM_000.jpg
767.887	3.376	0	navigation	Trial2	navigation/STIM_000.jpg
773.223	2.573	0	navigation	Trial2	navigation/STIM_000.jpg
779.25	4.253	1	navigation	Trial2	navigation/STIM_001.jpg
786.641	2.088	1	navigation	Trial2	navigation/STIM_001.jpg
790.72	4.113	1	navigation	Trial2	navigation/STIM_001.jpg
797.144	2.61	1	navigation	Trial2	navigation/STIM_001.jpg
802.106	1.635	1	navigation	Trial2	navigation/STIM_001.jpg
806.663	3.691	1	navigation	Trial2	navigation/STIM_001.jpg
812.585	2.766	1	navigation	Trial2	navigation/STIM_002.jpg
818.508	3.783	1	navigation	Trial2	navigation/STIM_002.jpg
825.62	3.022	1	navigation	Trial2	navigation/STIM_002.jpg
830.964	1.594	1	navigation	Trial2	navigation/STIM_002.jpg
835.912	2.935	1	navigation	Trial2	navigation/STIM_002.jpg
842.486	3.442	1	navigation	Trial2	navigation/STIM_002.jpg
849.356	4.511	1	navigation	Trial2	navigation/STIM_003.jpg
856.671	2.526	1	navigation	Trial2	navigation/STIM_003.jpg
861.363	1.926	1	navigation	Trial2	navigation/STIM_003.jpg
866.292	3.58	1	navigation	Trial2	navigation/STIM_003.jpg
871.676	3.296	1	navigation	Trial2	navigation/STIM_003.jpg
876.759	1.603	1	navigation	Trial2	navigation/STIM_003.jpg
881.658	2.899	1	navigation	Trial2	navigation/STIM_004.jpg
886.775	4.057	1	navigation	Trial2	navigation/STIM_004.jpg
894.088	3.813	1	navigation	Trial2	navigation/STIM_004.jpg
899.887	1.934	1	navigation	Trial2	navigation/STIM_004.jpg
904.147	2.762	0	navigation	Trial2	navigation/STIM_004.jpg
909.904	2.835	1	navigation	Trial2	navigation/STIM_004.jpg
915.286	3.749	1	navigation	Trial2	navigation/STIM_005.jpg
922.4	2.049	1	navigation	Trial2	navigation/STIM_005.jpg
927.765	1.655	1	navigation	Trial2	navigation/STIM_005.jpg
931.458	2.045	1	navigation	Trial2	navigation/STIM_005.jpg
935.919	3.824	1	navigation	Trial2	navigation/STIM_005.jpg
943.169	1.9	1	navigation	Trial2	navigation/STIM_005.jpg
947.734	4.474	1	navigation	Trial2	navigation/STIM_006.jpg
954.547	1.8	1	navigation	Trial2	navigation/STIM_006.jpg
959.238	2.261	1	navigation	Trial2	navigation/STIM_006.jpg
964.683	3.209	0	navigation	Trial2	navigation/STIM_006.jpg
970.47	2.715	1	navigation	Trial2	navigation/STIM_006.jpg
976.117	3.71	1	navigation	Trial2	navigation/STIM_006.jpg
983.55	4.252	0	navigation	Trial2	navigation/STIM_007.jpg
990.797	2.576	1	navigation	Trial2	navigation/STIM_007.jpg
995.904	1.719	1	navigation	Trial2	navigation/STIM_007.jpg
1000.743	3.493	1	navigation	Trial2	navigation/STIM_007.jpg
1006.746	2.71	1	navigation	Trial2	navigation/STIM_007.jpg
1012.066	1.619	1	navigation	Trial2	navigation/STIM_007.jpg
1016.403	2.005	1	navigation	Trial2	navigation/STIM_008.jpg
1020.833	3.948	1	navigation	Trial2	navigation/STIM_008.jpg
1027.142	3.232	1	navigation	Trial2	navigation/STIM_008.jpg
1033.277	1.822	1	navigation	Trial2	navigation/STIM_008.jpg
1037.652	2.656	1	navigation	Trial2	navigation/STIM_008.jpg
1043.513	1.822	0	navigation	Trial2	navigation/STIM_008.jpg
1047.737	3.283	1	navigation	Trial2	navigation/STIM_009.jpg
1053.904	2.294	0	navigation	Trial2	navigation/STIM_009.jpg
1059.844	2.328	1	navigation	Trial2	navigation/STIM_009.jpg
1064.927	3.366	1	navigation	Trial2	navigation/STIM_009.jpg
1070.961	3.414	1	navigation	Trial2	navigation/STIM_009.jpg
1076.676	2.001	1	navigation	Trial2	navigation/STIM_009.jpg
1081.996	3.6	1	navigation	Trial2	navigation/STIM_010.jpg
1088.586	4.007	1	navigation	Trial2	navigation/STIM_010.jpg
1096.334	3.914	1	navigation	Trial2	navigation/STIM_010.jpg
1103.809	1.868	1	navigation	Trial2	navigation/STIM_010.jpg
1107.967	1.796	1	navigation	Trial2	navigation/STIM_010.jpg
1112.292	3.704	1	navigation	Trial2	navigation/STIM_010.jpg
1119.088	1.948	1	navigation	Trial2	navigation/STIM_011.jpg
1123.298	2.621	1	navigation	Trial2	navigation/STIM_011.jpg
1128.838	3.686	1	navigation	Trial2	navigation/STIM_011.jpg
1136.106	1.842	1	navigation	Trial2	navigation/STIM_011.jpg
1139.888	2.281	1	navigation	Trial2	navigation/STIM_011.jpg
1144.62	2.473	0	navigation	Trial2	navigation/STIM_011.jpg
1149.826	1.053	1	pointing	Trial2	pointing/STIM_000.jpg
1154.223	1.445	1	pointing	Trial2	pointing/STIM_000.jpg
1158.189	1.348	1	pointing	Trial2	pointing/STIM_000.jpg
1161.491	1.116	1	pointing	Trial2	pointing/STIM_000.jpg
1165.038	1.184	1	pointing	Trial2	pointing/STIM_000.jpg
1168.272	1.663	1	pointing	Trial2	pointing/STIM_000.jpg
1171.846	1.108	1	pointing	Trial2	pointing/STIM_001.jpg
1176.297	0.985	1	pointing	Trial2	pointing/STIM_001.jpg
1179.92	1.494	1	pointing	Trial2	pointing/STIM_001.jpg
1184.347	0.998	1	pointing	Trial2	pointing/STIM_001.jpg
1187.635	1.1	1	pointing	Trial2	pointing/STIM_001.jpg
1192.061	0.974	1	pointing	Trial2	pointing/STIM_001.jpg
1196.217	1.332	1	pointing	Trial2	pointing/STIM_002.jpg
1201.238	0.945	1	pointing	Trial2	pointing/STIM_002.jpg
1205.616	1.379	1	pointing	Trial2	pointing/STIM_002.jpg
1210.088	1.596	1	pointing	Trial2	pointing/STIM_002.jpg
1213.983	1.078	1	pointing	Trial2	pointing/STIM_002.jpg
1217.988	1.056	1	pointing	Trial2	pointing/STIM_002.jpg
1221.78	1.563	1	pointing	Trial2	pointing/STIM_003.jpg
1226.555	1.442	1	pointing	Trial2	pointing/STIM_003.jpg
1231.148	1.363	1	pointing	Trial2	pointing/STIM_003.jpg
1236.422	1.628	1	pointing	Trial2	pointing/STIM_003.jpg
1241.602	1.071	1	pointing	Trial2	pointing/STIM_003.jpg
1244.743	0.912	1	pointing	Trial2	pointing/STIM_003.jpg
1247.933	1.199	1	pointing	Trial2	pointing/STIM_004.jpg
1251.924	1.082	1	pointing	Trial2	pointing/STIM_004.jpg
1256.261	1.423	1	pointing	Trial2	pointing/STIM_004.jpg
1261.557	1.153	1	pointing	Trial2	pointing/STIM_004.jpg
1265.199	1.134	1	pointing	Trial2	pointing/STIM_004.jpg
1268.629	1.111	1	pointing	Trial2	pointing/STIM_004.jpg
1273.263	1.227	1	pointing	Trial2	pointing/STIM_005.jpg
1276.991	1.663	1	pointing	Trial2	pointing/STIM_005.jpg
1282.009	1.528	1	pointing	Trial2	pointing/STIM_005.jpg
1285.91	1.325	1	pointing	Trial2	pointing/STIM_005.jpg
1290.384	1.205	1	pointing	Trial2	pointing/STIM_005.jpg
1294.318	1.495	1	pointing	Trial2	pointing/STIM_005.jpg
1299.323	1.137	1	pointing	Trial2	pointing/STIM_006.jpg
1303.559	1.602	1	pointing	Trial2	pointing/STIM_006.jpg
1309.009	1.519	1	pointing	Trial2	pointing/STIM_006.jpg
1313.083	1.237	1	pointing	Trial2	pointing/STIM_006.jpg
1318.005	1.338	1	pointing	Trial2	pointing/STIM_006.jpg
1321.62	1.411	1	pointing	Trial2	pointing/STIM_006.jpg
1326.027	1.137	1	pointing	Trial2	pointing/STIM_007.jpg
1330.321	1.188	1	pointing	Trial2	pointing/STIM_007.jpg
1333.404	1.388	0	pointing	Trial2	pointing/STIM_007.jpg
1337.01	1.248	1	pointing	Trial2	pointing/STIM_007.jpg
1340.566	0.978	0	pointing	Trial2	pointing/STIM_007.jpg
1343.824	1.081	1	pointing	Trial2	pointing/STIM_007.jpg
1347.905	0.852	1	pointing	Trial2	pointing/STIM_008.jpg
1352.575	1.109	1	pointing	Trial2	pointing/STIM_008.jpg
1356.906	1.285	1	pointing	Trial2	pointing/STIM_008.jpg
1361.302	1.146	0	pointing	Trial2	pointing/STIM_008.jpg
1365.044	1.354	1	pointing	Trial2	pointing/STIM_008.jpg
1369.483	1.401	1	pointing	Trial2	pointing/STIM_008.jpg
1373.712	1.585	1	pointing	Trial2	pointing/STIM_009.jpg
1377.659	1.229	1	pointing	Trial2	pointing/STIM_009.jpg
1382.067	1.321	1	pointing	Trial2	pointing/STIM_009.jpg
1385.844	1.118	1	pointing	Trial2	pointing/STIM_009.jpg
1389.113	0.92	1	pointing	Trial2	pointing/STIM_009.jpg
1392.41	0.939	1	pointing	Trial2	pointing/STIM_009.jpg
1396.89	0.955	1	pointing	Trial2	pointing/STIM_010.jpg
1401.337	1.336	1	pointing	Trial2	pointing/STIM_010.jpg
1405.445	1.603	1	pointing	Trial2	pointing/STIM_010.jpg
1409.295	1.487	1	pointing	Trial2	pointing/STIM_010.jpg
1412.895	0.947	1	pointing	Trial2	pointing/STIM_010.jpg
1417.379	1.252	1	pointing	Trial2	pointing/STIM_010.jpg
1421.49	1.65	1	pointing	Trial2	pointing/STIM_011.jpg
1425.829	0.934	1	pointing	Trial2	pointing/STIM_011.jpg
1430.35	1.428	1	pointing	Trial2	pointing/STIM_011.jpg
1435.639	0.947	1	pointing	Trial2	pointing/STIM_011.jpg
1439.814	1.474	0	pointing	Trial2	pointing/STIM_011.jpg
1444.522	1.427	1	pointing	Trial2	pointing/STIM_011.jpg
1449.167	3.566	0	navigation	Trial3	navigation/STIM_000.jpg
1456.309	3.345	1	navigation	Trial3	navigation/STIM_000.jpg
1462.007	1.988	1	navigation	Trial3	navigation/STIM_000.jpg
1466.275	1.433	1	navigation	Trial3	navigation/STIM_000.jpg
1471.058	2.488	1	navigation	Trial3	navigation/STIM_000.jpg
1477.086	2.713	1	navigation	Trial3	navigation/STIM_000.jpg
1483.475	2.032	1	navigation	Trial3	navigation/STIM_001.jpg
1487.51	3.279	1	navigation	Trial3	navigation/STIM_001.jpg
1493.675	1.839	1	navigation	Trial3	navigation/STIM_001.jpg
1498.194	1.934	1	navigation	Trial3	navigation/STIM_001.jpg
1502.279	1.807	1	navigation	Trial3	navigation/STIM_001.jpg
1506.903	3.426	1	navigation	Trial3	navigation/STIM_001.jpg
1513.245	1.605	1	navigation	Trial3	navigation/STIM_002.jpg
1518.627	1.907	0	navigation	Trial3	navigation/STIM_002.jpg
1522.461	3.467	1	navigation	Trial3	navigation/STIM_002.jpg
1529.472	2.881	1	navigation	Trial3	navigation/STIM_002.jpg
1535.208	2.801	0	navigation	Trial3	navigation/STIM_002.jpg
1540.917	3.262	1	navigation	Trial3	navigation/STIM_002.jpg
1546.872	3.424	1	navigation	Trial3	navigation/STIM_003.jpg
1552.934	2.112	0	navigation	Trial3	navigation/STIM_003.jpg
1557.842	3.275	1	navigation	Trial3	navigation/STIM_003.jpg
1563.214	2.638	0	navigation	Trial3	navigation/STIM_003.jpg
1568.428	1.95	1	navigation	Trial3	navigation/STIM_003.jpg
1573.313	2.606	1	navigation	Trial3	navigation/STIM_003.jpg
1578.911	2.312	0	navigation	Trial3	navigation/STIM_004.jpg
1583.691	2.472	1	navigation	Trial3	navigation/STIM_004.jpg
1589.834	2.549	0	navigation	Trial3	navigation/STIM_004.jpg
1594.623	1.5	1	navigation	Trial3	navigation/STIM_004.jpg
1598.12	2.779	1	navigation	Trial3	navigation/STIM_004.jpg
1603.088	2.228	1	navigation	Trial3	navigation/STIM_004.jpg
1608.74	3.296	0	navigation	Trial3	navigation/STIM_005.jpg
1613.908	3.705	1	navigation	Trial3	navigation/STIM_005.jpg
1619.5	2.7	1	navigation	Trial3	navigation/STIM_005.jpg
1625.399	2.659	1	navigation	Trial3	navigation/STIM_005.jpg
1630.125	3.148	1	navigation	Trial3	navigation/STIM_005.jpg
1635.135	3.206	1	navigation	Trial3	navigation/STIM_005.jpg
1641.491	3.114	1	navigation	Trial3	navigation/STIM_006.jpg
1648.116	3.652	1	navigation	Trial3	navigation/STIM_006.jpg
1653.52	2.615	0	navigation	Trial3	navigation/STIM_006.jpg
1658.575	2.209	1	navigation	Trial3	navigation/STIM_006.jpg
1662.628	2.65	1	navigation	Trial3	navigation/STIM_006.jpg
1667.414	2.833	1	navigation	Trial3	navigation/STIM_006.jpg
1673.141	3.286	1	navigation	Trial3	navigation/STIM_007.jpg
1678.687	2.382	0	navigation	Trial3	navigation/STIM_007.jpg
1684.722	2.815	1	navigation	Trial3	navigation/STIM_007.jpg
1689.759	2.428	1	navigation	Trial3	navigation/STIM_007.jpg
1695.508	2.833	1	navigation	Trial3	navigation/STIM_007.jpg
1700.831	3.021	1	navigation	Trial3	navigation/STIM_007.jpg
1706.804	2.08	1	navigation	Trial3	navigation/STIM_008.jpg
1712.692	1.757	0	navigation	Trial3	navigation/STIM_008.jpg
1718.272	2.064	1	navigation	Trial3	navigation/STIM_008.jpg
1722.718	1.868	1	navigation	Trial3	navigation/STIM_008.jpg
1727.884	3.508	1	navigation	Trial3	navigation/STIM_008.jpg
1733.205	3.521	1	navigation	Trial3	navigation/STIM_008.jpg
1739.425	3.501	1	navigation	Trial3	navigation/STIM_009.jpg
1746.202	3.388	1	navigation	Trial3	navigation/STIM_009.jpg
1753.046	2.231	1	navigation	Trial3	navigation/STIM_009.jpg
1758.511	2.516	0	navigation	Trial3	navigation/STIM_009.jpg
1763.998	3.067	1	navigation	Trial3	navigation/STIM_009.jpg
1770.735	3.016	1	navigation	Trial3	navigation/STIM_009.jpg
1777.19	2.665	1	navigation	Trial3	navigation/STIM_010.jpg
1781.985	3.22	1	navigation	Trial3	navigation/STIM_010.jpg
1788.628	2.255	1	navigation	Trial3	navigation/STIM_010.jpg
1793.816	2.537	1	navigation	Trial3	navigation/STIM_010.jpg
1798.957	2.978	0	navigation	Trial3	navigation/STIM_010.jpg
1804.309	3.383	1	navigation	Trial3	navigation/STIM_010.jpg
1810.108	3.284	1	navigation	Trial3	navigation/STIM_011.jpg
1816.685	3.298	0	navigation	Trial3	navigation/STIM_011.jpg
1822.15	2.109	1	navigation	Trial3	navigation/STIM_011.jpg
1827.485	3.186	1	navigation	Trial3	navigation/STIM_011.jpg
1834.246	1.422	0	navigation	Trial3	navigation/STIM_011.jpg
1839.003	3.56	1	navigation	Trial3	navigation/STIM_011.jpg
1845.367	1.406	1	pointing	Trial3	pointing/STIM_000.jpg
1849.15	1.131	1	pointing	Trial3	pointing/STIM_000.jpg
1853.772	0.927	1	pointing	Trial3	pointing/STIM_000.jpg
1857.271	0.987	1	pointing	Trial3	pointing/STIM_000.jpg
1860.565	0.99	1	pointing	Trial3	pointing/STIM_000.jpg
1865.437	1.04	1	pointing	Trial3	pointing/STIM_000.jpg
1870.24	1.343	1	pointing	Trial3	pointing/STIM_001.jpg
1875.196	1.136	1	pointing	Trial3	pointing/STIM_001.jpg
1879.179	0.837	1	pointing	Trial3	pointing/STIM_001.jpg
1883.222	1.507	1	pointing	Trial3	pointing/STIM_001.jpg
1887.849	1.551	1	pointing	Trial3	pointing/STIM_001.jpg
1891.979	0.793	1	pointing	Trial3	pointing/STIM_001.jpg
1895.703	1.183	1	pointing	Trial3	pointing/STIM_002.jpg
1898.925	0.942	1	pointing	Trial3	pointing/STIM_002.jpg
1903.274	0.869	1	pointing	Trial3	pointing/STIM_002.jpg
1906.474	1.507	1	pointing	Trial3	pointing/STIM_002.jpg
1910.742	1.572	1	pointing	Trial3	pointing/STIM_002.jpg
1915.208	1.409	1	pointing	Trial3	pointing/STIM_002.jpg
1918.87	0.932	1	pointing	Trial3	pointing/STIM_003.jpg
1922.838	1.131	1	pointing	Trial3	pointing/STIM_003.jpg
1927.048	1.493	1	pointing	Trial3	pointing/STIM_003.jpg
1930.67	1.02	1	pointing	Trial3	pointing/STIM_003.jpg
1935.067	1.114	1	pointing	Trial3	pointing/STIM_003.jpg
1938.695	1.54	1	pointing	Trial3	pointing/STIM_003.jpg
1942.358	0.822	1	pointing	Trial3	pointing/STIM_004.jpg
1945.293	1.285	1	pointing	Trial3	pointing/STIM_004.jpg
1950.187	1.283	1	pointing	Trial3	pointing/STIM_004.jpg
1954.681	1.064	1	pointing	Trial3	pointing/STIM_004.jpg
1957.699	1.479	1	pointing	Trial3	pointing/STIM_004.jpg
1961.282	1.134	1	pointing	Trial3	pointing/STIM_004.jpg
1965.435	1.475	1	pointing	Trial3	pointing/STIM_005.jpg
1970.65	0.999	1	pointing	Trial3	pointing/STIM_005.jpg
1974.971	1.004	1	pointing	Trial3	pointing/STIM_005.jpg
1978.443	1.616	1	pointing	Trial3	pointing/STIM_005.jpg
1983.814	1.57	1	pointing	Trial3	pointing/STIM_005.jpg
1988.242	1.122	1	pointing	Trial3	pointing/STIM_005.jpg
1991.253	1.287	1	pointing	Trial3	pointing/STIM_006.jpg
1995.715	0.972	1	pointing	Trial3	pointing/STIM_006.jpg
1999.703	1.12	1	pointing	Trial3	pointing/STIM_006.jpg
2004.118	1.194	1	pointing	Trial3	pointing/STIM_006.jpg
2007.409	1.337	1	pointing	Trial3	pointing/STIM_006.jpg
2011.767	1.311	1	pointing	Trial3	pointing/STIM_006.jpg
2015.234	0.851	1	pointing	Trial3	pointing/STIM_007.jpg
2019.062	1.126	1	pointing	Trial3	pointing/STIM_007.jpg
2022.937	1.003	1	pointing	Trial3	pointing/STIM_007.jpg
2026.763	1.637	1	pointing	Trial3	pointing/STIM_007.jpg
2031.545	1.261	1	pointing	Trial3	pointing/STIM_007.jpg
2035.939	1.36	0	pointing	Trial3	pointing/STIM_007.jpg
2039.868	1.157	1	pointing	Trial3	pointing/STIM_008.jpg
2043.472	0.983	1	pointing	Trial3	pointing/STIM_008.jpg
2046.751	1.355	1	pointing	Trial3	pointing/STIM_008.jpg
2051.003	1.109	1	pointing	Trial3	pointing/STIM_008.jpg
2055.324	1.15	1	pointing	Trial3	pointing/STIM_008.jpg
2058.415	0.977	1	pointing	Trial3	pointing/STIM_008.jpg
2061.547	1.55	1	pointing	Trial3	pointing/STIM_009.jpg
2065.55	1.285	1	pointing	Trial3	pointing/STIM_009.jpg
2068.755	1.344	1	pointing	Trial3	pointing/STIM_009.jpg
2072.83	1.185	0	pointing	Trial3	pointing/STIM_009.jpg
2077.345	1.072	1	pointing	Trial3	pointing/STIM_009.jpg
2082.159	1.535	1	pointing	Trial3	pointing/STIM_009.jpg
2085.87	1.345	1	pointing	Trial3	pointing/STIM_010.jpg
2089.308	1.633	1	pointing	Trial3	pointing/STIM_010.jpg
2093.09	1.382	1	pointing	Trial3	pointing/STIM_010.jpg
2097.11	1.518	1	pointing	Trial3	pointing/STIM_010.jpg
2100.761	1.297	1	pointing	Trial3	pointing/STIM_010.jpg
2105.156	1.038	1	pointing	Trial3	pointing/STIM_010.jpg
2108.99	0.892	1	pointing	Trial3	pointing/STIM_011.jpg
2112.636	1.122	1	pointing	Trial3	pointing/STIM_011.jpg
2116.642	1.138	1	pointing	Trial3	pointing/STIM_011.jpg
2120.24	1.323	1	pointing	Trial3	pointing/STIM_011.jpg
2125.318	1.501	1	pointing	Trial3	pointing/STIM_011.jpg
2130.64	1.222	1	pointing	Trial3	pointing/STIM_011.jpg
