onset	duration	accuracy	trial_type	learning_stage	stimulus
0.0	1.211	correct	2back	Block1	2back/STIM_000.jpg
3.225	1.26	correct	2back	Block1	2back/STIM_000.jpg
8.338	0.636	correct	2back	Block1	2back/STIM_000.jpg
12.0	0.998	correct	2back	Block1	2back/STIM_001.jpg
15.315	1.379	correct	2back	Block1	2back/STIM_001.jpg
20.397	1.309	correct	2back	Block1	2back/STIM_001.jpg
24.601	1.113	incorrect	2back	Block1	2back/STIM_002.jpg
28.947	1.21	correct	2back	Block1	2back/STIM_002.jpg
32.895	1.019	correct	2back	Block1	2back/STIM_002.jpg
36.714	1.48	correct	2back	Block1	2back/STIM_003.jpg
40.787	1.282	correct	2back	Block1	2back/STIM_003.jpg
45.577	0.821	incorrect	2back	Block1	2back/STIM_003.jpg
50.221	1.181	incorrect	2back	Block1	2back/STIM_004.jpg
53.913	1.098	correct	2back	Block1	2back/STIM_004.jpg
57.102	1.372	correct	2back	Block1	2back/STIM_004.jpg
62.198	1.138	correct	2back	Block1	2back/STIM_005.jpg
65.578	1.242	correct	2back	Block1	2back/STIM_005.jpg
69.644	0.729	correct	2back	Block1	2back/STIM_005.jpg
73.012	1.044	incorrect	2back	Block1	2back/STIM_006.jpg
76.838	1.262	correct	2back	Block1	2back/STIM_006.jpg
80.54	0.936	incorrect	2back	Block1	2back/STIM_006.jpg
84.329	1.554	incorrect	2back	Block1	2back/STIM_007.jpg
89.12	1.406	correct	2back	Block1	2back/STIM_007.jpg
93.335	0.854	incorrect	2back	Block1	2back/STIM_007.jpg
96.11	1.267	correct	2back	Block1	2back/STIM_008.jpg
101.17	1.213	correct	2back	Block1	2back/STIM_008.jpg
105.285	0.899	incorrect	2back	Block1	2back/STIM_008.jpg
109.794	1.252	correct	2back	Block1	2back/STIM_009.jpg
113.134	1.221	incorrect	2back	Block1	2back/STIM_009.jpg
117.447	0.608	correct	2back	Block1	2back/STIM_009.jpg
121.576	1.117	correct	2back	Block1	2back/STIM_010.jpg
125.728	1.388	correct	2back	Block1	2back/STIM_010.jpg
129.803	1.064	incorrect	2back	Block1	2back/STIM_010.jpg
133.736	1.378	correct	2back	Block1	2back/STIM_011.jpg
138.714	1.282	correct	2back	Block1	2back/STIM_011.jpg
143.666	1.203	correct	2back	Block1	2back/STIM_011.jpg
148.553	1.541	correct	2back	Block1	2back/STIM_012.jpg
153.471	0.946	correct	2back	Block1	2back/STIM_012.jpg
156.586	1.114	correct	2back	Block1	2back/STIM_012.jpg
160.921	1.547	correct	2back	Block1	2back/STIM_013.jpg
165.807	1.064	correct	2back	Block1	2back/STIM_013.jpg
170.429	0.679	correct	2back	Block1	2back/STIM_013.jpg
174.216	0.866	correct	2back	Block1	2back/STIM_014.jpg
178.991	1.152	incorrect	2back	Block1	2back/STIM_014.jpg
183.019	0.822	correct	2back	Block1	2back/STIM_014.jpg
187.053	1.4	correct	2back	Block1	2back/STIM_015.jpg
192.186	0.712	correct	2back	Block1	2back/STIM_015.jpg
195.329	0.919	correct	2back	Block1	2back/STIM_015.jpg
199.661	0.921	incorrect	2back	Block1	2back/STIM_016.jpg
203.123	1.051	incorrect	2back	Block1	2back/STIM_016.jpg
206.242	0.622	correct	2back	Block1	2back/STIM_016.jpg
210.065	1.337	correct	2back	Block1	2back/STIM_017.jpg
213.701	0.925	correct	2back	Block1	2back/STIM_017.jpg
216.783	1.096	correct	2back	Block1	2back/STIM_017.jpg
221.098	0.773	correct	2back	Block1	2back/STIM_018.jpg
225.34	0.852	incorrect	2back	Block1	2back/STIM_018.jpg
229.864	0.964	correct	2back	Block1	2back/STIM_018.jpg
234.694	1.554	correct	2back	Block1	2back/STIM_019.jpg
239.563	1.32	correct	2back	Block1	2back/STIM_019.jpg
244.612	0.61	correct	2back	Block1	2back/STIM_019.jpg
247.914	1.19	correct	2back	Block1	2back/STIM_020.jpg
252.168	0.726	correct	2back	Block1	2back/STIM_020.jpg
255.849	0.672	correct	2back	Block1	2back/STIM_020.jpg
260.291	1.223	correct	2back	Block1	2back/STIM_021.jpg
265.348	0.938	correct	2back	Block1	2back/STIM_021.jpg
268.515	1.111	correct	2back	Block1	2back/STIM_021.jpg
272.77	1.309	correct	2back	Block1	2back/STIM_022.jpg
276.639	0.684	correct	2back	Block1	2back/STIM_022.jpg
280.55	1.279	incorrect	2back	Block1	2back/STIM_022.jpg
284.587	0.98	correct	2back	Block1	2back/STIM_023.jpg
287.96	0.82	incorrect	2back	Block1	2back/STIM_023.jpg
292.473	0.89	correct	2back	Block1	2back/STIM_023.jpg
297.149	1.226	correct	2back	Block1	2back/STIM_024.jpg
300.637	1.046	correct	2back	Block1	2back/STIM_024.jpg
304.984	1.184	correct	2back	Block1	2back/STIM_024.jpg
308.172	0.984	correct	2back	Block1	2back/STIM_025.jpg
311.095	0.903	incorrect	2back	Block1	2back/STIM_025.jpg
315.334	1.327	correct	2back	Block1	2back/STIM_025.jpg
319.145	0.842	correct	2back	Block1	2back/STIM_026.jpg
321.951	0.953	correct	2back	Block1	2back/STIM_026.jpg
326.732	0.644	correct	2back	Block1	2back/STIM_026.jpg
330.82	1.026	correct	2back	Block1	2back/STIM_027.jpg
334.504	0.8	correct	2back	Block1	2back/STIM_027.jpg
338.741	0.708	correct	2back	Block1	2back/STIM_027.jpg
342.57	1.11	incorrect	2back	Block1	2back/STIM_028.jpg
345.738	1.186	correct	2back	Block1	2back/STIM_028.jpg
349.701	0.692	correct	2back	Block1	2back/STIM_028.jpg
352.772	1.119	correct	2back	Block1	2back/STIM_029.jpg
356.497	1.202	correct	2back	Block1	2back/STIM_029.jpg
360.05	0.711	correct	2back	Block1	2back/STIM_029.jpg
363.309	1.185	incorrect	2back	Block1	2back/STIM_030.jpg
368.027	1.194	incorrect	2back	Block1	2back/STIM_030.jpg
372.094	0.918	correct	2back	Block1	2back/STIM_030.jpg
376.064	0.738	correct	2back	Block1	2back/STIM_031.jpg
380.669	1.06	correct	2back	Block1	2back/STIM_031.jpg
384.13	0.984	correct	2back	Block1	2back/STIM_031.jpg
388.09	1.328	correct	2back	Block1	2back/STIM_032.jpg
391.551	1.294	correct	2back	Block1	2back/STIM_032.jpg
395.229	1.193	correct	2back	Block1	2back/STIM_032.jpg
398.838	0.974	correct	2back	Block1	2back/STIM_033.jpg
402.079	1.288	correct	2back	Block1	2back/STIM_033.jpg
405.78	0.828	correct	2back	Block1	2back/STIM_033.jpg
409.492	1.428	correct	2back	Block1	2back/STIM_034.jpg
414.698	0.884	correct	2back	Block1	2back/STIM_034.jpg
418.434	0.671	correct	2back	Block1	2back/STIM_034.jpg
422.945	0.897	correct	2back	Block1	2back/STIM_035.jpg
425.992	1.402	correct	2back	Block1	2back/STIM_035.jpg
429.935	1.059	correct	2back	Block1	2back/STIM_035.jpg
432.972	1.033	incorrect	2back	Block1	2back/STIM_036.jpg
437.116	1.342	correct	2back	Block1	2back/STIM_036.jpg
441.71	1.129	incorrect	2back	Block1	2back/STIM_036.jpg
445.039	0.778	correct	2back	Block1	2back/STIM_037.jpg
447.804	0.786	incorrect	2back	Block1	2back/STIM_037.jpg
450.644	1.008	correct	2back	Block1	2back/STIM_037.jpg
454.26	1.479	correct	2back	Block1	2back/STIM_038.jpg
458.767	0.642	correct	2back	Block1	2back/STIM_038.jpg
461.995	1.198	correct	2back	Block1	2back/STIM_038.jpg
465.461	0.728	correct	2back	Block1	2back/STIM_039.jpg
468.882	1.01	incorrect	2back	Block1	2back/STIM_039.jpg
472.606	1.192	correct	2back	Block1	2back/STIM_039.jpg
477.249	0.77	correct	0back	Block1	0back/STIM_000.jpg
481.84	0.536	correct	0back	Block1	0back/STIM_000.jpg
485.733	0.782	correct	0back	Block1	0back/STIM_000.jpg
489.436	0.636	correct	0back	Block1	0back/STIM_001.jpg
493.937	0.535	correct	0back	Block1	0back/STIM_001.jpg
497.662	0.691	correct	0back	Block1	0back/STIM_001.jpg
501.264	0.819	correct	0back	Block1	0back/STIM_002.jpg
504.812	0.512	correct	0back	Block1	0back/STIM_002.jpg
507.888	0.818	correct	0back	Block1	0back/STIM_002.jpg
512.246	0.803	incorrect	0back	Block1	0back/STIM_003.jpg
516.438	0.716	correct	0back	Block1	0back/STIM_003.jpg
519.309	0.523	correct	0back	Block1	0back/STIM_003.jpg
522.36	0.866	correct	0back	Block1	0back/STIM_004.jpg
526.42	0.536	correct	0back	Block1	0back/STIM_004.jpg
530.801	0.742	correct	0back	Block1	0back/STIM_004.jpg
534.525	0.813	correct	0back	Block1	0back/STIM_005.jpg
537.483	0.467	correct	0back	Block1	0back/STIM_005.jpg
540.864	0.858	correct	0back	Block1	0back/STIM_005.jpg
545.552	0.639	correct	0back	Block1	0back/STIM_006.jpg
549.622	0.473	correct	0back	Block1	0back/STIM_006.jpg
553.816	0.462	correct	0back	Block1	0back/STIM_006.jpg
557.558	0.85	correct	0back	Block1	0back/STIM_007.jpg
561.589	0.547	correct	0back	Block1	0back/STIM_007.jpg
564.408	0.577	correct	0back	Block1	0back/STIM_007.jpg
568.87	0.821	correct	0back	Block1	0back/STIM_008.jpg
573.595	0.685	correct	0back	Block1	0back/STIM_008.jpg
577.838	0.842	correct	0back	Block1	0back/STIM_008.jpg
580.744	0.867	correct	0back	Block1	0back/STIM_009.jpg
585.318	0.544	correct	0back	Block1	0back/STIM_009.jpg
588.224	0.7	correct	0back	Block1	0back/STIM_009.jpg
592.683	0.605	correct	0back	Block1	0back/STIM_010.jpg
597.025	0.561	correct	0back	Block1	0back/STIM_010.jpg
600.328	0.614	correct	0back	Block1	0back/STIM_010.jpg
603.416	0.682	correct	0back	Block1	0back/STIM_011.jpg
606.948	0.744	correct	0back	Block1	0back/STIM_011.jpg
610.168	0.506	correct	0back	Block1	0back/STIM_011.jpg
613.692	0.579	correct	0back	Block1	0back/STIM_012.jpg
616.363	0.486	correct	0back	Block1	0back/STIM_012.jpg
619.091	0.548	correct	0back	Block1	0back/STIM_012.jpg
622.416	0.74	correct	0back	Block1	0back/STIM_013.jpg
626.774	0.603	correct	0back	Block1	0back/STIM_013.jpg
629.513	0.573	correct	0back	Block1	0back/STIM_013.jpg
633.67	0.449	correct	0back	Block1	0back/STIM_014.jpg
636.527	0.625	correct	0back	Block1	0back/STIM_014.jpg
639.985	0.74	correct	0back	Block1	0back/STIM_014.jpg
642.802	0.696	correct	0back	Block1	0back/STIM_015.jpg
645.454	0.805	correct	0back	Block1	0back/STIM_015.jpg
648.32	0.858	correct	0back	Block1	0back/STIM_015.jpg
651.982	0.693	incorrect	0back	Block1	0back/STIM_016.jpg
655.964	0.742	correct	0back	Block1	0back/STIM_016.jpg
659.967	0.693	correct	0back	Block1	0back/STIM_016.jpg
664.214	0.71	correct	0back	Block1	0back/STIM_017.jpg
667.707	0.643	correct	0back	Block1	0back/STIM_017.jpg
670.781	0.749	correct	0back	Block1	0back/STIM_017.jpg
674.262	0.476	correct	0back	Block1	0back/STIM_018.jpg
677.629	0.688	correct	0back	Block1	0back/STIM_018.jpg
681.974	0.886	correct	0back	Block1	0back/STIM_018.jpg
686.358	0.706	correct	0back	Block1	0back/STIM_019.jpg
690.713	0.684	correct	0back	Block1	0back/STIM_019.jpg
693.415	0.541	correct	0back	Block1	0back/STIM_019.jpg
696.714	1.139	correct	2back	Block2	2back/STIM_000.jpg
699.785	0.975	correct	2back	Block2	2back/STIM_000.jpg
703.132	0.568	correct	2back	Block2	2back/STIM_000.jpg
706.044	0.629	correct	2back	Block2	2back/STIM_001.jpg
709.456	0.86	correct	2back	Block2	2back/STIM_001.jpg
713.446	0.685	correct	2back	Block2	2back/STIM_001.jpg
717.459	0.814	correct	2back	Block2	2back/STIM_002.jpg
720.839	0.558	correct	2back	Block2	2back/STIM_002.jpg
724.02	0.998	correct	2back	Block2	2back/STIM_002.jpg
727.264	1.215	correct	2back	Block2	2back/STIM_003.jpg
731.064	0.982	correct	2back	Block2	2back/STIM_003.jpg
734.147	1.014	correct	2back	Block2	2back/STIM_003.jpg
738.652	1.292	correct	2back	Block2	2back/STIM_004.jpg
742.683	0.603	correct	2back	Block2	2back/STIM_004.jpg
746.56	0.806	correct	2back	Block2	2back/STIM_004.jpg
750.768	1.202	correct	2back	Block2	2back/STIM_005.jpg
755.453	0.753	correct	2back	Block2	2back/STIM_005.jpg
758.214	1.092	correct	2back	Block2	2back/STIM_005.jpg
762.185	0.958	correct	2back	Block2	2back/STIM_006.jpg
766.986	1.142	correct	2back	Block2	2back/STIM_006.jpg
771.743	0.687	correct	2back	Block2	2back/STIM_006.jpg
775.188	0.685	correct	2back	Block2	2back/STIM_007.jpg
778.591	0.753	correct	2back	Block2	2back/STIM_007.jpg
782.107	1.024	correct	2back	Block2	2back/STIM_007.jpg
785.596	1.062	correct	2back	Block2	2back/STIM_008.jpg
789.62	0.928	incorrect	2back	Block2	2back/STIM_008.jpg
792.786	0.585	incorrect	2back	Block2	2back/STIM_008.jpg
796.072	0.677	correct	2back	Block2	2back/STIM_009.jpg
799.035	0.966	correct	2back	Block2	2back/STIM_009.jpg
803.221	0.585	correct	2back	Block2	2back/STIM_009.jpg
806.508	1.189	correct	2back	Block2	2back/STIM_010.jpg
811.091	0.953	correct	2back	Block2	2back/STIM_010.jpg
815.175	1.123	correct	2back	Block2	2back/STIM_010.jpg
819.556	0.834	correct	2back	Block2	2back/STIM_011.jpg
823.978	0.826	correct	2back	Block2	2back/STIM_011.jpg
827.089	0.84	correct	2back	Block2	2back/STIM_011.jpg
830.976	1.104	correct	2back	Block2	2back/STIM_012.jpg
834.431	0.859	correct	2back	Block2	2back/STIM_012.jpg
837.566	0.775	incorrect	2back	Block2	2back/STIM_012.jpg
841.151	0.767	correct	2back	Block2	2back/STIM_013.jpg
844.134	1.002	correct	2back	Block2	2back/STIM_013.jpg
848.271	0.912	correct	2back	Block2	2back/STIM_013.jpg
851.828	1.123	correct	2back	Block2	2back/STIM_014.jpg
856.411	0.66	correct	2back	Block2	2back/STIM_014.jpg
860.744	1.138	correct	2back	Block2	2back/STIM_014.jpg
864.244	0.684	correct	2back	Block2	2back/STIM_015.jpg
867.368	1.182	correct	2back	Block2	2back/STIM_015.jpg
871.754	0.926	correct	2back	Block2	2back/STIM_015.jpg
875.173	0.893	incorrect	2back	Block2	2back/STIM_016.jpg
879.66	1.024	correct	2back	Block2	2back/STIM_016.jpg
883.118	1.121	correct	2back	Block2	2back/STIM_016.jpg
886.688	0.942	correct	2back	Block2	2back/STIM_017.jpg
891.289	1.209	correct	2back	Block2	2back/STIM_017.jpg
895.745	1.128	correct	2back	Block2	2back/STIM_017.jpg
899.972	1.094	correct	2back	Block2	2back/STIM_018.jpg
903.106	0.958	correct	2back	Block2	2back/STIM_018.jpg
907.472	1.085	correct	2back	Block2	2back/STIM_018.jpg
911.846	1.169	incorrect	2back	Block2	2back/STIM_019.jpg
916.794	0.801	correct	2back	Block2	2back/STIM_019.jpg
920.464	1.059	correct	2back	Block2	2back/STIM_019.jpg
924.875	1.054	correct	2back	Block2	2back/STIM_020.jpg
928.831	1.113	correct	2back	Block2	2back/STIM_020.jpg
932.691	0.994	correct	2back	Block2	2back/STIM_020.jpg
936.65	0.735	incorrect	2back	Block2	2back/STIM_021.jpg
939.594	0.744	correct	2back	Block2	2back/STIM_021.jpg
942.448	0.899	correct	2back	Block2	2back/STIM_021.jpg
946.843	0.986	incorrect	2back	Block2	2back/STIM_022.jpg
950.715	1.223	correct	2back	Block2	2back/STIM_022.jpg
955.458	0.76	incorrect	2back	Block2	2back/STIM_022.jpg
959.949	0.579	correct	2back	Block2	2back/STIM_023.jpg
963.076	0.838	correct	2back	Block2	2back/STIM_023.jpg
967.825	0.512	correct	2back	Block2	2back/STIM_023.jpg
971.096	1.205	correct	2back	Block2	2back/STIM_024.jpg
974.393	1.242	incorrect	2back	Block2	2back/STIM_024.jpg
977.631	0.929	correct	2back	Block2	2back/STIM_024.jpg
981.787	1.231	correct	2back	Block2	2back/STIM_025.jpg
984.922	0.697	correct	2back	Block2	2back/STIM_025.jpg
987.827	1.082	correct	2back	Block2	2back/STIM_025.jpg
991.89	1.08	correct	2back	Block2	2back/STIM_026.jpg
996.823	0.63	correct	2back	Block2	2back/STIM_026.jpg
1000.585	1.031	correct	2back	Block2	2back/STIM_026.jpg
1005.225	0.725	correct	2back	Block2	2back/STIM_027.jpg
1008.576	0.695	correct	2back	Block2	2back/STIM_027.jpg
1011.573	0.502	incorrect	2back	Block2	2back/STIM_027.jpg
1015.618	0.715	correct	2back	Block2	2back/STIM_028.jpg
1018.332	0.967	correct	2back	Block2	2back/STIM_028.jpg
1022.751	0.845	correct	2back	Block2	2back/STIM_028.jpg
1025.658	0.596	correct	2back	Block2	2back/STIM_029.jpg
1028.813	1.18	incorrect	2back	Block2	2back/STIM_029.jpg
1033.163	0.614	incorrect	2back	Block2	2back/STIM_029.jpg
1037.038	0.703	correct	2back	Block2	2back/STIM_030.jpg
1040.096	0.557	correct	2back	Block2	2back/STIM_030.jpg
1043.087	0.899	correct	2back	Block2	2back/STIM_030.jpg
1047.058	0.878	correct	2back	Block2	2back/STIM_031.jpg
1050.694	0.655	correct	2back	Block2	2back/STIM_031.jpg
1053.746	1.144	correct	2back	Block2	2back/STIM_031.jpg
1056.859	0.915	correct	2back	Block2	2back/STIM_032.jpg
1060.738	1.228	correct	2back	Block2	2back/STIM_032.jpg
1064.458	0.989	correct	2back	Block2	2back/STIM_032.jpg
1067.676	1.232	correct	2back	Block2	2back/STIM_033.jpg
1071.389	0.618	correct	2back	Block2	2back/STIM_033.jpg
1074.313	0.693	correct	2back	Block2	2back/STIM_033.jpg
1078.841	1.184	correct	2back	Block2	2back/STIM_034.jpg
1081.906	1.18	correct	2back	Block2	2back/STIM_034.jpg
1086.631	0.515	correct	2back	Block2	2back/STIM_034.jpg
1090.975	1.084	correct	2back	Block2	2back/STIM_035.jpg
1094.086	0.74	correct	2back	Block2	2back/STIM_035.jpg
1097.756	0.692	incorrect	2back	Block2	2back/STIM_035.jpg
1101.278	1.016	correct	2back	Block2	2back/STIM_036.jpg
1104.812	0.762	correct	2back	Block2	2back/STIM_036.jpg
1108.988	1.047	correct	2back	Block2	2back/STIM_036.jpg
1112.467	1.076	correct	2back	Block2	2back/STIM_037.jpg
1116.654	0.596	correct	2back	Block2	2back/STIM_037.jpg
1119.484	1.147	correct	2back	Block2	2back/STIM_037.jpg
1124.356	1.288	correct	2back	Block2	2back/STIM_038.jpg
1128.408	0.639	correct	2back	Block2	2back/STIM_038.jpg
1131.682	1.118	correct	2back	Block2	2back/STIM_038.jpg
1135.233	0.861	correct	2back	Block2	2back/STIM_039.jpg
1138.332	0.998	correct	2back	Block2	2back/STIM_039.jpg
1141.429	0.67	correct	2back	Block2	2back/STIM_039.jpg
1145.422	0.781	correct	0back	Block2	0back/STIM_000.jpg
1148.547	0.58	correct	0back	Block2	0back/STIM_000.jpg
1152.713	0.583	correct	0back	Block2	0back/STIM_000.jpg
1155.591	0.819	correct	0back	Block2	0back/STIM_001.jpg
1158.877	0.513	correct	0back	Block2	0back/STIM_001.jpg
1162.856	0.625	correct	0back	Block2	0back/STIM_001.jpg
1166.059	0.761	correct	0back	Block2	0back/STIM_002.jpg
1168.854	0.579	correct	0back	Block2	0back/STIM_002.jpg
1172.244	0.77	correct	0back	Block2	0back/STIM_002.jpg
1175.1	0.572	correct	0back	Block2	0back/STIM_003.jpg
1178.148	0.472	incorrect	0back	Block2	0back/STIM_003.jpg
1181.257	0.755	correct	0back	Block2	0back/STIM_003.jpg
1185.888	0.523	correct	0back	Block2	0back/STIM_004.jpg
1188.722	0.497	correct	0back	Block2	0back/STIM_004.jpg
1191.606	0.746	correct	0back	Block2	0back/STIM_004.jpg
1194.885	0.712	correct	0back	Block2	0back/STIM_005.jpg
1199.133	0.577	correct	0back	Block2	0back/STIM_005.jpg
1203.031	0.556	correct	0back	Block2	0back/STIM_005.jpg
1207.49	0.764	correct	0back	Block2	0back/STIM_006.jpg
1211.808	0.776	correct	0back	Block2	0back/STIM_006.jpg
1215.889	0.818	incorrect	0back	Block2	0back/STIM_006.jpg
1219.783	0.848	correct	0back	Block2	0back/STIM_007.jpg
1223.879	0.702	correct	0back	Block2	0back/STIM_007.jpg
1228.43	0.646	correct	0back	Block2	0back/STIM_007.jpg
1232.114	0.504	correct	0back	Block2	0back/STIM_008.jpg
1234.59	0.744	correct	0back	Block2	0back/STIM_008.jpg
1237.736	0.487	correct	0back	Block2	0back/STIM_008.jpg
1241.487	0.68	correct	0back	Block2	0back/STIM_009.jpg
1244.567	0.886	correct	0back	Block2	0back/STIM_009.jpg
1247.92	0.843	correct	0back	Block2	0back/STIM_009.jpg
1252.66	0.559	correct	0back	Block2	0back/STIM_010.jpg
1256.157	0.878	correct	0back	Block2	0back/STIM_010.jpg
1260.021	0.868	correct	0back	Block2	0back/STIM_010.jpg
1263.119	0.672	correct	0back	Block2	0back/STIM_011.jpg
1266.256	0.648	correct	0back	Block2	0back/STIM_011.jpg
1268.889	0.805	correct	0back	Block2	0back/STIM_011.jpg
1272.787	0.658	correct	0back	Block2	0back/STIM_012.jpg
1275.993	0.634	correct	0back	Block2	0back/STIM_012.jpg
1279.753	0.448	correct	0back	Block2	0back/STIM_012.jpg
1283.177	0.855	correct	0back	Block2	0back/STIM_013.jpg
1287.777	0.752	correct	0back	Block2	0back/STIM_013.jpg
1290.819	0.798	correct	0back	Block2	0back/STIM_013.jpg
1293.598	0.547	correct	0back	Block2	0back/STIM_014.jpg
1296.905	0.796	correct	0back	Block2	0back/STIM_014.jpg
1300.274	0.498	correct	0back	Block2	0back/STIM_014.jpg
1303.198	0.839	correct	0back	Block2	0back/STIM_015.jpg
1307.658	0.481	correct	0back	Block2	0back/STIM_015.jpg
1310.451	0.883	correct	0back	Block2	0back/STIM_015.jpg
1313.263	0.877	correct	0back	Block2	0back/STIM_016.jpg
1316.818	0.648	correct	0back	Block2	0back/STIM_016.jpg
1320.924	0.771	correct	0back	Block2	0back/STIM_016.jpg
1325.569	0.828	correct	0back	Block2	0back/STIM_017.jpg
1329.409	0.833	correct	0back	Block2	0back/STIM_017.jpg
1333.705	0.84	correct	0back	Block2	0back/STIM_017.jpg
1336.96	0.571	correct	0back	Block2	0back/STIM_018.jpg
1339.589	0.89	correct	0back	Block2	0back/STIM_018.jpg
1342.819	0.777	correct	0back	Block2	0back/STIM_018.jpg
1347.433	0.564	correct	0back	Block2	0back/STIM_019.jpg
1350.895	0.543	incorrect	0back	Block2	0back/STIM_019.jpg
1354.443	0.831	correct	0back	Block2	0back/STIM_019.jpg
1357.296	0.652	correct	2back	Block3	2back/STIM_000.jpg
1361.037	0.932	correct	2back	Block3	2back/STIM_000.jpg
1365.67	0.684	correct	2back	Block3	2back/STIM_000.jpg
1369.826	0.648	incorrect	2back	Block3	2back/STIM_001.jpg
1374.268	0.856	correct	2back	Block3	2back/STIM_001.jpg
1377.083	0.48	correct	2back	Block3	2back/STIM_001.jpg
1381.283	0.605	correct	2back	Block3	2back/STIM_002.jpg
1384.193	0.883	correct	2back	Block3	2back/STIM_002.jpg
1387.784	0.983	correct	2back	Block3	2back/STIM_002.jpg
1391.822	0.841	correct	2back	Block3	2back/STIM_003.jpg
1394.663	0.84	correct	2back	Block3	2back/STIM_003.jpg
1397.724	0.604	correct	2back	Block3	2back/STIM_003.jpg
1401.569	0.884	correct	2back	Block3	2back/STIM_004.jpg
1404.809	0.552	correct	2back	Block3	2back/STIM_004.jpg
1408.848	1.086	correct	2back	Block3	2back/STIM_004.jpg
1413.687	0.56	correct	2back	Block3	2back/STIM_005.jpg
1417.349	0.553	correct	2back	Block3	2back/STIM_005.jpg
1420.832	1.065	correct	2back	Block3	2back/STIM_005.jpg
1424.55	1.003	correct	2back	Block3	2back/STIM_006.jpg
1427.688	0.853	correct	2back	Block3	2back/STIM_006.jpg
1431.06	0.488	correct	2back	Block3	2back/STIM_006.jpg
1434.643	0.804	correct	2back	Block3	2back/STIM_007.jpg
1438.133	0.961	correct	2back	Block3	2back/STIM_007.jpg
1442.532	0.912	correct	2back	Block3	2back/STIM_007.jpg
1445.844	1.04	correct	2back	Block3	2back/STIM_008.jpg
1450.119	1.026	correct	2back	Block3	2back/STIM_008.jpg
1453.213	0.596	correct	2back	Block3	2back/STIM_008.jpg
1457.418	0.97	correct	2back	Block3	2back/STIM_009.jpg
1460.581	0.664	incorrect	2back	Block3	2back/STIM_009.jpg
1464.254	0.616	correct	2back	Block3	2back/STIM_009.jpg
1468.058	0.786	correct	2back	Block3	2back/STIM_010.jpg
1470.909	1.085	correct	2back	Block3	2back/STIM_010.jpg
1474.097	1.0	correct	2back	Block3	2back/STIM_010.jpg
1478.497	0.569	correct	2back	Block3	2back/STIM_011.jpg
1482.026	0.938	correct	2back	Block3	2back/STIM_011.jpg
1486.531	0.644	correct	2back	Block3	2back/STIM_011.jpg
1489.792	0.862	correct	2back	Block3	2back/STIM_012.jpg
1492.85	0.771	correct	2back	Block3	2back/STIM_012.jpg
1496.685	1.046	incorrect	2back	Block3	2back/STIM_012.jpg
1500.932	0.538	correct	2back	Block3	2back/STIM_013.jpg
1505.278	1.09	correct	2back	Block3	2back/STIM_013.jpg
1508.452	0.629	correct	2back	Block3	2back/STIM_013.jpg
1512.942	0.556	correct	2back	Block3	2back/STIM_014.jpg
1515.92	0.821	correct	2back	Block3	2back/STIM_014.jpg
1518.82	0.976	correct	2back	Block3	2back/STIM_014.jpg
1523.567	0.902	correct	2back	Block3	2back/STIM_015.jpg
1528.029	0.779	correct	2back	Block3	2back/STIM_015.jpg
1532.619	0.672	correct	2back	Block3	2back/STIM_015.jpg
1535.443	0.922	correct	2back	Block3	2back/STIM_016.jpg
1540.136	0.924	correct	2back	Block3	2back/STIM_016.jpg
1543.429	0.474	correct	2back	Block3	2back/STIM_016.jpg
1547.347	0.527	incorrect	2back	Block3	2back/STIM_017.jpg
1550.522	0.779	correct	2back	Block3	2back/STIM_017.jpg
1555.032	1.09	correct	2back	Block3	2back/STIM_017.jpg
1558.518	0.97	correct	2back	Block3	2back/STIM_018.jpg
1562.673	0.612	correct	2back	Block3	2back/STIM_018.jpg
1567.161	1.0	correct	2back	Block3	2back/STIM_018.jpg
1570.379	0.779	correct	2back	Block3	2back/STIM_019.jpg
1574.937	0.702	correct	2back	Block3	2back/STIM_019.jpg
1577.937	0.834	correct	2back	Block3	2back/STIM_019.jpg
1580.936	0.622	correct	2back	Block3	2back/STIM_020.jpg
1584.487	1.026	correct	2back	Block3	2back/STIM_020.jpg
1588.24	0.628	correct	2back	Block3	2back/STIM_020.jpg
1592.496	0.932	correct	2back	Block3	2back/STIM_021.jpg
1595.89	0.935	correct	2back	Block3	2back/STIM_021.jpg
1598.857	0.968	correct	2back	Block3	2back/STIM_021.jpg
1603.295	0.699	correct	2back	Block3	2back/STIM_022.jpg
1606.453	0.506	correct	2back	Block3	2back/STIM_022.jpg
1610.017	0.74	correct	2back	Block3	2back/STIM_022.jpg
1614.013	1.023	correct	2back	Block3	2back/STIM_023.jpg
1618.929	0.491	correct	2back	Block3	2back/STIM_023.jpg
1622.905	0.736	correct	2back	Block3	2back/STIM_023.jpg
1625.995	0.893	correct	2back	Block3	2back/STIM_024.jpg
1629.726	0.845	correct	2back	Block3	2back/STIM_024.jpg
1633.89	1.014	correct	2back	Block3	2back/STIM_024.jpg
1637.394	0.7	correct	2back	Block3	2back/STIM_025.jpg
1641.669	0.682	correct	2back	Block3	2back/STIM_025.jpg
1645.892	0.936	correct	2back	Block3	2back/STIM_025.jpg
1650.496	1.016	correct	2back	Block3	2back/STIM_026.jpg
1654.495	0.544	correct	2back	Block3	2back/STIM_026.jpg
1657.073	0.615	correct	2back	Block3	2back/STIM_026.jpg
1660.437	1.046	correct	2back	Block3	2back/STIM_027.jpg
1663.693	0.935	correct	2back	Block3	2back/STIM_027.jpg
1666.845	0.637	correct	2back	Block3	2back/STIM_027.jpg
1670.184	0.538	correct	2back	Block3	2back/STIM_028.jpg
1672.825	0.889	incorrect	2back	Block3	2back/STIM_028.jpg
1677.134	0.856	correct	2back	Block3	2back/STIM_028.jpg
1680.933	0.983	correct	2back	Block3	2back/STIM_029.jpg
1684.343	0.984	correct	2back	Block3	2back/STIM_029.jpg
1687.537	1.009	correct	2back	Block3	2back/STIM_029.jpg
1691.186	0.998	correct	2back	Block3	2back/STIM_030.jpg
1695.553	1.068	correct	2back	Block3	2back/STIM_030.jpg
1698.94	0.519	correct	2back	Block3	2back/STIM_030.jpg
1703.223	0.481	correct	2back	Block3	2back/STIM_031.jpg
1706.548	0.532	correct	2back	Block3	2back/STIM_031.jpg
1710.183	0.715	correct	2back	Block3	2back/STIM_031.jpg
1713.474	0.546	correct	2back	Block3	2back/STIM_032.jpg
1716.072	0.527	correct	2back	Block3	2back/STIM_032.jpg
1720.088	0.857	correct	2back	Block3	2back/STIM_032.jpg
1723.357	1.037	correct	2back	Block3	2back/STIM_033.jpg
1727.588	0.913	correct	2back	Block3	2back/STIM_033.jpg
1732.127	0.946	correct	2back	Block3	2back/STIM_033.jpg
1736.792	0.56	correct	2back	Block3	2back/STIM_034.jpg
1739.384	0.634	correct	2back	Block3	2back/STIM_034.jpg
1742.408	1.033	correct	2back	Block3	2back/STIM_034.jpg
1745.946	1.056	correct	2back	Block3	2back/STIM_035.jpg
1749.276	0.872	incorrect	2back	Block3	2back/STIM_035.jpg
1752.874	1.086	correct	2back	Block3	2back/STIM_035.jpg
1756.123	0.564	correct	2back	Block3	2back/STIM_036.jpg
1759.336	0.733	correct	2back	Block3	2back/STIM_036.jpg
1762.101	1.026	correct	2back	Block3	2back/STIM_036.jpg
1765.057	0.966	correct	2back	Block3	2back/STIM_037.jpg
1768.784	0.665	correct	2back	Block3	2back/STIM_037.jpg
1771.816	0.726	correct	2back	Block3	2back/STIM_037.jpg
1776.265	0.67	correct	2back	Block3	2back/STIM_038.jpg
1779.165	1.028	correct	2back	Block3	2back/STIM_038.jpg
1782.851	0.838	correct	2back	Block3	2back/STIM_038.jpg
1786.018	0.484	correct	2back	Block3	2back/STIM_039.jpg
1788.821	1.059	correct	2back	Block3	2back/STIM_039.jpg
1792.722	0.682	correct	2back	Block3	2back/STIM_039.jpg
1795.872	0.78	correct	0back	Block3	0back/STIM_000.jpg
1800.235	0.458	correct	0back	Block3	0back/STIM_000.jpg
1804.486	0.88	correct	0back	Block3	0back/STIM_000.jpg
1807.877	0.728	correct	0back	Block3	0back/STIM_001.jpg
1812.314	0.662	correct	0back	Block3	0back/STIM_001.jpg
1816.687	0.713	correct	0back	Block3	0back/STIM_001.jpg
1821.136	0.446	correct	0back	Block3	0back/STIM_002.jpg
1824.838	0.621	correct	0back	Block3	0back/STIM_002.jpg
1828.782	0.697	correct	0back	Block3	0back/STIM_002.jpg
1832.746	0.734	correct	0back	Block3	0back/STIM_003.jpg
1836.86	0.605	correct	0back	Block3	0back/STIM_003.jpg
1840.901	0.763	correct	0back	Block3	0back/STIM_003.jpg
1845.548	0.793	correct	0back	Block3	0back/STIM_004.jpg
1848.853	0.855	correct	0back	Block3	0back/STIM_004.jpg
1852.89	0.567	correct	0back	Block3	0back/STIM_004.jpg
1855.823	0.454	incorrect	0back	Block3	0back/STIM_005.jpg
1858.651	0.558	correct	0back	Block3	0back/STIM_005.jpg
1862.06	0.654	correct	0back	Block3	0back/STIM_005.jpg
1865.089	0.498	correct	0back	Block3	0back/STIM_006.jpg
1868.023	0.803	correct	0back	Block3	0back/STIM_006.jpg
1870.939	0.803	correct	0back	Block3	0back/STIM_006.jpg
1875.128	0.624	correct	0back	Block3	0back/STIM_007.jpg
1878.349	0.854	correct	0back	Block3	0back/STIM_007.jpg
1883.082	0.565	correct	0back	Block3	0back/STIM_007.jpg
1885.992	0.807	incorrect	0back	Block3	0back/STIM_008.jpg
1890.665	0.739	correct	0back	Block3	0back/STIM_008.jpg
1894.623	0.877	correct	0back	Block3	0back/STIM_008.jpg
1898.997	0.724	correct	0back	Block3	0back/STIM_009.jpg
1902.363	0.586	correct	0back	Block3	0back/STIM_009.jpg
1906.376	0.635	correct	0back	Block3	0back/STIM_009.jpg
1909.618	0.645	correct	0back	Block3	0back/STIM_010.jpg
1913.163	0.765	correct	0back	Block3	0back/STIM_010.jpg
1915.862	0.879	correct	0back	Block3	0back/STIM_010.jpg
1918.842	0.513	correct	0back	Block3	0back/STIM_011.jpg
1922.368	0.574	correct	0back	Block3	0back/STIM_011.jpg
1926.233	0.63	correct	0back	Block3	0back/STIM_011.jpg
1930.167	0.579	correct	0back	Block3	0back/STIM_012.jpg
1932.808	0.643	correct	0back	Block3	0back/STIM_012.jpg
1935.629	0.555	correct	0back	Block3	0back/STIM_012.jpg
1939.386	0.474	correct	0back	Block3	0back/STIM_013.jpg
1943.291	0.713	correct	0back	Block3	0back/STIM_013.jpg
1946.039	0.486	correct	0back	Block3	0back/STIM_013.jpg
1950.02	0.642	correct	0back	Block3	0back/STIM_014.jpg
1954.339	0.869	correct	0back	Block3	0back/STIM_014.jpg
1958.52	0.644	correct	0back	Block3	0back/STIM_014.jpg
1962.026	0.71	correct	0back	Block3	0back/STIM_015.jpg
1966.573	0.476	correct	0back	Block3	0back/STIM_015.jpg
1969.412	0.516	correct	0back	Block3	0back/STIM_015.jpg
1973.345	0.721	correct	0back	Block3	0back/STIM_016.jpg
1976.344	0.499	correct	0back	Block3	0back/STIM_016.jpg
1979.675	0.832	correct	0back	Block3	0back/STIM_016.jpg
1983.574	0.51	correct	0back	Block3	0back/STIM_017.jpg
1987.105	0.493	correct	0back	Block3	0back/STIM_017.jpg
1991.046	0.758	correct	0back	Block3	0back/STIM_017.jpg
1994.3	0.456	correct	0back	Block3	0back/STIM_018.jpg
1997.419	0.786	correct	0back	Block3	0back/STIM_018.jpg
2000.531	0.528	correct	0back	Block3	0back/STIM_018.jpg
2003.944	0.496	correct	0back	Block3	0back/STIM_019.jpg
2008.19	0.775	incorrect	0back	Block3	0back/STIM_019.jpg
2012.868	0.516	correct	0back	Block3	0back/STIM_019.jpg
2016.255	0.76	correct	2back	Block4	2back/STIM_000.jpg
2020.421	0.993	correct	2back	Block4	2back/STIM_000.jpg
2025.301	0.723	correct	2back	Block4	2back/STIM_000.jpg
2028.327	0.668	correct	2back	Block4	2back/STIM_001.jpg
2032.573	0.922	correct	2back	Block4	2back/STIM_001.jpg
2036.898	0.83	correct	2back	Block4	2back/STIM_001.jpg
2040.181	0.922	correct	2back	Block4	2back/STIM_002.jpg
2043.693	0.767	correct	2back	Block4	2back/STIM_002.jpg
2048.092	0.958	correct	2back	Block4	2back/STIM_002.jpg
2051.027	0.988	correct	2back	Block4	2back/STIM_003.jpg
2054.955	0.633	correct	2back	Block4	2back/STIM_003.jpg
2058.129	0.895	correct	2back	Block4	2back/STIM_003.jpg
2061.11	0.917	correct	2back	Block4	2back/STIM_004.jpg
2064.761	0.733	correct	2back	Block4	2back/STIM_004.jpg
2068.211	0.625	correct	2back	Block4	2back/STIM_004.jpg
2070.837	0.894	correct	2back	Block4	2back/STIM_005.jpg
2074.539	0.884	correct	2back	Block4	2back/STIM_005.jpg
2077.602	0.549	correct	2back	Block4	2back/STIM_005.jpg
2080.903	0.722	correct	2back	Block4	2back/STIM_006.jpg
2085.194	0.801	correct	2back	Block4	2back/STIM_006.jpg
2089.569	0.856	correct	2back	Block4	2back/STIM_006.jpg
2093.462	0.486	correct	2back	Block4	2back/STIM_007.jpg
2097.66	0.688	correct	2back	Block4	2back/STIM_007.jpg
2101.514	0.681	correct	2back	Block4	2back/STIM_007.jpg
2105.668	0.762	correct	2back	Block4	2back/STIM_008.jpg
2109.651	0.718	correct	2back	Block4	2back/STIM_008.jpg
2114.234	1.048	correct	2back	Block4	2back/STIM_008.jpg
2117.203	1.086	correct	2back	Block4	2back/STIM_009.jpg
2120.356	0.702	correct	2back	Block4	2back/STIM_009.jpg
2123.687	0.711	correct	2back	Block4	2back/STIM_009.jpg
2127.103	0.597	correct	2back	Block4	2back/STIM_010.jpg
2129.893	0.838	incorrect	2back	Block4	2back/STIM_010.jpg
2134.582	1.032	correct	2back	Block4	2back/STIM_010.jpg
2137.83	0.773	correct	2back	Block4	2back/STIM_011.jpg
2140.798	0.858	correct	2back	Block4	2back/STIM_011.jpg
2145.561	0.538	correct	2back	Block4	2back/STIM_011.jpg
2149.699	0.681	correct	2back	Block4	2back/STIM_012.jpg
2154.176	1.052	correct	2back	Block4	2back/STIM_012.jpg
2157.913	0.604	correct	2back	Block4	2back/STIM_012.jpg
2160.833	0.51	correct	2back	Block4	2back/STIM_013.jpg
2163.992	0.88	correct	2back	Block4	2back/STIM_013.jpg
2168.351	0.492	correct	2back	Block4	2back/STIM_013.jpg
2171.344	0.65	correct	2back	Block4	2back/STIM_014.jpg
2174.449	0.67	correct	2back	Block4	2back/STIM_014.jpg
2178.185	0.49	incorrect	2back	Block4	2back/STIM_014.jpg
2181.37	0.573	correct	2back	Block4	2back/STIM_015.jpg
2185.508	0.608	correct	2back	Block4	2back/STIM_015.jpg
2189.08	1.022	correct	2back	Block4	2back/STIM_015.jpg
2193.677	0.518	correct	2back	Block4	2back/STIM_016.jpg
2196.49	0.49	correct	2back	Block4	2back/STIM_016.jpg
2200.322	0.524	correct	2back	Block4	2back/STIM_016.jpg
2204.115	0.952	correct	2back	Block4	2back/STIM_017.jpg
2208.124	0.968	correct	2back	Block4	2back/STIM_017.jpg
2211.539	0.618	correct	2back	Block4	2back/STIM_017.jpg
2215.126	0.725	correct	2back	Block4	2back/STIM_018.jpg
2217.999	0.49	correct	2back	Block4	2back/STIM_018.jpg
2220.67	0.896	incorrect	2back	Block4	2back/STIM_018.jpg
2223.574	1.025	correct	2back	Block4	2back/STIM_019.jpg
2227.31	0.764	correct	2back	Block4	2back/STIM_019.jpg
2230.643	0.929	correct	2back	Block4	2back/STIM_019.jpg
2233.682	0.835	correct	2back	Block4	2back/STIM_020.jpg
2236.754	0.974	correct	2back	Block4	2back/STIM_020.jpg
2240.137	0.747	correct	2back	Block4	2back/STIM_020.jpg
2243.263	0.73	correct	2back	Block4	2back/STIM_021.jpg
2245.979	0.914	correct	2back	Block4	2back/STIM_021.jpg
2250.107	1.073	correct	2back	Block4	2back/STIM_021.jpg
2254.157	0.611	correct	2back	Block4	2back/STIM_022.jpg
2257.953	0.496	correct	2back	Block4	2back/STIM_022.jpg
2261.447	1.045	correct	2back	Block4	2back/STIM_022.jpg
2265.017	0.636	correct	2back	Block4	2back/STIM_023.jpg
2268.851	0.827	correct	2back	Block4	2back/STIM_023.jpg
2272.04	0.967	correct	2back	Block4	2back/STIM_023.jpg
2275.746	0.892	correct	2back	Block4	2back/STIM_024.jpg
2279.078	0.811	correct	2back	Block4	2back/STIM_024.jpg
2282.595	0.747	correct	2back	Block4	2back/STIM_024.jpg
2287.182	1.05	correct	2back	Block4	2back/STIM_025.jpg
2292.003	0.788	correct	2back	Block4	2back/STIM_025.jpg
2296.527	0.562	correct	2back	Block4	2back/STIM_025.jpg
2300.304	0.89	correct	2back	Block4	2back/STIM_026.jpg
2305.081	0.929	correct	2back	Block4	2back/STIM_026.jpg
2309.688	0.498	correct	2back	Block4	2back/STIM_026.jpg
2313.428	0.544	correct	2back	Block4	2back/STIM_027.jpg
2316.404	0.657	correct	2back	Block4	2back/STIM_027.jpg
2320.144	0.6	correct	2back	Block4	2back/STIM_027.jpg
2323.083	0.692	correct	2back	Block4	2back/STIM_028.jpg
2327.001	0.83	correct	2back	Block4	2back/STIM_028.jpg
2331.457	0.484	correct	2back	Block4	2back/STIM_028.jpg
2335.16	0.93	correct	2back	Block4	2back/STIM_029.jpg
2338.329	0.986	correct	2back	Block4	2back/STIM_029.jpg
2342.167	0.763	correct	2back	Block4	2back/STIM_029.jpg
2346.425	0.721	correct	2back	Block4	2back/STIM_030.jpg
2350.282	0.762	correct	2back	Block4	2back/STIM_030.jpg
2353.0	0.783	correct	2back	Block4	2back/STIM_030.jpg
2356.559	0.717	correct	2back	Block4	2back/STIM_031.jpg
2361.007	0.641	correct	2back	Block4	2back/STIM_031.jpg
2363.925	0.703	correct	2back	Block4	2back/STIM_031.jpg
2367.345	0.964	correct	2back	Block4	2back/STIM_032.jpg
2372.114	0.902	correct	2back	Block4	2back/STIM_032.jpg
2375.761	0.704	correct	2back	Block4	2back/STIM_032.jpg
2379.981	1.036	correct	2back	Block4	2back/STIM_033.jpg
2383.61	0.557	correct	2back	Block4	2back/STIM_033.jpg
2387.314	0.547	incorrect	2back	Block4	2back/STIM_033.jpg
2390.36	0.544	correct	2back	Block4	2back/STIM_034.jpg
2394.534	0.791	correct	2back	Block4	2back/STIM_034.jpg
2399.155	0.609	correct	2back	Block4	2back/STIM_034.jpg
2401.847	0.918	correct	2back	Block4	2back/STIM_035.jpg
2406.616	0.817	correct	2back	Block4	2back/STIM_035.jpg
2410.586	0.74	correct	2back	Block4	2back/STIM_035.jpg
2413.951	1.038	correct	2back	Block4	2back/STIM_036.jpg
2418.734	1.038	correct	2back	Block4	2back/STIM_036.jpg
2422.128	0.851	incorrect	2back	Block4	2back/STIM_036.jpg
2425.983	1.009	correct	2back	Block4	2back/STIM_037.jpg
2429.919	1.034	correct	2back	Block4	2back/STIM_037.jpg
2434.578	0.979	correct	2back	Block4	2back/STIM_037.jpg
2439.285	0.762	correct	2back	Block4	2back/STIM_038.jpg
2442.568	1.084	correct	2back	Block4	2back/STIM_038.jpg
2445.81	0.713	correct	2back	Block4	2back/STIM_038.jpg
2449.779	0.919	correct	2back	Block4	2back/STIM_039.jpg
2454.154	0.785	correct	2back	Block4	2back/STIM_039.jpg
2456.948	0.641	correct	2back	Block4	2back/STIM_039.jpg
2460.572	0.656	correct	0back	Block4	0back/STIM_000.jpg
2463.959	0.801	correct	0back	Block4	0back/STIM_000.jpg
2468.167	0.602	correct	0back	Block4	0back/STIM_000.jpg
2470.844	0.806	correct	0back	Block4	0back/STIM_001.jpg
2474.55	0.665	correct	0back	Block4	0back/STIM_001.jpg
2478.329	0.567	correct	0back	Block4	0back/STIM_001.jpg
2482.501	0.778	correct	0back	Block4	0back/STIM_002.jpg
2485.203	0.486	correct	0back	Block4	0back/STIM_002.jpg
2488.487	0.551	correct	0back	Block4	0back/STIM_002.jpg
2491.023	0.644	correct	0back	Block4	0back/STIM_003.jpg
2495.44	0.548	correct	0back	Block4	0back/STIM_003.jpg
2499.321	0.658	correct	0back	Block4	0back/STIM_003.jpg
2502.772	0.774	correct	0back	Block4	0back/STIM_004.jpg
2507.342	0.802	correct	0back	Block4	0back/STIM_004.jpg
2511.853	0.808	correct	0back	Block4	0back/STIM_004.jpg
2515.517	0.82	correct	0back	Block4	0back/STIM_005.jpg
2518.781	0.769	correct	0back	Block4	0back/STIM_005.jpg
2522.324	0.565	correct	0back	Block4	0back/STIM_005.jpg
2525.68	0.711	correct	0back	Block4	0back/STIM_006.jpg
2529.651	0.851	correct	0back	Block4	0back/STIM_006.jpg
2533.832	0.608	correct	0back	Block4	0back/STIM_006.jpg
2537.874	0.464	correct	0back	Block4	0back/STIM_007.jpg
2541.822	0.732	correct	0back	Block4	0back/STIM_007.jpg
2546.377	0.852	correct	0back	Block4	0back/STIM_007.jpg
2549.589	0.841	correct	0back	Block4	0back/STIM_008.jpg
2552.78	0.839	correct	0back	Block4	0back/STIM_008.jpg
2556.671	0.824	correct	0back	Block4	0back/STIM_008.jpg
2561.027	0.477	correct	0back	Block4	0back/STIM_009.jpg
2565.341	0.79	correct	0back	Block4	0back/STIM_009.jpg
2568.832	0.846	correct	0back	Block4	0back/STIM_009.jpg
2573.589	0.808	correct	0back	Block4	0back/STIM_010.jpg
2577.794	0.827	correct	0back	Block4	0back/STIM_010.jpg
2581.598	0.49	correct	0back	Block4	0back/STIM_010.jpg
2585.985	0.559	correct	0back	Block4	0back/STIM_011.jpg
2589.673	0.727	correct	0back	Block4	0back/STIM_011.jpg
2593.185	0.739	correct	0back	Block4	0back/STIM_011.jpg
2596.316	0.682	correct	0back	Block4	0back/STIM_012.jpg
2599.188	0.445	correct	0back	Block4	0back/STIM_012.jpg
2601.741	0.715	correct	0back	Block4	0back/STIM_012.jpg
2605.868	0.622	correct	0back	Block4	0back/STIM_013.jpg
2610.037	0.563	correct	0back	Block4	0back/STIM_013.jpg
2612.713	0.527	correct	0back	Block4	0back/STIM_013.jpg
2616.507	0.458	correct	0back	Block4	0back/STIM_014.jpg
2620.867	0.49	correct	0back	Block4	0back/STIM_014.jpg
2623.908	0.742	correct	0back	Block4	0back/STIM_014.jpg
2627.66	0.742	correct	0back	Block4	0back/STIM_015.jpg
2630.389	0.453	correct	0back	Block4	0back/STIM_015.jpg
2633.741	0.836	correct	0back	Block4	0back/STIM_015.jpg
2636.602	0.765	correct	0back	Block4	0back/STIM_016.jpg
2640.951	0.713	correct	0back	Block4	0back/STIM_016.jpg
2644.552	0.696	correct	0back	Block4	0back/STIM_016.jpg
2648.314	0.774	correct	0back	Block4	0back/STIM_017.jpg
2652.793	0.557	correct	0back	Block4	0back/STIM_017.jpg
2655.636	0.526	correct	0back	Block4	0back/STIM_017.jpg
2658.917	0.448	correct	0back	Block4	0back/STIM_018.jpg
2663.133	0.507	correct	0back	Block4	0back/STIM_018.jpg
2665.994	0.684	correct	0back	Block4	0back/STIM_018.jpg
2668.991	0.663	correct	0back	Block4	0back/STIM_019.jpg
2673.519	0.754	correct	0back	Block4	0back/STIM_019.jpg
2676.395	0.602	correct	0back	Block4	0back/STIM_019.jpg
