onset	duration	accuracy_binary	trial_type	learning_stage	stimulus
0.0	1.358	1	2back	Block1	2back/STIM_000.jpg
4.005	0.744	1	2back	Block1	2back/STIM_000.jpg
7.276	0.669	1	2back	Block1	2back/STIM_000.jpg
10.118	1.427	1	2back	Block1	2back/STIM_001.jpg
13.816	0.97	1	2back	Block1	2back/STIM_001.jpg
17.183	1.123	1	2back	Block1	2back/STIM_001.jpg
21.155	0.839	0	2back	Block1	2back/STIM_002.jpg
24.287	1.288	1	2back	Block1	2back/STIM_002.jpg
28.252	1.132	1	2back	Block1	2back/STIM_002.jpg
33.215	1.06	1	2back	Block1	2back/STIM_003.jpg
36.683	1.361	1	2back	Block1	2back/STIM_003.jpg
41.537	0.655	1	2back	Block1	2back/STIM_003.jpg
45.99	1.091	1	2back	Block1	2back/STIM_004.jpg
50.945	0.612	1	2back	Block1	2back/STIM_004.jpg
53.862	0.73	1	2back	Block1	2back/STIM_004.jpg
58.395	1.14	1	2back	Block1	2back/STIM_005.jpg
62.417	0.806	1	2back	Block1	2back/STIM_005.jpg
65.4	0.855	1	2back	Block1	2back/STIM_005.jpg
69.497	1.093	0	2back	Block1	2back/STIM_006.jpg
73.367	0.798	1	2back	Block1	2back/STIM_006.jpg
77.557	0.735	0	2back	Block1	2back/STIM_006.jpg
81.32	1.168	0	2back	Block1	2back/STIM_007.jpg
84.525	1.226	1	2back	Block1	2back/STIM_007.jpg
87.943	1.08	0	2back	Block1	2back/STIM_007.jpg
91.112	0.67	1	2back	Block1	2back/STIM_008.jpg
94.869	1.294	1	2back	Block1	2back/STIM_008.jpg
98.673	0.765	1	2back	Block1	2back/STIM_008.jpg
102.384	1.336	1	2back	Block1	2back/STIM_009.jpg
106.899	1.099	0	2back	Block1	2back/STIM_009.jpg
110.655	1.204	1	2back	Block1	2back/STIM_009.jpg
114.332	1.098	1	2back	Block1	2back/STIM_010.jpg
119.422	0.822	1	2back	Block1	2back/STIM_010.jpg
122.939	0.833	1	2back	Block1	2back/STIM_010.jpg
126.626	1.354	1	2back	Block1	2back/STIM_011.jpg
130.806	1.102	1	2back	Block1	2back/STIM_011.jpg
135.114	1.072	1	2back	Block1	2back/STIM_011.jpg
139.566	1.43	1	2back	Block1	2back/STIM_012.jpg
143.085	1.01	1	2back	Block1	2back/STIM_012.jpg
146.87	0.703	1	2back	Block1	2back/STIM_012.jpg
149.935	0.838	1	2back	Block1	2back/STIM_013.jpg
153.865	0.801	1	2back	Block1	2back/STIM_013.jpg
156.706	1.031	1	2back	Block1	2back/STIM_013.jpg
161.447	1.066	1	2back	Block1	2back/STIM_014.jpg
166.096	1.068	0	2back	Block1	2back/STIM_014.jpg
170.654	0.765	1	2back	Block1	2back/STIM_014.jpg
173.815	0.674	1	2back	Block1	2back/STIM_015.jpg
178.311	0.764	1	2back	Block1	2back/STIM_015.jpg
183.057	0.671	1	2back	Block1	2back/STIM_015.jpg
186.436	1.406	0	2back	Block1	2back/STIM_016.jpg
190.545	0.799	0	2back	Block1	2back/STIM_016.jpg
193.405	1.316	1	2back	Block1	2back/STIM_016.jpg
197.59	0.819	1	2back	Block1	2back/STIM_017.jpg
200.814	0.847	1	2back	Block1	2back/STIM_017.jpg
203.678	1.008	1	2back	Block1	2back/STIM_017.jpg
207.213	1.434	1	2back	Block1	2back/STIM_018.jpg
211.386	0.654	1	2back	Block1	2back/STIM_018.jpg
214.126	1.116	1	2back	Block1	2back/STIM_018.jpg
217.947	0.892	1	2back	Block1	2back/STIM_019.jpg
222.138	1.114	1	2back	Block1	2back/STIM_019.jpg
225.586	1.107	1	2back	Block1	2back/STIM_019.jpg
229.483	0.737	1	2back	Block1	2back/STIM_020.jpg
232.43	0.948	1	2back	Block1	2back/STIM_020.jpg
235.692	1.288	1	2back	Block1	2back/STIM_020.jpg
239.155	1.454	1	2back	Block1	2back/STIM_021.jpg
244.15	1.047	1	2back	Block1	2back/STIM_021.jpg
248.496	1.263	1	2back	Block1	2back/STIM_021.jpg
251.951	1.344	1	2back	Block1	2back/STIM_022.jpg
256.65	1.123	1	2back	Block1	2back/STIM_022.jpg
260.414	0.962	0	2back	Block1	2back/STIM_022.jpg
263.894	1.313	1	2back	Block1	2back/STIM_023.jpg
268.397	0.681	1	2back	Block1	2back/STIM_023.jpg
271.405	1.164	1	2back	Block1	2back/STIM_023.jpg
276.399	1.092	1	2back	Block1	2back/STIM_024.jpg
279.691	1.256	1	2back	Block1	2back/STIM_024.jpg
283.481	0.684	1	2back	Block1	2back/STIM_024.jpg
287.107	1.291	1	2back	Block1	2back/STIM_025.jpg
291.382	0.815	0	2back	Block1	2back/STIM_025.jpg
294.454	0.581	1	2back	Block1	2back/STIM_025.jpg
298.596	1.341	1	2back	Block1	2back/STIM_026.jpg
303.517	0.835	1	2back	Block1	2back/STIM_026.jpg
307.013	0.767	1	2back	Block1	2back/STIM_026.jpg
310.0	0.772	1	2back	Block1	2back/STIM_027.jpg
312.818	0.976	1	2back	Block1	2back/STIM_027.jpg
316.647	0.817	1	2back	Block1	2back/STIM_027.jpg
319.701	0.94	0	2back	Block1	2back/STIM_028.jpg
323.051	0.93	1	2back	Block1	2back/STIM_028.jpg
326.248	0.628	0	2back	Block1	2back/STIM_028.jpg
330.777	1.425	1	2back	Block1	2back/STIM_029.jpg
336.086	0.633	1	2back	Block1	2back/STIM_029.jpg
340.06	1.137	1	2back	Block1	2back/STIM_029.jpg
345.181	0.979	0	2back	Block1	2back/STIM_030.jpg
349.098	1.17	0	2back	Block1	2back/STIM_030.jpg
352.374	0.914	1	2back	Block1	2back/STIM_030.jpg
355.695	0.675	1	2back	Block1	2back/STIM_031.jpg
358.391	0.703	1	2back	Block1	2back/STIM_031.jpg
361.491	0.595	1	2back	Block1	2back/STIM_031.jpg
364.868	0.727	1	2back	Block1	2back/STIM_032.jpg
369.337	0.954	1	2back	Block1	2back/STIM_032.jpg
373.864	1.26	1	2back	Block1	2back/STIM_032.jpg
377.99	1.249	1	2back	Block1	2back/STIM_033.jpg
382.215	1.292	1	2back	Block1	2back/STIM_033.jpg
385.78	0.784	1	2back	Block1	2back/STIM_033.jpg
388.917	0.848	1	2back	Block1	2back/STIM_034.jpg
393.447	0.606	1	2back	Block1	2back/STIM_034.jpg
397.108	0.644	1	2back	Block1	2back/STIM_034.jpg
400.186	1.114	1	2back	Block1	2back/STIM_035.jpg
404.936	0.951	1	2back	Block1	2back/STIM_035.jpg
408.443	0.844	1	2back	Block1	2back/STIM_035.jpg
412.024	1.333	1	2back	Block1	2back/STIM_036.jpg
416.292	1.274	1	2back	Block1	2back/STIM_036.jpg
420.686	0.823	0	2back	Block1	2back/STIM_036.jpg
425.444	0.833	1	2back	Block1	2back/STIM_037.jpg
429.864	0.885	1	2back	Block1	2back/STIM_037.jpg
433.065	0.847	1	2back	Block1	2back/STIM_037.jpg
436.156	0.941	1	2back	Block1	2back/STIM_038.jpg
440.009	1.314	1	2back	Block1	2back/STIM_038.jpg
445.108	1.006	1	2back	Block1	2back/STIM_038.jpg
448.909	1.371	1	2back	Block1	2back/STIM_039.jpg
452.897	0.96	0	2back	Block1	2back/STIM_039.jpg
456.87	1.114	1	2back	Block1	2back/STIM_039.jpg
460.621	0.54	1	0back	Block1	0back/STIM_000.jpg
464.116	0.632	1	0back	Block1	0back/STIM_000.jpg
468.075	0.457	1	0back	Block1	0back/STIM_000.jpg
472.103	0.455	1	0back	Block1	0back/STIM_001.jpg
476.066	0.607	1	0back	Block1	0back/STIM_001.jpg
480.519	0.543	1	0back	Block1	0back/STIM_001.jpg
484.222	0.567	1	0back	Block1	0back/STIM_002.jpg
487.517	0.813	1	0back	Block1	0back/STIM_002.jpg
491.399	0.49	1	0back	Block1	0back/STIM_002.jpg
494.051	0.782	0	0back	Block1	0back/STIM_003.jpg
498.031	0.836	1	0back	Block1	0back/STIM_003.jpg
502.463	0.58	1	0back	Block1	0back/STIM_003.jpg
506.179	0.516	1	0back	Block1	0back/STIM_004.jpg
509.49	0.603	1	0back	Block1	0back/STIM_004.jpg
513.377	0.823	1	0back	Block1	0back/STIM_004.jpg
517.767	0.797	1	0back	Block1	0back/STIM_005.jpg
520.767	0.547	1	0back	Block1	0back/STIM_005.jpg
525.055	0.446	1	0back	Block1	0back/STIM_005.jpg
529.349	0.651	1	0back	Block1	0back/STIM_006.jpg
533.058	0.788	1	0back	Block1	0back/STIM_006.jpg
536.211	0.611	1	0back	Block1	0back/STIM_006.jpg
538.828	0.663	1	0back	Block1	0back/STIM_007.jpg
542.842	0.702	1	0back	Block1	0back/STIM_007.jpg
545.973	0.71	1	0back	Block1	0back/STIM_007.jpg
548.794	0.726	1	0back	Block1	0back/STIM_008.jpg
552.477	0.715	1	0back	Block1	0back/STIM_008.jpg
556.927	0.535	1	0back	Block1	0back/STIM_008.jpg
560.778	0.504	1	0back	Block1	0back/STIM_009.jpg
563.518	0.775	1	0back	Block1	0back/STIM_009.jpg
566.558	0.528	1	0back	Block1	0back/STIM_009.jpg
569.635	0.714	1	0back	Block1	0back/STIM_010.jpg
573.311	0.442	1	0back	Block1	0back/STIM_010.jpg
576.695	0.435	1	0back	Block1	0back/STIM_010.jpg
580.986	0.828	1	0back	Block1	0back/STIM_011.jpg
585.81	0.46	1	0back	Block1	0back/STIM_011.jpg
588.431	0.734	1	0back	Block1	0back/STIM_011.jpg
592.255	0.576	1	0back	Block1	0back/STIM_012.jpg
595.798	0.828	1	0back	Block1	0back/STIM_012.jpg
598.783	0.734	1	0back	Block1	0back/STIM_012.jpg
602.338	0.424	1	0back	Block1	0back/STIM_013.jpg
605.989	0.593	1	0back	Block1	0back/STIM_013.jpg
609.959	0.499	1	0back	Block1	0back/STIM_013.jpg
613.854	0.782	1	0back	Block1	0back/STIM_014.jpg
618.425	0.712	1	0back	Block1	0back/STIM_014.jpg
621.563	0.827	1	0back	Block1	0back/STIM_014.jpg
625.575	0.688	1	0back	Block1	0back/STIM_015.jpg
628.824	0.52	1	0back	Block1	0back/STIM_015.jpg
631.832	0.499	1	0back	Block1	0back/STIM_015.jpg
634.893	0.823	1	0back	Block1	0back/STIM_016.jpg
638.698	0.545	1	0back	Block1	0back/STIM_016.jpg
641.714	0.623	1	0back	Block1	0back/STIM_016.jpg
645.219	0.527	1	0back	Block1	0back/STIM_017.jpg
648.973	0.681	1	0back	Block1	0back/STIM_017.jpg
652.161	0.427	1	0back	Block1	0back/STIM_017.jpg
656.36	0.628	1	0back	Block1	0back/STIM_018.jpg
660.42	0.658	1	0back	Block1	0back/STIM_018.jpg
664.646	0.688	1	0back	Block1	0back/STIM_018.jpg
667.717	0.653	1	0back	Block1	0back/STIM_019.jpg
671.621	0.715	1	0back	Block1	0back/STIM_019.jpg
674.872	0.46	1	0back	Block1	0back/STIM_019.jpg
678.428	0.918	1	2back	Block2	2back/STIM_000.jpg
681.515	0.69	1	2back	Block2	2back/STIM_000.jpg
685.874	0.598	1	2back	Block2	2back/STIM_000.jpg
688.674	0.718	1	2back	Block2	2back/STIM_001.jpg
693.013	1.09	1	2back	Block2	2back/STIM_001.jpg
696.466	0.752	1	2back	Block2	2back/STIM_001.jpg
700.5	0.576	1	2back	Block2	2back/STIM_002.jpg
704.396	0.968	1	2back	Block2	2back/STIM_002.jpg
708.189	1.002	1	2back	Block2	2back/STIM_002.jpg
713.027	0.613	1	2back	Block2	2back/STIM_003.jpg
716.958	0.85	1	2back	Block2	2back/STIM_003.jpg
721.47	0.901	1	2back	Block2	2back/STIM_003.jpg
724.387	0.782	1	2back	Block2	2back/STIM_004.jpg
728.207	0.55	1	2back	Block2	2back/STIM_004.jpg
731.749	0.824	1	2back	Block2	2back/STIM_004.jpg
736.292	0.852	1	2back	Block2	2back/STIM_005.jpg
739.819	0.699	1	2back	Block2	2back/STIM_005.jpg
743.551	0.954	1	2back	Block2	2back/STIM_005.jpg
747.761	1.023	1	2back	Block2	2back/STIM_006.jpg
750.83	1.012	1	2back	Block2	2back/STIM_006.jpg
754.34	0.604	1	2back	Block2	2back/STIM_006.jpg
757.576	0.925	1	2back	Block2	2back/STIM_007.jpg
762.136	1.047	1	2back	Block2	2back/STIM_007.jpg
766.41	1.024	1	2back	Block2	2back/STIM_007.jpg
771.358	0.846	1	2back	Block2	2back/STIM_008.jpg
775.252	1.171	1	2back	Block2	2back/STIM_008.jpg
778.883	1.069	1	2back	Block2	2back/STIM_008.jpg
782.645	0.602	1	2back	Block2	2back/STIM_009.jpg
786.567	1.076	1	2back	Block2	2back/STIM_009.jpg
789.886	0.578	1	2back	Block2	2back/STIM_009.jpg
793.417	1.226	1	2back	Block2	2back/STIM_010.jpg
798.334	0.583	1	2back	Block2	2back/STIM_010.jpg
801.709	0.939	1	2back	Block2	2back/STIM_010.jpg
805.565	0.661	1	2back	Block2	2back/STIM_011.jpg
809.441	0.747	1	2back	Block2	2back/STIM_011.jpg
813.072	0.513	1	2back	Block2	2back/STIM_011.jpg
816.392	0.917	1	2back	Block2	2back/STIM_012.jpg
820.975	0.947	1	2back	Block2	2back/STIM_012.jpg
824.864	0.801	1	2back	Block2	2back/STIM_012.jpg
829.54	1.22	1	2back	Block2	2back/STIM_013.jpg
833.877	0.738	1	2back	Block2	2back/STIM_013.jpg
837.162	0.494	1	2back	Block2	2back/STIM_013.jpg
840.256	0.921	1	2back	Block2	2back/STIM_014.jpg
844.014	0.811	1	2back	Block2	2back/STIM_014.jpg
847.299	1.079	1	2back	Block2	2back/STIM_014.jpg
851.334	1.049	1	2back	Block2	2back/STIM_015.jpg
854.747	0.978	1	2back	Block2	2back/STIM_015.jpg
858.267	0.497	1	2back	Block2	2back/STIM_015.jpg
860.977	0.712	1	2back	Block2	2back/STIM_016.jpg
865.664	0.768	1	2back	Block2	2back/STIM_016.jpg
869.706	0.635	1	2back	Block2	2back/STIM_016.jpg
872.957	1.028	1	2back	Block2	2back/STIM_017.jpg
877.829	0.514	1	2back	Block2	2back/STIM_017.jpg
881.089	0.616	1	2back	Block2	2back/STIM_017.jpg
884.156	1.119	1	2back	Block2	2back/STIM_018.jpg
888.267	1.011	1	2back	Block2	2back/STIM_018.jpg
891.486	0.999	1	2back	Block2	2back/STIM_018.jpg
895.224	0.848	0	2back	Block2	2back/STIM_019.jpg
900.037	0.567	1	2back	Block2	2back/STIM_019.jpg
903.851	0.647	1	2back	Block2	2back/STIM_019.jpg
907.724	1.091	1	2back	Block2	2back/STIM_020.jpg
912.799	0.635	1	2back	Block2	2back/STIM_020.jpg
917.336	0.797	1	2back	Block2	2back/STIM_020.jpg
921.068	1.014	1	2back	Block2	2back/STIM_021.jpg
926.054	0.656	1	2back	Block2	2back/STIM_021.jpg
929.252	0.725	1	2back	Block2	2back/STIM_021.jpg
933.258	0.55	0	2back	Block2	2back/STIM_022.jpg
935.951	1.065	1	2back	Block2	2back/STIM_022.jpg
939.821	0.538	1	2back	Block2	2back/STIM_022.jpg
944.145	0.774	1	2back	Block2	2back/STIM_023.jpg
947.844	0.99	1	2back	Block2	2back/STIM_023.jpg
951.574	0.768	1	2back	Block2	2back/STIM_023.jpg
955.149	0.558	1	2back	Block2	2back/STIM_024.jpg
958.944	0.817	1	2back	Block2	2back/STIM_024.jpg
963.48	0.99	1	2back	Block2	2back/STIM_024.jpg
966.764	1.175	1	2back	Block2	2back/STIM_025.jpg
970.931	1.053	1	2back	Block2	2back/STIM_025.jpg
974.427	0.612	1	2back	Block2	2back/STIM_025.jpg
977.659	1.181	1	2back	Block2	2back/STIM_026.jpg
982.255	0.733	1	2back	Block2	2back/STIM_026.jpg
985.07	0.899	1	2back	Block2	2back/STIM_026.jpg
988.158	0.908	1	2back	Block2	2back/STIM_027.jpg
992.681	1.166	1	2back	Block2	2back/STIM_027.jpg
996.239	0.882	1	2back	Block2	2back/STIM_027.jpg
999.243	1.112	1	2back	Block2	2back/STIM_028.jpg
1002.455	0.909	1	2back	Block2	2back/STIM_028.jpg
1005.902	0.726	1	2back	Block2	2back/STIM_028.jpg
1009.035	1.06	1	2back	Block2	2back/STIM_029.jpg
1013.91	0.538	1	2back	Block2	2back/STIM_029.jpg
1018.077	0.962	0	2back	Block2	2back/STIM_029.jpg
1021.997	0.913	1	2back	Block2	2back/STIM_030.jpg
1025.581	0.872	1	2back	Block2	2back/STIM_030.jpg
1030.435	0.88	1	2back	Block2	2back/STIM_030.jpg
1034.688	0.879	1	2back	Block2	2back/STIM_031.jpg
1038.969	1.095	1	2back	Block2	2back/STIM_031.jpg
1042.915	0.813	1	2back	Block2	2back/STIM_031.jpg
1046.049	0.818	1	2back	Block2	2back/STIM_032.jpg
1049.649	0.55	1	2back	Block2	2back/STIM_032.jpg
1053.455	0.756	1	2back	Block2	2back/STIM_032.jpg
1057.369	1.241	1	2back	Block2	2back/STIM_033.jpg
1061.119	0.689	1	2back	Block2	2back/STIM_033.jpg
1065.58	0.483	1	2back	Block2	2back/STIM_033.jpg
1068.533	0.829	1	2back	Block2	2back/STIM_034.jpg
1073.23	1.062	1	2back	Block2	2back/STIM_034.jpg
1077.486	0.619	1	2back	Block2	2back/STIM_034.jpg
1081.938	0.852	1	2back	Block2	2back/STIM_035.jpg
1085.037	0.917	1	2back	Block2	2back/STIM_035.jpg
1089.89	0.932	1	2back	Block2	2back/STIM_035.jpg
1092.95	1.207	1	2back	Block2	2back/STIM_036.jpg
1096.181	0.939	1	2back	Block2	2back/STIM_036.jpg
1099.805	0.478	1	2back	Block2	2back/STIM_036.jpg
1103.655	0.725	1	2back	Block2	2back/STIM_037.jpg
1106.728	0.984	1	2back	Block2	2back/STIM_037.jpg
1111.361	0.67	1	2back	Block2	2back/STIM_037.jpg
1115.47	1.086	1	2back	Block2	2back/STIM_038.jpg
1118.92	0.702	1	2back	Block2	2back/STIM_038.jpg
1123.312	1.034	1	2back	Block2	2back/STIM_038.jpg
1127.398	0.779	1	2back	Block2	2back/STIM_039.jpg
1131.257	0.878	1	2back	Block2	2back/STIM_039.jpg
1135.188	0.837	1	2back	Block2	2back/STIM_039.jpg
1138.293	0.537	1	0back	Block2	0back/STIM_000.jpg
1141.039	0.559	1	0back	Block2	0back/STIM_000.jpg
1144.237	0.692	1	0back	Block2	0back/STIM_000.jpg
1147.999	0.695	1	0back	Block2	0back/STIM_001.jpg
1150.928	0.694	1	0back	Block2	0back/STIM_001.jpg
1154.349	0.466	1	0back	Block2	0back/STIM_001.jpg
1157.853	0.427	1	0back	Block2	0back/STIM_002.jpg
1160.927	0.783	1	0back	Block2	0back/STIM_002.jpg
1165.092	0.491	1	0back	Block2	0back/STIM_002.jpg
1167.732	0.499	1	0back	Block2	0back/STIM_003.jpg
1172.029	0.691	0	0back	Block2	0back/STIM_003.jpg
1175.138	0.439	1	0back	Block2	0back/STIM_003.jpg
1179.08	0.761	1	0back	Block2	0back/STIM_004.jpg
1182.253	0.668	1	0back	Block2	0back/STIM_004.jpg
1186.08	0.578	1	0back	Block2	0back/STIM_004.jpg
1188.805	0.564	1	0back	Block2	0back/STIM_005.jpg
1191.643	0.614	1	0back	Block2	0back/STIM_005.jpg
1195.133	0.689	1	0back	Block2	0back/STIM_005.jpg
1199.62	0.706	1	0back	Block2	0back/STIM_006.jpg
1203.653	0.81	1	0back	Block2	0back/STIM_006.jpg
1208.021	0.561	0	0back	Block2	0back/STIM_006.jpg
1211.199	0.584	1	0back	Block2	0back/STIM_007.jpg
1215.224	0.712	1	0back	Block2	0back/STIM_007.jpg
1218.038	0.535	1	0back	Block2	0back/STIM_007.jpg
1221.26	0.641	1	0back	Block2	0back/STIM_008.jpg
1225.215	0.719	1	0back	Block2	0back/STIM_008.jpg
1229.795	0.48	1	0back	Block2	0back/STIM_008.jpg
1233.951	0.758	1	0back	Block2	0back/STIM_009.jpg
1237.38	0.804	1	0back	Block2	0back/STIM_009.jpg
1240.575	0.753	1	0back	Block2	0back/STIM_009.jpg
1244.891	0.594	1	0back	Block2	0back/STIM_010.jpg
1247.659	0.492	1	0back	Block2	0back/STIM_010.jpg
1251.834	0.585	1	0back	Block2	0back/STIM_010.jpg
1255.592	0.692	1	0back	Block2	0back/STIM_011.jpg
1258.46	0.664	1	0back	Block2	0back/STIM_011.jpg
1261.8	0.614	1	0back	Block2	0back/STIM_011.jpg
1264.636	0.685	1	0back	Block2	0back/STIM_012.jpg
1268.042	0.572	1	0back	Block2	0back/STIM_012.jpg
1271.04	0.615	1	0back	Block2	0back/STIM_012.jpg
1275.343	0.542	1	0back	Block2	0back/STIM_013.jpg
1279.497	0.5	1	0back	Block2	0back/STIM_013.jpg
1282.499	0.682	1	0back	Block2	0back/STIM_013.jpg
1285.819	0.661	1	0back	Block2	0back/STIM_014.jpg
1289.026	0.728	1	0back	Block2	0back/STIM_014.jpg
1291.775	0.542	1	0back	Block2	0back/STIM_014.jpg
1296.185	0.828	1	0back	Block2	0back/STIM_015.jpg
1299.81	0.676	1	0back	Block2	0back/STIM_015.jpg
1302.678	0.826	1	0back	Block2	0back/STIM_015.jpg
1306.317	0.5	1	0back	Block2	0back/STIM_016.jpg
1309.024	0.678	1	0back	Block2	0back/STIM_016.jpg
1313.48	0.626	1	0back	Block2	0back/STIM_016.jpg
1316.38	0.438	1	0back	Block2	0back/STIM_017.jpg
1320.007	0.638	1	0back	Block2	0back/STIM_017.jpg
1324.255	0.723	1	0back	Block2	0back/STIM_017.jpg
1327.014	0.678	1	0back	Block2	0back/STIM_018.jpg
1330.86	0.748	1	0back	Block2	0back/STIM_018.jpg
1333.913	0.769	1	0back	Block2	0back/STIM_018.jpg
1338.221	0.563	1	0back	Block2	0back/STIM_019.jpg
1341.759	0.645	1	0back	Block2	0back/STIM_019.jpg
1345.677	0.498	1	0back	Block2	0back/STIM_019.jpg
1348.763	0.613	1	2back	Block3	2back/STIM_000.jpg
1351.925	0.557	1	2back	Block3	2back/STIM_000.jpg
1355.64	0.662	1	2back	Block3	2back/STIM_000.jpg
1360.134	0.907	1	2back	Block3	2back/STIM_001.jpg
1364.243	0.856	1	2back	Block3	2back/STIM_001.jpg
1367.559	0.649	1	2back	Block3	2back/STIM_001.jpg
1371.875	0.606	1	2back	Block3	2back/STIM_002.jpg
1375.796	0.727	1	2back	Block3	2back/STIM_002.jpg
1380.472	0.586	1	2back	Block3	2back/STIM_002.jpg
1384.08	0.59	1	2back	Block3	2back/STIM_003.jpg
1387.427	0.521	1	2back	Block3	2back/STIM_003.jpg
1391.935	0.486	1	2back	Block3	2back/STIM_003.jpg
1396.222	0.692	1	2back	Block3	2back/STIM_004.jpg
1399.479	0.626	1	2back	Block3	2back/STIM_004.jpg
1402.394	0.904	1	2back	Block3	2back/STIM_004.jpg
1405.653	0.922	1	2back	Block3	2back/STIM_005.jpg
1409.693	0.996	1	2back	Block3	2back/STIM_005.jpg
1414.488	0.721	1	2back	Block3	2back/STIM_005.jpg
1417.221	0.446	1	2back	Block3	2back/STIM_006.jpg
1419.732	0.482	1	2back	Block3	2back/STIM_006.jpg
1423.839	0.986	1	2back	Block3	2back/STIM_006.jpg
1428.377	0.626	1	2back	Block3	2back/STIM_007.jpg
1432.485	0.579	1	2back	Block3	2back/STIM_007.jpg
1436.734	0.913	1	2back	Block3	2back/STIM_007.jpg
1440.227	0.688	1	2back	Block3	2back/STIM_008.jpg
1444.439	0.922	1	2back	Block3	2back/STIM_008.jpg
1447.706	1.01	1	2back	Block3	2back/STIM_008.jpg
1452.36	0.653	1	2back	Block3	2back/STIM_009.jpg
1455.87	0.893	1	2back	Block3	2back/STIM_009.jpg
1459.627	0.8	1	2back	Block3	2back/STIM_009.jpg
1464.354	0.68	1	2back	Block3	2back/STIM_010.jpg
1468.583	1.019	1	2back	Block3	2back/STIM_010.jpg
1471.955	0.696	1	2back	Block3	2back/STIM_010.jpg
1475.075	0.609	1	2back	Block3	2back/STIM_011.jpg
1479.343	0.64	1	2back	Block3	2back/STIM_011.jpg
1483.004	0.597	0	2back	Block3	2back/STIM_011.jpg
1486.279	1.0	1	2back	Block3	2back/STIM_012.jpg
1489.627	0.595	1	2back	Block3	2back/STIM_012.jpg
1493.835	0.556	0	2back	Block3	2back/STIM_012.jpg
1496.54	0.457	1	2back	Block3	2back/STIM_013.jpg
1500.645	0.559	1	2back	Block3	2back/STIM_013.jpg
1504.093	0.808	1	2back	Block3	2back/STIM_013.jpg
1508.043	0.728	1	2back	Block3	2back/STIM_014.jpg
1510.794	0.623	1	2back	Block3	2back/STIM_014.jpg
1514.395	0.823	1	2back	Block3	2back/STIM_014.jpg
1517.707	0.484	1	2back	Block3	2back/STIM_015.jpg
1520.493	0.581	1	2back	Block3	2back/STIM_015.jpg
1524.008	0.584	1	2back	Block3	2back/STIM_015.jpg
1527.95	0.781	1	2back	Block3	2back/STIM_016.jpg
1531.275	0.7	1	2back	Block3	2back/STIM_016.jpg
1535.191	0.611	1	2back	Block3	2back/STIM_016.jpg
1538.73	0.452	0	2back	Block3	2back/STIM_017.jpg
1543.135	0.914	1	2back	Block3	2back/STIM_017.jpg
1546.886	0.854	1	2back	Block3	2back/STIM_017.jpg
1551.572	0.98	1	2back	Block3	2back/STIM_018.jpg
1556.46	0.859	1	2back	Block3	2back/STIM_018.jpg
1561.293	0.668	1	2back	Block3	2back/STIM_018.jpg
1564.145	0.811	1	2back	Block3	2back/STIM_019.jpg
1567.557	0.598	1	2back	Block3	2back/STIM_019.jpg
1571.258	0.78	1	2back	Block3	2back/STIM_019.jpg
1574.224	0.579	1	2back	Block3	2back/STIM_020.jpg
1577.592	0.825	1	2back	Block3	2back/STIM_020.jpg
1581.89	0.881	1	2back	Block3	2back/STIM_020.jpg
1586.215	0.825	1	2back	Block3	2back/STIM_021.jpg
1590.753	0.555	1	2back	Block3	2back/STIM_021.jpg
1593.746	0.962	1	2back	Block3	2back/STIM_021.jpg
1596.748	0.859	1	2back	Block3	2back/STIM_022.jpg
1601.182	0.692	1	2back	Block3	2back/STIM_022.jpg
1604.343	0.88	1	2back	Block3	2back/STIM_022.jpg
1608.288	0.442	1	2back	Block3	2back/STIM_023.jpg
1611.721	1.016	1	2back	Block3	2back/STIM_023.jpg
1614.795	0.665	1	2back	Block3	2back/STIM_023.jpg
1617.632	0.913	1	2back	Block3	2back/STIM_024.jpg
1622.28	0.655	1	2back	Block3	2back/STIM_024.jpg
1625.673	0.609	1	2back	Block3	2back/STIM_024.jpg
1630.159	0.979	1	2back	Block3	2back/STIM_025.jpg
1634.544	0.936	1	2back	Block3	2back/STIM_025.jpg
1639.19	0.655	1	2back	Block3	2back/STIM_025.jpg
1643.176	0.68	1	2back	Block3	2back/STIM_026.jpg
1646.533	0.876	1	2back	Block3	2back/STIM_026.jpg
1650.564	0.95	1	2back	Block3	2back/STIM_026.jpg
1654.559	0.891	1	2back	Block3	2back/STIM_027.jpg
1658.215	0.616	1	2back	Block3	2back/STIM_027.jpg
1661.65	0.992	1	2back	Block3	2back/STIM_027.jpg
1665.283	0.962	1	2back	Block3	2back/STIM_028.jpg
1669.627	0.881	0	2back	Block3	2back/STIM_028.jpg
1673.205	0.457	1	2back	Block3	2back/STIM_028.jpg
1676.646	0.602	1	2back	Block3	2back/STIM_029.jpg
1679.72	0.544	1	2back	Block3	2back/STIM_029.jpg
1682.806	0.566	1	2back	Block3	2back/STIM_029.jpg
1687.067	0.475	1	2back	Block3	2back/STIM_030.jpg
1689.622	0.445	1	2back	Block3	2back/STIM_030.jpg
1692.53	0.475	1	2back	Block3	2back/STIM_030.jpg
1696.21	0.448	1	2back	Block3	2back/STIM_031.jpg
1698.661	0.533	1	2back	Block3	2back/STIM_031.jpg
1701.802	0.953	1	2back	Block3	2back/STIM_031.jpg
1705.213	0.764	1	2back	Block3	2back/STIM_032.jpg
1708.226	0.547	1	2back	Block3	2back/STIM_032.jpg
1711.839	0.566	1	2back	Block3	2back/STIM_032.jpg
1715.408	0.512	1	2back	Block3	2back/STIM_033.jpg
1718.507	0.536	1	2back	Block3	2back/STIM_033.jpg
1721.933	0.927	1	2back	Block3	2back/STIM_033.jpg
1725.823	0.762	1	2back	Block3	2back/STIM_034.jpg
1730.067	0.773	1	2back	Block3	2back/STIM_034.jpg
1733.024	0.948	1	2back	Block3	2back/STIM_034.jpg
1737.482	0.68	1	2back	Block3	2back/STIM_035.jpg
1741.179	0.589	0	2back	Block3	2back/STIM_035.jpg
1744.331	0.793	1	2back	Block3	2back/STIM_035.jpg
1747.779	0.462	1	2back	Block3	2back/STIM_036.jpg
1751.63	0.524	1	2back	Block3	2back/STIM_036.jpg
1755.698	0.746	1	2back	Block3	2back/STIM_036.jpg
1759.2	0.565	1	2back	Block3	2back/STIM_037.jpg
1762.549	0.556	1	2back	Block3	2back/STIM_037.jpg
1766.661	0.808	1	2back	Block3	2back/STIM_037.jpg
1771.127	0.553	1	2back	Block3	2back/STIM_038.jpg
1775.57	0.563	1	2back	Block3	2back/STIM_038.jpg
1779.632	0.617	1	2back	Block3	2back/STIM_038.jpg
1783.771	0.515	1	2back	Block3	2back/STIM_039.jpg
1786.841	0.791	1	2back	Block3	2back/STIM_039.jpg
1791.477	0.486	1	2back	Block3	2back/STIM_039.jpg
1794.981	0.658	1	0back	Block3	0back/STIM_000.jpg
1798.606	0.83	1	0back	Block3	0back/STIM_000.jpg
1802.829	0.586	1	0back	Block3	0back/STIM_000.jpg
1805.686	0.802	1	0back	Block3	0back/STIM_001.jpg
1809.379	0.43	1	0back	Block3	0back/STIM_001.jpg
1812.871	0.642	1	0back	Block3	0back/STIM_001.jpg
1816.033	0.481	1	0back	Block3	0back/STIM_002.jpg
1819.479	0.52	1	0back	Block3	0back/STIM_002.jpg
1823.37	0.688	1	0back	Block3	0back/STIM_002.jpg
1826.797	0.763	1	0back	Block3	0back/STIM_003.jpg
1831.502	0.751	1	0back	Block3	0back/STIM_003.jpg
1835.113	0.582	1	0back	Block3	0back/STIM_003.jpg
1837.848	0.524	1	0back	Block3	0back/STIM_004.jpg
1842.065	0.423	1	0back	Block3	0back/STIM_004.jpg
1846.242	0.803	1	0back	Block3	0back/STIM_004.jpg
1849.726	0.766	0	0back	Block3	0back/STIM_005.jpg
1852.876	0.426	1	0back	Block3	0back/STIM_005.jpg
1857.271	0.452	1	0back	Block3	0back/STIM_005.jpg
1860.012	0.563	1	0back	Block3	0back/STIM_006.jpg
1864.266	0.682	1	0back	Block3	0back/STIM_006.jpg
1868.284	0.496	1	0back	Block3	0back/STIM_006.jpg
1872.336	0.722	1	0back	Block3	0back/STIM_007.jpg
1875.538	0.633	1	0back	Block3	0back/STIM_007.jpg
1878.34	0.453	1	0back	Block3	0back/STIM_007.jpg
1882.769	0.426	1	0back	Block3	0back/STIM_008.jpg
1887.023	0.638	1	0back	Block3	0back/STIM_008.jpg
1890.435	0.72	1	0back	Block3	0back/STIM_008.jpg
1893.877	0.646	1	0back	Block3	0back/STIM_009.jpg
1898.273	0.6	1	0back	Block3	0back/STIM_009.jpg
1902.544	0.58	1	0back	Block3	0back/STIM_009.jpg
1905.239	0.729	1	0back	Block3	0back/STIM_010.jpg
1908.556	0.828	1	0back	Block3	0back/STIM_010.jpg
1912.718	0.554	1	0back	Block3	0back/STIM_010.jpg
1917.183	0.531	1	0back	Block3	0back/STIM_011.jpg
1919.82	0.615	1	0back	Block3	0back/STIM_011.jpg
1924.384	0.64	1	0back	Block3	0back/STIM_011.jpg
1927.231	0.705	1	0back	Block3	0back/STIM_012.jpg
1931.891	0.554	1	0back	Block3	0back/STIM_012.jpg
1935.226	0.534	1	0back	Block3	0back/STIM_012.jpg
1937.948	0.535	1	0back	Block3	0back/STIM_013.jpg
1942.325	0.789	1	0back	Block3	0back/STIM_013.jpg
1946.807	0.476	1	0back	Block3	0back/STIM_013.jpg
1950.728	0.783	1	0back	Block3	0back/STIM_014.jpg
1955.021	0.626	1	0back	Block3	0back/STIM_014.jpg
1958.574	0.815	1	0back	Block3	0back/STIM_014.jpg
1962.717	0.628	1	0back	Block3	0back/STIM_015.jpg
1967.275	0.478	1	0back	Block3	0back/STIM_015.jpg
1970.681	0.61	1	0back	Block3	0back/STIM_015.jpg
1973.293	0.782	1	0back	Block3	0back/STIM_016.jpg
1977.227	0.428	1	0back	Block3	0back/STIM_016.jpg
1979.94	0.47	1	0back	Block3	0back/STIM_016.jpg
1983.745	0.598	1	0back	Block3	0back/STIM_017.jpg
1987.532	0.476	1	0back	Block3	0back/STIM_017.jpg
1990.559	0.757	1	0back	Block3	0back/STIM_017.jpg
1994.846	0.646	1	0back	Block3	0back/STIM_018.jpg
1997.592	0.528	1	0back	Block3	0back/STIM_018.jpg
2000.218	0.616	1	0back	Block3	0back/STIM_018.jpg
2003.616	0.672	1	0back	Block3	0back/STIM_019.jpg
2006.897	0.75	0	0back	Block3	0back/STIM_019.jpg
2009.826	0.735	1	0back	Block3	0back/STIM_019.jpg
2013.264	0.547	1	2back	Block4	2back/STIM_000.jpg
2016.771	0.492	1	2back	Block4	2back/STIM_000.jpg
2019.638	0.454	1	2back	Block4	2back/STIM_000.jpg
2022.909	0.517	1	2back	Block4	2back/STIM_001.jpg
2025.91	0.512	1	2back	Block4	2back/STIM_001.jpg
2030.113	0.947	1	2back	Block4	2back/STIM_001.jpg
2034.306	0.866	1	2back	Block4	2back/STIM_002.jpg
2037.705	0.701	1	2back	Block4	2back/STIM_002.jpg
2041.301	0.839	1	2back	Block4	2back/STIM_002.jpg
2045.369	1.005	1	2back	Block4	2back/STIM_003.jpg
2049.411	0.818	1	2back	Block4	2back/STIM_003.jpg
2052.642	0.776	1	2back	Block4	2back/STIM_003.jpg
2055.993	0.709	1	2back	Block4	2back/STIM_004.jpg
2059.069	0.533	1	2back	Block4	2back/STIM_004.jpg
2062.134	0.986	1	2back	Block4	2back/STIM_004.jpg
2065.384	0.579	1	2back	Block4	2back/STIM_005.jpg
2068.185	0.772	1	2back	Block4	2back/STIM_005.jpg
2071.465	0.739	1	2back	Block4	2back/STIM_005.jpg
2075.872	0.599	1	2back	Block4	2back/STIM_006.jpg
2078.478	0.851	1	2back	Block4	2back/STIM_006.jpg
2082.35	0.601	1	2back	Block4	2back/STIM_006.jpg
2086.558	0.915	1	2back	Block4	2back/STIM_007.jpg
2090.495	0.848	1	2back	Block4	2back/STIM_007.jpg
2093.6	0.624	1	2back	Block4	2back/STIM_007.jpg
2096.802	0.777	1	2back	Block4	2back/STIM_008.jpg
2100.642	0.725	1	2back	Block4	2back/STIM_008.jpg
2105.2	0.548	1	2back	Block4	2back/STIM_008.jpg
2109.336	0.562	1	2back	Block4	2back/STIM_009.jpg
2112.632	0.636	1	2back	Block4	2back/STIM_009.jpg
2115.932	0.86	1	2back	Block4	2back/STIM_009.jpg
2119.084	0.943	1	2back	Block4	2back/STIM_010.jpg
2122.988	0.928	0	2back	Block4	2back/STIM_010.jpg
2126.896	0.788	1	2back	Block4	2back/STIM_010.jpg
2130.432	0.465	1	2back	Block4	2back/STIM_011.jpg
2133.827	0.925	1	2back	Block4	2back/STIM_011.jpg
2137.4	0.456	1	2back	Block4	2back/STIM_011.jpg
2141.535	0.478	1	2back	Block4	2back/STIM_012.jpg
2144.582	0.469	1	2back	Block4	2back/STIM_012.jpg
2148.899	0.509	1	2back	Block4	2back/STIM_012.jpg
2152.617	0.704	1	2back	Block4	2back/STIM_013.jpg
2157.254	0.813	1	2back	Block4	2back/STIM_013.jpg
2161.545	0.558	1	2back	Block4	2back/STIM_013.jpg
2166.093	1.01	1	2back	Block4	2back/STIM_014.jpg
2170.732	0.863	1	2back	Block4	2back/STIM_014.jpg
2174.718	0.647	0	2back	Block4	2back/STIM_014.jpg
2177.763	1.02	1	2back	Block4	2back/STIM_015.jpg
2181.253	1.018	1	2back	Block4	2back/STIM_015.jpg
2185.324	0.912	1	2back	Block4	2back/STIM_015.jpg
2189.349	0.841	1	2back	Block4	2back/STIM_016.jpg
2192.545	0.997	1	2back	Block4	2back/STIM_016.jpg
2196.297	0.626	1	2back	Block4	2back/STIM_016.jpg
2200.425	0.739	1	2back	Block4	2back/STIM_017.jpg
2204.879	0.494	1	2back	Block4	2back/STIM_017.jpg
2208.91	0.809	1	2back	Block4	2back/STIM_017.jpg
2213.393	0.514	1	2back	Block4	2back/STIM_018.jpg
2216.885	0.742	1	2back	Block4	2back/STIM_018.jpg
2220.509	0.776	0	2back	Block4	2back/STIM_018.jpg
2223.922	0.802	1	2back	Block4	2back/STIM_019.jpg
2227.51	0.702	1	2back	Block4	2back/STIM_019.jpg
2232.034	0.88	1	2back	Block4	2back/STIM_019.jpg
2235.747	0.986	1	2back	Block4	2back/STIM_020.jpg
2239.484	0.49	1	2back	Block4	2back/STIM_020.jpg
2242.027	0.807	1	2back	Block4	2back/STIM_020.jpg
2245.27	0.875	1	2back	Block4	2back/STIM_021.jpg
2248.38	0.49	1	2back	Block4	2back/STIM_021.jpg
2251.948	0.506	1	2back	Block4	2back/STIM_021.jpg
2256.116	0.799	1	2back	Block4	2back/STIM_022.jpg
2260.005	0.976	1	2back	Block4	2back/STIM_022.jpg
2264.278	0.443	1	2back	Block4	2back/STIM_022.jpg
2267.709	0.786	1	2back	Block4	2back/STIM_023.jpg
2272.483	0.906	1	2back	Block4	2back/STIM_023.jpg
2276.482	0.66	1	2back	Block4	2back/STIM_023.jpg
2279.596	0.767	1	2back	Block4	2back/STIM_024.jpg
2283.267	0.944	1	2back	Block4	2back/STIM_024.jpg
2286.581	0.596	1	2back	Block4	2back/STIM_024.jpg
2291.109	0.927	1	2back	Block4	2back/STIM_025.jpg
2295.36	0.806	1	2back	Block4	2back/STIM_025.jpg
2299.41	0.61	1	2back	Block4	2back/STIM_025.jpg
2303.444	0.869	1	2back	Block4	2back/STIM_026.jpg
2307.161	0.974	1	2back	Block4	2back/STIM_026.jpg
2312.003	0.957	1	2back	Block4	2back/STIM_026.jpg
2315.821	1.003	1	2back	Block4	2back/STIM_027.jpg
2319.569	0.566	1	2back	Block4	2back/STIM_027.jpg
2322.867	0.816	1	2back	Block4	2back/STIM_027.jpg
2325.694	0.707	1	2back	Block4	2back/STIM_028.jpg
2329.893	0.914	1	2back	Block4	2back/STIM_028.jpg
2333.539	0.937	1	2back	Block4	2back/STIM_028.jpg
2337.943	0.958	1	2back	Block4	2back/STIM_029.jpg
2341.762	0.934	1	2back	Block4	2back/STIM_029.jpg
2346.325	0.801	1	2back	Block4	2back/STIM_029.jpg
2349.6	0.913	1	2back	Block4	2back/STIM_030.jpg
2353.319	0.88	1	2back	Block4	2back/STIM_030.jpg
2357.1	0.982	1	2back	Block4	2back/STIM_030.jpg
2360.984	0.851	1	2back	Block4	2back/STIM_031.jpg
2364.612	0.862	1	2back	Block4	2back/STIM_031.jpg
2368.554	1.003	1	2back	Block4	2back/STIM_031.jpg
2372.57	0.806	1	2back	Block4	2back/STIM_032.jpg
2376.832	0.747	1	2back	Block4	2back/STIM_032.jpg
2380.6	0.76	1	2back	Block4	2back/STIM_032.jpg
2385.15	0.995	1	2back	Block4	2back/STIM_033.jpg
2389.721	0.722	1	2back	Block4	2back/STIM_033.jpg
2394.316	0.619	0	2back	Block4	2back/STIM_033.jpg
2397.279	0.659	1	2back	Block4	2back/STIM_034.jpg
2399.986	0.731	1	2back	Block4	2back/STIM_034.jpg
2404.368	0.442	1	2back	Block4	2back/STIM_034.jpg
2408.24	0.589	1	2back	Block4	2back/STIM_035.jpg
2411.127	0.541	1	2back	Block4	2back/STIM_035.jpg
2415.653	1.021	1	2back	Block4	2back/STIM_035.jpg
2419.133	0.516	1	2back	Block4	2back/STIM_036.jpg
2423.417	0.763	1	2back	Block4	2back/STIM_036.jpg
2426.819	0.52	0	2back	Block4	2back/STIM_036.jpg
2429.729	0.735	1	2back	Block4	2back/STIM_037.jpg
2433.148	0.683	1	2back	Block4	2back/STIM_037.jpg
2436.286	0.906	1	2back	Block4	2back/STIM_037.jpg
2440.015	0.668	1	2back	Block4	2back/STIM_038.jpg
2443.938	0.566	1	2back	Block4	2back/STIM_038.jpg
2446.512	0.911	1	2back	Block4	2back/STIM_038.jpg
2449.795	0.544	1	2back	Block4	2back/STIM_039.jpg
2452.658	0.835	1	2back	Block4	2back/STIM_039.jpg
2457.363	0.956	1	2back	Block4	2back/STIM_039.jpg
2461.694	0.568	1	0back	Block4	0back/STIM_000.jpg
2464.909	0.508	1	0back	Block4	0back/STIM_000.jpg
2468.755	0.74	1	0back	Block4	0back/STIM_000.jpg
2473.268	0.615	1	0back	Block4	0back/STIM_001.jpg
2477.851	0.549	1	0back	Block4	0back/STIM_001.jpg
2481.051	0.817	1	0back	Block4	0back/STIM_001.jpg
2485.809	0.693	1	0back	Block4	0back/STIM_002.jpg
2489.171	0.579	1	0back	Block4	0back/STIM_002.jpg
2492.445	0.607	1	0back	Block4	0back/STIM_002.jpg
2496.934	0.757	1	0back	Block4	0back/STIM_003.jpg
2500.708	0.753	1	0back	Block4	0back/STIM_003.jpg
2504.783	0.454	1	0back	Block4	0back/STIM_003.jpg
2507.965	0.44	1	0back	Block4	0back/STIM_004.jpg
2511.339	0.462	1	0back	Block4	0back/STIM_004.jpg
2515.455	0.568	1	0back	Block4	0back/STIM_004.jpg
2519.831	0.563	1	0back	Block4	0back/STIM_005.jpg
2523.8	0.733	1	0back	Block4	0back/STIM_005.jpg
2527.926	0.464	1	0back	Block4	0back/STIM_005.jpg
2531.858	0.454	1	0back	Block4	0back/STIM_006.jpg
2536.211	0.724	1	0back	Block4	0back/STIM_006.jpg
2539.063	0.629	1	0back	Block4	0back/STIM_006.jpg
2541.799	0.455	1	0back	Block4	0back/STIM_007.jpg
2546.172	0.692	1	0back	Block4	0back/STIM_007.jpg
2549.018	0.573	1	0back	Block4	0back/STIM_007.jpg
2552.935	0.81	1	0back	Block4	0back/STIM_008.jpg
2557.187	0.722	1	0back	Block4	0back/STIM_008.jpg
2561.369	0.74	1	0back	Block4	0back/STIM_008.jpg
2565.434	0.626	1	0back	Block4	0back/STIM_009.jpg
2569.485	0.5	1	0back	Block4	0back/STIM_009.jpg
2572.645	0.633	1	0back	Block4	0back/STIM_009.jpg
2577.039	0.49	1	0back	Block4	0back/STIM_010.jpg
2581.329	0.57	1	0back	Block4	0back/STIM_010.jpg
2585.496	0.593	1	0back	Block4	0back/STIM_010.jpg
2589.589	0.818	1	0back	Block4	0back/STIM_011.jpg
2593.932	0.726	1	0back	Block4	0back/STIM_011.jpg
2596.925	0.743	1	0back	Block4	0back/STIM_011.jpg
2600.557	0.492	1	0back	Block4	0back/STIM_012.jpg
2603.313	0.479	1	0back	Block4	0back/STIM_012.jpg
2607.413	0.703	1	0back	Block4	0back/STIM_012.jpg
2612.035	0.59	1	0back	Block4	0back/STIM_013.jpg
2616.542	0.48	1	0back	Block4	0back/STIM_013.jpg
2620.648	0.577	1	0back	Block4	0back/STIM_013.jpg
2623.809	0.63	1	0back	Block4	0back/STIM_014.jpg
2627.815	0.815	1	0back	Block4	0back/STIM_014.jpg
2630.673	0.711	1	0back	Block4	0back/STIM_014.jpg
2633.951	0.597	1	0back	Block4	0back/STIM_015.jpg
2636.659	0.48	1	0back	Block4	0back/STIM_015.jpg
2639.182	0.637	1	0back	Block4	0back/STIM_015.jpg
2642.271	0.5	1	0back	Block4	0back/STIM_016.jpg
2644.822	0.613	1	0back	Block4	0back/STIM_016.jpg
2648.305	0.512	1	0back	Block4	0back/STIM_016.jpg
2652.37	0.663	1	0back	Block4	0back/STIM_017.jpg
2655.599	0.596	1	0back	Block4	0back/STIM_017.jpg
2659.526	0.558	1	0back	Block4	0back/STIM_017.jpg
2663.151	0.725	1	0back	Block4	0back/STIM_018.jpg
2666.951	0.532	1	0back	Block4	0back/STIM_018.jpg
2671.002	0.516	1	0back	Block4	0back/STIM_018.jpg
2673.784	0.585	1	0back	Block4	0back/STIM_019.jpg
2676.519	0.466	1	0back	Block4	0back/STIM_019.jpg
2680.434	0.526	1	0back	Block4	0back/STIM_019.jpg
