onset	duration	response_time_ms	trial_type	learning_stage	stimulus	response_port
0.0	1.211	1211.4	2back	Block1	2back/STIM_000.jpg	99
3.225	1.26	1259.9	2back	Block1	2back/STIM_000.jpg	99
8.338	0.636	636.0	2back	Block1	2back/STIM_000.jpg	100
12.0	0.998	998.5	2back	Block1	2back/STIM_001.jpg	100
15.315	1.379	1378.8	2back	Block1	2back/STIM_001.jpg	99
20.397	1.309	1309.0	2back	Block1	2back/STIM_001.jpg	100
24.601	1.113	1112.9	2back	Block1	2back/STIM_002.jpg	100
28.947	1.21	1210.4	2back	Block1	2back/STIM_002.jpg	100
32.895	1.019	1019.1	2back	Block1	2back/STIM_002.jpg	99
36.714	1.48	1480.5	2back	Block1	2back/STIM_003.jpg	99
40.787	1.282	1282.1	2back	Block1	2back/STIM_003.jpg	99
45.577	0.821	821.1	2back	Block1	2back/STIM_003.jpg	99
50.221	1.181	1180.8	2back	Block1	2back/STIM_004.jpg	99
53.913	1.098	1097.6	2back	Block1	2back/STIM_004.jpg	100
57.102	1.372	1371.8	2back	Block1	2back/STIM_004.jpg	100
62.198	1.138	1138.2	2back	Block1	2back/STIM_005.jpg	100
65.578	1.242	1241.6	2back	Block1	2back/STIM_005.jpg	100
69.644	0.729	728.7	2back	Block1	2back/STIM_005.jpg	100
73.012	1.044	1043.6	2back	Block1	2back/STIM_006.jpg	100
76.838	1.262	1262.5	2back	Block1	2back/STIM_006.jpg	100
80.54	0.936	935.5	2back	Block1	2back/STIM_006.jpg	100
84.329	1.554	1554.2	2back	Block1	2back/STIM_007.jpg	100
89.12	1.406	1406.4	2back	Block1	2back/STIM_007.jpg	100
93.335	0.854	853.9	2back	Block1	2back/STIM_007.jpg	100
96.11	1.267	1267.0	2back	Block1	2back/STIM_008.jpg	100
101.17	1.213	1213.3	2back	Block1	2back/STIM_008.jpg	99
105.285	0.899	899.0	2back	Block1	2back/STIM_008.jpg	99
109.794	1.252	1251.6	2back	Block1	2back/STIM_009.jpg	100
113.134	1.221	1221.3	2back	Block1	2back/STIM_009.jpg	99
117.447	0.608	607.5	2back	Block1	2back/STIM_009.jpg	99
121.576	1.117	1116.6	2back	Block1	2back/STIM_010.jpg	99
125.728	1.388	1388.4	2back	Block1	2back/STIM_010.jpg	99
129.803	1.064	1063.5	2back	Block1	2back/STIM_010.jpg	100
133.736	1.378	1378.1	2back	Block1	2back/STIM_011.jpg	100
138.714	1.282	1281.7	2back	Block1	2back/STIM_011.jpg	99
143.666	1.203	1203.4	2back	Block1	2back/STIM_011.jpg	100
148.553	1.541	1540.8	2back	Block1	2back/STIM_012.jpg	99
153.471	0.946	945.8	2back	Block1	2back/STIM_012.jpg	100
156.586	1.114	1113.9	2back	Block1	2back/STIM_012.jpg	100
160.921	1.547	1547.1	2back	Block1	2back/STIM_013.jpg	100
165.807	1.064	1063.9	2back	Block1	2back/STIM_013.jpg	100
170.429	0.679	679.0	2back	Block1	2back/STIM_013.jpg	100
174.216	0.866	865.5	2back	Block1	2back/STIM_014.jpg	100
178.991	1.152	1152.2	2back	Block1	2back/STIM_014.jpg	99
183.019	0.822	821.7	2back	Block1	2back/STIM_014.jpg	99
187.053	1.4	1399.9	2back	Block1	2back/STIM_015.jpg	100
192.186	0.712	711.5	2back	Block1	2back/STIM_015.jpg	100
195.329	0.919	918.6	2back	Block1	2back/STIM_015.jpg	100
199.661	0.921	921.2	2back	Block1	2back/STIM_016.jpg	99
203.123	1.051	1051.3	2back	Block1	2back/STIM_016.jpg	99
206.242	0.622	622.3	2back	Block1	2back/STIM_016.jpg	100
210.065	1.337	1336.7	2back	Block1	2back/STIM_017.jpg	100
213.701	0.925	924.8	2back	Block1	2back/STIM_017.jpg	100
216.783	1.096	1096.3	2back	Block1	2back/STIM_017.jpg	99
221.098	0.773	773.1	2back	Block1	2back/STIM_018.jpg	100
225.34	0.852	852.0	2back	Block1	2back/STIM_018.jpg	100
229.864	0.964	964.1	2back	Block1	2back/STIM_018.jpg	99
234.694	1.554	1554.0	2back	Block1	2back/STIM_019.jpg	99
239.563	1.32	1320.5	2back	Block1	2back/STIM_019.jpg	99
244.612	0.61	609.6	2back	Block1	2back/STIM_019.jpg	99
247.914	1.19	1190.5	2back	Block1	2back/STIM_020.jpg	99
252.168	0.726	725.7	2back	Block1	2back/STIM_020.jpg	100
255.849	0.672	672.5	2back	Block1	2back/STIM_020.jpg	99
260.291	1.223	1223.1	2back	Block1	2back/STIM_021.jpg	100
265.348	0.938	938.3	2back	Block1	2back/STIM_021.jpg	100
268.515	1.111	1110.8	2back	Block1	2back/STIM_021.jpg	100
272.77	1.309	1309.1	2back	Block1	2back/STIM_022.jpg	99
276.639	0.684	684.4	2back	Block1	2back/STIM_022.jpg	100
280.55	1.279	1278.6	2back	Block1	2back/STIM_022.jpg	99
284.587	0.98	979.8	2back	Block1	2back/STIM_023.jpg	100
287.96	0.82	820.0	2back	Block1	2back/STIM_023.jpg	100
292.473	0.89	890.0	2back	Block1	2back/STIM_023.jpg	99
297.149	1.226	1226.4	2back	Block1	2back/STIM_024.jpg	99
300.637	1.046	1045.8	2back	Block1	2back/STIM_024.jpg	100
304.984	1.184	1183.7	2back	Block1	2back/STIM_024.jpg	99
308.172	0.984	984.3	2back	Block1	2back/STIM_025.jpg	99
311.095	0.903	902.8	2back	Block1	2back/STIM_025.jpg	99
315.334	1.327	1326.9	2back	Block1	2back/STIM_025.jpg	99
319.145	0.842	842.1	2back	Block1	2back/STIM_026.jpg	100
321.951	0.953	952.6	2back	Block1	2back/STIM_026.jpg	99
326.732	0.644	644.3	2back	Block1	2back/STIM_026.jpg	100
330.82	1.026	1026.1	2back	Block1	2back/STIM_027.jpg	100
334.504	0.8	799.9	2back	Block1	2back/STIM_027.jpg	99
338.741	0.708	707.8	2back	Block1	2back/STIM_027.jpg	99
342.57	1.11	1110.3	2back	Block1	2back/STIM_028.jpg	99
345.738	1.186	1186.1	2back	Block1	2back/STIM_028.jpg	99
349.701	0.692	692.5	2back	Block1	2back/STIM_028.jpg	100
352.772	1.119	1118.6	2back	Block1	2back/STIM_029.jpg	100
356.497	1.202	1201.6	2back	Block1	2back/STIM_029.jpg	99
360.05	0.711	711.3	2back	Block1	2back/STIM_029.jpg	100
363.309	1.185	1184.7	2back	Block1	2back/STIM_030.jpg	100
368.027	1.194	1193.9	2back	Block1	2back/STIM_030.jpg	100
372.094	0.918	917.6	2back	Block1	2back/STIM_030.jpg	99
376.064	0.738	737.7	2back	Block1	2back/STIM_031.jpg	99
380.669	1.06	1060.0	2back	Block1	2back/STIM_031.jpg	100
384.13	0.984	983.9	2back	Block1	2back/STIM_031.jpg	100
388.09	1.328	1328.3	2back	Block1	2back/STIM_032.jpg	99
391.551	1.294	1294.3	2back	Block1	2back/STIM_032.jpg	100
395.229	1.193	1193.1	2back	Block1	2back/STIM_032.jpg	100
398.838	0.974	973.7	2back	Block1	2back/STIM_033.jpg	100
402.079	1.288	1288.1	2back	Block1	2back/STIM_033.jpg	99
405.78	0.828	828.2	2back	Block1	2back/STIM_033.jpg	99
409.492	1.428	1427.7	2back	Block1	2back/STIM_034.jpg	99
414.698	0.884	884.5	2back	Block1	2back/STIM_034.jpg	100
418.434	0.671	671.4	2back	Block1	2back/STIM_034.jpg	100
422.945	0.897	896.6	2back	Block1	2back/STIM_035.jpg	99
425.992	1.402	1401.7	2back	Block1	2back/STIM_035.jpg	100
429.935	1.059	1059.0	2back	Block1	2back/STIM_035.jpg	100
432.972	1.033	1032.8	2back	Block1	2back/STIM_036.jpg	100
437.116	1.342	1342.3	2back	Block1	2back/STIM_036.jpg	100
441.71	1.129	1128.8	2back	Block1	2back/STIM_036.jpg	100
445.039	0.778	778.0	2back	Block1	2back/STIM_037.jpg	99
447.804	0.786	786.1	2back	Block1	2back/STIM_037.jpg	99
450.644	1.008	1007.9	2back	Block1	2back/STIM_037.jpg	99
454.26	1.479	1479.2	2back	Block1	2back/STIM_038.jpg	99
458.767	0.642	641.6	2back	Block1	2back/STIM_038.jpg	100
461.995	1.198	1197.7	2back	Block1	2back/STIM_038.jpg	100
465.461	0.728	728.4	2back	Block1	2back/STIM_039.jpg	100
468.882	1.01	1009.8	2back	Block1	2back/STIM_039.jpg	100
472.606	1.192	1192.0	2back	Block1	2back/STIM_039.jpg	99
477.249	0.77	770.5	0back	Block1	0back/STIM_000.jpg	100
481.84	0.536	536.5	0back	Block1	0back/STIM_000.jpg	99
485.733	0.782	781.7	0back	Block1	0back/STIM_000.jpg	99
489.436	0.636	635.9	0back	Block1	0back/STIM_001.jpg	99
493.937	0.535	535.1	0back	Block1	0back/STIM_001.jpg	100
497.662	0.691	691.3	0back	Block1	0back/STIM_001.jpg	99
501.264	0.819	819.2	0back	Block1	0back/STIM_002.jpg	100
504.812	0.512	512.1	0back	Block1	0back/STIM_002.jpg	99
507.888	0.818	818.0	0back	Block1	0back/STIM_002.jpg	100
512.246	0.803	802.9	0back	Block1	0back/STIM_003.jpg	100
516.438	0.716	715.7	0back	Block1	0back/STIM_003.jpg	100
519.309	0.523	523.2	0back	Block1	0back/STIM_003.jpg	99
522.36	0.866	866.1	0back	Block1	0back/STIM_004.jpg	99
526.42	0.536	535.5	0back	Block1	0back/STIM_004.jpg	100
530.801	0.742	742.5	0back	Block1	0back/STIM_004.jpg	99
534.525	0.813	813.1	0back	Block1	0back/STIM_005.jpg	100
537.483	0.467	467.1	0back	Block1	0back/STIM_005.jpg	99
540.864	0.858	857.5	0back	Block1	0back/STIM_005.jpg	99
545.552	0.639	639.4	0back	Block1	0back/STIM_006.jpg	100
549.622	0.473	472.9	0back	Block1	0back/STIM_006.jpg	99
553.816	0.462	461.8	0back	Block1	0back/STIM_006.jpg	99
557.558	0.85	849.8	0back	Block1	0back/STIM_007.jpg	99
561.589	0.547	547.4	0back	Block1	0back/STIM_007.jpg	100
564.408	0.577	577.2	0back	Block1	0back/STIM_007.jpg	99
568.87	0.821	820.8	0back	Block1	0back/STIM_008.jpg	99
573.595	0.685	684.9	0back	Block1	0back/STIM_008.jpg	99
577.838	0.842	841.5	0back	Block1	0back/STIM_008.jpg	100
580.744	0.867	866.6	0back	Block1	0back/STIM_009.jpg	100
585.318	0.544	544.3	0back	Block1	0back/STIM_009.jpg	100
588.224	0.7	700.2	0back	Block1	0back/STIM_009.jpg	99
592.683	0.605	604.7	0back	Block1	0back/STIM_010.jpg	100
597.025	0.561	561.3	0back	Block1	0back/STIM_010.jpg	100
600.328	0.614	614.5	0back	Block1	0back/STIM_010.jpg	100
603.416	0.682	682.5	0back	Block1	0back/STIM_011.jpg	99
606.948	0.744	743.7	0back	Block1	0back/STIM_011.jpg	99
610.168	0.506	506.2	0back	Block1	0back/STIM_011.jpg	100
613.692	0.579	579.0	0back	Block1	0back/STIM_012.jpg	99
616.363	0.486	485.7	0back	Block1	0back/STIM_012.jpg	100
619.091	0.548	548.0	0back	Block1	0back/STIM_012.jpg	100
622.416	0.74	739.7	0back	Block1	0back/STIM_013.jpg	99
626.774	0.603	602.7	0back	Block1	0back/STIM_013.jpg	99
629.513	0.573	573.3	0back	Block1	0back/STIM_013.jpg	100
633.67	0.449	448.8	0back	Block1	0back/STIM_014.jpg	100
636.527	0.625	624.7	0back	Block1	0back/STIM_014.jpg	100
639.985	0.74	740.2	0back	Block1	0back/STIM_014.jpg	99
642.802	0.696	695.7	0back	Block1	0back/STIM_015.jpg	99
645.454	0.805	804.6	0back	Block1	0back/STIM_015.jpg	99
648.32	0.858	858.2	0back	Block1	0back/STIM_015.jpg	100
651.982	0.693	693.0	0back	Block1	0back/STIM_016.jpg	100
655.964	0.742	742.4	0back	Block1	0back/STIM_016.jpg	100
659.967	0.693	693.1	0back	Block1	0back/STIM_016.jpg	99
664.214	0.71	710.1	0back	Block1	0back/STIM_017.jpg	100
667.707	0.643	643.0	0back	Block1	0back/STIM_017.jpg	100
670.781	0.749	749.3	0back	Block1	0back/STIM_017.jpg	100
674.262	0.476	476.4	0back	Block1	0back/STIM_018.jpg	100
677.629	0.688	687.5	0back	Block1	0back/STIM_018.jpg	100
681.974	0.886	885.5	0back	Block1	0back/STIM_018.jpg	100
686.358	0.706	705.9	0back	Block1	0back/STIM_019.jpg	100
690.713	0.684	684.3	0back	Block1	0back/STIM_019.jpg	99
693.415	0.541	540.7	0back	Block1	0back/STIM_019.jpg	100
696.714	1.139	1138.6	2back	Block2	2back/STIM_000.jpg	100
699.785	0.975	975.1	2back	Block2	2back/STIM_000.jpg	99
703.132	0.568	568.2	2back	Block2	2back/STIM_000.jpg	100
706.044	0.629	628.6	2back	Block2	2back/STIM_001.jpg	100
709.456	0.86	859.9	2back	Block2	2back/STIM_001.jpg	100
713.446	0.685	685.3	2back	Block2	2back/STIM_001.jpg	100
717.459	0.814	813.5	2back	Block2	2back/STIM_002.jpg	99
720.839	0.558	557.7	2back	Block2	2back/STIM_002.jpg	99
724.02	0.998	997.5	2back	Block2	2back/STIM_002.jpg	100
727.264	1.215	1215.3	2back	Block2	2back/STIM_003.jpg	100
731.064	0.982	982.2	2back	Block2	2back/STIM_003.jpg	100
734.147	1.014	1014.5	2back	Block2	2back/STIM_003.jpg	99
738.652	1.292	1292.4	2back	Block2	2back/STIM_004.jpg	99
742.683	0.603	602.6	2back	Block2	2back/STIM_004.jpg	99
746.56	0.806	806.3	2back	Block2	2back/STIM_004.jpg	100
750.768	1.202	1201.7	2back	Block2	2back/STIM_005.jpg	100
755.453	0.753	753.1	2back	Block2	2back/STIM_005.jpg	99
758.214	1.092	1091.6	2back	Block2	2back/STIM_005.jpg	100
762.185	0.958	958.5	2back	Block2	2back/STIM_006.jpg	100
766.986	1.142	1142.1	2back	Block2	2back/STIM_006.jpg	99
771.743	0.687	686.7	2back	Block2	2back/STIM_006.jpg	99
775.188	0.685	684.6	2back	Block2	2back/STIM_007.jpg	99
778.591	0.753	752.8	2back	Block2	2back/STIM_007.jpg	99
782.107	1.024	1024.2	2back	Block2	2back/STIM_007.jpg	100
785.596	1.062	1061.7	2back	Block2	2back/STIM_008.jpg	100
789.62	0.928	928.2	2back	Block2	2back/STIM_008.jpg	100
792.786	0.585	584.6	2back	Block2	2back/STIM_008.jpg	99
796.072	0.677	677.3	2back	Block2	2back/STIM_009.jpg	100
799.035	0.966	965.5	2back	Block2	2back/STIM_009.jpg	100
803.221	0.585	585.0	2back	Block2	2back/STIM_009.jpg	100
806.508	1.189	1188.9	2back	Block2	2back/STIM_010.jpg	100
811.091	0.953	953.2	2back	Block2	2back/STIM_010.jpg	100
815.175	1.123	1123.1	2back	Block2	2back/STIM_010.jpg	100
819.556	0.834	834.0	2back	Block2	2back/STIM_011.jpg	99
823.978	0.826	825.7	2back	Block2	2back/STIM_011.jpg	100
827.089	0.84	839.5	2back	Block2	2back/STIM_011.jpg	99
830.976	1.104	1103.8	2back	Block2	2back/STIM_012.jpg	99
834.431	0.859	859.0	2back	Block2	2back/STIM_012.jpg	99
837.566	0.775	775.4	2back	Block2	2back/STIM_012.jpg	99
841.151	0.767	766.6	2back	Block2	2back/STIM_013.jpg	100
844.134	1.002	1002.4	2back	Block2	2back/STIM_013.jpg	99
848.271	0.912	911.9	2back	Block2	2back/STIM_013.jpg	100
851.828	1.123	1122.6	2back	Block2	2back/STIM_014.jpg	100
856.411	0.66	659.9	2back	Block2	2back/STIM_014.jpg	99
860.744	1.138	1137.8	2back	Block2	2back/STIM_014.jpg	100
864.244	0.684	683.5	2back	Block2	2back/STIM_015.jpg	100
867.368	1.182	1182.1	2back	Block2	2back/STIM_015.jpg	100
871.754	0.926	925.9	2back	Block2	2back/STIM_015.jpg	100
875.173	0.893	893.0	2back	Block2	2back/STIM_016.jpg	100
879.66	1.024	1024.5	2back	Block2	2back/STIM_016.jpg	100
883.118	1.121	1121.2	2back	Block2	2back/STIM_016.jpg	100
886.688	0.942	942.2	2back	Block2	2back/STIM_017.jpg	99
891.289	1.209	1209.3	2back	Block2	2back/STIM_017.jpg	100
895.745	1.128	1128.3	2back	Block2	2back/STIM_017.jpg	100
899.972	1.094	1094.3	2back	Block2	2back/STIM_018.jpg	100
903.106	0.958	957.9	2back	Block2	2back/STIM_018.jpg	99
907.472	1.085	1085.3	2back	Block2	2back/STIM_018.jpg	100
911.846	1.169	1168.8	2back	Block2	2back/STIM_019.jpg	99
916.794	0.801	801.1	2back	Block2	2back/STIM_019.jpg	100
920.464	1.059	1058.8	2back	Block2	2back/STIM_019.jpg	100
924.875	1.054	1053.5	2back	Block2	2back/STIM_020.jpg	99
928.831	1.113	1112.6	2back	Block2	2back/STIM_020.jpg	100
932.691	0.994	994.3	2back	Block2	2back/STIM_020.jpg	100
936.65	0.735	734.9	2back	Block2	2back/STIM_021.jpg	100
939.594	0.744	744.4	2back	Block2	2back/STIM_021.jpg	100
942.448	0.899	899.1	2back	Block2	2back/STIM_021.jpg	100
946.843	0.986	985.8	2back	Block2	2back/STIM_022.jpg	100
950.715	1.223	1223.0	2back	Block2	2back/STIM_022.jpg	99
955.458	0.76	760.0	2back	Block2	2back/STIM_022.jpg	100
959.949	0.579	579.4	2back	Block2	2back/STIM_023.jpg	100
963.076	0.838	837.9	2back	Block2	2back/STIM_023.jpg	99
967.825	0.512	512.3	2back	Block2	2back/STIM_023.jpg	100
971.096	1.205	1204.7	2back	Block2	2back/STIM_024.jpg	99
974.393	1.242	1241.7	2back	Block2	2back/STIM_024.jpg	100
977.631	0.929	929.3	2back	Block2	2back/STIM_024.jpg	100
981.787	1.231	1230.8	2back	Block2	2back/STIM_025.jpg	100
984.922	0.697	697.1	2back	Block2	2back/STIM_025.jpg	100
987.827	1.082	1081.6	2back	Block2	2back/STIM_025.jpg	99
991.89	1.08	1080.5	2back	Block2	2back/STIM_026.jpg	99
996.823	0.63	630.4	2back	Block2	2back/STIM_026.jpg	99
1000.585	1.031	1030.9	2back	Block2	2back/STIM_026.jpg	100
1005.225	0.725	725.0	2back	Block2	2back/STIM_027.jpg	99
1008.576	0.695	695.0	2back	Block2	2back/STIM_027.jpg	99
1011.573	0.502	502.1	2back	Block2	2back/STIM_027.jpg	100
1015.618	0.715	714.9	2back	Block2	2back/STIM_028.jpg	100
1018.332	0.967	967.0	2back	Block2	2back/STIM_028.jpg	99
1022.751	0.845	844.8	2back	Block2	2back/STIM_028.jpg	99
1025.658	0.596	595.5	2back	Block2	2back/STIM_029.jpg	100
1028.813	1.18	1180.2	2back	Block2	2back/STIM_029.jpg	100
1033.163	0.614	613.5	2back	Block2	2back/STIM_029.jpg	99
1037.038	0.703	703.4	2back	Block2	2back/STIM_030.jpg	100
1040.096	0.557	556.6	2back	Block2	2back/STIM_030.jpg	99
1043.087	0.899	899.4	2back	Block2	2back/STIM_030.jpg	99
1047.058	0.878	877.6	2back	Block2	2back/STIM_031.jpg	99
1050.694	0.655	655.0	2back	Block2	2back/STIM_031.jpg	99
1053.746	1.144	1143.5	2back	Block2	2back/STIM_031.jpg	100
1056.859	0.915	914.9	2back	Block2	2back/STIM_032.jpg	99
1060.738	1.228	1228.1	2back	Block2	2back/STIM_032.jpg	99
1064.458	0.989	989.0	2back	Block2	2back/STIM_032.jpg	99
1067.676	1.232	1231.9	2back	Block2	2back/STIM_033.jpg	100
1071.389	0.618	618.5	2back	Block2	2back/STIM_033.jpg	99
1074.313	0.693	693.2	2back	Block2	2back/STIM_033.jpg	99
1078.841	1.184	1183.6	2back	Block2	2back/STIM_034.jpg	99
1081.906	1.18	1180.5	2back	Block2	2back/STIM_034.jpg	99
1086.631	0.515	514.8	2back	Block2	2back/STIM_034.jpg	99
1090.975	1.084	1084.4	2back	Block2	2back/STIM_035.jpg	100
1094.086	0.74	739.7	2back	Block2	2back/STIM_035.jpg	100
1097.756	0.692	692.3	2back	Block2	2back/STIM_035.jpg	99
1101.278	1.016	1016.1	2back	Block2	2back/STIM_036.jpg	99
1104.812	0.762	761.9	2back	Block2	2back/STIM_036.jpg	100
1108.988	1.047	1046.8	2back	Block2	2back/STIM_036.jpg	100
1112.467	1.076	1076.5	2back	Block2	2back/STIM_037.jpg	99
1116.654	0.596	596.4	2back	Block2	2back/STIM_037.jpg	99
1119.484	1.147	1147.2	2back	Block2	2back/STIM_037.jpg	99
1124.356	1.288	1287.5	2back	Block2	2back/STIM_038.jpg	99
1128.408	0.639	638.8	2back	Block2	2back/STIM_038.jpg	99
1131.682	1.118	1118.0	2back	Block2	2back/STIM_038.jpg	100
1135.233	0.861	861.1	2back	Block2	2back/STIM_039.jpg	100
1138.332	0.998	998.5	2back	Block2	2back/STIM_039.jpg	99
1141.429	0.67	670.0	2back	Block2	2back/STIM_039.jpg	100
1145.422	0.781	781.1	0back	Block2	0back/STIM_000.jpg	99
1148.547	0.58	579.9	0back	Block2	0back/STIM_000.jpg	99
1152.713	0.583	583.3	0back	Block2	0back/STIM_000.jpg	99
1155.591	0.819	819.1	0back	Block2	0back/STIM_001.jpg	100
1158.877	0.513	513.4	0back	Block2	0back/STIM_001.jpg	99
1162.856	0.625	624.6	0back	Block2	0back/STIM_001.jpg	99
1166.059	0.761	761.0	0back	Block2	0back/STIM_002.jpg	100
1168.854	0.579	579.0	0back	Block2	0back/STIM_002.jpg	99
1172.244	0.77	769.8	0back	Block2	0back/STIM_002.jpg	99
1175.1	0.572	572.0	0back	Block2	0back/STIM_003.jpg	100
1178.148	0.472	472.2	0back	Block2	0back/STIM_003.jpg	99
1181.257	0.755	755.1	0back	Block2	0back/STIM_003.jpg	99
1185.888	0.523	523.0	0back	Block2	0back/STIM_004.jpg	100
1188.722	0.497	497.2	0back	Block2	0back/STIM_004.jpg	100
1191.606	0.746	746.2	0back	Block2	0back/STIM_004.jpg	99
1194.885	0.712	711.9	0back	Block2	0back/STIM_005.jpg	99
1199.133	0.577	577.1	0back	Block2	0back/STIM_005.jpg	99
1203.031	0.556	556.4	0back	Block2	0back/STIM_005.jpg	99
1207.49	0.764	763.7	0back	Block2	0back/STIM_006.jpg	99
1211.808	0.776	775.9	0back	Block2	0back/STIM_006.jpg	99
1215.889	0.818	817.7	0back	Block2	0back/STIM_006.jpg	100
1219.783	0.848	848.3	0back	Block2	0back/STIM_007.jpg	100
1223.879	0.702	702.0	0back	Block2	0back/STIM_007.jpg	99
1228.43	0.646	646.0	0back	Block2	0back/STIM_007.jpg	99
1232.114	0.504	503.7	0back	Block2	0back/STIM_008.jpg	100
1234.59	0.744	744.4	0back	Block2	0back/STIM_008.jpg	100
1237.736	0.487	486.8	0back	Block2	0back/STIM_008.jpg	100
1241.487	0.68	680.5	0back	Block2	0back/STIM_009.jpg	100
1244.567	0.886	886.0	0back	Block2	0back/STIM_009.jpg	99
1247.92	0.843	843.2	0back	Block2	0back/STIM_009.jpg	100
1252.66	0.559	559.2	0back	Block2	0back/STIM_010.jpg	99
1256.157	0.878	877.7	0back	Block2	0back/STIM_010.jpg	100
1260.021	0.868	867.9	0back	Block2	0back/STIM_010.jpg	99
1263.119	0.672	672.3	0back	Block2	0back/STIM_011.jpg	100
1266.256	0.648	648.3	0back	Block2	0back/STIM_011.jpg	100
1268.889	0.805	804.7	0back	Block2	0back/STIM_011.jpg	100
1272.787	0.658	657.9	0back	Block2	0back/STIM_012.jpg	99
1275.993	0.634	634.0	0back	Block2	0back/STIM_012.jpg	99
1279.753	0.448	448.4	0back	Block2	0back/STIM_012.jpg	99
1283.177	0.855	855.2	0back	Block2	0back/STIM_013.jpg	100
1287.777	0.752	751.8	0back	Block2	0back/STIM_013.jpg	99
1290.819	0.798	798.1	0back	Block2	0back/STIM_013.jpg	100
1293.598	0.547	547.2	0back	Block2	0back/STIM_014.jpg	99
1296.905	0.796	796.4	0back	Block2	0back/STIM_014.jpg	99
1300.274	0.498	498.0	0back	Block2	0back/STIM_014.jpg	99
1303.198	0.839	838.9	0back	Block2	0back/STIM_015.jpg	99
1307.658	0.481	480.8	0back	Block2	0back/STIM_015.jpg	99
1310.451	0.883	883.3	0back	Block2	0back/STIM_015.jpg	99
1313.263	0.877	877.1	0back	Block2	0back/STIM_016.jpg	100
1316.818	0.648	647.8	0back	Block2	0back/STIM_016.jpg	99
1320.924	0.771	771.1	0back	Block2	0back/STIM_016.jpg	100
1325.569	0.828	827.7	0back	Block2	0back/STIM_017.jpg	99
1329.409	0.833	833.0	0back	Block2	0back/STIM_017.jpg	99
1333.705	0.84	839.7	0back	Block2	0back/STIM_017.jpg	100
1336.96	0.571	570.9	0back	Block2	0back/STIM_018.jpg	100
1339.589	0.89	889.9	0back	Block2	0back/STIM_018.jpg	99
1342.819	0.777	776.7	0back	Block2	0back/STIM_018.jpg	99
1347.433	0.564	564.5	0back	Block2	0back/STIM_019.jpg	99
1350.895	0.543	542.8	0back	Block2	0back/STIM_019.jpg	100
1354.443	0.831	830.9	0back	Block2	0back/STIM_019.jpg	99
1357.296	0.652	651.6	2back	Block3	2back/STIM_000.jpg	99
1361.037	0.932	932.3	2back	Block3	2back/STIM_000.jpg	99
1365.67	0.684	683.6	2back	Block3	2back/STIM_000.jpg	99
1369.826	0.648	647.7	2back	Block3	2back/STIM_001.jpg	99
1374.268	0.856	856.1	2back	Block3	2back/STIM_001.jpg	100
1377.083	0.48	480.4	2back	Block3	2back/STIM_001.jpg	100
1381.283	0.605	605.0	2back	Block3	2back/STIM_002.jpg	99
1384.193	0.883	882.9	2back	Block3	2back/STIM_002.jpg	100
1387.784	0.983	982.8	2back	Block3	2back/STIM_002.jpg	100
1391.822	0.841	840.7	2back	Block3	2back/STIM_003.jpg	99
1394.663	0.84	840.5	2back	Block3	2back/STIM_003.jpg	99
1397.724	0.604	604.4	2back	Block3	2back/STIM_003.jpg	100
1401.569	0.884	883.5	2back	Block3	2back/STIM_004.jpg	99
1404.809	0.552	551.9	2back	Block3	2back/STIM_004.jpg	99
1408.848	1.086	1085.7	2back	Block3	2back/STIM_004.jpg	99
1413.687	0.56	559.8	2back	Block3	2back/STIM_005.jpg	100
1417.349	0.553	553.2	2back	Block3	2back/STIM_005.jpg	99
1420.832	1.065	1064.6	2back	Block3	2back/STIM_005.jpg	99
1424.55	1.003	1003.3	2back	Block3	2back/STIM_006.jpg	99
1427.688	0.853	852.8	2back	Block3	2back/STIM_006.jpg	100
1431.06	0.488	488.4	2back	Block3	2back/STIM_006.jpg	100
1434.643	0.804	803.9	2back	Block3	2back/STIM_007.jpg	100
1438.133	0.961	960.9	2back	Block3	2back/STIM_007.jpg	99
1442.532	0.912	911.8	2back	Block3	2back/STIM_007.jpg	99
1445.844	1.04	1039.8	2back	Block3	2back/STIM_008.jpg	100
1450.119	1.026	1026.5	2back	Block3	2back/STIM_008.jpg	99
1453.213	0.596	595.8	2back	Block3	2back/STIM_008.jpg	99
1457.418	0.97	970.1	2back	Block3	2back/STIM_009.jpg	99
1460.581	0.664	663.9	2back	Block3	2back/STIM_009.jpg	99
1464.254	0.616	616.5	2back	Block3	2back/STIM_009.jpg	99
1468.058	0.786	785.9	2back	Block3	2back/STIM_010.jpg	99
1470.909	1.085	1085.4	2back	Block3	2back/STIM_010.jpg	100
1474.097	1.0	999.5	2back	Block3	2back/STIM_010.jpg	99
1478.497	0.569	569.4	2back	Block3	2back/STIM_011.jpg	99
1482.026	0.938	938.5	2back	Block3	2back/STIM_011.jpg	99
1486.531	0.644	643.5	2back	Block3	2back/STIM_011.jpg	99
1489.792	0.862	861.8	2back	Block3	2back/STIM_012.jpg	99
1492.85	0.771	771.2	2back	Block3	2back/STIM_012.jpg	100
1496.685	1.046	1046.1	2back	Block3	2back/STIM_012.jpg	99
1500.932	0.538	537.7	2back	Block3	2back/STIM_013.jpg	100
1505.278	1.09	1089.7	2back	Block3	2back/STIM_013.jpg	99
1508.452	0.629	628.6	2back	Block3	2back/STIM_013.jpg	100
1512.942	0.556	555.8	2back	Block3	2back/STIM_014.jpg	99
1515.92	0.821	820.6	2back	Block3	2back/STIM_014.jpg	100
1518.82	0.976	975.6	2back	Block3	2back/STIM_014.jpg	99
1523.567	0.902	901.8	2back	Block3	2back/STIM_015.jpg	100
1528.029	0.779	779.0	2back	Block3	2back/STIM_015.jpg	99
1532.619	0.672	672.4	2back	Block3	2back/STIM_015.jpg	99
1535.443	0.922	922.0	2back	Block3	2back/STIM_016.jpg	99
1540.136	0.924	923.7	2back	Block3	2back/STIM_016.jpg	100
1543.429	0.474	474.0	2back	Block3	2back/STIM_016.jpg	100
1547.347	0.527	526.7	2back	Block3	2back/STIM_017.jpg	100
1550.522	0.779	779.0	2back	Block3	2back/STIM_017.jpg	100
1555.032	1.09	1090.5	2back	Block3	2back/STIM_017.jpg	100
1558.518	0.97	970.5	2back	Block3	2back/STIM_018.jpg	99
1562.673	0.612	612.0	2back	Block3	2back/STIM_018.jpg	99
1567.161	1.0	999.9	2back	Block3	2back/STIM_018.jpg	100
1570.379	0.779	779.1	2back	Block3	2back/STIM_019.jpg	99
1574.937	0.702	702.4	2back	Block3	2back/STIM_019.jpg	99
1577.937	0.834	834.3	2back	Block3	2back/STIM_019.jpg	99
1580.936	0.622	621.7	2back	Block3	2back/STIM_020.jpg	99
1584.487	1.026	1026.4	2back	Block3	2back/STIM_020.jpg	100
1588.24	0.628	627.7	2back	Block3	2back/STIM_020.jpg	100
1592.496	0.932	932.1	2back	Block3	2back/STIM_021.jpg	99
1595.89	0.935	935.3	2back	Block3	2back/STIM_021.jpg	100
1598.857	0.968	968.4	2back	Block3	2back/STIM_021.jpg	100
1603.295	0.699	698.9	2back	Block3	2back/STIM_022.jpg	99
1606.453	0.506	505.9	2back	Block3	2back/STIM_022.jpg	100
1610.017	0.74	740.4	2back	Block3	2back/STIM_022.jpg	100
1614.013	1.023	1023.3	2back	Block3	2back/STIM_023.jpg	100
1618.929	0.491	491.3	2back	Block3	2back/STIM_023.jpg	99
1622.905	0.736	735.8	2back	Block3	2back/STIM_023.jpg	100
1625.995	0.893	893.0	2back	Block3	2back/STIM_024.jpg	100
1629.726	0.845	845.3	2back	Block3	2back/STIM_024.jpg	99
1633.89	1.014	1014.0	2back	Block3	2back/STIM_024.jpg	99
1637.394	0.7	700.3	2back	Block3	2back/STIM_025.jpg	100
1641.669	0.682	682.3	2back	Block3	2back/STIM_025.jpg	100
1645.892	0.936	936.5	2back	Block3	2back/STIM_025.jpg	99
1650.496	1.016	1016.0	2back	Block3	2back/STIM_026.jpg	100
1654.495	0.544	544.5	2back	Block3	2back/STIM_026.jpg	99
1657.073	0.615	615.0	2back	Block3	2back/STIM_026.jpg	100
1660.437	1.046	1046.0	2back	Block3	2back/STIM_027.jpg	99
1663.693	0.935	935.4	2back	Block3	2back/STIM_027.jpg	100
1666.845	0.637	637.4	2back	Block3	2back/STIM_027.jpg	99
1670.184	0.538	538.1	2back	Block3	2back/STIM_028.jpg	99
1672.825	0.889	888.8	2back	Block3	2back/STIM_028.jpg	100
1677.134	0.856	855.8	2back	Block3	2back/STIM_028.jpg	99
1680.933	0.983	983.3	2back	Block3	2back/STIM_029.jpg	99
1684.343	0.984	984.2	2back	Block3	2back/STIM_029.jpg	100
1687.537	1.009	1008.9	2back	Block3	2back/STIM_029.jpg	99
1691.186	0.998	998.3	2back	Block3	2back/STIM_030.jpg	100
1695.553	1.068	1067.6	2back	Block3	2back/STIM_030.jpg	99
1698.94	0.519	519.2	2back	Block3	2back/STIM_030.jpg	100
1703.223	0.481	480.6	2back	Block3	2back/STIM_031.jpg	100
1706.548	0.532	532.2	2back	Block3	2back/STIM_031.jpg	100
1710.183	0.715	715.2	2back	Block3	2back/STIM_031.jpg	100
1713.474	0.546	546.2	2back	Block3	2back/STIM_032.jpg	99
1716.072	0.527	527.0	2back	Block3	2back/STIM_032.jpg	100
1720.088	0.857	857.0	2back	Block3	2back/STIM_032.jpg	99
1723.357	1.037	1037.2	2back	Block3	2back/STIM_033.jpg	100
1727.588	0.913	912.8	2back	Block3	2back/STIM_033.jpg	100
1732.127	0.946	945.9	2back	Block3	2back/STIM_033.jpg	99
1736.792	0.56	560.3	2back	Block3	2back/STIM_034.jpg	100
1739.384	0.634	634.3	2back	Block3	2back/STIM_034.jpg	100
1742.408	1.033	1032.9	2back	Block3	2back/STIM_034.jpg	99
1745.946	1.056	1055.6	2back	Block3	2back/STIM_035.jpg	99
1749.276	0.872	871.7	2back	Block3	2back/STIM_035.jpg	99
1752.874	1.086	1085.5	2back	Block3	2back/STIM_035.jpg	99
1756.123	0.564	564.1	2back	Block3	2back/STIM_036.jpg	99
1759.336	0.733	733.1	2back	Block3	2back/STIM_036.jpg	100
1762.101	1.026	1026.3	2back	Block3	2back/STIM_036.jpg	100
1765.057	0.966	965.9	2back	Block3	2back/STIM_037.jpg	100
1768.784	0.665	665.2	2back	Block3	2back/STIM_037.jpg	100
1771.816	0.726	726.5	2back	Block3	2back/STIM_037.jpg	99
1776.265	0.67	669.8	2back	Block3	2back/STIM_038.jpg	100
1779.165	1.028	1028.2	2back	Block3	2back/STIM_038.jpg	100
1782.851	0.838	838.2	2back	Block3	2back/STIM_038.jpg	100
1786.018	0.484	483.7	2back	Block3	2back/STIM_039.jpg	99
1788.821	1.059	1059.4	2back	Block3	2back/STIM_039.jpg	99
1792.722	0.682	681.6	2back	Block3	2back/STIM_039.jpg	99
1795.872	0.78	779.6	0back	Block3	0back/STIM_000.jpg	99
1800.235	0.458	458.0	0back	Block3	0back/STIM_000.jpg	100
1804.486	0.88	879.6	0back	Block3	0back/STIM_000.jpg	100
1807.877	0.728	728.2	0back	Block3	0back/STIM_001.jpg	99
1812.314	0.662	661.6	0back	Block3	0back/STIM_001.jpg	99
1816.687	0.713	713.4	0back	Block3	0back/STIM_001.jpg	99
1821.136	0.446	446.1	0back	Block3	0back/STIM_002.jpg	100
1824.838	0.621	621.3	0back	Block3	0back/STIM_002.jpg	99
1828.782	0.697	697.4	0back	Block3	0back/STIM_002.jpg	100
1832.746	0.734	733.5	0back	Block3	0back/STIM_003.jpg	100
1836.86	0.605	604.6	0back	Block3	0back/STIM_003.jpg	99
1840.901	0.763	763.0	0back	Block3	0back/STIM_003.jpg	99
1845.548	0.793	792.6	0back	Block3	0back/STIM_004.jpg	99
1848.853	0.855	855.1	0back	Block3	0back/STIM_004.jpg	99
1852.89	0.567	567.4	0back	Block3	0back/STIM_004.jpg	100
1855.823	0.454	454.4	0back	Block3	0back/STIM_005.jpg	100
1858.651	0.558	558.0	0back	Block3	0back/STIM_005.jpg	100
1862.06	0.654	654.3	0back	Block3	0back/STIM_005.jpg	100
1865.089	0.498	497.5	0back	Block3	0back/STIM_006.jpg	100
1868.023	0.803	803.3	0back	Block3	0back/STIM_006.jpg	99
1870.939	0.803	802.8	0back	Block3	0back/STIM_006.jpg	99
1875.128	0.624	624.3	0back	Block3	0back/STIM_007.jpg	99
1878.349	0.854	853.8	0back	Block3	0back/STIM_007.jpg	99
1883.082	0.565	564.9	0back	Block3	0back/STIM_007.jpg	100
1885.992	0.807	807.0	0back	Block3	0back/STIM_008.jpg	100
1890.665	0.739	738.9	0back	Block3	0back/STIM_008.jpg	100
1894.623	0.877	876.9	0back	Block3	0back/STIM_008.jpg	100
1898.997	0.724	724.5	0back	Block3	0back/STIM_009.jpg	99
1902.363	0.586	586.1	0back	Block3	0back/STIM_009.jpg	99
1906.376	0.635	634.6	0back	Block3	0back/STIM_009.jpg	100
1909.618	0.645	645.0	0back	Block3	0back/STIM_010.jpg	100
1913.163	0.765	764.7	0back	Block3	0back/STIM_010.jpg	99
1915.862	0.879	879.2	0back	Block3	0back/STIM_010.jpg	100
1918.842	0.513	512.7	0back	Block3	0back/STIM_011.jpg	100
1922.368	0.574	573.8	0back	Block3	0back/STIM_011.jpg	99
1926.233	0.63	630.3	0back	Block3	0back/STIM_011.jpg	100
1930.167	0.579	578.8	0back	Block3	0back/STIM_012.jpg	99
1932.808	0.643	642.8	0back	Block3	0back/STIM_012.jpg	99
1935.629	0.555	555.4	0back	Block3	0back/STIM_012.jpg	100
1939.386	0.474	474.4	0back	Block3	0back/STIM_013.jpg	99
1943.291	0.713	713.1	0back	Block3	0back/STIM_013.jpg	100
1946.039	0.486	486.3	0back	Block3	0back/STIM_013.jpg	100
1950.02	0.642	642.0	0back	Block3	0back/STIM_014.jpg	100
1954.339	0.869	868.7	0back	Block3	0back/STIM_014.jpg	100
1958.52	0.644	643.9	0back	Block3	0back/STIM_014.jpg	99
1962.026	0.71	709.7	0back	Block3	0back/STIM_015.jpg	100
1966.573	0.476	475.9	0back	Block3	0back/STIM_015.jpg	99
1969.412	0.516	515.7	0back	Block3	0back/STIM_015.jpg	99
1973.345	0.721	721.1	0back	Block3	0back/STIM_016.jpg	100
1976.344	0.499	498.6	0back	Block3	0back/STIM_016.jpg	100
1979.675	0.832	832.4	0back	Block3	0back/STIM_016.jpg	100
1983.574	0.51	510.0	0back	Block3	0back/STIM_017.jpg	99
1987.105	0.493	493.0	0back	Block3	0back/STIM_017.jpg	99
1991.046	0.758	757.7	0back	Block3	0back/STIM_017.jpg	100
1994.3	0.456	456.4	0back	Block3	0back/STIM_018.jpg	100
1997.419	0.786	785.9	0back	Block3	0back/STIM_018.jpg	99
2000.531	0.528	528.0	0back	Block3	0back/STIM_018.jpg	99
2003.944	0.496	495.6	0back	Block3	0back/STIM_019.jpg	100
2008.19	0.775	774.8	0back	Block3	0back/STIM_019.jpg	99
2012.868	0.516	516.5	0back	Block3	0back/STIM_019.jpg	99
2016.255	0.76	760.4	2back	Block4	2back/STIM_000.jpg	100
2020.421	0.993	993.2	2back	Block4	2back/STIM_000.jpg	99
2025.301	0.723	722.7	2back	Block4	2back/STIM_000.jpg	100
2028.327	0.668	668.0	2back	Block4	2back/STIM_001.jpg	100
2032.573	0.922	922.2	2back	Block4	2back/STIM_001.jpg	100
2036.898	0.83	829.9	2back	Block4	2back/STIM_001.jpg	99
2040.181	0.922	921.9	2back	Block4	2back/STIM_002.jpg	100
2043.693	0.767	767.1	2back	Block4	2back/STIM_002.jpg	99
2048.092	0.958	958.1	2back	Block4	2back/STIM_002.jpg	99
2051.027	0.988	988.5	2back	Block4	2back/STIM_003.jpg	99
2054.955	0.633	633.3	2back	Block4	2back/STIM_003.jpg	100
2058.129	0.895	895.2	2back	Block4	2back/STIM_003.jpg	100
2061.11	0.917	917.2	2back	Block4	2back/STIM_004.jpg	99
2064.761	0.733	733.4	2back	Block4	2back/STIM_004.jpg	99
2068.211	0.625	625.4	2back	Block4	2back/STIM_004.jpg	99
2070.837	0.894	894.5	2back	Block4	2back/STIM_005.jpg	99
2074.539	0.884	883.6	2back	Block4	2back/STIM_005.jpg	100
2077.602	0.549	548.9	2back	Block4	2back/STIM_005.jpg	99
2080.903	0.722	721.9	2back	Block4	2back/STIM_006.jpg	99
2085.194	0.801	800.7	2back	Block4	2back/STIM_006.jpg	99
2089.569	0.856	856.2	2back	Block4	2back/STIM_006.jpg	100
2093.462	0.486	486.3	2back	Block4	2back/STIM_007.jpg	100
2097.66	0.688	688.5	2back	Block4	2back/STIM_007.jpg	100
2101.514	0.681	681.4	2back	Block4	2back/STIM_007.jpg	99
2105.668	0.762	762.0	2back	Block4	2back/STIM_008.jpg	100
2109.651	0.718	718.1	2back	Block4	2back/STIM_008.jpg	100
2114.234	1.048	1047.8	2back	Block4	2back/STIM_008.jpg	100
2117.203	1.086	1085.5	2back	Block4	2back/STIM_009.jpg	99
2120.356	0.702	701.6	2back	Block4	2back/STIM_009.jpg	99
2123.687	0.711	711.4	2back	Block4	2back/STIM_009.jpg	99
2127.103	0.597	597.2	2back	Block4	2back/STIM_010.jpg	100
2129.893	0.838	838.1	2back	Block4	2back/STIM_010.jpg	99
2134.582	1.032	1031.9	2back	Block4	2back/STIM_010.jpg	100
2137.83	0.773	772.8	2back	Block4	2back/STIM_011.jpg	100
2140.798	0.858	858.0	2back	Block4	2back/STIM_011.jpg	100
2145.561	0.538	537.6	2back	Block4	2back/STIM_011.jpg	99
2149.699	0.681	680.6	2back	Block4	2back/STIM_012.jpg	99
2154.176	1.052	1051.8	2back	Block4	2back/STIM_012.jpg	99
2157.913	0.604	604.3	2back	Block4	2back/STIM_012.jpg	99
2160.833	0.51	509.8	2back	Block4	2back/STIM_013.jpg	99
2163.992	0.88	880.2	2back	Block4	2back/STIM_013.jpg	99
2168.351	0.492	492.5	2back	Block4	2back/STIM_013.jpg	100
2171.344	0.65	650.1	2back	Block4	2back/STIM_014.jpg	99
2174.449	0.67	669.6	2back	Block4	2back/STIM_014.jpg	100
2178.185	0.49	489.5	2back	Block4	2back/STIM_014.jpg	100
2181.37	0.573	573.3	2back	Block4	2back/STIM_015.jpg	100
2185.508	0.608	608.0	2back	Block4	2back/STIM_015.jpg	100
2189.08	1.022	1022.5	2back	Block4	2back/STIM_015.jpg	100
2193.677	0.518	518.2	2back	Block4	2back/STIM_016.jpg	99
2196.49	0.49	490.3	2back	Block4	2back/STIM_016.jpg	100
2200.322	0.524	524.1	2back	Block4	2back/STIM_016.jpg	100
2204.115	0.952	952.0	2back	Block4	2back/STIM_017.jpg	100
2208.124	0.968	968.4	2back	Block4	2back/STIM_017.jpg	99
2211.539	0.618	618.4	2back	Block4	2back/STIM_017.jpg	100
2215.126	0.725	724.8	2back	Block4	2back/STIM_018.jpg	100
2217.999	0.49	490.1	2back	Block4	2back/STIM_018.jpg	99
2220.67	0.896	895.5	2back	Block4	2back/STIM_018.jpg	100
2223.574	1.025	1024.6	2back	Block4	2back/STIM_019.jpg	100
2227.31	0.764	763.9	2back	Block4	2back/STIM_019.jpg	99
2230.643	0.929	928.7	2back	Block4	2back/STIM_019.jpg	99
2233.682	0.835	835.2	2back	Block4	2back/STIM_020.jpg	99
2236.754	0.974	974.3	2back	Block4	2back/STIM_020.jpg	99
2240.137	0.747	747.3	2back	Block4	2back/STIM_020.jpg	100
2243.263	0.73	730.1	2back	Block4	2back/STIM_021.jpg	99
2245.979	0.914	914.3	2back	Block4	2back/STIM_021.jpg	99
2250.107	1.073	1072.8	2back	Block4	2back/STIM_021.jpg	100
2254.157	0.611	611.0	2back	Block4	2back/STIM_022.jpg	100
2257.953	0.496	496.0	2back	Block4	2back/STIM_022.jpg	99
2261.447	1.045	1045.4	2back	Block4	2back/STIM_022.jpg	99
2265.017	0.636	635.9	2back	Block4	2back/STIM_023.jpg	99
2268.851	0.827	827.4	2back	Block4	2back/STIM_023.jpg	99
2272.04	0.967	966.6	2back	Block4	2back/STIM_023.jpg	99
2275.746	0.892	891.7	2back	Block4	2back/STIM_024.jpg	99
2279.078	0.811	811.4	2back	Block4	2back/STIM_024.jpg	99
2282.595	0.747	746.9	2back	Block4	2back/STIM_024.jpg	99
2287.182	1.05	1049.7	2back	Block4	2back/STIM_025.jpg	100
2292.003	0.788	788.5	2back	Block4	2back/STIM_025.jpg	100
2296.527	0.562	561.6	2back	Block4	2back/STIM_025.jpg	99
2300.304	0.89	890.4	2back	Block4	2back/STIM_026.jpg	99
2305.081	0.929	928.7	2back	Block4	2back/STIM_026.jpg	99
2309.688	0.498	498.5	2back	Block4	2back/STIM_026.jpg	100
2313.428	0.544	544.4	2back	Block4	2back/STIM_027.jpg	100
2316.404	0.657	656.8	2back	Block4	2back/STIM_027.jpg	99
2320.144	0.6	599.5	2back	Block4	2back/STIM_027.jpg	100
2323.083	0.692	691.5	2back	Block4	2back/STIM_028.jpg	99
2327.001	0.83	830.5	2back	Block4	2back/STIM_028.jpg	99
2331.457	0.484	483.9	2back	Block4	2back/STIM_028.jpg	100
2335.16	0.93	929.6	2back	Block4	2back/STIM_029.jpg	100
2338.329	0.986	985.6	2back	Block4	2back/STIM_029.jpg	99
2342.167	0.763	763.1	2back	Block4	2back/STIM_029.jpg	100
2346.425	0.721	721.1	2back	Block4	2back/STIM_030.jpg	99
2350.282	0.762	761.6	2back	Block4	2back/STIM_030.jpg	99
2353.0	0.783	782.8	2back	Block4	2back/STIM_030.jpg	99
2356.559	0.717	717.2	2back	Block4	2back/STIM_031.jpg	100
2361.007	0.641	641.2	2back	Block4	2back/STIM_031.jpg	99
2363.925	0.703	702.9	2back	Block4	2back/STIM_031.jpg	99
2367.345	0.964	964.3	2back	Block4	2back/STIM_032.jpg	100
2372.114	0.902	902.3	2back	Block4	2back/STIM_032.jpg	99
2375.761	0.704	704.2	2back	Block4	2back/STIM_032.jpg	100
2379.981	1.036	1036.0	2back	Block4	2back/STIM_033.jpg	99
2383.61	0.557	556.6	2back	Block4	2back/STIM_033.jpg	99
2387.314	0.547	546.9	2back	Block4	2back/STIM_033.jpg	100
2390.36	0.544	543.9	2back	Block4	2back/STIM_034.jpg	100
2394.534	0.791	790.7	2back	Block4	2back/STIM_034.jpg	100
2399.155	0.609	608.9	2back	Block4	2back/STIM_034.jpg	99
2401.847	0.918	917.5	2back	Block4	2back/STIM_035.jpg	99
2406.616	0.817	816.7	2back	Block4	2back/STIM_035.jpg	99
2410.586	0.74	739.9	2back	Block4	2back/STIM_035.jpg	100
2413.951	1.038	1038.3	2back	Block4	2back/STIM_036.jpg	100
2418.734	1.038	1037.9	2back	Block4	2back/STIM_036.jpg	99
2422.128	0.851	850.8	2back	Block4	2back/STIM_036.jpg	99
2425.983	1.009	1009.4	2back	Block4	2back/STIM_037.jpg	100
2429.919	1.034	1034.0	2back	Block4	2back/STIM_037.jpg	100
2434.578	0.979	979.4	2back	Block4	2back/STIM_037.jpg	99
2439.285	0.762	761.6	2back	Block4	2back/STIM_038.jpg	100
2442.568	1.084	1084.1	2back	Block4	2back/STIM_038.jpg	99
2445.81	0.713	713.2	2back	Block4	2back/STIM_038.jpg	100
2449.779	0.919	919.2	2back	Block4	2back/STIM_039.jpg	100
2454.154	0.785	785.3	2back	Block4	2back/STIM_039.jpg	100
2456.948	0.641	640.9	2back	Block4	2back/STIM_039.jpg	100
2460.572	0.656	655.5	0back	Block4	0back/STIM_000.jpg	100
2463.959	0.801	800.7	0back	Block4	0back/STIM_000.jpg	99
2468.167	0.602	601.7	0back	Block4	0back/STIM_000.jpg	99
2470.844	0.806	805.9	0back	Block4	0back/STIM_001.jpg	100
2474.55	0.665	664.7	0back	Block4	0back/STIM_001.jpg	99
2478.329	0.567	567.3	0back	Block4	0back/STIM_001.jpg	100
2482.501	0.778	778.1	0back	Block4	0back/STIM_002.jpg	99
2485.203	0.486	486.2	0back	Block4	0back/STIM_002.jpg	99
2488.487	0.551	550.9	0back	Block4	0back/STIM_002.jpg	99
2491.023	0.644	643.8	0back	Block4	0back/STIM_003.jpg	100
2495.44	0.548	547.6	0back	Block4	0back/STIM_003.jpg	100
2499.321	0.658	657.8	0back	Block4	0back/STIM_003.jpg	100
2502.772	0.774	774.0	0back	Block4	0back/STIM_004.jpg	100
2507.342	0.802	801.8	0back	Block4	0back/STIM_004.jpg	100
2511.853	0.808	807.7	0back	Block4	0back/STIM_004.jpg	100
2515.517	0.82	820.1	0back	Block4	0back/STIM_005.jpg	100
2518.781	0.769	769.0	0back	Block4	0back/STIM_005.jpg	100
2522.324	0.565	565.2	0back	Block4	0back/STIM_005.jpg	100
2525.68	0.711	711.1	0back	Block4	0back/STIM_006.jpg	100
2529.651	0.851	850.7	0back	Block4	0back/STIM_006.jpg	100
2533.832	0.608	608.4	0back	Block4	0back/STIM_006.jpg	100
2537.874	0.464	464.5	0back	Block4	0back/STIM_007.jpg	100
2541.822	0.732	731.6	0back	Block4	0back/STIM_007.jpg	99
2546.377	0.852	852.5	0back	Block4	0back/STIM_007.jpg	100
2549.589	0.841	840.7	0back	Block4	0back/STIM_008.jpg	99
2552.78	0.839	839.2	0back	Block4	0back/STIM_008.jpg	100
2556.671	0.824	824.2	0back	Block4	0back/STIM_008.jpg	99
2561.027	0.477	477.0	0back	Block4	0back/STIM_009.jpg	99
2565.341	0.79	790.3	0back	Block4	0back/STIM_009.jpg	99
2568.832	0.846	845.8	0back	Block4	0back/STIM_009.jpg	100
2573.589	0.808	807.6	0back	Block4	0back/STIM_010.jpg	100
2577.794	0.827	827.2	0back	Block4	0back/STIM_010.jpg	99
2581.598	0.49	490.4	0back	Block4	0back/STIM_010.jpg	100
2585.985	0.559	559.0	0back	Block4	0back/STIM_011.jpg	99
2589.673	0.727	727.1	0back	Block4	0back/STIM_011.jpg	99
2593.185	0.739	739.1	0back	Block4	0back/STIM_011.jpg	100
2596.316	0.682	682.4	0back	Block4	0back/STIM_012.jpg	99
2599.188	0.445	445.3	0back	Block4	0back/STIM_012.jpg	100
2601.741	0.715	715.4	0back	Block4	0back/STIM_012.jpg	100
2605.868	0.622	621.6	0back	Block4	0back/STIM_013.jpg	100
2610.037	0.563	563.1	0back	Block4	0back/STIM_013.jpg	100
2612.713	0.527	527.0	0back	Block4	0back/STIM_013.jpg	99
2616.507	0.458	458.1	0back	Block4	0back/STIM_014.jpg	99
2620.867	0.49	489.5	0back	Block4	0back/STIM_014.jpg	100
2623.908	0.742	742.5	0back	Block4	0back/STIM_014.jpg	100
2627.66	0.742	742.3	0back	Block4	0back/STIM_015.jpg	99
2630.389	0.453	453.2	0back	Block4	0back/STIM_015.jpg	99
2633.741	0.836	836.2	0back	Block4	0back/STIM_015.jpg	100
2636.602	0.765	764.9	0back	Block4	0back/STIM_016.jpg	100
2640.951	0.713	713.4	0back	Block4	0back/STIM_016.jpg	99
2644.552	0.696	695.5	0back	Block4	0back/STIM_016.jpg	100
2648.314	0.774	773.7	0back	Block4	0back/STIM_017.jpg	100
2652.793	0.557	556.9	0back	Block4	0back/STIM_017.jpg	99
2655.636	0.526	526.5	0back	Block4	0back/STIM_017.jpg	100
2658.917	0.448	448.4	0back	Block4	0back/STIM_018.jpg	100
2663.133	0.507	507.2	0back	Block4	0back/STIM_018.jpg	100
2665.994	0.684	683.7	0back	Block4	0back/STIM_018.jpg	100
2668.991	0.663	663.0	0back	Block4	0back/STIM_019.jpg	99
2673.519	0.754	753.6	0back	Block4	0back/STIM_019.jpg	99
2676.395	0.602	602.0	0back	Block4	0back/STIM_019.jpg	100
