onset	duration	response_time_ms	trial_type	learning_stage	stimulus	response_port
0.0	1.358	1358.4	2back	Block1	2back/STIM_000.jpg	99
4.005	0.744	744.2	2back	Block1	2back/STIM_000.jpg	99
7.276	0.669	669.0	2back	Block1	2back/STIM_000.jpg	100
10.118	1.427	1427.4	2back	Block1	2back/STIM_001.jpg	100
13.816	0.97	969.6	2back	Block1	2back/STIM_001.jpg	99
17.183	1.123	1123.2	2back	Block1	2back/STIM_001.jpg	100
21.155	0.839	838.8	2back	Block1	2back/STIM_002.jpg	100
24.287	1.288	1287.9	2back	Block1	2back/STIM_002.jpg	100
28.252	1.132	1132.4	2back	Block1	2back/STIM_002.jpg	99
33.215	1.06	1059.6	2back	Block1	2back/STIM_003.jpg	99
36.683	1.361	1361.1	2back	Block1	2back/STIM_003.jpg	99
41.537	0.655	655.2	2back	Block1	2back/STIM_003.jpg	99
45.99	1.091	1090.6	2back	Block1	2back/STIM_004.jpg	99
50.945	0.612	612.3	2back	Block1	2back/STIM_004.jpg	100
53.862	0.73	730.0	2back	Block1	2back/STIM_004.jpg	100
58.395	1.14	1140.1	2back	Block1	2back/STIM_005.jpg	100
62.417	0.806	805.5	2back	Block1	2back/STIM_005.jpg	100
65.4	0.855	855.1	2back	Block1	2back/STIM_005.jpg	100
69.497	1.093	1093.2	2back	Block1	2back/STIM_006.jpg	100
73.367	0.798	798.0	2back	Block1	2back/STIM_006.jpg	100
77.557	0.735	734.6	2back	Block1	2back/STIM_006.jpg	100
81.32	1.168	1167.5	2back	Block1	2back/STIM_007.jpg	100
84.525	1.226	1225.7	2back	Block1	2back/STIM_007.jpg	100
87.943	1.08	1079.8	2back	Block1	2back/STIM_007.jpg	100
91.112	0.67	670.2	2back	Block1	2back/STIM_008.jpg	100
94.869	1.294	1293.6	2back	Block1	2back/STIM_008.jpg	99
98.673	0.765	764.6	2back	Block1	2back/STIM_008.jpg	99
102.384	1.336	1336.4	2back	Block1	2back/STIM_009.jpg	100
106.899	1.099	1099.2	2back	Block1	2back/STIM_009.jpg	99
110.655	1.204	1204.0	2back	Block1	2back/STIM_009.jpg	99
114.332	1.098	1098.3	2back	Block1	2back/STIM_010.jpg	99
119.422	0.822	822.0	2back	Block1	2back/STIM_010.jpg	99
122.939	0.833	833.1	2back	Block1	2back/STIM_010.jpg	100
126.626	1.354	1354.1	2back	Block1	2back/STIM_011.jpg	100
130.806	1.102	1102.2	2back	Block1	2back/STIM_011.jpg	99
135.114	1.072	1071.7	2back	Block1	2back/STIM_011.jpg	100
139.566	1.43	1429.5	2back	Block1	2back/STIM_012.jpg	99
143.085	1.01	1009.5	2back	Block1	2back/STIM_012.jpg	100
146.87	0.703	702.6	2back	Block1	2back/STIM_012.jpg	100
149.935	0.838	838.3	2back	Block1	2back/STIM_013.jpg	100
153.865	0.801	800.8	2back	Block1	2back/STIM_013.jpg	100
156.706	1.031	1031.2	2back	Block1	2back/STIM_013.jpg	100
161.447	1.066	1066.2	2back	Block1	2back/STIM_014.jpg	100
166.096	1.068	1068.0	2back	Block1	2back/STIM_014.jpg	99
170.654	0.765	764.6	2back	Block1	2back/STIM_014.jpg	99
173.815	0.674	673.5	2back	Block1	2back/STIM_015.jpg	100
178.311	0.764	763.6	2back	Block1	2back/STIM_015.jpg	100
183.057	0.671	671.3	2back	Block1	2back/STIM_015.jpg	100
186.436	1.406	1406.1	2back	Block1	2back/STIM_016.jpg	99
190.545	0.799	799.3	2back	Block1	2back/STIM_016.jpg	99
193.405	1.316	1315.6	2back	Block1	2back/STIM_016.jpg	100
197.59	0.819	819.4	2back	Block1	2back/STIM_017.jpg	100
200.814	0.847	847.3	2back	Block1	2back/STIM_017.jpg	100
203.678	1.008	1007.9	2back	Block1	2back/STIM_017.jpg	99
207.213	1.434	1433.5	2back	Block1	2back/STIM_018.jpg	100
211.386	0.654	654.4	2back	Block1	2back/STIM_018.jpg	100
214.126	1.116	1115.6	2back	Block1	2back/STIM_018.jpg	99
217.947	0.892	892.2	2back	Block1	2back/STIM_019.jpg	99
222.138	1.114	1114.2	2back	Block1	2back/STIM_019.jpg	99
225.586	1.107	1106.7	2back	Block1	2back/STIM_019.jpg	99
229.483	0.737	737.4	2back	Block1	2back/STIM_020.jpg	99
232.43	0.948	947.9	2back	Block1	2back/STIM_020.jpg	100
235.692	1.288	1288.3	2back	Block1	2back/STIM_020.jpg	99
239.155	1.454	1453.9	2back	Block1	2back/STIM_021.jpg	100
244.15	1.047	1047.3	2back	Block1	2back/STIM_021.jpg	100
248.496	1.263	1263.1	2back	Block1	2back/STIM_021.jpg	100
251.951	1.344	1344.5	2back	Block1	2back/STIM_022.jpg	99
256.65	1.123	1122.6	2back	Block1	2back/STIM_022.jpg	100
260.414	0.962	962.4	2back	Block1	2back/STIM_022.jpg	99
263.894	1.313	1313.1	2back	Block1	2back/STIM_023.jpg	100
268.397	0.681	681.4	2back	Block1	2back/STIM_023.jpg	100
271.405	1.164	1163.8	2back	Block1	2back/STIM_023.jpg	99
276.399	1.092	1091.9	2back	Block1	2back/STIM_024.jpg	99
279.691	1.256	1255.6	2back	Block1	2back/STIM_024.jpg	100
283.481	0.684	683.5	2back	Block1	2back/STIM_024.jpg	99
287.107	1.291	1290.9	2back	Block1	2back/STIM_025.jpg	99
291.382	0.815	815.2	2back	Block1	2back/STIM_025.jpg	99
294.454	0.581	581.0	2back	Block1	2back/STIM_025.jpg	99
298.596	1.341	1340.6	2back	Block1	2back/STIM_026.jpg	100
303.517	0.835	834.6	2back	Block1	2back/STIM_026.jpg	99
307.013	0.767	766.6	2back	Block1	2back/STIM_026.jpg	100
310.0	0.772	771.6	2back	Block1	2back/STIM_027.jpg	100
312.818	0.976	976.0	2back	Block1	2back/STIM_027.jpg	99
316.647	0.817	817.0	2back	Block1	2back/STIM_027.jpg	99
319.701	0.94	940.2	2back	Block1	2back/STIM_028.jpg	99
323.051	0.93	930.4	2back	Block1	2back/STIM_028.jpg	99
326.248	0.628	628.4	2back	Block1	2back/STIM_028.jpg	100
330.777	1.425	1424.8	2back	Block1	2back/STIM_029.jpg	100
336.086	0.633	632.9	2back	Block1	2back/STIM_029.jpg	99
340.06	1.137	1137.1	2back	Block1	2back/STIM_029.jpg	100
345.181	0.979	978.8	2back	Block1	2back/STIM_030.jpg	100
349.098	1.17	1170.1	2back	Block1	2back/STIM_030.jpg	100
352.374	0.914	914.3	2back	Block1	2back/STIM_030.jpg	99
355.695	0.675	675.1	2back	Block1	2back/STIM_031.jpg	99
358.391	0.703	703.1	2back	Block1	2back/STIM_031.jpg	100
361.491	0.595	594.6	2back	Block1	2back/STIM_031.jpg	100
364.868	0.727	726.6	2back	Block1	2back/STIM_032.jpg	99
369.337	0.954	954.1	2back	Block1	2back/STIM_032.jpg	100
373.864	1.26	1260.2	2back	Block1	2back/STIM_032.jpg	100
377.99	1.249	1249.3	2back	Block1	2back/STIM_033.jpg	100
382.215	1.292	1291.8	2back	Block1	2back/STIM_033.jpg	99
385.78	0.784	783.6	2back	Block1	2back/STIM_033.jpg	99
388.917	0.848	847.8	2back	Block1	2back/STIM_034.jpg	99
393.447	0.606	605.9	2back	Block1	2back/STIM_034.jpg	100
397.108	0.644	644.3	2back	Block1	2back/STIM_034.jpg	100
400.186	1.114	1114.5	2back	Block1	2back/STIM_035.jpg	99
404.936	0.951	950.7	2back	Block1	2back/STIM_035.jpg	100
408.443	0.844	844.1	2back	Block1	2back/STIM_035.jpg	100
412.024	1.333	1332.8	2back	Block1	2back/STIM_036.jpg	100
416.292	1.274	1274.5	2back	Block1	2back/STIM_036.jpg	100
420.686	0.823	823.0	2back	Block1	2back/STIM_036.jpg	100
425.444	0.833	832.7	2back	Block1	2back/STIM_037.jpg	99
429.864	0.885	885.0	2back	Block1	2back/STIM_037.jpg	99
433.065	0.847	847.1	2back	Block1	2back/STIM_037.jpg	99
436.156	0.941	941.3	2back	Block1	2back/STIM_038.jpg	99
440.009	1.314	1314.2	2back	Block1	2back/STIM_038.jpg	100
445.108	1.006	1006.4	2back	Block1	2back/STIM_038.jpg	100
448.909	1.371	1371.4	2back	Block1	2back/STIM_039.jpg	100
452.897	0.96	959.7	2back	Block1	2back/STIM_039.jpg	100
456.87	1.114	1114.1	2back	Block1	2back/STIM_039.jpg	99
460.621	0.54	539.5	0back	Block1	0back/STIM_000.jpg	100
464.116	0.632	631.9	0back	Block1	0back/STIM_000.jpg	99
468.075	0.457	456.8	0back	Block1	0back/STIM_000.jpg	99
472.103	0.455	454.6	0back	Block1	0back/STIM_001.jpg	99
476.066	0.607	606.8	0back	Block1	0back/STIM_001.jpg	100
480.519	0.543	542.6	0back	Block1	0back/STIM_001.jpg	99
484.222	0.567	566.6	0back	Block1	0back/STIM_002.jpg	100
487.517	0.813	813.4	0back	Block1	0back/STIM_002.jpg	99
491.399	0.49	490.2	0back	Block1	0back/STIM_002.jpg	100
494.051	0.782	782.3	0back	Block1	0back/STIM_003.jpg	100
498.031	0.836	835.5	0back	Block1	0back/STIM_003.jpg	100
502.463	0.58	580.5	0back	Block1	0back/STIM_003.jpg	99
506.179	0.516	516.1	0back	Block1	0back/STIM_004.jpg	99
509.49	0.603	603.3	0back	Block1	0back/STIM_004.jpg	100
513.377	0.823	823.1	0back	Block1	0back/STIM_004.jpg	99
517.767	0.797	796.8	0back	Block1	0back/STIM_005.jpg	100
520.767	0.547	546.8	0back	Block1	0back/STIM_005.jpg	99
525.055	0.446	445.8	0back	Block1	0back/STIM_005.jpg	99
529.349	0.651	651.3	0back	Block1	0back/STIM_006.jpg	100
533.058	0.788	788.3	0back	Block1	0back/STIM_006.jpg	99
536.211	0.611	611.3	0back	Block1	0back/STIM_006.jpg	99
538.828	0.663	662.6	0back	Block1	0back/STIM_007.jpg	99
542.842	0.702	702.4	0back	Block1	0back/STIM_007.jpg	100
545.973	0.71	710.5	0back	Block1	0back/STIM_007.jpg	99
548.794	0.726	726.5	0back	Block1	0back/STIM_008.jpg	99
552.477	0.715	714.6	0back	Block1	0back/STIM_008.jpg	99
556.927	0.535	534.8	0back	Block1	0back/STIM_008.jpg	100
560.778	0.504	503.8	0back	Block1	0back/STIM_009.jpg	100
563.518	0.775	775.0	0back	Block1	0back/STIM_009.jpg	100
566.558	0.528	527.6	0back	Block1	0back/STIM_009.jpg	99
569.635	0.714	714.5	0back	Block1	0back/STIM_010.jpg	100
573.311	0.442	442.1	0back	Block1	0back/STIM_010.jpg	100
576.695	0.435	435.2	0back	Block1	0back/STIM_010.jpg	100
580.986	0.828	828.1	0back	Block1	0back/STIM_011.jpg	99
585.81	0.46	460.3	0back	Block1	0back/STIM_011.jpg	99
588.431	0.734	734.5	0back	Block1	0back/STIM_011.jpg	100
592.255	0.576	576.0	0back	Block1	0back/STIM_012.jpg	99
595.798	0.828	828.2	0back	Block1	0back/STIM_012.jpg	100
598.783	0.734	734.0	0back	Block1	0back/STIM_012.jpg	100
602.338	0.424	424.1	0back	Block1	0back/STIM_013.jpg	99
605.989	0.593	592.8	0back	Block1	0back/STIM_013.jpg	99
609.959	0.499	499.0	0back	Block1	0back/STIM_013.jpg	100
613.854	0.782	781.9	0back	Block1	0back/STIM_014.jpg	100
618.425	0.712	712.3	0back	Block1	0back/STIM_014.jpg	100
621.563	0.827	826.6	0back	Block1	0back/STIM_014.jpg	99
625.575	0.688	688.1	0back	Block1	0back/STIM_015.jpg	99
628.824	0.52	520.5	0back	Block1	0back/STIM_015.jpg	99
631.832	0.499	499.2	0back	Block1	0back/STIM_015.jpg	100
634.893	0.823	822.8	0back	Block1	0back/STIM_016.jpg	100
638.698	0.545	544.8	0back	Block1	0back/STIM_016.jpg	100
641.714	0.623	622.6	0back	Block1	0back/STIM_016.jpg	99
645.219	0.527	527.2	0back	Block1	0back/STIM_017.jpg	100
648.973	0.681	681.1	0back	Block1	0back/STIM_017.jpg	100
652.161	0.427	427.1	0back	Block1	0back/STIM_017.jpg	100
656.36	0.628	628.1	0back	Block1	0back/STIM_018.jpg	100
660.42	0.658	658.2	0back	Block1	0back/STIM_018.jpg	100
664.646	0.688	688.1	0back	Block1	0back/STIM_018.jpg	100
667.717	0.653	653.3	0back	Block1	0back/STIM_019.jpg	100
671.621	0.715	715.1	0back	Block1	0back/STIM_019.jpg	99
674.872	0.46	460.3	0back	Block1	0back/STIM_019.jpg	100
678.428	0.918	918.1	2back	Block2	2back/STIM_000.jpg	100
681.515	0.69	690.5	2back	Block2	2back/STIM_000.jpg	99
685.874	0.598	598.2	2back	Block2	2back/STIM_000.jpg	100
688.674	0.718	718.1	2back	Block2	2back/STIM_001.jpg	100
693.013	1.09	1090.2	2back	Block2	2back/STIM_001.jpg	100
696.466	0.752	751.6	2back	Block2	2back/STIM_001.jpg	100
700.5	0.576	576.4	2back	Block2	2back/STIM_002.jpg	99
704.396	0.968	968.4	2back	Block2	2back/STIM_002.jpg	99
708.189	1.002	1002.3	2back	Block2	2back/STIM_002.jpg	100
713.027	0.613	613.4	2back	Block2	2back/STIM_003.jpg	100
716.958	0.85	849.8	2back	Block2	2back/STIM_003.jpg	100
721.47	0.901	900.7	2back	Block2	2back/STIM_003.jpg	99
724.387	0.782	781.7	2back	Block2	2back/STIM_004.jpg	99
728.207	0.55	549.5	2back	Block2	2back/STIM_004.jpg	99
731.749	0.824	823.9	2back	Block2	2back/STIM_004.jpg	100
736.292	0.852	851.5	2back	Block2	2back/STIM_005.jpg	100
739.819	0.699	698.8	2back	Block2	2back/STIM_005.jpg	99
743.551	0.954	954.4	2back	Block2	2back/STIM_005.jpg	100
747.761	1.023	1022.6	2back	Block2	2back/STIM_006.jpg	100
750.83	1.012	1011.7	2back	Block2	2back/STIM_006.jpg	99
754.34	0.604	603.5	2back	Block2	2back/STIM_006.jpg	99
757.576	0.925	924.9	2back	Block2	2back/STIM_007.jpg	99
762.136	1.047	1047.3	2back	Block2	2back/STIM_007.jpg	99
766.41	1.024	1024.3	2back	Block2	2back/STIM_007.jpg	100
771.358	0.846	846.2	2back	Block2	2back/STIM_008.jpg	100
775.252	1.171	1171.4	2back	Block2	2back/STIM_008.jpg	100
778.883	1.069	1068.6	2back	Block2	2back/STIM_008.jpg	99
782.645	0.602	602.3	2back	Block2	2back/STIM_009.jpg	100
786.567	1.076	1076.0	2back	Block2	2back/STIM_009.jpg	100
789.886	0.578	578.3	2back	Block2	2back/STIM_009.jpg	100
793.417	1.226	1225.5	2back	Block2	2back/STIM_010.jpg	100
798.334	0.583	582.9	2back	Block2	2back/STIM_010.jpg	100
801.709	0.939	938.6	2back	Block2	2back/STIM_010.jpg	100
805.565	0.661	661.0	2back	Block2	2back/STIM_011.jpg	99
809.441	0.747	747.2	2back	Block2	2back/STIM_011.jpg	100
813.072	0.513	512.6	2back	Block2	2back/STIM_011.jpg	99
816.392	0.917	917.3	2back	Block2	2back/STIM_012.jpg	99
820.975	0.947	947.1	2back	Block2	2back/STIM_012.jpg	99
824.864	0.801	800.9	2back	Block2	2back/STIM_012.jpg	99
829.54	1.22	1220.4	2back	Block2	2back/STIM_013.jpg	100
833.877	0.738	738.0	2back	Block2	2back/STIM_013.jpg	99
837.162	0.494	493.7	2back	Block2	2back/STIM_013.jpg	100
840.256	0.921	921.0	2back	Block2	2back/STIM_014.jpg	100
844.014	0.811	810.8	2back	Block2	2back/STIM_014.jpg	99
847.299	1.079	1078.7	2back	Block2	2back/STIM_014.jpg	100
851.334	1.049	1049.2	2back	Block2	2back/STIM_015.jpg	100
854.747	0.978	977.6	2back	Block2	2back/STIM_015.jpg	100
858.267	0.497	497.2	2back	Block2	2back/STIM_015.jpg	100
860.977	0.712	712.2	2back	Block2	2back/STIM_016.jpg	100
865.664	0.768	767.8	2back	Block2	2back/STIM_016.jpg	100
869.706	0.635	635.0	2back	Block2	2back/STIM_016.jpg	100
872.957	1.028	1028.5	2back	Block2	2back/STIM_017.jpg	99
877.829	0.514	513.5	2back	Block2	2back/STIM_017.jpg	100
881.089	0.616	615.7	2back	Block2	2back/STIM_017.jpg	100
884.156	1.119	1118.9	2back	Block2	2back/STIM_018.jpg	100
888.267	1.011	1010.9	2back	Block2	2back/STIM_018.jpg	99
891.486	0.999	999.0	2back	Block2	2back/STIM_018.jpg	100
895.224	0.848	848.0	2back	Block2	2back/STIM_019.jpg	99
900.037	0.567	567.2	2back	Block2	2back/STIM_019.jpg	100
903.851	0.647	647.4	2back	Block2	2back/STIM_019.jpg	100
907.724	1.091	1091.0	2back	Block2	2back/STIM_020.jpg	99
912.799	0.635	634.9	2back	Block2	2back/STIM_020.jpg	100
917.336	0.797	796.8	2back	Block2	2back/STIM_020.jpg	100
921.068	1.014	1014.3	2back	Block2	2back/STIM_021.jpg	100
926.054	0.656	656.5	2back	Block2	2back/STIM_021.jpg	100
929.252	0.725	724.9	2back	Block2	2back/STIM_021.jpg	100
933.258	0.55	549.8	2back	Block2	2back/STIM_022.jpg	100
935.951	1.065	1065.3	2back	Block2	2back/STIM_022.jpg	99
939.821	0.538	537.5	2back	Block2	2back/STIM_022.jpg	100
944.145	0.774	773.7	2back	Block2	2back/STIM_023.jpg	100
947.844	0.99	990.5	2back	Block2	2back/STIM_023.jpg	99
951.574	0.768	768.1	2back	Block2	2back/STIM_023.jpg	100
955.149	0.558	558.2	2back	Block2	2back/STIM_024.jpg	99
958.944	0.817	816.7	2back	Block2	2back/STIM_024.jpg	100
963.48	0.99	989.5	2back	Block2	2back/STIM_024.jpg	100
966.764	1.175	1175.0	2back	Block2	2back/STIM_025.jpg	100
970.931	1.053	1052.9	2back	Block2	2back/STIM_025.jpg	100
974.427	0.612	611.7	2back	Block2	2back/STIM_025.jpg	99
977.659	1.181	1181.4	2back	Block2	2back/STIM_026.jpg	99
982.255	0.733	732.6	2back	Block2	2back/STIM_026.jpg	99
985.07	0.899	899.3	2back	Block2	2back/STIM_026.jpg	100
988.158	0.908	908.2	2back	Block2	2back/STIM_027.jpg	99
992.681	1.166	1166.5	2back	Block2	2back/STIM_027.jpg	99
996.239	0.882	881.7	2back	Block2	2back/STIM_027.jpg	100
999.243	1.112	1112.1	2back	Block2	2back/STIM_028.jpg	100
1002.455	0.909	908.6	2back	Block2	2back/STIM_028.jpg	99
1005.902	0.726	725.6	2back	Block2	2back/STIM_028.jpg	99
1009.035	1.06	1059.9	2back	Block2	2back/STIM_029.jpg	100
1013.91	0.538	537.6	2back	Block2	2back/STIM_029.jpg	100
1018.077	0.962	962.1	2back	Block2	2back/STIM_029.jpg	99
1021.997	0.913	913.1	2back	Block2	2back/STIM_030.jpg	100
1025.581	0.872	872.3	2back	Block2	2back/STIM_030.jpg	99
1030.435	0.88	880.3	2back	Block2	2back/STIM_030.jpg	99
1034.688	0.879	879.1	2back	Block2	2back/STIM_031.jpg	99
1038.969	1.095	1095.0	2back	Block2	2back/STIM_031.jpg	99
1042.915	0.813	813.1	2back	Block2	2back/STIM_031.jpg	100
1046.049	0.818	818.2	2back	Block2	2back/STIM_032.jpg	99
1049.649	0.55	550.1	2back	Block2	2back/STIM_032.jpg	99
1053.455	0.756	755.5	2back	Block2	2back/STIM_032.jpg	99
1057.369	1.241	1241.2	2back	Block2	2back/STIM_033.jpg	100
1061.119	0.689	689.4	2back	Block2	2back/STIM_033.jpg	99
1065.58	0.483	482.6	2back	Block2	2back/STIM_033.jpg	99
1068.533	0.829	828.9	2back	Block2	2back/STIM_034.jpg	99
1073.23	1.062	1061.7	2back	Block2	2back/STIM_034.jpg	99
1077.486	0.619	619.0	2back	Block2	2back/STIM_034.jpg	99
1081.938	0.852	852.2	2back	Block2	2back/STIM_035.jpg	100
1085.037	0.917	917.1	2back	Block2	2back/STIM_035.jpg	100
1089.89	0.932	932.5	2back	Block2	2back/STIM_035.jpg	99
1092.95	1.207	1206.6	2back	Block2	2back/STIM_036.jpg	99
1096.181	0.939	939.3	2back	Block2	2back/STIM_036.jpg	100
1099.805	0.478	478.0	2back	Block2	2back/STIM_036.jpg	100
1103.655	0.725	725.0	2back	Block2	2back/STIM_037.jpg	99
1106.728	0.984	983.9	2back	Block2	2back/STIM_037.jpg	99
1111.361	0.67	670.4	2back	Block2	2back/STIM_037.jpg	99
1115.47	1.086	1085.8	2back	Block2	2back/STIM_038.jpg	99
1118.92	0.702	701.8	2back	Block2	2back/STIM_038.jpg	99
1123.312	1.034	1034.5	2back	Block2	2back/STIM_038.jpg	100
1127.398	0.779	779.1	2back	Block2	2back/STIM_039.jpg	100
1131.257	0.878	878.3	2back	Block2	2back/STIM_039.jpg	99
1135.188	0.837	837.3	2back	Block2	2back/STIM_039.jpg	100
1138.293	0.537	537.4	0back	Block2	0back/STIM_000.jpg	99
1141.039	0.559	559.3	0back	Block2	0back/STIM_000.jpg	99
1144.237	0.692	691.8	0back	Block2	0back/STIM_000.jpg	99
1147.999	0.695	695.2	0back	Block2	0back/STIM_001.jpg	100
1150.928	0.694	694.3	0back	Block2	0back/STIM_001.jpg	99
1154.349	0.466	465.5	0back	Block2	0back/STIM_001.jpg	99
1157.853	0.427	427.2	0back	Block2	0back/STIM_002.jpg	100
1160.927	0.783	783.4	0back	Block2	0back/STIM_002.jpg	99
1165.092	0.491	490.6	0back	Block2	0back/STIM_002.jpg	99
1167.732	0.499	499.3	0back	Block2	0back/STIM_003.jpg	100
1172.029	0.691	691.1	0back	Block2	0back/STIM_003.jpg	99
1175.138	0.439	439.1	0back	Block2	0back/STIM_003.jpg	99
1179.08	0.761	760.8	0back	Block2	0back/STIM_004.jpg	100
1182.253	0.668	667.8	0back	Block2	0back/STIM_004.jpg	100
1186.08	0.578	578.0	0back	Block2	0back/STIM_004.jpg	99
1188.805	0.564	564.0	0back	Block2	0back/STIM_005.jpg	99
1191.643	0.614	613.9	0back	Block2	0back/STIM_005.jpg	99
1195.133	0.689	689.2	0back	Block2	0back/STIM_005.jpg	99
1199.62	0.706	705.9	0back	Block2	0back/STIM_006.jpg	99
1203.653	0.81	809.6	0back	Block2	0back/STIM_006.jpg	99
1208.021	0.561	560.9	0back	Block2	0back/STIM_006.jpg	100
1211.199	0.584	584.0	0back	Block2	0back/STIM_007.jpg	100
1215.224	0.712	711.7	0back	Block2	0back/STIM_007.jpg	99
1218.038	0.535	534.9	0back	Block2	0back/STIM_007.jpg	99
1221.26	0.641	641.4	0back	Block2	0back/STIM_008.jpg	100
1225.215	0.719	719.4	0back	Block2	0back/STIM_008.jpg	100
1229.795	0.48	480.2	0back	Block2	0back/STIM_008.jpg	100
1233.951	0.758	758.0	0back	Block2	0back/STIM_009.jpg	100
1237.38	0.804	803.5	0back	Block2	0back/STIM_009.jpg	99
1240.575	0.753	752.8	0back	Block2	0back/STIM_009.jpg	100
1244.891	0.594	594.2	0back	Block2	0back/STIM_010.jpg	99
1247.659	0.492	492.0	0back	Block2	0back/STIM_010.jpg	100
1251.834	0.585	585.1	0back	Block2	0back/STIM_010.jpg	99
1255.592	0.692	692.1	0back	Block2	0back/STIM_011.jpg	100
1258.46	0.664	664.1	0back	Block2	0back/STIM_011.jpg	100
1261.8	0.614	614.3	0back	Block2	0back/STIM_011.jpg	100
1264.636	0.685	685.1	0back	Block2	0back/STIM_012.jpg	99
1268.042	0.572	572.2	0back	Block2	0back/STIM_012.jpg	99
1271.04	0.615	615.1	0back	Block2	0back/STIM_012.jpg	99
1275.343	0.542	541.7	0back	Block2	0back/STIM_013.jpg	100
1279.497	0.5	500.0	0back	Block2	0back/STIM_013.jpg	99
1282.499	0.682	681.5	0back	Block2	0back/STIM_013.jpg	100
1285.819	0.661	660.8	0back	Block2	0back/STIM_014.jpg	99
1289.026	0.728	728.4	0back	Block2	0back/STIM_014.jpg	99
1291.775	0.542	542.5	0back	Block2	0back/STIM_014.jpg	99
1296.185	0.828	827.8	0back	Block2	0back/STIM_015.jpg	99
1299.81	0.676	676.5	0back	Block2	0back/STIM_015.jpg	99
1302.678	0.826	826.0	0back	Block2	0back/STIM_015.jpg	99
1306.317	0.5	499.9	0back	Block2	0back/STIM_016.jpg	100
1309.024	0.678	677.8	0back	Block2	0back/STIM_016.jpg	99
1313.48	0.626	626.5	0back	Block2	0back/STIM_016.jpg	100
1316.38	0.438	438.5	0back	Block2	0back/STIM_017.jpg	99
1320.007	0.638	638.4	0back	Block2	0back/STIM_017.jpg	99
1324.255	0.723	723.3	0back	Block2	0back/STIM_017.jpg	100
1327.014	0.678	678.3	0back	Block2	0back/STIM_018.jpg	100
1330.86	0.748	747.5	0back	Block2	0back/STIM_018.jpg	99
1333.913	0.769	768.8	0back	Block2	0back/STIM_018.jpg	99
1338.221	0.563	563.2	0back	Block2	0back/STIM_019.jpg	99
1341.759	0.645	645.1	0back	Block2	0back/STIM_019.jpg	100
1345.677	0.498	497.9	0back	Block2	0back/STIM_019.jpg	99
1348.763	0.613	612.8	2back	Block3	2back/STIM_000.jpg	99
1351.925	0.557	557.4	2back	Block3	2back/STIM_000.jpg	99
1355.64	0.662	661.8	2back	Block3	2back/STIM_000.jpg	99
1360.134	0.907	907.1	2back	Block3	2back/STIM_001.jpg	99
1364.243	0.856	855.5	2back	Block3	2back/STIM_001.jpg	100
1367.559	0.649	649.1	2back	Block3	2back/STIM_001.jpg	100
1371.875	0.606	605.8	2back	Block3	2back/STIM_002.jpg	99
1375.796	0.727	726.8	2back	Block3	2back/STIM_002.jpg	100
1380.472	0.586	585.7	2back	Block3	2back/STIM_002.jpg	100
1384.08	0.59	589.7	2back	Block3	2back/STIM_003.jpg	99
1387.427	0.521	521.0	2back	Block3	2back/STIM_003.jpg	99
1391.935	0.486	486.1	2back	Block3	2back/STIM_003.jpg	100
1396.222	0.692	692.0	2back	Block3	2back/STIM_004.jpg	99
1399.479	0.626	625.9	2back	Block3	2back/STIM_004.jpg	99
1402.394	0.904	903.6	2back	Block3	2back/STIM_004.jpg	99
1405.653	0.922	921.5	2back	Block3	2back/STIM_005.jpg	100
1409.693	0.996	996.2	2back	Block3	2back/STIM_005.jpg	99
1414.488	0.721	721.3	2back	Block3	2back/STIM_005.jpg	99
1417.221	0.446	445.8	2back	Block3	2back/STIM_006.jpg	99
1419.732	0.482	482.5	2back	Block3	2back/STIM_006.jpg	100
1423.839	0.986	985.6	2back	Block3	2back/STIM_006.jpg	100
1428.377	0.626	626.1	2back	Block3	2back/STIM_007.jpg	100
1432.485	0.579	579.0	2back	Block3	2back/STIM_007.jpg	99
1436.734	0.913	913.1	2back	Block3	2back/STIM_007.jpg	99
1440.227	0.688	687.9	2back	Block3	2back/STIM_008.jpg	100
1444.439	0.922	921.9	2back	Block3	2back/STIM_008.jpg	99
1447.706	1.01	1010.2	2back	Block3	2back/STIM_008.jpg	99
1452.36	0.653	653.2	2back	Block3	2back/STIM_009.jpg	99
1455.87	0.893	892.6	2back	Block3	2back/STIM_009.jpg	99
1459.627	0.8	800.1	2back	Block3	2back/STIM_009.jpg	99
1464.354	0.68	680.0	2back	Block3	2back/STIM_010.jpg	99
1468.583	1.019	1019.2	2back	Block3	2back/STIM_010.jpg	100
1471.955	0.696	695.6	2back	Block3	2back/STIM_010.jpg	99
1475.075	0.609	609.0	2back	Block3	2back/STIM_011.jpg	99
1479.343	0.64	639.7	2back	Block3	2back/STIM_011.jpg	99
1483.004	0.597	597.3	2back	Block3	2back/STIM_011.jpg	99
1486.279	1.0	999.5	2back	Block3	2back/STIM_012.jpg	99
1489.627	0.595	595.2	2back	Block3	2back/STIM_012.jpg	100
1493.835	0.556	555.5	2back	Block3	2back/STIM_012.jpg	99
1496.54	0.457	456.9	2back	Block3	2back/STIM_013.jpg	100
1500.645	0.559	559.3	2back	Block3	2back/STIM_013.jpg	99
1504.093	0.808	808.0	2back	Block3	2back/STIM_013.jpg	100
1508.043	0.728	727.8	2back	Block3	2back/STIM_014.jpg	99
1510.794	0.623	623.0	2back	Block3	2back/STIM_014.jpg	100
1514.395	0.823	822.6	2back	Block3	2back/STIM_014.jpg	99
1517.707	0.484	484.0	2back	Block3	2back/STIM_015.jpg	100
1520.493	0.581	581.4	2back	Block3	2back/STIM_015.jpg	99
1524.008	0.584	584.0	2back	Block3	2back/STIM_015.jpg	99
1527.95	0.781	780.7	2back	Block3	2back/STIM_016.jpg	99
1531.275	0.7	700.1	2back	Block3	2back/STIM_016.jpg	100
1535.191	0.611	611.0	2back	Block3	2back/STIM_016.jpg	100
1538.73	0.452	452.1	2back	Block3	2back/STIM_017.jpg	100
1543.135	0.914	914.0	2back	Block3	2back/STIM_017.jpg	100
1546.886	0.854	853.6	2back	Block3	2back/STIM_017.jpg	100
1551.572	0.98	980.1	2back	Block3	2back/STIM_018.jpg	99
1556.46	0.859	858.8	2back	Block3	2back/STIM_018.jpg	99
1561.293	0.668	668.5	2back	Block3	2back/STIM_018.jpg	100
1564.145	0.811	811.2	2back	Block3	2back/STIM_019.jpg	99
1567.557	0.598	598.3	2back	Block3	2back/STIM_019.jpg	99
1571.258	0.78	780.2	2back	Block3	2back/STIM_019.jpg	99
1574.224	0.579	579.1	2back	Block3	2back/STIM_020.jpg	99
1577.592	0.825	825.0	2back	Block3	2back/STIM_020.jpg	100
1581.89	0.881	881.1	2back	Block3	2back/STIM_020.jpg	100
1586.215	0.825	825.3	2back	Block3	2back/STIM_021.jpg	99
1590.753	0.555	555.4	2back	Block3	2back/STIM_021.jpg	100
1593.746	0.962	961.8	2back	Block3	2back/STIM_021.jpg	100
1596.748	0.859	859.4	2back	Block3	2back/STIM_022.jpg	99
1601.182	0.692	692.1	2back	Block3	2back/STIM_022.jpg	100
1604.343	0.88	880.5	2back	Block3	2back/STIM_022.jpg	100
1608.288	0.442	442.5	2back	Block3	2back/STIM_023.jpg	100
1611.721	1.016	1016.4	2back	Block3	2back/STIM_023.jpg	99
1614.795	0.665	664.7	2back	Block3	2back/STIM_023.jpg	100
1617.632	0.913	912.8	2back	Block3	2back/STIM_024.jpg	100
1622.28	0.655	654.7	2back	Block3	2back/STIM_024.jpg	99
1625.673	0.609	609.4	2back	Block3	2back/STIM_024.jpg	99
1630.159	0.979	979.0	2back	Block3	2back/STIM_025.jpg	100
1634.544	0.936	935.8	2back	Block3	2back/STIM_025.jpg	100
1639.19	0.655	655.1	2back	Block3	2back/STIM_025.jpg	99
1643.176	0.68	680.2	2back	Block3	2back/STIM_026.jpg	100
1646.533	0.876	876.0	2back	Block3	2back/STIM_026.jpg	99
1650.564	0.95	950.4	2back	Block3	2back/STIM_026.jpg	100
1654.559	0.891	890.8	2back	Block3	2back/STIM_027.jpg	99
1658.215	0.616	615.6	2back	Block3	2back/STIM_027.jpg	100
1661.65	0.992	991.6	2back	Block3	2back/STIM_027.jpg	99
1665.283	0.962	962.0	2back	Block3	2back/STIM_028.jpg	99
1669.627	0.881	881.1	2back	Block3	2back/STIM_028.jpg	100
1673.205	0.457	456.9	2back	Block3	2back/STIM_028.jpg	99
1676.646	0.602	602.1	2back	Block3	2back/STIM_029.jpg	99
1679.72	0.544	544.1	2back	Block3	2back/STIM_029.jpg	100
1682.806	0.566	566.0	2back	Block3	2back/STIM_029.jpg	99
1687.067	0.475	475.2	2back	Block3	2back/STIM_030.jpg	100
1689.622	0.445	444.7	2back	Block3	2back/STIM_030.jpg	99
1692.53	0.475	475.1	2back	Block3	2back/STIM_030.jpg	100
1696.21	0.448	447.9	2back	Block3	2back/STIM_031.jpg	100
1698.661	0.533	532.7	2back	Block3	2back/STIM_031.jpg	100
1701.802	0.953	953.4	2back	Block3	2back/STIM_031.jpg	100
1705.213	0.764	764.1	2back	Block3	2back/STIM_032.jpg	99
1708.226	0.547	547.3	2back	Block3	2back/STIM_032.jpg	100
1711.839	0.566	566.2	2back	Block3	2back/STIM_032.jpg	99
1715.408	0.512	512.3	2back	Block3	2back/STIM_033.jpg	100
1718.507	0.536	535.9	2back	Block3	2back/STIM_033.jpg	100
1721.933	0.927	927.0	2back	Block3	2back/STIM_033.jpg	99
1725.823	0.762	761.5	2back	Block3	2back/STIM_034.jpg	100
1730.067	0.773	773.3	2back	Block3	2back/STIM_034.jpg	100
1733.024	0.948	948.4	2back	Block3	2back/STIM_034.jpg	99
1737.482	0.68	680.0	2back	Block3	2back/STIM_035.jpg	99
1741.179	0.589	588.8	2back	Block3	2back/STIM_035.jpg	99
1744.331	0.793	793.0	2back	Block3	2back/STIM_035.jpg	99
1747.779	0.462	461.8	2back	Block3	2back/STIM_036.jpg	99
1751.63	0.524	524.5	2back	Block3	2back/STIM_036.jpg	100
1755.698	0.746	746.5	2back	Block3	2back/STIM_036.jpg	100
1759.2	0.565	564.6	2back	Block3	2back/STIM_037.jpg	100
1762.549	0.556	555.5	2back	Block3	2back/STIM_037.jpg	100
1766.661	0.808	808.3	2back	Block3	2back/STIM_037.jpg	99
1771.127	0.553	553.2	2back	Block3	2back/STIM_038.jpg	100
1775.57	0.563	563.2	2back	Block3	2back/STIM_038.jpg	100
1779.632	0.617	616.9	2back	Block3	2back/STIM_038.jpg	100
1783.771	0.515	515.0	2back	Block3	2back/STIM_039.jpg	99
1786.841	0.791	791.3	2back	Block3	2back/STIM_039.jpg	99
1791.477	0.486	485.8	2back	Block3	2back/STIM_039.jpg	99
1794.981	0.658	658.4	0back	Block3	0back/STIM_000.jpg	99
1798.606	0.83	829.8	0back	Block3	0back/STIM_000.jpg	100
1802.829	0.586	585.5	0back	Block3	0back/STIM_000.jpg	100
1805.686	0.802	801.6	0back	Block3	0back/STIM_001.jpg	99
1809.379	0.43	429.7	0back	Block3	0back/STIM_001.jpg	99
1812.871	0.642	641.6	0back	Block3	0back/STIM_001.jpg	99
1816.033	0.481	481.2	0back	Block3	0back/STIM_002.jpg	100
1819.479	0.52	519.9	0back	Block3	0back/STIM_002.jpg	99
1823.37	0.688	688.5	0back	Block3	0back/STIM_002.jpg	100
1826.797	0.763	762.9	0back	Block3	0back/STIM_003.jpg	100
1831.502	0.751	751.2	0back	Block3	0back/STIM_003.jpg	99
1835.113	0.582	582.0	0back	Block3	0back/STIM_003.jpg	99
1837.848	0.524	523.5	0back	Block3	0back/STIM_004.jpg	99
1842.065	0.423	422.6	0back	Block3	0back/STIM_004.jpg	99
1846.242	0.803	803.0	0back	Block3	0back/STIM_004.jpg	100
1849.726	0.766	766.4	0back	Block3	0back/STIM_005.jpg	100
1852.876	0.426	426.5	0back	Block3	0back/STIM_005.jpg	100
1857.271	0.452	452.2	0back	Block3	0back/STIM_005.jpg	100
1860.012	0.563	563.0	0back	Block3	0back/STIM_006.jpg	100
1864.266	0.682	682.1	0back	Block3	0back/STIM_006.jpg	99
1868.284	0.496	495.5	0back	Block3	0back/STIM_006.jpg	99
1872.336	0.722	722.4	0back	Block3	0back/STIM_007.jpg	99
1875.538	0.633	633.4	0back	Block3	0back/STIM_007.jpg	99
1878.34	0.453	453.2	0back	Block3	0back/STIM_007.jpg	100
1882.769	0.426	426.4	0back	Block3	0back/STIM_008.jpg	100
1887.023	0.638	638.0	0back	Block3	0back/STIM_008.jpg	100
1890.435	0.72	720.4	0back	Block3	0back/STIM_008.jpg	100
1893.877	0.646	645.8	0back	Block3	0back/STIM_009.jpg	99
1898.273	0.6	599.9	0back	Block3	0back/STIM_009.jpg	99
1902.544	0.58	579.5	0back	Block3	0back/STIM_009.jpg	100
1905.239	0.729	729.4	0back	Block3	0back/STIM_010.jpg	100
1908.556	0.828	828.3	0back	Block3	0back/STIM_010.jpg	99
1912.718	0.554	554.1	0back	Block3	0back/STIM_010.jpg	100
1917.183	0.531	530.7	0back	Block3	0back/STIM_011.jpg	100
1919.82	0.615	615.2	0back	Block3	0back/STIM_011.jpg	99
1924.384	0.64	640.1	0back	Block3	0back/STIM_011.jpg	100
1927.231	0.705	704.6	0back	Block3	0back/STIM_012.jpg	99
1931.891	0.554	554.4	0back	Block3	0back/STIM_012.jpg	99
1935.226	0.534	533.7	0back	Block3	0back/STIM_012.jpg	100
1937.948	0.535	535.1	0back	Block3	0back/STIM_013.jpg	99
1942.325	0.789	788.6	0back	Block3	0back/STIM_013.jpg	100
1946.807	0.476	476.1	0back	Block3	0back/STIM_013.jpg	100
1950.728	0.783	783.0	0back	Block3	0back/STIM_014.jpg	100
1955.021	0.626	626.3	0back	Block3	0back/STIM_014.jpg	100
1958.574	0.815	814.9	0back	Block3	0back/STIM_014.jpg	99
1962.717	0.628	628.4	0back	Block3	0back/STIM_015.jpg	100
1967.275	0.478	477.8	0back	Block3	0back/STIM_015.jpg	99
1970.681	0.61	610.1	0back	Block3	0back/STIM_015.jpg	99
1973.293	0.782	782.1	0back	Block3	0back/STIM_016.jpg	100
1977.227	0.428	428.2	0back	Block3	0back/STIM_016.jpg	100
1979.94	0.47	469.5	0back	Block3	0back/STIM_016.jpg	100
1983.745	0.598	598.5	0back	Block3	0back/STIM_017.jpg	99
1987.532	0.476	475.9	0back	Block3	0back/STIM_017.jpg	99
1990.559	0.757	756.7	0back	Block3	0back/STIM_017.jpg	100
1994.846	0.646	646.5	0back	Block3	0back/STIM_018.jpg	100
1997.592	0.528	528.3	0back	Block3	0back/STIM_018.jpg	99
2000.218	0.616	616.1	0back	Block3	0back/STIM_018.jpg	99
2003.616	0.672	671.5	0back	Block3	0back/STIM_019.jpg	100
2006.897	0.75	749.5	0back	Block3	0back/STIM_019.jpg	99
2009.826	0.735	734.7	0back	Block3	0back/STIM_019.jpg	99
2013.264	0.547	546.8	2back	Block4	2back/STIM_000.jpg	100
2016.771	0.492	492.0	2back	Block4	2back/STIM_000.jpg	99
2019.638	0.454	454.1	2back	Block4	2back/STIM_000.jpg	100
2022.909	0.517	517.3	2back	Block4	2back/STIM_001.jpg	100
2025.91	0.512	512.3	2back	Block4	2back/STIM_001.jpg	100
2030.113	0.947	946.6	2back	Block4	2back/STIM_001.jpg	99
2034.306	0.866	866.3	2back	Block4	2back/STIM_002.jpg	100
2037.705	0.701	701.0	2back	Block4	2back/STIM_002.jpg	99
2041.301	0.839	838.7	2back	Block4	2back/STIM_002.jpg	99
2045.369	1.005	1005.2	2back	Block4	2back/STIM_003.jpg	99
2049.411	0.818	818.5	2back	Block4	2back/STIM_003.jpg	100
2052.642	0.776	776.5	2back	Block4	2back/STIM_003.jpg	100
2055.993	0.709	708.6	2back	Block4	2back/STIM_004.jpg	99
2059.069	0.533	532.8	2back	Block4	2back/STIM_004.jpg	99
2062.134	0.986	986.3	2back	Block4	2back/STIM_004.jpg	99
2065.384	0.579	578.6	2back	Block4	2back/STIM_005.jpg	99
2068.185	0.772	772.4	2back	Block4	2back/STIM_005.jpg	100
2071.465	0.739	738.8	2back	Block4	2back/STIM_005.jpg	99
2075.872	0.599	598.9	2back	Block4	2back/STIM_006.jpg	99
2078.478	0.851	850.6	2back	Block4	2back/STIM_006.jpg	99
2082.35	0.601	601.0	2back	Block4	2back/STIM_006.jpg	100
2086.558	0.915	915.4	2back	Block4	2back/STIM_007.jpg	100
2090.495	0.848	848.0	2back	Block4	2back/STIM_007.jpg	100
2093.6	0.624	623.9	2back	Block4	2back/STIM_007.jpg	99
2096.802	0.777	777.1	2back	Block4	2back/STIM_008.jpg	100
2100.642	0.725	725.2	2back	Block4	2back/STIM_008.jpg	100
2105.2	0.548	547.8	2back	Block4	2back/STIM_008.jpg	100
2109.336	0.562	561.5	2back	Block4	2back/STIM_009.jpg	99
2112.632	0.636	635.9	2back	Block4	2back/STIM_009.jpg	99
2115.932	0.86	859.9	2back	Block4	2back/STIM_009.jpg	99
2119.084	0.943	943.0	2back	Block4	2back/STIM_010.jpg	100
2122.988	0.928	927.5	2back	Block4	2back/STIM_010.jpg	99
2126.896	0.788	787.5	2back	Block4	2back/STIM_010.jpg	100
2130.432	0.465	465.3	2back	Block4	2back/STIM_011.jpg	100
2133.827	0.925	925.0	2back	Block4	2back/STIM_011.jpg	100
2137.4	0.456	456.4	2back	Block4	2back/STIM_011.jpg	99
2141.535	0.478	478.1	2back	Block4	2back/STIM_012.jpg	99
2144.582	0.469	468.7	2back	Block4	2back/STIM_012.jpg	99
2148.899	0.509	508.7	2back	Block4	2back/STIM_012.jpg	99
2152.617	0.704	704.0	2back	Block4	2back/STIM_013.jpg	99
2157.254	0.813	812.7	2back	Block4	2back/STIM_013.jpg	99
2161.545	0.558	558.0	2back	Block4	2back/STIM_013.jpg	100
2166.093	1.01	1009.9	2back	Block4	2back/STIM_014.jpg	99
2170.732	0.863	862.6	2back	Block4	2back/STIM_014.jpg	100
2174.718	0.647	646.6	2back	Block4	2back/STIM_014.jpg	100
2177.763	1.02	1019.7	2back	Block4	2back/STIM_015.jpg	100
2181.253	1.018	1018.5	2back	Block4	2back/STIM_015.jpg	100
2185.324	0.912	911.7	2back	Block4	2back/STIM_015.jpg	100
2189.349	0.841	841.0	2back	Block4	2back/STIM_016.jpg	99
2192.545	0.997	997.2	2back	Block4	2back/STIM_016.jpg	100
2196.297	0.626	625.6	2back	Block4	2back/STIM_016.jpg	100
2200.425	0.739	739.0	2back	Block4	2back/STIM_017.jpg	100
2204.879	0.494	493.9	2back	Block4	2back/STIM_017.jpg	99
2208.91	0.809	808.7	2back	Block4	2back/STIM_017.jpg	100
2213.393	0.514	513.9	2back	Block4	2back/STIM_018.jpg	100
2216.885	0.742	741.8	2back	Block4	2back/STIM_018.jpg	99
2220.509	0.776	776.1	2back	Block4	2back/STIM_018.jpg	100
2223.922	0.802	802.5	2back	Block4	2back/STIM_019.jpg	100
2227.51	0.702	701.5	2back	Block4	2back/STIM_019.jpg	99
2232.034	0.88	880.4	2back	Block4	2back/STIM_019.jpg	99
2235.747	0.986	986.2	2back	Block4	2back/STIM_020.jpg	99
2239.484	0.49	490.1	2back	Block4	2back/STIM_020.jpg	99
2242.027	0.807	807.1	2back	Block4	2back/STIM_020.jpg	100
2245.27	0.875	874.7	2back	Block4	2back/STIM_021.jpg	99
2248.38	0.49	490.0	2back	Block4	2back/STIM_021.jpg	99
2251.948	0.506	506.3	2back	Block4	2back/STIM_021.jpg	100
2256.116	0.799	798.7	2back	Block4	2back/STIM_022.jpg	100
2260.005	0.976	975.6	2back	Block4	2back/STIM_022.jpg	99
2264.278	0.443	442.8	2back	Block4	2back/STIM_022.jpg	99
2267.709	0.786	785.6	2back	Block4	2back/STIM_023.jpg	99
2272.483	0.906	906.4	2back	Block4	2back/STIM_023.jpg	99
2276.482	0.66	660.0	2back	Block4	2back/STIM_023.jpg	99
2279.596	0.767	767.0	2back	Block4	2back/STIM_024.jpg	99
2283.267	0.944	943.7	2back	Block4	2back/STIM_024.jpg	99
2286.581	0.596	595.6	2back	Block4	2back/STIM_024.jpg	99
2291.109	0.927	927.3	2back	Block4	2back/STIM_025.jpg	100
2295.36	0.806	806.5	2back	Block4	2back/STIM_025.jpg	100
2299.41	0.61	609.7	2back	Block4	2back/STIM_025.jpg	99
2303.444	0.869	868.7	2back	Block4	2back/STIM_026.jpg	99
2307.161	0.974	974.2	2back	Block4	2back/STIM_026.jpg	99
2312.003	0.957	957.2	2back	Block4	2back/STIM_026.jpg	100
2315.821	1.003	1003.2	2back	Block4	2back/STIM_027.jpg	100
2319.569	0.566	566.2	2back	Block4	2back/STIM_027.jpg	99
2322.867	0.816	815.8	2back	Block4	2back/STIM_027.jpg	100
2325.694	0.707	706.9	2back	Block4	2back/STIM_028.jpg	99
2329.893	0.914	913.9	2back	Block4	2back/STIM_028.jpg	99
2333.539	0.937	936.8	2back	Block4	2back/STIM_028.jpg	100
2337.943	0.958	958.2	2back	Block4	2back/STIM_029.jpg	100
2341.762	0.934	934.4	2back	Block4	2back/STIM_029.jpg	99
2346.325	0.801	801.4	2back	Block4	2back/STIM_029.jpg	100
2349.6	0.913	913.3	2back	Block4	2back/STIM_030.jpg	99
2353.319	0.88	880.2	2back	Block4	2back/STIM_030.jpg	99
2357.1	0.982	982.5	2back	Block4	2back/STIM_030.jpg	99
2360.984	0.851	851.3	2back	Block4	2back/STIM_031.jpg	100
2364.612	0.862	862.3	2back	Block4	2back/STIM_031.jpg	99
2368.554	1.003	1003.4	2back	Block4	2back/STIM_031.jpg	99
2372.57	0.806	806.1	2back	Block4	2back/STIM_032.jpg	100
2376.832	0.747	746.7	2back	Block4	2back/STIM_032.jpg	99
2380.6	0.76	760.0	2back	Block4	2back/STIM_032.jpg	100
2385.15	0.995	995.1	2back	Block4	2back/STIM_033.jpg	99
2389.721	0.722	722.0	2back	Block4	2back/STIM_033.jpg	99
2394.316	0.619	619.4	2back	Block4	2back/STIM_033.jpg	100
2397.279	0.659	658.8	2back	Block4	2back/STIM_034.jpg	100
2399.986	0.731	731.4	2back	Block4	2back/STIM_034.jpg	100
2404.368	0.442	441.5	2back	Block4	2back/STIM_034.jpg	99
2408.24	0.589	588.6	2back	Block4	2back/STIM_035.jpg	99
2411.127	0.541	540.9	2back	Block4	2back/STIM_035.jpg	99
2415.653	1.021	1021.2	2back	Block4	2back/STIM_035.jpg	100
2419.133	0.516	516.2	2back	Block4	2back/STIM_036.jpg	100
2423.417	0.763	763.3	2back	Block4	2back/STIM_036.jpg	99
2426.819	0.52	519.8	2back	Block4	2back/STIM_036.jpg	99
2429.729	0.735	735.2	2back	Block4	2back/STIM_037.jpg	100
2433.148	0.683	682.8	2back	Block4	2back/STIM_037.jpg	100
2436.286	0.906	905.5	2back	Block4	2back/STIM_037.jpg	99
2440.015	0.668	667.7	2back	Block4	2back/STIM_038.jpg	100
2443.938	0.566	566.1	2back	Block4	2back/STIM_038.jpg	99
2446.512	0.911	911.2	2back	Block4	2back/STIM_038.jpg	100
2449.795	0.544	544.5	2back	Block4	2back/STIM_039.jpg	100
2452.658	0.835	834.6	2back	Block4	2back/STIM_039.jpg	100
2457.363	0.956	955.7	2back	Block4	2back/STIM_039.jpg	100
2461.694	0.568	568.1	0back	Block4	0back/STIM_000.jpg	100
2464.909	0.508	508.1	0back	Block4	0back/STIM_000.jpg	99
2468.755	0.74	739.9	0back	Block4	0back/STIM_000.jpg	99
2473.268	0.615	615.3	0back	Block4	0back/STIM_001.jpg	100
2477.851	0.549	548.6	0back	Block4	0back/STIM_001.jpg	99
2481.051	0.817	817.3	0back	Block4	0back/STIM_001.jpg	100
2485.809	0.693	693.2	0back	Block4	0back/STIM_002.jpg	99
2489.171	0.579	579.0	0back	Block4	0back/STIM_002.jpg	99
2492.445	0.607	606.7	0back	Block4	0back/STIM_002.jpg	99
2496.934	0.757	756.6	0back	Block4	0back/STIM_003.jpg	100
2500.708	0.753	752.8	0back	Block4	0back/STIM_003.jpg	100
2504.783	0.454	454.2	0back	Block4	0back/STIM_003.jpg	100
2507.965	0.44	439.5	0back	Block4	0back/STIM_004.jpg	100
2511.339	0.462	462.4	0back	Block4	0back/STIM_004.jpg	100
2515.455	0.568	568.1	0back	Block4	0back/STIM_004.jpg	100
2519.831	0.563	562.7	0back	Block4	0back/STIM_005.jpg	100
2523.8	0.733	732.7	0back	Block4	0back/STIM_005.jpg	100
2527.926	0.464	464.2	0back	Block4	0back/STIM_005.jpg	100
2531.858	0.454	454.4	0back	Block4	0back/STIM_006.jpg	100
2536.211	0.724	724.5	0back	Block4	0back/STIM_006.jpg	100
2539.063	0.629	629.1	0back	Block4	0back/STIM_006.jpg	100
2541.799	0.455	455.3	0back	Block4	0back/STIM_007.jpg	100
2546.172	0.692	691.8	0back	Block4	0back/STIM_007.jpg	99
2549.018	0.573	572.6	0back	Block4	0back/STIM_007.jpg	100
2552.935	0.81	810.3	0back	Block4	0back/STIM_008.jpg	99
2557.187	0.722	722.0	0back	Block4	0back/STIM_008.jpg	100
2561.369	0.74	740.3	0back	Block4	0back/STIM_008.jpg	99
2565.434	0.626	626.4	0back	Block4	0back/STIM_009.jpg	99
2569.485	0.5	500.5	0back	Block4	0back/STIM_009.jpg	99
2572.645	0.633	633.2	0back	Block4	0back/STIM_009.jpg	100
2577.039	0.49	489.8	0back	Block4	0back/STIM_010.jpg	100
2581.329	0.57	570.0	0back	Block4	0back/STIM_010.jpg	99
2585.496	0.593	593.3	0back	Block4	0back/STIM_010.jpg	100
2589.589	0.818	817.8	0back	Block4	0back/STIM_011.jpg	99
2593.932	0.726	725.6	0back	Block4	0back/STIM_011.jpg	99
2596.925	0.743	743.2	0back	Block4	0back/STIM_011.jpg	100
2600.557	0.492	492.5	0back	Block4	0back/STIM_012.jpg	99
2603.313	0.479	478.7	0back	Block4	0back/STIM_012.jpg	100
2607.413	0.703	703.4	0back	Block4	0back/STIM_012.jpg	100
2612.035	0.59	590.3	0back	Block4	0back/STIM_013.jpg	100
2616.542	0.48	480.0	0back	Block4	0back/STIM_013.jpg	100
2620.648	0.577	576.9	0back	Block4	0back/STIM_013.jpg	99
2623.809	0.63	629.7	0back	Block4	0back/STIM_014.jpg	99
2627.815	0.815	814.6	0back	Block4	0back/STIM_014.jpg	100
2630.673	0.711	710.6	0back	Block4	0back/STIM_014.jpg	100
2633.951	0.597	597.2	0back	Block4	0back/STIM_015.jpg	99
2636.659	0.48	480.0	0back	Block4	0back/STIM_015.jpg	99
2639.182	0.637	636.9	0back	Block4	0back/STIM_015.jpg	100
2642.271	0.5	500.5	0back	Block4	0back/STIM_016.jpg	100
2644.822	0.613	612.6	0back	Block4	0back/STIM_016.jpg	99
2648.305	0.512	512.5	0back	Block4	0back/STIM_016.jpg	100
2652.37	0.663	662.6	0back	Block4	0back/STIM_017.jpg	100
2655.599	0.596	595.8	0back	Block4	0back/STIM_017.jpg	99
2659.526	0.558	557.8	0back	Block4	0back/STIM_017.jpg	100
2663.151	0.725	725.0	0back	Block4	0back/STIM_018.jpg	100
2666.951	0.532	532.2	0back	Block4	0back/STIM_018.jpg	100
2671.002	0.516	516.5	0back	Block4	0back/STIM_018.jpg	100
2673.784	0.585	584.6	0back	Block4	0back/STIM_019.jpg	99
2676.519	0.466	465.5	0back	Block4	0back/STIM_019.jpg	99
2680.434	0.526	526.1	0back	Block4	0back/STIM_019.jpg	100
