onset	duration	accuracy_binary	trial_type	learning_stage	stimulus	coherence
0.000	19.922	0	learning	LS1	PICTURE_480.jpg	i
19.922	16.733	1	learning	LS1	PICTURE_15.jpg	i
36.655	11.946	0	learning	LS1	PICTURE_488.jpg	i
48.601	10.509	0	learning	LS1	PICTURE_508.jpg	i
59.110	11.477	1	learning	LS1	PICTURE_488.jpg	c
70.587	11.166	1	learning	LS1	PICTURE_95.jpg	c
81.753	11.975	1	learning	LS1	PICTURE_15.jpg	c
93.728	8.947	1	learning	LS1	PICTURE_480.jpg	c
102.675	9.918	1	learning	LS1	PICTURE_508.jpg	c
112.593	13.278	1	learning	LS1	PICTURE_95.jpg	i
125.871	9.639	1	learning	LS2	PICTURE_480.jpg	i
135.510	8.209	1	learning	LS2	PICTURE_508.jpg	c
143.719	9.177	1	learning	LS2	PICTURE_15.jpg	i
152.896	8.226	1	learning	LS2	PICTURE_95.jpg	i
161.122	8.234	1	learning	LS2	PICTURE_508.jpg	i
169.356	9.837	1	learning	LS2	PICTURE_480.jpg	c
179.193	9.047	1	learning	LS2	PICTURE_95.jpg	c
188.240	11.296	1	learning	LS2	PICTURE_488.jpg	c
199.536	8.265	1	learning	LS2	PICTURE_15.jpg	c
207.801	19.781	0	learning	LS2	PICTURE_488.jpg	i
227.582	8.315	1	learning	LS3	PICTURE_508.jpg	c
235.897	7.844	1	learning	LS3	PICTURE_15.jpg	i
243.741	7.692	1	learning	LS3	PICTURE_480.jpg	i
251.433	7.382	1	learning	LS3	PICTURE_488.jpg	i
258.815	6.910	1	learning	LS3	PICTURE_95.jpg	c
265.725	6.755	1	learning	LS3	PICTURE_15.jpg	c
272.480	7.721	1	learning	LS3	PICTURE_480.jpg	c
280.201	7.567	1	learning	LS3	PICTURE_488.jpg	c
287.768	6.936	1	learning	LS3	PICTURE_95.jpg	i
294.704	8.543	1	learning	LS3	PICTURE_508.jpg	i
303.247	8.578	1	learning	LS4	PICTURE_480.jpg	c
311.825	7.948	1	learning	LS4	PICTURE_95.jpg	c
319.773	8.434	1	learning	LS4	PICTURE_508.jpg	c
328.207	7.804	1	learning	LS4	PICTURE_488.jpg	i
336.011	7.333	1	learning	LS4	PICTURE_95.jpg	i
343.344	9.738	1	learning	LS4	PICTURE_480.jpg	i
353.082	6.711	1	learning	LS4	PICTURE_15.jpg	i
359.793	11.672	1	learning	LS4	PICTURE_508.jpg	i
371.465	8.644	1	learning	LS4	PICTURE_488.jpg	c
380.109	7.214	1	learning	LS4	PICTURE_15.jpg	c
387.323	9.306	1	control	LS1	PICTURE_286.jpg	i
396.629	8.836	1	control	LS1	PICTURE_292.jpg	c
405.465	9.962	1	control	LS1	PICTURE_430.jpg	i
415.427	8.215	1	control	LS1	PICTURE_718.jpg	i
423.642	8.540	1	control	LS1	PICTURE_2.jpg	i
432.182	7.431	1	control	LS1	PICTURE_718.jpg	c
439.613	8.874	1	control	LS1	PICTURE_2.jpg	c
448.487	7.925	1	control	LS1	PICTURE_430.jpg	c
456.412	7.456	1	control	LS1	PICTURE_292.jpg	i
463.868	10.499	1	control	LS1	PICTURE_286.jpg	c
474.367	8.461	1	control	LS2	PICTURE_430.jpg	i
482.828	9.427	1	control	LS2	PICTURE_286.jpg	c
492.255	7.038	1	control	LS2	PICTURE_430.jpg	c
499.293	7.204	1	control	LS2	PICTURE_2.jpg	c
506.497	7.373	1	control	LS2	PICTURE_292.jpg	c
513.870	10.575	1	control	LS2	PICTURE_718.jpg	i
524.445	8.346	1	control	LS2	PICTURE_2.jpg	i
532.791	8.035	1	control	LS2	PICTURE_718.jpg	c
540.826	8.201	1	control	LS2	PICTURE_292.jpg	i
549.027	9.169	1	control	LS2	PICTURE_286.jpg	i
558.196	9.207	1	control	LS3	PICTURE_733.jpg	i
567.403	9.056	1	control	LS3	PICTURE_134.jpg	c
576.459	10.344	1	control	LS3	PICTURE_731.jpg	i
586.803	8.914	1	control	LS3	PICTURE_134.jpg	i
595.717	8.126	1	control	LS3	PICTURE_733.jpg	c
603.843	9.094	1	control	LS3	PICTURE_645.jpg	c
612.937	10.540	1	control	LS3	PICTURE_731.jpg	c
623.477	8.149	1	control	LS3	PICTURE_98.jpg	i
631.626	8.312	1	control	LS3	PICTURE_645.jpg	i
639.938	11.036	1	control	LS3	PICTURE_98.jpg	c
650.974	8.998	1	control	LS4	PICTURE_645.jpg	i
659.972	9.167	1	control	LS4	PICTURE_134.jpg	i
669.139	8.053	1	control	LS4	PICTURE_98.jpg	i
677.192	7.742	1	control	LS4	PICTURE_134.jpg	c
684.934	8.387	1	control	LS4	PICTURE_731.jpg	i
693.321	9.513	1	control	LS4	PICTURE_733.jpg	i
702.834	7.124	1	control	LS4	PICTURE_645.jpg	c
709.958	12.248	1	control	LS4	PICTURE_98.jpg	c
722.206	10.498	1	control	LS4	PICTURE_733.jpg	c
732.704	9.545	1	control	LS4	PICTURE_731.jpg	c
742.249	10.825	0	learning	LS1	PICTURE_43.jpg	i
753.074	10.036	0	learning	LS1	PICTURE_741.jpg	i
763.110	10.845	1	learning	LS1	PICTURE_599.jpg	c
773.955	10.695	1	learning	LS1	PICTURE_43.jpg	c
784.650	11.983	0	learning	LS1	PICTURE_610.jpg	i
796.633	10.234	1	learning	LS1	PICTURE_741.jpg	c
806.867	12.479	1	learning	LS1	PICTURE_247.jpg	c
819.346	10.571	1	learning	LS1	PICTURE_599.jpg	i
829.917	9.301	1	learning	LS1	PICTURE_247.jpg	i
839.218	9.468	1	learning	LS1	PICTURE_610.jpg	c
848.686	9.824	1	learning	LS2	PICTURE_610.jpg	i
858.510	10.314	1	learning	LS2	PICTURE_599.jpg	c
868.824	9.844	1	learning	LS2	PICTURE_610.jpg	c
878.668	8.417	1	learning	LS2	PICTURE_43.jpg	c
887.085	7.785	1	learning	LS2	PICTURE_599.jpg	i
894.870	8.913	1	learning	LS2	PICTURE_741.jpg	c
903.783	10.202	1	learning	LS2	PICTURE_247.jpg	c
913.985	7.655	1	learning	LS2	PICTURE_43.jpg	i
921.640	8.461	1	learning	LS2	PICTURE_247.jpg	i
930.101	8.789	1	learning	LS2	PICTURE_741.jpg	i
938.890	8.187	1	learning	LS3	PICTURE_741.jpg	i
947.077	10.426	1	learning	LS3	PICTURE_247.jpg	c
957.503	7.399	1	learning	LS3	PICTURE_599.jpg	c
964.902	9.163	1	learning	LS3	PICTURE_610.jpg	c
974.065	7.730	1	learning	LS3	PICTURE_599.jpg	i
981.795	8.219	1	learning	LS3	PICTURE_247.jpg	i
990.014	8.069	1	learning	LS3	PICTURE_43.jpg	i
998.083	7.757	1	learning	LS3	PICTURE_610.jpg	i
1005.840	8.242	1	learning	LS3	PICTURE_741.jpg	c
1014.082	8.732	1	learning	LS3	PICTURE_43.jpg	c
1022.814	8.610	1	learning	LS4	PICTURE_610.jpg	c
1031.424	8.620	1	learning	LS4	PICTURE_247.jpg	i
1040.044	6.871	1	learning	LS4	PICTURE_599.jpg	c
1046.915	6.560	1	learning	LS4	PICTURE_43.jpg	c
1053.475	7.530	1	learning	LS4	PICTURE_599.jpg	i
1061.005	6.735	1	learning	LS4	PICTURE_741.jpg	c
1067.740	7.541	1	learning	LS4	PICTURE_610.jpg	i
1075.281	6.912	1	learning	LS4	PICTURE_43.jpg	i
1082.193	8.357	1	learning	LS4	PICTURE_247.jpg	c
1090.550	10.759	1	learning	LS4	PICTURE_741.jpg	i
1101.309	10.606	0	learning	LS1	PICTURE_405.jpg	i
1111.915	9.494	0	learning	LS1	PICTURE_402.jpg	i
1121.409	9.342	0	learning	LS1	PICTURE_21.jpg	i
1130.751	12.228	1	learning	LS1	PICTURE_400.jpg	c
1142.979	9.518	0	learning	LS1	PICTURE_462.jpg	i
1152.497	9.206	1	learning	LS1	PICTURE_400.jpg	i
1161.703	11.450	1	learning	LS1	PICTURE_21.jpg	c
1173.153	9.864	1	learning	LS1	PICTURE_402.jpg	c
1183.017	8.273	1	learning	LS1	PICTURE_405.jpg	c
1191.290	10.517	1	learning	LS1	PICTURE_462.jpg	c
1201.807	9.277	1	learning	LS2	PICTURE_405.jpg	i
1211.084	9.443	1	learning	LS2	PICTURE_21.jpg	i
1220.527	10.092	1	learning	LS2	PICTURE_400.jpg	i
1230.619	7.861	1	learning	LS2	PICTURE_405.jpg	c
1238.480	8.668	1	learning	LS2	PICTURE_462.jpg	c
1247.148	8.833	1	learning	LS2	PICTURE_402.jpg	c
1255.981	11.076	1	learning	LS2	PICTURE_462.jpg	i
1267.057	8.365	1	learning	LS2	PICTURE_21.jpg	c
1275.422	17.955	1	learning	LS2	PICTURE_400.jpg	c
1293.377	8.376	1	learning	LS2	PICTURE_402.jpg	i
1301.753	8.256	1	learning	LS3	PICTURE_405.jpg	i
1310.009	8.583	1	learning	LS3	PICTURE_21.jpg	i
1318.592	8.428	1	learning	LS3	PICTURE_400.jpg	c
1327.020	8.596	1	learning	LS3	PICTURE_21.jpg	c
1335.616	9.243	1	learning	LS3	PICTURE_402.jpg	c
1344.859	11.808	1	learning	LS3	PICTURE_462.jpg	i
1356.667	7.980	1	learning	LS3	PICTURE_400.jpg	i
1364.647	9.270	1	learning	LS3	PICTURE_462.jpg	c
1373.917	8.319	1	learning	LS3	PICTURE_402.jpg	i
1382.236	7.529	1	learning	LS3	PICTURE_405.jpg	c
1389.765	9.163	1	learning	LS4	PICTURE_400.jpg	i
1398.928	7.890	1	learning	LS4	PICTURE_402.jpg	i
1406.818	7.739	1	learning	LS4	PICTURE_21.jpg	c
1414.557	6.466	1	learning	LS4	PICTURE_405.jpg	c
1421.023	7.435	1	learning	LS4	PICTURE_400.jpg	c
1428.458	8.243	1	learning	LS4	PICTURE_405.jpg	i
1436.701	9.689	1	learning	LS4	PICTURE_402.jpg	c
1446.390	10.332	1	learning	LS4	PICTURE_462.jpg	i
1456.722	7.943	1	learning	LS4	PICTURE_21.jpg	i
1464.665	8.587	1	learning	LS4	PICTURE_462.jpg	c
1473.252	10.037	0	learning	LS1	PICTURE_23.jpg	i
1483.289	10.843	0	learning	LS1	PICTURE_297.jpg	i
1494.132	10.213	1	learning	LS1	PICTURE_23.jpg	c
1504.345	9.744	0	learning	LS1	PICTURE_235.jpg	c
1514.089	11.511	0	learning	LS1	PICTURE_746.jpg	i
1525.600	11.678	1	learning	LS1	PICTURE_297.jpg	c
1537.278	9.449	1	learning	LS1	PICTURE_235.jpg	i
1546.727	n/a	n/a	learning	LS1	PICTURE_720.jpg	i
1571.727	19.852	1	learning	LS1	PICTURE_746.jpg	c
1591.579	9.793	0	learning	LS1	PICTURE_720.jpg	c
1601.372	7.749	1	learning	LS2	PICTURE_297.jpg	c
1609.121	7.116	1	learning	LS2	PICTURE_746.jpg	c
1616.237	7.126	1	learning	LS2	PICTURE_23.jpg	c
1623.363	7.614	1	learning	LS2	PICTURE_235.jpg	c
1630.977	8.902	0	learning	LS2	PICTURE_720.jpg	i
1639.879	9.232	1	learning	LS2	PICTURE_297.jpg	i
1649.111	7.958	1	learning	LS2	PICTURE_720.jpg	c
1657.069	7.804	1	learning	LS2	PICTURE_746.jpg	i
1664.873	8.290	1	learning	LS2	PICTURE_235.jpg	i
1673.163	8.617	1	learning	LS2	PICTURE_23.jpg	i
1681.780	7.211	1	learning	LS3	PICTURE_235.jpg	c
1688.991	6.902	1	learning	LS3	PICTURE_746.jpg	c
1695.893	7.711	1	learning	LS3	PICTURE_297.jpg	c
1703.604	6.921	1	learning	LS3	PICTURE_746.jpg	i
1710.525	7.887	1	learning	LS3	PICTURE_720.jpg	i
1718.412	7.417	1	learning	LS3	PICTURE_23.jpg	i
1725.829	8.383	1	learning	LS3	PICTURE_297.jpg	i
1734.212	8.550	1	learning	LS3	PICTURE_720.jpg	c
1742.762	8.396	1	learning	LS3	PICTURE_235.jpg	i
1751.158	9.041	1	learning	LS3	PICTURE_23.jpg	c
1760.199	6.840	1	learning	LS4	PICTURE_746.jpg	c
1767.039	7.805	1	learning	LS4	PICTURE_23.jpg	i
1774.844	8.768	1	learning	LS4	PICTURE_720.jpg	c
1783.612	8.297	1	learning	LS4	PICTURE_297.jpg	i
1791.909	10.221	1	learning	LS4	PICTURE_720.jpg	i
1802.130	7.194	1	learning	LS4	PICTURE_23.jpg	c
1809.324	7.524	1	learning	LS4	PICTURE_746.jpg	i
1816.848	7.693	1	learning	LS4	PICTURE_235.jpg	i
1824.541	7.700	1	learning	LS4	PICTURE_297.jpg	c
1832.241	6.910	1	learning	LS4	PICTURE_235.jpg	c
1839.151	9.625	1	control	LS1	PICTURE_485.jpg	i
1848.776	11.389	1	control	LS1	PICTURE_549.jpg	i
1860.165	7.716	1	control	LS1	PICTURE_485.jpg	c
1867.881	8.361	1	control	LS1	PICTURE_350.jpg	i
1876.242	8.047	1	control	LS1	PICTURE_498.jpg	i
1884.289	8.057	1	control	LS1	PICTURE_549.jpg	c
1892.346	8.385	1	control	LS1	PICTURE_418.jpg	c
1900.731	8.553	1	control	LS1	PICTURE_350.jpg	c
1909.284	8.081	1	control	LS1	PICTURE_418.jpg	i
1917.365	7.291	1	control	LS1	PICTURE_498.jpg	c
1924.656	10.209	1	control	LS2	PICTURE_498.jpg	i
1934.865	8.778	1	control	LS2	PICTURE_418.jpg	c
1943.643	8.150	1	control	LS2	PICTURE_549.jpg	c
1951.793	8.160	1	control	LS2	PICTURE_350.jpg	i
1959.953	7.370	1	control	LS2	PICTURE_418.jpg	i
1967.323	8.333	1	control	LS2	PICTURE_485.jpg	i
1975.656	7.702	1	control	LS2	PICTURE_350.jpg	c
1983.358	9.470	1	control	LS2	PICTURE_485.jpg	c
1992.828	7.719	1	control	LS2	PICTURE_549.jpg	i
2000.547	7.567	1	control	LS2	PICTURE_498.jpg	c
2008.114	13.359	1	control	LS3	PICTURE_663.jpg	i
2021.473	9.376	1	control	LS3	PICTURE_314.jpg	i
2030.849	9.063	1	control	LS3	PICTURE_663.jpg	c
2039.912	8.591	1	control	LS3	PICTURE_552.jpg	c
2048.503	8.921	1	control	LS3	PICTURE_388.jpg	i
2057.424	7.489	1	control	LS3	PICTURE_314.jpg	c
2064.913	9.095	1	control	LS3	PICTURE_476.jpg	c
2074.008	8.144	1	control	LS3	PICTURE_552.jpg	i
2082.152	8.949	1	control	LS3	PICTURE_388.jpg	c
2091.101	8.478	1	control	LS3	PICTURE_476.jpg	i
2099.579	9.632	1	control	LS4	PICTURE_552.jpg	i
2109.211	7.079	1	control	LS4	PICTURE_663.jpg	i
2116.290	8.367	1	control	LS4	PICTURE_388.jpg	c
2124.657	9.175	1	control	LS4	PICTURE_476.jpg	c
2133.832	8.387	1	control	LS4	PICTURE_314.jpg	i
2142.219	8.395	1	control	LS4	PICTURE_663.jpg	c
2150.614	7.764	1	control	LS4	PICTURE_552.jpg	c
2158.378	8.571	1	control	LS4	PICTURE_388.jpg	i
2166.949	8.099	1	control	LS4	PICTURE_476.jpg	i
2175.048	7.152	1	control	LS4	PICTURE_314.jpg	c
2182.200	7.958	1	learning	LS1	PICTURE_581.jpg	c
2190.158	8.763	1	learning	LS1	PICTURE_576.jpg	i
2198.921	10.528	1	learning	LS1	PICTURE_581.jpg	i
2209.449	14.055	0	learning	LS1	PICTURE_605.jpg	i
2223.504	10.227	0	learning	LS1	PICTURE_52.jpg	i
2233.731	11.829	1	learning	LS1	PICTURE_594.jpg	c
2245.560	12.158	1	learning	LS1	PICTURE_576.jpg	c
2257.718	8.807	1	learning	LS1	PICTURE_605.jpg	c
2266.525	7.855	1	learning	LS1	PICTURE_52.jpg	c
2274.380	11.061	0	learning	LS1	PICTURE_594.jpg	i
2285.441	9.185	1	learning	LS2	PICTURE_576.jpg	i
2294.626	10.471	1	learning	LS2	PICTURE_52.jpg	i
2305.097	7.918	1	learning	LS2	PICTURE_581.jpg	c
2313.015	7.130	1	learning	LS2	PICTURE_605.jpg	c
2320.145	12.573	1	learning	LS2	PICTURE_594.jpg	c
2332.718	7.786	1	learning	LS2	PICTURE_576.jpg	c
2340.504	8.432	1	learning	LS2	PICTURE_605.jpg	i
2348.936	8.444	1	learning	LS2	PICTURE_581.jpg	i
2357.380	7.812	1	learning	LS2	PICTURE_52.jpg	c
2365.192	9.418	1	learning	LS2	PICTURE_594.jpg	i
2374.610	7.378	1	learning	LS3	PICTURE_52.jpg	c
2381.988	9.784	1	learning	LS3	PICTURE_594.jpg	i
2391.772	8.033	1	learning	LS3	PICTURE_581.jpg	i
2399.805	7.403	1	learning	LS3	PICTURE_576.jpg	c
2407.208	7.729	1	learning	LS3	PICTURE_52.jpg	i
2414.937	6.778	1	learning	LS3	PICTURE_581.jpg	c
2421.715	n/a	n/a	learning	LS3	PICTURE_605.jpg	c
2446.715	8.398	1	learning	LS3	PICTURE_594.jpg	c
2455.113	9.848	1	learning	LS3	PICTURE_576.jpg	i
2464.961	7.780	1	learning	LS3	PICTURE_605.jpg	i
2472.741	8.137	1	learning	LS4	PICTURE_605.jpg	i
2480.878	7.504	1	learning	LS4	PICTURE_581.jpg	i
2488.382	7.035	1	learning	LS4	PICTURE_52.jpg	c
2495.417	6.719	0	learning	LS4	PICTURE_581.jpg	c
2502.136	8.166	1	learning	LS4	PICTURE_594.jpg	i
2510.302	7.855	1	learning	LS4	PICTURE_576.jpg	c
2518.157	7.701	1	learning	LS4	PICTURE_52.jpg	i
2525.858	6.750	1	learning	LS4	PICTURE_594.jpg	c
2532.608	7.078	1	learning	LS4	PICTURE_605.jpg	c
2539.686	7.408	1	learning	LS4	PICTURE_576.jpg	i
2547.094	11.753	1	learning	LS1	PICTURE_216.jpg	i
2558.847	9.206	0	learning	LS1	PICTURE_695.jpg	i
2568.053	9.215	0	learning	LS1	PICTURE_53.jpg	i
2577.268	11.779	1	learning	LS1	PICTURE_216.jpg	c
2589.047	9.550	1	learning	LS1	PICTURE_695.jpg	c
2598.597	11.474	0	learning	LS1	PICTURE_220.jpg	i
2610.071	11.005	0	learning	LS1	PICTURE_703.jpg	i
2621.076	9.416	1	learning	LS1	PICTURE_220.jpg	c
2630.492	9.103	1	learning	LS1	PICTURE_53.jpg	c
2639.595	9.113	1	learning	LS1	PICTURE_703.jpg	c
2648.708	7.393	1	learning	LS2	PICTURE_695.jpg	c
2656.101	12.034	1	learning	LS2	PICTURE_703.jpg	i
2668.135	7.887	1	learning	LS2	PICTURE_53.jpg	i
2676.022	11.410	0	learning	LS2	PICTURE_220.jpg	i
2687.432	12.220	1	learning	LS2	PICTURE_216.jpg	c
2699.652	8.553	1	learning	LS2	PICTURE_220.jpg	c
2708.205	8.238	1	learning	LS2	PICTURE_216.jpg	i
2716.443	7.924	1	learning	LS2	PICTURE_695.jpg	i
2724.367	7.458	1	learning	LS2	PICTURE_703.jpg	c
2731.825	6.825	1	learning	LS2	PICTURE_53.jpg	c
2738.650	7.657	1	learning	LS3	PICTURE_216.jpg	c
2746.307	6.067	1	learning	LS3	PICTURE_695.jpg	c
2752.374	8.152	1	learning	LS3	PICTURE_703.jpg	i
2760.526	6.405	1	learning	LS3	PICTURE_220.jpg	i
2766.931	6.736	1	learning	LS3	PICTURE_53.jpg	c
2773.667	7.541	1	learning	LS3	PICTURE_216.jpg	i
2781.208	6.909	1	learning	LS3	PICTURE_220.jpg	c
2788.117	8.835	1	learning	LS3	PICTURE_53.jpg	i
2796.952	7.405	1	learning	LS3	PICTURE_703.jpg	c
2804.357	7.572	1	learning	LS3	PICTURE_695.jpg	i
2811.929	7.452	1	learning	LS4	PICTURE_220.jpg	c
2819.381	6.820	1	learning	LS4	PICTURE_703.jpg	c
2826.201	8.586	1	learning	LS4	PICTURE_220.jpg	i
2834.787	7.001	1	learning	LS4	PICTURE_695.jpg	i
2841.788	7.652	1	learning	LS4	PICTURE_216.jpg	c
2849.440	6.861	1	learning	LS4	PICTURE_703.jpg	i
2856.301	6.869	1	learning	LS4	PICTURE_53.jpg	i
2863.170	7.037	1	learning	LS4	PICTURE_695.jpg	c
2870.207	6.565	1	learning	LS4	PICTURE_53.jpg	c
2876.772	8.010	1	learning	LS4	PICTURE_216.jpg	i
