onset	duration	accuracy_binary	trial_type	learning_stage	stimulus
0.0	4.699	0	navigation	Trial1	navigation/STIM_000.jpg
8.456	2.387	1	navigation	Trial1	navigation/STIM_000.jpg
13.447	3.854	1	navigation	Trial1	navigation/STIM_000.jpg
19.312	2.874	0	navigation	Trial1	navigation/STIM_000.jpg
25.789	3.961	1	navigation	Trial1	navigation/STIM_000.jpg
31.901	3.155	1	navigation	Trial1	navigation/STIM_000.jpg
37.539	4.811	0	navigation	Trial1	navigation/STIM_001.jpg
45.343	3.584	1	navigation	Trial1	navigation/STIM_001.jpg
51.862	4.349	0	navigation	Trial1	navigation/STIM_001.jpg
59.369	3.382	1	navigation	Trial1	navigation/STIM_001.jpg
65.99	3.356	1	navigation	Trial1	navigation/STIM_001.jpg
71.752	2.647	1	navigation	Trial1	navigation/STIM_001.jpg
77.425	3.797	1	navigation	Trial1	navigation/STIM_002.jpg
84.986	4.283	1	navigation	Trial1	navigation/STIM_002.jpg
91.952	3.224	1	navigation	Trial1	navigation/STIM_002.jpg
97.375	1.952	1	navigation	Trial1	navigation/STIM_002.jpg
101.876	2.661	0	navigation	Trial1	navigation/STIM_002.jpg
107.193	3.016	1	navigation	Trial1	navigation/STIM_002.jpg
112.27	3.575	0	navigation	Trial1	navigation/STIM_003.jpg
118.339	2.658	1	navigation	Trial1	navigation/STIM_003.jpg
124.245	3.504	0	navigation	Trial1	navigation/STIM_003.jpg
129.99	2.102	1	navigation	Trial1	navigation/STIM_003.jpg
135.317	1.564	1	navigation	Trial1	navigation/STIM_003.jpg
140.174	2.787	0	navigation	Trial1	navigation/STIM_003.jpg
146.843	3.2	1	navigation	Trial1	navigation/STIM_004.jpg
153.032	2.141	1	navigation	Trial1	navigation/STIM_004.jpg
158.527	2.62	1	navigation	Trial1	navigation/STIM_004.jpg
164.302	2.515	1	navigation	Trial1	navigation/STIM_004.jpg
170.14	1.823	1	navigation	Trial1	navigation/STIM_004.jpg
174.498	2.864	0	navigation	Trial1	navigation/STIM_004.jpg
180.259	4.018	1	navigation	Trial1	navigation/STIM_005.jpg
188.011	3.215	1	navigation	Trial1	navigation/STIM_005.jpg
195.12	3.985	1	navigation	Trial1	navigation/STIM_005.jpg
202.64	3.482	0	navigation	Trial1	navigation/STIM_005.jpg
208.095	3.155	1	navigation	Trial1	navigation/STIM_005.jpg
214.65	2.535	1	navigation	Trial1	navigation/STIM_005.jpg
220.525	4.858	0	navigation	Trial1	navigation/STIM_006.jpg
227.465	1.966	1	navigation	Trial1	navigation/STIM_006.jpg
233.247	3.257	0	navigation	Trial1	navigation/STIM_006.jpg
238.605	3.868	1	navigation	Trial1	navigation/STIM_006.jpg
245.336	3.565	0	navigation	Trial1	navigation/STIM_006.jpg
252.122	3.206	1	navigation	Trial1	navigation/STIM_006.jpg
259.038	5.026	1	navigation	Trial1	navigation/STIM_007.jpg
267.358	3.193	1	navigation	Trial1	navigation/STIM_007.jpg
273.856	3.712	0	navigation	Trial1	navigation/STIM_007.jpg
280.387	3.174	1	navigation	Trial1	navigation/STIM_007.jpg
286.627	1.65	0	navigation	Trial1	navigation/STIM_007.jpg
290.89	2.204	1	navigation	Trial1	navigation/STIM_007.jpg
296.128	3.413	1	navigation	Trial1	navigation/STIM_008.jpg
302.797	3.207	0	navigation	Trial1	navigation/STIM_008.jpg
309.378	1.872	0	navigation	Trial1	navigation/STIM_008.jpg
314.329	3.036	1	navigation	Trial1	navigation/STIM_008.jpg
319.531	2.574	1	navigation	Trial1	navigation/STIM_008.jpg
325.933	3.053	1	navigation	Trial1	navigation/STIM_008.jpg
332.665	4.965	1	navigation	Trial1	navigation/STIM_009.jpg
340.215	4.526	1	navigation	Trial1	navigation/STIM_009.jpg
348.286	3.071	1	navigation	Trial1	navigation/STIM_009.jpg
354.924	3.493	1	navigation	Trial1	navigation/STIM_009.jpg
361.011	3.031	1	navigation	Trial1	navigation/STIM_009.jpg
366.265	2.403	1	navigation	Trial1	navigation/STIM_009.jpg
370.972	4.745	1	navigation	Trial1	navigation/STIM_010.jpg
379.628	3.109	1	navigation	Trial1	navigation/STIM_010.jpg
385.944	2.649	1	navigation	Trial1	navigation/STIM_010.jpg
390.646	2.874	1	navigation	Trial1	navigation/STIM_010.jpg
395.783	3.752	1	navigation	Trial1	navigation/STIM_010.jpg
402.77	3.517	1	navigation	Trial1	navigation/STIM_010.jpg
409.386	4.331	0	navigation	Trial1	navigation/STIM_011.jpg
417.054	3.773	0	navigation	Trial1	navigation/STIM_011.jpg
423.958	1.822	1	navigation	Trial1	navigation/STIM_011.jpg
428.391	3.746	1	navigation	Trial1	navigation/STIM_011.jpg
434.269	3.166	1	navigation	Trial1	navigation/STIM_011.jpg
439.614	3.493	0	navigation	Trial1	navigation/STIM_011.jpg
446.753	1.465	1	pointing	Trial1	pointing/STIM_000.jpg
451.188	1.137	1	pointing	Trial1	pointing/STIM_000.jpg
454.413	1.354	1	pointing	Trial1	pointing/STIM_000.jpg
459.309	1.021	1	pointing	Trial1	pointing/STIM_000.jpg
463.651	1.369	0	pointing	Trial1	pointing/STIM_000.jpg
468.235	1.203	1	pointing	Trial1	pointing/STIM_000.jpg
472.449	1.409	1	pointing	Trial1	pointing/STIM_001.jpg
477.725	1.012	1	pointing	Trial1	pointing/STIM_001.jpg
481.833	1.476	1	pointing	Trial1	pointing/STIM_001.jpg
485.99	0.842	1	pointing	Trial1	pointing/STIM_001.jpg
490.195	0.901	1	pointing	Trial1	pointing/STIM_001.jpg
493.828	1.288	1	pointing	Trial1	pointing/STIM_001.jpg
498.423	1.441	1	pointing	Trial1	pointing/STIM_002.jpg
503.081	1.248	1	pointing	Trial1	pointing/STIM_002.jpg
506.462	1.111	1	pointing	Trial1	pointing/STIM_002.jpg
509.955	1.153	1	pointing	Trial1	pointing/STIM_002.jpg
513.083	1.407	1	pointing	Trial1	pointing/STIM_002.jpg
517.555	1.3	1	pointing	Trial1	pointing/STIM_002.jpg
521.977	1.18	1	pointing	Trial1	pointing/STIM_003.jpg
525.469	1.185	1	pointing	Trial1	pointing/STIM_003.jpg
528.999	1.199	1	pointing	Trial1	pointing/STIM_003.jpg
532.888	1.249	1	pointing	Trial1	pointing/STIM_003.jpg
537.871	1.039	1	pointing	Trial1	pointing/STIM_003.jpg
541.729	1.02	1	pointing	Trial1	pointing/STIM_003.jpg
544.87	0.978	1	pointing	Trial1	pointing/STIM_004.jpg
548.944	0.769	1	pointing	Trial1	pointing/STIM_004.jpg
553.667	1.394	1	pointing	Trial1	pointing/STIM_004.jpg
558.428	1.428	1	pointing	Trial1	pointing/STIM_004.jpg
562.82	1.028	1	pointing	Trial1	pointing/STIM_004.jpg
567.253	0.969	1	pointing	Trial1	pointing/STIM_004.jpg
572.101	1.558	1	pointing	Trial1	pointing/STIM_005.jpg
576.238	1.277	1	pointing	Trial1	pointing/STIM_005.jpg
581.527	1.239	1	pointing	Trial1	pointing/STIM_005.jpg
585.686	1.05	1	pointing	Trial1	pointing/STIM_005.jpg
589.362	1.372	1	pointing	Trial1	pointing/STIM_005.jpg
593.557	1.302	1	pointing	Trial1	pointing/STIM_005.jpg
598.48	1.174	1	pointing	Trial1	pointing/STIM_006.jpg
602.917	1.03	1	pointing	Trial1	pointing/STIM_006.jpg
605.974	0.834	1	pointing	Trial1	pointing/STIM_006.jpg
609.61	0.881	1	pointing	Trial1	pointing/STIM_006.jpg
613.886	1.092	1	pointing	Trial1	pointing/STIM_006.jpg
617.302	1.342	1	pointing	Trial1	pointing/STIM_006.jpg
621.268	1.334	1	pointing	Trial1	pointing/STIM_007.jpg
625.426	1.166	1	pointing	Trial1	pointing/STIM_007.jpg
629.274	1.478	1	pointing	Trial1	pointing/STIM_007.jpg
632.891	0.812	1	pointing	Trial1	pointing/STIM_007.jpg
635.925	1.452	1	pointing	Trial1	pointing/STIM_007.jpg
641.093	1.312	1	pointing	Trial1	pointing/STIM_007.jpg
646.177	1.164	1	pointing	Trial1	pointing/STIM_008.jpg
650.739	0.948	1	pointing	Trial1	pointing/STIM_008.jpg
653.926	1.083	1	pointing	Trial1	pointing/STIM_008.jpg
657.493	1.433	1	pointing	Trial1	pointing/STIM_008.jpg
662.262	1.488	1	pointing	Trial1	pointing/STIM_008.jpg
667.129	0.962	0	pointing	Trial1	pointing/STIM_008.jpg
671.324	1.285	0	pointing	Trial1	pointing/STIM_009.jpg
674.719	1.043	1	pointing	Trial1	pointing/STIM_009.jpg
678.944	0.884	1	pointing	Trial1	pointing/STIM_009.jpg
681.967	1.031	1	pointing	Trial1	pointing/STIM_009.jpg
686.804	1.238	1	pointing	Trial1	pointing/STIM_009.jpg
691.606	0.81	1	pointing	Trial1	pointing/STIM_009.jpg
694.641	0.819	1	pointing	Trial1	pointing/STIM_010.jpg
699.223	1.384	1	pointing	Trial1	pointing/STIM_010.jpg
703.41	0.88	1	pointing	Trial1	pointing/STIM_010.jpg
706.68	0.919	1	pointing	Trial1	pointing/STIM_010.jpg
710.189	1.098	0	pointing	Trial1	pointing/STIM_010.jpg
714.124	1.062	1	pointing	Trial1	pointing/STIM_010.jpg
718.687	0.84	1	pointing	Trial1	pointing/STIM_011.jpg
722.078	1.426	1	pointing	Trial1	pointing/STIM_011.jpg
726.544	0.896	1	pointing	Trial1	pointing/STIM_011.jpg
731.023	1.1	1	pointing	Trial1	pointing/STIM_011.jpg
735.005	0.916	1	pointing	Trial1	pointing/STIM_011.jpg
739.785	1.387	1	pointing	Trial1	pointing/STIM_011.jpg
745.084	2.765	1	navigation	Trial2	navigation/STIM_000.jpg
751.376	2.867	1	navigation	Trial2	navigation/STIM_000.jpg
758.148	1.864	0	navigation	Trial2	navigation/STIM_000.jpg
762.306	2.203	1	navigation	Trial2	navigation/STIM_000.jpg
767.927	2.588	1	navigation	Trial2	navigation/STIM_000.jpg
773.069	1.721	1	navigation	Trial2	navigation/STIM_000.jpg
777.128	2.288	1	navigation	Trial2	navigation/STIM_001.jpg
781.352	3.73	1	navigation	Trial2	navigation/STIM_001.jpg
788.632	3.688	1	navigation	Trial2	navigation/STIM_001.jpg
795.378	1.75	0	navigation	Trial2	navigation/STIM_001.jpg
800.316	3.258	1	navigation	Trial2	navigation/STIM_001.jpg
806.625	3.087	1	navigation	Trial2	navigation/STIM_001.jpg
812.255	3.926	1	navigation	Trial2	navigation/STIM_002.jpg
819.944	3.763	0	navigation	Trial2	navigation/STIM_002.jpg
826.939	1.762	1	navigation	Trial2	navigation/STIM_002.jpg
832.29	2.673	0	navigation	Trial2	navigation/STIM_002.jpg
838.966	2.548	1	navigation	Trial2	navigation/STIM_002.jpg
844.345	2.735	1	navigation	Trial2	navigation/STIM_002.jpg
849.636	1.789	1	navigation	Trial2	navigation/STIM_003.jpg
854.196	2.543	1	navigation	Trial2	navigation/STIM_003.jpg
859.544	2.502	0	navigation	Trial2	navigation/STIM_003.jpg
865.611	1.402	1	navigation	Trial2	navigation/STIM_003.jpg
870.819	2.848	1	navigation	Trial2	navigation/STIM_003.jpg
877.188	2.423	1	navigation	Trial2	navigation/STIM_003.jpg
882.706	2.991	0	navigation	Trial2	navigation/STIM_004.jpg
889.58	2.18	1	navigation	Trial2	navigation/STIM_004.jpg
893.982	3.024	1	navigation	Trial2	navigation/STIM_004.jpg
900.446	2.248	1	navigation	Trial2	navigation/STIM_004.jpg
906.311	3.116	1	navigation	Trial2	navigation/STIM_004.jpg
913.031	3.474	1	navigation	Trial2	navigation/STIM_004.jpg
920.488	3.676	1	navigation	Trial2	navigation/STIM_005.jpg
926.694	1.852	1	navigation	Trial2	navigation/STIM_005.jpg
932.344	1.662	0	navigation	Trial2	navigation/STIM_005.jpg
937.426	2.511	1	navigation	Trial2	navigation/STIM_005.jpg
943.764	1.602	1	navigation	Trial2	navigation/STIM_005.jpg
948.904	2.48	1	navigation	Trial2	navigation/STIM_005.jpg
955.322	2.11	0	navigation	Trial2	navigation/STIM_006.jpg
960.315	2.621	1	navigation	Trial2	navigation/STIM_006.jpg
966.895	2.314	0	navigation	Trial2	navigation/STIM_006.jpg
971.787	3.398	1	navigation	Trial2	navigation/STIM_006.jpg
978.799	1.998	1	navigation	Trial2	navigation/STIM_006.jpg
984.794	3.412	1	navigation	Trial2	navigation/STIM_006.jpg
990.64	3.301	1	navigation	Trial2	navigation/STIM_007.jpg
997.893	1.596	0	navigation	Trial2	navigation/STIM_007.jpg
1001.802	2.79	1	navigation	Trial2	navigation/STIM_007.jpg
1007.129	3.373	1	navigation	Trial2	navigation/STIM_007.jpg
1014.401	3.345	1	navigation	Trial2	navigation/STIM_007.jpg
1021.603	2.671	1	navigation	Trial2	navigation/STIM_007.jpg
1026.61	2.862	1	navigation	Trial2	navigation/STIM_008.jpg
1032.046	3.107	0	navigation	Trial2	navigation/STIM_008.jpg
1037.177	2.861	1	navigation	Trial2	navigation/STIM_008.jpg
1043.573	3.154	1	navigation	Trial2	navigation/STIM_008.jpg
1050.602	1.441	1	navigation	Trial2	navigation/STIM_008.jpg
1054.689	3.304	1	navigation	Trial2	navigation/STIM_008.jpg
1061.047	4.089	1	navigation	Trial2	navigation/STIM_009.jpg
1067.304	2.518	1	navigation	Trial2	navigation/STIM_009.jpg
1073.632	2.63	1	navigation	Trial2	navigation/STIM_009.jpg
1078.764	2.787	1	navigation	Trial2	navigation/STIM_009.jpg
1084.42	3.067	1	navigation	Trial2	navigation/STIM_009.jpg
1091.183	3.175	1	navigation	Trial2	navigation/STIM_009.jpg
1097.613	4.25	1	navigation	Trial2	navigation/STIM_010.jpg
1105.706	1.937	0	navigation	Trial2	navigation/STIM_010.jpg
1110.002	2.285	0	navigation	Trial2	navigation/STIM_010.jpg
1115.651	1.441	0	navigation	Trial2	navigation/STIM_010.jpg
1119.19	2.974	1	navigation	Trial2	navigation/STIM_010.jpg
1124.547	2.367	1	navigation	Trial2	navigation/STIM_010.jpg
1130.841	2.222	1	navigation	Trial2	navigation/STIM_011.jpg
1136.995	2.394	1	navigation	Trial2	navigation/STIM_011.jpg
1141.467	2.654	1	navigation	Trial2	navigation/STIM_011.jpg
1147.553	2.299	1	navigation	Trial2	navigation/STIM_011.jpg
1151.957	3.146	1	navigation	Trial2	navigation/STIM_011.jpg
1158.565	3.44	0	navigation	Trial2	navigation/STIM_011.jpg
1164.365	1.271	1	pointing	Trial2	pointing/STIM_000.jpg
1168.521	1.105	1	pointing	Trial2	pointing/STIM_000.jpg
1172.822	1.302	1	pointing	Trial2	pointing/STIM_000.jpg
1177.923	1.318	1	pointing	Trial2	pointing/STIM_000.jpg
1182.504	1.296	1	pointing	Trial2	pointing/STIM_000.jpg
1187.651	1.233	1	pointing	Trial2	pointing/STIM_000.jpg
1192.707	0.807	1	pointing	Trial2	pointing/STIM_001.jpg
1197.253	0.909	1	pointing	Trial2	pointing/STIM_001.jpg
1202.159	1.467	1	pointing	Trial2	pointing/STIM_001.jpg
1206.997	1.081	1	pointing	Trial2	pointing/STIM_001.jpg
1211.503	1.069	1	pointing	Trial2	pointing/STIM_001.jpg
1215.382	0.92	1	pointing	Trial2	pointing/STIM_001.jpg
1219.983	0.924	1	pointing	Trial2	pointing/STIM_002.jpg
1223.85	0.841	1	pointing	Trial2	pointing/STIM_002.jpg
1227.868	0.815	0	pointing	Trial2	pointing/STIM_002.jpg
1231.411	1.028	1	pointing	Trial2	pointing/STIM_002.jpg
1236.062	0.885	1	pointing	Trial2	pointing/STIM_002.jpg
1239.519	1.255	1	pointing	Trial2	pointing/STIM_002.jpg
1243.184	1.359	1	pointing	Trial2	pointing/STIM_003.jpg
1247.919	0.965	1	pointing	Trial2	pointing/STIM_003.jpg
1251.692	0.976	1	pointing	Trial2	pointing/STIM_003.jpg
1255.668	1.347	1	pointing	Trial2	pointing/STIM_003.jpg
1259.703	1.214	1	pointing	Trial2	pointing/STIM_003.jpg
1264.716	1.22	1	pointing	Trial2	pointing/STIM_003.jpg
1269.443	1.301	1	pointing	Trial2	pointing/STIM_004.jpg
1274.028	0.923	1	pointing	Trial2	pointing/STIM_004.jpg
1277.039	0.905	1	pointing	Trial2	pointing/STIM_004.jpg
1281.635	0.843	1	pointing	Trial2	pointing/STIM_004.jpg
1284.86	0.859	1	pointing	Trial2	pointing/STIM_004.jpg
1288.687	0.994	1	pointing	Trial2	pointing/STIM_004.jpg
1292.705	0.785	1	pointing	Trial2	pointing/STIM_005.jpg
1297.525	0.985	1	pointing	Trial2	pointing/STIM_005.jpg
1301.959	1.286	1	pointing	Trial2	pointing/STIM_005.jpg
1306.221	0.81	1	pointing	Trial2	pointing/STIM_005.jpg
1310.844	1.218	1	pointing	Trial2	pointing/STIM_005.jpg
1314.22	1.454	1	pointing	Trial2	pointing/STIM_005.jpg
1318.112	1.21	1	pointing	Trial2	pointing/STIM_006.jpg
1322.703	1.261	1	pointing	Trial2	pointing/STIM_006.jpg
1327.094	0.834	1	pointing	Trial2	pointing/STIM_006.jpg
1331.543	0.972	1	pointing	Trial2	pointing/STIM_006.jpg
1336.157	1.048	0	pointing	Trial2	pointing/STIM_006.jpg
1340.484	1.142	1	pointing	Trial2	pointing/STIM_006.jpg
1345.631	1.082	1	pointing	Trial2	pointing/STIM_007.jpg
1350.185	0.882	1	pointing	Trial2	pointing/STIM_007.jpg
1353.933	1.384	1	pointing	Trial2	pointing/STIM_007.jpg
1357.417	0.905	0	pointing	Trial2	pointing/STIM_007.jpg
1360.95	1.302	1	pointing	Trial2	pointing/STIM_007.jpg
1365.7	1.154	1	pointing	Trial2	pointing/STIM_007.jpg
1368.965	1.051	1	pointing	Trial2	pointing/STIM_008.jpg
1372.831	1.121	0	pointing	Trial2	pointing/STIM_008.jpg
1377.645	1.12	1	pointing	Trial2	pointing/STIM_008.jpg
1381.111	0.86	1	pointing	Trial2	pointing/STIM_008.jpg
1385.041	0.899	1	pointing	Trial2	pointing/STIM_008.jpg
1388.623	1.353	1	pointing	Trial2	pointing/STIM_008.jpg
1391.96	0.852	1	pointing	Trial2	pointing/STIM_009.jpg
1395.147	0.909	1	pointing	Trial2	pointing/STIM_009.jpg
1398.407	1.091	1	pointing	Trial2	pointing/STIM_009.jpg
1401.968	0.845	1	pointing	Trial2	pointing/STIM_009.jpg
1406.158	1.133	1	pointing	Trial2	pointing/STIM_009.jpg
1410.437	1.18	1	pointing	Trial2	pointing/STIM_009.jpg
1415.575	0.88	1	pointing	Trial2	pointing/STIM_010.jpg
1418.855	1.466	1	pointing	Trial2	pointing/STIM_010.jpg
1423.068	0.794	0	pointing	Trial2	pointing/STIM_010.jpg
1427.055	0.848	1	pointing	Trial2	pointing/STIM_010.jpg
1431.757	1.12	1	pointing	Trial2	pointing/STIM_010.jpg
1436.511	1.469	1	pointing	Trial2	pointing/STIM_010.jpg
1440.142	1.421	1	pointing	Trial2	pointing/STIM_011.jpg
1445.41	1.111	1	pointing	Trial2	pointing/STIM_011.jpg
1450.178	0.964	1	pointing	Trial2	pointing/STIM_011.jpg
1453.713	1.134	1	pointing	Trial2	pointing/STIM_011.jpg
1457.81	1.412	0	pointing	Trial2	pointing/STIM_011.jpg
1462.396	0.89	1	pointing	Trial2	pointing/STIM_011.jpg
1465.711	2.329	1	navigation	Trial3	navigation/STIM_000.jpg
1470.594	3.04	1	navigation	Trial3	navigation/STIM_000.jpg
1476.422	3.484	1	navigation	Trial3	navigation/STIM_000.jpg
1482.138	3.301	1	navigation	Trial3	navigation/STIM_000.jpg
1489.285	3.218	1	navigation	Trial3	navigation/STIM_000.jpg
1495.808	1.662	1	navigation	Trial3	navigation/STIM_000.jpg
1499.834	2.7	0	navigation	Trial3	navigation/STIM_001.jpg
1505.582	2.543	1	navigation	Trial3	navigation/STIM_001.jpg
1510.367	1.696	1	navigation	Trial3	navigation/STIM_001.jpg
1515.93	1.734	1	navigation	Trial3	navigation/STIM_001.jpg
1521.067	2.875	1	navigation	Trial3	navigation/STIM_001.jpg
1527.275	3.051	1	navigation	Trial3	navigation/STIM_001.jpg
1533.536	1.402	1	navigation	Trial3	navigation/STIM_002.jpg
1537.651	3.136	1	navigation	Trial3	navigation/STIM_002.jpg
1543.932	3.258	1	navigation	Trial3	navigation/STIM_002.jpg
1549.787	2.313	0	navigation	Trial3	navigation/STIM_002.jpg
1554.244	2.648	1	navigation	Trial3	navigation/STIM_002.jpg
1560.767	2.344	1	navigation	Trial3	navigation/STIM_002.jpg
1565.116	2.168	0	navigation	Trial3	navigation/STIM_003.jpg
1569.978	1.823	0	navigation	Trial3	navigation/STIM_003.jpg
1575.664	2.076	0	navigation	Trial3	navigation/STIM_003.jpg
1580.063	2.254	1	navigation	Trial3	navigation/STIM_003.jpg
1586.302	1.445	0	navigation	Trial3	navigation/STIM_003.jpg
1591.459	2.026	1	navigation	Trial3	navigation/STIM_003.jpg
1595.854	2.968	1	navigation	Trial3	navigation/STIM_004.jpg
1601.267	2.776	1	navigation	Trial3	navigation/STIM_004.jpg
1607.288	2.863	1	navigation	Trial3	navigation/STIM_004.jpg
1613.209	1.958	1	navigation	Trial3	navigation/STIM_004.jpg
1617.743	1.94	1	navigation	Trial3	navigation/STIM_004.jpg
1622.839	2.351	1	navigation	Trial3	navigation/STIM_004.jpg
1627.858	1.829	1	navigation	Trial3	navigation/STIM_005.jpg
1632.397	2.806	1	navigation	Trial3	navigation/STIM_005.jpg
1638.975	2.617	1	navigation	Trial3	navigation/STIM_005.jpg
1645.526	2.73	1	navigation	Trial3	navigation/STIM_005.jpg
1651.836	3.384	1	navigation	Trial3	navigation/STIM_005.jpg
1658.218	3.033	1	navigation	Trial3	navigation/STIM_005.jpg
1664.024	3.547	1	navigation	Trial3	navigation/STIM_006.jpg
1670.29	1.567	1	navigation	Trial3	navigation/STIM_006.jpg
1675.562	1.69	1	navigation	Trial3	navigation/STIM_006.jpg
1679.88	3.36	1	navigation	Trial3	navigation/STIM_006.jpg
1685.672	2.452	1	navigation	Trial3	navigation/STIM_006.jpg
1691.281	2.647	1	navigation	Trial3	navigation/STIM_006.jpg
1696.936	3.181	1	navigation	Trial3	navigation/STIM_007.jpg
1703.312	1.625	1	navigation	Trial3	navigation/STIM_007.jpg
1708.467	3.107	1	navigation	Trial3	navigation/STIM_007.jpg
1714.856	1.788	1	navigation	Trial3	navigation/STIM_007.jpg
1718.947	3.002	0	navigation	Trial3	navigation/STIM_007.jpg
1725.847	3.344	1	navigation	Trial3	navigation/STIM_007.jpg
1732.736	1.831	0	navigation	Trial3	navigation/STIM_008.jpg
1738.387	2.404	0	navigation	Trial3	navigation/STIM_008.jpg
1744.118	1.915	1	navigation	Trial3	navigation/STIM_008.jpg
1749.732	2.758	1	navigation	Trial3	navigation/STIM_008.jpg
1754.637	3.448	1	navigation	Trial3	navigation/STIM_008.jpg
1762.023	2.632	1	navigation	Trial3	navigation/STIM_008.jpg
1768.264	3.129	1	navigation	Trial3	navigation/STIM_009.jpg
1774.068	3.211	1	navigation	Trial3	navigation/STIM_009.jpg
1780.411	3.465	1	navigation	Trial3	navigation/STIM_009.jpg
1786.784	2.43	1	navigation	Trial3	navigation/STIM_009.jpg
1792.694	3.406	1	navigation	Trial3	navigation/STIM_009.jpg
1798.224	1.549	1	navigation	Trial3	navigation/STIM_009.jpg
1802.565	1.503	1	navigation	Trial3	navigation/STIM_010.jpg
1806.902	1.974	1	navigation	Trial3	navigation/STIM_010.jpg
1811.813	2.778	1	navigation	Trial3	navigation/STIM_010.jpg
1818.251	1.636	0	navigation	Trial3	navigation/STIM_010.jpg
1821.868	1.577	1	navigation	Trial3	navigation/STIM_010.jpg
1825.788	2.186	1	navigation	Trial3	navigation/STIM_010.jpg
1831.093	1.518	1	navigation	Trial3	navigation/STIM_011.jpg
1835.06	1.535	1	navigation	Trial3	navigation/STIM_011.jpg
1840.511	2.94	1	navigation	Trial3	navigation/STIM_011.jpg
1846.987	3.233	1	navigation	Trial3	navigation/STIM_011.jpg
1853.883	3.259	1	navigation	Trial3	navigation/STIM_011.jpg
1860.074	1.37	0	navigation	Trial3	navigation/STIM_011.jpg
1863.71	1.157	0	pointing	Trial3	pointing/STIM_000.jpg
1867.04	1.085	1	pointing	Trial3	pointing/STIM_000.jpg
1871.848	0.981	1	pointing	Trial3	pointing/STIM_000.jpg
1875.048	0.927	1	pointing	Trial3	pointing/STIM_000.jpg
1878.579	0.946	1	pointing	Trial3	pointing/STIM_000.jpg
1881.886	1.431	0	pointing	Trial3	pointing/STIM_000.jpg
1886.605	1.34	0	pointing	Trial3	pointing/STIM_001.jpg
1890.076	1.031	1	pointing	Trial3	pointing/STIM_001.jpg
1894.657	0.848	1	pointing	Trial3	pointing/STIM_001.jpg
1899.538	0.957	1	pointing	Trial3	pointing/STIM_001.jpg
1903.651	0.797	1	pointing	Trial3	pointing/STIM_001.jpg
1907.757	1.316	1	pointing	Trial3	pointing/STIM_001.jpg
1912.516	0.855	0	pointing	Trial3	pointing/STIM_002.jpg
1916.947	0.89	1	pointing	Trial3	pointing/STIM_002.jpg
1920.189	0.962	1	pointing	Trial3	pointing/STIM_002.jpg
1923.664	1.51	1	pointing	Trial3	pointing/STIM_002.jpg
1929.13	0.961	1	pointing	Trial3	pointing/STIM_002.jpg
1933.754	0.822	1	pointing	Trial3	pointing/STIM_002.jpg
1937.232	0.931	1	pointing	Trial3	pointing/STIM_003.jpg
1941.994	1.355	1	pointing	Trial3	pointing/STIM_003.jpg
1946.517	1.277	1	pointing	Trial3	pointing/STIM_003.jpg
1950.853	0.931	1	pointing	Trial3	pointing/STIM_003.jpg
1955.225	1.215	1	pointing	Trial3	pointing/STIM_003.jpg
1959.174	1.277	1	pointing	Trial3	pointing/STIM_003.jpg
1963.386	1.194	1	pointing	Trial3	pointing/STIM_004.jpg
1967.86	0.964	1	pointing	Trial3	pointing/STIM_004.jpg
1972.046	0.788	1	pointing	Trial3	pointing/STIM_004.jpg
1975.07	1.151	1	pointing	Trial3	pointing/STIM_004.jpg
1979.103	1.514	1	pointing	Trial3	pointing/STIM_004.jpg
1983.495	1.465	1	pointing	Trial3	pointing/STIM_004.jpg
1987.759	0.766	1	pointing	Trial3	pointing/STIM_005.jpg
1990.879	1.179	1	pointing	Trial3	pointing/STIM_005.jpg
1995.921	0.991	1	pointing	Trial3	pointing/STIM_005.jpg
2000.193	1.41	1	pointing	Trial3	pointing/STIM_005.jpg
2003.771	1.222	0	pointing	Trial3	pointing/STIM_005.jpg
2007.031	1.042	1	pointing	Trial3	pointing/STIM_005.jpg
2010.644	1.438	1	pointing	Trial3	pointing/STIM_006.jpg
2014.439	1.28	0	pointing	Trial3	pointing/STIM_006.jpg
2018.469	0.98	1	pointing	Trial3	pointing/STIM_006.jpg
2022.066	1.141	1	pointing	Trial3	pointing/STIM_006.jpg
2025.482	1.475	1	pointing	Trial3	pointing/STIM_006.jpg
2029.782	0.988	0	pointing	Trial3	pointing/STIM_006.jpg
2033.966	0.792	1	pointing	Trial3	pointing/STIM_007.jpg
2037.496	0.831	1	pointing	Trial3	pointing/STIM_007.jpg
2041.706	1.328	1	pointing	Trial3	pointing/STIM_007.jpg
2046.403	1.24	1	pointing	Trial3	pointing/STIM_007.jpg
2051.608	1.082	1	pointing	Trial3	pointing/STIM_007.jpg
2055.048	0.836	1	pointing	Trial3	pointing/STIM_007.jpg
2059.726	1.206	1	pointing	Trial3	pointing/STIM_008.jpg
2064.507	1.234	1	pointing	Trial3	pointing/STIM_008.jpg
2069.314	1.395	1	pointing	Trial3	pointing/STIM_008.jpg
2073.595	1.299	1	pointing	Trial3	pointing/STIM_008.jpg
2077.701	1.276	1	pointing	Trial3	pointing/STIM_008.jpg
2082.574	0.923	0	pointing	Trial3	pointing/STIM_008.jpg
2086.018	1.33	1	pointing	Trial3	pointing/STIM_009.jpg
2090.569	0.997	1	pointing	Trial3	pointing/STIM_009.jpg
2095.202	1.104	1	pointing	Trial3	pointing/STIM_009.jpg
2099.498	0.934	1	pointing	Trial3	pointing/STIM_009.jpg
2103.647	1.083	1	pointing	Trial3	pointing/STIM_009.jpg
2108.151	0.984	1	pointing	Trial3	pointing/STIM_009.jpg
2111.934	1.078	1	pointing	Trial3	pointing/STIM_010.jpg
2116.311	1.26	1	pointing	Trial3	pointing/STIM_010.jpg
2121.103	0.767	0	pointing	Trial3	pointing/STIM_010.jpg
2125.303	1.017	1	pointing	Trial3	pointing/STIM_010.jpg
2129.768	0.909	1	pointing	Trial3	pointing/STIM_010.jpg
2133.488	0.777	1	pointing	Trial3	pointing/STIM_010.jpg
2136.367	1.356	1	pointing	Trial3	pointing/STIM_011.jpg
2139.998	0.722	1	pointing	Trial3	pointing/STIM_011.jpg
2144.302	1.059	1	pointing	Trial3	pointing/STIM_011.jpg
2147.591	1.348	1	pointing	Trial3	pointing/STIM_011.jpg
2151.582	0.877	1	pointing	Trial3	pointing/STIM_011.jpg
2155.354	1.107	1	pointing	Trial3	pointing/STIM_011.jpg
