onset	duration	accuracy_binary	trial_type	learning_stage	stimulus
0.0	2.944	1	navigation	Trial1	navigation/STIM_000.jpg
5.905	4.456	1	navigation	Trial1	navigation/STIM_000.jpg
13.146	2.249	1	navigation	Trial1	navigation/STIM_000.jpg
17.52	3.702	0	navigation	Trial1	navigation/STIM_000.jpg
24.787	3.636	1	navigation	Trial1	navigation/STIM_000.jpg
31.804	3.629	1	navigation	Trial1	navigation/STIM_000.jpg
38.87	3.203	0	navigation	Trial1	navigation/STIM_001.jpg
44.197	2.766	1	navigation	Trial1	navigation/STIM_001.jpg
50.771	2.952	0	navigation	Trial1	navigation/STIM_001.jpg
57.34	3.611	1	navigation	Trial1	navigation/STIM_001.jpg
64.182	1.914	1	navigation	Trial1	navigation/STIM_001.jpg
69.576	3.116	1	navigation	Trial1	navigation/STIM_001.jpg
75.94	3.219	1	navigation	Trial1	navigation/STIM_002.jpg
82.45	2.438	1	navigation	Trial1	navigation/STIM_002.jpg
87.177	2.254	1	navigation	Trial1	navigation/STIM_002.jpg
91.835	2.89	1	navigation	Trial1	navigation/STIM_002.jpg
98.077	2.038	0	navigation	Trial1	navigation/STIM_002.jpg
102.137	1.702	1	navigation	Trial1	navigation/STIM_002.jpg
106.529	2.138	0	navigation	Trial1	navigation/STIM_003.jpg
111.724	4.336	1	navigation	Trial1	navigation/STIM_003.jpg
118.213	4.457	0	navigation	Trial1	navigation/STIM_003.jpg
125.498	2.088	1	navigation	Trial1	navigation/STIM_003.jpg
130.167	1.941	1	navigation	Trial1	navigation/STIM_003.jpg
135.115	2.306	0	navigation	Trial1	navigation/STIM_003.jpg
140.119	2.931	1	navigation	Trial1	navigation/STIM_004.jpg
146.058	4.451	1	navigation	Trial1	navigation/STIM_004.jpg
153.272	4.549	1	navigation	Trial1	navigation/STIM_004.jpg
160.969	2.555	1	navigation	Trial1	navigation/STIM_004.jpg
166.733	2.601	1	navigation	Trial1	navigation/STIM_004.jpg
172.45	2.096	1	navigation	Trial1	navigation/STIM_004.jpg
176.825	5.087	1	navigation	Trial1	navigation/STIM_005.jpg
185.397	3.356	1	navigation	Trial1	navigation/STIM_005.jpg
190.884	2.474	1	navigation	Trial1	navigation/STIM_005.jpg
196.739	2.15	0	navigation	Trial1	navigation/STIM_005.jpg
201.356	3.723	1	navigation	Trial1	navigation/STIM_005.jpg
208.676	2.07	1	navigation	Trial1	navigation/STIM_005.jpg
214.505	4.818	0	navigation	Trial1	navigation/STIM_006.jpg
221.721	3.65	1	navigation	Trial1	navigation/STIM_006.jpg
227.417	2.446	0	navigation	Trial1	navigation/STIM_006.jpg
233.709	2.687	1	navigation	Trial1	navigation/STIM_006.jpg
238.648	2.8	0	navigation	Trial1	navigation/STIM_006.jpg
244.216	1.565	1	navigation	Trial1	navigation/STIM_006.jpg
248.043	4.202	1	navigation	Trial1	navigation/STIM_007.jpg
255.327	2.517	1	navigation	Trial1	navigation/STIM_007.jpg
260.05	2.777	0	navigation	Trial1	navigation/STIM_007.jpg
265.275	3.477	1	navigation	Trial1	navigation/STIM_007.jpg
272.72	3.924	1	navigation	Trial1	navigation/STIM_007.jpg
280.546	2.04	1	navigation	Trial1	navigation/STIM_007.jpg
285.757	3.624	1	navigation	Trial1	navigation/STIM_008.jpg
292.255	2.321	1	navigation	Trial1	navigation/STIM_008.jpg
296.722	4.085	1	navigation	Trial1	navigation/STIM_008.jpg
303.723	3.616	1	navigation	Trial1	navigation/STIM_008.jpg
310.555	3.736	1	navigation	Trial1	navigation/STIM_008.jpg
316.362	2.446	1	navigation	Trial1	navigation/STIM_008.jpg
321.513	3.308	0	navigation	Trial1	navigation/STIM_009.jpg
328.641	2.875	1	navigation	Trial1	navigation/STIM_009.jpg
334.067	3.422	1	navigation	Trial1	navigation/STIM_009.jpg
340.688	3.784	1	navigation	Trial1	navigation/STIM_009.jpg
347.493	2.615	1	navigation	Trial1	navigation/STIM_009.jpg
353.377	2.827	1	navigation	Trial1	navigation/STIM_009.jpg
358.857	2.87	1	navigation	Trial1	navigation/STIM_010.jpg
364.698	4.555	1	navigation	Trial1	navigation/STIM_010.jpg
371.407	2.538	1	navigation	Trial1	navigation/STIM_010.jpg
377.462	2.97	1	navigation	Trial1	navigation/STIM_010.jpg
384.001	3.481	1	navigation	Trial1	navigation/STIM_010.jpg
390.74	3.642	1	navigation	Trial1	navigation/STIM_010.jpg
397.344	4.007	0	navigation	Trial1	navigation/STIM_011.jpg
404.172	2.854	0	navigation	Trial1	navigation/STIM_011.jpg
409.371	1.948	1	navigation	Trial1	navigation/STIM_011.jpg
415.21	2.395	1	navigation	Trial1	navigation/STIM_011.jpg
421.331	3.146	0	navigation	Trial1	navigation/STIM_011.jpg
426.743	3.231	0	navigation	Trial1	navigation/STIM_011.jpg
432.359	0.936	1	pointing	Trial1	pointing/STIM_000.jpg
437.182	1.174	1	pointing	Trial1	pointing/STIM_000.jpg
441.725	1.52	1	pointing	Trial1	pointing/STIM_000.jpg
445.295	1.125	1	pointing	Trial1	pointing/STIM_000.jpg
448.732	1.238	1	pointing	Trial1	pointing/STIM_000.jpg
452.647	1.426	1	pointing	Trial1	pointing/STIM_000.jpg
456.708	1.371	1	pointing	Trial1	pointing/STIM_001.jpg
460.65	1.332	1	pointing	Trial1	pointing/STIM_001.jpg
465.937	0.857	1	pointing	Trial1	pointing/STIM_001.jpg
470.473	0.97	1	pointing	Trial1	pointing/STIM_001.jpg
473.818	1.372	1	pointing	Trial1	pointing/STIM_001.jpg
478.856	1.273	1	pointing	Trial1	pointing/STIM_001.jpg
483.21	0.862	1	pointing	Trial1	pointing/STIM_002.jpg
487.061	1.397	1	pointing	Trial1	pointing/STIM_002.jpg
491.842	1.491	1	pointing	Trial1	pointing/STIM_002.jpg
495.347	1.015	1	pointing	Trial1	pointing/STIM_002.jpg
499.099	0.915	1	pointing	Trial1	pointing/STIM_002.jpg
503.317	1.539	1	pointing	Trial1	pointing/STIM_002.jpg
508.811	1.344	1	pointing	Trial1	pointing/STIM_003.jpg
513.547	0.948	1	pointing	Trial1	pointing/STIM_003.jpg
518.272	1.474	1	pointing	Trial1	pointing/STIM_003.jpg
522.474	0.879	1	pointing	Trial1	pointing/STIM_003.jpg
527.233	1.458	1	pointing	Trial1	pointing/STIM_003.jpg
531.054	1.033	1	pointing	Trial1	pointing/STIM_003.jpg
535.656	1.131	1	pointing	Trial1	pointing/STIM_004.jpg
540.17	0.987	1	pointing	Trial1	pointing/STIM_004.jpg
543.369	1.036	1	pointing	Trial1	pointing/STIM_004.jpg
547.082	0.974	1	pointing	Trial1	pointing/STIM_004.jpg
550.629	1.248	1	pointing	Trial1	pointing/STIM_004.jpg
554.708	1.269	1	pointing	Trial1	pointing/STIM_004.jpg
559.038	1.331	1	pointing	Trial1	pointing/STIM_005.jpg
563.306	1.298	1	pointing	Trial1	pointing/STIM_005.jpg
567.418	0.999	1	pointing	Trial1	pointing/STIM_005.jpg
571.225	1.498	1	pointing	Trial1	pointing/STIM_005.jpg
575.709	1.006	1	pointing	Trial1	pointing/STIM_005.jpg
579.604	1.214	1	pointing	Trial1	pointing/STIM_005.jpg
584.384	1.141	1	pointing	Trial1	pointing/STIM_006.jpg
587.556	1.416	1	pointing	Trial1	pointing/STIM_006.jpg
592.648	1.324	1	pointing	Trial1	pointing/STIM_006.jpg
596.64	0.922	1	pointing	Trial1	pointing/STIM_006.jpg
600.81	0.944	1	pointing	Trial1	pointing/STIM_006.jpg
604.88	1.332	1	pointing	Trial1	pointing/STIM_006.jpg
608.882	0.875	1	pointing	Trial1	pointing/STIM_007.jpg
612.568	1.383	1	pointing	Trial1	pointing/STIM_007.jpg
616.172	1.15	1	pointing	Trial1	pointing/STIM_007.jpg
620.947	0.908	1	pointing	Trial1	pointing/STIM_007.jpg
624.961	1.487	1	pointing	Trial1	pointing/STIM_007.jpg
629.892	0.963	1	pointing	Trial1	pointing/STIM_007.jpg
632.961	1.408	1	pointing	Trial1	pointing/STIM_008.jpg
636.82	1.204	1	pointing	Trial1	pointing/STIM_008.jpg
641.917	1.474	1	pointing	Trial1	pointing/STIM_008.jpg
645.425	1.272	1	pointing	Trial1	pointing/STIM_008.jpg
650.592	1.48	1	pointing	Trial1	pointing/STIM_008.jpg
655.118	0.948	1	pointing	Trial1	pointing/STIM_008.jpg
658.467	1.229	0	pointing	Trial1	pointing/STIM_009.jpg
663.404	1.031	1	pointing	Trial1	pointing/STIM_009.jpg
667.038	1.001	1	pointing	Trial1	pointing/STIM_009.jpg
671.035	0.985	1	pointing	Trial1	pointing/STIM_009.jpg
676.006	1.24	1	pointing	Trial1	pointing/STIM_009.jpg
680.123	1.343	1	pointing	Trial1	pointing/STIM_009.jpg
683.837	0.889	1	pointing	Trial1	pointing/STIM_010.jpg
686.862	1.333	1	pointing	Trial1	pointing/STIM_010.jpg
691.154	1.07	1	pointing	Trial1	pointing/STIM_010.jpg
695.864	1.521	1	pointing	Trial1	pointing/STIM_010.jpg
700.807	0.853	0	pointing	Trial1	pointing/STIM_010.jpg
705.298	1.054	1	pointing	Trial1	pointing/STIM_010.jpg
709.326	1.313	1	pointing	Trial1	pointing/STIM_011.jpg
713.079	1.434	1	pointing	Trial1	pointing/STIM_011.jpg
717.341	1.08	1	pointing	Trial1	pointing/STIM_011.jpg
722.225	1.44	1	pointing	Trial1	pointing/STIM_011.jpg
726.173	1.341	1	pointing	Trial1	pointing/STIM_011.jpg
731.171	1.095	1	pointing	Trial1	pointing/STIM_011.jpg
735.465	2.784	1	navigation	Trial2	navigation/STIM_000.jpg
740.611	2.548	1	navigation	Trial2	navigation/STIM_000.jpg
746.805	3.776	0	navigation	Trial2	navigation/STIM_000.jpg
752.677	2.961	1	navigation	Trial2	navigation/STIM_000.jpg
757.783	2.79	1	navigation	Trial2	navigation/STIM_000.jpg
763.356	2.258	1	navigation	Trial2	navigation/STIM_000.jpg
769.043	4.172	1	navigation	Trial2	navigation/STIM_001.jpg
776.604	3.011	1	navigation	Trial2	navigation/STIM_001.jpg
782.112	3.571	1	navigation	Trial2	navigation/STIM_001.jpg
788.602	3.319	0	navigation	Trial2	navigation/STIM_001.jpg
795.171	1.831	1	navigation	Trial2	navigation/STIM_001.jpg
799.828	3.377	1	navigation	Trial2	navigation/STIM_001.jpg
805.689	2.01	1	navigation	Trial2	navigation/STIM_002.jpg
811.173	2.716	1	navigation	Trial2	navigation/STIM_002.jpg
816.06	3.508	1	navigation	Trial2	navigation/STIM_002.jpg
822.851	1.703	0	navigation	Trial2	navigation/STIM_002.jpg
827.031	2.958	1	navigation	Trial2	navigation/STIM_002.jpg
833.005	2.222	1	navigation	Trial2	navigation/STIM_002.jpg
837.624	2.82	1	navigation	Trial2	navigation/STIM_003.jpg
842.723	2.309	1	navigation	Trial2	navigation/STIM_003.jpg
848.629	2.002	0	navigation	Trial2	navigation/STIM_003.jpg
854.361	1.983	1	navigation	Trial2	navigation/STIM_003.jpg
858.456	2.62	1	navigation	Trial2	navigation/STIM_003.jpg
864.044	2.124	1	navigation	Trial2	navigation/STIM_003.jpg
868.616	3.065	0	navigation	Trial2	navigation/STIM_004.jpg
875.636	3.832	1	navigation	Trial2	navigation/STIM_004.jpg
883.437	1.596	1	navigation	Trial2	navigation/STIM_004.jpg
887.798	3.57	1	navigation	Trial2	navigation/STIM_004.jpg
893.73	3.215	1	navigation	Trial2	navigation/STIM_004.jpg
900.833	2.671	1	navigation	Trial2	navigation/STIM_004.jpg
907.212	2.864	1	navigation	Trial2	navigation/STIM_005.jpg
912.413	2.096	1	navigation	Trial2	navigation/STIM_005.jpg
918.42	2.491	0	navigation	Trial2	navigation/STIM_005.jpg
924.861	2.485	0	navigation	Trial2	navigation/STIM_005.jpg
929.565	1.639	1	navigation	Trial2	navigation/STIM_005.jpg
933.421	2.308	1	navigation	Trial2	navigation/STIM_005.jpg
938.512	3.617	1	navigation	Trial2	navigation/STIM_006.jpg
945.563	3.731	1	navigation	Trial2	navigation/STIM_006.jpg
951.987	1.621	0	navigation	Trial2	navigation/STIM_006.jpg
956.247	2.746	1	navigation	Trial2	navigation/STIM_006.jpg
961.986	1.802	1	navigation	Trial2	navigation/STIM_006.jpg
966.077	1.991	1	navigation	Trial2	navigation/STIM_006.jpg
970.999	2.254	1	navigation	Trial2	navigation/STIM_007.jpg
976.64	3.394	1	navigation	Trial2	navigation/STIM_007.jpg
983.583	2.818	1	navigation	Trial2	navigation/STIM_007.jpg
989.454	2.721	1	navigation	Trial2	navigation/STIM_007.jpg
995.462	1.594	1	navigation	Trial2	navigation/STIM_007.jpg
1000.869	2.798	1	navigation	Trial2	navigation/STIM_007.jpg
1007.333	3.587	1	navigation	Trial2	navigation/STIM_008.jpg
1013.936	2.504	1	navigation	Trial2	navigation/STIM_008.jpg
1020.249	3.694	1	navigation	Trial2	navigation/STIM_008.jpg
1027.721	2.613	1	navigation	Trial2	navigation/STIM_008.jpg
1033.945	2.803	1	navigation	Trial2	navigation/STIM_008.jpg
1040.578	3.487	1	navigation	Trial2	navigation/STIM_008.jpg
1046.831	3.418	1	navigation	Trial2	navigation/STIM_009.jpg
1054.138	2.675	1	navigation	Trial2	navigation/STIM_009.jpg
1060.601	1.962	1	navigation	Trial2	navigation/STIM_009.jpg
1065.823	1.718	0	navigation	Trial2	navigation/STIM_009.jpg
1070.86	3.411	0	navigation	Trial2	navigation/STIM_009.jpg
1076.791	2.95	1	navigation	Trial2	navigation/STIM_009.jpg
1082.45	2.526	1	navigation	Trial2	navigation/STIM_010.jpg
1088.094	2.195	1	navigation	Trial2	navigation/STIM_010.jpg
1092.483	1.7	1	navigation	Trial2	navigation/STIM_010.jpg
1096.831	2.591	1	navigation	Trial2	navigation/STIM_010.jpg
1102.719	2.63	1	navigation	Trial2	navigation/STIM_010.jpg
1107.707	3.477	1	navigation	Trial2	navigation/STIM_010.jpg
1114.827	2.926	1	navigation	Trial2	navigation/STIM_011.jpg
1120.201	2.5	1	navigation	Trial2	navigation/STIM_011.jpg
1126.387	3.037	1	navigation	Trial2	navigation/STIM_011.jpg
1133.121	2.903	1	navigation	Trial2	navigation/STIM_011.jpg
1138.799	3.551	1	navigation	Trial2	navigation/STIM_011.jpg
1144.949	2.714	0	navigation	Trial2	navigation/STIM_011.jpg
1151.002	1.062	1	pointing	Trial2	pointing/STIM_000.jpg
1154.472	1.499	1	pointing	Trial2	pointing/STIM_000.jpg
1158.354	0.872	1	pointing	Trial2	pointing/STIM_000.jpg
1163.112	1.193	1	pointing	Trial2	pointing/STIM_000.jpg
1166.321	0.85	1	pointing	Trial2	pointing/STIM_000.jpg
1170.725	1.354	1	pointing	Trial2	pointing/STIM_000.jpg
1174.954	1.02	1	pointing	Trial2	pointing/STIM_001.jpg
1178.735	0.939	1	pointing	Trial2	pointing/STIM_001.jpg
1182.494	1.306	1	pointing	Trial2	pointing/STIM_001.jpg
1186.334	1.215	1	pointing	Trial2	pointing/STIM_001.jpg
1191.032	1.296	1	pointing	Trial2	pointing/STIM_001.jpg
1195.665	1.013	1	pointing	Trial2	pointing/STIM_001.jpg
1198.767	1.507	1	pointing	Trial2	pointing/STIM_002.jpg
1203.202	1.256	1	pointing	Trial2	pointing/STIM_002.jpg
1206.565	1.505	0	pointing	Trial2	pointing/STIM_002.jpg
1211.803	0.906	1	pointing	Trial2	pointing/STIM_002.jpg
1215.85	1.164	1	pointing	Trial2	pointing/STIM_002.jpg
1220.067	1.074	1	pointing	Trial2	pointing/STIM_002.jpg
1223.943	0.824	1	pointing	Trial2	pointing/STIM_003.jpg
1228.194	1.178	1	pointing	Trial2	pointing/STIM_003.jpg
1233.293	1.476	1	pointing	Trial2	pointing/STIM_003.jpg
1237.512	0.948	1	pointing	Trial2	pointing/STIM_003.jpg
1242.412	1.414	1	pointing	Trial2	pointing/STIM_003.jpg
1246.092	1.496	1	pointing	Trial2	pointing/STIM_003.jpg
1249.969	1.35	1	pointing	Trial2	pointing/STIM_004.jpg
1253.75	1.269	1	pointing	Trial2	pointing/STIM_004.jpg
1258.944	1.38	1	pointing	Trial2	pointing/STIM_004.jpg
1263.519	1.258	1	pointing	Trial2	pointing/STIM_004.jpg
1267.266	1.375	1	pointing	Trial2	pointing/STIM_004.jpg
1271.612	0.959	1	pointing	Trial2	pointing/STIM_004.jpg
1276.488	0.897	1	pointing	Trial2	pointing/STIM_005.jpg
1280.866	0.985	1	pointing	Trial2	pointing/STIM_005.jpg
1284.619	1.25	1	pointing	Trial2	pointing/STIM_005.jpg
1288.602	1.334	1	pointing	Trial2	pointing/STIM_005.jpg
1292.757	1.046	1	pointing	Trial2	pointing/STIM_005.jpg
1297.445	1.172	1	pointing	Trial2	pointing/STIM_005.jpg
1301.765	0.983	1	pointing	Trial2	pointing/STIM_006.jpg
1304.863	1.442	1	pointing	Trial2	pointing/STIM_006.jpg
1309.98	0.874	1	pointing	Trial2	pointing/STIM_006.jpg
1314.133	1.208	1	pointing	Trial2	pointing/STIM_006.jpg
1317.803	0.911	1	pointing	Trial2	pointing/STIM_006.jpg
1321.579	1.026	1	pointing	Trial2	pointing/STIM_006.jpg
1325.379	1.51	1	pointing	Trial2	pointing/STIM_007.jpg
1328.938	1.173	1	pointing	Trial2	pointing/STIM_007.jpg
1332.797	0.933	1	pointing	Trial2	pointing/STIM_007.jpg
1337.538	1.36	1	pointing	Trial2	pointing/STIM_007.jpg
1341.439	0.975	1	pointing	Trial2	pointing/STIM_007.jpg
1344.781	1.426	1	pointing	Trial2	pointing/STIM_007.jpg
1348.234	1.24	1	pointing	Trial2	pointing/STIM_008.jpg
1352.602	1.315	1	pointing	Trial2	pointing/STIM_008.jpg
1356.513	1.275	1	pointing	Trial2	pointing/STIM_008.jpg
1361.689	1.518	1	pointing	Trial2	pointing/STIM_008.jpg
1365.46	0.89	1	pointing	Trial2	pointing/STIM_008.jpg
1368.351	1.504	1	pointing	Trial2	pointing/STIM_008.jpg
1372.665	1.264	1	pointing	Trial2	pointing/STIM_009.jpg
1376.901	1.441	1	pointing	Trial2	pointing/STIM_009.jpg
1381.665	1.207	1	pointing	Trial2	pointing/STIM_009.jpg
1386.564	1.241	1	pointing	Trial2	pointing/STIM_009.jpg
1389.997	1.42	1	pointing	Trial2	pointing/STIM_009.jpg
1395.196	0.826	1	pointing	Trial2	pointing/STIM_009.jpg
1399.739	0.89	1	pointing	Trial2	pointing/STIM_010.jpg
1403.617	1.172	1	pointing	Trial2	pointing/STIM_010.jpg
1408.655	1.16	0	pointing	Trial2	pointing/STIM_010.jpg
1412.636	1.088	1	pointing	Trial2	pointing/STIM_010.jpg
1416.05	1.116	1	pointing	Trial2	pointing/STIM_010.jpg
1420.346	0.93	1	pointing	Trial2	pointing/STIM_010.jpg
1423.494	1.156	1	pointing	Trial2	pointing/STIM_011.jpg
1428.441	1.271	1	pointing	Trial2	pointing/STIM_011.jpg
1432.581	0.98	1	pointing	Trial2	pointing/STIM_011.jpg
1436.476	1.48	1	pointing	Trial2	pointing/STIM_011.jpg
1441.624	0.941	0	pointing	Trial2	pointing/STIM_011.jpg
1446.431	1.166	1	pointing	Trial2	pointing/STIM_011.jpg
1451.311	2.548	1	navigation	Trial3	navigation/STIM_000.jpg
1455.957	2.99	1	navigation	Trial3	navigation/STIM_000.jpg
1462.29	3.394	1	navigation	Trial3	navigation/STIM_000.jpg
1467.914	3.48	1	navigation	Trial3	navigation/STIM_000.jpg
1473.679	3.542	1	navigation	Trial3	navigation/STIM_000.jpg
1479.954	2.396	1	navigation	Trial3	navigation/STIM_000.jpg
1485.925	3.208	1	navigation	Trial3	navigation/STIM_001.jpg
1491.545	3.393	1	navigation	Trial3	navigation/STIM_001.jpg
1496.971	3.382	1	navigation	Trial3	navigation/STIM_001.jpg
1503.971	1.576	1	navigation	Trial3	navigation/STIM_001.jpg
1508.531	1.961	1	navigation	Trial3	navigation/STIM_001.jpg
1513.167	2.414	1	navigation	Trial3	navigation/STIM_001.jpg
1519.568	3.136	1	navigation	Trial3	navigation/STIM_002.jpg
1525.787	2.588	1	navigation	Trial3	navigation/STIM_002.jpg
1531.147	1.558	1	navigation	Trial3	navigation/STIM_002.jpg
1536.527	3.48	0	navigation	Trial3	navigation/STIM_002.jpg
1543.771	3.576	1	navigation	Trial3	navigation/STIM_002.jpg
1549.534	1.835	1	navigation	Trial3	navigation/STIM_002.jpg
1554.497	2.181	0	navigation	Trial3	navigation/STIM_003.jpg
1559.355	3.148	0	navigation	Trial3	navigation/STIM_003.jpg
1566.353	2.96	0	navigation	Trial3	navigation/STIM_003.jpg
1573.215	2.233	1	navigation	Trial3	navigation/STIM_003.jpg
1578.774	3.296	1	navigation	Trial3	navigation/STIM_003.jpg
1585.118	1.979	1	navigation	Trial3	navigation/STIM_003.jpg
1589.274	2.68	1	navigation	Trial3	navigation/STIM_004.jpg
1595.806	2.8	1	navigation	Trial3	navigation/STIM_004.jpg
1601.424	3.259	1	navigation	Trial3	navigation/STIM_004.jpg
1606.766	2.571	1	navigation	Trial3	navigation/STIM_004.jpg
1611.598	2.805	1	navigation	Trial3	navigation/STIM_004.jpg
1617.225	2.865	1	navigation	Trial3	navigation/STIM_004.jpg
1623.239	1.904	1	navigation	Trial3	navigation/STIM_005.jpg
1628.914	2.243	1	navigation	Trial3	navigation/STIM_005.jpg
1634.443	3.21	1	navigation	Trial3	navigation/STIM_005.jpg
1640.716	2.125	1	navigation	Trial3	navigation/STIM_005.jpg
1645.865	2.134	1	navigation	Trial3	navigation/STIM_005.jpg
1651.274	1.882	1	navigation	Trial3	navigation/STIM_005.jpg
1655.793	1.48	1	navigation	Trial3	navigation/STIM_006.jpg
1660.852	2.373	1	navigation	Trial3	navigation/STIM_006.jpg
1667.045	2.714	1	navigation	Trial3	navigation/STIM_006.jpg
1672.107	2.301	1	navigation	Trial3	navigation/STIM_006.jpg
1676.732	2.12	1	navigation	Trial3	navigation/STIM_006.jpg
1681.486	2.379	1	navigation	Trial3	navigation/STIM_006.jpg
1685.959	3.04	1	navigation	Trial3	navigation/STIM_007.jpg
1692.362	2.438	1	navigation	Trial3	navigation/STIM_007.jpg
1698.037	2.06	1	navigation	Trial3	navigation/STIM_007.jpg
1704.082	1.951	1	navigation	Trial3	navigation/STIM_007.jpg
1708.368	2.46	1	navigation	Trial3	navigation/STIM_007.jpg
1714.154	3.517	1	navigation	Trial3	navigation/STIM_007.jpg
1721.642	2.003	0	navigation	Trial3	navigation/STIM_008.jpg
1726.925	2.161	1	navigation	Trial3	navigation/STIM_008.jpg
1732.862	2.779	1	navigation	Trial3	navigation/STIM_008.jpg
1739.324	3.089	1	navigation	Trial3	navigation/STIM_008.jpg
1745.933	1.501	1	navigation	Trial3	navigation/STIM_008.jpg
1750.712	2.67	1	navigation	Trial3	navigation/STIM_008.jpg
1755.454	3.262	1	navigation	Trial3	navigation/STIM_009.jpg
1761.311	1.996	1	navigation	Trial3	navigation/STIM_009.jpg
1765.762	1.765	1	navigation	Trial3	navigation/STIM_009.jpg
1771.183	2.81	1	navigation	Trial3	navigation/STIM_009.jpg
1776.714	1.505	1	navigation	Trial3	navigation/STIM_009.jpg
1780.479	2.982	1	navigation	Trial3	navigation/STIM_009.jpg
1785.869	1.482	1	navigation	Trial3	navigation/STIM_010.jpg
1789.712	1.791	1	navigation	Trial3	navigation/STIM_010.jpg
1795.25	2.304	1	navigation	Trial3	navigation/STIM_010.jpg
1799.623	3.293	1	navigation	Trial3	navigation/STIM_010.jpg
1805.943	3.344	1	navigation	Trial3	navigation/STIM_010.jpg
1811.611	1.579	1	navigation	Trial3	navigation/STIM_010.jpg
1816.321	2.024	1	navigation	Trial3	navigation/STIM_011.jpg
1821.22	1.805	1	navigation	Trial3	navigation/STIM_011.jpg
1826.183	1.904	1	navigation	Trial3	navigation/STIM_011.jpg
1830.981	2.006	0	navigation	Trial3	navigation/STIM_011.jpg
1836.094	1.62	1	navigation	Trial3	navigation/STIM_011.jpg
1841.445	3.594	1	navigation	Trial3	navigation/STIM_011.jpg
1847.041	1.351	1	pointing	Trial3	pointing/STIM_000.jpg
1850.487	1.071	1	pointing	Trial3	pointing/STIM_000.jpg
1855.054	1.169	1	pointing	Trial3	pointing/STIM_000.jpg
1859.284	1.025	1	pointing	Trial3	pointing/STIM_000.jpg
1863.097	1.35	1	pointing	Trial3	pointing/STIM_000.jpg
1866.522	1.121	1	pointing	Trial3	pointing/STIM_000.jpg
1871.069	1.461	0	pointing	Trial3	pointing/STIM_001.jpg
1875.887	1.147	1	pointing	Trial3	pointing/STIM_001.jpg
1879.726	1.526	1	pointing	Trial3	pointing/STIM_001.jpg
1884.79	1.16	1	pointing	Trial3	pointing/STIM_001.jpg
1889.473	1.047	1	pointing	Trial3	pointing/STIM_001.jpg
1894.377	0.869	1	pointing	Trial3	pointing/STIM_001.jpg
1899.163	1.344	0	pointing	Trial3	pointing/STIM_002.jpg
1903.708	0.91	1	pointing	Trial3	pointing/STIM_002.jpg
1907.428	1.374	1	pointing	Trial3	pointing/STIM_002.jpg
1912.785	1.344	1	pointing	Trial3	pointing/STIM_002.jpg
1916.258	1.244	1	pointing	Trial3	pointing/STIM_002.jpg
1921.333	1.129	1	pointing	Trial3	pointing/STIM_002.jpg
1925.711	1.266	1	pointing	Trial3	pointing/STIM_003.jpg
1930.239	0.842	1	pointing	Trial3	pointing/STIM_003.jpg
1933.872	1.493	1	pointing	Trial3	pointing/STIM_003.jpg
1938.67	0.892	1	pointing	Trial3	pointing/STIM_003.jpg
1943.478	0.948	1	pointing	Trial3	pointing/STIM_003.jpg
1948.198	1.016	1	pointing	Trial3	pointing/STIM_003.jpg
1952.092	1.464	1	pointing	Trial3	pointing/STIM_004.jpg
1957.181	1.464	1	pointing	Trial3	pointing/STIM_004.jpg
1961.222	0.939	1	pointing	Trial3	pointing/STIM_004.jpg
1964.742	1.126	1	pointing	Trial3	pointing/STIM_004.jpg
1968.105	1.44	1	pointing	Trial3	pointing/STIM_004.jpg
1971.789	1.25	1	pointing	Trial3	pointing/STIM_004.jpg
1975.183	1.0	1	pointing	Trial3	pointing/STIM_005.jpg
1978.834	1.373	1	pointing	Trial3	pointing/STIM_005.jpg
1983.711	1.262	1	pointing	Trial3	pointing/STIM_005.jpg
1988.406	0.84	1	pointing	Trial3	pointing/STIM_005.jpg
1993.211	1.36	1	pointing	Trial3	pointing/STIM_005.jpg
1997.282	1.295	1	pointing	Trial3	pointing/STIM_005.jpg
2000.968	1.276	1	pointing	Trial3	pointing/STIM_006.jpg
2004.597	1.286	1	pointing	Trial3	pointing/STIM_006.jpg
2008.277	1.484	1	pointing	Trial3	pointing/STIM_006.jpg
2013.717	1.285	1	pointing	Trial3	pointing/STIM_006.jpg
2018.095	0.9	1	pointing	Trial3	pointing/STIM_006.jpg
2021.724	1.19	0	pointing	Trial3	pointing/STIM_006.jpg
2025.696	0.864	1	pointing	Trial3	pointing/STIM_007.jpg
2029.348	0.993	1	pointing	Trial3	pointing/STIM_007.jpg
2034.017	1.155	1	pointing	Trial3	pointing/STIM_007.jpg
2038.429	1.14	1	pointing	Trial3	pointing/STIM_007.jpg
2042.798	0.832	1	pointing	Trial3	pointing/STIM_007.jpg
2046.927	1.132	1	pointing	Trial3	pointing/STIM_007.jpg
2050.357	1.494	1	pointing	Trial3	pointing/STIM_008.jpg
2055.48	1.071	0	pointing	Trial3	pointing/STIM_008.jpg
2060.131	0.898	1	pointing	Trial3	pointing/STIM_008.jpg
2064.315	1.314	1	pointing	Trial3	pointing/STIM_008.jpg
2067.896	1.256	1	pointing	Trial3	pointing/STIM_008.jpg
2072.344	1.535	0	pointing	Trial3	pointing/STIM_008.jpg
2076.128	1.349	1	pointing	Trial3	pointing/STIM_009.jpg
2080.445	1.024	1	pointing	Trial3	pointing/STIM_009.jpg
2084.845	1.473	1	pointing	Trial3	pointing/STIM_009.jpg
2090.05	1.508	1	pointing	Trial3	pointing/STIM_009.jpg
2094.634	1.472	1	pointing	Trial3	pointing/STIM_009.jpg
2098.686	1.21	1	pointing	Trial3	pointing/STIM_009.jpg
2103.468	1.49	1	pointing	Trial3	pointing/STIM_010.jpg
2107.703	1.186	1	pointing	Trial3	pointing/STIM_010.jpg
2111.846	1.126	1	pointing	Trial3	pointing/STIM_010.jpg
2116.936	1.026	1	pointing	Trial3	pointing/STIM_010.jpg
2121.643	1.117	1	pointing	Trial3	pointing/STIM_010.jpg
2125.413	1.483	1	pointing	Trial3	pointing/STIM_010.jpg
2128.902	1.268	1	pointing	Trial3	pointing/STIM_011.jpg
2133.145	1.381	1	pointing	Trial3	pointing/STIM_011.jpg
2138.147	1.14	1	pointing	Trial3	pointing/STIM_011.jpg
2142.124	0.949	1	pointing	Trial3	pointing/STIM_011.jpg
2145.89	1.442	1	pointing	Trial3	pointing/STIM_011.jpg
2149.381	1.533	1	pointing	Trial3	pointing/STIM_011.jpg
