onset	duration	response_time_ms	trial_type	learning_stage	stimulus	response_port
0.0	4.699	4699.4	navigation	Trial1	navigation/STIM_000.jpg	100
8.456	2.387	2386.9	navigation	Trial1	navigation/STIM_000.jpg	99
13.447	3.854	3854.0	navigation	Trial1	navigation/STIM_000.jpg	100
19.312	2.874	2874.2	navigation	Trial1	navigation/STIM_000.jpg	99
25.789	3.961	3961.1	navigation	Trial1	navigation/STIM_000.jpg	99
31.901	3.155	3154.6	navigation	Trial1	navigation/STIM_000.jpg	99
37.539	4.811	4811.0	navigation	Trial1	navigation/STIM_001.jpg	99
45.343	3.584	3584.2	navigation	Trial1	navigation/STIM_001.jpg	99
51.862	4.349	4348.9	navigation	Trial1	navigation/STIM_001.jpg	99
59.369	3.382	3382.3	navigation	Trial1	navigation/STIM_001.jpg	99
65.99	3.356	3355.5	navigation	Trial1	navigation/STIM_001.jpg	100
71.752	2.647	2646.7	navigation	Trial1	navigation/STIM_001.jpg	99
77.425	3.797	3797.2	navigation	Trial1	navigation/STIM_002.jpg	100
84.986	4.283	4282.6	navigation	Trial1	navigation/STIM_002.jpg	100
91.952	3.224	3224.1	navigation	Trial1	navigation/STIM_002.jpg	100
97.375	1.952	1952.4	navigation	Trial1	navigation/STIM_002.jpg	99
101.876	2.661	2661.3	navigation	Trial1	navigation/STIM_002.jpg	100
107.193	3.016	3015.8	navigation	Trial1	navigation/STIM_002.jpg	99
112.27	3.575	3574.8	navigation	Trial1	navigation/STIM_003.jpg	99
118.339	2.658	2657.7	navigation	Trial1	navigation/STIM_003.jpg	100
124.245	3.504	3503.9	navigation	Trial1	navigation/STIM_003.jpg	100
129.99	2.102	2101.5	navigation	Trial1	navigation/STIM_003.jpg	100
135.317	1.564	1563.8	navigation	Trial1	navigation/STIM_003.jpg	100
140.174	2.787	2786.9	navigation	Trial1	navigation/STIM_003.jpg	100
146.843	3.2	3199.5	navigation	Trial1	navigation/STIM_004.jpg	99
153.032	2.141	2141.0	navigation	Trial1	navigation/STIM_004.jpg	100
158.527	2.62	2620.3	navigation	Trial1	navigation/STIM_004.jpg	100
164.302	2.515	2514.9	navigation	Trial1	navigation/STIM_004.jpg	100
170.14	1.823	1823.4	navigation	Trial1	navigation/STIM_004.jpg	99
174.498	2.864	2864.5	navigation	Trial1	navigation/STIM_004.jpg	99
180.259	4.018	4018.3	navigation	Trial1	navigation/STIM_005.jpg	99
188.011	3.215	3214.8	navigation	Trial1	navigation/STIM_005.jpg	100
195.12	3.985	3984.7	navigation	Trial1	navigation/STIM_005.jpg	100
202.64	3.482	3482.3	navigation	Trial1	navigation/STIM_005.jpg	100
208.095	3.155	3155.1	navigation	Trial1	navigation/STIM_005.jpg	100
214.65	2.535	2534.7	navigation	Trial1	navigation/STIM_005.jpg	100
220.525	4.858	4858.5	navigation	Trial1	navigation/STIM_006.jpg	100
227.465	1.966	1966.3	navigation	Trial1	navigation/STIM_006.jpg	100
233.247	3.257	3257.2	navigation	Trial1	navigation/STIM_006.jpg	99
238.605	3.868	3868.2	navigation	Trial1	navigation/STIM_006.jpg	100
245.336	3.565	3565.2	navigation	Trial1	navigation/STIM_006.jpg	99
252.122	3.206	3206.0	navigation	Trial1	navigation/STIM_006.jpg	99
259.038	5.026	5026.3	navigation	Trial1	navigation/STIM_007.jpg	99
267.358	3.193	3193.4	navigation	Trial1	navigation/STIM_007.jpg	100
273.856	3.712	3712.0	navigation	Trial1	navigation/STIM_007.jpg	100
280.387	3.174	3173.7	navigation	Trial1	navigation/STIM_007.jpg	100
286.627	1.65	1650.3	navigation	Trial1	navigation/STIM_007.jpg	99
290.89	2.204	2203.9	navigation	Trial1	navigation/STIM_007.jpg	99
296.128	3.413	3412.7	navigation	Trial1	navigation/STIM_008.jpg	99
302.797	3.207	3207.0	navigation	Trial1	navigation/STIM_008.jpg	100
309.378	1.872	1872.3	navigation	Trial1	navigation/STIM_008.jpg	100
314.329	3.036	3036.1	navigation	Trial1	navigation/STIM_008.jpg	99
319.531	2.574	2573.7	navigation	Trial1	navigation/STIM_008.jpg	100
325.933	3.053	3053.1	navigation	Trial1	navigation/STIM_008.jpg	100
332.665	4.965	4965.4	navigation	Trial1	navigation/STIM_009.jpg	99
340.215	4.526	4526.4	navigation	Trial1	navigation/STIM_009.jpg	100
348.286	3.071	3071.1	navigation	Trial1	navigation/STIM_009.jpg	99
354.924	3.493	3493.4	navigation	Trial1	navigation/STIM_009.jpg	99
361.011	3.031	3031.0	navigation	Trial1	navigation/STIM_009.jpg	99
366.265	2.403	2403.4	navigation	Trial1	navigation/STIM_009.jpg	99
370.972	4.745	4745.3	navigation	Trial1	navigation/STIM_010.jpg	99
379.628	3.109	3108.6	navigation	Trial1	navigation/STIM_010.jpg	99
385.944	2.649	2649.2	navigation	Trial1	navigation/STIM_010.jpg	99
390.646	2.874	2873.5	navigation	Trial1	navigation/STIM_010.jpg	99
395.783	3.752	3752.5	navigation	Trial1	navigation/STIM_010.jpg	100
402.77	3.517	3517.1	navigation	Trial1	navigation/STIM_010.jpg	99
409.386	4.331	4331.1	navigation	Trial1	navigation/STIM_011.jpg	100
417.054	3.773	3773.3	navigation	Trial1	navigation/STIM_011.jpg	99
423.958	1.822	1822.3	navigation	Trial1	navigation/STIM_011.jpg	99
428.391	3.746	3745.9	navigation	Trial1	navigation/STIM_011.jpg	100
434.269	3.166	3165.9	navigation	Trial1	navigation/STIM_011.jpg	100
439.614	3.493	3493.0	navigation	Trial1	navigation/STIM_011.jpg	99
446.753	1.465	1465.4	pointing	Trial1	pointing/STIM_000.jpg	99
451.188	1.137	1137.3	pointing	Trial1	pointing/STIM_000.jpg	100
454.413	1.354	1354.3	pointing	Trial1	pointing/STIM_000.jpg	100
459.309	1.021	1021.2	pointing	Trial1	pointing/STIM_000.jpg	99
463.651	1.369	1368.9	pointing	Trial1	pointing/STIM_000.jpg	100
468.235	1.203	1203.4	pointing	Trial1	pointing/STIM_000.jpg	99
472.449	1.409	1409.0	pointing	Trial1	pointing/STIM_001.jpg	100
477.725	1.012	1012.1	pointing	Trial1	pointing/STIM_001.jpg	99
481.833	1.476	1476.2	pointing	Trial1	pointing/STIM_001.jpg	100
485.99	0.842	842.2	pointing	Trial1	pointing/STIM_001.jpg	100
490.195	0.901	901.0	pointing	Trial1	pointing/STIM_001.jpg	100
493.828	1.288	1287.7	pointing	Trial1	pointing/STIM_001.jpg	100
498.423	1.441	1441.2	pointing	Trial1	pointing/STIM_002.jpg	100
503.081	1.248	1248.4	pointing	Trial1	pointing/STIM_002.jpg	99
506.462	1.111	1110.7	pointing	Trial1	pointing/STIM_002.jpg	99
509.955	1.153	1152.6	pointing	Trial1	pointing/STIM_002.jpg	100
513.083	1.407	1406.7	pointing	Trial1	pointing/STIM_002.jpg	99
517.555	1.3	1299.7	pointing	Trial1	pointing/STIM_002.jpg	99
521.977	1.18	1179.5	pointing	Trial1	pointing/STIM_003.jpg	100
525.469	1.185	1184.7	pointing	Trial1	pointing/STIM_003.jpg	100
528.999	1.199	1198.9	pointing	Trial1	pointing/STIM_003.jpg	99
532.888	1.249	1248.6	pointing	Trial1	pointing/STIM_003.jpg	99
537.871	1.039	1039.3	pointing	Trial1	pointing/STIM_003.jpg	99
541.729	1.02	1020.0	pointing	Trial1	pointing/STIM_003.jpg	99
544.87	0.978	977.8	pointing	Trial1	pointing/STIM_004.jpg	100
548.944	0.769	768.7	pointing	Trial1	pointing/STIM_004.jpg	99
553.667	1.394	1394.5	pointing	Trial1	pointing/STIM_004.jpg	100
558.428	1.428	1428.4	pointing	Trial1	pointing/STIM_004.jpg	100
562.82	1.028	1027.7	pointing	Trial1	pointing/STIM_004.jpg	100
567.253	0.969	969.2	pointing	Trial1	pointing/STIM_004.jpg	100
572.101	1.558	1557.8	pointing	Trial1	pointing/STIM_005.jpg	100
576.238	1.277	1277.2	pointing	Trial1	pointing/STIM_005.jpg	100
581.527	1.239	1238.6	pointing	Trial1	pointing/STIM_005.jpg	100
585.686	1.05	1050.3	pointing	Trial1	pointing/STIM_005.jpg	100
589.362	1.372	1371.6	pointing	Trial1	pointing/STIM_005.jpg	100
593.557	1.302	1302.3	pointing	Trial1	pointing/STIM_005.jpg	100
598.48	1.174	1173.5	pointing	Trial1	pointing/STIM_006.jpg	100
602.917	1.03	1030.3	pointing	Trial1	pointing/STIM_006.jpg	99
605.974	0.834	834.0	pointing	Trial1	pointing/STIM_006.jpg	99
609.61	0.881	880.9	pointing	Trial1	pointing/STIM_006.jpg	99
613.886	1.092	1091.5	pointing	Trial1	pointing/STIM_006.jpg	100
617.302	1.342	1341.6	pointing	Trial1	pointing/STIM_006.jpg	100
621.268	1.334	1333.6	pointing	Trial1	pointing/STIM_007.jpg	100
625.426	1.166	1166.5	pointing	Trial1	pointing/STIM_007.jpg	99
629.274	1.478	1477.9	pointing	Trial1	pointing/STIM_007.jpg	100
632.891	0.812	811.5	pointing	Trial1	pointing/STIM_007.jpg	100
635.925	1.452	1452.0	pointing	Trial1	pointing/STIM_007.jpg	100
641.093	1.312	1311.6	pointing	Trial1	pointing/STIM_007.jpg	100
646.177	1.164	1164.1	pointing	Trial1	pointing/STIM_008.jpg	99
650.739	0.948	948.4	pointing	Trial1	pointing/STIM_008.jpg	99
653.926	1.083	1083.4	pointing	Trial1	pointing/STIM_008.jpg	100
657.493	1.433	1433.2	pointing	Trial1	pointing/STIM_008.jpg	99
662.262	1.488	1488.4	pointing	Trial1	pointing/STIM_008.jpg	100
667.129	0.962	961.5	pointing	Trial1	pointing/STIM_008.jpg	99
671.324	1.285	1284.6	pointing	Trial1	pointing/STIM_009.jpg	99
674.719	1.043	1043.1	pointing	Trial1	pointing/STIM_009.jpg	99
678.944	0.884	883.5	pointing	Trial1	pointing/STIM_009.jpg	99
681.967	1.031	1031.3	pointing	Trial1	pointing/STIM_009.jpg	99
686.804	1.238	1237.7	pointing	Trial1	pointing/STIM_009.jpg	100
691.606	0.81	809.7	pointing	Trial1	pointing/STIM_009.jpg	100
694.641	0.819	819.0	pointing	Trial1	pointing/STIM_010.jpg	100
699.223	1.384	1384.1	pointing	Trial1	pointing/STIM_010.jpg	100
703.41	0.88	880.2	pointing	Trial1	pointing/STIM_010.jpg	99
706.68	0.919	919.3	pointing	Trial1	pointing/STIM_010.jpg	100
710.189	1.098	1098.0	pointing	Trial1	pointing/STIM_010.jpg	100
714.124	1.062	1062.3	pointing	Trial1	pointing/STIM_010.jpg	100
718.687	0.84	840.3	pointing	Trial1	pointing/STIM_011.jpg	100
722.078	1.426	1426.0	pointing	Trial1	pointing/STIM_011.jpg	99
726.544	0.896	895.5	pointing	Trial1	pointing/STIM_011.jpg	100
731.023	1.1	1099.6	pointing	Trial1	pointing/STIM_011.jpg	100
735.005	0.916	916.3	pointing	Trial1	pointing/STIM_011.jpg	99
739.785	1.387	1387.4	pointing	Trial1	pointing/STIM_011.jpg	100
745.084	2.765	2765.4	navigation	Trial2	navigation/STIM_000.jpg	100
751.376	2.867	2866.9	navigation	Trial2	navigation/STIM_000.jpg	100
758.148	1.864	1864.2	navigation	Trial2	navigation/STIM_000.jpg	100
762.306	2.203	2203.3	navigation	Trial2	navigation/STIM_000.jpg	99
767.927	2.588	2588.4	navigation	Trial2	navigation/STIM_000.jpg	99
773.069	1.721	1721.3	navigation	Trial2	navigation/STIM_000.jpg	99
777.128	2.288	2287.5	navigation	Trial2	navigation/STIM_001.jpg	100
781.352	3.73	3730.2	navigation	Trial2	navigation/STIM_001.jpg	100
788.632	3.688	3687.5	navigation	Trial2	navigation/STIM_001.jpg	100
795.378	1.75	1750.2	navigation	Trial2	navigation/STIM_001.jpg	100
800.316	3.258	3257.8	navigation	Trial2	navigation/STIM_001.jpg	99
806.625	3.087	3086.9	navigation	Trial2	navigation/STIM_001.jpg	100
812.255	3.926	3926.3	navigation	Trial2	navigation/STIM_002.jpg	100
819.944	3.763	3762.6	navigation	Trial2	navigation/STIM_002.jpg	99
826.939	1.762	1762.5	navigation	Trial2	navigation/STIM_002.jpg	99
832.29	2.673	2672.6	navigation	Trial2	navigation/STIM_002.jpg	99
838.966	2.548	2547.9	navigation	Trial2	navigation/STIM_002.jpg	99
844.345	2.735	2734.7	navigation	Trial2	navigation/STIM_002.jpg	99
849.636	1.789	1788.7	navigation	Trial2	navigation/STIM_003.jpg	100
854.196	2.543	2543.0	navigation	Trial2	navigation/STIM_003.jpg	100
859.544	2.502	2502.5	navigation	Trial2	navigation/STIM_003.jpg	100
865.611	1.402	1401.6	navigation	Trial2	navigation/STIM_003.jpg	100
870.819	2.848	2847.7	navigation	Trial2	navigation/STIM_003.jpg	99
877.188	2.423	2423.4	navigation	Trial2	navigation/STIM_003.jpg	100
882.706	2.991	2990.9	navigation	Trial2	navigation/STIM_004.jpg	100
889.58	2.18	2180.0	navigation	Trial2	navigation/STIM_004.jpg	100
893.982	3.024	3024.5	navigation	Trial2	navigation/STIM_004.jpg	99
900.446	2.248	2247.5	navigation	Trial2	navigation/STIM_004.jpg	100
906.311	3.116	3115.6	navigation	Trial2	navigation/STIM_004.jpg	99
913.031	3.474	3473.9	navigation	Trial2	navigation/STIM_004.jpg	100
920.488	3.676	3676.0	navigation	Trial2	navigation/STIM_005.jpg	100
926.694	1.852	1851.7	navigation	Trial2	navigation/STIM_005.jpg	100
932.344	1.662	1661.6	navigation	Trial2	navigation/STIM_005.jpg	99
937.426	2.511	2510.7	navigation	Trial2	navigation/STIM_005.jpg	100
943.764	1.602	1601.8	navigation	Trial2	navigation/STIM_005.jpg	100
948.904	2.48	2479.9	navigation	Trial2	navigation/STIM_005.jpg	100
955.322	2.11	2109.5	navigation	Trial2	navigation/STIM_006.jpg	99
960.315	2.621	2620.8	navigation	Trial2	navigation/STIM_006.jpg	99
966.895	2.314	2314.3	navigation	Trial2	navigation/STIM_006.jpg	99
971.787	3.398	3398.4	navigation	Trial2	navigation/STIM_006.jpg	99
978.799	1.998	1997.9	navigation	Trial2	navigation/STIM_006.jpg	100
984.794	3.412	3412.0	navigation	Trial2	navigation/STIM_006.jpg	99
990.64	3.301	3300.7	navigation	Trial2	navigation/STIM_007.jpg	99
997.893	1.596	1596.1	navigation	Trial2	navigation/STIM_007.jpg	100
1001.802	2.79	2790.5	navigation	Trial2	navigation/STIM_007.jpg	100
1007.129	3.373	3372.9	navigation	Trial2	navigation/STIM_007.jpg	99
1014.401	3.345	3344.7	navigation	Trial2	navigation/STIM_007.jpg	100
1021.603	2.671	2671.0	navigation	Trial2	navigation/STIM_007.jpg	99
1026.61	2.862	2861.6	navigation	Trial2	navigation/STIM_008.jpg	100
1032.046	3.107	3106.6	navigation	Trial2	navigation/STIM_008.jpg	100
1037.177	2.861	2861.1	navigation	Trial2	navigation/STIM_008.jpg	99
1043.573	3.154	3154.3	navigation	Trial2	navigation/STIM_008.jpg	100
1050.602	1.441	1441.0	navigation	Trial2	navigation/STIM_008.jpg	100
1054.689	3.304	3304.0	navigation	Trial2	navigation/STIM_008.jpg	100
1061.047	4.089	4088.6	navigation	Trial2	navigation/STIM_009.jpg	99
1067.304	2.518	2517.8	navigation	Trial2	navigation/STIM_009.jpg	100
1073.632	2.63	2629.5	navigation	Trial2	navigation/STIM_009.jpg	100
1078.764	2.787	2787.2	navigation	Trial2	navigation/STIM_009.jpg	100
1084.42	3.067	3067.3	navigation	Trial2	navigation/STIM_009.jpg	100
1091.183	3.175	3175.1	navigation	Trial2	navigation/STIM_009.jpg	99
1097.613	4.25	4249.7	navigation	Trial2	navigation/STIM_010.jpg	100
1105.706	1.937	1936.7	navigation	Trial2	navigation/STIM_010.jpg	100
1110.002	2.285	2285.2	navigation	Trial2	navigation/STIM_010.jpg	99
1115.651	1.441	1441.3	navigation	Trial2	navigation/STIM_010.jpg	99
1119.19	2.974	2974.4	navigation	Trial2	navigation/STIM_010.jpg	99
1124.547	2.367	2366.7	navigation	Trial2	navigation/STIM_010.jpg	99
1130.841	2.222	2221.7	navigation	Trial2	navigation/STIM_011.jpg	100
1136.995	2.394	2393.7	navigation	Trial2	navigation/STIM_011.jpg	99
1141.467	2.654	2654.0	navigation	Trial2	navigation/STIM_011.jpg	100
1147.553	2.299	2299.2	navigation	Trial2	navigation/STIM_011.jpg	99
1151.957	3.146	3146.1	navigation	Trial2	navigation/STIM_011.jpg	99
1158.565	3.44	3439.9	navigation	Trial2	navigation/STIM_011.jpg	99
1164.365	1.271	1271.1	pointing	Trial2	pointing/STIM_000.jpg	99
1168.521	1.105	1105.3	pointing	Trial2	pointing/STIM_000.jpg	100
1172.822	1.302	1302.1	pointing	Trial2	pointing/STIM_000.jpg	100
1177.923	1.318	1318.1	pointing	Trial2	pointing/STIM_000.jpg	100
1182.504	1.296	1296.3	pointing	Trial2	pointing/STIM_000.jpg	99
1187.651	1.233	1233.1	pointing	Trial2	pointing/STIM_000.jpg	100
1192.707	0.807	807.3	pointing	Trial2	pointing/STIM_001.jpg	99
1197.253	0.909	909.3	pointing	Trial2	pointing/STIM_001.jpg	100
1202.159	1.467	1467.1	pointing	Trial2	pointing/STIM_001.jpg	99
1206.997	1.081	1081.3	pointing	Trial2	pointing/STIM_001.jpg	99
1211.503	1.069	1068.9	pointing	Trial2	pointing/STIM_001.jpg	99
1215.382	0.92	920.4	pointing	Trial2	pointing/STIM_001.jpg	100
1219.983	0.924	924.5	pointing	Trial2	pointing/STIM_002.jpg	100
1223.85	0.841	841.2	pointing	Trial2	pointing/STIM_002.jpg	100
1227.868	0.815	815.1	pointing	Trial2	pointing/STIM_002.jpg	100
1231.411	1.028	1028.2	pointing	Trial2	pointing/STIM_002.jpg	99
1236.062	0.885	884.9	pointing	Trial2	pointing/STIM_002.jpg	100
1239.519	1.255	1255.3	pointing	Trial2	pointing/STIM_002.jpg	99
1243.184	1.359	1359.0	pointing	Trial2	pointing/STIM_003.jpg	99
1247.919	0.965	964.6	pointing	Trial2	pointing/STIM_003.jpg	100
1251.692	0.976	976.4	pointing	Trial2	pointing/STIM_003.jpg	100
1255.668	1.347	1346.8	pointing	Trial2	pointing/STIM_003.jpg	99
1259.703	1.214	1213.6	pointing	Trial2	pointing/STIM_003.jpg	99
1264.716	1.22	1219.8	pointing	Trial2	pointing/STIM_003.jpg	100
1269.443	1.301	1300.6	pointing	Trial2	pointing/STIM_004.jpg	100
1274.028	0.923	922.8	pointing	Trial2	pointing/STIM_004.jpg	99
1277.039	0.905	905.4	pointing	Trial2	pointing/STIM_004.jpg	99
1281.635	0.843	842.9	pointing	Trial2	pointing/STIM_004.jpg	100
1284.86	0.859	859.1	pointing	Trial2	pointing/STIM_004.jpg	100
1288.687	0.994	993.6	pointing	Trial2	pointing/STIM_004.jpg	100
1292.705	0.785	784.8	pointing	Trial2	pointing/STIM_005.jpg	100
1297.525	0.985	985.4	pointing	Trial2	pointing/STIM_005.jpg	100
1301.959	1.286	1286.3	pointing	Trial2	pointing/STIM_005.jpg	99
1306.221	0.81	810.1	pointing	Trial2	pointing/STIM_005.jpg	100
1310.844	1.218	1218.5	pointing	Trial2	pointing/STIM_005.jpg	99
1314.22	1.454	1454.2	pointing	Trial2	pointing/STIM_005.jpg	99
1318.112	1.21	1209.8	pointing	Trial2	pointing/STIM_006.jpg	99
1322.703	1.261	1261.2	pointing	Trial2	pointing/STIM_006.jpg	99
1327.094	0.834	833.6	pointing	Trial2	pointing/STIM_006.jpg	100
1331.543	0.972	972.1	pointing	Trial2	pointing/STIM_006.jpg	99
1336.157	1.048	1048.0	pointing	Trial2	pointing/STIM_006.jpg	99
1340.484	1.142	1141.7	pointing	Trial2	pointing/STIM_006.jpg	100
1345.631	1.082	1081.6	pointing	Trial2	pointing/STIM_007.jpg	100
1350.185	0.882	881.8	pointing	Trial2	pointing/STIM_007.jpg	99
1353.933	1.384	1384.0	pointing	Trial2	pointing/STIM_007.jpg	100
1357.417	0.905	905.3	pointing	Trial2	pointing/STIM_007.jpg	100
1360.95	1.302	1301.9	pointing	Trial2	pointing/STIM_007.jpg	99
1365.7	1.154	1153.8	pointing	Trial2	pointing/STIM_007.jpg	100
1368.965	1.051	1051.0	pointing	Trial2	pointing/STIM_008.jpg	100
1372.831	1.121	1121.1	pointing	Trial2	pointing/STIM_008.jpg	100
1377.645	1.12	1119.7	pointing	Trial2	pointing/STIM_008.jpg	99
1381.111	0.86	860.0	pointing	Trial2	pointing/STIM_008.jpg	99
1385.041	0.899	899.4	pointing	Trial2	pointing/STIM_008.jpg	100
1388.623	1.353	1352.8	pointing	Trial2	pointing/STIM_008.jpg	100
1391.96	0.852	852.4	pointing	Trial2	pointing/STIM_009.jpg	99
1395.147	0.909	909.4	pointing	Trial2	pointing/STIM_009.jpg	100
1398.407	1.091	1091.4	pointing	Trial2	pointing/STIM_009.jpg	100
1401.968	0.845	845.3	pointing	Trial2	pointing/STIM_009.jpg	100
1406.158	1.133	1133.0	pointing	Trial2	pointing/STIM_009.jpg	99
1410.437	1.18	1179.6	pointing	Trial2	pointing/STIM_009.jpg	100
1415.575	0.88	879.8	pointing	Trial2	pointing/STIM_010.jpg	99
1418.855	1.466	1465.8	pointing	Trial2	pointing/STIM_010.jpg	99
1423.068	0.794	793.7	pointing	Trial2	pointing/STIM_010.jpg	99
1427.055	0.848	847.5	pointing	Trial2	pointing/STIM_010.jpg	99
1431.757	1.12	1120.5	pointing	Trial2	pointing/STIM_010.jpg	99
1436.511	1.469	1469.3	pointing	Trial2	pointing/STIM_010.jpg	100
1440.142	1.421	1421.2	pointing	Trial2	pointing/STIM_011.jpg	100
1445.41	1.111	1111.1	pointing	Trial2	pointing/STIM_011.jpg	99
1450.178	0.964	964.4	pointing	Trial2	pointing/STIM_011.jpg	99
1453.713	1.134	1133.9	pointing	Trial2	pointing/STIM_011.jpg	100
1457.81	1.412	1412.1	pointing	Trial2	pointing/STIM_011.jpg	100
1462.396	0.89	889.5	pointing	Trial2	pointing/STIM_011.jpg	99
1465.711	2.329	2328.8	navigation	Trial3	navigation/STIM_000.jpg	100
1470.594	3.04	3039.5	navigation	Trial3	navigation/STIM_000.jpg	100
1476.422	3.484	3483.5	navigation	Trial3	navigation/STIM_000.jpg	99
1482.138	3.301	3301.3	navigation	Trial3	navigation/STIM_000.jpg	99
1489.285	3.218	3217.7	navigation	Trial3	navigation/STIM_000.jpg	99
1495.808	1.662	1661.9	navigation	Trial3	navigation/STIM_000.jpg	99
1499.834	2.7	2700.2	navigation	Trial3	navigation/STIM_001.jpg	99
1505.582	2.543	2542.8	navigation	Trial3	navigation/STIM_001.jpg	99
1510.367	1.696	1696.5	navigation	Trial3	navigation/STIM_001.jpg	99
1515.93	1.734	1733.7	navigation	Trial3	navigation/STIM_001.jpg	99
1521.067	2.875	2874.6	navigation	Trial3	navigation/STIM_001.jpg	100
1527.275	3.051	3051.4	navigation	Trial3	navigation/STIM_001.jpg	100
1533.536	1.402	1402.4	navigation	Trial3	navigation/STIM_002.jpg	99
1537.651	3.136	3136.0	navigation	Trial3	navigation/STIM_002.jpg	99
1543.932	3.258	3258.3	navigation	Trial3	navigation/STIM_002.jpg	99
1549.787	2.313	2312.7	navigation	Trial3	navigation/STIM_002.jpg	99
1554.244	2.648	2648.0	navigation	Trial3	navigation/STIM_002.jpg	100
1560.767	2.344	2344.0	navigation	Trial3	navigation/STIM_002.jpg	100
1565.116	2.168	2167.6	navigation	Trial3	navigation/STIM_003.jpg	100
1569.978	1.823	1823.1	navigation	Trial3	navigation/STIM_003.jpg	99
1575.664	2.076	2075.9	navigation	Trial3	navigation/STIM_003.jpg	99
1580.063	2.254	2254.0	navigation	Trial3	navigation/STIM_003.jpg	99
1586.302	1.445	1444.9	navigation	Trial3	navigation/STIM_003.jpg	99
1591.459	2.026	2025.9	navigation	Trial3	navigation/STIM_003.jpg	99
1595.854	2.968	2967.5	navigation	Trial3	navigation/STIM_004.jpg	99
1601.267	2.776	2776.0	navigation	Trial3	navigation/STIM_004.jpg	99
1607.288	2.863	2863.2	navigation	Trial3	navigation/STIM_004.jpg	100
1613.209	1.958	1958.0	navigation	Trial3	navigation/STIM_004.jpg	99
1617.743	1.94	1940.1	navigation	Trial3	navigation/STIM_004.jpg	99
1622.839	2.351	2351.4	navigation	Trial3	navigation/STIM_004.jpg	100
1627.858	1.829	1829.0	navigation	Trial3	navigation/STIM_005.jpg	99
1632.397	2.806	2806.4	navigation	Trial3	navigation/STIM_005.jpg	100
1638.975	2.617	2616.9	navigation	Trial3	navigation/STIM_005.jpg	100
1645.526	2.73	2730.5	navigation	Trial3	navigation/STIM_005.jpg	100
1651.836	3.384	3383.8	navigation	Trial3	navigation/STIM_005.jpg	100
1658.218	3.033	3033.3	navigation	Trial3	navigation/STIM_005.jpg	99
1664.024	3.547	3546.7	navigation	Trial3	navigation/STIM_006.jpg	99
1670.29	1.567	1567.4	navigation	Trial3	navigation/STIM_006.jpg	99
1675.562	1.69	1689.6	navigation	Trial3	navigation/STIM_006.jpg	100
1679.88	3.36	3359.9	navigation	Trial3	navigation/STIM_006.jpg	100
1685.672	2.452	2452.3	navigation	Trial3	navigation/STIM_006.jpg	99
1691.281	2.647	2646.9	navigation	Trial3	navigation/STIM_006.jpg	100
1696.936	3.181	3180.7	navigation	Trial3	navigation/STIM_007.jpg	100
1703.312	1.625	1624.6	navigation	Trial3	navigation/STIM_007.jpg	99
1708.467	3.107	3106.9	navigation	Trial3	navigation/STIM_007.jpg	99
1714.856	1.788	1788.1	navigation	Trial3	navigation/STIM_007.jpg	100
1718.947	3.002	3001.5	navigation	Trial3	navigation/STIM_007.jpg	99
1725.847	3.344	3344.5	navigation	Trial3	navigation/STIM_007.jpg	100
1732.736	1.831	1830.7	navigation	Trial3	navigation/STIM_008.jpg	100
1738.387	2.404	2404.2	navigation	Trial3	navigation/STIM_008.jpg	99
1744.118	1.915	1915.0	navigation	Trial3	navigation/STIM_008.jpg	100
1749.732	2.758	2757.5	navigation	Trial3	navigation/STIM_008.jpg	99
1754.637	3.448	3447.7	navigation	Trial3	navigation/STIM_008.jpg	100
1762.023	2.632	2632.0	navigation	Trial3	navigation/STIM_008.jpg	100
1768.264	3.129	3128.7	navigation	Trial3	navigation/STIM_009.jpg	99
1774.068	3.211	3210.8	navigation	Trial3	navigation/STIM_009.jpg	100
1780.411	3.465	3464.9	navigation	Trial3	navigation/STIM_009.jpg	100
1786.784	2.43	2429.8	navigation	Trial3	navigation/STIM_009.jpg	99
1792.694	3.406	3406.0	navigation	Trial3	navigation/STIM_009.jpg	99
1798.224	1.549	1548.8	navigation	Trial3	navigation/STIM_009.jpg	100
1802.565	1.503	1502.7	navigation	Trial3	navigation/STIM_010.jpg	99
1806.902	1.974	1974.4	navigation	Trial3	navigation/STIM_010.jpg	100
1811.813	2.778	2778.2	navigation	Trial3	navigation/STIM_010.jpg	100
1818.251	1.636	1635.8	navigation	Trial3	navigation/STIM_010.jpg	99
1821.868	1.577	1577.4	navigation	Trial3	navigation/STIM_010.jpg	99
1825.788	2.186	2186.2	navigation	Trial3	navigation/STIM_010.jpg	99
1831.093	1.518	1518.2	navigation	Trial3	navigation/STIM_011.jpg	100
1835.06	1.535	1535.2	navigation	Trial3	navigation/STIM_011.jpg	99
1840.511	2.94	2939.8	navigation	Trial3	navigation/STIM_011.jpg	100
1846.987	3.233	3233.1	navigation	Trial3	navigation/STIM_011.jpg	100
1853.883	3.259	3259.4	navigation	Trial3	navigation/STIM_011.jpg	100
1860.074	1.37	1370.5	navigation	Trial3	navigation/STIM_011.jpg	99
1863.71	1.157	1156.9	pointing	Trial3	pointing/STIM_000.jpg	99
1867.04	1.085	1084.6	pointing	Trial3	pointing/STIM_000.jpg	100
1871.848	0.981	981.0	pointing	Trial3	pointing/STIM_000.jpg	100
1875.048	0.927	927.2	pointing	Trial3	pointing/STIM_000.jpg	99
1878.579	0.946	946.2	pointing	Trial3	pointing/STIM_000.jpg	100
1881.886	1.431	1431.2	pointing	Trial3	pointing/STIM_000.jpg	100
1886.605	1.34	1339.9	pointing	Trial3	pointing/STIM_001.jpg	100
1890.076	1.031	1031.2	pointing	Trial3	pointing/STIM_001.jpg	100
1894.657	0.848	847.5	pointing	Trial3	pointing/STIM_001.jpg	100
1899.538	0.957	957.2	pointing	Trial3	pointing/STIM_001.jpg	100
1903.651	0.797	797.0	pointing	Trial3	pointing/STIM_001.jpg	100
1907.757	1.316	1316.1	pointing	Trial3	pointing/STIM_001.jpg	99
1912.516	0.855	855.0	pointing	Trial3	pointing/STIM_002.jpg	100
1916.947	0.89	890.1	pointing	Trial3	pointing/STIM_002.jpg	100
1920.189	0.962	961.5	pointing	Trial3	pointing/STIM_002.jpg	100
1923.664	1.51	1509.8	pointing	Trial3	pointing/STIM_002.jpg	99
1929.13	0.961	960.7	pointing	Trial3	pointing/STIM_002.jpg	99
1933.754	0.822	822.4	pointing	Trial3	pointing/STIM_002.jpg	100
1937.232	0.931	930.9	pointing	Trial3	pointing/STIM_003.jpg	100
1941.994	1.355	1355.3	pointing	Trial3	pointing/STIM_003.jpg	100
1946.517	1.277	1277.3	pointing	Trial3	pointing/STIM_003.jpg	100
1950.853	0.931	931.2	pointing	Trial3	pointing/STIM_003.jpg	99
1955.225	1.215	1214.9	pointing	Trial3	pointing/STIM_003.jpg	100
1959.174	1.277	1277.1	pointing	Trial3	pointing/STIM_003.jpg	100
1963.386	1.194	1193.7	pointing	Trial3	pointing/STIM_004.jpg	100
1967.86	0.964	963.9	pointing	Trial3	pointing/STIM_004.jpg	99
1972.046	0.788	787.9	pointing	Trial3	pointing/STIM_004.jpg	99
1975.07	1.151	1150.6	pointing	Trial3	pointing/STIM_004.jpg	100
1979.103	1.514	1513.8	pointing	Trial3	pointing/STIM_004.jpg	100
1983.495	1.465	1465.0	pointing	Trial3	pointing/STIM_004.jpg	100
1987.759	0.766	765.7	pointing	Trial3	pointing/STIM_005.jpg	99
1990.879	1.179	1178.6	pointing	Trial3	pointing/STIM_005.jpg	100
1995.921	0.991	990.8	pointing	Trial3	pointing/STIM_005.jpg	100
2000.193	1.41	1409.8	pointing	Trial3	pointing/STIM_005.jpg	99
2003.771	1.222	1222.5	pointing	Trial3	pointing/STIM_005.jpg	99
2007.031	1.042	1042.1	pointing	Trial3	pointing/STIM_005.jpg	100
2010.644	1.438	1438.3	pointing	Trial3	pointing/STIM_006.jpg	100
2014.439	1.28	1279.9	pointing	Trial3	pointing/STIM_006.jpg	99
2018.469	0.98	979.7	pointing	Trial3	pointing/STIM_006.jpg	99
2022.066	1.141	1141.0	pointing	Trial3	pointing/STIM_006.jpg	100
2025.482	1.475	1475.2	pointing	Trial3	pointing/STIM_006.jpg	99
2029.782	0.988	988.5	pointing	Trial3	pointing/STIM_006.jpg	100
2033.966	0.792	792.3	pointing	Trial3	pointing/STIM_007.jpg	100
2037.496	0.831	830.9	pointing	Trial3	pointing/STIM_007.jpg	99
2041.706	1.328	1328.0	pointing	Trial3	pointing/STIM_007.jpg	100
2046.403	1.24	1240.4	pointing	Trial3	pointing/STIM_007.jpg	100
2051.608	1.082	1082.3	pointing	Trial3	pointing/STIM_007.jpg	100
2055.048	0.836	836.2	pointing	Trial3	pointing/STIM_007.jpg	99
2059.726	1.206	1206.3	pointing	Trial3	pointing/STIM_008.jpg	99
2064.507	1.234	1234.1	pointing	Trial3	pointing/STIM_008.jpg	100
2069.314	1.395	1394.8	pointing	Trial3	pointing/STIM_008.jpg	99
2073.595	1.299	1298.8	pointing	Trial3	pointing/STIM_008.jpg	100
2077.701	1.276	1275.5	pointing	Trial3	pointing/STIM_008.jpg	100
2082.574	0.923	923.2	pointing	Trial3	pointing/STIM_008.jpg	99
2086.018	1.33	1330.5	pointing	Trial3	pointing/STIM_009.jpg	99
2090.569	0.997	996.6	pointing	Trial3	pointing/STIM_009.jpg	100
2095.202	1.104	1103.5	pointing	Trial3	pointing/STIM_009.jpg	99
2099.498	0.934	933.5	pointing	Trial3	pointing/STIM_009.jpg	99
2103.647	1.083	1083.4	pointing	Trial3	pointing/STIM_009.jpg	99
2108.151	0.984	983.5	pointing	Trial3	pointing/STIM_009.jpg	99
2111.934	1.078	1078.0	pointing	Trial3	pointing/STIM_010.jpg	100
2116.311	1.26	1260.3	pointing	Trial3	pointing/STIM_010.jpg	100
2121.103	0.767	767.0	pointing	Trial3	pointing/STIM_010.jpg	100
2125.303	1.017	1017.0	pointing	Trial3	pointing/STIM_010.jpg	99
2129.768	0.909	909.1	pointing	Trial3	pointing/STIM_010.jpg	99
2133.488	0.777	776.7	pointing	Trial3	pointing/STIM_010.jpg	99
2136.367	1.356	1355.7	pointing	Trial3	pointing/STIM_011.jpg	99
2139.998	0.722	721.9	pointing	Trial3	pointing/STIM_011.jpg	99
2144.302	1.059	1058.7	pointing	Trial3	pointing/STIM_011.jpg	100
2147.591	1.348	1348.0	pointing	Trial3	pointing/STIM_011.jpg	99
2151.582	0.877	877.4	pointing	Trial3	pointing/STIM_011.jpg	100
2155.354	1.107	1107.2	pointing	Trial3	pointing/STIM_011.jpg	100
