onset	duration	accuracy	trial_type	learning_stage	stimulus
0.0	2.52	incorrect	generate	Run1	generate/STIM_000.jpg
6.402	1.354	correct	generate	Run1	generate/STIM_000.jpg
10.782	1.924	correct	generate	Run1	generate/STIM_000.jpg
15.101	2.009	correct	generate	Run1	generate/STIM_000.jpg
20.054	1.715	correct	generate	Run1	generate/STIM_000.jpg
25.189	1.797	incorrect	generate	Run1	generate/STIM_001.jpg
30.474	2.249	correct	generate	Run1	generate/STIM_001.jpg
35.804	1.799	incorrect	generate	Run1	generate/STIM_001.jpg
39.875	1.273	correct	generate	Run1	generate/STIM_001.jpg
45.023	1.261	correct	generate	Run1	generate/STIM_001.jpg
49.921	1.657	correct	generate	Run1	generate/STIM_002.jpg
55.278	2.175	correct	generate	Run1	generate/STIM_002.jpg
60.639	1.436	correct	generate	Run1	generate/STIM_002.jpg
64.189	2.296	correct	generate	Run1	generate/STIM_002.jpg
68.995	1.734	correct	generate	Run1	generate/STIM_002.jpg
74.115	1.228	correct	generate	Run1	generate/STIM_003.jpg
77.358	1.919	correct	generate	Run1	generate/STIM_003.jpg
82.816	2.285	correct	generate	Run1	generate/STIM_003.jpg
88.987	2.096	incorrect	generate	Run1	generate/STIM_003.jpg
94.526	1.435	correct	generate	Run1	generate/STIM_003.jpg
98.032	2.609	correct	generate	Run1	generate/STIM_004.jpg
102.85	1.618	correct	generate	Run1	generate/STIM_004.jpg
107.748	1.149	correct	generate	Run1	generate/STIM_004.jpg
111.245	2.225	correct	generate	Run1	generate/STIM_004.jpg
116.109	1.958	incorrect	generate	Run1	generate/STIM_004.jpg
121.215	1.234	correct	generate	Run1	generate/STIM_005.jpg
125.367	1.202	correct	generate	Run1	generate/STIM_005.jpg
130.323	2.155	correct	generate	Run1	generate/STIM_005.jpg
135.838	1.344	correct	generate	Run1	generate/STIM_005.jpg
140.523	1.069	correct	generate	Run1	generate/STIM_005.jpg
145.181	1.274	correct	generate	Run1	generate/STIM_006.jpg
149.951	1.864	correct	generate	Run1	generate/STIM_006.jpg
155.309	2.217	correct	generate	Run1	generate/STIM_006.jpg
159.536	2.216	correct	generate	Run1	generate/STIM_006.jpg
164.023	1.355	correct	generate	Run1	generate/STIM_006.jpg
168.186	2.536	incorrect	generate	Run1	generate/STIM_007.jpg
173.812	1.313	correct	generate	Run1	generate/STIM_007.jpg
177.273	1.657	correct	generate	Run1	generate/STIM_007.jpg
181.45	1.478	correct	generate	Run1	generate/STIM_007.jpg
185.484	1.899	correct	generate	Run1	generate/STIM_007.jpg
190.177	2.674	incorrect	generate	Run1	generate/STIM_008.jpg
196.338	2.429	correct	generate	Run1	generate/STIM_008.jpg
201.495	1.456	correct	generate	Run1	generate/STIM_008.jpg
206.387	1.974	incorrect	generate	Run1	generate/STIM_008.jpg
211.43	2.261	correct	generate	Run1	generate/STIM_008.jpg
216.183	2.377	incorrect	generate	Run1	generate/STIM_009.jpg
222.115	1.142	correct	generate	Run1	generate/STIM_009.jpg
226.153	1.637	incorrect	generate	Run1	generate/STIM_009.jpg
230.111	1.544	correct	generate	Run1	generate/STIM_009.jpg
235.395	1.25	correct	generate	Run1	generate/STIM_009.jpg
238.758	2.566	incorrect	generate	Run1	generate/STIM_010.jpg
244.331	2.163	correct	generate	Run1	generate/STIM_010.jpg
248.949	2.326	incorrect	generate	Run1	generate/STIM_010.jpg
254.691	1.478	correct	generate	Run1	generate/STIM_010.jpg
259.934	1.0	correct	generate	Run1	generate/STIM_010.jpg
263.583	2.066	correct	generate	Run1	generate/STIM_011.jpg
269.171	1.966	correct	generate	Run1	generate/STIM_011.jpg
273.974	1.373	correct	generate	Run1	generate/STIM_011.jpg
278.25	1.596	correct	generate	Run1	generate/STIM_011.jpg
281.85	1.75	correct	generate	Run1	generate/STIM_011.jpg
287.481	2.076	correct	generate	Run1	generate/STIM_012.jpg
293.141	1.815	correct	generate	Run1	generate/STIM_012.jpg
297.83	2.422	correct	generate	Run1	generate/STIM_012.jpg
303.792	1.139	correct	generate	Run1	generate/STIM_012.jpg
307.712	1.937	correct	generate	Run1	generate/STIM_012.jpg
312.837	2.502	correct	generate	Run1	generate/STIM_013.jpg
319.185	1.438	correct	generate	Run1	generate/STIM_013.jpg
323.582	2.509	incorrect	generate	Run1	generate/STIM_013.jpg
329.82	1.701	correct	generate	Run1	generate/STIM_013.jpg
334.339	2.197	correct	generate	Run1	generate/STIM_013.jpg
338.897	1.14	correct	generate	Run1	generate/STIM_014.jpg
342.569	1.468	incorrect	generate	Run1	generate/STIM_014.jpg
347.51	1.842	correct	generate	Run1	generate/STIM_014.jpg
352.223	1.829	correct	generate	Run1	generate/STIM_014.jpg
357.838	1.112	incorrect	generate	Run1	generate/STIM_014.jpg
362.1	2.184	incorrect	generate	Run1	generate/STIM_015.jpg
367.193	2.56	correct	generate	Run1	generate/STIM_015.jpg
372.722	1.88	correct	generate	Run1	generate/STIM_015.jpg
377.029	2.221	correct	generate	Run1	generate/STIM_015.jpg
383.174	2.159	correct	generate	Run1	generate/STIM_015.jpg
389.321	2.12	incorrect	generate	Run1	generate/STIM_016.jpg
395.123	2.639	correct	generate	Run1	generate/STIM_016.jpg
401.628	2.106	correct	generate	Run1	generate/STIM_016.jpg
406.342	1.369	correct	generate	Run1	generate/STIM_016.jpg
410.256	1.077	correct	generate	Run1	generate/STIM_016.jpg
413.379	1.633	correct	generate	Run1	generate/STIM_017.jpg
417.248	2.219	incorrect	generate	Run1	generate/STIM_017.jpg
422.727	2.13	correct	generate	Run1	generate/STIM_017.jpg
427.608	1.996	correct	generate	Run1	generate/STIM_017.jpg
432.352	2.036	correct	generate	Run1	generate/STIM_017.jpg
436.397	2.252	correct	generate	Run1	generate/STIM_018.jpg
441.404	1.797	correct	generate	Run1	generate/STIM_018.jpg
446.353	1.075	incorrect	generate	Run1	generate/STIM_018.jpg
450.792	1.335	correct	generate	Run1	generate/STIM_018.jpg
455.926	1.785	correct	generate	Run1	generate/STIM_018.jpg
459.825	2.682	incorrect	generate	Run1	generate/STIM_019.jpg
466.132	1.428	incorrect	generate	Run1	generate/STIM_019.jpg
470.708	1.948	correct	generate	Run1	generate/STIM_019.jpg
475.506	2.284	incorrect	generate	Run1	generate/STIM_019.jpg
480.963	1.846	correct	generate	Run1	generate/STIM_019.jpg
485.393	2.183	correct	generate	Run1	generate/STIM_020.jpg
490.018	1.102	correct	generate	Run1	generate/STIM_020.jpg
494.372	1.413	incorrect	generate	Run1	generate/STIM_020.jpg
499.589	1.525	incorrect	generate	Run1	generate/STIM_020.jpg
504.78	1.804	correct	generate	Run1	generate/STIM_020.jpg
508.681	1.888	correct	generate	Run1	generate/STIM_021.jpg
514.353	2.588	correct	generate	Run1	generate/STIM_021.jpg
519.031	1.805	incorrect	generate	Run1	generate/STIM_021.jpg
523.722	2.313	correct	generate	Run1	generate/STIM_021.jpg
528.518	1.361	correct	generate	Run1	generate/STIM_021.jpg
532.557	2.292	incorrect	generate	Run1	generate/STIM_022.jpg
537.904	2.304	correct	generate	Run1	generate/STIM_022.jpg
543.044	1.514	incorrect	generate	Run1	generate/STIM_022.jpg
546.636	2.158	incorrect	generate	Run1	generate/STIM_022.jpg
551.246	1.606	correct	generate	Run1	generate/STIM_022.jpg
555.087	2.333	correct	generate	Run1	generate/STIM_023.jpg
561.303	1.82	correct	generate	Run1	generate/STIM_023.jpg
566.646	1.293	incorrect	generate	Run1	generate/STIM_023.jpg
570.131	1.042	correct	generate	Run1	generate/STIM_023.jpg
573.466	2.243	correct	generate	Run1	generate/STIM_023.jpg
578.387	1.357	correct	generate	Run1	generate/STIM_024.jpg
582.446	1.333	correct	generate	Run1	generate/STIM_024.jpg
587.472	2.229	correct	generate	Run1	generate/STIM_024.jpg
591.832	1.57	correct	generate	Run1	generate/STIM_024.jpg
595.83	2.182	correct	generate	Run1	generate/STIM_024.jpg
600.584	0.866	correct	repeat	Run1	repeat/STIM_000.jpg
603.986	0.797	incorrect	repeat	Run1	repeat/STIM_000.jpg
606.863	0.655	correct	repeat	Run1	repeat/STIM_000.jpg
609.932	0.715	correct	repeat	Run1	repeat/STIM_000.jpg
612.708	0.759	correct	repeat	Run1	repeat/STIM_000.jpg
615.511	0.696	correct	repeat	Run1	repeat/STIM_001.jpg
620.103	0.586	correct	repeat	Run1	repeat/STIM_001.jpg
623.608	0.736	correct	repeat	Run1	repeat/STIM_001.jpg
626.951	0.774	incorrect	repeat	Run1	repeat/STIM_001.jpg
630.395	0.836	correct	repeat	Run1	repeat/STIM_001.jpg
635.189	0.799	correct	repeat	Run1	repeat/STIM_002.jpg
639.391	0.843	correct	repeat	Run1	repeat/STIM_002.jpg
642.967	0.94	correct	repeat	Run1	repeat/STIM_002.jpg
646.177	0.899	correct	repeat	Run1	repeat/STIM_002.jpg
649.975	0.909	correct	repeat	Run1	repeat/STIM_002.jpg
653.437	0.809	correct	repeat	Run1	repeat/STIM_003.jpg
656.617	0.809	correct	repeat	Run1	repeat/STIM_003.jpg
660.19	0.518	correct	repeat	Run1	repeat/STIM_003.jpg
664.531	0.649	correct	repeat	Run1	repeat/STIM_003.jpg
667.488	0.884	correct	repeat	Run1	repeat/STIM_003.jpg
671.564	0.662	correct	repeat	Run1	repeat/STIM_004.jpg
675.344	0.673	incorrect	repeat	Run1	repeat/STIM_004.jpg
678.678	0.856	correct	repeat	Run1	repeat/STIM_004.jpg
682.491	0.841	correct	repeat	Run1	repeat/STIM_004.jpg
685.741	0.832	correct	repeat	Run1	repeat/STIM_004.jpg
688.709	0.84	correct	repeat	Run1	repeat/STIM_005.jpg
692.955	0.71	correct	repeat	Run1	repeat/STIM_005.jpg
696.819	0.911	correct	repeat	Run1	repeat/STIM_005.jpg
700.978	0.564	correct	repeat	Run1	repeat/STIM_005.jpg
704.796	0.754	correct	repeat	Run1	repeat/STIM_005.jpg
708.244	0.705	correct	repeat	Run1	repeat/STIM_006.jpg
712.597	0.727	correct	repeat	Run1	repeat/STIM_006.jpg
715.383	0.833	correct	repeat	Run1	repeat/STIM_006.jpg
719.937	0.514	correct	repeat	Run1	repeat/STIM_006.jpg
722.922	0.895	correct	repeat	Run1	repeat/STIM_006.jpg
726.783	0.59	correct	repeat	Run1	repeat/STIM_007.jpg
730.638	0.689	correct	repeat	Run1	repeat/STIM_007.jpg
735.25	0.576	correct	repeat	Run1	repeat/STIM_007.jpg
739.028	0.599	correct	repeat	Run1	repeat/STIM_007.jpg
742.001	0.771	incorrect	repeat	Run1	repeat/STIM_007.jpg
745.877	0.932	correct	repeat	Run1	repeat/STIM_008.jpg
749.056	0.561	correct	repeat	Run1	repeat/STIM_008.jpg
752.008	0.649	correct	repeat	Run1	repeat/STIM_008.jpg
756.198	0.592	correct	repeat	Run1	repeat/STIM_008.jpg
759.917	0.57	correct	repeat	Run1	repeat/STIM_008.jpg
762.663	0.878	correct	repeat	Run1	repeat/STIM_009.jpg
765.633	0.555	correct	repeat	Run1	repeat/STIM_009.jpg
768.661	0.743	correct	repeat	Run1	repeat/STIM_009.jpg
772.273	0.792	correct	repeat	Run1	repeat/STIM_009.jpg
776.243	0.944	correct	repeat	Run1	repeat/STIM_009.jpg
779.992	0.532	correct	repeat	Run1	repeat/STIM_010.jpg
782.787	0.519	correct	repeat	Run1	repeat/STIM_010.jpg
786.28	0.815	correct	repeat	Run1	repeat/STIM_010.jpg
790.752	0.811	correct	repeat	Run1	repeat/STIM_010.jpg
794.061	0.476	correct	repeat	Run1	repeat/STIM_010.jpg
797.199	0.618	correct	repeat	Run1	repeat/STIM_011.jpg
800.983	0.878	correct	repeat	Run1	repeat/STIM_011.jpg
805.673	0.67	correct	repeat	Run1	repeat/STIM_011.jpg
808.764	0.646	correct	repeat	Run1	repeat/STIM_011.jpg
813.332	0.739	correct	repeat	Run1	repeat/STIM_011.jpg
817.015	0.828	correct	repeat	Run1	repeat/STIM_012.jpg
821.486	0.617	correct	repeat	Run1	repeat/STIM_012.jpg
825.325	0.816	correct	repeat	Run1	repeat/STIM_012.jpg
828.866	0.908	correct	repeat	Run1	repeat/STIM_012.jpg
832.284	0.83	correct	repeat	Run1	repeat/STIM_012.jpg
836.595	0.913	incorrect	repeat	Run1	repeat/STIM_013.jpg
840.085	0.52	correct	repeat	Run1	repeat/STIM_013.jpg
843.791	0.772	correct	repeat	Run1	repeat/STIM_013.jpg
848.474	0.818	correct	repeat	Run1	repeat/STIM_013.jpg
853.205	0.752	correct	repeat	Run1	repeat/STIM_013.jpg
857.408	0.721	correct	repeat	Run1	repeat/STIM_014.jpg
861.375	0.864	correct	repeat	Run1	repeat/STIM_014.jpg
865.069	0.52	correct	repeat	Run1	repeat/STIM_014.jpg
868.371	0.576	correct	repeat	Run1	repeat/STIM_014.jpg
871.719	0.534	correct	repeat	Run1	repeat/STIM_014.jpg
874.566	1.528	correct	generate	Run2	generate/STIM_000.jpg
879.709	2.046	correct	generate	Run2	generate/STIM_000.jpg
884.994	2.059	incorrect	generate	Run2	generate/STIM_000.jpg
890.948	1.152	correct	generate	Run2	generate/STIM_000.jpg
895.934	1.791	correct	generate	Run2	generate/STIM_000.jpg
899.865	0.976	correct	generate	Run2	generate/STIM_001.jpg
902.882	0.95	correct	generate	Run2	generate/STIM_001.jpg
907.137	2.062	incorrect	generate	Run2	generate/STIM_001.jpg
911.764	1.658	incorrect	generate	Run2	generate/STIM_001.jpg
916.566	0.903	correct	generate	Run2	generate/STIM_001.jpg
920.983	2.284	correct	generate	Run2	generate/STIM_002.jpg
926.173	1.627	correct	generate	Run2	generate/STIM_002.jpg
931.194	1.897	correct	generate	Run2	generate/STIM_002.jpg
935.506	1.787	correct	generate	Run2	generate/STIM_002.jpg
940.463	1.219	correct	generate	Run2	generate/STIM_002.jpg
944.556	1.429	incorrect	generate	Run2	generate/STIM_003.jpg
948.94	1.417	incorrect	generate	Run2	generate/STIM_003.jpg
953.664	1.011	correct	generate	Run2	generate/STIM_003.jpg
957.439	1.121	correct	generate	Run2	generate/STIM_003.jpg
961.716	1.923	correct	generate	Run2	generate/STIM_003.jpg
967.376	1.232	correct	generate	Run2	generate/STIM_004.jpg
971.792	1.231	incorrect	generate	Run2	generate/STIM_004.jpg
975.187	1.239	incorrect	generate	Run2	generate/STIM_004.jpg
980.298	1.968	correct	generate	Run2	generate/STIM_004.jpg
986.21	1.802	correct	generate	Run2	generate/STIM_004.jpg
990.562	2.273	correct	generate	Run2	generate/STIM_005.jpg
995.384	1.553	correct	generate	Run2	generate/STIM_005.jpg
1000.212	1.358	correct	generate	Run2	generate/STIM_005.jpg
1004.013	1.789	correct	generate	Run2	generate/STIM_005.jpg
1008.316	1.664	correct	generate	Run2	generate/STIM_005.jpg
1013.194	1.786	incorrect	generate	Run2	generate/STIM_006.jpg
1017.608	1.184	correct	generate	Run2	generate/STIM_006.jpg
1021.516	1.938	correct	generate	Run2	generate/STIM_006.jpg
1026.256	0.928	correct	generate	Run2	generate/STIM_006.jpg
1030.625	1.021	incorrect	generate	Run2	generate/STIM_006.jpg
1034.649	1.905	correct	generate	Run2	generate/STIM_007.jpg
1040.159	1.771	correct	generate	Run2	generate/STIM_007.jpg
1044.007	1.813	correct	generate	Run2	generate/STIM_007.jpg
1048.251	0.862	correct	generate	Run2	generate/STIM_007.jpg
1053.031	1.817	incorrect	generate	Run2	generate/STIM_007.jpg
1057.521	2.28	correct	generate	Run2	generate/STIM_008.jpg
1061.915	1.772	correct	generate	Run2	generate/STIM_008.jpg
1067.486	1.194	incorrect	generate	Run2	generate/STIM_008.jpg
1071.216	1.806	correct	generate	Run2	generate/STIM_008.jpg
1075.934	1.486	correct	generate	Run2	generate/STIM_008.jpg
1080.067	2.38	correct	generate	Run2	generate/STIM_009.jpg
1085.765	1.626	correct	generate	Run2	generate/STIM_009.jpg
1091.37	2.128	incorrect	generate	Run2	generate/STIM_009.jpg
1095.872	0.835	correct	generate	Run2	generate/STIM_009.jpg
1100.613	1.421	correct	generate	Run2	generate/STIM_009.jpg
1104.867	1.578	correct	generate	Run2	generate/STIM_010.jpg
1109.745	1.74	correct	generate	Run2	generate/STIM_010.jpg
1114.821	1.809	correct	generate	Run2	generate/STIM_010.jpg
1120.051	1.763	correct	generate	Run2	generate/STIM_010.jpg
1124.015	0.938	correct	generate	Run2	generate/STIM_010.jpg
1127.598	1.448	correct	generate	Run2	generate/STIM_011.jpg
1132.369	2.208	correct	generate	Run2	generate/STIM_011.jpg
1138.445	1.278	incorrect	generate	Run2	generate/STIM_011.jpg
1141.854	1.494	correct	generate	Run2	generate/STIM_011.jpg
1146.99	1.418	correct	generate	Run2	generate/STIM_011.jpg
1151.251	2.346	correct	generate	Run2	generate/STIM_012.jpg
1157.027	1.528	correct	generate	Run2	generate/STIM_012.jpg
1160.625	1.971	correct	generate	Run2	generate/STIM_012.jpg
1164.99	1.339	correct	generate	Run2	generate/STIM_012.jpg
1169.562	1.38	incorrect	generate	Run2	generate/STIM_012.jpg
1172.962	2.241	correct	generate	Run2	generate/STIM_013.jpg
1177.632	1.863	correct	generate	Run2	generate/STIM_013.jpg
1182.646	1.887	correct	generate	Run2	generate/STIM_013.jpg
1186.792	1.441	correct	generate	Run2	generate/STIM_013.jpg
1191.816	1.854	correct	generate	Run2	generate/STIM_013.jpg
1196.939	2.242	correct	generate	Run2	generate/STIM_014.jpg
1201.964	1.721	correct	generate	Run2	generate/STIM_014.jpg
1205.761	1.896	correct	generate	Run2	generate/STIM_014.jpg
1209.708	1.564	correct	generate	Run2	generate/STIM_014.jpg
1214.493	0.953	correct	generate	Run2	generate/STIM_014.jpg
1218.214	1.481	incorrect	generate	Run2	generate/STIM_015.jpg
1222.729	2.076	correct	generate	Run2	generate/STIM_015.jpg
1227.408	1.801	correct	generate	Run2	generate/STIM_015.jpg
1231.795	1.935	correct	generate	Run2	generate/STIM_015.jpg
1236.238	1.54	correct	generate	Run2	generate/STIM_015.jpg
1240.679	1.298	correct	generate	Run2	generate/STIM_016.jpg
1244.696	1.225	incorrect	generate	Run2	generate/STIM_016.jpg
1248.926	1.935	correct	generate	Run2	generate/STIM_016.jpg
1254.319	1.547	correct	generate	Run2	generate/STIM_016.jpg
1258.996	1.709	correct	generate	Run2	generate/STIM_016.jpg
1264.525	1.673	incorrect	generate	Run2	generate/STIM_017.jpg
1270.04	1.53	incorrect	generate	Run2	generate/STIM_017.jpg
1273.813	1.898	correct	generate	Run2	generate/STIM_017.jpg
1279.556	1.762	correct	generate	Run2	generate/STIM_017.jpg
1283.605	1.214	correct	generate	Run2	generate/STIM_017.jpg
1288.763	1.243	incorrect	generate	Run2	generate/STIM_018.jpg
1293.691	1.257	correct	generate	Run2	generate/STIM_018.jpg
1297.891	1.752	incorrect	generate	Run2	generate/STIM_018.jpg
1302.027	1.819	correct	generate	Run2	generate/STIM_018.jpg
1307.106	1.531	correct	generate	Run2	generate/STIM_018.jpg
1310.823	1.99	correct	generate	Run2	generate/STIM_019.jpg
1314.971	0.912	correct	generate	Run2	generate/STIM_019.jpg
1319.044	1.2	correct	generate	Run2	generate/STIM_019.jpg
1322.547	1.124	correct	generate	Run2	generate/STIM_019.jpg
1326.143	1.362	correct	generate	Run2	generate/STIM_019.jpg
1331.354	2.344	correct	generate	Run2	generate/STIM_020.jpg
1337.147	1.416	incorrect	generate	Run2	generate/STIM_020.jpg
1341.433	1.954	incorrect	generate	Run2	generate/STIM_020.jpg
1345.464	1.596	correct	generate	Run2	generate/STIM_020.jpg
1349.221	0.805	correct	generate	Run2	generate/STIM_020.jpg
1353.373	2.044	correct	generate	Run2	generate/STIM_021.jpg
1357.472	0.98	correct	generate	Run2	generate/STIM_021.jpg
1361.356	1.967	correct	generate	Run2	generate/STIM_021.jpg
1366.4	0.88	correct	generate	Run2	generate/STIM_021.jpg
1369.868	1.458	correct	generate	Run2	generate/STIM_021.jpg
1374.588	1.663	correct	generate	Run2	generate/STIM_022.jpg
1380.042	1.107	correct	generate	Run2	generate/STIM_022.jpg
1383.92	1.365	incorrect	generate	Run2	generate/STIM_022.jpg
1387.296	1.162	correct	generate	Run2	generate/STIM_022.jpg
1391.114	1.958	incorrect	generate	Run2	generate/STIM_022.jpg
1395.227	2.256	correct	generate	Run2	generate/STIM_023.jpg
1400.321	1.717	correct	generate	Run2	generate/STIM_023.jpg
1405.774	0.858	correct	generate	Run2	generate/STIM_023.jpg
1408.944	0.906	correct	generate	Run2	generate/STIM_023.jpg
1412.073	1.837	incorrect	generate	Run2	generate/STIM_023.jpg
1417.425	1.177	correct	generate	Run2	generate/STIM_024.jpg
1420.762	1.701	correct	generate	Run2	generate/STIM_024.jpg
1424.512	1.285	correct	generate	Run2	generate/STIM_024.jpg
1428.329	1.607	correct	generate	Run2	generate/STIM_024.jpg
1433.185	1.417	correct	generate	Run2	generate/STIM_024.jpg
1438.478	0.626	correct	repeat	Run2	repeat/STIM_000.jpg
1441.211	0.715	correct	repeat	Run2	repeat/STIM_000.jpg
1444.979	0.895	incorrect	repeat	Run2	repeat/STIM_000.jpg
1448.648	0.758	incorrect	repeat	Run2	repeat/STIM_000.jpg
1451.718	0.787	incorrect	repeat	Run2	repeat/STIM_000.jpg
1455.657	0.578	correct	repeat	Run2	repeat/STIM_001.jpg
1460.039	0.621	correct	repeat	Run2	repeat/STIM_001.jpg
1462.933	0.582	correct	repeat	Run2	repeat/STIM_001.jpg
1467.185	0.888	correct	repeat	Run2	repeat/STIM_001.jpg
1472.011	0.546	correct	repeat	Run2	repeat/STIM_001.jpg
1476.38	0.484	correct	repeat	Run2	repeat/STIM_002.jpg
1479.605	0.899	correct	repeat	Run2	repeat/STIM_002.jpg
1483.379	0.839	correct	repeat	Run2	repeat/STIM_002.jpg
1486.655	0.78	correct	repeat	Run2	repeat/STIM_002.jpg
1490.793	0.698	correct	repeat	Run2	repeat/STIM_002.jpg
1494.633	0.916	incorrect	repeat	Run2	repeat/STIM_003.jpg
1498.104	0.89	correct	repeat	Run2	repeat/STIM_003.jpg
1501.642	0.933	correct	repeat	Run2	repeat/STIM_003.jpg
1505.285	0.573	correct	repeat	Run2	repeat/STIM_003.jpg
1509.848	0.659	correct	repeat	Run2	repeat/STIM_003.jpg
1512.568	0.597	correct	repeat	Run2	repeat/STIM_004.jpg
1515.954	0.898	correct	repeat	Run2	repeat/STIM_004.jpg
1519.792	0.888	correct	repeat	Run2	repeat/STIM_004.jpg
1523.113	0.668	correct	repeat	Run2	repeat/STIM_004.jpg
1526.031	0.939	correct	repeat	Run2	repeat/STIM_004.jpg
1530.067	0.663	correct	repeat	Run2	repeat/STIM_005.jpg
1534.577	0.616	correct	repeat	Run2	repeat/STIM_005.jpg
1538.097	0.686	correct	repeat	Run2	repeat/STIM_005.jpg
1541.562	0.827	correct	repeat	Run2	repeat/STIM_005.jpg
1545.433	0.79	correct	repeat	Run2	repeat/STIM_005.jpg
1549.011	0.596	incorrect	repeat	Run2	repeat/STIM_006.jpg
1551.616	0.701	correct	repeat	Run2	repeat/STIM_006.jpg
1555.486	0.786	correct	repeat	Run2	repeat/STIM_006.jpg
1559.825	0.888	correct	repeat	Run2	repeat/STIM_006.jpg
1563.069	0.486	correct	repeat	Run2	repeat/STIM_006.jpg
1567.185	0.678	correct	repeat	Run2	repeat/STIM_007.jpg
1570.252	0.933	correct	repeat	Run2	repeat/STIM_007.jpg
1573.384	0.828	correct	repeat	Run2	repeat/STIM_007.jpg
1577.992	0.578	correct	repeat	Run2	repeat/STIM_007.jpg
1582.454	0.847	incorrect	repeat	Run2	repeat/STIM_007.jpg
1587.117	0.84	correct	repeat	Run2	repeat/STIM_008.jpg
1590.231	0.49	correct	repeat	Run2	repeat/STIM_008.jpg
1593.316	0.511	correct	repeat	Run2	repeat/STIM_008.jpg
1597.364	0.711	correct	repeat	Run2	repeat/STIM_008.jpg
1601.112	0.508	correct	repeat	Run2	repeat/STIM_008.jpg
1603.998	0.704	correct	repeat	Run2	repeat/STIM_009.jpg
1606.764	0.941	incorrect	repeat	Run2	repeat/STIM_009.jpg
1610.934	0.645	correct	repeat	Run2	repeat/STIM_009.jpg
1614.503	0.903	correct	repeat	Run2	repeat/STIM_009.jpg
1617.926	0.695	correct	repeat	Run2	repeat/STIM_009.jpg
1621.216	0.944	correct	repeat	Run2	repeat/STIM_010.jpg
1624.485	0.863	correct	repeat	Run2	repeat/STIM_010.jpg
1627.918	0.747	correct	repeat	Run2	repeat/STIM_010.jpg
1631.357	0.821	correct	repeat	Run2	repeat/STIM_010.jpg
1634.218	0.875	correct	repeat	Run2	repeat/STIM_010.jpg
1638.107	0.9	correct	repeat	Run2	repeat/STIM_011.jpg
1642.185	0.61	correct	repeat	Run2	repeat/STIM_011.jpg
1645.065	0.558	incorrect	repeat	Run2	repeat/STIM_011.jpg
1649.439	0.689	incorrect	repeat	Run2	repeat/STIM_011.jpg
1653.272	0.755	correct	repeat	Run2	repeat/STIM_011.jpg
1657.121	0.938	correct	repeat	Run2	repeat/STIM_012.jpg
1660.559	0.907	incorrect	repeat	Run2	repeat/STIM_012.jpg
1663.57	0.723	correct	repeat	Run2	repeat/STIM_012.jpg
1666.616	0.602	correct	repeat	Run2	repeat/STIM_012.jpg
1670.297	0.532	correct	repeat	Run2	repeat/STIM_012.jpg
1672.907	0.59	correct	repeat	Run2	repeat/STIM_013.jpg
1676.591	0.629	correct	repeat	Run2	repeat/STIM_013.jpg
1679.541	0.831	correct	repeat	Run2	repeat/STIM_013.jpg
1682.716	0.857	correct	repeat	Run2	repeat/STIM_013.jpg
1686.944	0.676	correct	repeat	Run2	repeat/STIM_013.jpg
1689.89	0.807	correct	repeat	Run2	repeat/STIM_014.jpg
1693.65	0.643	incorrect	repeat	Run2	repeat/STIM_014.jpg
1698.076	0.807	correct	repeat	Run2	repeat/STIM_014.jpg
1702.234	0.501	correct	repeat	Run2	repeat/STIM_014.jpg
1705.831	0.577	correct	repeat	Run2	repeat/STIM_014.jpg
1710.058	1.589	correct	generate	Run3	generate/STIM_000.jpg
1714.487	1.928	correct	generate	Run3	generate/STIM_000.jpg
1719.157	0.868	correct	generate	Run3	generate/STIM_000.jpg
1722.486	1.93	correct	generate	Run3	generate/STIM_000.jpg
1726.678	1.421	correct	generate	Run3	generate/STIM_000.jpg
1731.964	1.769	correct	generate	Run3	generate/STIM_001.jpg
1737.215	1.41	correct	generate	Run3	generate/STIM_001.jpg
1740.825	0.894	correct	generate	Run3	generate/STIM_001.jpg
1744.382	1.252	correct	generate	Run3	generate/STIM_001.jpg
1748.233	1.602	correct	generate	Run3	generate/STIM_001.jpg
1753.82	1.84	correct	generate	Run3	generate/STIM_002.jpg
1759.377	1.214	correct	generate	Run3	generate/STIM_002.jpg
1763.594	0.994	incorrect	generate	Run3	generate/STIM_002.jpg
1767.334	1.612	correct	generate	Run3	generate/STIM_002.jpg
1771.169	1.517	correct	generate	Run3	generate/STIM_002.jpg
1774.873	1.438	correct	generate	Run3	generate/STIM_003.jpg
1779.865	1.978	correct	generate	Run3	generate/STIM_003.jpg
1783.871	1.581	correct	generate	Run3	generate/STIM_003.jpg
1789.035	1.377	correct	generate	Run3	generate/STIM_003.jpg
1792.441	1.016	correct	generate	Run3	generate/STIM_003.jpg
1795.768	1.109	correct	generate	Run3	generate/STIM_004.jpg
1800.437	0.988	correct	generate	Run3	generate/STIM_004.jpg
1805.334	1.417	correct	generate	Run3	generate/STIM_004.jpg
1809.335	1.598	correct	generate	Run3	generate/STIM_004.jpg
1813.441	1.026	correct	generate	Run3	generate/STIM_004.jpg
1816.556	0.949	correct	generate	Run3	generate/STIM_005.jpg
1820.976	1.697	correct	generate	Run3	generate/STIM_005.jpg
1826.442	1.579	correct	generate	Run3	generate/STIM_005.jpg
1831.053	1.182	correct	generate	Run3	generate/STIM_005.jpg
1834.8	1.291	correct	generate	Run3	generate/STIM_005.jpg
1839.232	1.031	correct	generate	Run3	generate/STIM_006.jpg
1842.975	1.417	correct	generate	Run3	generate/STIM_006.jpg
1847.761	1.92	incorrect	generate	Run3	generate/STIM_006.jpg
1852.578	1.339	correct	generate	Run3	generate/STIM_006.jpg
1857.492	1.435	correct	generate	Run3	generate/STIM_006.jpg
1861.916	0.862	correct	generate	Run3	generate/STIM_007.jpg
1865.855	1.835	correct	generate	Run3	generate/STIM_007.jpg
1871.536	1.212	correct	generate	Run3	generate/STIM_007.jpg
1875.642	0.96	correct	generate	Run3	generate/STIM_007.jpg
1878.642	1.951	correct	generate	Run3	generate/STIM_007.jpg
1883.778	1.187	correct	generate	Run3	generate/STIM_008.jpg
1888.107	0.802	correct	generate	Run3	generate/STIM_008.jpg
1891.729	0.873	correct	generate	Run3	generate/STIM_008.jpg
1896.089	1.666	correct	generate	Run3	generate/STIM_008.jpg
1900.999	1.731	correct	generate	Run3	generate/STIM_008.jpg
1905.619	1.93	correct	generate	Run3	generate/STIM_009.jpg
1910.728	1.254	correct	generate	Run3	generate/STIM_009.jpg
1914.632	1.34	correct	generate	Run3	generate/STIM_009.jpg
1919.962	0.796	correct	generate	Run3	generate/STIM_009.jpg
1923.45	1.527	correct	generate	Run3	generate/STIM_009.jpg
1927.377	0.932	correct	generate	Run3	generate/STIM_010.jpg
1932.002	1.333	correct	generate	Run3	generate/STIM_010.jpg
1936.699	0.808	correct	generate	Run3	generate/STIM_010.jpg
1941.376	0.831	correct	generate	Run3	generate/STIM_010.jpg
1945.588	1.618	correct	generate	Run3	generate/STIM_010.jpg
1949.961	1.809	correct	generate	Run3	generate/STIM_011.jpg
1954.452	1.29	correct	generate	Run3	generate/STIM_011.jpg
1958.203	1.248	correct	generate	Run3	generate/STIM_011.jpg
1961.918	1.328	incorrect	generate	Run3	generate/STIM_011.jpg
1965.742	1.899	correct	generate	Run3	generate/STIM_011.jpg
1971.291	1.047	correct	generate	Run3	generate/STIM_012.jpg
1975.623	1.552	correct	generate	Run3	generate/STIM_012.jpg
1979.603	1.346	correct	generate	Run3	generate/STIM_012.jpg
1983.217	1.78	correct	generate	Run3	generate/STIM_012.jpg
1988.505	0.999	correct	generate	Run3	generate/STIM_012.jpg
1992.606	1.83	correct	generate	Run3	generate/STIM_013.jpg
1996.64	1.399	correct	generate	Run3	generate/STIM_013.jpg
2000.714	1.669	correct	generate	Run3	generate/STIM_013.jpg
2005.806	1.025	correct	generate	Run3	generate/STIM_013.jpg
2010.378	1.385	correct	generate	Run3	generate/STIM_013.jpg
2015.398	1.06	correct	generate	Run3	generate/STIM_014.jpg
2018.497	1.985	correct	generate	Run3	generate/STIM_014.jpg
2023.485	1.163	incorrect	generate	Run3	generate/STIM_014.jpg
2027.627	1.523	correct	generate	Run3	generate/STIM_014.jpg
2031.223	1.81	correct	generate	Run3	generate/STIM_014.jpg
2035.159	1.92	correct	generate	Run3	generate/STIM_015.jpg
2039.724	1.634	correct	generate	Run3	generate/STIM_015.jpg
2044.774	1.154	correct	generate	Run3	generate/STIM_015.jpg
2049.212	0.826	incorrect	generate	Run3	generate/STIM_015.jpg
2053.521	1.907	correct	generate	Run3	generate/STIM_015.jpg
2058.333	1.62	correct	generate	Run3	generate/STIM_016.jpg
2062.293	1.782	correct	generate	Run3	generate/STIM_016.jpg
2066.724	1.202	correct	generate	Run3	generate/STIM_016.jpg
2071.374	1.553	correct	generate	Run3	generate/STIM_016.jpg
2076.77	1.167	correct	generate	Run3	generate/STIM_016.jpg
2080.671	1.506	correct	generate	Run3	generate/STIM_017.jpg
2085.827	1.644	correct	generate	Run3	generate/STIM_017.jpg
2091.151	1.085	correct	generate	Run3	generate/STIM_017.jpg
2095.055	1.372	correct	generate	Run3	generate/STIM_017.jpg
2099.191	1.268	correct	generate	Run3	generate/STIM_017.jpg
2103.723	1.431	correct	generate	Run3	generate/STIM_018.jpg
2108.897	1.175	correct	generate	Run3	generate/STIM_018.jpg
2112.28	1.269	correct	generate	Run3	generate/STIM_018.jpg
2117.383	0.97	correct	generate	Run3	generate/STIM_018.jpg
2120.755	1.579	correct	generate	Run3	generate/STIM_018.jpg
2124.459	1.361	correct	generate	Run3	generate/STIM_019.jpg
2128.282	1.237	correct	generate	Run3	generate/STIM_019.jpg
2132.805	1.78	correct	generate	Run3	generate/STIM_019.jpg
2137.132	0.868	correct	generate	Run3	generate/STIM_019.jpg
2141.174	1.055	correct	generate	Run3	generate/STIM_019.jpg
2144.691	1.583	correct	generate	Run3	generate/STIM_020.jpg
2149.252	0.96	correct	generate	Run3	generate/STIM_020.jpg
2152.457	0.885	correct	generate	Run3	generate/STIM_020.jpg
2155.685	1.732	correct	generate	Run3	generate/STIM_020.jpg
2161.404	0.861	correct	generate	Run3	generate/STIM_020.jpg
2165.777	1.176	correct	generate	Run3	generate/STIM_021.jpg
2170.418	1.516	correct	generate	Run3	generate/STIM_021.jpg
2174.086	1.441	correct	generate	Run3	generate/STIM_021.jpg
2178.041	1.579	correct	generate	Run3	generate/STIM_021.jpg
2181.784	1.53	correct	generate	Run3	generate/STIM_021.jpg
2185.401	1.268	correct	generate	Run3	generate/STIM_022.jpg
2189.894	1.576	incorrect	generate	Run3	generate/STIM_022.jpg
2194.161	1.841	correct	generate	Run3	generate/STIM_022.jpg
2199.714	1.258	correct	generate	Run3	generate/STIM_022.jpg
2204.086	1.785	correct	generate	Run3	generate/STIM_022.jpg
2208.948	1.5	correct	generate	Run3	generate/STIM_023.jpg
2213.023	1.658	incorrect	generate	Run3	generate/STIM_023.jpg
2217.245	1.74	correct	generate	Run3	generate/STIM_023.jpg
2221.814	0.945	correct	generate	Run3	generate/STIM_023.jpg
2225.481	0.811	correct	generate	Run3	generate/STIM_023.jpg
2228.709	1.762	correct	generate	Run3	generate/STIM_024.jpg
2234.43	1.225	correct	generate	Run3	generate/STIM_024.jpg
2238.467	1.248	correct	generate	Run3	generate/STIM_024.jpg
2243.464	1.051	correct	generate	Run3	generate/STIM_024.jpg
2247.171	0.974	correct	generate	Run3	generate/STIM_024.jpg
2251.855	0.822	correct	repeat	Run3	repeat/STIM_000.jpg
2254.894	0.506	correct	repeat	Run3	repeat/STIM_000.jpg
2258.874	0.526	correct	repeat	Run3	repeat/STIM_000.jpg
2262.665	0.895	correct	repeat	Run3	repeat/STIM_000.jpg
2267.22	0.837	correct	repeat	Run3	repeat/STIM_000.jpg
2270.332	0.912	correct	repeat	Run3	repeat/STIM_001.jpg
2275.147	0.696	correct	repeat	Run3	repeat/STIM_001.jpg
2278.647	0.509	correct	repeat	Run3	repeat/STIM_001.jpg
2281.432	0.652	correct	repeat	Run3	repeat/STIM_001.jpg
2285.696	0.922	correct	repeat	Run3	repeat/STIM_001.jpg
2290.435	0.615	correct	repeat	Run3	repeat/STIM_002.jpg
2294.731	0.651	correct	repeat	Run3	repeat/STIM_002.jpg
2298.755	0.872	correct	repeat	Run3	repeat/STIM_002.jpg
2302.736	0.882	correct	repeat	Run3	repeat/STIM_002.jpg
2305.98	0.753	correct	repeat	Run3	repeat/STIM_002.jpg
2310.438	0.733	correct	repeat	Run3	repeat/STIM_003.jpg
2313.74	0.643	correct	repeat	Run3	repeat/STIM_003.jpg
2317.955	0.647	correct	repeat	Run3	repeat/STIM_003.jpg
2321.75	0.84	correct	repeat	Run3	repeat/STIM_003.jpg
2326.193	0.781	correct	repeat	Run3	repeat/STIM_003.jpg
2330.626	0.845	correct	repeat	Run3	repeat/STIM_004.jpg
2333.902	0.633	correct	repeat	Run3	repeat/STIM_004.jpg
2337.754	0.799	correct	repeat	Run3	repeat/STIM_004.jpg
2341.654	0.658	correct	repeat	Run3	repeat/STIM_004.jpg
2344.68	0.913	correct	repeat	Run3	repeat/STIM_004.jpg
2349.408	0.626	correct	repeat	Run3	repeat/STIM_005.jpg
2352.355	0.801	correct	repeat	Run3	repeat/STIM_005.jpg
2355.732	0.785	correct	repeat	Run3	repeat/STIM_005.jpg
2358.614	0.563	correct	repeat	Run3	repeat/STIM_005.jpg
2362.359	0.594	correct	repeat	Run3	repeat/STIM_005.jpg
2366.61	0.893	incorrect	repeat	Run3	repeat/STIM_006.jpg
2369.626	0.915	correct	repeat	Run3	repeat/STIM_006.jpg
2374.315	0.78	correct	repeat	Run3	repeat/STIM_006.jpg
2377.228	0.61	correct	repeat	Run3	repeat/STIM_006.jpg
2380.842	0.658	correct	repeat	Run3	repeat/STIM_006.jpg
2384.994	0.893	correct	repeat	Run3	repeat/STIM_007.jpg
2387.894	0.488	correct	repeat	Run3	repeat/STIM_007.jpg
2392.261	0.48	correct	repeat	Run3	repeat/STIM_007.jpg
2395.038	0.866	correct	repeat	Run3	repeat/STIM_007.jpg
2399.385	0.761	correct	repeat	Run3	repeat/STIM_007.jpg
2403.549	0.708	correct	repeat	Run3	repeat/STIM_008.jpg
2407.139	0.782	correct	repeat	Run3	repeat/STIM_008.jpg
2411.416	0.497	incorrect	repeat	Run3	repeat/STIM_008.jpg
2415.903	0.896	correct	repeat	Run3	repeat/STIM_008.jpg
2420.18	0.564	correct	repeat	Run3	repeat/STIM_008.jpg
2424.392	0.701	correct	repeat	Run3	repeat/STIM_009.jpg
2428.69	0.864	correct	repeat	Run3	repeat/STIM_009.jpg
2431.804	0.499	correct	repeat	Run3	repeat/STIM_009.jpg
2435.268	0.835	incorrect	repeat	Run3	repeat/STIM_009.jpg
2439.942	0.768	correct	repeat	Run3	repeat/STIM_009.jpg
2442.79	0.858	incorrect	repeat	Run3	repeat/STIM_010.jpg
2446.739	0.495	correct	repeat	Run3	repeat/STIM_010.jpg
2450.44	0.774	correct	repeat	Run3	repeat/STIM_010.jpg
2453.794	0.895	correct	repeat	Run3	repeat/STIM_010.jpg
2458.373	0.903	correct	repeat	Run3	repeat/STIM_010.jpg
2463.164	0.765	correct	repeat	Run3	repeat/STIM_011.jpg
2466.242	0.539	correct	repeat	Run3	repeat/STIM_011.jpg
2469.032	0.882	correct	repeat	Run3	repeat/STIM_011.jpg
2473.276	0.62	correct	repeat	Run3	repeat/STIM_011.jpg
2476.295	0.905	correct	repeat	Run3	repeat/STIM_011.jpg
2480.578	0.912	correct	repeat	Run3	repeat/STIM_012.jpg
2485.104	0.638	correct	repeat	Run3	repeat/STIM_012.jpg
2487.882	0.871	correct	repeat	Run3	repeat/STIM_012.jpg
2491.598	0.623	correct	repeat	Run3	repeat/STIM_012.jpg
2494.635	0.702	incorrect	repeat	Run3	repeat/STIM_012.jpg
2498.17	0.486	correct	repeat	Run3	repeat/STIM_013.jpg
2501.311	0.57	correct	repeat	Run3	repeat/STIM_013.jpg
2504.341	0.498	correct	repeat	Run3	repeat/STIM_013.jpg
2508.452	0.941	correct	repeat	Run3	repeat/STIM_013.jpg
2513.07	0.698	correct	repeat	Run3	repeat/STIM_013.jpg
2516.233	0.57	correct	repeat	Run3	repeat/STIM_014.jpg
2520.311	0.49	correct	repeat	Run3	repeat/STIM_014.jpg
2524.117	0.59	correct	repeat	Run3	repeat/STIM_014.jpg
2527.638	0.925	correct	repeat	Run3	repeat/STIM_014.jpg
2531.267	0.778	correct	repeat	Run3	repeat/STIM_014.jpg
2534.327	0.885	correct	generate	Run4	generate/STIM_000.jpg
2537.256	0.82	correct	generate	Run4	generate/STIM_000.jpg
2541.763	0.909	correct	generate	Run4	generate/STIM_000.jpg
2545.551	1.045	correct	generate	Run4	generate/STIM_000.jpg
2549.378	1.017	correct	generate	Run4	generate/STIM_000.jpg
2552.45	1.773	correct	generate	Run4	generate/STIM_001.jpg
2558.078	1.876	correct	generate	Run4	generate/STIM_001.jpg
2562.298	1.312	correct	generate	Run4	generate/STIM_001.jpg
2566.044	1.209	incorrect	generate	Run4	generate/STIM_001.jpg
2569.881	1.041	correct	generate	Run4	generate/STIM_001.jpg
2572.955	1.005	correct	generate	Run4	generate/STIM_002.jpg
2576.684	1.415	correct	generate	Run4	generate/STIM_002.jpg
2581.73	1.93	correct	generate	Run4	generate/STIM_002.jpg
2586.306	1.311	correct	generate	Run4	generate/STIM_002.jpg
2591.208	1.148	correct	generate	Run4	generate/STIM_002.jpg
2595.18	1.744	correct	generate	Run4	generate/STIM_003.jpg
2600.159	1.874	correct	generate	Run4	generate/STIM_003.jpg
2605.951	1.086	correct	generate	Run4	generate/STIM_003.jpg
2610.173	1.25	correct	generate	Run4	generate/STIM_003.jpg
2613.901	1.827	correct	generate	Run4	generate/STIM_003.jpg
2619.629	1.969	correct	generate	Run4	generate/STIM_004.jpg
2623.882	1.978	correct	generate	Run4	generate/STIM_004.jpg
2628.498	1.93	correct	generate	Run4	generate/STIM_004.jpg
2632.799	1.427	incorrect	generate	Run4	generate/STIM_004.jpg
2636.426	1.494	correct	generate	Run4	generate/STIM_004.jpg
2640.622	0.905	correct	generate	Run4	generate/STIM_005.jpg
2645.412	1.823	correct	generate	Run4	generate/STIM_005.jpg
2650.904	1.203	correct	generate	Run4	generate/STIM_005.jpg
2655.491	0.881	correct	generate	Run4	generate/STIM_005.jpg
2659.787	1.758	correct	generate	Run4	generate/STIM_005.jpg
2664.491	1.209	correct	generate	Run4	generate/STIM_006.jpg
2668.285	1.568	correct	generate	Run4	generate/STIM_006.jpg
2672.044	1.813	correct	generate	Run4	generate/STIM_006.jpg
2676.144	0.917	correct	generate	Run4	generate/STIM_006.jpg
2679.917	1.498	correct	generate	Run4	generate/STIM_006.jpg
2684.203	1.197	incorrect	generate	Run4	generate/STIM_007.jpg
2688.314	1.056	correct	generate	Run4	generate/STIM_007.jpg
2691.659	1.665	correct	generate	Run4	generate/STIM_007.jpg
2696.831	0.95	correct	generate	Run4	generate/STIM_007.jpg
2699.883	1.451	correct	generate	Run4	generate/STIM_007.jpg
2704.685	1.054	correct	generate	Run4	generate/STIM_008.jpg
2707.926	1.584	correct	generate	Run4	generate/STIM_008.jpg
2713.143	0.976	correct	generate	Run4	generate/STIM_008.jpg
2716.905	0.969	correct	generate	Run4	generate/STIM_008.jpg
2720.029	1.787	correct	generate	Run4	generate/STIM_008.jpg
2724.834	1.05	correct	generate	Run4	generate/STIM_009.jpg
2729.037	1.922	correct	generate	Run4	generate/STIM_009.jpg
2733.326	1.541	correct	generate	Run4	generate/STIM_009.jpg
2737.457	0.961	correct	generate	Run4	generate/STIM_009.jpg
2742.22	1.593	correct	generate	Run4	generate/STIM_009.jpg
2747.349	1.593	correct	generate	Run4	generate/STIM_010.jpg
2751.756	1.373	correct	generate	Run4	generate/STIM_010.jpg
2757.043	1.852	correct	generate	Run4	generate/STIM_010.jpg
2761.765	1.241	correct	generate	Run4	generate/STIM_010.jpg
2765.22	1.63	incorrect	generate	Run4	generate/STIM_010.jpg
2769.602	1.741	correct	generate	Run4	generate/STIM_011.jpg
2775.311	1.453	correct	generate	Run4	generate/STIM_011.jpg
2778.984	1.52	correct	generate	Run4	generate/STIM_011.jpg
2782.871	1.878	correct	generate	Run4	generate/STIM_011.jpg
2787.479	1.706	correct	generate	Run4	generate/STIM_011.jpg
2792.233	1.657	correct	generate	Run4	generate/STIM_012.jpg
2797.884	0.829	correct	generate	Run4	generate/STIM_012.jpg
2801.287	1.841	correct	generate	Run4	generate/STIM_012.jpg
2806.391	1.526	correct	generate	Run4	generate/STIM_012.jpg
2811.131	1.006	correct	generate	Run4	generate/STIM_012.jpg
2814.618	1.074	correct	generate	Run4	generate/STIM_013.jpg
2817.791	1.609	correct	generate	Run4	generate/STIM_013.jpg
2821.48	1.346	correct	generate	Run4	generate/STIM_013.jpg
2826.606	0.876	correct	generate	Run4	generate/STIM_013.jpg
2830.922	1.243	correct	generate	Run4	generate/STIM_013.jpg
2834.268	1.103	correct	generate	Run4	generate/STIM_014.jpg
2837.915	1.002	correct	generate	Run4	generate/STIM_014.jpg
2841.228	1.927	incorrect	generate	Run4	generate/STIM_014.jpg
2845.759	0.988	correct	generate	Run4	generate/STIM_014.jpg
2849.673	1.66	correct	generate	Run4	generate/STIM_014.jpg
2855.058	0.854	correct	generate	Run4	generate/STIM_015.jpg
2858.373	1.691	correct	generate	Run4	generate/STIM_015.jpg
2863.352	0.819	correct	generate	Run4	generate/STIM_015.jpg
2867.262	1.053	correct	generate	Run4	generate/STIM_015.jpg
2870.383	1.211	correct	generate	Run4	generate/STIM_015.jpg
2874.079	1.378	correct	generate	Run4	generate/STIM_016.jpg
2878.81	1.078	correct	generate	Run4	generate/STIM_016.jpg
2883.512	1.522	correct	generate	Run4	generate/STIM_016.jpg
2888.291	1.482	correct	generate	Run4	generate/STIM_016.jpg
2892.036	1.909	correct	generate	Run4	generate/STIM_016.jpg
2896.204	1.589	correct	generate	Run4	generate/STIM_017.jpg
2899.866	1.035	correct	generate	Run4	generate/STIM_017.jpg
2904.34	1.224	correct	generate	Run4	generate/STIM_017.jpg
2907.8	1.325	correct	generate	Run4	generate/STIM_017.jpg
2912.841	0.854	correct	generate	Run4	generate/STIM_017.jpg
2916.273	1.416	correct	generate	Run4	generate/STIM_018.jpg
2920.075	1.56	correct	generate	Run4	generate/STIM_018.jpg
2925.383	0.953	correct	generate	Run4	generate/STIM_018.jpg
2928.979	1.226	correct	generate	Run4	generate/STIM_018.jpg
2932.808	1.227	correct	generate	Run4	generate/STIM_018.jpg
2937.827	1.287	correct	generate	Run4	generate/STIM_019.jpg
2941.681	1.513	correct	generate	Run4	generate/STIM_019.jpg
2945.298	0.906	correct	generate	Run4	generate/STIM_019.jpg
2949.677	0.918	correct	generate	Run4	generate/STIM_019.jpg
2953.532	1.369	correct	generate	Run4	generate/STIM_019.jpg
2957.425	1.343	incorrect	generate	Run4	generate/STIM_020.jpg
2962.059	1.036	correct	generate	Run4	generate/STIM_020.jpg
2966.05	1.114	correct	generate	Run4	generate/STIM_020.jpg
2970.186	1.84	correct	generate	Run4	generate/STIM_020.jpg
2974.168	1.161	correct	generate	Run4	generate/STIM_020.jpg
2979.066	1.279	correct	generate	Run4	generate/STIM_021.jpg
2983.383	1.769	correct	generate	Run4	generate/STIM_021.jpg
2987.703	1.432	correct	generate	Run4	generate/STIM_021.jpg
2991.85	1.555	correct	generate	Run4	generate/STIM_021.jpg
2997.152	1.604	correct	generate	Run4	generate/STIM_021.jpg
3002.683	1.201	correct	generate	Run4	generate/STIM_022.jpg
3007.026	1.202	correct	generate	Run4	generate/STIM_022.jpg
3010.407	0.95	correct	generate	Run4	generate/STIM_022.jpg
3014.509	0.964	correct	generate	Run4	generate/STIM_022.jpg
3017.612	1.256	correct	generate	Run4	generate/STIM_022.jpg
3020.893	1.52	correct	generate	Run4	generate/STIM_023.jpg
3026.316	1.678	correct	generate	Run4	generate/STIM_023.jpg
3031.202	1.791	correct	generate	Run4	generate/STIM_023.jpg
3036.601	1.867	correct	generate	Run4	generate/STIM_023.jpg
3041.786	1.783	correct	generate	Run4	generate/STIM_023.jpg
3045.738	1.025	incorrect	generate	Run4	generate/STIM_024.jpg
3050.557	0.932	correct	generate	Run4	generate/STIM_024.jpg
3054.636	1.019	correct	generate	Run4	generate/STIM_024.jpg
3059.557	1.934	correct	generate	Run4	generate/STIM_024.jpg
3064.556	1.665	correct	generate	Run4	generate/STIM_024.jpg
3069.253	0.665	correct	repeat	Run4	repeat/STIM_000.jpg
3073.804	0.646	correct	repeat	Run4	repeat/STIM_000.jpg
3077.038	0.622	correct	repeat	Run4	repeat/STIM_000.jpg
3080.741	0.519	correct	repeat	Run4	repeat/STIM_000.jpg
3084.803	0.814	correct	repeat	Run4	repeat/STIM_000.jpg
3087.728	0.852	correct	repeat	Run4	repeat/STIM_001.jpg
3090.849	0.871	correct	repeat	Run4	repeat/STIM_001.jpg
3094.354	0.715	correct	repeat	Run4	repeat/STIM_001.jpg
3098.7	0.633	correct	repeat	Run4	repeat/STIM_001.jpg
3102.588	0.664	correct	repeat	Run4	repeat/STIM_001.jpg
3106.395	0.687	correct	repeat	Run4	repeat/STIM_002.jpg
3110.065	0.537	correct	repeat	Run4	repeat/STIM_002.jpg
3112.92	0.56	correct	repeat	Run4	repeat/STIM_002.jpg
3116.529	0.726	correct	repeat	Run4	repeat/STIM_002.jpg
3119.627	0.585	correct	repeat	Run4	repeat/STIM_002.jpg
3122.418	0.711	correct	repeat	Run4	repeat/STIM_003.jpg
3126.424	0.478	correct	repeat	Run4	repeat/STIM_003.jpg
3129.349	0.708	correct	repeat	Run4	repeat/STIM_003.jpg
3132.299	0.912	correct	repeat	Run4	repeat/STIM_003.jpg
3136.699	0.882	correct	repeat	Run4	repeat/STIM_003.jpg
3140.219	0.485	correct	repeat	Run4	repeat/STIM_004.jpg
3143.649	0.521	correct	repeat	Run4	repeat/STIM_004.jpg
3146.879	0.726	correct	repeat	Run4	repeat/STIM_004.jpg
3150.074	0.811	correct	repeat	Run4	repeat/STIM_004.jpg
3153.029	0.789	correct	repeat	Run4	repeat/STIM_004.jpg
3156.173	0.603	correct	repeat	Run4	repeat/STIM_005.jpg
3159.393	0.604	correct	repeat	Run4	repeat/STIM_005.jpg
3162.58	0.757	correct	repeat	Run4	repeat/STIM_005.jpg
3165.416	0.849	incorrect	repeat	Run4	repeat/STIM_005.jpg
3168.698	0.698	correct	repeat	Run4	repeat/STIM_005.jpg
3173.178	0.897	correct	repeat	Run4	repeat/STIM_006.jpg
3177.327	0.859	correct	repeat	Run4	repeat/STIM_006.jpg
3180.771	0.481	correct	repeat	Run4	repeat/STIM_006.jpg
3183.979	0.478	correct	repeat	Run4	repeat/STIM_006.jpg
3187.037	0.735	correct	repeat	Run4	repeat/STIM_006.jpg
3191.711	0.85	correct	repeat	Run4	repeat/STIM_007.jpg
3196.181	0.91	correct	repeat	Run4	repeat/STIM_007.jpg
3200.199	0.707	correct	repeat	Run4	repeat/STIM_007.jpg
3203.865	0.664	correct	repeat	Run4	repeat/STIM_007.jpg
3208.231	0.598	correct	repeat	Run4	repeat/STIM_007.jpg
3211.39	0.668	correct	repeat	Run4	repeat/STIM_008.jpg
3214.871	0.503	correct	repeat	Run4	repeat/STIM_008.jpg
3217.8	0.928	correct	repeat	Run4	repeat/STIM_008.jpg
3222.553	0.771	correct	repeat	Run4	repeat/STIM_008.jpg
3225.683	0.786	correct	repeat	Run4	repeat/STIM_008.jpg
3230.15	0.75	correct	repeat	Run4	repeat/STIM_009.jpg
3233.279	0.85	correct	repeat	Run4	repeat/STIM_009.jpg
3236.474	0.632	correct	repeat	Run4	repeat/STIM_009.jpg
3240.581	0.886	correct	repeat	Run4	repeat/STIM_009.jpg
3244.873	0.794	correct	repeat	Run4	repeat/STIM_009.jpg
3248.32	0.688	correct	repeat	Run4	repeat/STIM_010.jpg
3251.636	0.905	correct	repeat	Run4	repeat/STIM_010.jpg
3255.346	0.569	correct	repeat	Run4	repeat/STIM_010.jpg
3258.162	0.635	correct	repeat	Run4	repeat/STIM_010.jpg
3261.934	0.904	correct	repeat	Run4	repeat/STIM_010.jpg
3266.067	0.835	correct	repeat	Run4	repeat/STIM_011.jpg
3269.465	0.71	correct	repeat	Run4	repeat/STIM_011.jpg
3273.494	0.945	correct	repeat	Run4	repeat/STIM_011.jpg
3278.137	0.58	correct	repeat	Run4	repeat/STIM_011.jpg
3282.34	0.846	correct	repeat	Run4	repeat/STIM_011.jpg
3286.708	0.655	correct	repeat	Run4	repeat/STIM_012.jpg
3290.952	0.879	correct	repeat	Run4	repeat/STIM_012.jpg
3294.238	0.66	correct	repeat	Run4	repeat/STIM_012.jpg
3297.924	0.753	correct	repeat	Run4	repeat/STIM_012.jpg
3301.281	0.937	incorrect	repeat	Run4	repeat/STIM_012.jpg
3304.986	0.92	correct	repeat	Run4	repeat/STIM_013.jpg
3308.797	0.869	correct	repeat	Run4	repeat/STIM_013.jpg
3312.146	0.787	correct	repeat	Run4	repeat/STIM_013.jpg
3316.564	0.746	correct	repeat	Run4	repeat/STIM_013.jpg
3320.683	0.811	correct	repeat	Run4	repeat/STIM_013.jpg
3324.758	0.737	correct	repeat	Run4	repeat/STIM_014.jpg
3327.683	0.655	correct	repeat	Run4	repeat/STIM_014.jpg
3330.794	0.754	incorrect	repeat	Run4	repeat/STIM_014.jpg
3335.045	0.712	correct	repeat	Run4	repeat/STIM_014.jpg
3338.126	0.793	correct	repeat	Run4	repeat/STIM_014.jpg
