onset	duration	accuracy_binary	trial_type	learning_stage	stimulus
0.0	3.21	1	generate	Run1	generate/STIM_000.jpg
6.762	2.712	1	generate	Run1	generate/STIM_000.jpg
13.002	1.475	1	generate	Run1	generate/STIM_000.jpg
17.753	1.251	1	generate	Run1	generate/STIM_000.jpg
21.7	1.859	1	generate	Run1	generate/STIM_000.jpg
25.458	2.967	1	generate	Run1	generate/STIM_001.jpg
30.085	3.001	1	generate	Run1	generate/STIM_001.jpg
34.965	2.771	0	generate	Run1	generate/STIM_001.jpg
41.152	1.906	1	generate	Run1	generate/STIM_001.jpg
45.24	2.407	1	generate	Run1	generate/STIM_001.jpg
49.874	3.136	1	generate	Run1	generate/STIM_002.jpg
54.756	1.711	1	generate	Run1	generate/STIM_002.jpg
59.884	1.968	1	generate	Run1	generate/STIM_002.jpg
65.42	2.251	1	generate	Run1	generate/STIM_002.jpg
71.006	2.738	1	generate	Run1	generate/STIM_002.jpg
76.644	2.413	1	generate	Run1	generate/STIM_003.jpg
82.663	3.165	1	generate	Run1	generate/STIM_003.jpg
88.842	2.913	1	generate	Run1	generate/STIM_003.jpg
95.31	2.768	0	generate	Run1	generate/STIM_003.jpg
100.601	1.605	1	generate	Run1	generate/STIM_003.jpg
104.739	2.828	1	generate	Run1	generate/STIM_004.jpg
111.057	1.84	1	generate	Run1	generate/STIM_004.jpg
114.661	2.486	1	generate	Run1	generate/STIM_004.jpg
119.454	2.124	1	generate	Run1	generate/STIM_004.jpg
124.049	1.884	0	generate	Run1	generate/STIM_004.jpg
129.667	2.223	1	generate	Run1	generate/STIM_005.jpg
135.534	2.676	0	generate	Run1	generate/STIM_005.jpg
141.207	2.274	1	generate	Run1	generate/STIM_005.jpg
145.95	2.279	1	generate	Run1	generate/STIM_005.jpg
150.873	1.7	1	generate	Run1	generate/STIM_005.jpg
154.6	1.478	1	generate	Run1	generate/STIM_006.jpg
159.788	1.478	1	generate	Run1	generate/STIM_006.jpg
163.371	2.789	1	generate	Run1	generate/STIM_006.jpg
168.409	2.238	1	generate	Run1	generate/STIM_006.jpg
174.262	1.649	1	generate	Run1	generate/STIM_006.jpg
178.384	2.02	0	generate	Run1	generate/STIM_007.jpg
182.725	3.138	1	generate	Run1	generate/STIM_007.jpg
188.106	1.762	1	generate	Run1	generate/STIM_007.jpg
193.433	1.352	1	generate	Run1	generate/STIM_007.jpg
196.866	2.046	1	generate	Run1	generate/STIM_007.jpg
201.437	2.646	0	generate	Run1	generate/STIM_008.jpg
205.993	2.714	1	generate	Run1	generate/STIM_008.jpg
210.853	1.674	1	generate	Run1	generate/STIM_008.jpg
215.298	1.774	0	generate	Run1	generate/STIM_008.jpg
219.295	1.771	1	generate	Run1	generate/STIM_008.jpg
223.496	2.499	0	generate	Run1	generate/STIM_009.jpg
228.422	3.189	1	generate	Run1	generate/STIM_009.jpg
234.497	1.503	0	generate	Run1	generate/STIM_009.jpg
238.929	1.402	1	generate	Run1	generate/STIM_009.jpg
242.522	2.437	1	generate	Run1	generate/STIM_009.jpg
247.628	3.232	0	generate	Run1	generate/STIM_010.jpg
253.415	1.711	1	generate	Run1	generate/STIM_010.jpg
258.689	3.068	0	generate	Run1	generate/STIM_010.jpg
263.424	1.801	1	generate	Run1	generate/STIM_010.jpg
268.737	1.248	1	generate	Run1	generate/STIM_010.jpg
271.851	3.212	1	generate	Run1	generate/STIM_011.jpg
277.927	1.388	1	generate	Run1	generate/STIM_011.jpg
283.129	1.709	1	generate	Run1	generate/STIM_011.jpg
288.17	1.567	1	generate	Run1	generate/STIM_011.jpg
293.4	2.343	0	generate	Run1	generate/STIM_011.jpg
297.949	3.112	1	generate	Run1	generate/STIM_012.jpg
303.464	2.833	1	generate	Run1	generate/STIM_012.jpg
308.607	1.596	1	generate	Run1	generate/STIM_012.jpg
312.842	1.463	1	generate	Run1	generate/STIM_012.jpg
317.193	2.819	1	generate	Run1	generate/STIM_012.jpg
322.721	3.121	1	generate	Run1	generate/STIM_013.jpg
328.745	2.52	1	generate	Run1	generate/STIM_013.jpg
333.46	2.462	0	generate	Run1	generate/STIM_013.jpg
339.525	2.117	1	generate	Run1	generate/STIM_013.jpg
344.967	2.525	1	generate	Run1	generate/STIM_013.jpg
349.602	1.518	1	generate	Run1	generate/STIM_014.jpg
353.454	2.738	0	generate	Run1	generate/STIM_014.jpg
359.161	3.053	1	generate	Run1	generate/STIM_014.jpg
364.418	1.716	1	generate	Run1	generate/STIM_014.jpg
369.18	1.493	0	generate	Run1	generate/STIM_014.jpg
373.131	1.491	1	generate	Run1	generate/STIM_015.jpg
378.053	2.93	1	generate	Run1	generate/STIM_015.jpg
382.785	2.303	1	generate	Run1	generate/STIM_015.jpg
387.965	2.536	1	generate	Run1	generate/STIM_015.jpg
393.578	2.444	1	generate	Run1	generate/STIM_015.jpg
399.274	2.14	0	generate	Run1	generate/STIM_016.jpg
403.673	1.997	1	generate	Run1	generate/STIM_016.jpg
408.809	2.093	1	generate	Run1	generate/STIM_016.jpg
412.76	1.44	1	generate	Run1	generate/STIM_016.jpg
417.23	2.631	1	generate	Run1	generate/STIM_016.jpg
421.947	2.487	1	generate	Run1	generate/STIM_017.jpg
426.129	2.401	0	generate	Run1	generate/STIM_017.jpg
431.295	3.011	1	generate	Run1	generate/STIM_017.jpg
436.294	2.887	1	generate	Run1	generate/STIM_017.jpg
442.352	1.519	1	generate	Run1	generate/STIM_017.jpg
447.29	1.884	1	generate	Run1	generate/STIM_018.jpg
452.017	2.334	1	generate	Run1	generate/STIM_018.jpg
457.244	1.88	0	generate	Run1	generate/STIM_018.jpg
462.054	1.339	1	generate	Run1	generate/STIM_018.jpg
465.512	2.187	1	generate	Run1	generate/STIM_018.jpg
470.29	2.173	0	generate	Run1	generate/STIM_019.jpg
474.842	1.73	0	generate	Run1	generate/STIM_019.jpg
478.634	1.822	1	generate	Run1	generate/STIM_019.jpg
482.711	2.679	0	generate	Run1	generate/STIM_019.jpg
488.776	2.2	1	generate	Run1	generate/STIM_019.jpg
493.679	2.697	1	generate	Run1	generate/STIM_020.jpg
499.229	1.6	1	generate	Run1	generate/STIM_020.jpg
503.163	1.368	0	generate	Run1	generate/STIM_020.jpg
506.653	2.108	1	generate	Run1	generate/STIM_020.jpg
511.178	1.151	1	generate	Run1	generate/STIM_020.jpg
514.829	1.686	1	generate	Run1	generate/STIM_021.jpg
519.288	3.098	1	generate	Run1	generate/STIM_021.jpg
525.257	2.024	0	generate	Run1	generate/STIM_021.jpg
530.945	2.029	1	generate	Run1	generate/STIM_021.jpg
534.833	1.512	1	generate	Run1	generate/STIM_021.jpg
539.412	1.449	0	generate	Run1	generate/STIM_022.jpg
542.865	3.194	1	generate	Run1	generate/STIM_022.jpg
549.397	2.612	1	generate	Run1	generate/STIM_022.jpg
554.573	1.904	1	generate	Run1	generate/STIM_022.jpg
558.47	1.367	1	generate	Run1	generate/STIM_022.jpg
561.878	2.316	1	generate	Run1	generate/STIM_023.jpg
567.548	3.185	1	generate	Run1	generate/STIM_023.jpg
573.386	2.476	1	generate	Run1	generate/STIM_023.jpg
579.52	1.548	1	generate	Run1	generate/STIM_023.jpg
584.043	1.799	1	generate	Run1	generate/STIM_023.jpg
588.744	2.059	1	generate	Run1	generate/STIM_024.jpg
593.055	3.275	1	generate	Run1	generate/STIM_024.jpg
599.73	2.486	1	generate	Run1	generate/STIM_024.jpg
603.92	1.36	1	generate	Run1	generate/STIM_024.jpg
607.89	2.07	1	generate	Run1	generate/STIM_024.jpg
613.568	0.881	1	repeat	Run1	repeat/STIM_000.jpg
618.26	1.071	0	repeat	Run1	repeat/STIM_000.jpg
622.38	0.938	1	repeat	Run1	repeat/STIM_000.jpg
626.367	0.809	1	repeat	Run1	repeat/STIM_000.jpg
629.837	0.997	1	repeat	Run1	repeat/STIM_000.jpg
633.99	0.931	1	repeat	Run1	repeat/STIM_001.jpg
636.893	0.603	1	repeat	Run1	repeat/STIM_001.jpg
639.474	1.027	1	repeat	Run1	repeat/STIM_001.jpg
642.955	0.851	0	repeat	Run1	repeat/STIM_001.jpg
646.672	0.54	1	repeat	Run1	repeat/STIM_001.jpg
650.328	0.72	1	repeat	Run1	repeat/STIM_002.jpg
654.414	0.808	1	repeat	Run1	repeat/STIM_002.jpg
658.063	0.618	1	repeat	Run1	repeat/STIM_002.jpg
661.782	0.746	1	repeat	Run1	repeat/STIM_002.jpg
665.14	0.93	1	repeat	Run1	repeat/STIM_002.jpg
668.915	0.922	1	repeat	Run1	repeat/STIM_003.jpg
673.069	0.757	1	repeat	Run1	repeat/STIM_003.jpg
675.784	0.701	1	repeat	Run1	repeat/STIM_003.jpg
678.91	0.714	1	repeat	Run1	repeat/STIM_003.jpg
681.793	0.786	1	repeat	Run1	repeat/STIM_003.jpg
684.895	1.091	1	repeat	Run1	repeat/STIM_004.jpg
688.565	0.728	0	repeat	Run1	repeat/STIM_004.jpg
692.975	0.57	1	repeat	Run1	repeat/STIM_004.jpg
696.876	0.7	1	repeat	Run1	repeat/STIM_004.jpg
700.986	1.012	1	repeat	Run1	repeat/STIM_004.jpg
704.087	0.997	1	repeat	Run1	repeat/STIM_005.jpg
708.242	0.658	1	repeat	Run1	repeat/STIM_005.jpg
712.429	0.756	1	repeat	Run1	repeat/STIM_005.jpg
715.553	0.732	1	repeat	Run1	repeat/STIM_005.jpg
718.798	0.622	1	repeat	Run1	repeat/STIM_005.jpg
721.861	0.82	1	repeat	Run1	repeat/STIM_006.jpg
726.393	0.534	1	repeat	Run1	repeat/STIM_006.jpg
730.602	1.032	1	repeat	Run1	repeat/STIM_006.jpg
734.701	0.96	1	repeat	Run1	repeat/STIM_006.jpg
738.899	1.105	1	repeat	Run1	repeat/STIM_006.jpg
741.982	0.972	1	repeat	Run1	repeat/STIM_007.jpg
746.658	0.624	1	repeat	Run1	repeat/STIM_007.jpg
749.288	0.96	1	repeat	Run1	repeat/STIM_007.jpg
754.03	1.007	1	repeat	Run1	repeat/STIM_007.jpg
758.267	0.893	1	repeat	Run1	repeat/STIM_007.jpg
761.556	1.202	1	repeat	Run1	repeat/STIM_008.jpg
766.522	0.958	1	repeat	Run1	repeat/STIM_008.jpg
771.326	0.881	1	repeat	Run1	repeat/STIM_008.jpg
775.142	0.821	1	repeat	Run1	repeat/STIM_008.jpg
778.804	1.088	1	repeat	Run1	repeat/STIM_008.jpg
783.703	0.841	1	repeat	Run1	repeat/STIM_009.jpg
788.443	0.951	1	repeat	Run1	repeat/STIM_009.jpg
792.253	0.692	1	repeat	Run1	repeat/STIM_009.jpg
796.285	0.96	1	repeat	Run1	repeat/STIM_009.jpg
799.875	1.023	1	repeat	Run1	repeat/STIM_009.jpg
803.812	0.835	1	repeat	Run1	repeat/STIM_010.jpg
806.809	1.255	1	repeat	Run1	repeat/STIM_010.jpg
810.331	0.758	1	repeat	Run1	repeat/STIM_010.jpg
814.607	0.883	1	repeat	Run1	repeat/STIM_010.jpg
819.242	0.772	1	repeat	Run1	repeat/STIM_010.jpg
823.861	0.604	1	repeat	Run1	repeat/STIM_011.jpg
827.642	0.691	1	repeat	Run1	repeat/STIM_011.jpg
832.127	0.604	1	repeat	Run1	repeat/STIM_011.jpg
834.93	0.953	1	repeat	Run1	repeat/STIM_011.jpg
839.306	0.708	1	repeat	Run1	repeat/STIM_011.jpg
842.313	0.979	1	repeat	Run1	repeat/STIM_012.jpg
846.297	0.721	1	repeat	Run1	repeat/STIM_012.jpg
849.734	1.093	1	repeat	Run1	repeat/STIM_012.jpg
854.377	0.588	1	repeat	Run1	repeat/STIM_012.jpg
858.806	0.952	1	repeat	Run1	repeat/STIM_012.jpg
861.789	0.654	0	repeat	Run1	repeat/STIM_013.jpg
866.048	0.623	1	repeat	Run1	repeat/STIM_013.jpg
870.311	0.917	1	repeat	Run1	repeat/STIM_013.jpg
874.908	0.814	1	repeat	Run1	repeat/STIM_013.jpg
877.758	0.67	1	repeat	Run1	repeat/STIM_013.jpg
880.351	0.956	1	repeat	Run1	repeat/STIM_014.jpg
884.087	0.509	1	repeat	Run1	repeat/STIM_014.jpg
887.542	1.094	1	repeat	Run1	repeat/STIM_014.jpg
891.426	1.121	1	repeat	Run1	repeat/STIM_014.jpg
895.973	0.837	1	repeat	Run1	repeat/STIM_014.jpg
900.111	1.892	1	generate	Run2	generate/STIM_000.jpg
904.7	2.339	1	generate	Run2	generate/STIM_000.jpg
910.394	2.416	0	generate	Run2	generate/STIM_000.jpg
915.394	2.148	1	generate	Run2	generate/STIM_000.jpg
921.187	2.214	1	generate	Run2	generate/STIM_000.jpg
926.395	2.07	1	generate	Run2	generate/STIM_001.jpg
930.289	2.761	1	generate	Run2	generate/STIM_001.jpg
935.523	1.348	1	generate	Run2	generate/STIM_001.jpg
939.8	1.472	0	generate	Run2	generate/STIM_001.jpg
944.776	1.203	1	generate	Run2	generate/STIM_001.jpg
949.065	1.717	1	generate	Run2	generate/STIM_002.jpg
953.077	2.532	1	generate	Run2	generate/STIM_002.jpg
957.8	2.537	1	generate	Run2	generate/STIM_002.jpg
962.59	1.389	1	generate	Run2	generate/STIM_002.jpg
966.817	1.547	1	generate	Run2	generate/STIM_002.jpg
970.943	2.445	0	generate	Run2	generate/STIM_003.jpg
975.184	1.529	1	generate	Run2	generate/STIM_003.jpg
980.267	1.238	1	generate	Run2	generate/STIM_003.jpg
984.108	1.966	1	generate	Run2	generate/STIM_003.jpg
989.497	2.185	1	generate	Run2	generate/STIM_003.jpg
994.029	2.229	1	generate	Run2	generate/STIM_004.jpg
998.595	1.161	1	generate	Run2	generate/STIM_004.jpg
1002.039	1.413	0	generate	Run2	generate/STIM_004.jpg
1005.724	1.294	1	generate	Run2	generate/STIM_004.jpg
1010.279	1.111	1	generate	Run2	generate/STIM_004.jpg
1013.685	1.814	1	generate	Run2	generate/STIM_005.jpg
1017.599	1.194	1	generate	Run2	generate/STIM_005.jpg
1022.148	1.249	1	generate	Run2	generate/STIM_005.jpg
1025.24	2.054	0	generate	Run2	generate/STIM_005.jpg
1030.389	1.89	1	generate	Run2	generate/STIM_005.jpg
1035.012	2.159	0	generate	Run2	generate/STIM_006.jpg
1039.405	2.621	1	generate	Run2	generate/STIM_006.jpg
1044.941	2.418	1	generate	Run2	generate/STIM_006.jpg
1050.895	2.055	1	generate	Run2	generate/STIM_006.jpg
1055.536	1.459	0	generate	Run2	generate/STIM_006.jpg
1059.708	1.876	1	generate	Run2	generate/STIM_007.jpg
1065.247	1.587	1	generate	Run2	generate/STIM_007.jpg
1070.1	1.539	1	generate	Run2	generate/STIM_007.jpg
1074.164	1.765	1	generate	Run2	generate/STIM_007.jpg
1078.345	1.116	1	generate	Run2	generate/STIM_007.jpg
1082.038	1.884	1	generate	Run2	generate/STIM_008.jpg
1086.469	2.781	1	generate	Run2	generate/STIM_008.jpg
1092.214	1.732	0	generate	Run2	generate/STIM_008.jpg
1095.891	1.867	1	generate	Run2	generate/STIM_008.jpg
1100.252	1.148	1	generate	Run2	generate/STIM_008.jpg
1104.936	1.521	1	generate	Run2	generate/STIM_009.jpg
1109.183	2.342	1	generate	Run2	generate/STIM_009.jpg
1114.915	2.319	0	generate	Run2	generate/STIM_009.jpg
1120.902	1.265	1	generate	Run2	generate/STIM_009.jpg
1125.691	2.242	1	generate	Run2	generate/STIM_009.jpg
1130.002	2.762	1	generate	Run2	generate/STIM_010.jpg
1134.647	2.044	1	generate	Run2	generate/STIM_010.jpg
1138.923	2.423	1	generate	Run2	generate/STIM_010.jpg
1143.907	2.177	1	generate	Run2	generate/STIM_010.jpg
1148.282	1.594	1	generate	Run2	generate/STIM_010.jpg
1152.551	2.736	1	generate	Run2	generate/STIM_011.jpg
1158.108	2.41	1	generate	Run2	generate/STIM_011.jpg
1162.669	1.568	0	generate	Run2	generate/STIM_011.jpg
1167.709	2.126	1	generate	Run2	generate/STIM_011.jpg
1172.103	1.895	1	generate	Run2	generate/STIM_011.jpg
1177.831	2.764	1	generate	Run2	generate/STIM_012.jpg
1183.967	2.191	1	generate	Run2	generate/STIM_012.jpg
1188.532	2.143	1	generate	Run2	generate/STIM_012.jpg
1194.215	1.987	1	generate	Run2	generate/STIM_012.jpg
1198.913	1.473	1	generate	Run2	generate/STIM_012.jpg
1203.47	2.045	1	generate	Run2	generate/STIM_013.jpg
1207.423	1.169	1	generate	Run2	generate/STIM_013.jpg
1211.184	2.511	1	generate	Run2	generate/STIM_013.jpg
1216.061	1.262	1	generate	Run2	generate/STIM_013.jpg
1220.433	2.346	1	generate	Run2	generate/STIM_013.jpg
1225.562	1.4	1	generate	Run2	generate/STIM_014.jpg
1229.177	2.582	1	generate	Run2	generate/STIM_014.jpg
1235.334	1.877	1	generate	Run2	generate/STIM_014.jpg
1240.647	0.953	1	generate	Run2	generate/STIM_014.jpg
1244.637	1.413	1	generate	Run2	generate/STIM_014.jpg
1248.873	1.976	0	generate	Run2	generate/STIM_015.jpg
1253.014	2.694	1	generate	Run2	generate/STIM_015.jpg
1258.094	1.162	1	generate	Run2	generate/STIM_015.jpg
1261.184	1.114	1	generate	Run2	generate/STIM_015.jpg
1265.991	2.34	1	generate	Run2	generate/STIM_015.jpg
1270.74	2.765	1	generate	Run2	generate/STIM_016.jpg
1276.345	1.592	0	generate	Run2	generate/STIM_016.jpg
1280.466	1.61	1	generate	Run2	generate/STIM_016.jpg
1285.662	1.033	1	generate	Run2	generate/STIM_016.jpg
1288.681	1.413	1	generate	Run2	generate/STIM_016.jpg
1292.701	1.296	0	generate	Run2	generate/STIM_017.jpg
1296.441	1.823	0	generate	Run2	generate/STIM_017.jpg
1301.372	1.626	1	generate	Run2	generate/STIM_017.jpg
1306.636	2.015	1	generate	Run2	generate/STIM_017.jpg
1310.537	1.384	1	generate	Run2	generate/STIM_017.jpg
1314.905	1.698	0	generate	Run2	generate/STIM_018.jpg
1318.829	1.74	1	generate	Run2	generate/STIM_018.jpg
1324.045	1.677	0	generate	Run2	generate/STIM_018.jpg
1327.57	2.152	1	generate	Run2	generate/STIM_018.jpg
1331.832	2.394	1	generate	Run2	generate/STIM_018.jpg
1337.326	2.546	1	generate	Run2	generate/STIM_019.jpg
1342.853	1.105	1	generate	Run2	generate/STIM_019.jpg
1346.526	1.821	1	generate	Run2	generate/STIM_019.jpg
1350.483	1.254	1	generate	Run2	generate/STIM_019.jpg
1355.162	1.835	1	generate	Run2	generate/STIM_019.jpg
1359.819	1.092	0	generate	Run2	generate/STIM_020.jpg
1364.837	2.18	1	generate	Run2	generate/STIM_020.jpg
1369.787	2.264	0	generate	Run2	generate/STIM_020.jpg
1375.281	1.734	1	generate	Run2	generate/STIM_020.jpg
1379.432	1.018	1	generate	Run2	generate/STIM_020.jpg
1383.39	1.524	1	generate	Run2	generate/STIM_021.jpg
1388.031	2.624	1	generate	Run2	generate/STIM_021.jpg
1393.52	2.592	1	generate	Run2	generate/STIM_021.jpg
1399.156	1.658	1	generate	Run2	generate/STIM_021.jpg
1403.824	1.774	1	generate	Run2	generate/STIM_021.jpg
1408.344	1.746	1	generate	Run2	generate/STIM_022.jpg
1412.792	1.231	1	generate	Run2	generate/STIM_022.jpg
1416.236	2.156	1	generate	Run2	generate/STIM_022.jpg
1420.33	1.002	1	generate	Run2	generate/STIM_022.jpg
1424.746	1.279	0	generate	Run2	generate/STIM_022.jpg
1428.466	2.017	1	generate	Run2	generate/STIM_023.jpg
1433.46	1.433	1	generate	Run2	generate/STIM_023.jpg
1437.985	1.387	1	generate	Run2	generate/STIM_023.jpg
1442.191	1.33	1	generate	Run2	generate/STIM_023.jpg
1447.182	1.451	0	generate	Run2	generate/STIM_023.jpg
1450.515	2.624	1	generate	Run2	generate/STIM_024.jpg
1456.319	1.233	1	generate	Run2	generate/STIM_024.jpg
1460.329	1.174	1	generate	Run2	generate/STIM_024.jpg
1464.053	1.906	1	generate	Run2	generate/STIM_024.jpg
1467.977	1.138	0	generate	Run2	generate/STIM_024.jpg
1472.802	1.062	1	repeat	Run2	repeat/STIM_000.jpg
1477.483	1.074	1	repeat	Run2	repeat/STIM_000.jpg
1482.129	0.828	0	repeat	Run2	repeat/STIM_000.jpg
1486.597	0.856	1	repeat	Run2	repeat/STIM_000.jpg
1489.698	0.898	1	repeat	Run2	repeat/STIM_000.jpg
1492.922	0.957	1	repeat	Run2	repeat/STIM_001.jpg
1497.523	0.8	1	repeat	Run2	repeat/STIM_001.jpg
1500.219	0.861	1	repeat	Run2	repeat/STIM_001.jpg
1504.368	0.913	1	repeat	Run2	repeat/STIM_001.jpg
1507.762	1.04	1	repeat	Run2	repeat/STIM_001.jpg
1512.005	1.145	1	repeat	Run2	repeat/STIM_002.jpg
1516.604	0.671	1	repeat	Run2	repeat/STIM_002.jpg
1519.988	1.09	1	repeat	Run2	repeat/STIM_002.jpg
1523.934	0.768	1	repeat	Run2	repeat/STIM_002.jpg
1527.343	1.164	1	repeat	Run2	repeat/STIM_002.jpg
1531.061	1.011	0	repeat	Run2	repeat/STIM_003.jpg
1534.624	0.774	1	repeat	Run2	repeat/STIM_003.jpg
1539.01	1.098	1	repeat	Run2	repeat/STIM_003.jpg
1542.744	0.867	1	repeat	Run2	repeat/STIM_003.jpg
1545.592	0.569	1	repeat	Run2	repeat/STIM_003.jpg
1548.498	0.772	1	repeat	Run2	repeat/STIM_004.jpg
1552.278	0.7	1	repeat	Run2	repeat/STIM_004.jpg
1556.505	0.647	1	repeat	Run2	repeat/STIM_004.jpg
1559.809	0.648	1	repeat	Run2	repeat/STIM_004.jpg
1564.137	0.795	1	repeat	Run2	repeat/STIM_004.jpg
1567.381	0.835	1	repeat	Run2	repeat/STIM_005.jpg
1571.055	0.55	1	repeat	Run2	repeat/STIM_005.jpg
1575.183	1.092	1	repeat	Run2	repeat/STIM_005.jpg
1578.818	0.669	1	repeat	Run2	repeat/STIM_005.jpg
1582.468	0.645	1	repeat	Run2	repeat/STIM_005.jpg
1586.408	1.132	1	repeat	Run2	repeat/STIM_006.jpg
1590.066	0.622	1	repeat	Run2	repeat/STIM_006.jpg
1593.636	0.747	1	repeat	Run2	repeat/STIM_006.jpg
1596.458	1.097	1	repeat	Run2	repeat/STIM_006.jpg
1600.018	1.104	1	repeat	Run2	repeat/STIM_006.jpg
1603.573	0.582	1	repeat	Run2	repeat/STIM_007.jpg
1606.121	1.106	1	repeat	Run2	repeat/STIM_007.jpg
1610.913	0.605	1	repeat	Run2	repeat/STIM_007.jpg
1614.467	0.918	1	repeat	Run2	repeat/STIM_007.jpg
1617.744	0.653	0	repeat	Run2	repeat/STIM_007.jpg
1621.225	0.973	1	repeat	Run2	repeat/STIM_008.jpg
1624.399	1.079	1	repeat	Run2	repeat/STIM_008.jpg
1628.735	1.004	1	repeat	Run2	repeat/STIM_008.jpg
1632.139	0.873	1	repeat	Run2	repeat/STIM_008.jpg
1636.62	0.836	1	repeat	Run2	repeat/STIM_008.jpg
1640.166	0.849	1	repeat	Run2	repeat/STIM_009.jpg
1644.761	0.713	1	repeat	Run2	repeat/STIM_009.jpg
1648.72	1.131	1	repeat	Run2	repeat/STIM_009.jpg
1653.162	0.775	1	repeat	Run2	repeat/STIM_009.jpg
1656.207	0.815	1	repeat	Run2	repeat/STIM_009.jpg
1660.61	1.02	1	repeat	Run2	repeat/STIM_010.jpg
1663.934	0.619	1	repeat	Run2	repeat/STIM_010.jpg
1667.902	0.739	1	repeat	Run2	repeat/STIM_010.jpg
1671.093	0.994	1	repeat	Run2	repeat/STIM_010.jpg
1675.004	1.212	1	repeat	Run2	repeat/STIM_010.jpg
1678.417	0.944	1	repeat	Run2	repeat/STIM_011.jpg
1682.85	0.702	1	repeat	Run2	repeat/STIM_011.jpg
1686.604	0.808	1	repeat	Run2	repeat/STIM_011.jpg
1691.236	0.822	1	repeat	Run2	repeat/STIM_011.jpg
1695.916	0.912	1	repeat	Run2	repeat/STIM_011.jpg
1699.813	1.081	1	repeat	Run2	repeat/STIM_012.jpg
1703.439	0.981	1	repeat	Run2	repeat/STIM_012.jpg
1707.683	0.939	1	repeat	Run2	repeat/STIM_012.jpg
1710.534	0.966	1	repeat	Run2	repeat/STIM_012.jpg
1715.144	0.9	1	repeat	Run2	repeat/STIM_012.jpg
1718.783	0.805	1	repeat	Run2	repeat/STIM_013.jpg
1721.739	0.783	1	repeat	Run2	repeat/STIM_013.jpg
1725.713	0.971	1	repeat	Run2	repeat/STIM_013.jpg
1730.19	1.117	1	repeat	Run2	repeat/STIM_013.jpg
1733.507	1.167	1	repeat	Run2	repeat/STIM_013.jpg
1737.485	0.796	1	repeat	Run2	repeat/STIM_014.jpg
1741.423	0.819	1	repeat	Run2	repeat/STIM_014.jpg
1745.627	1.032	1	repeat	Run2	repeat/STIM_014.jpg
1749.64	0.972	1	repeat	Run2	repeat/STIM_014.jpg
1753.298	1.016	1	repeat	Run2	repeat/STIM_014.jpg
1757.808	2.123	1	generate	Run3	generate/STIM_000.jpg
1762.273	2.43	1	generate	Run3	generate/STIM_000.jpg
1768.08	1.082	1	generate	Run3	generate/STIM_000.jpg
1772.519	1.696	1	generate	Run3	generate/STIM_000.jpg
1776.206	0.965	1	generate	Run3	generate/STIM_000.jpg
1779.273	2.176	1	generate	Run3	generate/STIM_001.jpg
1784.417	1.817	1	generate	Run3	generate/STIM_001.jpg
1789.283	1.601	1	generate	Run3	generate/STIM_001.jpg
1792.946	2.143	1	generate	Run3	generate/STIM_001.jpg
1797.368	1.232	1	generate	Run3	generate/STIM_001.jpg
1800.683	1.626	1	generate	Run3	generate/STIM_002.jpg
1805.342	1.806	1	generate	Run3	generate/STIM_002.jpg
1808.978	2.367	0	generate	Run3	generate/STIM_002.jpg
1813.904	1.744	1	generate	Run3	generate/STIM_002.jpg
1818.004	2.285	1	generate	Run3	generate/STIM_002.jpg
1823.212	2.289	1	generate	Run3	generate/STIM_003.jpg
1827.482	2.05	1	generate	Run3	generate/STIM_003.jpg
1831.382	1.371	1	generate	Run3	generate/STIM_003.jpg
1835.286	2.302	1	generate	Run3	generate/STIM_003.jpg
1840.452	1.996	1	generate	Run3	generate/STIM_003.jpg
1844.471	1.701	1	generate	Run3	generate/STIM_004.jpg
1848.091	1.817	1	generate	Run3	generate/STIM_004.jpg
1853.015	1.222	1	generate	Run3	generate/STIM_004.jpg
1856.2	1.406	1	generate	Run3	generate/STIM_004.jpg
1861.065	1.734	0	generate	Run3	generate/STIM_004.jpg
1864.977	1.141	1	generate	Run3	generate/STIM_005.jpg
1868.729	2.374	1	generate	Run3	generate/STIM_005.jpg
1874.46	1.696	1	generate	Run3	generate/STIM_005.jpg
1879.357	1.468	1	generate	Run3	generate/STIM_005.jpg
1882.807	1.938	1	generate	Run3	generate/STIM_005.jpg
1887.522	1.176	1	generate	Run3	generate/STIM_006.jpg
1891.871	1.72	1	generate	Run3	generate/STIM_006.jpg
1896.944	2.008	0	generate	Run3	generate/STIM_006.jpg
1901.946	2.373	1	generate	Run3	generate/STIM_006.jpg
1906.525	1.933	1	generate	Run3	generate/STIM_006.jpg
1911.003	1.622	1	generate	Run3	generate/STIM_007.jpg
1915.803	1.129	1	generate	Run3	generate/STIM_007.jpg
1919.915	2.35	1	generate	Run3	generate/STIM_007.jpg
1925.743	1.65	1	generate	Run3	generate/STIM_007.jpg
1930.647	2.323	1	generate	Run3	generate/STIM_007.jpg
1935.735	1.741	1	generate	Run3	generate/STIM_008.jpg
1941.203	1.482	1	generate	Run3	generate/STIM_008.jpg
1945.437	1.443	1	generate	Run3	generate/STIM_008.jpg
1949.206	1.769	1	generate	Run3	generate/STIM_008.jpg
1954.094	1.951	1	generate	Run3	generate/STIM_008.jpg
1959.619	1.712	1	generate	Run3	generate/STIM_009.jpg
1963.357	1.518	1	generate	Run3	generate/STIM_009.jpg
1967.601	2.095	1	generate	Run3	generate/STIM_009.jpg
1973.231	1.836	1	generate	Run3	generate/STIM_009.jpg
1977.496	0.966	1	generate	Run3	generate/STIM_009.jpg
1980.596	1.86	1	generate	Run3	generate/STIM_010.jpg
1985.269	1.675	1	generate	Run3	generate/STIM_010.jpg
1990.204	1.658	1	generate	Run3	generate/STIM_010.jpg
1993.716	2.343	1	generate	Run3	generate/STIM_010.jpg
1999.432	2.227	1	generate	Run3	generate/STIM_010.jpg
2003.638	1.227	1	generate	Run3	generate/STIM_011.jpg
2007.896	1.838	1	generate	Run3	generate/STIM_011.jpg
2012.971	1.978	1	generate	Run3	generate/STIM_011.jpg
2016.728	0.972	1	generate	Run3	generate/STIM_011.jpg
2021.563	1.173	1	generate	Run3	generate/STIM_011.jpg
2025.113	1.434	1	generate	Run3	generate/STIM_012.jpg
2030.173	2.119	1	generate	Run3	generate/STIM_012.jpg
2034.132	2.159	1	generate	Run3	generate/STIM_012.jpg
2038.074	1.031	1	generate	Run3	generate/STIM_012.jpg
2042.556	2.406	1	generate	Run3	generate/STIM_012.jpg
2047.002	1.769	1	generate	Run3	generate/STIM_013.jpg
2051.224	1.018	1	generate	Run3	generate/STIM_013.jpg
2054.716	2.28	1	generate	Run3	generate/STIM_013.jpg
2060.132	2.215	1	generate	Run3	generate/STIM_013.jpg
2065.757	1.484	1	generate	Run3	generate/STIM_013.jpg
2070.5	2.206	1	generate	Run3	generate/STIM_014.jpg
2074.68	1.377	1	generate	Run3	generate/STIM_014.jpg
2078.793	1.262	1	generate	Run3	generate/STIM_014.jpg
2082.609	2.167	1	generate	Run3	generate/STIM_014.jpg
2087.95	1.734	1	generate	Run3	generate/STIM_014.jpg
2091.874	2.398	1	generate	Run3	generate/STIM_015.jpg
2096.27	0.97	1	generate	Run3	generate/STIM_015.jpg
2101.084	2.333	1	generate	Run3	generate/STIM_015.jpg
2107.093	1.856	1	generate	Run3	generate/STIM_015.jpg
2111.86	1.171	1	generate	Run3	generate/STIM_015.jpg
2116.702	1.903	1	generate	Run3	generate/STIM_016.jpg
2120.444	2.174	1	generate	Run3	generate/STIM_016.jpg
2125.242	1.805	1	generate	Run3	generate/STIM_016.jpg
2129.499	1.474	1	generate	Run3	generate/STIM_016.jpg
2134.758	1.125	0	generate	Run3	generate/STIM_016.jpg
2138.867	2.444	1	generate	Run3	generate/STIM_017.jpg
2143.983	2.442	1	generate	Run3	generate/STIM_017.jpg
2148.846	2.18	1	generate	Run3	generate/STIM_017.jpg
2153.287	1.71	1	generate	Run3	generate/STIM_017.jpg
2157.402	1.18	1	generate	Run3	generate/STIM_017.jpg
2162.381	1.815	1	generate	Run3	generate/STIM_018.jpg
2167.834	2.442	1	generate	Run3	generate/STIM_018.jpg
2172.749	1.29	1	generate	Run3	generate/STIM_018.jpg
2176.763	1.695	1	generate	Run3	generate/STIM_018.jpg
2181.265	1.966	1	generate	Run3	generate/STIM_018.jpg
2185.642	2.211	1	generate	Run3	generate/STIM_019.jpg
2189.951	1.493	1	generate	Run3	generate/STIM_019.jpg
2194.458	2.143	1	generate	Run3	generate/STIM_019.jpg
2198.999	1.415	1	generate	Run3	generate/STIM_019.jpg
2203.527	1.582	1	generate	Run3	generate/STIM_019.jpg
2208.764	2.114	1	generate	Run3	generate/STIM_020.jpg
2213.055	1.496	1	generate	Run3	generate/STIM_020.jpg
2216.491	1.39	1	generate	Run3	generate/STIM_020.jpg
2221.373	1.157	1	generate	Run3	generate/STIM_020.jpg
2224.511	1.87	1	generate	Run3	generate/STIM_020.jpg
2228.416	2.276	1	generate	Run3	generate/STIM_021.jpg
2234.254	1.755	1	generate	Run3	generate/STIM_021.jpg
2238.701	1.366	1	generate	Run3	generate/STIM_021.jpg
2242.325	1.576	1	generate	Run3	generate/STIM_021.jpg
2247.257	2.106	1	generate	Run3	generate/STIM_021.jpg
2252.763	1.506	1	generate	Run3	generate/STIM_022.jpg
2256.945	1.901	0	generate	Run3	generate/STIM_022.jpg
2260.934	1.354	1	generate	Run3	generate/STIM_022.jpg
2264.611	2.174	1	generate	Run3	generate/STIM_022.jpg
2269.375	1.506	1	generate	Run3	generate/STIM_022.jpg
2274.615	1.644	1	generate	Run3	generate/STIM_023.jpg
2278.289	1.904	1	generate	Run3	generate/STIM_023.jpg
2283.533	1.359	1	generate	Run3	generate/STIM_023.jpg
2287.235	2.06	1	generate	Run3	generate/STIM_023.jpg
2291.674	2.259	1	generate	Run3	generate/STIM_023.jpg
2297.498	1.907	1	generate	Run3	generate/STIM_024.jpg
2302.505	2.037	1	generate	Run3	generate/STIM_024.jpg
2306.576	1.698	1	generate	Run3	generate/STIM_024.jpg
2310.098	1.318	1	generate	Run3	generate/STIM_024.jpg
2315.153	1.926	1	generate	Run3	generate/STIM_024.jpg
2320.709	1.158	1	repeat	Run3	repeat/STIM_000.jpg
2324.006	0.893	1	repeat	Run3	repeat/STIM_000.jpg
2328.313	0.892	1	repeat	Run3	repeat/STIM_000.jpg
2332.84	0.818	1	repeat	Run3	repeat/STIM_000.jpg
2335.646	0.748	1	repeat	Run3	repeat/STIM_000.jpg
2338.635	1.004	1	repeat	Run3	repeat/STIM_001.jpg
2342.333	0.748	1	repeat	Run3	repeat/STIM_001.jpg
2346.201	0.705	1	repeat	Run3	repeat/STIM_001.jpg
2349.31	0.646	1	repeat	Run3	repeat/STIM_001.jpg
2353.099	1.036	1	repeat	Run3	repeat/STIM_001.jpg
2357.471	0.938	1	repeat	Run3	repeat/STIM_002.jpg
2362.104	1.05	1	repeat	Run3	repeat/STIM_002.jpg
2365.981	0.537	1	repeat	Run3	repeat/STIM_002.jpg
2370.517	0.87	1	repeat	Run3	repeat/STIM_002.jpg
2374.332	0.664	1	repeat	Run3	repeat/STIM_002.jpg
2378.355	1.151	1	repeat	Run3	repeat/STIM_003.jpg
2382.383	1.06	1	repeat	Run3	repeat/STIM_003.jpg
2386.153	0.729	1	repeat	Run3	repeat/STIM_003.jpg
2389.542	0.994	1	repeat	Run3	repeat/STIM_003.jpg
2394.042	0.765	1	repeat	Run3	repeat/STIM_003.jpg
2398.049	0.599	1	repeat	Run3	repeat/STIM_004.jpg
2402.447	0.679	1	repeat	Run3	repeat/STIM_004.jpg
2406.696	0.934	1	repeat	Run3	repeat/STIM_004.jpg
2409.797	0.548	1	repeat	Run3	repeat/STIM_004.jpg
2414.329	0.851	1	repeat	Run3	repeat/STIM_004.jpg
2418.46	1.037	1	repeat	Run3	repeat/STIM_005.jpg
2422.298	0.725	1	repeat	Run3	repeat/STIM_005.jpg
2425.342	1.148	1	repeat	Run3	repeat/STIM_005.jpg
2428.615	0.6	1	repeat	Run3	repeat/STIM_005.jpg
2432.985	0.866	1	repeat	Run3	repeat/STIM_005.jpg
2436.779	1.103	1	repeat	Run3	repeat/STIM_006.jpg
2440.455	1.083	1	repeat	Run3	repeat/STIM_006.jpg
2443.467	0.974	1	repeat	Run3	repeat/STIM_006.jpg
2446.774	0.743	1	repeat	Run3	repeat/STIM_006.jpg
2450.863	0.956	1	repeat	Run3	repeat/STIM_006.jpg
2453.996	0.706	1	repeat	Run3	repeat/STIM_007.jpg
2458.15	1.156	1	repeat	Run3	repeat/STIM_007.jpg
2462.04	0.675	1	repeat	Run3	repeat/STIM_007.jpg
2465.328	0.994	1	repeat	Run3	repeat/STIM_007.jpg
2468.635	1.117	1	repeat	Run3	repeat/STIM_007.jpg
2473.268	0.945	1	repeat	Run3	repeat/STIM_008.jpg
2477.505	0.66	1	repeat	Run3	repeat/STIM_008.jpg
2480.926	0.764	1	repeat	Run3	repeat/STIM_008.jpg
2483.769	0.716	1	repeat	Run3	repeat/STIM_008.jpg
2487.527	1.008	1	repeat	Run3	repeat/STIM_008.jpg
2490.525	1.005	1	repeat	Run3	repeat/STIM_009.jpg
2494.948	0.68	1	repeat	Run3	repeat/STIM_009.jpg
2499.265	0.984	1	repeat	Run3	repeat/STIM_009.jpg
2503.457	1.135	1	repeat	Run3	repeat/STIM_009.jpg
2507.218	0.72	1	repeat	Run3	repeat/STIM_009.jpg
2511.062	0.994	0	repeat	Run3	repeat/STIM_010.jpg
2514.262	0.601	1	repeat	Run3	repeat/STIM_010.jpg
2517.317	0.919	1	repeat	Run3	repeat/STIM_010.jpg
2521.699	0.632	1	repeat	Run3	repeat/STIM_010.jpg
2524.358	0.807	1	repeat	Run3	repeat/STIM_010.jpg
2528.645	1.123	1	repeat	Run3	repeat/STIM_011.jpg
2532.057	1.084	1	repeat	Run3	repeat/STIM_011.jpg
2536.992	0.698	1	repeat	Run3	repeat/STIM_011.jpg
2540.36	0.982	1	repeat	Run3	repeat/STIM_011.jpg
2544.293	0.888	1	repeat	Run3	repeat/STIM_011.jpg
2547.86	0.599	1	repeat	Run3	repeat/STIM_012.jpg
2552.037	0.944	1	repeat	Run3	repeat/STIM_012.jpg
2555.767	0.702	1	repeat	Run3	repeat/STIM_012.jpg
2558.961	0.762	1	repeat	Run3	repeat/STIM_012.jpg
2563.419	0.698	1	repeat	Run3	repeat/STIM_012.jpg
2566.728	0.605	1	repeat	Run3	repeat/STIM_013.jpg
2570.355	0.879	1	repeat	Run3	repeat/STIM_013.jpg
2573.182	1.071	1	repeat	Run3	repeat/STIM_013.jpg
2577.848	0.992	1	repeat	Run3	repeat/STIM_013.jpg
2581.651	1.085	1	repeat	Run3	repeat/STIM_013.jpg
2584.997	0.62	1	repeat	Run3	repeat/STIM_014.jpg
2588.45	0.673	1	repeat	Run3	repeat/STIM_014.jpg
2591.215	1.047	1	repeat	Run3	repeat/STIM_014.jpg
2595.658	1.1	1	repeat	Run3	repeat/STIM_014.jpg
2600.551	1.133	1	repeat	Run3	repeat/STIM_014.jpg
2604.081	1.451	1	generate	Run4	generate/STIM_000.jpg
2608.868	2.13	1	generate	Run4	generate/STIM_000.jpg
2613.952	2.025	1	generate	Run4	generate/STIM_000.jpg
2618.302	1.963	1	generate	Run4	generate/STIM_000.jpg
2623.456	1.593	1	generate	Run4	generate/STIM_000.jpg
2628.641	1.858	1	generate	Run4	generate/STIM_001.jpg
2634.089	1.356	1	generate	Run4	generate/STIM_001.jpg
2637.769	2.074	1	generate	Run4	generate/STIM_001.jpg
2643.543	1.572	1	generate	Run4	generate/STIM_001.jpg
2648.009	1.481	1	generate	Run4	generate/STIM_001.jpg
2651.873	1.484	1	generate	Run4	generate/STIM_002.jpg
2655.467	1.558	1	generate	Run4	generate/STIM_002.jpg
2658.943	2.411	1	generate	Run4	generate/STIM_002.jpg
2663.037	1.51	1	generate	Run4	generate/STIM_002.jpg
2666.556	1.632	1	generate	Run4	generate/STIM_002.jpg
2670.179	1.274	1	generate	Run4	generate/STIM_003.jpg
2674.365	1.74	1	generate	Run4	generate/STIM_003.jpg
2678.591	1.225	1	generate	Run4	generate/STIM_003.jpg
2683.595	1.857	1	generate	Run4	generate/STIM_003.jpg
2688.839	1.869	1	generate	Run4	generate/STIM_003.jpg
2693.636	1.24	1	generate	Run4	generate/STIM_004.jpg
2698.303	1.584	1	generate	Run4	generate/STIM_004.jpg
2703.031	2.234	1	generate	Run4	generate/STIM_004.jpg
2708.648	1.581	1	generate	Run4	generate/STIM_004.jpg
2712.659	1.225	1	generate	Run4	generate/STIM_004.jpg
2717.153	2.287	1	generate	Run4	generate/STIM_005.jpg
2721.863	1.637	1	generate	Run4	generate/STIM_005.jpg
2726.592	1.681	1	generate	Run4	generate/STIM_005.jpg
2730.232	1.256	1	generate	Run4	generate/STIM_005.jpg
2734.755	1.56	1	generate	Run4	generate/STIM_005.jpg
2739.331	2.359	1	generate	Run4	generate/STIM_006.jpg
2743.628	1.59	1	generate	Run4	generate/STIM_006.jpg
2747.112	2.334	1	generate	Run4	generate/STIM_006.jpg
2752.318	1.971	1	generate	Run4	generate/STIM_006.jpg
2757.141	2.136	1	generate	Run4	generate/STIM_006.jpg
2762.352	1.428	0	generate	Run4	generate/STIM_007.jpg
2766.563	2.022	1	generate	Run4	generate/STIM_007.jpg
2771.022	1.566	1	generate	Run4	generate/STIM_007.jpg
2776.256	1.745	1	generate	Run4	generate/STIM_007.jpg
2780.347	2.357	1	generate	Run4	generate/STIM_007.jpg
2785.342	1.156	1	generate	Run4	generate/STIM_008.jpg
2789.057	1.847	1	generate	Run4	generate/STIM_008.jpg
2792.714	1.919	1	generate	Run4	generate/STIM_008.jpg
2797.726	1.486	1	generate	Run4	generate/STIM_008.jpg
2801.329	1.004	1	generate	Run4	generate/STIM_008.jpg
2805.854	1.334	1	generate	Run4	generate/STIM_009.jpg
2809.708	2.303	1	generate	Run4	generate/STIM_009.jpg
2814.373	2.052	1	generate	Run4	generate/STIM_009.jpg
2818.5	2.049	1	generate	Run4	generate/STIM_009.jpg
2822.952	2.035	1	generate	Run4	generate/STIM_009.jpg
2827.954	1.503	1	generate	Run4	generate/STIM_010.jpg
2833.17	2.188	1	generate	Run4	generate/STIM_010.jpg
2838.144	1.002	1	generate	Run4	generate/STIM_010.jpg
2842.42	1.114	1	generate	Run4	generate/STIM_010.jpg
2846.415	1.822	0	generate	Run4	generate/STIM_010.jpg
2850.214	2.256	1	generate	Run4	generate/STIM_011.jpg
2855.074	1.48	1	generate	Run4	generate/STIM_011.jpg
2859.727	1.251	1	generate	Run4	generate/STIM_011.jpg
2863.467	1.454	1	generate	Run4	generate/STIM_011.jpg
2867.611	1.342	1	generate	Run4	generate/STIM_011.jpg
2872.495	2.39	1	generate	Run4	generate/STIM_012.jpg
2876.542	1.333	1	generate	Run4	generate/STIM_012.jpg
2881.619	1.246	1	generate	Run4	generate/STIM_012.jpg
2886.382	1.341	1	generate	Run4	generate/STIM_012.jpg
2890.636	1.748	1	generate	Run4	generate/STIM_012.jpg
2894.94	2.182	1	generate	Run4	generate/STIM_013.jpg
2900.303	1.088	1	generate	Run4	generate/STIM_013.jpg
2904.027	1.68	1	generate	Run4	generate/STIM_013.jpg
2908.577	1.093	1	generate	Run4	generate/STIM_013.jpg
2912.646	1.297	1	generate	Run4	generate/STIM_013.jpg
2916.427	1.641	1	generate	Run4	generate/STIM_014.jpg
2919.982	1.438	1	generate	Run4	generate/STIM_014.jpg
2923.548	2.363	1	generate	Run4	generate/STIM_014.jpg
2928.56	1.876	1	generate	Run4	generate/STIM_014.jpg
2932.861	2.276	1	generate	Run4	generate/STIM_014.jpg
2937.798	1.088	1	generate	Run4	generate/STIM_015.jpg
2941.59	1.339	1	generate	Run4	generate/STIM_015.jpg
2946.0	1.045	1	generate	Run4	generate/STIM_015.jpg
2950.428	2.056	1	generate	Run4	generate/STIM_015.jpg
2954.769	2.115	1	generate	Run4	generate/STIM_015.jpg
2959.073	1.679	1	generate	Run4	generate/STIM_016.jpg
2962.979	2.288	1	generate	Run4	generate/STIM_016.jpg
2967.672	2.082	1	generate	Run4	generate/STIM_016.jpg
2971.927	1.998	0	generate	Run4	generate/STIM_016.jpg
2977.181	2.256	1	generate	Run4	generate/STIM_016.jpg
2982.64	1.678	1	generate	Run4	generate/STIM_017.jpg
2987.816	1.814	1	generate	Run4	generate/STIM_017.jpg
2991.567	2.068	1	generate	Run4	generate/STIM_017.jpg
2996.053	1.469	1	generate	Run4	generate/STIM_017.jpg
2999.962	1.188	1	generate	Run4	generate/STIM_017.jpg
3004.259	1.086	1	generate	Run4	generate/STIM_018.jpg
3007.846	1.419	1	generate	Run4	generate/STIM_018.jpg
3013.01	1.97	1	generate	Run4	generate/STIM_018.jpg
3017.73	1.085	1	generate	Run4	generate/STIM_018.jpg
3022.142	1.085	1	generate	Run4	generate/STIM_018.jpg
3025.874	0.934	1	generate	Run4	generate/STIM_019.jpg
3030.042	2.316	1	generate	Run4	generate/STIM_019.jpg
3034.16	2.068	1	generate	Run4	generate/STIM_019.jpg
3038.135	1.949	1	generate	Run4	generate/STIM_019.jpg
3042.496	1.731	1	generate	Run4	generate/STIM_019.jpg
3047.359	2.136	0	generate	Run4	generate/STIM_020.jpg
3052.988	1.681	0	generate	Run4	generate/STIM_020.jpg
3057.742	1.495	1	generate	Run4	generate/STIM_020.jpg
3062.664	2.196	1	generate	Run4	generate/STIM_020.jpg
3067.029	1.78	1	generate	Run4	generate/STIM_020.jpg
3070.94	1.892	1	generate	Run4	generate/STIM_021.jpg
3075.23	1.281	1	generate	Run4	generate/STIM_021.jpg
3079.918	1.58	1	generate	Run4	generate/STIM_021.jpg
3084.078	0.978	1	generate	Run4	generate/STIM_021.jpg
3088.604	1.696	1	generate	Run4	generate/STIM_021.jpg
3092.934	2.395	1	generate	Run4	generate/STIM_022.jpg
3098.484	1.39	1	generate	Run4	generate/STIM_022.jpg
3103.302	2.115	1	generate	Run4	generate/STIM_022.jpg
3109.112	1.984	1	generate	Run4	generate/STIM_022.jpg
3113.535	1.797	1	generate	Run4	generate/STIM_022.jpg
3117.276	2.034	1	generate	Run4	generate/STIM_023.jpg
3121.727	1.897	1	generate	Run4	generate/STIM_023.jpg
3127.01	1.442	1	generate	Run4	generate/STIM_023.jpg
3131.251	1.108	1	generate	Run4	generate/STIM_023.jpg
3135.783	1.042	1	generate	Run4	generate/STIM_023.jpg
3138.962	2.238	1	generate	Run4	generate/STIM_024.jpg
3144.859	2.159	0	generate	Run4	generate/STIM_024.jpg
3149.698	2.102	1	generate	Run4	generate/STIM_024.jpg
3154.68	1.566	1	generate	Run4	generate/STIM_024.jpg
3158.73	1.212	1	generate	Run4	generate/STIM_024.jpg
3163.807	1.066	1	repeat	Run4	repeat/STIM_000.jpg
3168.295	1.112	1	repeat	Run4	repeat/STIM_000.jpg
3173.168	0.596	1	repeat	Run4	repeat/STIM_000.jpg
3175.928	0.582	1	repeat	Run4	repeat/STIM_000.jpg
3178.617	0.694	1	repeat	Run4	repeat/STIM_000.jpg
3182.029	0.639	1	repeat	Run4	repeat/STIM_001.jpg
3185.412	0.778	1	repeat	Run4	repeat/STIM_001.jpg
3189.517	0.943	1	repeat	Run4	repeat/STIM_001.jpg
3194.042	0.879	1	repeat	Run4	repeat/STIM_001.jpg
3197.316	1.103	1	repeat	Run4	repeat/STIM_001.jpg
3201.031	0.585	1	repeat	Run4	repeat/STIM_002.jpg
3205.083	1.038	1	repeat	Run4	repeat/STIM_002.jpg
3208.806	0.639	1	repeat	Run4	repeat/STIM_002.jpg
3213.019	0.603	1	repeat	Run4	repeat/STIM_002.jpg
3216.704	1.062	1	repeat	Run4	repeat/STIM_002.jpg
3220.389	1.107	1	repeat	Run4	repeat/STIM_003.jpg
3223.925	1.167	1	repeat	Run4	repeat/STIM_003.jpg
3228.153	1.148	1	repeat	Run4	repeat/STIM_003.jpg
3232.241	0.891	0	repeat	Run4	repeat/STIM_003.jpg
3236.552	0.833	1	repeat	Run4	repeat/STIM_003.jpg
3241.05	1.052	1	repeat	Run4	repeat/STIM_004.jpg
3245.803	0.918	1	repeat	Run4	repeat/STIM_004.jpg
3249.361	0.864	1	repeat	Run4	repeat/STIM_004.jpg
3253.633	0.896	1	repeat	Run4	repeat/STIM_004.jpg
3257.658	0.9	1	repeat	Run4	repeat/STIM_004.jpg
3261.696	1.07	1	repeat	Run4	repeat/STIM_005.jpg
3265.939	0.911	1	repeat	Run4	repeat/STIM_005.jpg
3270.016	0.835	1	repeat	Run4	repeat/STIM_005.jpg
3272.896	0.643	1	repeat	Run4	repeat/STIM_005.jpg
3277.25	0.787	1	repeat	Run4	repeat/STIM_005.jpg
3280.014	0.996	1	repeat	Run4	repeat/STIM_006.jpg
3284.841	0.96	1	repeat	Run4	repeat/STIM_006.jpg
3289.503	0.643	1	repeat	Run4	repeat/STIM_006.jpg
3292.125	0.75	1	repeat	Run4	repeat/STIM_006.jpg
3296.494	0.66	1	repeat	Run4	repeat/STIM_006.jpg
3300.129	0.576	0	repeat	Run4	repeat/STIM_007.jpg
3304.43	0.947	1	repeat	Run4	repeat/STIM_007.jpg
3308.63	0.759	1	repeat	Run4	repeat/STIM_007.jpg
3311.801	0.636	1	repeat	Run4	repeat/STIM_007.jpg
3315.299	0.689	1	repeat	Run4	repeat/STIM_007.jpg
3319.817	1.052	1	repeat	Run4	repeat/STIM_008.jpg
3324.514	0.661	1	repeat	Run4	repeat/STIM_008.jpg
3327.447	1.171	1	repeat	Run4	repeat/STIM_008.jpg
3330.887	1.071	1	repeat	Run4	repeat/STIM_008.jpg
3335.76	0.885	1	repeat	Run4	repeat/STIM_008.jpg
3339.429	0.806	1	repeat	Run4	repeat/STIM_009.jpg
3343.742	0.975	1	repeat	Run4	repeat/STIM_009.jpg
3347.95	0.647	1	repeat	Run4	repeat/STIM_009.jpg
3351.737	0.851	1	repeat	Run4	repeat/STIM_009.jpg
3355.273	1.022	1	repeat	Run4	repeat/STIM_009.jpg
3359.568	0.927	1	repeat	Run4	repeat/STIM_010.jpg
3363.19	0.674	1	repeat	Run4	repeat/STIM_010.jpg
3366.094	0.874	1	repeat	Run4	repeat/STIM_010.jpg
3370.057	0.788	1	repeat	Run4	repeat/STIM_010.jpg
3374.024	1.022	1	repeat	Run4	repeat/STIM_010.jpg
3377.904	1.197	1	repeat	Run4	repeat/STIM_011.jpg
3382.111	0.876	1	repeat	Run4	repeat/STIM_011.jpg
3386.211	0.699	1	repeat	Run4	repeat/STIM_011.jpg
3389.034	0.831	1	repeat	Run4	repeat/STIM_011.jpg
3392.315	0.524	1	repeat	Run4	repeat/STIM_011.jpg
3396.329	0.963	1	repeat	Run4	repeat/STIM_012.jpg
3400.308	1.093	1	repeat	Run4	repeat/STIM_012.jpg
3404.223	0.737	1	repeat	Run4	repeat/STIM_012.jpg
3408.464	0.764	1	repeat	Run4	repeat/STIM_012.jpg
3412.582	0.621	1	repeat	Run4	repeat/STIM_012.jpg
3416.301	1.044	1	repeat	Run4	repeat/STIM_013.jpg
3420.526	0.611	1	repeat	Run4	repeat/STIM_013.jpg
3423.347	0.724	1	repeat	Run4	repeat/STIM_013.jpg
3427.196	1.098	1	repeat	Run4	repeat/STIM_013.jpg
3430.648	0.854	1	repeat	Run4	repeat/STIM_013.jpg
3434.729	1.056	1	repeat	Run4	repeat/STIM_014.jpg
3437.986	0.55	1	repeat	Run4	repeat/STIM_014.jpg
3442.336	0.791	1	repeat	Run4	repeat/STIM_014.jpg
3445.81	0.674	1	repeat	Run4	repeat/STIM_014.jpg
3449.991	0.734	1	repeat	Run4	repeat/STIM_014.jpg
