onset	duration	response_time_ms	trial_type	learning_stage	stimulus	response_port
0.0	3.21	3209.9	generate	Run1	generate/STIM_000.jpg	99
6.762	2.712	2712.4	generate	Run1	generate/STIM_000.jpg	99
13.002	1.475	1474.7	generate	Run1	generate/STIM_000.jpg	100
17.753	1.251	1251.2	generate	Run1	generate/STIM_000.jpg	99
21.7	1.859	1858.7	generate	Run1	generate/STIM_000.jpg	100
25.458	2.967	2967.1	generate	Run1	generate/STIM_001.jpg	99
30.085	3.001	3000.9	generate	Run1	generate/STIM_001.jpg	99
34.965	2.771	2771.2	generate	Run1	generate/STIM_001.jpg	99
41.152	1.906	1905.5	generate	Run1	generate/STIM_001.jpg	99
45.24	2.407	2406.9	generate	Run1	generate/STIM_001.jpg	99
49.874	3.136	3135.5	generate	Run1	generate/STIM_002.jpg	100
54.756	1.711	1711.4	generate	Run1	generate/STIM_002.jpg	99
59.884	1.968	1968.0	generate	Run1	generate/STIM_002.jpg	100
65.42	2.251	2251.4	generate	Run1	generate/STIM_002.jpg	99
71.006	2.738	2738.2	generate	Run1	generate/STIM_002.jpg	100
76.644	2.413	2413.0	generate	Run1	generate/STIM_003.jpg	100
82.663	3.165	3164.8	generate	Run1	generate/STIM_003.jpg	100
88.842	2.913	2913.1	generate	Run1	generate/STIM_003.jpg	100
95.31	2.768	2767.9	generate	Run1	generate/STIM_003.jpg	100
100.601	1.605	1605.0	generate	Run1	generate/STIM_003.jpg	100
104.739	2.828	2827.7	generate	Run1	generate/STIM_004.jpg	99
111.057	1.84	1839.7	generate	Run1	generate/STIM_004.jpg	99
114.661	2.486	2485.5	generate	Run1	generate/STIM_004.jpg	99
119.454	2.124	2124.2	generate	Run1	generate/STIM_004.jpg	99
124.049	1.884	1884.5	generate	Run1	generate/STIM_004.jpg	100
129.667	2.223	2222.7	generate	Run1	generate/STIM_005.jpg	100
135.534	2.676	2675.7	generate	Run1	generate/STIM_005.jpg	99
141.207	2.274	2274.5	generate	Run1	generate/STIM_005.jpg	100
145.95	2.279	2279.4	generate	Run1	generate/STIM_005.jpg	100
150.873	1.7	1699.8	generate	Run1	generate/STIM_005.jpg	100
154.6	1.478	1477.9	generate	Run1	generate/STIM_006.jpg	100
159.788	1.478	1478.4	generate	Run1	generate/STIM_006.jpg	100
163.371	2.789	2788.6	generate	Run1	generate/STIM_006.jpg	99
168.409	2.238	2238.1	generate	Run1	generate/STIM_006.jpg	100
174.262	1.649	1649.1	generate	Run1	generate/STIM_006.jpg	99
178.384	2.02	2019.7	generate	Run1	generate/STIM_007.jpg	99
182.725	3.138	3138.2	generate	Run1	generate/STIM_007.jpg	99
188.106	1.762	1762.4	generate	Run1	generate/STIM_007.jpg	100
193.433	1.352	1351.8	generate	Run1	generate/STIM_007.jpg	100
196.866	2.046	2046.3	generate	Run1	generate/STIM_007.jpg	100
201.437	2.646	2645.5	generate	Run1	generate/STIM_008.jpg	100
205.993	2.714	2714.3	generate	Run1	generate/STIM_008.jpg	100
210.853	1.674	1674.4	generate	Run1	generate/STIM_008.jpg	100
215.298	1.774	1773.6	generate	Run1	generate/STIM_008.jpg	100
219.295	1.771	1770.9	generate	Run1	generate/STIM_008.jpg	100
223.496	2.499	2498.8	generate	Run1	generate/STIM_009.jpg	99
228.422	3.189	3189.4	generate	Run1	generate/STIM_009.jpg	99
234.497	1.503	1503.4	generate	Run1	generate/STIM_009.jpg	99
238.929	1.402	1401.9	generate	Run1	generate/STIM_009.jpg	100
242.522	2.437	2436.6	generate	Run1	generate/STIM_009.jpg	100
247.628	3.232	3232.5	generate	Run1	generate/STIM_010.jpg	99
253.415	1.711	1711.2	generate	Run1	generate/STIM_010.jpg	100
258.689	3.068	3068.0	generate	Run1	generate/STIM_010.jpg	99
263.424	1.801	1801.0	generate	Run1	generate/STIM_010.jpg	100
268.737	1.248	1247.9	generate	Run1	generate/STIM_010.jpg	99
271.851	3.212	3212.5	generate	Run1	generate/STIM_011.jpg	100
277.927	1.388	1388.3	generate	Run1	generate/STIM_011.jpg	100
283.129	1.709	1709.3	generate	Run1	generate/STIM_011.jpg	100
288.17	1.567	1567.4	generate	Run1	generate/STIM_011.jpg	100
293.4	2.343	2342.6	generate	Run1	generate/STIM_011.jpg	99
297.949	3.112	3111.7	generate	Run1	generate/STIM_012.jpg	100
303.464	2.833	2832.9	generate	Run1	generate/STIM_012.jpg	100
308.607	1.596	1595.9	generate	Run1	generate/STIM_012.jpg	99
312.842	1.463	1463.4	generate	Run1	generate/STIM_012.jpg	100
317.193	2.819	2819.4	generate	Run1	generate/STIM_012.jpg	100
322.721	3.121	3120.6	generate	Run1	generate/STIM_013.jpg	100
328.745	2.52	2520.2	generate	Run1	generate/STIM_013.jpg	100
333.46	2.462	2462.1	generate	Run1	generate/STIM_013.jpg	100
339.525	2.117	2116.9	generate	Run1	generate/STIM_013.jpg	99
344.967	2.525	2525.2	generate	Run1	generate/STIM_013.jpg	99
349.602	1.518	1517.7	generate	Run1	generate/STIM_014.jpg	99
353.454	2.738	2738.0	generate	Run1	generate/STIM_014.jpg	99
359.161	3.053	3052.8	generate	Run1	generate/STIM_014.jpg	100
364.418	1.716	1716.1	generate	Run1	generate/STIM_014.jpg	100
369.18	1.493	1492.6	generate	Run1	generate/STIM_014.jpg	100
373.131	1.491	1490.6	generate	Run1	generate/STIM_015.jpg	100
378.053	2.93	2930.4	generate	Run1	generate/STIM_015.jpg	99
382.785	2.303	2303.0	generate	Run1	generate/STIM_015.jpg	100
387.965	2.536	2536.4	generate	Run1	generate/STIM_015.jpg	99
393.578	2.444	2443.9	generate	Run1	generate/STIM_015.jpg	100
399.274	2.14	2139.9	generate	Run1	generate/STIM_016.jpg	99
403.673	1.997	1996.7	generate	Run1	generate/STIM_016.jpg	100
408.809	2.093	2092.7	generate	Run1	generate/STIM_016.jpg	100
412.76	1.44	1440.0	generate	Run1	generate/STIM_016.jpg	99
417.23	2.631	2631.4	generate	Run1	generate/STIM_016.jpg	99
421.947	2.487	2487.3	generate	Run1	generate/STIM_017.jpg	100
426.129	2.401	2400.9	generate	Run1	generate/STIM_017.jpg	99
431.295	3.011	3011.4	generate	Run1	generate/STIM_017.jpg	100
436.294	2.887	2887.0	generate	Run1	generate/STIM_017.jpg	100
442.352	1.519	1519.3	generate	Run1	generate/STIM_017.jpg	100
447.29	1.884	1884.3	generate	Run1	generate/STIM_018.jpg	100
452.017	2.334	2334.3	generate	Run1	generate/STIM_018.jpg	99
457.244	1.88	1879.9	generate	Run1	generate/STIM_018.jpg	100
462.054	1.339	1339.2	generate	Run1	generate/STIM_018.jpg	99
465.512	2.187	2187.1	generate	Run1	generate/STIM_018.jpg	100
470.29	2.173	2172.7	generate	Run1	generate/STIM_019.jpg	99
474.842	1.73	1730.5	generate	Run1	generate/STIM_019.jpg	100
478.634	1.822	1821.6	generate	Run1	generate/STIM_019.jpg	99
482.711	2.679	2679.0	generate	Run1	generate/STIM_019.jpg	100
488.776	2.2	2200.5	generate	Run1	generate/STIM_019.jpg	99
493.679	2.697	2696.9	generate	Run1	generate/STIM_020.jpg	100
499.229	1.6	1599.7	generate	Run1	generate/STIM_020.jpg	99
503.163	1.368	1368.1	generate	Run1	generate/STIM_020.jpg	99
506.653	2.108	2108.4	generate	Run1	generate/STIM_020.jpg	100
511.178	1.151	1150.8	generate	Run1	generate/STIM_020.jpg	100
514.829	1.686	1686.3	generate	Run1	generate/STIM_021.jpg	99
519.288	3.098	3097.9	generate	Run1	generate/STIM_021.jpg	100
525.257	2.024	2023.7	generate	Run1	generate/STIM_021.jpg	100
530.945	2.029	2029.1	generate	Run1	generate/STIM_021.jpg	100
534.833	1.512	1512.5	generate	Run1	generate/STIM_021.jpg	100
539.412	1.449	1449.3	generate	Run1	generate/STIM_022.jpg	99
542.865	3.194	3194.2	generate	Run1	generate/STIM_022.jpg	100
549.397	2.612	2611.7	generate	Run1	generate/STIM_022.jpg	99
554.573	1.904	1904.5	generate	Run1	generate/STIM_022.jpg	100
558.47	1.367	1366.8	generate	Run1	generate/STIM_022.jpg	100
561.878	2.316	2315.8	generate	Run1	generate/STIM_023.jpg	100
567.548	3.185	3185.3	generate	Run1	generate/STIM_023.jpg	100
573.386	2.476	2475.8	generate	Run1	generate/STIM_023.jpg	100
579.52	1.548	1548.3	generate	Run1	generate/STIM_023.jpg	99
584.043	1.799	1799.2	generate	Run1	generate/STIM_023.jpg	100
588.744	2.059	2059.4	generate	Run1	generate/STIM_024.jpg	100
593.055	3.275	3275.1	generate	Run1	generate/STIM_024.jpg	99
599.73	2.486	2485.7	generate	Run1	generate/STIM_024.jpg	100
603.92	1.36	1360.3	generate	Run1	generate/STIM_024.jpg	100
607.89	2.07	2070.4	generate	Run1	generate/STIM_024.jpg	100
613.568	0.881	880.6	repeat	Run1	repeat/STIM_000.jpg	100
618.26	1.071	1070.8	repeat	Run1	repeat/STIM_000.jpg	99
622.38	0.938	938.0	repeat	Run1	repeat/STIM_000.jpg	99
626.367	0.809	809.3	repeat	Run1	repeat/STIM_000.jpg	99
629.837	0.997	997.0	repeat	Run1	repeat/STIM_000.jpg	99
633.99	0.931	931.3	repeat	Run1	repeat/STIM_001.jpg	100
636.893	0.603	602.7	repeat	Run1	repeat/STIM_001.jpg	100
639.474	1.027	1026.9	repeat	Run1	repeat/STIM_001.jpg	100
642.955	0.851	850.8	repeat	Run1	repeat/STIM_001.jpg	100
646.672	0.54	540.1	repeat	Run1	repeat/STIM_001.jpg	100
650.328	0.72	720.5	repeat	Run1	repeat/STIM_002.jpg	99
654.414	0.808	808.2	repeat	Run1	repeat/STIM_002.jpg	99
658.063	0.618	618.2	repeat	Run1	repeat/STIM_002.jpg	100
661.782	0.746	746.2	repeat	Run1	repeat/STIM_002.jpg	99
665.14	0.93	929.7	repeat	Run1	repeat/STIM_002.jpg	99
668.915	0.922	921.7	repeat	Run1	repeat/STIM_003.jpg	100
673.069	0.757	757.3	repeat	Run1	repeat/STIM_003.jpg	100
675.784	0.701	701.4	repeat	Run1	repeat/STIM_003.jpg	100
678.91	0.714	713.8	repeat	Run1	repeat/STIM_003.jpg	99
681.793	0.786	786.3	repeat	Run1	repeat/STIM_003.jpg	100
684.895	1.091	1090.8	repeat	Run1	repeat/STIM_004.jpg	99
688.565	0.728	728.3	repeat	Run1	repeat/STIM_004.jpg	100
692.975	0.57	569.5	repeat	Run1	repeat/STIM_004.jpg	100
696.876	0.7	699.5	repeat	Run1	repeat/STIM_004.jpg	99
700.986	1.012	1011.8	repeat	Run1	repeat/STIM_004.jpg	99
704.087	0.997	996.8	repeat	Run1	repeat/STIM_005.jpg	99
708.242	0.658	658.5	repeat	Run1	repeat/STIM_005.jpg	99
712.429	0.756	756.2	repeat	Run1	repeat/STIM_005.jpg	99
715.553	0.732	731.9	repeat	Run1	repeat/STIM_005.jpg	100
718.798	0.622	621.9	repeat	Run1	repeat/STIM_005.jpg	99
721.861	0.82	819.8	repeat	Run1	repeat/STIM_006.jpg	100
726.393	0.534	533.6	repeat	Run1	repeat/STIM_006.jpg	99
730.602	1.032	1032.5	repeat	Run1	repeat/STIM_006.jpg	99
734.701	0.96	960.3	repeat	Run1	repeat/STIM_006.jpg	99
738.899	1.105	1104.9	repeat	Run1	repeat/STIM_006.jpg	99
741.982	0.972	972.4	repeat	Run1	repeat/STIM_007.jpg	99
746.658	0.624	623.9	repeat	Run1	repeat/STIM_007.jpg	99
749.288	0.96	959.6	repeat	Run1	repeat/STIM_007.jpg	99
754.03	1.007	1006.8	repeat	Run1	repeat/STIM_007.jpg	100
758.267	0.893	893.4	repeat	Run1	repeat/STIM_007.jpg	99
761.556	1.202	1201.7	repeat	Run1	repeat/STIM_008.jpg	99
766.522	0.958	958.5	repeat	Run1	repeat/STIM_008.jpg	99
771.326	0.881	881.3	repeat	Run1	repeat/STIM_008.jpg	100
775.142	0.821	821.2	repeat	Run1	repeat/STIM_008.jpg	100
778.804	1.088	1088.5	repeat	Run1	repeat/STIM_008.jpg	99
783.703	0.841	840.8	repeat	Run1	repeat/STIM_009.jpg	100
788.443	0.951	950.7	repeat	Run1	repeat/STIM_009.jpg	100
792.253	0.692	691.9	repeat	Run1	repeat/STIM_009.jpg	100
796.285	0.96	959.9	repeat	Run1	repeat/STIM_009.jpg	99
799.875	1.023	1023.1	repeat	Run1	repeat/STIM_009.jpg	99
803.812	0.835	834.9	repeat	Run1	repeat/STIM_010.jpg	99
806.809	1.255	1255.3	repeat	Run1	repeat/STIM_010.jpg	100
810.331	0.758	758.0	repeat	Run1	repeat/STIM_010.jpg	100
814.607	0.883	883.2	repeat	Run1	repeat/STIM_010.jpg	99
819.242	0.772	771.9	repeat	Run1	repeat/STIM_010.jpg	100
823.861	0.604	603.6	repeat	Run1	repeat/STIM_011.jpg	99
827.642	0.691	691.4	repeat	Run1	repeat/STIM_011.jpg	99
832.127	0.604	603.8	repeat	Run1	repeat/STIM_011.jpg	100
834.93	0.953	952.6	repeat	Run1	repeat/STIM_011.jpg	99
839.306	0.708	707.9	repeat	Run1	repeat/STIM_011.jpg	100
842.313	0.979	978.6	repeat	Run1	repeat/STIM_012.jpg	99
846.297	0.721	721.3	repeat	Run1	repeat/STIM_012.jpg	99
849.734	1.093	1093.4	repeat	Run1	repeat/STIM_012.jpg	99
854.377	0.588	587.6	repeat	Run1	repeat/STIM_012.jpg	99
858.806	0.952	952.3	repeat	Run1	repeat/STIM_012.jpg	99
861.789	0.654	653.7	repeat	Run1	repeat/STIM_013.jpg	99
866.048	0.623	622.9	repeat	Run1	repeat/STIM_013.jpg	99
870.311	0.917	916.8	repeat	Run1	repeat/STIM_013.jpg	99
874.908	0.814	813.9	repeat	Run1	repeat/STIM_013.jpg	99
877.758	0.67	670.1	repeat	Run1	repeat/STIM_013.jpg	99
880.351	0.956	955.8	repeat	Run1	repeat/STIM_014.jpg	100
884.087	0.509	508.6	repeat	Run1	repeat/STIM_014.jpg	99
887.542	1.094	1093.7	repeat	Run1	repeat/STIM_014.jpg	99
891.426	1.121	1121.1	repeat	Run1	repeat/STIM_014.jpg	99
895.973	0.837	837.1	repeat	Run1	repeat/STIM_014.jpg	100
900.111	1.892	1891.5	generate	Run2	generate/STIM_000.jpg	99
904.7	2.339	2338.6	generate	Run2	generate/STIM_000.jpg	100
910.394	2.416	2416.4	generate	Run2	generate/STIM_000.jpg	100
915.394	2.148	2148.1	generate	Run2	generate/STIM_000.jpg	99
921.187	2.214	2213.5	generate	Run2	generate/STIM_000.jpg	99
926.395	2.07	2070.4	generate	Run2	generate/STIM_001.jpg	100
930.289	2.761	2761.4	generate	Run2	generate/STIM_001.jpg	100
935.523	1.348	1348.1	generate	Run2	generate/STIM_001.jpg	99
939.8	1.472	1472.0	generate	Run2	generate/STIM_001.jpg	100
944.776	1.203	1202.9	generate	Run2	generate/STIM_001.jpg	99
949.065	1.717	1717.3	generate	Run2	generate/STIM_002.jpg	99
953.077	2.532	2531.6	generate	Run2	generate/STIM_002.jpg	100
957.8	2.537	2536.7	generate	Run2	generate/STIM_002.jpg	99
962.59	1.389	1388.8	generate	Run2	generate/STIM_002.jpg	100
966.817	1.547	1546.7	generate	Run2	generate/STIM_002.jpg	100
970.943	2.445	2444.6	generate	Run2	generate/STIM_003.jpg	99
975.184	1.529	1528.8	generate	Run2	generate/STIM_003.jpg	99
980.267	1.238	1238.4	generate	Run2	generate/STIM_003.jpg	99
984.108	1.966	1965.9	generate	Run2	generate/STIM_003.jpg	99
989.497	2.185	2184.8	generate	Run2	generate/STIM_003.jpg	100
994.029	2.229	2229.0	generate	Run2	generate/STIM_004.jpg	99
998.595	1.161	1161.1	generate	Run2	generate/STIM_004.jpg	99
1002.039	1.413	1413.1	generate	Run2	generate/STIM_004.jpg	100
1005.724	1.294	1293.8	generate	Run2	generate/STIM_004.jpg	99
1010.279	1.111	1110.9	generate	Run2	generate/STIM_004.jpg	99
1013.685	1.814	1813.9	generate	Run2	generate/STIM_005.jpg	100
1017.599	1.194	1194.0	generate	Run2	generate/STIM_005.jpg	100
1022.148	1.249	1248.9	generate	Run2	generate/STIM_005.jpg	99
1025.24	2.054	2053.5	generate	Run2	generate/STIM_005.jpg	100
1030.389	1.89	1890.4	generate	Run2	generate/STIM_005.jpg	100
1035.012	2.159	2159.0	generate	Run2	generate/STIM_006.jpg	99
1039.405	2.621	2621.4	generate	Run2	generate/STIM_006.jpg	99
1044.941	2.418	2418.5	generate	Run2	generate/STIM_006.jpg	100
1050.895	2.055	2055.0	generate	Run2	generate/STIM_006.jpg	100
1055.536	1.459	1459.2	generate	Run2	generate/STIM_006.jpg	100
1059.708	1.876	1875.9	generate	Run2	generate/STIM_007.jpg	99
1065.247	1.587	1587.1	generate	Run2	generate/STIM_007.jpg	99
1070.1	1.539	1538.6	generate	Run2	generate/STIM_007.jpg	99
1074.164	1.765	1764.7	generate	Run2	generate/STIM_007.jpg	99
1078.345	1.116	1116.5	generate	Run2	generate/STIM_007.jpg	99
1082.038	1.884	1884.1	generate	Run2	generate/STIM_008.jpg	99
1086.469	2.781	2781.4	generate	Run2	generate/STIM_008.jpg	100
1092.214	1.732	1731.7	generate	Run2	generate/STIM_008.jpg	100
1095.891	1.867	1866.7	generate	Run2	generate/STIM_008.jpg	99
1100.252	1.148	1147.8	generate	Run2	generate/STIM_008.jpg	100
1104.936	1.521	1520.7	generate	Run2	generate/STIM_009.jpg	99
1109.183	2.342	2342.1	generate	Run2	generate/STIM_009.jpg	100
1114.915	2.319	2319.3	generate	Run2	generate/STIM_009.jpg	100
1120.902	1.265	1264.7	generate	Run2	generate/STIM_009.jpg	99
1125.691	2.242	2241.5	generate	Run2	generate/STIM_009.jpg	99
1130.002	2.762	2762.3	generate	Run2	generate/STIM_010.jpg	100
1134.647	2.044	2043.8	generate	Run2	generate/STIM_010.jpg	100
1138.923	2.423	2423.4	generate	Run2	generate/STIM_010.jpg	99
1143.907	2.177	2176.9	generate	Run2	generate/STIM_010.jpg	100
1148.282	1.594	1594.0	generate	Run2	generate/STIM_010.jpg	99
1152.551	2.736	2736.1	generate	Run2	generate/STIM_011.jpg	99
1158.108	2.41	2409.7	generate	Run2	generate/STIM_011.jpg	99
1162.669	1.568	1568.2	generate	Run2	generate/STIM_011.jpg	99
1167.709	2.126	2125.8	generate	Run2	generate/STIM_011.jpg	99
1172.103	1.895	1895.4	generate	Run2	generate/STIM_011.jpg	100
1177.831	2.764	2764.4	generate	Run2	generate/STIM_012.jpg	99
1183.967	2.191	2191.0	generate	Run2	generate/STIM_012.jpg	99
1188.532	2.143	2143.0	generate	Run2	generate/STIM_012.jpg	100
1194.215	1.987	1987.0	generate	Run2	generate/STIM_012.jpg	99
1198.913	1.473	1472.9	generate	Run2	generate/STIM_012.jpg	100
1203.47	2.045	2044.5	generate	Run2	generate/STIM_013.jpg	99
1207.423	1.169	1169.2	generate	Run2	generate/STIM_013.jpg	99
1211.184	2.511	2510.6	generate	Run2	generate/STIM_013.jpg	99
1216.061	1.262	1262.5	generate	Run2	generate/STIM_013.jpg	100
1220.433	2.346	2345.7	generate	Run2	generate/STIM_013.jpg	100
1225.562	1.4	1399.5	generate	Run2	generate/STIM_014.jpg	100
1229.177	2.582	2582.1	generate	Run2	generate/STIM_014.jpg	100
1235.334	1.877	1876.6	generate	Run2	generate/STIM_014.jpg	100
1240.647	0.953	953.0	generate	Run2	generate/STIM_014.jpg	99
1244.637	1.413	1413.2	generate	Run2	generate/STIM_014.jpg	99
1248.873	1.976	1976.0	generate	Run2	generate/STIM_015.jpg	100
1253.014	2.694	2694.3	generate	Run2	generate/STIM_015.jpg	99
1258.094	1.162	1161.5	generate	Run2	generate/STIM_015.jpg	99
1261.184	1.114	1113.8	generate	Run2	generate/STIM_015.jpg	100
1265.991	2.34	2340.3	generate	Run2	generate/STIM_015.jpg	99
1270.74	2.765	2765.2	generate	Run2	generate/STIM_016.jpg	100
1276.345	1.592	1592.0	generate	Run2	generate/STIM_016.jpg	100
1280.466	1.61	1610.3	generate	Run2	generate/STIM_016.jpg	100
1285.662	1.033	1033.0	generate	Run2	generate/STIM_016.jpg	99
1288.681	1.413	1412.6	generate	Run2	generate/STIM_016.jpg	99
1292.701	1.296	1295.8	generate	Run2	generate/STIM_017.jpg	100
1296.441	1.823	1823.3	generate	Run2	generate/STIM_017.jpg	99
1301.372	1.626	1625.7	generate	Run2	generate/STIM_017.jpg	99
1306.636	2.015	2014.6	generate	Run2	generate/STIM_017.jpg	99
1310.537	1.384	1383.9	generate	Run2	generate/STIM_017.jpg	99
1314.905	1.698	1697.8	generate	Run2	generate/STIM_018.jpg	100
1318.829	1.74	1740.1	generate	Run2	generate/STIM_018.jpg	100
1324.045	1.677	1676.8	generate	Run2	generate/STIM_018.jpg	100
1327.57	2.152	2151.8	generate	Run2	generate/STIM_018.jpg	100
1331.832	2.394	2393.8	generate	Run2	generate/STIM_018.jpg	100
1337.326	2.546	2545.7	generate	Run2	generate/STIM_019.jpg	100
1342.853	1.105	1105.0	generate	Run2	generate/STIM_019.jpg	99
1346.526	1.821	1821.3	generate	Run2	generate/STIM_019.jpg	100
1350.483	1.254	1253.7	generate	Run2	generate/STIM_019.jpg	99
1355.162	1.835	1834.9	generate	Run2	generate/STIM_019.jpg	100
1359.819	1.092	1091.9	generate	Run2	generate/STIM_020.jpg	100
1364.837	2.18	2179.7	generate	Run2	generate/STIM_020.jpg	100
1369.787	2.264	2263.9	generate	Run2	generate/STIM_020.jpg	99
1375.281	1.734	1733.5	generate	Run2	generate/STIM_020.jpg	99
1379.432	1.018	1018.1	generate	Run2	generate/STIM_020.jpg	99
1383.39	1.524	1524.2	generate	Run2	generate/STIM_021.jpg	99
1388.031	2.624	2624.3	generate	Run2	generate/STIM_021.jpg	100
1393.52	2.592	2591.5	generate	Run2	generate/STIM_021.jpg	99
1399.156	1.658	1657.9	generate	Run2	generate/STIM_021.jpg	100
1403.824	1.774	1774.4	generate	Run2	generate/STIM_021.jpg	99
1408.344	1.746	1745.5	generate	Run2	generate/STIM_022.jpg	100
1412.792	1.231	1230.7	generate	Run2	generate/STIM_022.jpg	100
1416.236	2.156	2155.5	generate	Run2	generate/STIM_022.jpg	100
1420.33	1.002	1002.4	generate	Run2	generate/STIM_022.jpg	99
1424.746	1.279	1279.2	generate	Run2	generate/STIM_022.jpg	100
1428.466	2.017	2017.0	generate	Run2	generate/STIM_023.jpg	99
1433.46	1.433	1433.1	generate	Run2	generate/STIM_023.jpg	100
1437.985	1.387	1386.6	generate	Run2	generate/STIM_023.jpg	100
1442.191	1.33	1329.8	generate	Run2	generate/STIM_023.jpg	100
1447.182	1.451	1451.3	generate	Run2	generate/STIM_023.jpg	100
1450.515	2.624	2623.6	generate	Run2	generate/STIM_024.jpg	100
1456.319	1.233	1232.9	generate	Run2	generate/STIM_024.jpg	100
1460.329	1.174	1174.3	generate	Run2	generate/STIM_024.jpg	100
1464.053	1.906	1906.5	generate	Run2	generate/STIM_024.jpg	99
1467.977	1.138	1138.5	generate	Run2	generate/STIM_024.jpg	100
1472.802	1.062	1062.2	repeat	Run2	repeat/STIM_000.jpg	99
1477.483	1.074	1073.9	repeat	Run2	repeat/STIM_000.jpg	99
1482.129	0.828	828.1	repeat	Run2	repeat/STIM_000.jpg	99
1486.597	0.856	855.6	repeat	Run2	repeat/STIM_000.jpg	99
1489.698	0.898	897.9	repeat	Run2	repeat/STIM_000.jpg	100
1492.922	0.957	956.7	repeat	Run2	repeat/STIM_001.jpg	99
1497.523	0.8	800.4	repeat	Run2	repeat/STIM_001.jpg	99
1500.219	0.861	861.0	repeat	Run2	repeat/STIM_001.jpg	99
1504.368	0.913	912.6	repeat	Run2	repeat/STIM_001.jpg	100
1507.762	1.04	1039.5	repeat	Run2	repeat/STIM_001.jpg	99
1512.005	1.145	1144.9	repeat	Run2	repeat/STIM_002.jpg	100
1516.604	0.671	671.0	repeat	Run2	repeat/STIM_002.jpg	100
1519.988	1.09	1089.5	repeat	Run2	repeat/STIM_002.jpg	99
1523.934	0.768	767.8	repeat	Run2	repeat/STIM_002.jpg	100
1527.343	1.164	1163.7	repeat	Run2	repeat/STIM_002.jpg	100
1531.061	1.011	1010.6	repeat	Run2	repeat/STIM_003.jpg	100
1534.624	0.774	774.5	repeat	Run2	repeat/STIM_003.jpg	100
1539.01	1.098	1097.5	repeat	Run2	repeat/STIM_003.jpg	100
1542.744	0.867	867.3	repeat	Run2	repeat/STIM_003.jpg	100
1545.592	0.569	569.1	repeat	Run2	repeat/STIM_003.jpg	100
1548.498	0.772	771.8	repeat	Run2	repeat/STIM_004.jpg	99
1552.278	0.7	700.4	repeat	Run2	repeat/STIM_004.jpg	100
1556.505	0.647	646.7	repeat	Run2	repeat/STIM_004.jpg	99
1559.809	0.648	647.8	repeat	Run2	repeat/STIM_004.jpg	99
1564.137	0.795	794.9	repeat	Run2	repeat/STIM_004.jpg	100
1567.381	0.835	835.4	repeat	Run2	repeat/STIM_005.jpg	99
1571.055	0.55	549.9	repeat	Run2	repeat/STIM_005.jpg	100
1575.183	1.092	1092.1	repeat	Run2	repeat/STIM_005.jpg	100
1578.818	0.669	669.4	repeat	Run2	repeat/STIM_005.jpg	99
1582.468	0.645	645.1	repeat	Run2	repeat/STIM_005.jpg	100
1586.408	1.132	1131.9	repeat	Run2	repeat/STIM_006.jpg	100
1590.066	0.622	621.5	repeat	Run2	repeat/STIM_006.jpg	100
1593.636	0.747	746.7	repeat	Run2	repeat/STIM_006.jpg	99
1596.458	1.097	1097.3	repeat	Run2	repeat/STIM_006.jpg	99
1600.018	1.104	1104.4	repeat	Run2	repeat/STIM_006.jpg	99
1603.573	0.582	581.6	repeat	Run2	repeat/STIM_007.jpg	99
1606.121	1.106	1106.4	repeat	Run2	repeat/STIM_007.jpg	100
1610.913	0.605	605.0	repeat	Run2	repeat/STIM_007.jpg	99
1614.467	0.918	918.5	repeat	Run2	repeat/STIM_007.jpg	99
1617.744	0.653	652.7	repeat	Run2	repeat/STIM_007.jpg	100
1621.225	0.973	973.4	repeat	Run2	repeat/STIM_008.jpg	100
1624.399	1.079	1078.8	repeat	Run2	repeat/STIM_008.jpg	100
1628.735	1.004	1004.0	repeat	Run2	repeat/STIM_008.jpg	99
1632.139	0.873	873.2	repeat	Run2	repeat/STIM_008.jpg	100
1636.62	0.836	836.4	repeat	Run2	repeat/STIM_008.jpg	100
1640.166	0.849	849.3	repeat	Run2	repeat/STIM_009.jpg	99
1644.761	0.713	713.0	repeat	Run2	repeat/STIM_009.jpg	99
1648.72	1.131	1131.1	repeat	Run2	repeat/STIM_009.jpg	100
1653.162	0.775	774.7	repeat	Run2	repeat/STIM_009.jpg	100
1656.207	0.815	814.7	repeat	Run2	repeat/STIM_009.jpg	99
1660.61	1.02	1020.1	repeat	Run2	repeat/STIM_010.jpg	99
1663.934	0.619	619.1	repeat	Run2	repeat/STIM_010.jpg	99
1667.902	0.739	738.9	repeat	Run2	repeat/STIM_010.jpg	100
1671.093	0.994	993.6	repeat	Run2	repeat/STIM_010.jpg	99
1675.004	1.212	1211.6	repeat	Run2	repeat/STIM_010.jpg	99
1678.417	0.944	943.9	repeat	Run2	repeat/STIM_011.jpg	100
1682.85	0.702	702.4	repeat	Run2	repeat/STIM_011.jpg	100
1686.604	0.808	808.3	repeat	Run2	repeat/STIM_011.jpg	99
1691.236	0.822	822.2	repeat	Run2	repeat/STIM_011.jpg	100
1695.916	0.912	912.1	repeat	Run2	repeat/STIM_011.jpg	99
1699.813	1.081	1081.4	repeat	Run2	repeat/STIM_012.jpg	99
1703.439	0.981	980.8	repeat	Run2	repeat/STIM_012.jpg	99
1707.683	0.939	938.8	repeat	Run2	repeat/STIM_012.jpg	100
1710.534	0.966	966.5	repeat	Run2	repeat/STIM_012.jpg	100
1715.144	0.9	900.4	repeat	Run2	repeat/STIM_012.jpg	100
1718.783	0.805	805.1	repeat	Run2	repeat/STIM_013.jpg	99
1721.739	0.783	782.9	repeat	Run2	repeat/STIM_013.jpg	99
1725.713	0.971	971.2	repeat	Run2	repeat/STIM_013.jpg	99
1730.19	1.117	1117.3	repeat	Run2	repeat/STIM_013.jpg	99
1733.507	1.167	1167.3	repeat	Run2	repeat/STIM_013.jpg	100
1737.485	0.796	796.2	repeat	Run2	repeat/STIM_014.jpg	100
1741.423	0.819	818.9	repeat	Run2	repeat/STIM_014.jpg	99
1745.627	1.032	1031.7	repeat	Run2	repeat/STIM_014.jpg	100
1749.64	0.972	972.3	repeat	Run2	repeat/STIM_014.jpg	100
1753.298	1.016	1016.5	repeat	Run2	repeat/STIM_014.jpg	99
1757.808	2.123	2123.1	generate	Run3	generate/STIM_000.jpg	99
1762.273	2.43	2429.9	generate	Run3	generate/STIM_000.jpg	100
1768.08	1.082	1081.7	generate	Run3	generate/STIM_000.jpg	100
1772.519	1.696	1695.6	generate	Run3	generate/STIM_000.jpg	100
1776.206	0.965	965.4	generate	Run3	generate/STIM_000.jpg	100
1779.273	2.176	2176.5	generate	Run3	generate/STIM_001.jpg	100
1784.417	1.817	1817.3	generate	Run3	generate/STIM_001.jpg	100
1789.283	1.601	1600.9	generate	Run3	generate/STIM_001.jpg	99
1792.946	2.143	2142.6	generate	Run3	generate/STIM_001.jpg	100
1797.368	1.232	1231.6	generate	Run3	generate/STIM_001.jpg	100
1800.683	1.626	1626.0	generate	Run3	generate/STIM_002.jpg	99
1805.342	1.806	1806.2	generate	Run3	generate/STIM_002.jpg	100
1808.978	2.367	2367.2	generate	Run3	generate/STIM_002.jpg	100
1813.904	1.744	1744.4	generate	Run3	generate/STIM_002.jpg	99
1818.004	2.285	2284.9	generate	Run3	generate/STIM_002.jpg	100
1823.212	2.289	2288.8	generate	Run3	generate/STIM_003.jpg	100
1827.482	2.05	2049.7	generate	Run3	generate/STIM_003.jpg	100
1831.382	1.371	1370.6	generate	Run3	generate/STIM_003.jpg	99
1835.286	2.302	2301.5	generate	Run3	generate/STIM_003.jpg	99
1840.452	1.996	1995.5	generate	Run3	generate/STIM_003.jpg	100
1844.471	1.701	1700.9	generate	Run3	generate/STIM_004.jpg	100
1848.091	1.817	1817.3	generate	Run3	generate/STIM_004.jpg	100
1853.015	1.222	1221.7	generate	Run3	generate/STIM_004.jpg	100
1856.2	1.406	1405.8	generate	Run3	generate/STIM_004.jpg	99
1861.065	1.734	1733.9	generate	Run3	generate/STIM_004.jpg	99
1864.977	1.141	1140.6	generate	Run3	generate/STIM_005.jpg	99
1868.729	2.374	2374.2	generate	Run3	generate/STIM_005.jpg	100
1874.46	1.696	1695.9	generate	Run3	generate/STIM_005.jpg	100
1879.357	1.468	1468.1	generate	Run3	generate/STIM_005.jpg	99
1882.807	1.938	1937.5	generate	Run3	generate/STIM_005.jpg	99
1887.522	1.176	1176.3	generate	Run3	generate/STIM_006.jpg	100
1891.871	1.72	1720.5	generate	Run3	generate/STIM_006.jpg	100
1896.944	2.008	2007.8	generate	Run3	generate/STIM_006.jpg	99
1901.946	2.373	2372.8	generate	Run3	generate/STIM_006.jpg	99
1906.525	1.933	1932.9	generate	Run3	generate/STIM_006.jpg	99
1911.003	1.622	1622.2	generate	Run3	generate/STIM_007.jpg	99
1915.803	1.129	1128.7	generate	Run3	generate/STIM_007.jpg	99
1919.915	2.35	2350.2	generate	Run3	generate/STIM_007.jpg	99
1925.743	1.65	1649.5	generate	Run3	generate/STIM_007.jpg	100
1930.647	2.323	2322.9	generate	Run3	generate/STIM_007.jpg	100
1935.735	1.741	1740.9	generate	Run3	generate/STIM_008.jpg	100
1941.203	1.482	1482.3	generate	Run3	generate/STIM_008.jpg	99
1945.437	1.443	1442.7	generate	Run3	generate/STIM_008.jpg	99
1949.206	1.769	1769.3	generate	Run3	generate/STIM_008.jpg	99
1954.094	1.951	1951.1	generate	Run3	generate/STIM_008.jpg	99
1959.619	1.712	1712.1	generate	Run3	generate/STIM_009.jpg	100
1963.357	1.518	1517.9	generate	Run3	generate/STIM_009.jpg	100
1967.601	2.095	2094.7	generate	Run3	generate/STIM_009.jpg	99
1973.231	1.836	1836.2	generate	Run3	generate/STIM_009.jpg	100
1977.496	0.966	965.7	generate	Run3	generate/STIM_009.jpg	100
1980.596	1.86	1860.4	generate	Run3	generate/STIM_010.jpg	99
1985.269	1.675	1675.3	generate	Run3	generate/STIM_010.jpg	99
1990.204	1.658	1658.1	generate	Run3	generate/STIM_010.jpg	100
1993.716	2.343	2343.1	generate	Run3	generate/STIM_010.jpg	100
1999.432	2.227	2226.8	generate	Run3	generate/STIM_010.jpg	99
2003.638	1.227	1226.6	generate	Run3	generate/STIM_011.jpg	99
2007.896	1.838	1837.7	generate	Run3	generate/STIM_011.jpg	99
2012.971	1.978	1977.7	generate	Run3	generate/STIM_011.jpg	99
2016.728	0.972	972.5	generate	Run3	generate/STIM_011.jpg	99
2021.563	1.173	1172.6	generate	Run3	generate/STIM_011.jpg	99
2025.113	1.434	1433.8	generate	Run3	generate/STIM_012.jpg	99
2030.173	2.119	2119.4	generate	Run3	generate/STIM_012.jpg	99
2034.132	2.159	2159.3	generate	Run3	generate/STIM_012.jpg	99
2038.074	1.031	1031.2	generate	Run3	generate/STIM_012.jpg	99
2042.556	2.406	2406.2	generate	Run3	generate/STIM_012.jpg	100
2047.002	1.769	1769.1	generate	Run3	generate/STIM_013.jpg	100
2051.224	1.018	1018.2	generate	Run3	generate/STIM_013.jpg	99
2054.716	2.28	2280.2	generate	Run3	generate/STIM_013.jpg	99
2060.132	2.215	2214.8	generate	Run3	generate/STIM_013.jpg	100
2065.757	1.484	1483.9	generate	Run3	generate/STIM_013.jpg	99
2070.5	2.206	2205.5	generate	Run3	generate/STIM_014.jpg	99
2074.68	1.377	1376.6	generate	Run3	generate/STIM_014.jpg	100
2078.793	1.262	1262.0	generate	Run3	generate/STIM_014.jpg	100
2082.609	2.167	2166.9	generate	Run3	generate/STIM_014.jpg	100
2087.95	1.734	1734.1	generate	Run3	generate/STIM_014.jpg	100
2091.874	2.398	2397.8	generate	Run3	generate/STIM_015.jpg	99
2096.27	0.97	969.6	generate	Run3	generate/STIM_015.jpg	99
2101.084	2.333	2333.4	generate	Run3	generate/STIM_015.jpg	99
2107.093	1.856	1855.5	generate	Run3	generate/STIM_015.jpg	99
2111.86	1.171	1170.7	generate	Run3	generate/STIM_015.jpg	99
2116.702	1.903	1902.8	generate	Run3	generate/STIM_016.jpg	100
2120.444	2.174	2173.5	generate	Run3	generate/STIM_016.jpg	99
2125.242	1.805	1804.6	generate	Run3	generate/STIM_016.jpg	99
2129.499	1.474	1474.2	generate	Run3	generate/STIM_016.jpg	100
2134.758	1.125	1125.0	generate	Run3	generate/STIM_016.jpg	100
2138.867	2.444	2443.9	generate	Run3	generate/STIM_017.jpg	100
2143.983	2.442	2442.3	generate	Run3	generate/STIM_017.jpg	99
2148.846	2.18	2180.1	generate	Run3	generate/STIM_017.jpg	99
2153.287	1.71	1710.4	generate	Run3	generate/STIM_017.jpg	99
2157.402	1.18	1179.9	generate	Run3	generate/STIM_017.jpg	100
2162.381	1.815	1815.4	generate	Run3	generate/STIM_018.jpg	99
2167.834	2.442	2442.0	generate	Run3	generate/STIM_018.jpg	100
2172.749	1.29	1289.6	generate	Run3	generate/STIM_018.jpg	100
2176.763	1.695	1694.8	generate	Run3	generate/STIM_018.jpg	100
2181.265	1.966	1965.7	generate	Run3	generate/STIM_018.jpg	99
2185.642	2.211	2210.7	generate	Run3	generate/STIM_019.jpg	99
2189.951	1.493	1493.4	generate	Run3	generate/STIM_019.jpg	99
2194.458	2.143	2143.0	generate	Run3	generate/STIM_019.jpg	100
2198.999	1.415	1415.4	generate	Run3	generate/STIM_019.jpg	99
2203.527	1.582	1581.9	generate	Run3	generate/STIM_019.jpg	100
2208.764	2.114	2113.9	generate	Run3	generate/STIM_020.jpg	99
2213.055	1.496	1496.5	generate	Run3	generate/STIM_020.jpg	100
2216.491	1.39	1389.6	generate	Run3	generate/STIM_020.jpg	100
2221.373	1.157	1157.0	generate	Run3	generate/STIM_020.jpg	99
2224.511	1.87	1870.2	generate	Run3	generate/STIM_020.jpg	99
2228.416	2.276	2275.9	generate	Run3	generate/STIM_021.jpg	100
2234.254	1.755	1755.2	generate	Run3	generate/STIM_021.jpg	100
2238.701	1.366	1366.0	generate	Run3	generate/STIM_021.jpg	100
2242.325	1.576	1575.9	generate	Run3	generate/STIM_021.jpg	99
2247.257	2.106	2106.2	generate	Run3	generate/STIM_021.jpg	100
2252.763	1.506	1505.5	generate	Run3	generate/STIM_022.jpg	99
2256.945	1.901	1901.4	generate	Run3	generate/STIM_022.jpg	100
2260.934	1.354	1353.8	generate	Run3	generate/STIM_022.jpg	99
2264.611	2.174	2174.0	generate	Run3	generate/STIM_022.jpg	99
2269.375	1.506	1506.2	generate	Run3	generate/STIM_022.jpg	100
2274.615	1.644	1643.9	generate	Run3	generate/STIM_023.jpg	99
2278.289	1.904	1903.8	generate	Run3	generate/STIM_023.jpg	99
2283.533	1.359	1358.7	generate	Run3	generate/STIM_023.jpg	99
2287.235	2.06	2059.6	generate	Run3	generate/STIM_023.jpg	99
2291.674	2.259	2259.1	generate	Run3	generate/STIM_023.jpg	99
2297.498	1.907	1907.1	generate	Run3	generate/STIM_024.jpg	99
2302.505	2.037	2036.8	generate	Run3	generate/STIM_024.jpg	100
2306.576	1.698	1698.2	generate	Run3	generate/STIM_024.jpg	99
2310.098	1.318	1317.8	generate	Run3	generate/STIM_024.jpg	99
2315.153	1.926	1925.9	generate	Run3	generate/STIM_024.jpg	99
2320.709	1.158	1157.5	repeat	Run3	repeat/STIM_000.jpg	99
2324.006	0.893	893.0	repeat	Run3	repeat/STIM_000.jpg	100
2328.313	0.892	892.4	repeat	Run3	repeat/STIM_000.jpg	99
2332.84	0.818	817.5	repeat	Run3	repeat/STIM_000.jpg	99
2335.646	0.748	747.9	repeat	Run3	repeat/STIM_000.jpg	99
2338.635	1.004	1003.8	repeat	Run3	repeat/STIM_001.jpg	99
2342.333	0.748	747.5	repeat	Run3	repeat/STIM_001.jpg	100
2346.201	0.705	704.7	repeat	Run3	repeat/STIM_001.jpg	100
2349.31	0.646	646.3	repeat	Run3	repeat/STIM_001.jpg	100
2353.099	1.036	1036.1	repeat	Run3	repeat/STIM_001.jpg	100
2357.471	0.938	938.5	repeat	Run3	repeat/STIM_002.jpg	100
2362.104	1.05	1049.6	repeat	Run3	repeat/STIM_002.jpg	100
2365.981	0.537	536.8	repeat	Run3	repeat/STIM_002.jpg	99
2370.517	0.87	870.0	repeat	Run3	repeat/STIM_002.jpg	100
2374.332	0.664	663.8	repeat	Run3	repeat/STIM_002.jpg	100
2378.355	1.151	1150.6	repeat	Run3	repeat/STIM_003.jpg	100
2382.383	1.06	1059.6	repeat	Run3	repeat/STIM_003.jpg	100
2386.153	0.729	728.8	repeat	Run3	repeat/STIM_003.jpg	99
2389.542	0.994	993.7	repeat	Run3	repeat/STIM_003.jpg	99
2394.042	0.765	764.9	repeat	Run3	repeat/STIM_003.jpg	100
2398.049	0.599	599.0	repeat	Run3	repeat/STIM_004.jpg	100
2402.447	0.679	678.6	repeat	Run3	repeat/STIM_004.jpg	99
2406.696	0.934	933.7	repeat	Run3	repeat/STIM_004.jpg	99
2409.797	0.548	548.5	repeat	Run3	repeat/STIM_004.jpg	100
2414.329	0.851	851.0	repeat	Run3	repeat/STIM_004.jpg	100
2418.46	1.037	1037.4	repeat	Run3	repeat/STIM_005.jpg	100
2422.298	0.725	725.4	repeat	Run3	repeat/STIM_005.jpg	100
2425.342	1.148	1148.1	repeat	Run3	repeat/STIM_005.jpg	99
2428.615	0.6	600.3	repeat	Run3	repeat/STIM_005.jpg	100
2432.985	0.866	866.3	repeat	Run3	repeat/STIM_005.jpg	99
2436.779	1.103	1103.1	repeat	Run3	repeat/STIM_006.jpg	99
2440.455	1.083	1082.7	repeat	Run3	repeat/STIM_006.jpg	100
2443.467	0.974	974.4	repeat	Run3	repeat/STIM_006.jpg	99
2446.774	0.743	743.0	repeat	Run3	repeat/STIM_006.jpg	99
2450.863	0.956	956.4	repeat	Run3	repeat/STIM_006.jpg	100
2453.996	0.706	705.5	repeat	Run3	repeat/STIM_007.jpg	99
2458.15	1.156	1155.6	repeat	Run3	repeat/STIM_007.jpg	99
2462.04	0.675	674.8	repeat	Run3	repeat/STIM_007.jpg	100
2465.328	0.994	993.6	repeat	Run3	repeat/STIM_007.jpg	100
2468.635	1.117	1116.7	repeat	Run3	repeat/STIM_007.jpg	100
2473.268	0.945	944.6	repeat	Run3	repeat/STIM_008.jpg	100
2477.505	0.66	659.7	repeat	Run3	repeat/STIM_008.jpg	100
2480.926	0.764	764.5	repeat	Run3	repeat/STIM_008.jpg	99
2483.769	0.716	715.5	repeat	Run3	repeat/STIM_008.jpg	99
2487.527	1.008	1008.3	repeat	Run3	repeat/STIM_008.jpg	99
2490.525	1.005	1004.9	repeat	Run3	repeat/STIM_009.jpg	99
2494.948	0.68	680.1	repeat	Run3	repeat/STIM_009.jpg	100
2499.265	0.984	984.5	repeat	Run3	repeat/STIM_009.jpg	100
2503.457	1.135	1134.6	repeat	Run3	repeat/STIM_009.jpg	99
2507.218	0.72	719.6	repeat	Run3	repeat/STIM_009.jpg	99
2511.062	0.994	994.3	repeat	Run3	repeat/STIM_010.jpg	100
2514.262	0.601	601.3	repeat	Run3	repeat/STIM_010.jpg	99
2517.317	0.919	918.9	repeat	Run3	repeat/STIM_010.jpg	100
2521.699	0.632	632.3	repeat	Run3	repeat/STIM_010.jpg	99
2524.358	0.807	806.7	repeat	Run3	repeat/STIM_010.jpg	100
2528.645	1.123	1123.1	repeat	Run3	repeat/STIM_011.jpg	100
2532.057	1.084	1083.5	repeat	Run3	repeat/STIM_011.jpg	100
2536.992	0.698	698.2	repeat	Run3	repeat/STIM_011.jpg	100
2540.36	0.982	982.4	repeat	Run3	repeat/STIM_011.jpg	99
2544.293	0.888	888.5	repeat	Run3	repeat/STIM_011.jpg	100
2547.86	0.599	599.3	repeat	Run3	repeat/STIM_012.jpg	100
2552.037	0.944	943.9	repeat	Run3	repeat/STIM_012.jpg	99
2555.767	0.702	701.8	repeat	Run3	repeat/STIM_012.jpg	99
2558.961	0.762	761.8	repeat	Run3	repeat/STIM_012.jpg	99
2563.419	0.698	697.8	repeat	Run3	repeat/STIM_012.jpg	99
2566.728	0.605	605.1	repeat	Run3	repeat/STIM_013.jpg	100
2570.355	0.879	878.7	repeat	Run3	repeat/STIM_013.jpg	99
2573.182	1.071	1070.9	repeat	Run3	repeat/STIM_013.jpg	99
2577.848	0.992	991.8	repeat	Run3	repeat/STIM_013.jpg	100
2581.651	1.085	1085.2	repeat	Run3	repeat/STIM_013.jpg	100
2584.997	0.62	620.3	repeat	Run3	repeat/STIM_014.jpg	100
2588.45	0.673	673.0	repeat	Run3	repeat/STIM_014.jpg	100
2591.215	1.047	1047.2	repeat	Run3	repeat/STIM_014.jpg	100
2595.658	1.1	1100.0	repeat	Run3	repeat/STIM_014.jpg	99
2600.551	1.133	1133.4	repeat	Run3	repeat/STIM_014.jpg	99
2604.081	1.451	1450.9	generate	Run4	generate/STIM_000.jpg	99
2608.868	2.13	2130.4	generate	Run4	generate/STIM_000.jpg	100
2613.952	2.025	2025.0	generate	Run4	generate/STIM_000.jpg	100
2618.302	1.963	1963.0	generate	Run4	generate/STIM_000.jpg	99
2623.456	1.593	1593.4	generate	Run4	generate/STIM_000.jpg	100
2628.641	1.858	1858.0	generate	Run4	generate/STIM_001.jpg	99
2634.089	1.356	1356.5	generate	Run4	generate/STIM_001.jpg	99
2637.769	2.074	2074.4	generate	Run4	generate/STIM_001.jpg	100
2643.543	1.572	1571.7	generate	Run4	generate/STIM_001.jpg	99
2648.009	1.481	1481.4	generate	Run4	generate/STIM_001.jpg	100
2651.873	1.484	1484.1	generate	Run4	generate/STIM_002.jpg	99
2655.467	1.558	1558.5	generate	Run4	generate/STIM_002.jpg	99
2658.943	2.411	2410.9	generate	Run4	generate/STIM_002.jpg	99
2663.037	1.51	1510.1	generate	Run4	generate/STIM_002.jpg	100
2666.556	1.632	1632.3	generate	Run4	generate/STIM_002.jpg	100
2670.179	1.274	1273.9	generate	Run4	generate/STIM_003.jpg	100
2674.365	1.74	1739.8	generate	Run4	generate/STIM_003.jpg	99
2678.591	1.225	1224.9	generate	Run4	generate/STIM_003.jpg	100
2683.595	1.857	1857.0	generate	Run4	generate/STIM_003.jpg	100
2688.839	1.869	1868.8	generate	Run4	generate/STIM_003.jpg	99
2693.636	1.24	1240.5	generate	Run4	generate/STIM_004.jpg	99
2698.303	1.584	1583.7	generate	Run4	generate/STIM_004.jpg	99
2703.031	2.234	2233.6	generate	Run4	generate/STIM_004.jpg	99
2708.648	1.581	1580.7	generate	Run4	generate/STIM_004.jpg	100
2712.659	1.225	1225.4	generate	Run4	generate/STIM_004.jpg	99
2717.153	2.287	2287.4	generate	Run4	generate/STIM_005.jpg	99
2721.863	1.637	1637.0	generate	Run4	generate/STIM_005.jpg	99
2726.592	1.681	1680.8	generate	Run4	generate/STIM_005.jpg	100
2730.232	1.256	1256.1	generate	Run4	generate/STIM_005.jpg	100
2734.755	1.56	1559.5	generate	Run4	generate/STIM_005.jpg	100
2739.331	2.359	2359.1	generate	Run4	generate/STIM_006.jpg	100
2743.628	1.59	1590.4	generate	Run4	generate/STIM_006.jpg	99
2747.112	2.334	2333.5	generate	Run4	generate/STIM_006.jpg	99
2752.318	1.971	1971.3	generate	Run4	generate/STIM_006.jpg	99
2757.141	2.136	2136.3	generate	Run4	generate/STIM_006.jpg	100
2762.352	1.428	1427.8	generate	Run4	generate/STIM_007.jpg	99
2766.563	2.022	2021.9	generate	Run4	generate/STIM_007.jpg	99
2771.022	1.566	1566.4	generate	Run4	generate/STIM_007.jpg	100
2776.256	1.745	1745.3	generate	Run4	generate/STIM_007.jpg	99
2780.347	2.357	2356.9	generate	Run4	generate/STIM_007.jpg	99
2785.342	1.156	1156.5	generate	Run4	generate/STIM_008.jpg	99
2789.057	1.847	1846.9	generate	Run4	generate/STIM_008.jpg	99
2792.714	1.919	1918.8	generate	Run4	generate/STIM_008.jpg	100
2797.726	1.486	1485.5	generate	Run4	generate/STIM_008.jpg	100
2801.329	1.004	1003.6	generate	Run4	generate/STIM_008.jpg	100
2805.854	1.334	1333.9	generate	Run4	generate/STIM_009.jpg	99
2809.708	2.303	2303.3	generate	Run4	generate/STIM_009.jpg	99
2814.373	2.052	2052.0	generate	Run4	generate/STIM_009.jpg	99
2818.5	2.049	2049.0	generate	Run4	generate/STIM_009.jpg	99
2822.952	2.035	2035.3	generate	Run4	generate/STIM_009.jpg	100
2827.954	1.503	1502.9	generate	Run4	generate/STIM_010.jpg	100
2833.17	2.188	2187.7	generate	Run4	generate/STIM_010.jpg	100
2838.144	1.002	1001.6	generate	Run4	generate/STIM_010.jpg	100
2842.42	1.114	1114.2	generate	Run4	generate/STIM_010.jpg	100
2846.415	1.822	1822.5	generate	Run4	generate/STIM_010.jpg	100
2850.214	2.256	2255.6	generate	Run4	generate/STIM_011.jpg	100
2855.074	1.48	1480.2	generate	Run4	generate/STIM_011.jpg	99
2859.727	1.251	1250.9	generate	Run4	generate/STIM_011.jpg	100
2863.467	1.454	1454.4	generate	Run4	generate/STIM_011.jpg	100
2867.611	1.342	1342.5	generate	Run4	generate/STIM_011.jpg	100
2872.495	2.39	2390.5	generate	Run4	generate/STIM_012.jpg	100
2876.542	1.333	1333.3	generate	Run4	generate/STIM_012.jpg	99
2881.619	1.246	1246.4	generate	Run4	generate/STIM_012.jpg	99
2886.382	1.341	1340.7	generate	Run4	generate/STIM_012.jpg	99
2890.636	1.748	1747.5	generate	Run4	generate/STIM_012.jpg	100
2894.94	2.182	2182.5	generate	Run4	generate/STIM_013.jpg	99
2900.303	1.088	1088.4	generate	Run4	generate/STIM_013.jpg	99
2904.027	1.68	1680.2	generate	Run4	generate/STIM_013.jpg	100
2908.577	1.093	1093.3	generate	Run4	generate/STIM_013.jpg	100
2912.646	1.297	1296.8	generate	Run4	generate/STIM_013.jpg	100
2916.427	1.641	1640.6	generate	Run4	generate/STIM_014.jpg	99
2919.982	1.438	1438.0	generate	Run4	generate/STIM_014.jpg	99
2923.548	2.363	2362.9	generate	Run4	generate/STIM_014.jpg	100
2928.56	1.876	1876.0	generate	Run4	generate/STIM_014.jpg	100
2932.861	2.276	2276.0	generate	Run4	generate/STIM_014.jpg	100
2937.798	1.088	1087.7	generate	Run4	generate/STIM_015.jpg	99
2941.59	1.339	1338.6	generate	Run4	generate/STIM_015.jpg	100
2946.0	1.045	1045.2	generate	Run4	generate/STIM_015.jpg	100
2950.428	2.056	2055.6	generate	Run4	generate/STIM_015.jpg	100
2954.769	2.115	2114.9	generate	Run4	generate/STIM_015.jpg	100
2959.073	1.679	1678.7	generate	Run4	generate/STIM_016.jpg	99
2962.979	2.288	2287.6	generate	Run4	generate/STIM_016.jpg	99
2967.672	2.082	2082.2	generate	Run4	generate/STIM_016.jpg	100
2971.927	1.998	1998.4	generate	Run4	generate/STIM_016.jpg	99
2977.181	2.256	2256.2	generate	Run4	generate/STIM_016.jpg	100
2982.64	1.678	1678.4	generate	Run4	generate/STIM_017.jpg	99
2987.816	1.814	1814.3	generate	Run4	generate/STIM_017.jpg	99
2991.567	2.068	2068.1	generate	Run4	generate/STIM_017.jpg	99
2996.053	1.469	1469.3	generate	Run4	generate/STIM_017.jpg	99
2999.962	1.188	1187.8	generate	Run4	generate/STIM_017.jpg	100
3004.259	1.086	1085.9	generate	Run4	generate/STIM_018.jpg	100
3007.846	1.419	1418.8	generate	Run4	generate/STIM_018.jpg	100
3013.01	1.97	1969.6	generate	Run4	generate/STIM_018.jpg	99
3017.73	1.085	1084.7	generate	Run4	generate/STIM_018.jpg	100
3022.142	1.085	1084.8	generate	Run4	generate/STIM_018.jpg	99
3025.874	0.934	933.8	generate	Run4	generate/STIM_019.jpg	100
3030.042	2.316	2316.1	generate	Run4	generate/STIM_019.jpg	100
3034.16	2.068	2068.0	generate	Run4	generate/STIM_019.jpg	99
3038.135	1.949	1949.0	generate	Run4	generate/STIM_019.jpg	99
3042.496	1.731	1730.6	generate	Run4	generate/STIM_019.jpg	100
3047.359	2.136	2136.5	generate	Run4	generate/STIM_020.jpg	100
3052.988	1.681	1681.4	generate	Run4	generate/STIM_020.jpg	99
3057.742	1.495	1495.4	generate	Run4	generate/STIM_020.jpg	99
3062.664	2.196	2196.2	generate	Run4	generate/STIM_020.jpg	99
3067.029	1.78	1779.5	generate	Run4	generate/STIM_020.jpg	99
3070.94	1.892	1891.7	generate	Run4	generate/STIM_021.jpg	100
3075.23	1.281	1280.9	generate	Run4	generate/STIM_021.jpg	100
3079.918	1.58	1580.5	generate	Run4	generate/STIM_021.jpg	99
3084.078	0.978	977.9	generate	Run4	generate/STIM_021.jpg	100
3088.604	1.696	1695.6	generate	Run4	generate/STIM_021.jpg	99
3092.934	2.395	2395.0	generate	Run4	generate/STIM_022.jpg	99
3098.484	1.39	1389.5	generate	Run4	generate/STIM_022.jpg	100
3103.302	2.115	2115.4	generate	Run4	generate/STIM_022.jpg	99
3109.112	1.984	1983.7	generate	Run4	generate/STIM_022.jpg	100
3113.535	1.797	1797.4	generate	Run4	generate/STIM_022.jpg	99
3117.276	2.034	2034.0	generate	Run4	generate/STIM_023.jpg	100
3121.727	1.897	1897.3	generate	Run4	generate/STIM_023.jpg	100
3127.01	1.442	1441.8	generate	Run4	generate/STIM_023.jpg	99
3131.251	1.108	1108.2	generate	Run4	generate/STIM_023.jpg	99
3135.783	1.042	1042.0	generate	Run4	generate/STIM_023.jpg	99
3138.962	2.238	2238.0	generate	Run4	generate/STIM_024.jpg	100
3144.859	2.159	2159.2	generate	Run4	generate/STIM_024.jpg	100
3149.698	2.102	2101.7	generate	Run4	generate/STIM_024.jpg	100
3154.68	1.566	1566.5	generate	Run4	generate/STIM_024.jpg	100
3158.73	1.212	1212.0	generate	Run4	generate/STIM_024.jpg	100
3163.807	1.066	1065.8	repeat	Run4	repeat/STIM_000.jpg	100
3168.295	1.112	1112.3	repeat	Run4	repeat/STIM_000.jpg	100
3173.168	0.596	596.1	repeat	Run4	repeat/STIM_000.jpg	100
3175.928	0.582	582.2	repeat	Run4	repeat/STIM_000.jpg	100
3178.617	0.694	694.1	repeat	Run4	repeat/STIM_000.jpg	100
3182.029	0.639	638.9	repeat	Run4	repeat/STIM_001.jpg	100
3185.412	0.778	778.3	repeat	Run4	repeat/STIM_001.jpg	99
3189.517	0.943	942.7	repeat	Run4	repeat/STIM_001.jpg	99
3194.042	0.879	879.4	repeat	Run4	repeat/STIM_001.jpg	99
3197.316	1.103	1103.2	repeat	Run4	repeat/STIM_001.jpg	100
3201.031	0.585	585.1	repeat	Run4	repeat/STIM_002.jpg	99
3205.083	1.038	1038.2	repeat	Run4	repeat/STIM_002.jpg	100
3208.806	0.639	639.1	repeat	Run4	repeat/STIM_002.jpg	100
3213.019	0.603	602.9	repeat	Run4	repeat/STIM_002.jpg	99
3216.704	1.062	1062.5	repeat	Run4	repeat/STIM_002.jpg	100
3220.389	1.107	1107.4	repeat	Run4	repeat/STIM_003.jpg	100
3223.925	1.167	1166.8	repeat	Run4	repeat/STIM_003.jpg	99
3228.153	1.148	1147.9	repeat	Run4	repeat/STIM_003.jpg	100
3232.241	0.891	891.3	repeat	Run4	repeat/STIM_003.jpg	100
3236.552	0.833	833.0	repeat	Run4	repeat/STIM_003.jpg	100
3241.05	1.052	1051.7	repeat	Run4	repeat/STIM_004.jpg	99
3245.803	0.918	918.4	repeat	Run4	repeat/STIM_004.jpg	99
3249.361	0.864	863.5	repeat	Run4	repeat/STIM_004.jpg	100
3253.633	0.896	896.3	repeat	Run4	repeat/STIM_004.jpg	100
3257.658	0.9	899.8	repeat	Run4	repeat/STIM_004.jpg	100
3261.696	1.07	1070.2	repeat	Run4	repeat/STIM_005.jpg	100
3265.939	0.911	911.2	repeat	Run4	repeat/STIM_005.jpg	100
3270.016	0.835	834.7	repeat	Run4	repeat/STIM_005.jpg	99
3272.896	0.643	643.3	repeat	Run4	repeat/STIM_005.jpg	100
3277.25	0.787	786.6	repeat	Run4	repeat/STIM_005.jpg	100
3280.014	0.996	995.9	repeat	Run4	repeat/STIM_006.jpg	99
3284.841	0.96	960.0	repeat	Run4	repeat/STIM_006.jpg	99
3289.503	0.643	643.1	repeat	Run4	repeat/STIM_006.jpg	99
3292.125	0.75	750.1	repeat	Run4	repeat/STIM_006.jpg	99
3296.494	0.66	659.8	repeat	Run4	repeat/STIM_006.jpg	100
3300.129	0.576	576.4	repeat	Run4	repeat/STIM_007.jpg	99
3304.43	0.947	947.4	repeat	Run4	repeat/STIM_007.jpg	100
3308.63	0.759	758.8	repeat	Run4	repeat/STIM_007.jpg	99
3311.801	0.636	636.0	repeat	Run4	repeat/STIM_007.jpg	100
3315.299	0.689	688.8	repeat	Run4	repeat/STIM_007.jpg	99
3319.817	1.052	1052.1	repeat	Run4	repeat/STIM_008.jpg	99
3324.514	0.661	661.4	repeat	Run4	repeat/STIM_008.jpg	99
3327.447	1.171	1170.8	repeat	Run4	repeat/STIM_008.jpg	99
3330.887	1.071	1070.9	repeat	Run4	repeat/STIM_008.jpg	99
3335.76	0.885	884.8	repeat	Run4	repeat/STIM_008.jpg	100
3339.429	0.806	806.1	repeat	Run4	repeat/STIM_009.jpg	100
3343.742	0.975	974.7	repeat	Run4	repeat/STIM_009.jpg	100
3347.95	0.647	647.0	repeat	Run4	repeat/STIM_009.jpg	100
3351.737	0.851	851.0	repeat	Run4	repeat/STIM_009.jpg	100
3355.273	1.022	1022.2	repeat	Run4	repeat/STIM_009.jpg	100
3359.568	0.927	926.6	repeat	Run4	repeat/STIM_010.jpg	99
3363.19	0.674	673.7	repeat	Run4	repeat/STIM_010.jpg	99
3366.094	0.874	874.4	repeat	Run4	repeat/STIM_010.jpg	100
3370.057	0.788	787.5	repeat	Run4	repeat/STIM_010.jpg	100
3374.024	1.022	1021.6	repeat	Run4	repeat/STIM_010.jpg	100
3377.904	1.197	1196.8	repeat	Run4	repeat/STIM_011.jpg	99
3382.111	0.876	876.3	repeat	Run4	repeat/STIM_011.jpg	100
3386.211	0.699	699.3	repeat	Run4	repeat/STIM_011.jpg	100
3389.034	0.831	831.1	repeat	Run4	repeat/STIM_011.jpg	99
3392.315	0.524	524.3	repeat	Run4	repeat/STIM_011.jpg	100
3396.329	0.963	962.6	repeat	Run4	repeat/STIM_012.jpg	100
3400.308	1.093	1093.2	repeat	Run4	repeat/STIM_012.jpg	99
3404.223	0.737	737.3	repeat	Run4	repeat/STIM_012.jpg	99
3408.464	0.764	764.4	repeat	Run4	repeat/STIM_012.jpg	100
3412.582	0.621	620.7	repeat	Run4	repeat/STIM_012.jpg	100
3416.301	1.044	1043.7	repeat	Run4	repeat/STIM_013.jpg	100
3420.526	0.611	610.9	repeat	Run4	repeat/STIM_013.jpg	100
3423.347	0.724	724.2	repeat	Run4	repeat/STIM_013.jpg	99
3427.196	1.098	1097.7	repeat	Run4	repeat/STIM_013.jpg	100
3430.648	0.854	854.5	repeat	Run4	repeat/STIM_013.jpg	100
3434.729	1.056	1056.0	repeat	Run4	repeat/STIM_014.jpg	100
3437.986	0.55	550.4	repeat	Run4	repeat/STIM_014.jpg	99
3442.336	0.791	790.6	repeat	Run4	repeat/STIM_014.jpg	100
3445.81	0.674	674.5	repeat	Run4	repeat/STIM_014.jpg	100
3449.991	0.734	734.0	repeat	Run4	repeat/STIM_014.jpg	100
