onset	duration	response_time_ms	trial_type	learning_stage	stimulus	response_port
0.0	0.799	798.7	study	Phase1	study/STIM_000.jpg	100
2.94	1.262	1261.8	study	Phase1	study/STIM_000.jpg	100
8.178	1.284	1284.1	study	Phase1	study/STIM_000.jpg	100
11.507	1.236	1235.5	study	Phase1	study/STIM_001.jpg	99
15.232	1.326	1325.5	study	Phase1	study/STIM_001.jpg	100
18.918	0.959	958.9	study	Phase1	study/STIM_001.jpg	99
22.169	0.86	860.5	study	Phase1	study/STIM_002.jpg	100
26.771	0.946	946.0	study	Phase1	study/STIM_002.jpg	100
29.969	0.668	667.8	study	Phase1	study/STIM_002.jpg	99
34.083	1.609	1609.2	study	Phase1	study/STIM_003.jpg	100
39.399	1.371	1370.6	study	Phase1	study/STIM_003.jpg	100
44.232	1.269	1268.8	study	Phase1	study/STIM_003.jpg	99
49.342	1.635	1634.7	study	Phase1	study/STIM_004.jpg	100
53.61	1.0	999.9	study	Phase1	study/STIM_004.jpg	99
56.625	0.907	906.9	study	Phase1	study/STIM_004.jpg	99
60.781	1.277	1276.6	study	Phase1	study/STIM_005.jpg	100
64.359	1.507	1506.9	study	Phase1	study/STIM_005.jpg	100
68.978	1.1	1100.0	study	Phase1	study/STIM_005.jpg	100
73.955	1.275	1274.7	study	Phase1	study/STIM_006.jpg	99
78.762	0.908	908.2	study	Phase1	study/STIM_006.jpg	100
82.549	0.668	667.5	study	Phase1	study/STIM_006.jpg	99
86.056	1.254	1253.5	study	Phase1	study/STIM_007.jpg	100
90.045	0.988	987.5	study	Phase1	study/STIM_007.jpg	99
94.795	0.844	843.9	study	Phase1	study/STIM_007.jpg	100
97.679	1.597	1597.3	study	Phase1	study/STIM_008.jpg	100
101.323	0.908	908.0	study	Phase1	study/STIM_008.jpg	100
104.982	1.219	1218.8	study	Phase1	study/STIM_008.jpg	100
109.145	1.485	1484.9	study	Phase1	study/STIM_009.jpg	99
114.455	1.311	1311.2	study	Phase1	study/STIM_009.jpg	99
117.8	0.724	724.0	study	Phase1	study/STIM_009.jpg	100
121.711	0.811	811.4	study	Phase1	study/STIM_010.jpg	99
126.019	1.389	1388.6	study	Phase1	study/STIM_010.jpg	99
130.67	0.836	835.5	study	Phase1	study/STIM_010.jpg	99
134.803	1.107	1107.2	study	Phase1	study/STIM_011.jpg	99
139.638	0.692	691.5	study	Phase1	study/STIM_011.jpg	99
143.056	1.0	1000.1	study	Phase1	study/STIM_011.jpg	100
147.812	1.218	1217.6	study	Phase1	study/STIM_012.jpg	100
152.591	1.467	1466.6	study	Phase1	study/STIM_012.jpg	99
157.829	0.826	826.3	study	Phase1	study/STIM_012.jpg	99
161.896	0.868	868.4	study	Phase1	study/STIM_013.jpg	100
166.659	0.796	795.8	study	Phase1	study/STIM_013.jpg	100
170.706	1.248	1248.1	study	Phase1	study/STIM_013.jpg	100
174.692	1.006	1005.6	study	Phase1	study/STIM_014.jpg	99
179.187	0.94	940.5	study	Phase1	study/STIM_014.jpg	99
183.047	1.023	1023.0	study	Phase1	study/STIM_014.jpg	99
186.944	1.617	1617.0	study	Phase1	study/STIM_015.jpg	99
191.947	1.346	1346.5	study	Phase1	study/STIM_015.jpg	99
196.027	0.865	865.3	study	Phase1	study/STIM_015.jpg	100
200.21	0.962	961.6	study	Phase1	study/STIM_016.jpg	99
204.896	1.391	1391.1	study	Phase1	study/STIM_016.jpg	99
210.153	1.168	1168.5	study	Phase1	study/STIM_016.jpg	100
213.724	1.391	1391.3	study	Phase1	study/STIM_017.jpg	100
217.245	1.141	1140.8	study	Phase1	study/STIM_017.jpg	99
222.291	0.714	713.7	study	Phase1	study/STIM_017.jpg	99
225.567	1.22	1219.7	study	Phase1	study/STIM_018.jpg	100
229.877	0.786	786.1	study	Phase1	study/STIM_018.jpg	100
232.899	0.939	938.9	study	Phase1	study/STIM_018.jpg	100
237.821	1.388	1388.3	study	Phase1	study/STIM_019.jpg	99
242.962	0.886	886.3	study	Phase1	study/STIM_019.jpg	99
247.142	0.991	990.6	study	Phase1	study/STIM_019.jpg	99
251.434	1.334	1334.1	study	Phase1	study/STIM_020.jpg	99
254.879	1.445	1444.8	study	Phase1	study/STIM_020.jpg	100
259.251	0.902	901.7	study	Phase1	study/STIM_020.jpg	99
262.606	0.974	974.4	study	Phase1	study/STIM_021.jpg	99
267.525	1.184	1184.1	study	Phase1	study/STIM_021.jpg	100
270.806	1.312	1312.3	study	Phase1	study/STIM_021.jpg	100
274.403	1.113	1112.9	study	Phase1	study/STIM_022.jpg	100
277.709	0.819	818.8	study	Phase1	study/STIM_022.jpg	99
281.998	1.144	1144.4	study	Phase1	study/STIM_022.jpg	99
285.999	1.298	1298.3	study	Phase1	study/STIM_023.jpg	99
291.19	0.797	797.0	study	Phase1	study/STIM_023.jpg	99
295.122	1.423	1422.6	study	Phase1	study/STIM_023.jpg	100
299.813	0.994	994.4	study	Phase1	study/STIM_024.jpg	99
304.018	1.021	1020.8	study	Phase1	study/STIM_024.jpg	100
308.428	0.829	829.3	study	Phase1	study/STIM_024.jpg	100
311.759	1.6	1600.4	study	Phase1	study/STIM_025.jpg	99
315.472	0.998	998.3	study	Phase1	study/STIM_025.jpg	100
319.128	1.356	1355.9	study	Phase1	study/STIM_025.jpg	100
323.213	1.171	1171.0	study	Phase1	study/STIM_026.jpg	99
326.964	1.509	1509.3	study	Phase1	study/STIM_026.jpg	100
332.213	0.875	875.1	study	Phase1	study/STIM_026.jpg	99
336.614	1.111	1110.7	study	Phase1	study/STIM_027.jpg	99
341.451	0.813	812.6	study	Phase1	study/STIM_027.jpg	99
345.912	0.844	843.6	study	Phase1	study/STIM_027.jpg	100
349.631	1.332	1331.9	study	Phase1	study/STIM_028.jpg	99
354.12	1.509	1508.8	study	Phase1	study/STIM_028.jpg	100
359.299	1.055	1055.1	study	Phase1	study/STIM_028.jpg	99
362.902	0.813	813.4	study	Phase1	study/STIM_029.jpg	100
366.219	1.028	1028.1	study	Phase1	study/STIM_029.jpg	99
370.547	1.217	1217.2	study	Phase1	study/STIM_029.jpg	99
375.547	0.994	994.3	test	Phase1	test/STIM_000.jpg	99
379.29	0.788	788.5	test	Phase1	test/STIM_000.jpg	100
383.973	1.066	1066.2	test	Phase1	test/STIM_000.jpg	100
388.932	1.082	1082.2	test	Phase1	test/STIM_001.jpg	99
392.586	0.759	759.1	test	Phase1	test/STIM_001.jpg	99
395.793	0.842	841.7	test	Phase1	test/STIM_001.jpg	100
400.39	0.649	648.8	test	Phase1	test/STIM_002.jpg	99
404.897	1.068	1068.0	test	Phase1	test/STIM_002.jpg	99
409.176	0.823	823.2	test	Phase1	test/STIM_002.jpg	100
412.173	0.587	586.8	test	Phase1	test/STIM_003.jpg	100
415.577	0.58	579.9	test	Phase1	test/STIM_003.jpg	100
419.523	0.69	690.3	test	Phase1	test/STIM_003.jpg	100
423.36	0.925	925.0	test	Phase1	test/STIM_004.jpg	100
427.014	0.589	589.3	test	Phase1	test/STIM_004.jpg	99
430.522	0.675	674.7	test	Phase1	test/STIM_004.jpg	99
434.478	0.918	918.2	test	Phase1	test/STIM_005.jpg	99
438.055	0.66	660.0	test	Phase1	test/STIM_005.jpg	100
441.984	1.042	1041.5	test	Phase1	test/STIM_005.jpg	99
446.474	1.116	1116.4	test	Phase1	test/STIM_006.jpg	100
451.514	0.922	922.5	test	Phase1	test/STIM_006.jpg	99
454.649	1.178	1178.1	test	Phase1	test/STIM_006.jpg	99
457.895	0.794	794.4	test	Phase1	test/STIM_007.jpg	100
462.471	0.85	849.5	test	Phase1	test/STIM_007.jpg	100
466.877	0.866	866.2	test	Phase1	test/STIM_007.jpg	100
471.519	0.963	962.9	test	Phase1	test/STIM_008.jpg	100
474.5	0.601	601.4	test	Phase1	test/STIM_008.jpg	99
478.064	0.759	758.9	test	Phase1	test/STIM_008.jpg	99
481.837	0.598	598.4	test	Phase1	test/STIM_009.jpg	99
485.196	1.092	1091.9	test	Phase1	test/STIM_009.jpg	99
488.325	0.652	651.5	test	Phase1	test/STIM_009.jpg	99
492.293	1.001	1000.7	test	Phase1	test/STIM_010.jpg	100
495.393	0.557	557.3	test	Phase1	test/STIM_010.jpg	100
499.397	1.046	1046.2	test	Phase1	test/STIM_010.jpg	100
504.381	0.692	691.5	test	Phase1	test/STIM_011.jpg	100
507.381	0.573	573.1	test	Phase1	test/STIM_011.jpg	99
509.966	0.841	840.7	test	Phase1	test/STIM_011.jpg	99
512.896	1.14	1140.4	test	Phase1	test/STIM_012.jpg	99
516.826	0.837	837.4	test	Phase1	test/STIM_012.jpg	100
521.257	0.986	985.7	test	Phase1	test/STIM_012.jpg	100
525.458	0.796	795.9	test	Phase1	test/STIM_013.jpg	99
529.334	1.096	1096.0	test	Phase1	test/STIM_013.jpg	99
532.923	0.68	679.8	test	Phase1	test/STIM_013.jpg	100
536.993	0.697	697.3	test	Phase1	test/STIM_014.jpg	99
540.947	0.75	749.9	test	Phase1	test/STIM_014.jpg	100
545.46	0.908	908.1	test	Phase1	test/STIM_014.jpg	100
550.219	0.676	676.3	test	Phase1	test/STIM_015.jpg	99
553.764	0.694	693.8	test	Phase1	test/STIM_015.jpg	99
556.625	0.698	697.7	test	Phase1	test/STIM_015.jpg	100
561.229	0.945	944.8	test	Phase1	test/STIM_016.jpg	100
564.391	0.669	669.0	test	Phase1	test/STIM_016.jpg	100
568.195	0.574	574.2	test	Phase1	test/STIM_016.jpg	100
571.72	0.643	643.3	test	Phase1	test/STIM_017.jpg	100
574.711	1.062	1062.0	test	Phase1	test/STIM_017.jpg	99
579.516	0.816	815.8	test	Phase1	test/STIM_017.jpg	100
583.853	0.893	893.2	test	Phase1	test/STIM_018.jpg	99
587.853	0.858	858.2	test	Phase1	test/STIM_018.jpg	99
591.681	1.119	1118.8	test	Phase1	test/STIM_018.jpg	100
596.185	1.118	1117.5	test	Phase1	test/STIM_019.jpg	100
600.946	0.699	699.4	test	Phase1	test/STIM_019.jpg	99
605.016	0.738	737.5	test	Phase1	test/STIM_019.jpg	99
607.908	1.154	1153.7	test	Phase1	test/STIM_020.jpg	100
611.081	0.848	848.5	test	Phase1	test/STIM_020.jpg	100
615.66	0.839	839.1	test	Phase1	test/STIM_020.jpg	99
620.311	1.17	1170.0	test	Phase1	test/STIM_021.jpg	100
623.637	0.906	905.5	test	Phase1	test/STIM_021.jpg	100
627.72	0.747	747.4	test	Phase1	test/STIM_021.jpg	99
631.628	0.642	641.9	test	Phase1	test/STIM_022.jpg	100
635.435	0.678	678.2	test	Phase1	test/STIM_022.jpg	100
639.543	0.587	587.4	test	Phase1	test/STIM_022.jpg	99
643.149	0.608	607.5	test	Phase1	test/STIM_023.jpg	99
646.378	0.662	661.6	test	Phase1	test/STIM_023.jpg	100
650.132	0.915	914.7	test	Phase1	test/STIM_023.jpg	100
654.92	0.755	754.9	test	Phase1	test/STIM_024.jpg	99
658.048	0.622	622.2	test	Phase1	test/STIM_024.jpg	100
662.02	1.046	1046.4	test	Phase1	test/STIM_024.jpg	99
665.896	1.174	1173.6	test	Phase1	test/STIM_025.jpg	100
669.723	0.67	669.7	test	Phase1	test/STIM_025.jpg	99
673.72	0.742	742.1	test	Phase1	test/STIM_025.jpg	99
676.56	0.771	771.3	test	Phase1	test/STIM_026.jpg	99
680.574	1.036	1036.2	test	Phase1	test/STIM_026.jpg	99
684.348	1.111	1110.8	test	Phase1	test/STIM_026.jpg	99
688.228	0.683	682.6	test	Phase1	test/STIM_027.jpg	100
692.634	0.99	989.5	test	Phase1	test/STIM_027.jpg	100
697.177	1.128	1127.9	test	Phase1	test/STIM_027.jpg	99
701.146	0.658	657.8	test	Phase1	test/STIM_028.jpg	99
704.297	1.044	1043.6	test	Phase1	test/STIM_028.jpg	100
707.654	0.708	707.6	test	Phase1	test/STIM_028.jpg	99
711.12	0.709	709.3	test	Phase1	test/STIM_029.jpg	99
714.612	1.098	1098.0	test	Phase1	test/STIM_029.jpg	100
718.303	0.903	903.4	test	Phase1	test/STIM_029.jpg	99
721.775	0.888	887.8	study	Phase2	study/STIM_000.jpg	99
725.407	1.201	1201.3	study	Phase2	study/STIM_000.jpg	99
729.747	0.928	928.0	study	Phase2	study/STIM_000.jpg	100
733.385	0.805	805.0	study	Phase2	study/STIM_001.jpg	99
738.057	0.736	736.4	study	Phase2	study/STIM_001.jpg	99
741.807	0.812	812.0	study	Phase2	study/STIM_001.jpg	99
746.462	1.345	1344.8	study	Phase2	study/STIM_002.jpg	99
750.368	0.671	670.9	study	Phase2	study/STIM_002.jpg	99
753.602	0.683	683.1	study	Phase2	study/STIM_002.jpg	100
757.786	1.026	1025.8	study	Phase2	study/STIM_003.jpg	99
761.836	1.018	1018.1	study	Phase2	study/STIM_003.jpg	100
765.742	0.954	953.5	study	Phase2	study/STIM_003.jpg	100
769.593	0.886	886.2	study	Phase2	study/STIM_004.jpg	100
773.458	0.892	892.0	study	Phase2	study/STIM_004.jpg	100
778.265	1.201	1201.0	study	Phase2	study/STIM_004.jpg	100
783.324	1.096	1096.3	study	Phase2	study/STIM_005.jpg	100
786.6	0.597	597.4	study	Phase2	study/STIM_005.jpg	100
789.35	1.154	1153.6	study	Phase2	study/STIM_005.jpg	100
793.933	0.642	642.5	study	Phase2	study/STIM_006.jpg	100
796.732	1.257	1257.4	study	Phase2	study/STIM_006.jpg	99
800.302	0.928	927.8	study	Phase2	study/STIM_006.jpg	100
803.521	0.681	680.8	study	Phase2	study/STIM_007.jpg	99
807.293	0.82	820.4	study	Phase2	study/STIM_007.jpg	99
811.058	0.895	895.2	study	Phase2	study/STIM_007.jpg	100
814.922	0.696	696.1	study	Phase2	study/STIM_008.jpg	100
818.134	1.272	1271.8	study	Phase2	study/STIM_008.jpg	100
823.12	0.939	939.1	study	Phase2	study/STIM_008.jpg	99
826.079	0.762	762.4	study	Phase2	study/STIM_009.jpg	99
829.434	1.27	1270.5	study	Phase2	study/STIM_009.jpg	100
834.648	0.99	989.5	study	Phase2	study/STIM_009.jpg	100
838.426	0.765	765.2	study	Phase2	study/STIM_010.jpg	99
842.504	1.289	1288.8	study	Phase2	study/STIM_010.jpg	100
847.336	0.794	794.2	study	Phase2	study/STIM_010.jpg	100
851.87	0.797	796.6	study	Phase2	study/STIM_011.jpg	99
856.135	1.137	1137.2	study	Phase2	study/STIM_011.jpg	99
860.891	0.724	723.8	study	Phase2	study/STIM_011.jpg	100
863.846	1.05	1049.6	study	Phase2	study/STIM_012.jpg	100
867.25	1.204	1203.8	study	Phase2	study/STIM_012.jpg	99
871.098	0.584	584.5	study	Phase2	study/STIM_012.jpg	99
874.083	1.345	1344.8	study	Phase2	study/STIM_013.jpg	99
878.601	0.988	988.2	study	Phase2	study/STIM_013.jpg	99
883.293	0.67	670.5	study	Phase2	study/STIM_013.jpg	99
886.379	0.648	648.5	study	Phase2	study/STIM_014.jpg	100
890.302	1.04	1040.5	study	Phase2	study/STIM_014.jpg	100
893.621	1.027	1027.0	study	Phase2	study/STIM_014.jpg	100
897.283	0.863	863.1	study	Phase2	study/STIM_015.jpg	100
901.926	0.782	781.7	study	Phase2	study/STIM_015.jpg	100
905.161	1.096	1096.5	study	Phase2	study/STIM_015.jpg	99
909.774	1.048	1047.7	study	Phase2	study/STIM_016.jpg	100
914.053	0.722	721.8	study	Phase2	study/STIM_016.jpg	100
917.669	1.203	1203.1	study	Phase2	study/STIM_016.jpg	100
922.525	1.276	1276.1	study	Phase2	study/STIM_017.jpg	100
926.551	1.225	1224.9	study	Phase2	study/STIM_017.jpg	100
931.768	0.923	922.6	study	Phase2	study/STIM_017.jpg	100
935.275	0.75	749.9	study	Phase2	study/STIM_018.jpg	99
938.748	0.802	801.9	study	Phase2	study/STIM_018.jpg	100
942.62	0.947	946.7	study	Phase2	study/STIM_018.jpg	99
945.591	0.998	998.2	study	Phase2	study/STIM_019.jpg	100
948.866	1.002	1002.0	study	Phase2	study/STIM_019.jpg	100
952.906	0.964	964.4	study	Phase2	study/STIM_019.jpg	99
956.119	0.785	785.0	study	Phase2	study/STIM_020.jpg	100
960.868	0.736	735.5	study	Phase2	study/STIM_020.jpg	99
965.166	1.026	1026.3	study	Phase2	study/STIM_020.jpg	99
969.36	0.762	762.3	study	Phase2	study/STIM_021.jpg	100
972.825	1.182	1182.4	study	Phase2	study/STIM_021.jpg	99
977.536	1.153	1152.6	study	Phase2	study/STIM_021.jpg	99
981.423	1.28	1279.6	study	Phase2	study/STIM_022.jpg	99
984.752	0.619	618.8	study	Phase2	study/STIM_022.jpg	100
989.155	0.93	930.3	study	Phase2	study/STIM_022.jpg	100
993.24	1.137	1136.9	study	Phase2	study/STIM_023.jpg	99
997.071	0.863	863.3	study	Phase2	study/STIM_023.jpg	100
1001.234	1.075	1075.2	study	Phase2	study/STIM_023.jpg	99
1005.062	0.876	875.7	study	Phase2	study/STIM_024.jpg	100
1008.599	1.018	1017.6	study	Phase2	study/STIM_024.jpg	100
1012.278	0.592	592.1	study	Phase2	study/STIM_024.jpg	99
1015.417	1.382	1382.3	study	Phase2	study/STIM_025.jpg	99
1019.653	1.039	1038.8	study	Phase2	study/STIM_025.jpg	99
1022.861	0.904	904.1	study	Phase2	study/STIM_025.jpg	100
1027.705	1.08	1080.0	study	Phase2	study/STIM_026.jpg	100
1031.055	1.108	1108.3	study	Phase2	study/STIM_026.jpg	99
1035.389	1.117	1117.3	study	Phase2	study/STIM_026.jpg	100
1038.937	0.961	961.2	study	Phase2	study/STIM_027.jpg	99
1043.327	1.022	1022.3	study	Phase2	study/STIM_027.jpg	100
1048.018	0.649	649.1	study	Phase2	study/STIM_027.jpg	100
1052.28	0.987	987.3	study	Phase2	study/STIM_028.jpg	100
1057.132	1.178	1177.9	study	Phase2	study/STIM_028.jpg	99
1061.594	0.567	567.0	study	Phase2	study/STIM_028.jpg	100
1065.801	1.112	1112.1	study	Phase2	study/STIM_029.jpg	100
1068.937	0.773	773.1	study	Phase2	study/STIM_029.jpg	99
1073.463	1.148	1147.5	study	Phase2	study/STIM_029.jpg	99
1076.8	0.632	631.5	test	Phase2	test/STIM_000.jpg	99
1079.948	0.592	591.9	test	Phase2	test/STIM_000.jpg	99
1084.25	0.59	589.6	test	Phase2	test/STIM_000.jpg	99
1087.364	1.039	1038.8	test	Phase2	test/STIM_001.jpg	100
1091.664	1.126	1126.1	test	Phase2	test/STIM_001.jpg	99
1095.113	0.666	666.3	test	Phase2	test/STIM_001.jpg	99
1099.016	0.679	679.0	test	Phase2	test/STIM_002.jpg	99
1103.066	0.924	924.5	test	Phase2	test/STIM_002.jpg	99
1106.818	0.762	761.8	test	Phase2	test/STIM_002.jpg	100
1110.42	0.585	584.8	test	Phase2	test/STIM_003.jpg	99
1113.4	0.761	761.0	test	Phase2	test/STIM_003.jpg	100
1116.306	1.151	1150.8	test	Phase2	test/STIM_003.jpg	99
1119.769	0.899	899.2	test	Phase2	test/STIM_004.jpg	99
1123.358	0.846	846.2	test	Phase2	test/STIM_004.jpg	99
1126.604	0.888	887.9	test	Phase2	test/STIM_004.jpg	99
1129.936	0.874	873.6	test	Phase2	test/STIM_005.jpg	99
1134.411	0.923	923.0	test	Phase2	test/STIM_005.jpg	100
1138.385	1.173	1173.4	test	Phase2	test/STIM_005.jpg	99
1142.998	0.549	549.3	test	Phase2	test/STIM_006.jpg	99
1146.991	1.029	1028.8	test	Phase2	test/STIM_006.jpg	99
1150.687	0.621	620.8	test	Phase2	test/STIM_006.jpg	100
1154.216	0.827	827.2	test	Phase2	test/STIM_007.jpg	100
1158.434	1.132	1132.5	test	Phase2	test/STIM_007.jpg	99
1162.193	0.958	958.2	test	Phase2	test/STIM_007.jpg	100
1166.343	0.944	943.5	test	Phase2	test/STIM_008.jpg	100
1171.076	0.635	634.8	test	Phase2	test/STIM_008.jpg	99
1174.295	0.898	898.0	test	Phase2	test/STIM_008.jpg	100
1178.018	0.929	929.4	test	Phase2	test/STIM_009.jpg	99
1181.873	1.128	1128.4	test	Phase2	test/STIM_009.jpg	100
1186.095	1.035	1034.7	test	Phase2	test/STIM_009.jpg	100
1190.192	1.012	1011.7	test	Phase2	test/STIM_010.jpg	99
1195.006	1.042	1041.7	test	Phase2	test/STIM_010.jpg	99
1198.091	0.663	662.6	test	Phase2	test/STIM_010.jpg	99
1201.877	0.914	913.7	test	Phase2	test/STIM_011.jpg	100
1205.674	1.046	1046.1	test	Phase2	test/STIM_011.jpg	99
1209.865	0.989	988.9	test	Phase2	test/STIM_011.jpg	100
1214.553	0.836	835.8	test	Phase2	test/STIM_012.jpg	99
1218.122	0.877	877.4	test	Phase2	test/STIM_012.jpg	99
1222.181	0.834	834.0	test	Phase2	test/STIM_012.jpg	100
1225.563	0.588	587.7	test	Phase2	test/STIM_013.jpg	100
1228.287	1.136	1135.7	test	Phase2	test/STIM_013.jpg	100
1231.535	0.626	625.6	test	Phase2	test/STIM_013.jpg	100
1234.192	1.128	1128.0	test	Phase2	test/STIM_014.jpg	100
1238.329	1.135	1135.0	test	Phase2	test/STIM_014.jpg	100
1243.171	1.058	1058.0	test	Phase2	test/STIM_014.jpg	99
1246.867	0.901	900.9	test	Phase2	test/STIM_015.jpg	100
1249.937	0.674	673.5	test	Phase2	test/STIM_015.jpg	99
1253.967	0.65	650.2	test	Phase2	test/STIM_015.jpg	100
1258.474	0.596	596.2	test	Phase2	test/STIM_016.jpg	99
1261.633	0.742	742.1	test	Phase2	test/STIM_016.jpg	99
1265.37	1.153	1153.2	test	Phase2	test/STIM_016.jpg	100
1269.677	0.72	720.2	test	Phase2	test/STIM_017.jpg	100
1274.371	1.001	1001.3	test	Phase2	test/STIM_017.jpg	100
1278.699	0.637	637.0	test	Phase2	test/STIM_017.jpg	100
1282.107	1.179	1179.1	test	Phase2	test/STIM_018.jpg	100
1286.171	0.854	854.0	test	Phase2	test/STIM_018.jpg	99
1289.418	0.75	749.7	test	Phase2	test/STIM_018.jpg	100
1293.963	1.04	1039.9	test	Phase2	test/STIM_019.jpg	99
1297.632	0.674	674.2	test	Phase2	test/STIM_019.jpg	99
1302.165	1.125	1124.8	test	Phase2	test/STIM_019.jpg	100
1305.941	1.108	1108.5	test	Phase2	test/STIM_020.jpg	99
1309.127	0.766	765.6	test	Phase2	test/STIM_020.jpg	100
1313.782	0.816	815.8	test	Phase2	test/STIM_020.jpg	100
1317.367	0.582	581.8	test	Phase2	test/STIM_021.jpg	100
1320.015	0.546	546.1	test	Phase2	test/STIM_021.jpg	99
1322.869	0.734	734.0	test	Phase2	test/STIM_021.jpg	99
1327.188	0.792	792.2	test	Phase2	test/STIM_022.jpg	100
1330.886	1.131	1131.1	test	Phase2	test/STIM_022.jpg	99
1335.049	1.155	1155.3	test	Phase2	test/STIM_022.jpg	99
1338.504	0.926	926.5	test	Phase2	test/STIM_023.jpg	99
1342.049	1.079	1079.0	test	Phase2	test/STIM_023.jpg	99
1345.702	0.548	548.5	test	Phase2	test/STIM_023.jpg	100
1348.751	0.564	563.5	test	Phase2	test/STIM_024.jpg	100
1352.661	0.809	809.2	test	Phase2	test/STIM_024.jpg	100
1357.23	1.071	1070.7	test	Phase2	test/STIM_024.jpg	100
1360.851	0.868	868.3	test	Phase2	test/STIM_025.jpg	100
1363.741	0.935	935.4	test	Phase2	test/STIM_025.jpg	99
1368.31	0.683	683.4	test	Phase2	test/STIM_025.jpg	100
1371.425	1.138	1138.3	test	Phase2	test/STIM_026.jpg	100
1376.093	1.174	1173.5	test	Phase2	test/STIM_026.jpg	100
1380.086	1.08	1079.7	test	Phase2	test/STIM_026.jpg	100
1384.903	0.648	648.1	test	Phase2	test/STIM_027.jpg	100
1388.724	0.889	889.3	test	Phase2	test/STIM_027.jpg	100
1392.159	0.593	593.0	test	Phase2	test/STIM_027.jpg	99
1395.357	0.709	708.7	test	Phase2	test/STIM_028.jpg	100
1398.461	0.696	695.5	test	Phase2	test/STIM_028.jpg	99
1402.15	1.099	1098.7	test	Phase2	test/STIM_028.jpg	99
1406.481	0.78	780.1	test	Phase2	test/STIM_029.jpg	99
1410.465	1.052	1051.6	test	Phase2	test/STIM_029.jpg	100
1415.341	1.179	1179.2	test	Phase2	test/STIM_029.jpg	100
1419.795	0.599	598.6	study	Phase3	study/STIM_000.jpg	99
1423.369	0.951	950.7	study	Phase3	study/STIM_000.jpg	100
1426.974	0.955	954.8	study	Phase3	study/STIM_000.jpg	99
1430.971	0.852	852.0	study	Phase3	study/STIM_001.jpg	100
1434.628	0.643	643.2	study	Phase3	study/STIM_001.jpg	100
1437.857	0.687	686.7	study	Phase3	study/STIM_001.jpg	100
1441.731	0.944	943.5	study	Phase3	study/STIM_002.jpg	100
1445.637	1.1	1100.0	study	Phase3	study/STIM_002.jpg	99
1449.159	0.779	778.8	study	Phase3	study/STIM_002.jpg	99
1453.429	0.728	728.4	study	Phase3	study/STIM_003.jpg	99
1456.742	0.618	618.4	study	Phase3	study/STIM_003.jpg	99
1461.35	0.649	648.9	study	Phase3	study/STIM_003.jpg	100
1465.643	0.659	659.3	study	Phase3	study/STIM_004.jpg	99
1469.974	0.948	948.2	study	Phase3	study/STIM_004.jpg	100
1474.821	0.727	727.0	study	Phase3	study/STIM_004.jpg	99
1477.841	0.956	955.5	study	Phase3	study/STIM_005.jpg	100
1482.488	0.703	702.8	study	Phase3	study/STIM_005.jpg	100
1486.795	1.027	1027.3	study	Phase3	study/STIM_005.jpg	99
1490.93	0.941	941.4	study	Phase3	study/STIM_006.jpg	99
1494.939	1.046	1046.4	study	Phase3	study/STIM_006.jpg	99
1499.683	0.68	679.9	study	Phase3	study/STIM_006.jpg	100
1502.643	1.035	1035.1	study	Phase3	study/STIM_007.jpg	99
1505.949	1.099	1098.6	study	Phase3	study/STIM_007.jpg	100
1509.29	1.088	1087.8	study	Phase3	study/STIM_007.jpg	99
1514.14	0.75	749.5	study	Phase3	study/STIM_008.jpg	100
1517.16	1.094	1093.8	study	Phase3	study/STIM_008.jpg	100
1520.705	0.972	972.4	study	Phase3	study/STIM_008.jpg	100
1524.725	0.671	671.0	study	Phase3	study/STIM_009.jpg	100
1528.419	1.096	1095.5	study	Phase3	study/STIM_009.jpg	99
1532.522	0.951	950.8	study	Phase3	study/STIM_009.jpg	100
1535.503	0.842	841.6	study	Phase3	study/STIM_010.jpg	100
1539.16	0.538	537.9	study	Phase3	study/STIM_010.jpg	99
1543.286	0.635	635.2	study	Phase3	study/STIM_010.jpg	100
1546.5	0.574	574.2	study	Phase3	study/STIM_011.jpg	99
1550.819	0.702	701.9	study	Phase3	study/STIM_011.jpg	100
1555.236	1.131	1131.3	study	Phase3	study/STIM_011.jpg	99
1560.268	0.779	778.7	study	Phase3	study/STIM_012.jpg	99
1564.922	0.543	543.0	study	Phase3	study/STIM_012.jpg	100
1568.945	0.71	709.8	study	Phase3	study/STIM_012.jpg	100
1573.269	0.614	614.0	study	Phase3	study/STIM_013.jpg	99
1577.704	0.642	642.1	study	Phase3	study/STIM_013.jpg	99
1581.191	1.094	1093.5	study	Phase3	study/STIM_013.jpg	99
1585.115	1.096	1095.9	study	Phase3	study/STIM_014.jpg	99
1589.162	0.847	846.9	study	Phase3	study/STIM_014.jpg	99
1593.625	0.695	695.3	study	Phase3	study/STIM_014.jpg	99
1597.751	0.745	745.2	study	Phase3	study/STIM_015.jpg	100
1601.339	0.83	830.3	study	Phase3	study/STIM_015.jpg	100
1605.939	0.898	897.5	study	Phase3	study/STIM_015.jpg	100
1609.02	0.85	850.0	study	Phase3	study/STIM_016.jpg	99
1613.735	0.656	656.0	study	Phase3	study/STIM_016.jpg	100
1617.924	0.812	812.4	study	Phase3	study/STIM_016.jpg	100
1622.46	0.964	963.9	study	Phase3	study/STIM_017.jpg	100
1625.744	0.886	885.7	study	Phase3	study/STIM_017.jpg	100
1629.732	0.866	866.1	study	Phase3	study/STIM_017.jpg	99
1633.738	0.75	750.5	study	Phase3	study/STIM_018.jpg	100
1637.525	0.824	824.3	study	Phase3	study/STIM_018.jpg	100
1640.452	0.64	640.0	study	Phase3	study/STIM_018.jpg	99
1644.163	0.594	594.2	study	Phase3	study/STIM_019.jpg	99
1647.603	0.925	925.2	study	Phase3	study/STIM_019.jpg	99
1651.145	0.73	730.2	study	Phase3	study/STIM_019.jpg	100
1655.774	0.819	818.6	study	Phase3	study/STIM_020.jpg	100
1660.462	0.808	808.1	study	Phase3	study/STIM_020.jpg	99
1664.35	0.67	669.9	study	Phase3	study/STIM_020.jpg	100
1668.302	1.117	1116.9	study	Phase3	study/STIM_021.jpg	100
1672.657	0.838	838.0	study	Phase3	study/STIM_021.jpg	99
1675.556	0.993	993.4	study	Phase3	study/STIM_021.jpg	99
1679.764	1.066	1066.3	study	Phase3	study/STIM_022.jpg	100
1684.262	0.92	920.1	study	Phase3	study/STIM_022.jpg	99
1687.408	0.725	724.6	study	Phase3	study/STIM_022.jpg	100
1690.186	1.001	1000.9	study	Phase3	study/STIM_023.jpg	100
1694.306	0.637	637.2	study	Phase3	study/STIM_023.jpg	100
1697.611	1.096	1095.7	study	Phase3	study/STIM_023.jpg	100
1700.804	1.071	1070.7	study	Phase3	study/STIM_024.jpg	99
1705.117	1.073	1072.9	study	Phase3	study/STIM_024.jpg	100
1709.783	0.815	814.7	study	Phase3	study/STIM_024.jpg	100
1714.525	1.076	1075.5	study	Phase3	study/STIM_025.jpg	100
1717.771	1.133	1132.7	study	Phase3	study/STIM_025.jpg	99
1721.625	0.598	598.5	study	Phase3	study/STIM_025.jpg	99
1725.815	0.591	590.8	study	Phase3	study/STIM_026.jpg	99
1728.749	0.745	744.8	study	Phase3	study/STIM_026.jpg	99
1732.781	0.97	970.4	study	Phase3	study/STIM_026.jpg	99
1735.758	0.945	944.8	study	Phase3	study/STIM_027.jpg	99
1738.827	0.781	781.0	study	Phase3	study/STIM_027.jpg	99
1741.99	0.821	820.9	study	Phase3	study/STIM_027.jpg	99
1745.0	0.563	563.2	study	Phase3	study/STIM_028.jpg	99
1747.663	0.899	898.7	study	Phase3	study/STIM_028.jpg	100
1752.287	1.072	1072.3	study	Phase3	study/STIM_028.jpg	100
1755.489	1.077	1076.6	study	Phase3	study/STIM_029.jpg	100
1758.928	1.005	1004.8	study	Phase3	study/STIM_029.jpg	100
1762.945	0.982	982.1	study	Phase3	study/STIM_029.jpg	100
1766.266	1.162	1162.0	test	Phase3	test/STIM_000.jpg	100
1769.891	0.911	910.7	test	Phase3	test/STIM_000.jpg	99
1774.532	0.831	831.0	test	Phase3	test/STIM_000.jpg	99
1779.307	1.17	1169.8	test	Phase3	test/STIM_001.jpg	100
1784.366	0.718	717.6	test	Phase3	test/STIM_001.jpg	100
1787.21	0.956	956.4	test	Phase3	test/STIM_001.jpg	99
1791.721	1.148	1147.8	test	Phase3	test/STIM_002.jpg	100
1795.683	0.952	952.3	test	Phase3	test/STIM_002.jpg	99
1799.526	1.131	1130.6	test	Phase3	test/STIM_002.jpg	100
1804.169	0.678	677.9	test	Phase3	test/STIM_003.jpg	99
1808.55	0.755	755.3	test	Phase3	test/STIM_003.jpg	100
1812.207	0.993	992.8	test	Phase3	test/STIM_003.jpg	99
1815.721	1.119	1118.8	test	Phase3	test/STIM_004.jpg	100
1820.02	1.137	1136.8	test	Phase3	test/STIM_004.jpg	99
1824.22	0.702	702.4	test	Phase3	test/STIM_004.jpg	100
1827.389	1.12	1120.0	test	Phase3	test/STIM_005.jpg	100
1830.981	1.136	1135.9	test	Phase3	test/STIM_005.jpg	99
1835.564	0.887	887.4	test	Phase3	test/STIM_005.jpg	100
1838.817	0.977	977.4	test	Phase3	test/STIM_006.jpg	100
1841.996	0.753	753.3	test	Phase3	test/STIM_006.jpg	99
1845.2	0.583	583.4	test	Phase3	test/STIM_006.jpg	100
1848.334	0.86	860.5	test	Phase3	test/STIM_007.jpg	100
1851.756	1.075	1074.7	test	Phase3	test/STIM_007.jpg	99
1855.452	0.765	765.0	test	Phase3	test/STIM_007.jpg	100
1860.118	1.165	1164.9	test	Phase3	test/STIM_008.jpg	99
1864.539	0.742	741.8	test	Phase3	test/STIM_008.jpg	99
1868.766	0.998	998.2	test	Phase3	test/STIM_008.jpg	99
1872.961	0.917	916.7	test	Phase3	test/STIM_009.jpg	100
1876.18	0.825	824.6	test	Phase3	test/STIM_009.jpg	100
1880.76	0.801	801.1	test	Phase3	test/STIM_009.jpg	99
1884.196	1.147	1146.8	test	Phase3	test/STIM_010.jpg	99
1888.393	0.75	750.2	test	Phase3	test/STIM_010.jpg	100
1891.302	0.979	979.1	test	Phase3	test/STIM_010.jpg	99
1896.18	0.999	998.9	test	Phase3	test/STIM_011.jpg	99
1900.433	0.588	587.5	test	Phase3	test/STIM_011.jpg	99
1904.353	0.613	613.1	test	Phase3	test/STIM_011.jpg	99
1907.914	0.851	850.8	test	Phase3	test/STIM_012.jpg	100
1911.665	0.695	694.7	test	Phase3	test/STIM_012.jpg	100
1915.836	0.591	590.7	test	Phase3	test/STIM_012.jpg	100
1919.591	1.008	1008.2	test	Phase3	test/STIM_013.jpg	99
1923.045	1.058	1057.6	test	Phase3	test/STIM_013.jpg	100
1926.434	0.727	726.9	test	Phase3	test/STIM_013.jpg	99
1929.568	1.126	1126.4	test	Phase3	test/STIM_014.jpg	100
1934.302	0.807	807.2	test	Phase3	test/STIM_014.jpg	99
1938.701	0.623	622.6	test	Phase3	test/STIM_014.jpg	99
1942.08	1.068	1068.1	test	Phase3	test/STIM_015.jpg	100
1945.526	0.85	850.2	test	Phase3	test/STIM_015.jpg	100
1949.465	0.706	705.8	test	Phase3	test/STIM_015.jpg	99
1953.887	0.566	566.3	test	Phase3	test/STIM_016.jpg	99
1956.899	0.781	781.4	test	Phase3	test/STIM_016.jpg	100
1960.745	0.89	889.6	test	Phase3	test/STIM_016.jpg	99
1965.259	0.647	647.3	test	Phase3	test/STIM_017.jpg	100
1968.509	1.072	1072.2	test	Phase3	test/STIM_017.jpg	100
1971.867	0.65	649.7	test	Phase3	test/STIM_017.jpg	100
1975.25	0.708	708.0	test	Phase3	test/STIM_018.jpg	99
1979.68	0.827	827.1	test	Phase3	test/STIM_018.jpg	100
1983.367	0.986	985.6	test	Phase3	test/STIM_018.jpg	100
1988.142	0.752	752.4	test	Phase3	test/STIM_019.jpg	99
1992.262	1.079	1079.4	test	Phase3	test/STIM_019.jpg	99
1996.262	0.577	577.0	test	Phase3	test/STIM_019.jpg	100
2000.658	0.832	831.7	test	Phase3	test/STIM_020.jpg	99
2004.784	0.623	623.0	test	Phase3	test/STIM_020.jpg	99
2007.988	0.978	978.3	test	Phase3	test/STIM_020.jpg	99
2011.28	1.148	1147.7	test	Phase3	test/STIM_021.jpg	99
2016.278	0.641	640.9	test	Phase3	test/STIM_021.jpg	100
2019.78	0.808	807.5	test	Phase3	test/STIM_021.jpg	99
2024.287	1.051	1051.0	test	Phase3	test/STIM_022.jpg	99
2028.016	0.711	710.6	test	Phase3	test/STIM_022.jpg	100
2031.512	1.168	1168.4	test	Phase3	test/STIM_022.jpg	100
2035.02	1.137	1137.3	test	Phase3	test/STIM_023.jpg	100
2039.324	1.092	1091.9	test	Phase3	test/STIM_023.jpg	100
2044.138	1.121	1121.2	test	Phase3	test/STIM_023.jpg	100
2048.281	1.052	1051.7	test	Phase3	test/STIM_024.jpg	100
2052.617	1.133	1132.9	test	Phase3	test/STIM_024.jpg	99
2056.828	0.904	904.2	test	Phase3	test/STIM_024.jpg	100
2060.469	1.035	1035.0	test	Phase3	test/STIM_025.jpg	100
2064.772	0.856	856.1	test	Phase3	test/STIM_025.jpg	100
2069.623	0.598	598.0	test	Phase3	test/STIM_025.jpg	100
2073.333	0.934	933.9	test	Phase3	test/STIM_026.jpg	99
2078.179	0.6	599.9	test	Phase3	test/STIM_026.jpg	100
2081.375	1.012	1012.1	test	Phase3	test/STIM_026.jpg	100
2084.511	0.641	640.8	test	Phase3	test/STIM_027.jpg	100
2088.56	1.137	1136.9	test	Phase3	test/STIM_027.jpg	100
2092.748	0.783	782.7	test	Phase3	test/STIM_027.jpg	99
2096.786	0.875	875.4	test	Phase3	test/STIM_028.jpg	100
2101.421	1.056	1055.9	test	Phase3	test/STIM_028.jpg	99
2105.303	0.57	570.2	test	Phase3	test/STIM_028.jpg	99
2109.44	1.142	1141.7	test	Phase3	test/STIM_029.jpg	100
2114.341	0.874	874.4	test	Phase3	test/STIM_029.jpg	99
2117.659	1.064	1063.7	test	Phase3	test/STIM_029.jpg	99
