onset	duration	accuracy_binary	trial_type	learning_stage	stimulus
0.0	1.686	0	study	Phase1	study/STIM_000.jpg
3.717	0.776	1	study	Phase1	study/STIM_000.jpg
6.688	1.399	1	study	Phase1	study/STIM_000.jpg
10.722	1.512	1	study	Phase1	study/STIM_001.jpg
15.818	0.917	1	study	Phase1	study/STIM_001.jpg
18.897	1.085	1	study	Phase1	study/STIM_001.jpg
23.895	0.806	1	study	Phase1	study/STIM_002.jpg
28.177	1.134	0	study	Phase1	study/STIM_002.jpg
32.598	1.535	0	study	Phase1	study/STIM_002.jpg
36.598	1.28	0	study	Phase1	study/STIM_003.jpg
41.137	0.818	1	study	Phase1	study/STIM_003.jpg
45.844	0.726	1	study	Phase1	study/STIM_003.jpg
49.786	1.09	1	study	Phase1	study/STIM_004.jpg
53.481	0.998	1	study	Phase1	study/STIM_004.jpg
56.741	1.399	1	study	Phase1	study/STIM_004.jpg
60.298	1.473	0	study	Phase1	study/STIM_005.jpg
65.703	1.261	1	study	Phase1	study/STIM_005.jpg
70.563	0.719	1	study	Phase1	study/STIM_005.jpg
74.468	1.39	1	study	Phase1	study/STIM_006.jpg
77.94	0.846	1	study	Phase1	study/STIM_006.jpg
81.622	1.018	1	study	Phase1	study/STIM_006.jpg
86.355	0.867	1	study	Phase1	study/STIM_007.jpg
90.175	1.239	1	study	Phase1	study/STIM_007.jpg
94.806	0.726	1	study	Phase1	study/STIM_007.jpg
98.069	1.152	1	study	Phase1	study/STIM_008.jpg
103.154	1.228	0	study	Phase1	study/STIM_008.jpg
106.863	1.177	1	study	Phase1	study/STIM_008.jpg
111.782	1.137	1	study	Phase1	study/STIM_009.jpg
116.064	1.551	1	study	Phase1	study/STIM_009.jpg
119.997	1.413	1	study	Phase1	study/STIM_009.jpg
124.198	1.506	1	study	Phase1	study/STIM_010.jpg
127.901	0.9	1	study	Phase1	study/STIM_010.jpg
132.079	1.439	1	study	Phase1	study/STIM_010.jpg
136.953	1.512	1	study	Phase1	study/STIM_011.jpg
140.585	1.383	1	study	Phase1	study/STIM_011.jpg
144.027	1.027	1	study	Phase1	study/STIM_011.jpg
147.541	0.889	1	study	Phase1	study/STIM_012.jpg
152.288	1.183	0	study	Phase1	study/STIM_012.jpg
156.316	0.879	1	study	Phase1	study/STIM_012.jpg
159.305	1.578	0	study	Phase1	study/STIM_013.jpg
163.832	1.324	1	study	Phase1	study/STIM_013.jpg
167.816	1.14	1	study	Phase1	study/STIM_013.jpg
171.248	1.106	1	study	Phase1	study/STIM_014.jpg
174.535	0.719	1	study	Phase1	study/STIM_014.jpg
178.807	1.506	1	study	Phase1	study/STIM_014.jpg
183.012	1.023	1	study	Phase1	study/STIM_015.jpg
186.122	1.081	1	study	Phase1	study/STIM_015.jpg
190.022	1.149	1	study	Phase1	study/STIM_015.jpg
194.001	1.406	1	study	Phase1	study/STIM_016.jpg
198.769	1.228	1	study	Phase1	study/STIM_016.jpg
203.971	0.989	1	study	Phase1	study/STIM_016.jpg
208.807	1.121	1	study	Phase1	study/STIM_017.jpg
213.217	1.01	1	study	Phase1	study/STIM_017.jpg
216.536	1.487	1	study	Phase1	study/STIM_017.jpg
221.833	1.031	0	study	Phase1	study/STIM_018.jpg
225.326	0.982	1	study	Phase1	study/STIM_018.jpg
229.459	1.208	1	study	Phase1	study/STIM_018.jpg
232.772	1.539	0	study	Phase1	study/STIM_019.jpg
236.97	0.74	1	study	Phase1	study/STIM_019.jpg
240.628	1.179	1	study	Phase1	study/STIM_019.jpg
244.916	1.613	1	study	Phase1	study/STIM_020.jpg
250.264	1.313	1	study	Phase1	study/STIM_020.jpg
253.909	1.097	1	study	Phase1	study/STIM_020.jpg
258.285	1.418	0	study	Phase1	study/STIM_021.jpg
262.998	1.553	0	study	Phase1	study/STIM_021.jpg
267.318	1.022	0	study	Phase1	study/STIM_021.jpg
270.662	1.08	1	study	Phase1	study/STIM_022.jpg
275.598	1.424	1	study	Phase1	study/STIM_022.jpg
280.724	1.494	1	study	Phase1	study/STIM_022.jpg
285.039	0.9	1	study	Phase1	study/STIM_023.jpg
289.283	1.07	1	study	Phase1	study/STIM_023.jpg
292.978	1.11	1	study	Phase1	study/STIM_023.jpg
296.749	1.457	0	study	Phase1	study/STIM_024.jpg
302.13	1.59	1	study	Phase1	study/STIM_024.jpg
307.129	1.369	1	study	Phase1	study/STIM_024.jpg
311.626	1.64	1	study	Phase1	study/STIM_025.jpg
315.489	1.483	1	study	Phase1	study/STIM_025.jpg
320.061	1.052	0	study	Phase1	study/STIM_025.jpg
325.022	1.46	1	study	Phase1	study/STIM_026.jpg
328.835	1.526	1	study	Phase1	study/STIM_026.jpg
332.581	1.154	1	study	Phase1	study/STIM_026.jpg
336.519	1.399	1	study	Phase1	study/STIM_027.jpg
340.224	1.35	0	study	Phase1	study/STIM_027.jpg
343.899	1.47	1	study	Phase1	study/STIM_027.jpg
348.789	0.859	1	study	Phase1	study/STIM_028.jpg
352.657	1.266	1	study	Phase1	study/STIM_028.jpg
356.988	1.41	1	study	Phase1	study/STIM_028.jpg
361.416	1.413	0	study	Phase1	study/STIM_029.jpg
365.992	1.178	1	study	Phase1	study/STIM_029.jpg
369.751	0.808	1	study	Phase1	study/STIM_029.jpg
372.845	1.132	1	test	Phase1	test/STIM_000.jpg
376.48	0.691	1	test	Phase1	test/STIM_000.jpg
380.344	1.309	1	test	Phase1	test/STIM_000.jpg
383.938	0.922	1	test	Phase1	test/STIM_001.jpg
388.703	0.882	1	test	Phase1	test/STIM_001.jpg
392.729	1.101	1	test	Phase1	test/STIM_001.jpg
396.098	0.856	1	test	Phase1	test/STIM_002.jpg
400.468	0.64	0	test	Phase1	test/STIM_002.jpg
404.891	1.1	1	test	Phase1	test/STIM_002.jpg
408.458	0.802	1	test	Phase1	test/STIM_003.jpg
412.848	0.933	1	test	Phase1	test/STIM_003.jpg
417.031	0.613	1	test	Phase1	test/STIM_003.jpg
421.322	0.595	1	test	Phase1	test/STIM_004.jpg
425.651	0.88	1	test	Phase1	test/STIM_004.jpg
428.844	1.176	1	test	Phase1	test/STIM_004.jpg
433.139	0.636	1	test	Phase1	test/STIM_005.jpg
435.885	1.155	1	test	Phase1	test/STIM_005.jpg
440.122	1.122	1	test	Phase1	test/STIM_005.jpg
443.896	0.926	1	test	Phase1	test/STIM_006.jpg
448.368	1.026	1	test	Phase1	test/STIM_006.jpg
453.261	0.863	0	test	Phase1	test/STIM_006.jpg
457.189	1.226	1	test	Phase1	test/STIM_007.jpg
461.861	0.865	1	test	Phase1	test/STIM_007.jpg
466.3	0.784	1	test	Phase1	test/STIM_007.jpg
470.6	0.708	0	test	Phase1	test/STIM_008.jpg
474.09	1.193	1	test	Phase1	test/STIM_008.jpg
477.939	1.035	1	test	Phase1	test/STIM_008.jpg
482.72	1.215	1	test	Phase1	test/STIM_009.jpg
487.283	1.281	1	test	Phase1	test/STIM_009.jpg
491.188	1.15	1	test	Phase1	test/STIM_009.jpg
494.836	1.127	1	test	Phase1	test/STIM_010.jpg
498.423	0.972	1	test	Phase1	test/STIM_010.jpg
501.651	0.849	1	test	Phase1	test/STIM_010.jpg
504.661	1.239	1	test	Phase1	test/STIM_011.jpg
509.065	0.578	0	test	Phase1	test/STIM_011.jpg
512.094	1.095	1	test	Phase1	test/STIM_011.jpg
516.066	1.03	1	test	Phase1	test/STIM_012.jpg
520.694	0.643	1	test	Phase1	test/STIM_012.jpg
523.601	1.153	1	test	Phase1	test/STIM_012.jpg
527.053	0.743	1	test	Phase1	test/STIM_013.jpg
531.544	0.772	1	test	Phase1	test/STIM_013.jpg
536.226	0.75	1	test	Phase1	test/STIM_013.jpg
540.079	1.328	1	test	Phase1	test/STIM_014.jpg
544.546	1.054	1	test	Phase1	test/STIM_014.jpg
548.584	0.883	1	test	Phase1	test/STIM_014.jpg
552.878	1.172	1	test	Phase1	test/STIM_015.jpg
557.791	1.003	1	test	Phase1	test/STIM_015.jpg
562.217	1.076	0	test	Phase1	test/STIM_015.jpg
567.093	1.152	1	test	Phase1	test/STIM_016.jpg
571.774	1.023	1	test	Phase1	test/STIM_016.jpg
575.02	0.817	1	test	Phase1	test/STIM_016.jpg
578.365	1.134	1	test	Phase1	test/STIM_017.jpg
583.116	0.821	1	test	Phase1	test/STIM_017.jpg
587.793	1.168	1	test	Phase1	test/STIM_017.jpg
591.08	1.207	1	test	Phase1	test/STIM_018.jpg
596.178	0.866	1	test	Phase1	test/STIM_018.jpg
600.757	0.904	1	test	Phase1	test/STIM_018.jpg
604.659	0.603	1	test	Phase1	test/STIM_019.jpg
609.167	0.849	1	test	Phase1	test/STIM_019.jpg
613.142	0.798	1	test	Phase1	test/STIM_019.jpg
617.026	0.732	0	test	Phase1	test/STIM_020.jpg
620.872	0.945	1	test	Phase1	test/STIM_020.jpg
625.656	0.66	1	test	Phase1	test/STIM_020.jpg
630.269	1.034	1	test	Phase1	test/STIM_021.jpg
635.074	1.066	1	test	Phase1	test/STIM_021.jpg
639.201	1.224	1	test	Phase1	test/STIM_021.jpg
643.529	1.025	1	test	Phase1	test/STIM_022.jpg
648.241	0.974	1	test	Phase1	test/STIM_022.jpg
652.956	1.014	1	test	Phase1	test/STIM_022.jpg
657.862	0.883	1	test	Phase1	test/STIM_023.jpg
662.723	0.734	1	test	Phase1	test/STIM_023.jpg
665.757	0.52	1	test	Phase1	test/STIM_023.jpg
670.288	0.511	1	test	Phase1	test/STIM_024.jpg
674.31	1.053	1	test	Phase1	test/STIM_024.jpg
678.234	0.816	1	test	Phase1	test/STIM_024.jpg
682.969	1.107	0	test	Phase1	test/STIM_025.jpg
687.621	1.016	1	test	Phase1	test/STIM_025.jpg
690.865	1.086	1	test	Phase1	test/STIM_025.jpg
694.438	1.104	1	test	Phase1	test/STIM_026.jpg
698.564	0.848	1	test	Phase1	test/STIM_026.jpg
701.541	1.016	0	test	Phase1	test/STIM_026.jpg
705.125	1.041	1	test	Phase1	test/STIM_027.jpg
708.782	0.984	1	test	Phase1	test/STIM_027.jpg
712.587	0.932	1	test	Phase1	test/STIM_027.jpg
716.449	0.6	1	test	Phase1	test/STIM_028.jpg
719.475	1.137	1	test	Phase1	test/STIM_028.jpg
724.39	0.736	1	test	Phase1	test/STIM_028.jpg
728.271	0.874	1	test	Phase1	test/STIM_029.jpg
731.685	0.83	1	test	Phase1	test/STIM_029.jpg
734.783	0.705	1	test	Phase1	test/STIM_029.jpg
739.074	0.752	1	study	Phase2	study/STIM_000.jpg
742.918	1.453	1	study	Phase2	study/STIM_000.jpg
747.97	1.202	1	study	Phase2	study/STIM_000.jpg
752.297	1.241	1	study	Phase2	study/STIM_001.jpg
757.572	0.953	1	study	Phase2	study/STIM_001.jpg
762.112	0.742	1	study	Phase2	study/STIM_001.jpg
765.57	0.997	0	study	Phase2	study/STIM_002.jpg
770.278	0.792	1	study	Phase2	study/STIM_002.jpg
774.076	0.959	1	study	Phase2	study/STIM_002.jpg
779.009	1.118	1	study	Phase2	study/STIM_003.jpg
783.275	0.892	1	study	Phase2	study/STIM_003.jpg
787.365	1.145	1	study	Phase2	study/STIM_003.jpg
792.501	0.686	1	study	Phase2	study/STIM_004.jpg
796.131	0.797	1	study	Phase2	study/STIM_004.jpg
800.86	0.747	1	study	Phase2	study/STIM_004.jpg
805.285	0.867	1	study	Phase2	study/STIM_005.jpg
809.705	0.626	1	study	Phase2	study/STIM_005.jpg
812.665	0.784	1	study	Phase2	study/STIM_005.jpg
816.955	0.878	1	study	Phase2	study/STIM_006.jpg
820.914	1.112	1	study	Phase2	study/STIM_006.jpg
825.163	1.232	1	study	Phase2	study/STIM_006.jpg
829.694	0.894	1	study	Phase2	study/STIM_007.jpg
832.767	0.817	1	study	Phase2	study/STIM_007.jpg
836.405	0.952	1	study	Phase2	study/STIM_007.jpg
841.128	1.332	1	study	Phase2	study/STIM_008.jpg
844.754	0.738	1	study	Phase2	study/STIM_008.jpg
848.098	1.067	1	study	Phase2	study/STIM_008.jpg
851.434	0.638	1	study	Phase2	study/STIM_009.jpg
855.018	0.728	1	study	Phase2	study/STIM_009.jpg
859.219	1.137	1	study	Phase2	study/STIM_009.jpg
863.779	0.976	1	study	Phase2	study/STIM_010.jpg
868.767	1.393	0	study	Phase2	study/STIM_010.jpg
873.365	0.825	1	study	Phase2	study/STIM_010.jpg
878.073	1.205	1	study	Phase2	study/STIM_011.jpg
882.65	0.65	1	study	Phase2	study/STIM_011.jpg
886.432	0.838	1	study	Phase2	study/STIM_011.jpg
890.637	1.527	1	study	Phase2	study/STIM_012.jpg
894.806	0.879	1	study	Phase2	study/STIM_012.jpg
899.158	0.619	1	study	Phase2	study/STIM_012.jpg
902.724	1.096	1	study	Phase2	study/STIM_013.jpg
907.092	1.148	1	study	Phase2	study/STIM_013.jpg
910.775	1.201	1	study	Phase2	study/STIM_013.jpg
914.294	1.497	0	study	Phase2	study/STIM_014.jpg
919.039	1.348	1	study	Phase2	study/STIM_014.jpg
923.133	0.727	1	study	Phase2	study/STIM_014.jpg
926.526	1.214	1	study	Phase2	study/STIM_015.jpg
931.126	1.057	0	study	Phase2	study/STIM_015.jpg
935.165	0.692	1	study	Phase2	study/STIM_015.jpg
939.391	1.186	1	study	Phase2	study/STIM_016.jpg
943.565	1.387	1	study	Phase2	study/STIM_016.jpg
947.179	1.124	1	study	Phase2	study/STIM_016.jpg
950.333	0.84	0	study	Phase2	study/STIM_017.jpg
953.838	0.982	0	study	Phase2	study/STIM_017.jpg
957.648	0.783	1	study	Phase2	study/STIM_017.jpg
961.558	1.196	1	study	Phase2	study/STIM_018.jpg
966.26	1.428	1	study	Phase2	study/STIM_018.jpg
971.569	0.686	1	study	Phase2	study/STIM_018.jpg
975.875	1.197	1	study	Phase2	study/STIM_019.jpg
980.504	1.145	1	study	Phase2	study/STIM_019.jpg
984.727	0.812	0	study	Phase2	study/STIM_019.jpg
988.599	1.394	1	study	Phase2	study/STIM_020.jpg
993.93	0.868	1	study	Phase2	study/STIM_020.jpg
997.535	0.643	1	study	Phase2	study/STIM_020.jpg
1000.563	1.122	1	study	Phase2	study/STIM_021.jpg
1004.551	0.862	1	study	Phase2	study/STIM_021.jpg
1009.021	0.846	1	study	Phase2	study/STIM_021.jpg
1012.183	0.65	1	study	Phase2	study/STIM_022.jpg
1015.002	0.858	1	study	Phase2	study/STIM_022.jpg
1018.434	1.287	0	study	Phase2	study/STIM_022.jpg
1022.057	0.66	1	study	Phase2	study/STIM_023.jpg
1026.411	0.775	1	study	Phase2	study/STIM_023.jpg
1031.226	0.806	1	study	Phase2	study/STIM_023.jpg
1035.283	1.079	1	study	Phase2	study/STIM_024.jpg
1040.04	0.539	1	study	Phase2	study/STIM_024.jpg
1042.767	0.74	1	study	Phase2	study/STIM_024.jpg
1047.255	1.208	1	study	Phase2	study/STIM_025.jpg
1052.064	1.319	1	study	Phase2	study/STIM_025.jpg
1056.685	0.65	1	study	Phase2	study/STIM_025.jpg
1061.016	0.9	0	study	Phase2	study/STIM_026.jpg
1064.426	1.318	1	study	Phase2	study/STIM_026.jpg
1068.788	0.969	1	study	Phase2	study/STIM_026.jpg
1073.548	1.063	1	study	Phase2	study/STIM_027.jpg
1078.618	1.07	1	study	Phase2	study/STIM_027.jpg
1082.749	1.113	1	study	Phase2	study/STIM_027.jpg
1086.201	0.724	1	study	Phase2	study/STIM_028.jpg
1089.306	1.354	1	study	Phase2	study/STIM_028.jpg
1094.577	0.885	1	study	Phase2	study/STIM_028.jpg
1099.42	0.73	1	study	Phase2	study/STIM_029.jpg
1103.058	0.892	1	study	Phase2	study/STIM_029.jpg
1106.254	1.165	1	study	Phase2	study/STIM_029.jpg
1109.722	1.146	1	test	Phase2	test/STIM_000.jpg
1114.302	0.668	1	test	Phase2	test/STIM_000.jpg
1118.561	0.992	1	test	Phase2	test/STIM_000.jpg
1122.042	1.091	1	test	Phase2	test/STIM_001.jpg
1127.158	1.051	1	test	Phase2	test/STIM_001.jpg
1132.28	1.012	1	test	Phase2	test/STIM_001.jpg
1136.007	0.966	1	test	Phase2	test/STIM_002.jpg
1139.037	0.728	1	test	Phase2	test/STIM_002.jpg
1143.139	1.268	1	test	Phase2	test/STIM_002.jpg
1148.106	1.03	1	test	Phase2	test/STIM_003.jpg
1151.832	1.234	1	test	Phase2	test/STIM_003.jpg
1156.619	1.17	1	test	Phase2	test/STIM_003.jpg
1161.602	1.073	1	test	Phase2	test/STIM_004.jpg
1166.097	0.928	1	test	Phase2	test/STIM_004.jpg
1170.089	1.138	1	test	Phase2	test/STIM_004.jpg
1173.992	0.936	1	test	Phase2	test/STIM_005.jpg
1177.961	0.653	1	test	Phase2	test/STIM_005.jpg
1181.882	1.142	0	test	Phase2	test/STIM_005.jpg
1185.593	0.593	0	test	Phase2	test/STIM_006.jpg
1189.529	0.646	1	test	Phase2	test/STIM_006.jpg
1194.08	1.005	1	test	Phase2	test/STIM_006.jpg
1197.613	0.723	0	test	Phase2	test/STIM_007.jpg
1202.095	0.653	1	test	Phase2	test/STIM_007.jpg
1205.386	0.666	1	test	Phase2	test/STIM_007.jpg
1210.176	1.33	1	test	Phase2	test/STIM_008.jpg
1213.699	1.03	1	test	Phase2	test/STIM_008.jpg
1218.79	0.91	1	test	Phase2	test/STIM_008.jpg
1223.485	1.03	1	test	Phase2	test/STIM_009.jpg
1226.821	0.737	1	test	Phase2	test/STIM_009.jpg
1230.11	0.858	1	test	Phase2	test/STIM_009.jpg
1235.019	0.582	1	test	Phase2	test/STIM_010.jpg
1237.906	1.217	1	test	Phase2	test/STIM_010.jpg
1241.962	0.983	1	test	Phase2	test/STIM_010.jpg
1246.043	1.114	1	test	Phase2	test/STIM_011.jpg
1249.443	1.091	1	test	Phase2	test/STIM_011.jpg
1254.133	1.286	0	test	Phase2	test/STIM_011.jpg
1257.884	0.996	1	test	Phase2	test/STIM_012.jpg
1261.639	1.034	1	test	Phase2	test/STIM_012.jpg
1266.057	1.194	1	test	Phase2	test/STIM_012.jpg
1269.591	0.984	1	test	Phase2	test/STIM_013.jpg
1273.664	0.637	0	test	Phase2	test/STIM_013.jpg
1277.897	0.951	1	test	Phase2	test/STIM_013.jpg
1282.123	1.274	1	test	Phase2	test/STIM_014.jpg
1286.071	0.95	1	test	Phase2	test/STIM_014.jpg
1289.577	0.958	1	test	Phase2	test/STIM_014.jpg
1292.931	0.62	1	test	Phase2	test/STIM_015.jpg
1296.555	0.673	1	test	Phase2	test/STIM_015.jpg
1300.977	0.914	1	test	Phase2	test/STIM_015.jpg
1304.178	0.651	1	test	Phase2	test/STIM_016.jpg
1308.781	0.76	1	test	Phase2	test/STIM_016.jpg
1312.929	1.034	1	test	Phase2	test/STIM_016.jpg
1316.521	0.567	1	test	Phase2	test/STIM_017.jpg
1319.539	0.692	1	test	Phase2	test/STIM_017.jpg
1322.404	0.713	1	test	Phase2	test/STIM_017.jpg
1325.152	1.283	1	test	Phase2	test/STIM_018.jpg
1330.252	0.814	1	test	Phase2	test/STIM_018.jpg
1334.874	0.748	1	test	Phase2	test/STIM_018.jpg
1338.023	0.987	0	test	Phase2	test/STIM_019.jpg
1341.366	0.916	1	test	Phase2	test/STIM_019.jpg
1345.792	0.526	1	test	Phase2	test/STIM_019.jpg
1349.825	0.7	1	test	Phase2	test/STIM_020.jpg
1353.616	0.689	1	test	Phase2	test/STIM_020.jpg
1358.078	0.979	1	test	Phase2	test/STIM_020.jpg
1362.361	1.046	1	test	Phase2	test/STIM_021.jpg
1366.414	0.673	1	test	Phase2	test/STIM_021.jpg
1371.031	1.039	1	test	Phase2	test/STIM_021.jpg
1375.238	0.95	1	test	Phase2	test/STIM_022.jpg
1379.179	1.143	1	test	Phase2	test/STIM_022.jpg
1383.83	1.023	1	test	Phase2	test/STIM_022.jpg
1387.341	1.144	0	test	Phase2	test/STIM_023.jpg
1391.648	0.537	1	test	Phase2	test/STIM_023.jpg
1396.088	0.815	1	test	Phase2	test/STIM_023.jpg
1399.898	0.782	1	test	Phase2	test/STIM_024.jpg
1403.792	1.244	1	test	Phase2	test/STIM_024.jpg
1408.388	1.014	1	test	Phase2	test/STIM_024.jpg
1412.43	1.046	1	test	Phase2	test/STIM_025.jpg
1417.496	1.29	0	test	Phase2	test/STIM_025.jpg
1422.089	1.07	1	test	Phase2	test/STIM_025.jpg
1425.574	1.303	0	test	Phase2	test/STIM_026.jpg
1429.983	1.042	1	test	Phase2	test/STIM_026.jpg
1434.649	1.249	1	test	Phase2	test/STIM_026.jpg
1438.58	0.706	1	test	Phase2	test/STIM_027.jpg
1441.48	1.273	0	test	Phase2	test/STIM_027.jpg
1446.664	1.134	1	test	Phase2	test/STIM_027.jpg
1451.543	1.042	1	test	Phase2	test/STIM_028.jpg
1455.06	0.876	0	test	Phase2	test/STIM_028.jpg
1459.253	1.014	1	test	Phase2	test/STIM_028.jpg
1463.892	1.104	0	test	Phase2	test/STIM_029.jpg
1467.476	0.732	1	test	Phase2	test/STIM_029.jpg
1472.141	1.033	1	test	Phase2	test/STIM_029.jpg
1475.789	0.966	1	study	Phase3	study/STIM_000.jpg
1480.208	0.731	1	study	Phase3	study/STIM_000.jpg
1483.98	0.707	1	study	Phase3	study/STIM_000.jpg
1488.241	1.094	1	study	Phase3	study/STIM_001.jpg
1492.481	0.901	1	study	Phase3	study/STIM_001.jpg
1496.873	0.774	1	study	Phase3	study/STIM_001.jpg
1500.635	0.847	1	study	Phase3	study/STIM_002.jpg
1503.907	0.926	1	study	Phase3	study/STIM_002.jpg
1507.1	0.7	1	study	Phase3	study/STIM_002.jpg
1511.133	1.035	1	study	Phase3	study/STIM_003.jpg
1514.268	0.767	0	study	Phase3	study/STIM_003.jpg
1518.432	0.639	1	study	Phase3	study/STIM_003.jpg
1521.328	0.946	1	study	Phase3	study/STIM_004.jpg
1525.656	1.143	1	study	Phase3	study/STIM_004.jpg
1529.909	0.586	1	study	Phase3	study/STIM_004.jpg
1532.745	1.084	1	study	Phase3	study/STIM_005.jpg
1536.982	1.009	1	study	Phase3	study/STIM_005.jpg
1541.126	0.622	1	study	Phase3	study/STIM_005.jpg
1544.98	0.862	1	study	Phase3	study/STIM_006.jpg
1548.301	1.291	1	study	Phase3	study/STIM_006.jpg
1553.414	0.986	1	study	Phase3	study/STIM_006.jpg
1556.93	0.799	1	study	Phase3	study/STIM_007.jpg
1560.717	0.708	1	study	Phase3	study/STIM_007.jpg
1563.427	0.742	1	study	Phase3	study/STIM_007.jpg
1567.126	0.984	1	study	Phase3	study/STIM_008.jpg
1571.244	0.918	1	study	Phase3	study/STIM_008.jpg
1574.449	0.93	1	study	Phase3	study/STIM_008.jpg
1577.454	0.593	1	study	Phase3	study/STIM_009.jpg
1581.75	0.946	1	study	Phase3	study/STIM_009.jpg
1586.557	0.649	1	study	Phase3	study/STIM_009.jpg
1590.541	0.609	1	study	Phase3	study/STIM_010.jpg
1594.921	0.681	1	study	Phase3	study/STIM_010.jpg
1598.422	0.543	1	study	Phase3	study/STIM_010.jpg
1601.91	0.983	1	study	Phase3	study/STIM_011.jpg
1604.985	0.94	1	study	Phase3	study/STIM_011.jpg
1608.276	1.204	1	study	Phase3	study/STIM_011.jpg
1612.808	0.613	1	study	Phase3	study/STIM_012.jpg
1616.629	0.816	1	study	Phase3	study/STIM_012.jpg
1620.861	1.068	1	study	Phase3	study/STIM_012.jpg
1624.049	0.694	1	study	Phase3	study/STIM_013.jpg
1627.187	0.752	1	study	Phase3	study/STIM_013.jpg
1630.778	0.872	1	study	Phase3	study/STIM_013.jpg
1634.121	0.792	1	study	Phase3	study/STIM_014.jpg
1638.64	0.675	1	study	Phase3	study/STIM_014.jpg
1643.096	0.628	1	study	Phase3	study/STIM_014.jpg
1646.182	0.649	1	study	Phase3	study/STIM_015.jpg
1649.869	1.009	1	study	Phase3	study/STIM_015.jpg
1653.075	0.852	1	study	Phase3	study/STIM_015.jpg
1657.03	1.02	1	study	Phase3	study/STIM_016.jpg
1660.354	0.877	1	study	Phase3	study/STIM_016.jpg
1663.653	0.894	1	study	Phase3	study/STIM_016.jpg
1666.608	0.722	1	study	Phase3	study/STIM_017.jpg
1669.303	1.091	0	study	Phase3	study/STIM_017.jpg
1672.517	0.784	1	study	Phase3	study/STIM_017.jpg
1675.297	0.788	0	study	Phase3	study/STIM_018.jpg
1678.904	1.166	1	study	Phase3	study/STIM_018.jpg
1683.369	0.741	1	study	Phase3	study/STIM_018.jpg
1687.436	1.007	1	study	Phase3	study/STIM_019.jpg
1690.485	0.997	1	study	Phase3	study/STIM_019.jpg
1693.672	0.679	1	study	Phase3	study/STIM_019.jpg
1697.087	0.946	1	study	Phase3	study/STIM_020.jpg
1701.146	0.83	1	study	Phase3	study/STIM_020.jpg
1705.259	1.157	1	study	Phase3	study/STIM_020.jpg
1709.974	0.848	1	study	Phase3	study/STIM_021.jpg
1714.648	0.962	1	study	Phase3	study/STIM_021.jpg
1718.995	0.559	1	study	Phase3	study/STIM_021.jpg
1722.908	0.759	1	study	Phase3	study/STIM_022.jpg
1726.785	0.545	1	study	Phase3	study/STIM_022.jpg
1730.428	0.974	1	study	Phase3	study/STIM_022.jpg
1735.005	0.89	1	study	Phase3	study/STIM_023.jpg
1739.338	0.885	1	study	Phase3	study/STIM_023.jpg
1744.084	1.14	1	study	Phase3	study/STIM_023.jpg
1748.616	0.584	1	study	Phase3	study/STIM_024.jpg
1751.734	0.659	1	study	Phase3	study/STIM_024.jpg
1755.842	0.682	1	study	Phase3	study/STIM_024.jpg
1758.795	0.822	1	study	Phase3	study/STIM_025.jpg
1761.761	0.861	1	study	Phase3	study/STIM_025.jpg
1765.738	0.913	1	study	Phase3	study/STIM_025.jpg
1770.1	0.845	1	study	Phase3	study/STIM_026.jpg
1774.246	0.817	1	study	Phase3	study/STIM_026.jpg
1777.58	1.13	1	study	Phase3	study/STIM_026.jpg
1782.592	0.66	0	study	Phase3	study/STIM_027.jpg
1786.976	1.309	1	study	Phase3	study/STIM_027.jpg
1791.482	1.118	1	study	Phase3	study/STIM_027.jpg
1796.318	0.787	1	study	Phase3	study/STIM_028.jpg
1800.438	1.094	1	study	Phase3	study/STIM_028.jpg
1804.225	0.553	1	study	Phase3	study/STIM_028.jpg
1806.962	1.073	1	study	Phase3	study/STIM_029.jpg
1812.047	0.822	1	study	Phase3	study/STIM_029.jpg
1815.074	0.935	1	study	Phase3	study/STIM_029.jpg
1818.073	0.77	1	test	Phase3	test/STIM_000.jpg
1820.962	1.242	1	test	Phase3	test/STIM_000.jpg
1824.951	0.567	1	test	Phase3	test/STIM_000.jpg
1829.215	0.984	0	test	Phase3	test/STIM_001.jpg
1834.252	0.846	1	test	Phase3	test/STIM_001.jpg
1838.545	1.226	1	test	Phase3	test/STIM_001.jpg
1843.009	0.623	1	test	Phase3	test/STIM_002.jpg
1847.34	0.98	1	test	Phase3	test/STIM_002.jpg
1851.444	0.723	1	test	Phase3	test/STIM_002.jpg
1855.007	0.881	1	test	Phase3	test/STIM_003.jpg
1859.677	0.813	1	test	Phase3	test/STIM_003.jpg
1864.401	0.859	1	test	Phase3	test/STIM_003.jpg
1867.514	0.924	1	test	Phase3	test/STIM_004.jpg
1871.163	0.611	1	test	Phase3	test/STIM_004.jpg
1875.568	0.884	1	test	Phase3	test/STIM_004.jpg
1880.336	1.185	1	test	Phase3	test/STIM_005.jpg
1884.767	0.87	1	test	Phase3	test/STIM_005.jpg
1889.491	0.587	1	test	Phase3	test/STIM_005.jpg
1893.709	1.072	1	test	Phase3	test/STIM_006.jpg
1897.575	0.838	1	test	Phase3	test/STIM_006.jpg
1901.421	0.854	1	test	Phase3	test/STIM_006.jpg
1906.175	0.671	1	test	Phase3	test/STIM_007.jpg
1909.204	0.868	1	test	Phase3	test/STIM_007.jpg
1912.473	0.84	1	test	Phase3	test/STIM_007.jpg
1916.655	0.97	1	test	Phase3	test/STIM_008.jpg
1920.549	1.372	1	test	Phase3	test/STIM_008.jpg
1924.213	1.109	1	test	Phase3	test/STIM_008.jpg
1928.068	0.677	1	test	Phase3	test/STIM_009.jpg
1931.968	0.975	1	test	Phase3	test/STIM_009.jpg
1935.434	0.83	1	test	Phase3	test/STIM_009.jpg
1938.953	1.138	1	test	Phase3	test/STIM_010.jpg
1942.284	1.07	1	test	Phase3	test/STIM_010.jpg
1946.938	0.928	1	test	Phase3	test/STIM_010.jpg
1950.735	0.874	1	test	Phase3	test/STIM_011.jpg
1953.734	0.862	1	test	Phase3	test/STIM_011.jpg
1958.552	1.013	0	test	Phase3	test/STIM_011.jpg
1963.516	1.2	1	test	Phase3	test/STIM_012.jpg
1967.844	0.784	1	test	Phase3	test/STIM_012.jpg
1971.282	0.656	0	test	Phase3	test/STIM_012.jpg
1974.297	0.828	1	test	Phase3	test/STIM_013.jpg
1978.804	1.032	1	test	Phase3	test/STIM_013.jpg
1983.069	0.605	1	test	Phase3	test/STIM_013.jpg
1987.122	1.045	1	test	Phase3	test/STIM_014.jpg
1992.212	1.189	1	test	Phase3	test/STIM_014.jpg
1997.189	1.193	1	test	Phase3	test/STIM_014.jpg
2001.892	1.12	1	test	Phase3	test/STIM_015.jpg
2005.495	0.806	1	test	Phase3	test/STIM_015.jpg
2008.522	0.852	1	test	Phase3	test/STIM_015.jpg
2012.734	1.174	1	test	Phase3	test/STIM_016.jpg
2016.369	1.135	1	test	Phase3	test/STIM_016.jpg
2020.046	0.721	1	test	Phase3	test/STIM_016.jpg
2023.98	1.199	1	test	Phase3	test/STIM_017.jpg
2028.202	0.743	1	test	Phase3	test/STIM_017.jpg
2032.841	1.139	1	test	Phase3	test/STIM_017.jpg
2036.538	1.06	1	test	Phase3	test/STIM_018.jpg
2039.801	0.939	1	test	Phase3	test/STIM_018.jpg
2044.441	1.216	1	test	Phase3	test/STIM_018.jpg
2049.133	1.191	1	test	Phase3	test/STIM_019.jpg
2054.231	0.993	1	test	Phase3	test/STIM_019.jpg
2057.801	1.129	1	test	Phase3	test/STIM_019.jpg
2061.12	0.979	1	test	Phase3	test/STIM_020.jpg
2064.811	0.673	1	test	Phase3	test/STIM_020.jpg
2068.266	0.981	1	test	Phase3	test/STIM_020.jpg
2072.392	0.884	1	test	Phase3	test/STIM_021.jpg
2075.921	0.77	1	test	Phase3	test/STIM_021.jpg
2078.898	1.186	1	test	Phase3	test/STIM_021.jpg
2083.379	0.832	1	test	Phase3	test/STIM_022.jpg
2087.032	0.867	1	test	Phase3	test/STIM_022.jpg
2090.716	1.177	1	test	Phase3	test/STIM_022.jpg
2094.038	1.007	1	test	Phase3	test/STIM_023.jpg
2098.763	0.543	1	test	Phase3	test/STIM_023.jpg
2102.275	1.006	1	test	Phase3	test/STIM_023.jpg
2105.9	0.779	0	test	Phase3	test/STIM_024.jpg
2108.766	1.007	0	test	Phase3	test/STIM_024.jpg
2113.509	0.976	1	test	Phase3	test/STIM_024.jpg
2117.062	1.02	1	test	Phase3	test/STIM_025.jpg
2121.067	0.898	1	test	Phase3	test/STIM_025.jpg
2124.977	1.023	1	test	Phase3	test/STIM_025.jpg
2129.212	0.613	1	test	Phase3	test/STIM_026.jpg
2133.68	0.913	1	test	Phase3	test/STIM_026.jpg
2137.74	0.552	1	test	Phase3	test/STIM_026.jpg
2140.628	1.14	1	test	Phase3	test/STIM_027.jpg
2144.293	0.842	1	test	Phase3	test/STIM_027.jpg
2148.172	1.085	1	test	Phase3	test/STIM_027.jpg
2153.109	0.785	1	test	Phase3	test/STIM_028.jpg
2157.444	1.128	1	test	Phase3	test/STIM_028.jpg
2161.849	0.904	1	test	Phase3	test/STIM_028.jpg
2165.574	0.872	1	test	Phase3	test/STIM_029.jpg
2169.637	1.146	0	test	Phase3	test/STIM_029.jpg
2173.77	0.674	1	test	Phase3	test/STIM_029.jpg
