onset	duration	response_time_ms	trial_type	learning_stage	stimulus	response_port
0.0	1.686	1685.7	study	Phase1	study/STIM_000.jpg	100
3.717	0.776	776.0	study	Phase1	study/STIM_000.jpg	100
6.688	1.399	1399.0	study	Phase1	study/STIM_000.jpg	100
10.722	1.512	1511.9	study	Phase1	study/STIM_001.jpg	99
15.818	0.917	916.7	study	Phase1	study/STIM_001.jpg	100
18.897	1.085	1084.8	study	Phase1	study/STIM_001.jpg	99
23.895	0.806	806.5	study	Phase1	study/STIM_002.jpg	100
28.177	1.134	1134.4	study	Phase1	study/STIM_002.jpg	100
32.598	1.535	1535.4	study	Phase1	study/STIM_002.jpg	99
36.598	1.28	1280.1	study	Phase1	study/STIM_003.jpg	100
41.137	0.818	818.0	study	Phase1	study/STIM_003.jpg	100
45.844	0.726	725.5	study	Phase1	study/STIM_003.jpg	99
49.786	1.09	1090.4	study	Phase1	study/STIM_004.jpg	100
53.481	0.998	997.5	study	Phase1	study/STIM_004.jpg	99
56.741	1.399	1398.8	study	Phase1	study/STIM_004.jpg	99
60.298	1.473	1472.7	study	Phase1	study/STIM_005.jpg	100
65.703	1.261	1261.3	study	Phase1	study/STIM_005.jpg	100
70.563	0.719	719.2	study	Phase1	study/STIM_005.jpg	100
74.468	1.39	1390.2	study	Phase1	study/STIM_006.jpg	99
77.94	0.846	846.1	study	Phase1	study/STIM_006.jpg	100
81.622	1.018	1018.1	study	Phase1	study/STIM_006.jpg	99
86.355	0.867	866.8	study	Phase1	study/STIM_007.jpg	100
90.175	1.239	1238.8	study	Phase1	study/STIM_007.jpg	99
94.806	0.726	725.7	study	Phase1	study/STIM_007.jpg	100
98.069	1.152	1151.9	study	Phase1	study/STIM_008.jpg	100
103.154	1.228	1227.6	study	Phase1	study/STIM_008.jpg	100
106.863	1.177	1177.0	study	Phase1	study/STIM_008.jpg	100
111.782	1.137	1136.9	study	Phase1	study/STIM_009.jpg	99
116.064	1.551	1551.0	study	Phase1	study/STIM_009.jpg	99
119.997	1.413	1413.3	study	Phase1	study/STIM_009.jpg	100
124.198	1.506	1506.5	study	Phase1	study/STIM_010.jpg	99
127.901	0.9	900.5	study	Phase1	study/STIM_010.jpg	99
132.079	1.439	1439.1	study	Phase1	study/STIM_010.jpg	99
136.953	1.512	1512.4	study	Phase1	study/STIM_011.jpg	99
140.585	1.383	1383.3	study	Phase1	study/STIM_011.jpg	99
144.027	1.027	1026.7	study	Phase1	study/STIM_011.jpg	100
147.541	0.889	889.3	study	Phase1	study/STIM_012.jpg	100
152.288	1.183	1182.6	study	Phase1	study/STIM_012.jpg	99
156.316	0.879	879.1	study	Phase1	study/STIM_012.jpg	99
159.305	1.578	1577.9	study	Phase1	study/STIM_013.jpg	100
163.832	1.324	1323.6	study	Phase1	study/STIM_013.jpg	100
167.816	1.14	1140.1	study	Phase1	study/STIM_013.jpg	100
171.248	1.106	1106.2	study	Phase1	study/STIM_014.jpg	99
174.535	0.719	718.8	study	Phase1	study/STIM_014.jpg	99
178.807	1.506	1505.7	study	Phase1	study/STIM_014.jpg	99
183.012	1.023	1022.7	study	Phase1	study/STIM_015.jpg	99
186.122	1.081	1081.4	study	Phase1	study/STIM_015.jpg	99
190.022	1.149	1149.1	study	Phase1	study/STIM_015.jpg	100
194.001	1.406	1405.6	study	Phase1	study/STIM_016.jpg	99
198.769	1.228	1227.5	study	Phase1	study/STIM_016.jpg	99
203.971	0.989	988.6	study	Phase1	study/STIM_016.jpg	100
208.807	1.121	1121.2	study	Phase1	study/STIM_017.jpg	100
213.217	1.01	1010.4	study	Phase1	study/STIM_017.jpg	99
216.536	1.487	1486.7	study	Phase1	study/STIM_017.jpg	99
221.833	1.031	1031.3	study	Phase1	study/STIM_018.jpg	100
225.326	0.982	982.1	study	Phase1	study/STIM_018.jpg	100
229.459	1.208	1208.5	study	Phase1	study/STIM_018.jpg	100
232.772	1.539	1538.6	study	Phase1	study/STIM_019.jpg	99
236.97	0.74	739.5	study	Phase1	study/STIM_019.jpg	99
240.628	1.179	1178.8	study	Phase1	study/STIM_019.jpg	99
244.916	1.613	1613.4	study	Phase1	study/STIM_020.jpg	99
250.264	1.313	1312.8	study	Phase1	study/STIM_020.jpg	100
253.909	1.097	1097.0	study	Phase1	study/STIM_020.jpg	99
258.285	1.418	1417.8	study	Phase1	study/STIM_021.jpg	99
262.998	1.553	1553.0	study	Phase1	study/STIM_021.jpg	100
267.318	1.022	1022.0	study	Phase1	study/STIM_021.jpg	100
270.662	1.08	1080.4	study	Phase1	study/STIM_022.jpg	100
275.598	1.424	1423.8	study	Phase1	study/STIM_022.jpg	99
280.724	1.494	1494.4	study	Phase1	study/STIM_022.jpg	99
285.039	0.9	899.5	study	Phase1	study/STIM_023.jpg	99
289.283	1.07	1069.5	study	Phase1	study/STIM_023.jpg	99
292.978	1.11	1109.5	study	Phase1	study/STIM_023.jpg	100
296.749	1.457	1456.6	study	Phase1	study/STIM_024.jpg	99
302.13	1.59	1590.1	study	Phase1	study/STIM_024.jpg	100
307.129	1.369	1369.0	study	Phase1	study/STIM_024.jpg	100
311.626	1.64	1639.9	study	Phase1	study/STIM_025.jpg	99
315.489	1.483	1482.9	study	Phase1	study/STIM_025.jpg	100
320.061	1.052	1052.1	study	Phase1	study/STIM_025.jpg	100
325.022	1.46	1459.5	study	Phase1	study/STIM_026.jpg	99
328.835	1.526	1526.0	study	Phase1	study/STIM_026.jpg	100
332.581	1.154	1153.5	study	Phase1	study/STIM_026.jpg	99
336.519	1.399	1398.7	study	Phase1	study/STIM_027.jpg	99
340.224	1.35	1350.3	study	Phase1	study/STIM_027.jpg	99
343.899	1.47	1470.2	study	Phase1	study/STIM_027.jpg	100
348.789	0.859	859.0	study	Phase1	study/STIM_028.jpg	99
352.657	1.266	1265.8	study	Phase1	study/STIM_028.jpg	100
356.988	1.41	1410.3	study	Phase1	study/STIM_028.jpg	99
361.416	1.413	1413.1	study	Phase1	study/STIM_029.jpg	100
365.992	1.178	1177.6	study	Phase1	study/STIM_029.jpg	99
369.751	0.808	808.4	study	Phase1	study/STIM_029.jpg	99
372.845	1.132	1132.0	test	Phase1	test/STIM_000.jpg	99
376.48	0.691	691.1	test	Phase1	test/STIM_000.jpg	100
380.344	1.309	1308.9	test	Phase1	test/STIM_000.jpg	100
383.938	0.922	922.0	test	Phase1	test/STIM_001.jpg	99
388.703	0.882	882.1	test	Phase1	test/STIM_001.jpg	99
392.729	1.101	1101.0	test	Phase1	test/STIM_001.jpg	100
396.098	0.856	855.7	test	Phase1	test/STIM_002.jpg	99
400.468	0.64	639.6	test	Phase1	test/STIM_002.jpg	99
404.891	1.1	1099.8	test	Phase1	test/STIM_002.jpg	100
408.458	0.802	801.6	test	Phase1	test/STIM_003.jpg	100
412.848	0.933	933.1	test	Phase1	test/STIM_003.jpg	100
417.031	0.613	612.7	test	Phase1	test/STIM_003.jpg	100
421.322	0.595	594.7	test	Phase1	test/STIM_004.jpg	100
425.651	0.88	880.3	test	Phase1	test/STIM_004.jpg	99
428.844	1.176	1175.7	test	Phase1	test/STIM_004.jpg	99
433.139	0.636	635.6	test	Phase1	test/STIM_005.jpg	99
435.885	1.155	1155.2	test	Phase1	test/STIM_005.jpg	100
440.122	1.122	1122.1	test	Phase1	test/STIM_005.jpg	99
443.896	0.926	926.3	test	Phase1	test/STIM_006.jpg	100
448.368	1.026	1026.4	test	Phase1	test/STIM_006.jpg	99
453.261	0.863	862.6	test	Phase1	test/STIM_006.jpg	99
457.189	1.226	1226.0	test	Phase1	test/STIM_007.jpg	100
461.861	0.865	864.9	test	Phase1	test/STIM_007.jpg	100
466.3	0.784	783.5	test	Phase1	test/STIM_007.jpg	100
470.6	0.708	708.2	test	Phase1	test/STIM_008.jpg	100
474.09	1.193	1193.3	test	Phase1	test/STIM_008.jpg	99
477.939	1.035	1034.8	test	Phase1	test/STIM_008.jpg	99
482.72	1.215	1214.9	test	Phase1	test/STIM_009.jpg	99
487.283	1.281	1280.9	test	Phase1	test/STIM_009.jpg	99
491.188	1.15	1149.5	test	Phase1	test/STIM_009.jpg	99
494.836	1.127	1127.2	test	Phase1	test/STIM_010.jpg	100
498.423	0.972	971.5	test	Phase1	test/STIM_010.jpg	100
501.651	0.849	849.3	test	Phase1	test/STIM_010.jpg	100
504.661	1.239	1238.8	test	Phase1	test/STIM_011.jpg	100
509.065	0.578	578.4	test	Phase1	test/STIM_011.jpg	99
512.094	1.095	1095.1	test	Phase1	test/STIM_011.jpg	99
516.066	1.03	1030.1	test	Phase1	test/STIM_012.jpg	99
520.694	0.643	643.2	test	Phase1	test/STIM_012.jpg	100
523.601	1.153	1153.3	test	Phase1	test/STIM_012.jpg	100
527.053	0.743	742.7	test	Phase1	test/STIM_013.jpg	99
531.544	0.772	772.5	test	Phase1	test/STIM_013.jpg	99
536.226	0.75	750.5	test	Phase1	test/STIM_013.jpg	100
540.079	1.328	1327.8	test	Phase1	test/STIM_014.jpg	99
544.546	1.054	1053.9	test	Phase1	test/STIM_014.jpg	100
548.584	0.883	882.9	test	Phase1	test/STIM_014.jpg	100
552.878	1.172	1172.3	test	Phase1	test/STIM_015.jpg	99
557.791	1.003	1002.9	test	Phase1	test/STIM_015.jpg	99
562.217	1.076	1076.5	test	Phase1	test/STIM_015.jpg	100
567.093	1.152	1152.5	test	Phase1	test/STIM_016.jpg	100
571.774	1.023	1022.8	test	Phase1	test/STIM_016.jpg	100
575.02	0.817	816.7	test	Phase1	test/STIM_016.jpg	100
578.365	1.134	1133.6	test	Phase1	test/STIM_017.jpg	100
583.116	0.821	821.1	test	Phase1	test/STIM_017.jpg	99
587.793	1.168	1168.5	test	Phase1	test/STIM_017.jpg	100
591.08	1.207	1206.7	test	Phase1	test/STIM_018.jpg	99
596.178	0.866	866.3	test	Phase1	test/STIM_018.jpg	99
600.757	0.904	903.8	test	Phase1	test/STIM_018.jpg	100
604.659	0.603	603.2	test	Phase1	test/STIM_019.jpg	100
609.167	0.849	849.2	test	Phase1	test/STIM_019.jpg	99
613.142	0.798	797.7	test	Phase1	test/STIM_019.jpg	99
617.026	0.732	732.2	test	Phase1	test/STIM_020.jpg	100
620.872	0.945	944.9	test	Phase1	test/STIM_020.jpg	100
625.656	0.66	659.6	test	Phase1	test/STIM_020.jpg	99
630.269	1.034	1034.4	test	Phase1	test/STIM_021.jpg	100
635.074	1.066	1066.5	test	Phase1	test/STIM_021.jpg	100
639.201	1.224	1224.4	test	Phase1	test/STIM_021.jpg	99
643.529	1.025	1024.8	test	Phase1	test/STIM_022.jpg	100
648.241	0.974	973.8	test	Phase1	test/STIM_022.jpg	100
652.956	1.014	1013.8	test	Phase1	test/STIM_022.jpg	99
657.862	0.883	883.4	test	Phase1	test/STIM_023.jpg	99
662.723	0.734	733.5	test	Phase1	test/STIM_023.jpg	100
665.757	0.52	520.4	test	Phase1	test/STIM_023.jpg	100
670.288	0.511	510.7	test	Phase1	test/STIM_024.jpg	99
674.31	1.053	1053.2	test	Phase1	test/STIM_024.jpg	100
678.234	0.816	815.8	test	Phase1	test/STIM_024.jpg	99
682.969	1.107	1107.0	test	Phase1	test/STIM_025.jpg	100
687.621	1.016	1016.2	test	Phase1	test/STIM_025.jpg	99
690.865	1.086	1086.2	test	Phase1	test/STIM_025.jpg	99
694.438	1.104	1104.0	test	Phase1	test/STIM_026.jpg	99
698.564	0.848	848.0	test	Phase1	test/STIM_026.jpg	99
701.541	1.016	1016.4	test	Phase1	test/STIM_026.jpg	99
705.125	1.041	1041.2	test	Phase1	test/STIM_027.jpg	100
708.782	0.984	984.4	test	Phase1	test/STIM_027.jpg	100
712.587	0.932	932.0	test	Phase1	test/STIM_027.jpg	99
716.449	0.6	599.8	test	Phase1	test/STIM_028.jpg	99
719.475	1.137	1137.0	test	Phase1	test/STIM_028.jpg	100
724.39	0.736	735.7	test	Phase1	test/STIM_028.jpg	99
728.271	0.874	873.7	test	Phase1	test/STIM_029.jpg	99
731.685	0.83	829.8	test	Phase1	test/STIM_029.jpg	100
734.783	0.705	705.1	test	Phase1	test/STIM_029.jpg	99
739.074	0.752	752.5	study	Phase2	study/STIM_000.jpg	99
742.918	1.453	1452.8	study	Phase2	study/STIM_000.jpg	99
747.97	1.202	1201.7	study	Phase2	study/STIM_000.jpg	100
752.297	1.241	1241.2	study	Phase2	study/STIM_001.jpg	99
757.572	0.953	952.7	study	Phase2	study/STIM_001.jpg	99
762.112	0.742	741.9	study	Phase2	study/STIM_001.jpg	99
765.57	0.997	997.1	study	Phase2	study/STIM_002.jpg	99
770.278	0.792	791.5	study	Phase2	study/STIM_002.jpg	99
774.076	0.959	959.1	study	Phase2	study/STIM_002.jpg	100
779.009	1.118	1118.0	study	Phase2	study/STIM_003.jpg	99
783.275	0.892	891.5	study	Phase2	study/STIM_003.jpg	100
787.365	1.145	1145.0	study	Phase2	study/STIM_003.jpg	100
792.501	0.686	685.8	study	Phase2	study/STIM_004.jpg	100
796.131	0.797	796.8	study	Phase2	study/STIM_004.jpg	100
800.86	0.747	746.9	study	Phase2	study/STIM_004.jpg	100
805.285	0.867	867.2	study	Phase2	study/STIM_005.jpg	100
809.705	0.626	625.7	study	Phase2	study/STIM_005.jpg	100
812.665	0.784	784.1	study	Phase2	study/STIM_005.jpg	100
816.955	0.878	877.7	study	Phase2	study/STIM_006.jpg	100
820.914	1.112	1111.8	study	Phase2	study/STIM_006.jpg	99
825.163	1.232	1231.6	study	Phase2	study/STIM_006.jpg	100
829.694	0.894	893.6	study	Phase2	study/STIM_007.jpg	99
832.767	0.817	817.4	study	Phase2	study/STIM_007.jpg	99
836.405	0.952	952.5	study	Phase2	study/STIM_007.jpg	100
841.128	1.332	1332.2	study	Phase2	study/STIM_008.jpg	100
844.754	0.738	738.4	study	Phase2	study/STIM_008.jpg	100
848.098	1.067	1067.4	study	Phase2	study/STIM_008.jpg	99
851.434	0.638	638.2	study	Phase2	study/STIM_009.jpg	99
855.018	0.728	728.3	study	Phase2	study/STIM_009.jpg	100
859.219	1.137	1136.7	study	Phase2	study/STIM_009.jpg	100
863.779	0.976	976.4	study	Phase2	study/STIM_010.jpg	99
868.767	1.393	1392.9	study	Phase2	study/STIM_010.jpg	100
873.365	0.825	825.0	study	Phase2	study/STIM_010.jpg	100
878.073	1.205	1205.4	study	Phase2	study/STIM_011.jpg	99
882.65	0.65	650.1	study	Phase2	study/STIM_011.jpg	99
886.432	0.838	837.5	study	Phase2	study/STIM_011.jpg	100
890.637	1.527	1526.7	study	Phase2	study/STIM_012.jpg	100
894.806	0.879	878.7	study	Phase2	study/STIM_012.jpg	99
899.158	0.619	619.0	study	Phase2	study/STIM_012.jpg	99
902.724	1.096	1095.9	study	Phase2	study/STIM_013.jpg	99
907.092	1.148	1148.4	study	Phase2	study/STIM_013.jpg	99
910.775	1.201	1200.6	study	Phase2	study/STIM_013.jpg	99
914.294	1.497	1497.0	study	Phase2	study/STIM_014.jpg	100
919.039	1.348	1348.3	study	Phase2	study/STIM_014.jpg	100
923.133	0.727	726.7	study	Phase2	study/STIM_014.jpg	100
926.526	1.214	1213.6	study	Phase2	study/STIM_015.jpg	100
931.126	1.057	1057.0	study	Phase2	study/STIM_015.jpg	100
935.165	0.692	692.3	study	Phase2	study/STIM_015.jpg	99
939.391	1.186	1185.8	study	Phase2	study/STIM_016.jpg	100
943.565	1.387	1386.9	study	Phase2	study/STIM_016.jpg	100
947.179	1.124	1123.9	study	Phase2	study/STIM_016.jpg	100
950.333	0.84	840.5	study	Phase2	study/STIM_017.jpg	100
953.838	0.982	981.9	study	Phase2	study/STIM_017.jpg	100
957.648	0.783	783.3	study	Phase2	study/STIM_017.jpg	100
961.558	1.196	1196.5	study	Phase2	study/STIM_018.jpg	99
966.26	1.428	1427.7	study	Phase2	study/STIM_018.jpg	100
971.569	0.686	685.6	study	Phase2	study/STIM_018.jpg	99
975.875	1.197	1196.8	study	Phase2	study/STIM_019.jpg	100
980.504	1.145	1145.3	study	Phase2	study/STIM_019.jpg	100
984.727	0.812	812.0	study	Phase2	study/STIM_019.jpg	99
988.599	1.394	1394.3	study	Phase2	study/STIM_020.jpg	100
993.93	0.868	867.7	study	Phase2	study/STIM_020.jpg	99
997.535	0.643	643.1	study	Phase2	study/STIM_020.jpg	99
1000.563	1.122	1122.5	study	Phase2	study/STIM_021.jpg	100
1004.551	0.862	861.5	study	Phase2	study/STIM_021.jpg	99
1009.021	0.846	846.2	study	Phase2	study/STIM_021.jpg	99
1012.183	0.65	649.7	study	Phase2	study/STIM_022.jpg	99
1015.002	0.858	857.8	study	Phase2	study/STIM_022.jpg	100
1018.434	1.287	1286.7	study	Phase2	study/STIM_022.jpg	100
1022.057	0.66	660.2	study	Phase2	study/STIM_023.jpg	99
1026.411	0.775	775.0	study	Phase2	study/STIM_023.jpg	100
1031.226	0.806	806.3	study	Phase2	study/STIM_023.jpg	99
1035.283	1.079	1078.7	study	Phase2	study/STIM_024.jpg	100
1040.04	0.539	538.9	study	Phase2	study/STIM_024.jpg	100
1042.767	0.74	740.0	study	Phase2	study/STIM_024.jpg	99
1047.255	1.208	1208.0	study	Phase2	study/STIM_025.jpg	99
1052.064	1.319	1318.7	study	Phase2	study/STIM_025.jpg	99
1056.685	0.65	649.9	study	Phase2	study/STIM_025.jpg	100
1061.016	0.9	899.6	study	Phase2	study/STIM_026.jpg	100
1064.426	1.318	1318.0	study	Phase2	study/STIM_026.jpg	99
1068.788	0.969	969.1	study	Phase2	study/STIM_026.jpg	100
1073.548	1.063	1063.3	study	Phase2	study/STIM_027.jpg	99
1078.618	1.07	1069.9	study	Phase2	study/STIM_027.jpg	100
1082.749	1.113	1112.8	study	Phase2	study/STIM_027.jpg	100
1086.201	0.724	724.2	study	Phase2	study/STIM_028.jpg	100
1089.306	1.354	1354.0	study	Phase2	study/STIM_028.jpg	99
1094.577	0.885	885.0	study	Phase2	study/STIM_028.jpg	100
1099.42	0.73	729.6	study	Phase2	study/STIM_029.jpg	100
1103.058	0.892	892.2	study	Phase2	study/STIM_029.jpg	99
1106.254	1.165	1164.6	study	Phase2	study/STIM_029.jpg	99
1109.722	1.146	1146.4	test	Phase2	test/STIM_000.jpg	99
1114.302	0.668	668.3	test	Phase2	test/STIM_000.jpg	99
1118.561	0.992	992.5	test	Phase2	test/STIM_000.jpg	99
1122.042	1.091	1091.3	test	Phase2	test/STIM_001.jpg	100
1127.158	1.051	1050.8	test	Phase2	test/STIM_001.jpg	99
1132.28	1.012	1011.7	test	Phase2	test/STIM_001.jpg	99
1136.007	0.966	965.9	test	Phase2	test/STIM_002.jpg	99
1139.037	0.728	728.0	test	Phase2	test/STIM_002.jpg	99
1143.139	1.268	1268.5	test	Phase2	test/STIM_002.jpg	100
1148.106	1.03	1030.3	test	Phase2	test/STIM_003.jpg	99
1151.832	1.234	1233.5	test	Phase2	test/STIM_003.jpg	100
1156.619	1.17	1170.3	test	Phase2	test/STIM_003.jpg	99
1161.602	1.073	1073.4	test	Phase2	test/STIM_004.jpg	99
1166.097	0.928	927.9	test	Phase2	test/STIM_004.jpg	99
1170.089	1.138	1138.5	test	Phase2	test/STIM_004.jpg	99
1173.992	0.936	936.2	test	Phase2	test/STIM_005.jpg	99
1177.961	0.653	653.0	test	Phase2	test/STIM_005.jpg	100
1181.882	1.142	1142.0	test	Phase2	test/STIM_005.jpg	99
1185.593	0.593	593.0	test	Phase2	test/STIM_006.jpg	99
1189.529	0.646	646.4	test	Phase2	test/STIM_006.jpg	99
1194.08	1.005	1004.8	test	Phase2	test/STIM_006.jpg	100
1197.613	0.723	722.8	test	Phase2	test/STIM_007.jpg	100
1202.095	0.653	653.3	test	Phase2	test/STIM_007.jpg	99
1205.386	0.666	666.0	test	Phase2	test/STIM_007.jpg	100
1210.176	1.33	1330.3	test	Phase2	test/STIM_008.jpg	100
1213.699	1.03	1029.5	test	Phase2	test/STIM_008.jpg	99
1218.79	0.91	909.5	test	Phase2	test/STIM_008.jpg	100
1223.485	1.03	1029.7	test	Phase2	test/STIM_009.jpg	99
1226.821	0.737	737.2	test	Phase2	test/STIM_009.jpg	100
1230.11	0.858	858.0	test	Phase2	test/STIM_009.jpg	100
1235.019	0.582	582.4	test	Phase2	test/STIM_010.jpg	99
1237.906	1.217	1216.8	test	Phase2	test/STIM_010.jpg	99
1241.962	0.983	983.1	test	Phase2	test/STIM_010.jpg	99
1246.043	1.114	1113.8	test	Phase2	test/STIM_011.jpg	100
1249.443	1.091	1090.9	test	Phase2	test/STIM_011.jpg	99
1254.133	1.286	1285.6	test	Phase2	test/STIM_011.jpg	100
1257.884	0.996	996.2	test	Phase2	test/STIM_012.jpg	99
1261.639	1.034	1034.5	test	Phase2	test/STIM_012.jpg	99
1266.057	1.194	1193.5	test	Phase2	test/STIM_012.jpg	100
1269.591	0.984	984.2	test	Phase2	test/STIM_013.jpg	100
1273.664	0.637	636.8	test	Phase2	test/STIM_013.jpg	100
1277.897	0.951	950.8	test	Phase2	test/STIM_013.jpg	100
1282.123	1.274	1274.4	test	Phase2	test/STIM_014.jpg	100
1286.071	0.95	949.8	test	Phase2	test/STIM_014.jpg	100
1289.577	0.958	958.0	test	Phase2	test/STIM_014.jpg	99
1292.931	0.62	619.7	test	Phase2	test/STIM_015.jpg	100
1296.555	0.673	673.2	test	Phase2	test/STIM_015.jpg	99
1300.977	0.914	914.4	test	Phase2	test/STIM_015.jpg	100
1304.178	0.651	650.8	test	Phase2	test/STIM_016.jpg	99
1308.781	0.76	760.5	test	Phase2	test/STIM_016.jpg	99
1312.929	1.034	1034.0	test	Phase2	test/STIM_016.jpg	100
1316.521	0.567	566.8	test	Phase2	test/STIM_017.jpg	100
1319.539	0.692	692.1	test	Phase2	test/STIM_017.jpg	100
1322.404	0.713	713.4	test	Phase2	test/STIM_017.jpg	100
1325.152	1.283	1283.2	test	Phase2	test/STIM_018.jpg	100
1330.252	0.814	814.4	test	Phase2	test/STIM_018.jpg	99
1334.874	0.748	747.8	test	Phase2	test/STIM_018.jpg	100
1338.023	0.987	987.2	test	Phase2	test/STIM_019.jpg	99
1341.366	0.916	916.3	test	Phase2	test/STIM_019.jpg	99
1345.792	0.526	526.1	test	Phase2	test/STIM_019.jpg	100
1349.825	0.7	700.3	test	Phase2	test/STIM_020.jpg	99
1353.616	0.689	688.7	test	Phase2	test/STIM_020.jpg	100
1358.078	0.979	979.1	test	Phase2	test/STIM_020.jpg	100
1362.361	1.046	1046.5	test	Phase2	test/STIM_021.jpg	100
1366.414	0.673	672.6	test	Phase2	test/STIM_021.jpg	99
1371.031	1.039	1039.3	test	Phase2	test/STIM_021.jpg	99
1375.238	0.95	950.3	test	Phase2	test/STIM_022.jpg	100
1379.179	1.143	1142.8	test	Phase2	test/STIM_022.jpg	99
1383.83	1.023	1023.0	test	Phase2	test/STIM_022.jpg	99
1387.341	1.144	1144.4	test	Phase2	test/STIM_023.jpg	99
1391.648	0.537	536.9	test	Phase2	test/STIM_023.jpg	99
1396.088	0.815	815.1	test	Phase2	test/STIM_023.jpg	100
1399.898	0.782	782.5	test	Phase2	test/STIM_024.jpg	100
1403.792	1.244	1243.8	test	Phase2	test/STIM_024.jpg	100
1408.388	1.014	1014.2	test	Phase2	test/STIM_024.jpg	100
1412.43	1.046	1046.1	test	Phase2	test/STIM_025.jpg	100
1417.496	1.29	1290.5	test	Phase2	test/STIM_025.jpg	99
1422.089	1.07	1070.3	test	Phase2	test/STIM_025.jpg	100
1425.574	1.303	1303.2	test	Phase2	test/STIM_026.jpg	100
1429.983	1.042	1042.5	test	Phase2	test/STIM_026.jpg	100
1434.649	1.249	1249.2	test	Phase2	test/STIM_026.jpg	100
1438.58	0.706	705.8	test	Phase2	test/STIM_027.jpg	100
1441.48	1.273	1272.6	test	Phase2	test/STIM_027.jpg	100
1446.664	1.134	1133.6	test	Phase2	test/STIM_027.jpg	99
1451.543	1.042	1042.1	test	Phase2	test/STIM_028.jpg	100
1455.06	0.876	875.5	test	Phase2	test/STIM_028.jpg	99
1459.253	1.014	1013.7	test	Phase2	test/STIM_028.jpg	99
1463.892	1.104	1103.6	test	Phase2	test/STIM_029.jpg	99
1467.476	0.732	732.2	test	Phase2	test/STIM_029.jpg	100
1472.141	1.033	1033.3	test	Phase2	test/STIM_029.jpg	100
1475.789	0.966	966.1	study	Phase3	study/STIM_000.jpg	99
1480.208	0.731	730.6	study	Phase3	study/STIM_000.jpg	100
1483.98	0.707	707.2	study	Phase3	study/STIM_000.jpg	99
1488.241	1.094	1094.2	study	Phase3	study/STIM_001.jpg	100
1492.481	0.901	901.1	study	Phase3	study/STIM_001.jpg	100
1496.873	0.774	774.1	study	Phase3	study/STIM_001.jpg	100
1500.635	0.847	846.6	study	Phase3	study/STIM_002.jpg	100
1503.907	0.926	925.9	study	Phase3	study/STIM_002.jpg	99
1507.1	0.7	699.8	study	Phase3	study/STIM_002.jpg	99
1511.133	1.035	1034.9	study	Phase3	study/STIM_003.jpg	99
1514.268	0.767	767.1	study	Phase3	study/STIM_003.jpg	99
1518.432	0.639	639.0	study	Phase3	study/STIM_003.jpg	100
1521.328	0.946	945.6	study	Phase3	study/STIM_004.jpg	99
1525.656	1.143	1143.4	study	Phase3	study/STIM_004.jpg	100
1529.909	0.586	585.6	study	Phase3	study/STIM_004.jpg	99
1532.745	1.084	1084.4	study	Phase3	study/STIM_005.jpg	100
1536.982	1.009	1009.2	study	Phase3	study/STIM_005.jpg	100
1541.126	0.622	621.8	study	Phase3	study/STIM_005.jpg	99
1544.98	0.862	861.9	study	Phase3	study/STIM_006.jpg	99
1548.301	1.291	1291.1	study	Phase3	study/STIM_006.jpg	99
1553.414	0.986	985.5	study	Phase3	study/STIM_006.jpg	100
1556.93	0.799	798.9	study	Phase3	study/STIM_007.jpg	99
1560.717	0.708	708.4	study	Phase3	study/STIM_007.jpg	100
1563.427	0.742	741.7	study	Phase3	study/STIM_007.jpg	99
1567.126	0.984	984.0	study	Phase3	study/STIM_008.jpg	100
1571.244	0.918	918.0	study	Phase3	study/STIM_008.jpg	100
1574.449	0.93	929.9	study	Phase3	study/STIM_008.jpg	100
1577.454	0.593	593.0	study	Phase3	study/STIM_009.jpg	100
1581.75	0.946	946.3	study	Phase3	study/STIM_009.jpg	99
1586.557	0.649	649.1	study	Phase3	study/STIM_009.jpg	100
1590.541	0.609	609.2	study	Phase3	study/STIM_010.jpg	100
1594.921	0.681	680.7	study	Phase3	study/STIM_010.jpg	99
1598.422	0.543	543.3	study	Phase3	study/STIM_010.jpg	100
1601.91	0.983	982.6	study	Phase3	study/STIM_011.jpg	99
1604.985	0.94	940.3	study	Phase3	study/STIM_011.jpg	100
1608.276	1.204	1203.7	study	Phase3	study/STIM_011.jpg	99
1612.808	0.613	612.6	study	Phase3	study/STIM_012.jpg	99
1616.629	0.816	815.6	study	Phase3	study/STIM_012.jpg	100
1620.861	1.068	1067.7	study	Phase3	study/STIM_012.jpg	100
1624.049	0.694	693.5	study	Phase3	study/STIM_013.jpg	99
1627.187	0.752	752.1	study	Phase3	study/STIM_013.jpg	99
1630.778	0.872	872.2	study	Phase3	study/STIM_013.jpg	99
1634.121	0.792	792.1	study	Phase3	study/STIM_014.jpg	99
1638.64	0.675	674.9	study	Phase3	study/STIM_014.jpg	99
1643.096	0.628	627.7	study	Phase3	study/STIM_014.jpg	99
1646.182	0.649	648.8	study	Phase3	study/STIM_015.jpg	100
1649.869	1.009	1008.9	study	Phase3	study/STIM_015.jpg	100
1653.075	0.852	852.3	study	Phase3	study/STIM_015.jpg	100
1657.03	1.02	1019.6	study	Phase3	study/STIM_016.jpg	99
1660.354	0.877	876.6	study	Phase3	study/STIM_016.jpg	100
1663.653	0.894	893.7	study	Phase3	study/STIM_016.jpg	100
1666.608	0.722	722.2	study	Phase3	study/STIM_017.jpg	100
1669.303	1.091	1090.7	study	Phase3	study/STIM_017.jpg	100
1672.517	0.784	783.9	study	Phase3	study/STIM_017.jpg	99
1675.297	0.788	788.4	study	Phase3	study/STIM_018.jpg	100
1678.904	1.166	1166.5	study	Phase3	study/STIM_018.jpg	100
1683.369	0.741	741.2	study	Phase3	study/STIM_018.jpg	99
1687.436	1.007	1007.1	study	Phase3	study/STIM_019.jpg	99
1690.485	0.997	996.7	study	Phase3	study/STIM_019.jpg	99
1693.672	0.679	678.7	study	Phase3	study/STIM_019.jpg	100
1697.087	0.946	946.3	study	Phase3	study/STIM_020.jpg	100
1701.146	0.83	829.5	study	Phase3	study/STIM_020.jpg	99
1705.259	1.157	1157.3	study	Phase3	study/STIM_020.jpg	100
1709.974	0.848	848.5	study	Phase3	study/STIM_021.jpg	100
1714.648	0.962	962.2	study	Phase3	study/STIM_021.jpg	99
1718.995	0.559	559.2	study	Phase3	study/STIM_021.jpg	99
1722.908	0.759	758.9	study	Phase3	study/STIM_022.jpg	100
1726.785	0.545	545.1	study	Phase3	study/STIM_022.jpg	99
1730.428	0.974	973.8	study	Phase3	study/STIM_022.jpg	100
1735.005	0.89	890.5	study	Phase3	study/STIM_023.jpg	100
1739.338	0.885	884.8	study	Phase3	study/STIM_023.jpg	100
1744.084	1.14	1139.9	study	Phase3	study/STIM_023.jpg	100
1748.616	0.584	584.2	study	Phase3	study/STIM_024.jpg	99
1751.734	0.659	659.2	study	Phase3	study/STIM_024.jpg	100
1755.842	0.682	682.2	study	Phase3	study/STIM_024.jpg	100
1758.795	0.822	821.8	study	Phase3	study/STIM_025.jpg	100
1761.761	0.861	860.6	study	Phase3	study/STIM_025.jpg	99
1765.738	0.913	913.3	study	Phase3	study/STIM_025.jpg	99
1770.1	0.845	844.6	study	Phase3	study/STIM_026.jpg	99
1774.246	0.817	816.7	study	Phase3	study/STIM_026.jpg	99
1777.58	1.13	1130.3	study	Phase3	study/STIM_026.jpg	99
1782.592	0.66	660.4	study	Phase3	study/STIM_027.jpg	99
1786.976	1.309	1308.9	study	Phase3	study/STIM_027.jpg	99
1791.482	1.118	1117.5	study	Phase3	study/STIM_027.jpg	99
1796.318	0.787	787.4	study	Phase3	study/STIM_028.jpg	99
1800.438	1.094	1093.9	study	Phase3	study/STIM_028.jpg	100
1804.225	0.553	552.7	study	Phase3	study/STIM_028.jpg	100
1806.962	1.073	1072.8	study	Phase3	study/STIM_029.jpg	100
1812.047	0.822	821.7	study	Phase3	study/STIM_029.jpg	100
1815.074	0.935	935.2	study	Phase3	study/STIM_029.jpg	100
1818.073	0.77	770.4	test	Phase3	test/STIM_000.jpg	100
1820.962	1.242	1241.6	test	Phase3	test/STIM_000.jpg	99
1824.951	0.567	566.6	test	Phase3	test/STIM_000.jpg	99
1829.215	0.984	983.5	test	Phase3	test/STIM_001.jpg	100
1834.252	0.846	845.9	test	Phase3	test/STIM_001.jpg	100
1838.545	1.226	1225.7	test	Phase3	test/STIM_001.jpg	99
1843.009	0.623	623.2	test	Phase3	test/STIM_002.jpg	100
1847.34	0.98	980.0	test	Phase3	test/STIM_002.jpg	99
1851.444	0.723	723.4	test	Phase3	test/STIM_002.jpg	100
1855.007	0.881	880.9	test	Phase3	test/STIM_003.jpg	99
1859.677	0.813	813.1	test	Phase3	test/STIM_003.jpg	100
1864.401	0.859	859.0	test	Phase3	test/STIM_003.jpg	99
1867.514	0.924	924.5	test	Phase3	test/STIM_004.jpg	100
1871.163	0.611	610.7	test	Phase3	test/STIM_004.jpg	99
1875.568	0.884	884.1	test	Phase3	test/STIM_004.jpg	100
1880.336	1.185	1185.4	test	Phase3	test/STIM_005.jpg	100
1884.767	0.87	869.7	test	Phase3	test/STIM_005.jpg	99
1889.491	0.587	587.2	test	Phase3	test/STIM_005.jpg	100
1893.709	1.072	1072.5	test	Phase3	test/STIM_006.jpg	100
1897.575	0.838	838.0	test	Phase3	test/STIM_006.jpg	99
1901.421	0.854	853.7	test	Phase3	test/STIM_006.jpg	100
1906.175	0.671	670.6	test	Phase3	test/STIM_007.jpg	100
1909.204	0.868	867.9	test	Phase3	test/STIM_007.jpg	99
1912.473	0.84	839.8	test	Phase3	test/STIM_007.jpg	100
1916.655	0.97	970.2	test	Phase3	test/STIM_008.jpg	99
1920.549	1.372	1371.9	test	Phase3	test/STIM_008.jpg	99
1924.213	1.109	1108.6	test	Phase3	test/STIM_008.jpg	99
1928.068	0.677	676.6	test	Phase3	test/STIM_009.jpg	100
1931.968	0.975	975.0	test	Phase3	test/STIM_009.jpg	100
1935.434	0.83	830.3	test	Phase3	test/STIM_009.jpg	99
1938.953	1.138	1137.9	test	Phase3	test/STIM_010.jpg	99
1942.284	1.07	1070.1	test	Phase3	test/STIM_010.jpg	100
1946.938	0.928	927.5	test	Phase3	test/STIM_010.jpg	99
1950.735	0.874	874.1	test	Phase3	test/STIM_011.jpg	99
1953.734	0.862	862.4	test	Phase3	test/STIM_011.jpg	99
1958.552	1.013	1012.9	test	Phase3	test/STIM_011.jpg	99
1963.516	1.2	1199.6	test	Phase3	test/STIM_012.jpg	100
1967.844	0.784	783.7	test	Phase3	test/STIM_012.jpg	100
1971.282	0.656	656.2	test	Phase3	test/STIM_012.jpg	100
1974.297	0.828	828.0	test	Phase3	test/STIM_013.jpg	99
1978.804	1.032	1032.3	test	Phase3	test/STIM_013.jpg	100
1983.069	0.605	604.6	test	Phase3	test/STIM_013.jpg	99
1987.122	1.045	1045.2	test	Phase3	test/STIM_014.jpg	100
1992.212	1.189	1188.9	test	Phase3	test/STIM_014.jpg	99
1997.189	1.193	1192.9	test	Phase3	test/STIM_014.jpg	99
2001.892	1.12	1119.9	test	Phase3	test/STIM_015.jpg	100
2005.495	0.806	805.5	test	Phase3	test/STIM_015.jpg	100
2008.522	0.852	851.7	test	Phase3	test/STIM_015.jpg	99
2012.734	1.174	1173.8	test	Phase3	test/STIM_016.jpg	99
2016.369	1.135	1135.1	test	Phase3	test/STIM_016.jpg	100
2020.046	0.721	720.7	test	Phase3	test/STIM_016.jpg	99
2023.98	1.199	1199.1	test	Phase3	test/STIM_017.jpg	100
2028.202	0.743	742.9	test	Phase3	test/STIM_017.jpg	100
2032.841	1.139	1138.9	test	Phase3	test/STIM_017.jpg	100
2036.538	1.06	1060.4	test	Phase3	test/STIM_018.jpg	99
2039.801	0.939	939.2	test	Phase3	test/STIM_018.jpg	100
2044.441	1.216	1216.3	test	Phase3	test/STIM_018.jpg	100
2049.133	1.191	1191.3	test	Phase3	test/STIM_019.jpg	99
2054.231	0.993	993.2	test	Phase3	test/STIM_019.jpg	99
2057.801	1.129	1128.8	test	Phase3	test/STIM_019.jpg	100
2061.12	0.979	978.6	test	Phase3	test/STIM_020.jpg	99
2064.811	0.673	673.3	test	Phase3	test/STIM_020.jpg	99
2068.266	0.981	980.7	test	Phase3	test/STIM_020.jpg	99
2072.392	0.884	884.1	test	Phase3	test/STIM_021.jpg	99
2075.921	0.77	770.4	test	Phase3	test/STIM_021.jpg	100
2078.898	1.186	1186.2	test	Phase3	test/STIM_021.jpg	99
2083.379	0.832	832.5	test	Phase3	test/STIM_022.jpg	99
2087.032	0.867	866.9	test	Phase3	test/STIM_022.jpg	100
2090.716	1.177	1176.8	test	Phase3	test/STIM_022.jpg	100
2094.038	1.007	1007.4	test	Phase3	test/STIM_023.jpg	100
2098.763	0.543	543.2	test	Phase3	test/STIM_023.jpg	100
2102.275	1.006	1006.5	test	Phase3	test/STIM_023.jpg	100
2105.9	0.779	778.8	test	Phase3	test/STIM_024.jpg	100
2108.766	1.007	1006.9	test	Phase3	test/STIM_024.jpg	99
2113.509	0.976	976.1	test	Phase3	test/STIM_024.jpg	100
2117.062	1.02	1020.5	test	Phase3	test/STIM_025.jpg	100
2121.067	0.898	897.8	test	Phase3	test/STIM_025.jpg	100
2124.977	1.023	1023.2	test	Phase3	test/STIM_025.jpg	100
2129.212	0.613	612.9	test	Phase3	test/STIM_026.jpg	99
2133.68	0.913	912.9	test	Phase3	test/STIM_026.jpg	100
2137.74	0.552	552.2	test	Phase3	test/STIM_026.jpg	100
2140.628	1.14	1139.8	test	Phase3	test/STIM_027.jpg	100
2144.293	0.842	841.6	test	Phase3	test/STIM_027.jpg	100
2148.172	1.085	1084.7	test	Phase3	test/STIM_027.jpg	99
2153.109	0.785	785.3	test	Phase3	test/STIM_028.jpg	100
2157.444	1.128	1128.2	test	Phase3	test/STIM_028.jpg	99
2161.849	0.904	904.4	test	Phase3	test/STIM_028.jpg	99
2165.574	0.872	872.3	test	Phase3	test/STIM_029.jpg	100
2169.637	1.146	1146.1	test	Phase3	test/STIM_029.jpg	99
2173.77	0.674	673.5	test	Phase3	test/STIM_029.jpg	99
