onset	duration	accuracy	trial_type	learning_stage	stimulus
0.0	2.444	correct	regulate	Run1	regulate/STIM_000.jpg
5.056	2.467	correct	regulate	Run1	regulate/STIM_000.jpg
10.527	3.351	correct	regulate	Run1	regulate/STIM_000.jpg
17.563	1.934	incorrect	regulate	Run1	regulate/STIM_000.jpg
22.588	3.011	correct	regulate	Run1	regulate/STIM_001.jpg
28.014	2.556	incorrect	regulate	Run1	regulate/STIM_001.jpg
32.658	2.353	correct	regulate	Run1	regulate/STIM_001.jpg
37.121	3.232	incorrect	regulate	Run1	regulate/STIM_001.jpg
42.579	1.695	correct	regulate	Run1	regulate/STIM_002.jpg
47.093	2.087	incorrect	regulate	Run1	regulate/STIM_002.jpg
51.483	1.622	incorrect	regulate	Run1	regulate/STIM_002.jpg
56.915	2.357	correct	regulate	Run1	regulate/STIM_002.jpg
61.64	3.571	correct	regulate	Run1	regulate/STIM_003.jpg
67.413	1.98	correct	regulate	Run1	regulate/STIM_003.jpg
71.813	2.637	correct	regulate	Run1	regulate/STIM_003.jpg
77.653	1.895	correct	regulate	Run1	regulate/STIM_003.jpg
81.559	3.58	incorrect	regulate	Run1	regulate/STIM_004.jpg
86.858	1.912	correct	regulate	Run1	regulate/STIM_004.jpg
90.805	3.008	correct	regulate	Run1	regulate/STIM_004.jpg
95.703	1.875	correct	regulate	Run1	regulate/STIM_004.jpg
99.759	1.823	correct	regulate	Run1	regulate/STIM_005.jpg
103.789	2.521	correct	regulate	Run1	regulate/STIM_005.jpg
108.937	2.85	correct	regulate	Run1	regulate/STIM_005.jpg
115.192	2.658	correct	regulate	Run1	regulate/STIM_005.jpg
121.499	2.0	correct	regulate	Run1	regulate/STIM_006.jpg
125.989	1.958	correct	regulate	Run1	regulate/STIM_006.jpg
131.27	2.559	correct	regulate	Run1	regulate/STIM_006.jpg
136.876	3.155	correct	regulate	Run1	regulate/STIM_006.jpg
143.272	3.471	incorrect	regulate	Run1	regulate/STIM_007.jpg
150.389	1.595	correct	regulate	Run1	regulate/STIM_007.jpg
154.329	3.29	correct	regulate	Run1	regulate/STIM_007.jpg
161.267	2.208	incorrect	regulate	Run1	regulate/STIM_007.jpg
167.008	3.672	correct	regulate	Run1	regulate/STIM_008.jpg
173.233	2.382	incorrect	regulate	Run1	regulate/STIM_008.jpg
179.236	3.184	correct	regulate	Run1	regulate/STIM_008.jpg
184.862	3.252	correct	regulate	Run1	regulate/STIM_008.jpg
189.949	3.444	correct	regulate	Run1	regulate/STIM_009.jpg
196.649	3.609	correct	regulate	Run1	regulate/STIM_009.jpg
203.665	2.122	correct	regulate	Run1	regulate/STIM_009.jpg
208.644	2.203	correct	regulate	Run1	regulate/STIM_009.jpg
214.031	2.248	correct	regulate	Run1	regulate/STIM_010.jpg
218.181	2.623	correct	regulate	Run1	regulate/STIM_010.jpg
222.718	2.642	correct	regulate	Run1	regulate/STIM_010.jpg
227.45	1.44	correct	regulate	Run1	regulate/STIM_010.jpg
231.087	2.308	correct	regulate	Run1	regulate/STIM_011.jpg
235.815	1.878	correct	regulate	Run1	regulate/STIM_011.jpg
239.584	3.302	incorrect	regulate	Run1	regulate/STIM_011.jpg
245.832	3.155	correct	regulate	Run1	regulate/STIM_011.jpg
252.103	2.924	correct	regulate	Run1	regulate/STIM_012.jpg
257.784	1.922	correct	regulate	Run1	regulate/STIM_012.jpg
262.27	2.813	correct	regulate	Run1	regulate/STIM_012.jpg
267.056	2.974	correct	regulate	Run1	regulate/STIM_012.jpg
273.289	3.788	correct	regulate	Run1	regulate/STIM_013.jpg
280.21	1.745	correct	regulate	Run1	regulate/STIM_013.jpg
283.847	2.469	correct	regulate	Run1	regulate/STIM_013.jpg
290.064	2.42	correct	regulate	Run1	regulate/STIM_013.jpg
294.458	3.28	correct	regulate	Run1	regulate/STIM_014.jpg
301.372	3.589	correct	regulate	Run1	regulate/STIM_014.jpg
308.647	2.188	correct	regulate	Run1	regulate/STIM_014.jpg
314.368	1.744	incorrect	regulate	Run1	regulate/STIM_014.jpg
318.168	3.482	correct	regulate	Run1	regulate/STIM_015.jpg
323.794	1.92	correct	regulate	Run1	regulate/STIM_015.jpg
329.507	2.524	correct	regulate	Run1	regulate/STIM_015.jpg
334.92	3.172	correct	regulate	Run1	regulate/STIM_015.jpg
340.14	1.943	correct	regulate	Run1	regulate/STIM_016.jpg
344.559	3.61	correct	regulate	Run1	regulate/STIM_016.jpg
351.207	3.337	incorrect	regulate	Run1	regulate/STIM_016.jpg
356.979	2.821	incorrect	regulate	Run1	regulate/STIM_016.jpg
362.984	3.394	correct	regulate	Run1	regulate/STIM_017.jpg
368.846	3.096	correct	regulate	Run1	regulate/STIM_017.jpg
374.559	2.816	correct	regulate	Run1	regulate/STIM_017.jpg
380.182	2.106	incorrect	regulate	Run1	regulate/STIM_017.jpg
385.78	2.073	correct	regulate	Run1	regulate/STIM_018.jpg
391.148	3.588	correct	regulate	Run1	regulate/STIM_018.jpg
397.187	2.186	correct	regulate	Run1	regulate/STIM_018.jpg
401.254	2.817	incorrect	regulate	Run1	regulate/STIM_018.jpg
406.156	2.01	incorrect	regulate	Run1	regulate/STIM_019.jpg
411.023	3.581	correct	regulate	Run1	regulate/STIM_019.jpg
416.517	3.074	correct	regulate	Run1	regulate/STIM_019.jpg
423.004	2.402	correct	regulate	Run1	regulate/STIM_019.jpg
428.15	2.695	incorrect	regulate	Run1	regulate/STIM_020.jpg
434.349	2.694	incorrect	regulate	Run1	regulate/STIM_020.jpg
439.607	1.764	correct	regulate	Run1	regulate/STIM_020.jpg
445.109	2.456	correct	regulate	Run1	regulate/STIM_020.jpg
449.917	2.085	correct	regulate	Run1	regulate/STIM_021.jpg
454.399	1.756	correct	regulate	Run1	regulate/STIM_021.jpg
459.808	3.196	correct	regulate	Run1	regulate/STIM_021.jpg
465.375	1.477	correct	regulate	Run1	regulate/STIM_021.jpg
470.203	2.987	correct	regulate	Run1	regulate/STIM_022.jpg
475.554	2.15	incorrect	regulate	Run1	regulate/STIM_022.jpg
479.651	1.826	incorrect	regulate	Run1	regulate/STIM_022.jpg
484.823	2.176	correct	regulate	Run1	regulate/STIM_022.jpg
488.988	2.106	correct	regulate	Run1	regulate/STIM_023.jpg
493.775	3.607	correct	regulate	Run1	regulate/STIM_023.jpg
500.28	2.683	correct	regulate	Run1	regulate/STIM_023.jpg
504.74	2.951	correct	regulate	Run1	regulate/STIM_023.jpg
510.274	3.148	correct	regulate	Run1	regulate/STIM_024.jpg
515.619	2.922	incorrect	regulate	Run1	regulate/STIM_024.jpg
521.165	3.214	correct	regulate	Run1	regulate/STIM_024.jpg
526.927	2.872	correct	regulate	Run1	regulate/STIM_024.jpg
533.406	2.725	correct	regulate	Run1	regulate/STIM_025.jpg
537.982	2.107	incorrect	regulate	Run1	regulate/STIM_025.jpg
543.632	2.362	correct	regulate	Run1	regulate/STIM_025.jpg
548.986	2.637	correct	regulate	Run1	regulate/STIM_025.jpg
555.302	2.833	correct	regulate	Run1	regulate/STIM_026.jpg
559.973	3.141	incorrect	regulate	Run1	regulate/STIM_026.jpg
566.616	3.044	correct	regulate	Run1	regulate/STIM_026.jpg
573.026	2.586	correct	regulate	Run1	regulate/STIM_026.jpg
578.58	3.386	correct	regulate	Run1	regulate/STIM_027.jpg
584.528	2.497	incorrect	regulate	Run1	regulate/STIM_027.jpg
589.59	3.177	correct	regulate	Run1	regulate/STIM_027.jpg
595.357	1.632	correct	regulate	Run1	regulate/STIM_027.jpg
599.867	3.631	correct	regulate	Run1	regulate/STIM_028.jpg
606.728	2.594	correct	regulate	Run1	regulate/STIM_028.jpg
611.265	1.526	correct	regulate	Run1	regulate/STIM_028.jpg
616.52	2.819	incorrect	regulate	Run1	regulate/STIM_028.jpg
622.589	2.223	correct	regulate	Run1	regulate/STIM_029.jpg
627.741	3.472	correct	regulate	Run1	regulate/STIM_029.jpg
634.681	2.477	correct	regulate	Run1	regulate/STIM_029.jpg
639.105	1.881	correct	regulate	Run1	regulate/STIM_029.jpg
643.549	1.523	correct	observe	Run1	observe/STIM_000.jpg
648.639	1.158	correct	observe	Run1	observe/STIM_000.jpg
653.271	0.94	correct	observe	Run1	observe/STIM_000.jpg
656.749	1.101	correct	observe	Run1	observe/STIM_000.jpg
659.897	0.951	correct	observe	Run1	observe/STIM_001.jpg
664.106	1.286	correct	observe	Run1	observe/STIM_001.jpg
668.488	1.623	correct	observe	Run1	observe/STIM_001.jpg
672.398	1.676	incorrect	observe	Run1	observe/STIM_001.jpg
677.791	0.973	correct	observe	Run1	observe/STIM_002.jpg
681.426	1.219	correct	observe	Run1	observe/STIM_002.jpg
685.176	1.673	correct	observe	Run1	observe/STIM_002.jpg
689.109	1.665	correct	observe	Run1	observe/STIM_002.jpg
692.826	1.349	correct	observe	Run1	observe/STIM_003.jpg
697.769	0.988	correct	observe	Run1	observe/STIM_003.jpg
702.343	0.896	incorrect	observe	Run1	observe/STIM_003.jpg
705.172	1.483	correct	observe	Run1	observe/STIM_003.jpg
709.365	0.939	correct	observe	Run1	observe/STIM_004.jpg
713.603	1.517	correct	observe	Run1	observe/STIM_004.jpg
718.479	1.628	correct	observe	Run1	observe/STIM_004.jpg
723.597	1.631	correct	observe	Run1	observe/STIM_004.jpg
728.259	1.336	correct	observe	Run1	observe/STIM_005.jpg
732.355	1.715	correct	observe	Run1	observe/STIM_005.jpg
736.82	1.581	correct	observe	Run1	observe/STIM_005.jpg
740.739	1.108	incorrect	observe	Run1	observe/STIM_005.jpg
744.03	1.095	correct	observe	Run1	observe/STIM_006.jpg
747.599	1.525	correct	observe	Run1	observe/STIM_006.jpg
752.135	0.936	correct	observe	Run1	observe/STIM_006.jpg
755.234	1.7	correct	observe	Run1	observe/STIM_006.jpg
759.378	1.291	correct	observe	Run1	observe/STIM_007.jpg
763.886	1.162	correct	observe	Run1	observe/STIM_007.jpg
767.203	1.43	correct	observe	Run1	observe/STIM_007.jpg
771.64	1.317	correct	observe	Run1	observe/STIM_007.jpg
776.797	1.27	correct	observe	Run1	observe/STIM_008.jpg
780.638	1.568	correct	observe	Run1	observe/STIM_008.jpg
784.134	0.923	correct	observe	Run1	observe/STIM_008.jpg
787.298	0.92	correct	observe	Run1	observe/STIM_008.jpg
790.206	1.143	correct	observe	Run1	observe/STIM_009.jpg
793.869	1.349	correct	observe	Run1	observe/STIM_009.jpg
797.554	1.039	correct	observe	Run1	observe/STIM_009.jpg
800.772	1.268	correct	observe	Run1	observe/STIM_009.jpg
805.142	1.258	correct	observe	Run1	observe/STIM_010.jpg
808.518	1.024	correct	observe	Run1	observe/STIM_010.jpg
813.325	1.096	correct	observe	Run1	observe/STIM_010.jpg
817.332	1.688	correct	observe	Run1	observe/STIM_010.jpg
821.076	1.669	incorrect	observe	Run1	observe/STIM_011.jpg
824.682	1.389	correct	observe	Run1	observe/STIM_011.jpg
828.042	1.505	incorrect	observe	Run1	observe/STIM_011.jpg
833.04	1.749	correct	observe	Run1	observe/STIM_011.jpg
837.907	1.594	correct	observe	Run1	observe/STIM_012.jpg
841.421	1.3	correct	observe	Run1	observe/STIM_012.jpg
844.925	1.072	incorrect	observe	Run1	observe/STIM_012.jpg
848.663	1.018	correct	observe	Run1	observe/STIM_012.jpg
852.746	1.417	correct	observe	Run1	observe/STIM_013.jpg
856.17	0.988	correct	observe	Run1	observe/STIM_013.jpg
860.318	1.727	correct	observe	Run1	observe/STIM_013.jpg
864.433	1.513	correct	observe	Run1	observe/STIM_013.jpg
868.814	1.626	correct	observe	Run1	observe/STIM_014.jpg
873.923	1.677	correct	observe	Run1	observe/STIM_014.jpg
879.202	1.121	correct	observe	Run1	observe/STIM_014.jpg
883.37	1.386	incorrect	observe	Run1	observe/STIM_014.jpg
887.722	1.03	incorrect	observe	Run1	observe/STIM_015.jpg
892.509	1.168	correct	observe	Run1	observe/STIM_015.jpg
896.821	0.954	correct	observe	Run1	observe/STIM_015.jpg
899.942	1.315	correct	observe	Run1	observe/STIM_015.jpg
903.913	1.4	correct	observe	Run1	observe/STIM_016.jpg
907.828	0.938	correct	observe	Run1	observe/STIM_016.jpg
911.78	1.446	incorrect	observe	Run1	observe/STIM_016.jpg
916.426	1.291	correct	observe	Run1	observe/STIM_016.jpg
920.067	1.718	correct	observe	Run1	observe/STIM_017.jpg
923.911	0.895	correct	observe	Run1	observe/STIM_017.jpg
928.386	1.359	correct	observe	Run1	observe/STIM_017.jpg
932.371	0.923	incorrect	observe	Run1	observe/STIM_017.jpg
935.35	1.345	correct	observe	Run1	observe/STIM_018.jpg
940.496	1.697	correct	observe	Run1	observe/STIM_018.jpg
945.391	1.461	correct	observe	Run1	observe/STIM_018.jpg
948.866	1.172	correct	observe	Run1	observe/STIM_018.jpg
953.903	1.267	correct	observe	Run1	observe/STIM_019.jpg
957.089	0.934	correct	observe	Run1	observe/STIM_019.jpg
960.996	1.484	correct	observe	Run1	observe/STIM_019.jpg
966.256	1.21	correct	observe	Run1	observe/STIM_019.jpg
970.249	2.419	correct	regulate	Run2	regulate/STIM_000.jpg
975.374	2.228	correct	regulate	Run2	regulate/STIM_000.jpg
979.936	1.693	incorrect	regulate	Run2	regulate/STIM_000.jpg
984.38	1.161	correct	regulate	Run2	regulate/STIM_000.jpg
989.217	2.142	correct	regulate	Run2	regulate/STIM_001.jpg
993.404	1.737	correct	regulate	Run2	regulate/STIM_001.jpg
997.386	1.852	correct	regulate	Run2	regulate/STIM_001.jpg
1002.919	2.586	correct	regulate	Run2	regulate/STIM_001.jpg
1009.254	1.462	correct	regulate	Run2	regulate/STIM_002.jpg
1013.249	1.714	correct	regulate	Run2	regulate/STIM_002.jpg
1018.195	2.618	incorrect	regulate	Run2	regulate/STIM_002.jpg
1024.151	1.878	correct	regulate	Run2	regulate/STIM_002.jpg
1028.187	2.792	correct	regulate	Run2	regulate/STIM_003.jpg
1033.485	3.058	correct	regulate	Run2	regulate/STIM_003.jpg
1039.605	1.415	incorrect	regulate	Run2	regulate/STIM_003.jpg
1044.676	1.786	incorrect	regulate	Run2	regulate/STIM_003.jpg
1049.812	2.718	correct	regulate	Run2	regulate/STIM_004.jpg
1054.55	1.829	correct	regulate	Run2	regulate/STIM_004.jpg
1059.795	1.302	correct	regulate	Run2	regulate/STIM_004.jpg
1063.285	2.381	correct	regulate	Run2	regulate/STIM_004.jpg
1068.764	2.916	incorrect	regulate	Run2	regulate/STIM_005.jpg
1074.038	1.727	incorrect	regulate	Run2	regulate/STIM_005.jpg
1078.075	2.524	correct	regulate	Run2	regulate/STIM_005.jpg
1082.558	2.502	correct	regulate	Run2	regulate/STIM_005.jpg
1088.843	3.181	correct	regulate	Run2	regulate/STIM_006.jpg
1095.424	2.107	correct	regulate	Run2	regulate/STIM_006.jpg
1100.409	2.734	correct	regulate	Run2	regulate/STIM_006.jpg
1105.777	1.209	correct	regulate	Run2	regulate/STIM_006.jpg
1109.346	2.67	correct	regulate	Run2	regulate/STIM_007.jpg
1115.109	2.192	correct	regulate	Run2	regulate/STIM_007.jpg
1119.633	2.08	correct	regulate	Run2	regulate/STIM_007.jpg
1123.942	1.866	correct	regulate	Run2	regulate/STIM_007.jpg
1129.224	1.872	correct	regulate	Run2	regulate/STIM_008.jpg
1134.435	2.421	correct	regulate	Run2	regulate/STIM_008.jpg
1139.423	2.108	correct	regulate	Run2	regulate/STIM_008.jpg
1144.778	2.106	correct	regulate	Run2	regulate/STIM_008.jpg
1150.016	1.624	correct	regulate	Run2	regulate/STIM_009.jpg
1154.877	2.596	incorrect	regulate	Run2	regulate/STIM_009.jpg
1160.632	1.86	correct	regulate	Run2	regulate/STIM_009.jpg
1165.041	1.882	correct	regulate	Run2	regulate/STIM_009.jpg
1169.509	2.866	correct	regulate	Run2	regulate/STIM_010.jpg
1175.517	2.343	correct	regulate	Run2	regulate/STIM_010.jpg
1180.472	2.632	correct	regulate	Run2	regulate/STIM_010.jpg
1186.775	1.323	correct	regulate	Run2	regulate/STIM_010.jpg
1190.226	2.317	correct	regulate	Run2	regulate/STIM_011.jpg
1195.054	2.933	correct	regulate	Run2	regulate/STIM_011.jpg
1199.743	1.286	correct	regulate	Run2	regulate/STIM_011.jpg
1203.076	2.392	correct	regulate	Run2	regulate/STIM_011.jpg
1209.179	1.677	correct	regulate	Run2	regulate/STIM_012.jpg
1213.235	2.746	incorrect	regulate	Run2	regulate/STIM_012.jpg
1219.279	2.207	correct	regulate	Run2	regulate/STIM_012.jpg
1224.719	2.353	correct	regulate	Run2	regulate/STIM_012.jpg
1229.666	2.118	correct	regulate	Run2	regulate/STIM_013.jpg
1234.898	2.879	incorrect	regulate	Run2	regulate/STIM_013.jpg
1241.455	2.805	correct	regulate	Run2	regulate/STIM_013.jpg
1246.047	2.033	correct	regulate	Run2	regulate/STIM_013.jpg
1250.995	2.062	correct	regulate	Run2	regulate/STIM_014.jpg
1255.98	2.894	correct	regulate	Run2	regulate/STIM_014.jpg
1261.735	2.171	correct	regulate	Run2	regulate/STIM_014.jpg
1267.33	1.907	correct	regulate	Run2	regulate/STIM_014.jpg
1272.454	3.199	correct	regulate	Run2	regulate/STIM_015.jpg
1277.793	2.521	correct	regulate	Run2	regulate/STIM_015.jpg
1283.197	2.835	correct	regulate	Run2	regulate/STIM_015.jpg
1288.502	2.249	correct	regulate	Run2	regulate/STIM_015.jpg
1293.096	1.948	incorrect	regulate	Run2	regulate/STIM_016.jpg
1297.17	2.025	correct	regulate	Run2	regulate/STIM_016.jpg
1301.875	2.275	correct	regulate	Run2	regulate/STIM_016.jpg
1307.286	1.576	correct	regulate	Run2	regulate/STIM_016.jpg
1312.517	1.524	correct	regulate	Run2	regulate/STIM_017.jpg
1316.406	2.091	correct	regulate	Run2	regulate/STIM_017.jpg
1321.508	2.27	correct	regulate	Run2	regulate/STIM_017.jpg
1327.58	1.638	correct	regulate	Run2	regulate/STIM_017.jpg
1331.697	1.404	correct	regulate	Run2	regulate/STIM_018.jpg
1336.696	2.666	incorrect	regulate	Run2	regulate/STIM_018.jpg
1342.038	1.37	correct	regulate	Run2	regulate/STIM_018.jpg
1346.294	1.642	correct	regulate	Run2	regulate/STIM_018.jpg
1350.906	3.124	correct	regulate	Run2	regulate/STIM_019.jpg
1356.903	1.449	correct	regulate	Run2	regulate/STIM_019.jpg
1360.251	2.206	correct	regulate	Run2	regulate/STIM_019.jpg
1364.392	1.536	correct	regulate	Run2	regulate/STIM_019.jpg
1368.852	2.454	correct	regulate	Run2	regulate/STIM_020.jpg
1374.037	2.667	correct	regulate	Run2	regulate/STIM_020.jpg
1378.696	2.117	correct	regulate	Run2	regulate/STIM_020.jpg
1384.177	1.977	correct	regulate	Run2	regulate/STIM_020.jpg
1388.67	1.833	correct	regulate	Run2	regulate/STIM_021.jpg
1393.679	1.652	correct	regulate	Run2	regulate/STIM_021.jpg
1398.729	2.551	correct	regulate	Run2	regulate/STIM_021.jpg
1404.357	2.045	correct	regulate	Run2	regulate/STIM_021.jpg
1409.477	2.741	correct	regulate	Run2	regulate/STIM_022.jpg
1415.586	3.057	correct	regulate	Run2	regulate/STIM_022.jpg
1420.554	2.83	correct	regulate	Run2	regulate/STIM_022.jpg
1426.032	1.943	correct	regulate	Run2	regulate/STIM_022.jpg
1431.595	2.951	correct	regulate	Run2	regulate/STIM_023.jpg
1436.777	1.728	correct	regulate	Run2	regulate/STIM_023.jpg
1440.711	1.88	correct	regulate	Run2	regulate/STIM_023.jpg
1445.165	1.904	correct	regulate	Run2	regulate/STIM_023.jpg
1450.456	2.382	correct	regulate	Run2	regulate/STIM_024.jpg
1454.713	2.356	correct	regulate	Run2	regulate/STIM_024.jpg
1459.091	2.311	correct	regulate	Run2	regulate/STIM_024.jpg
1464.226	2.515	correct	regulate	Run2	regulate/STIM_024.jpg
1469.795	1.612	incorrect	regulate	Run2	regulate/STIM_025.jpg
1473.452	2.156	correct	regulate	Run2	regulate/STIM_025.jpg
1479.03	1.323	correct	regulate	Run2	regulate/STIM_025.jpg
1482.448	2.125	correct	regulate	Run2	regulate/STIM_025.jpg
1488.232	2.36	correct	regulate	Run2	regulate/STIM_026.jpg
1493.747	1.391	incorrect	regulate	Run2	regulate/STIM_026.jpg
1498.701	1.855	correct	regulate	Run2	regulate/STIM_026.jpg
1504.259	1.903	correct	regulate	Run2	regulate/STIM_026.jpg
1509.411	2.892	correct	regulate	Run2	regulate/STIM_027.jpg
1514.36	2.804	correct	regulate	Run2	regulate/STIM_027.jpg
1519.934	2.402	correct	regulate	Run2	regulate/STIM_027.jpg
1525.08	1.278	correct	regulate	Run2	regulate/STIM_027.jpg
1529.683	2.119	correct	regulate	Run2	regulate/STIM_028.jpg
1534.643	2.972	incorrect	regulate	Run2	regulate/STIM_028.jpg
1540.059	2.293	correct	regulate	Run2	regulate/STIM_028.jpg
1544.978	2.434	correct	regulate	Run2	regulate/STIM_028.jpg
1551.144	1.642	correct	regulate	Run2	regulate/STIM_029.jpg
1555.993	1.728	correct	regulate	Run2	regulate/STIM_029.jpg
1560.203	1.604	correct	regulate	Run2	regulate/STIM_029.jpg
1564.589	1.258	correct	regulate	Run2	regulate/STIM_029.jpg
1569.173	0.924	correct	observe	Run2	observe/STIM_000.jpg
1573.718	1.491	correct	observe	Run2	observe/STIM_000.jpg
1577.753	0.891	correct	observe	Run2	observe/STIM_000.jpg
1582.16	1.594	correct	observe	Run2	observe/STIM_000.jpg
1585.896	1.703	correct	observe	Run2	observe/STIM_001.jpg
1590.06	1.247	correct	observe	Run2	observe/STIM_001.jpg
1593.713	1.711	correct	observe	Run2	observe/STIM_001.jpg
1598.052	1.012	correct	observe	Run2	observe/STIM_001.jpg
1601.925	1.601	correct	observe	Run2	observe/STIM_002.jpg
1606.116	1.318	correct	observe	Run2	observe/STIM_002.jpg
1610.133	1.692	correct	observe	Run2	observe/STIM_002.jpg
1614.866	0.926	correct	observe	Run2	observe/STIM_002.jpg
1617.757	1.235	incorrect	observe	Run2	observe/STIM_003.jpg
1622.233	1.023	incorrect	observe	Run2	observe/STIM_003.jpg
1625.685	1.149	correct	observe	Run2	observe/STIM_003.jpg
1629.411	1.584	correct	observe	Run2	observe/STIM_003.jpg
1634.786	1.217	correct	observe	Run2	observe/STIM_004.jpg
1639.099	1.726	correct	observe	Run2	observe/STIM_004.jpg
1643.763	1.661	correct	observe	Run2	observe/STIM_004.jpg
1649.12	0.949	correct	observe	Run2	observe/STIM_004.jpg
1652.339	1.658	correct	observe	Run2	observe/STIM_005.jpg
1656.861	1.558	correct	observe	Run2	observe/STIM_005.jpg
1660.874	1.267	correct	observe	Run2	observe/STIM_005.jpg
1665.238	1.352	incorrect	observe	Run2	observe/STIM_005.jpg
1669.826	1.254	correct	observe	Run2	observe/STIM_006.jpg
1673.02	1.472	correct	observe	Run2	observe/STIM_006.jpg
1677.798	1.693	correct	observe	Run2	observe/STIM_006.jpg
1683.228	1.279	correct	observe	Run2	observe/STIM_006.jpg
1687.343	1.309	correct	observe	Run2	observe/STIM_007.jpg
1692.336	1.381	correct	observe	Run2	observe/STIM_007.jpg
1697.522	1.122	correct	observe	Run2	observe/STIM_007.jpg
1700.993	1.12	correct	observe	Run2	observe/STIM_007.jpg
1705.147	1.253	correct	observe	Run2	observe/STIM_008.jpg
1709.852	1.745	correct	observe	Run2	observe/STIM_008.jpg
1714.113	1.624	correct	observe	Run2	observe/STIM_008.jpg
1718.97	0.912	correct	observe	Run2	observe/STIM_008.jpg
1722.599	1.026	correct	observe	Run2	observe/STIM_009.jpg
1726.089	1.632	correct	observe	Run2	observe/STIM_009.jpg
1731.331	1.735	correct	observe	Run2	observe/STIM_009.jpg
1735.951	1.122	correct	observe	Run2	observe/STIM_009.jpg
1739.087	1.218	correct	observe	Run2	observe/STIM_010.jpg
1743.818	1.558	correct	observe	Run2	observe/STIM_010.jpg
1747.606	0.88	correct	observe	Run2	observe/STIM_010.jpg
1751.103	1.027	correct	observe	Run2	observe/STIM_010.jpg
1755.658	1.262	incorrect	observe	Run2	observe/STIM_011.jpg
1758.843	1.078	correct	observe	Run2	observe/STIM_011.jpg
1763.319	0.985	correct	observe	Run2	observe/STIM_011.jpg
1766.751	0.944	correct	observe	Run2	observe/STIM_011.jpg
1771.144	0.932	correct	observe	Run2	observe/STIM_012.jpg
1775.327	1.105	incorrect	observe	Run2	observe/STIM_012.jpg
1778.95	1.387	correct	observe	Run2	observe/STIM_012.jpg
1783.655	1.248	correct	observe	Run2	observe/STIM_012.jpg
1788.457	1.241	correct	observe	Run2	observe/STIM_013.jpg
1791.911	1.656	correct	observe	Run2	observe/STIM_013.jpg
1796.904	1.034	correct	observe	Run2	observe/STIM_013.jpg
1800.382	1.321	correct	observe	Run2	observe/STIM_013.jpg
1804.443	1.232	correct	observe	Run2	observe/STIM_014.jpg
1807.722	1.317	correct	observe	Run2	observe/STIM_014.jpg
1811.494	1.548	correct	observe	Run2	observe/STIM_014.jpg
1815.667	1.169	correct	observe	Run2	observe/STIM_014.jpg
1819.193	1.117	correct	observe	Run2	observe/STIM_015.jpg
1823.544	1.388	correct	observe	Run2	observe/STIM_015.jpg
1826.914	1.089	correct	observe	Run2	observe/STIM_015.jpg
1830.178	1.308	incorrect	observe	Run2	observe/STIM_015.jpg
1835.244	1.744	correct	observe	Run2	observe/STIM_016.jpg
1839.871	1.35	correct	observe	Run2	observe/STIM_016.jpg
1844.985	1.166	correct	observe	Run2	observe/STIM_016.jpg
1849.505	1.124	correct	observe	Run2	observe/STIM_016.jpg
1853.517	1.004	correct	observe	Run2	observe/STIM_017.jpg
1856.885	1.004	correct	observe	Run2	observe/STIM_017.jpg
1861.444	1.542	correct	observe	Run2	observe/STIM_017.jpg
1866.038	0.946	correct	observe	Run2	observe/STIM_017.jpg
1869.365	1.62	correct	observe	Run2	observe/STIM_018.jpg
1874.164	1.52	correct	observe	Run2	observe/STIM_018.jpg
1879.477	1.63	correct	observe	Run2	observe/STIM_018.jpg
1883.832	1.667	correct	observe	Run2	observe/STIM_018.jpg
1887.846	1.244	incorrect	observe	Run2	observe/STIM_019.jpg
1892.779	1.233	incorrect	observe	Run2	observe/STIM_019.jpg
1897.338	1.441	correct	observe	Run2	observe/STIM_019.jpg
1901.296	1.232	correct	observe	Run2	observe/STIM_019.jpg
1905.916	1.584	correct	regulate	Run3	regulate/STIM_000.jpg
1909.997	1.778	correct	regulate	Run3	regulate/STIM_000.jpg
1914.361	1.507	correct	regulate	Run3	regulate/STIM_000.jpg
1918.359	2.364	correct	regulate	Run3	regulate/STIM_000.jpg
1924.411	2.329	correct	regulate	Run3	regulate/STIM_001.jpg
1929.299	1.956	correct	regulate	Run3	regulate/STIM_001.jpg
1933.972	1.923	correct	regulate	Run3	regulate/STIM_001.jpg
1938.865	1.692	correct	regulate	Run3	regulate/STIM_001.jpg
1943.963	2.281	correct	regulate	Run3	regulate/STIM_002.jpg
1948.921	2.282	correct	regulate	Run3	regulate/STIM_002.jpg
1953.927	2.25	correct	regulate	Run3	regulate/STIM_002.jpg
1958.951	2.259	correct	regulate	Run3	regulate/STIM_002.jpg
1964.38	1.646	correct	regulate	Run3	regulate/STIM_003.jpg
1969.297	2.057	correct	regulate	Run3	regulate/STIM_003.jpg
1974.452	1.336	correct	regulate	Run3	regulate/STIM_003.jpg
1978.725	1.775	correct	regulate	Run3	regulate/STIM_003.jpg
1984.074	2.216	correct	regulate	Run3	regulate/STIM_004.jpg
1988.492	2.395	correct	regulate	Run3	regulate/STIM_004.jpg
1993.407	2.44	correct	regulate	Run3	regulate/STIM_004.jpg
1998.92	2.487	correct	regulate	Run3	regulate/STIM_004.jpg
2003.803	1.489	incorrect	regulate	Run3	regulate/STIM_005.jpg
2007.587	2.001	correct	regulate	Run3	regulate/STIM_005.jpg
2011.44	1.555	correct	regulate	Run3	regulate/STIM_005.jpg
2015.667	1.434	correct	regulate	Run3	regulate/STIM_005.jpg
2020.445	2.004	correct	regulate	Run3	regulate/STIM_006.jpg
2024.512	1.822	correct	regulate	Run3	regulate/STIM_006.jpg
2030.162	1.748	correct	regulate	Run3	regulate/STIM_006.jpg
2034.391	1.912	correct	regulate	Run3	regulate/STIM_006.jpg
2038.945	2.336	correct	regulate	Run3	regulate/STIM_007.jpg
2043.5	1.608	correct	regulate	Run3	regulate/STIM_007.jpg
2048.105	2.109	correct	regulate	Run3	regulate/STIM_007.jpg
2053.312	2.036	correct	regulate	Run3	regulate/STIM_007.jpg
2058.863	1.258	correct	regulate	Run3	regulate/STIM_008.jpg
2062.478	1.207	correct	regulate	Run3	regulate/STIM_008.jpg
2066.796	1.521	correct	regulate	Run3	regulate/STIM_008.jpg
2070.324	2.5	correct	regulate	Run3	regulate/STIM_008.jpg
2075.151	1.362	correct	regulate	Run3	regulate/STIM_009.jpg
2080.317	1.557	correct	regulate	Run3	regulate/STIM_009.jpg
2084.539	1.741	correct	regulate	Run3	regulate/STIM_009.jpg
2089.266	2.499	correct	regulate	Run3	regulate/STIM_009.jpg
2094.006	1.444	correct	regulate	Run3	regulate/STIM_010.jpg
2098.916	2.426	incorrect	regulate	Run3	regulate/STIM_010.jpg
2103.174	1.6	correct	regulate	Run3	regulate/STIM_010.jpg
2107.909	1.652	correct	regulate	Run3	regulate/STIM_010.jpg
2112.131	2.656	correct	regulate	Run3	regulate/STIM_011.jpg
2118.215	2.241	incorrect	regulate	Run3	regulate/STIM_011.jpg
2123.252	2.079	correct	regulate	Run3	regulate/STIM_011.jpg
2128.669	1.818	correct	regulate	Run3	regulate/STIM_011.jpg
2133.732	1.238	correct	regulate	Run3	regulate/STIM_012.jpg
2136.931	2.617	incorrect	regulate	Run3	regulate/STIM_012.jpg
2141.726	1.38	correct	regulate	Run3	regulate/STIM_012.jpg
2146.834	2.018	incorrect	regulate	Run3	regulate/STIM_012.jpg
2151.463	2.212	correct	regulate	Run3	regulate/STIM_013.jpg
2156.932	2.553	correct	regulate	Run3	regulate/STIM_013.jpg
2161.296	1.921	correct	regulate	Run3	regulate/STIM_013.jpg
2166.362	2.626	correct	regulate	Run3	regulate/STIM_013.jpg
2172.544	1.428	correct	regulate	Run3	regulate/STIM_014.jpg
2177.083	2.573	correct	regulate	Run3	regulate/STIM_014.jpg
2181.841	1.452	correct	regulate	Run3	regulate/STIM_014.jpg
2186.837	2.642	incorrect	regulate	Run3	regulate/STIM_014.jpg
2192.711	1.598	correct	regulate	Run3	regulate/STIM_015.jpg
2196.489	1.958	correct	regulate	Run3	regulate/STIM_015.jpg
2201.513	2.09	correct	regulate	Run3	regulate/STIM_015.jpg
2205.866	1.628	correct	regulate	Run3	regulate/STIM_015.jpg
2211.21	2.014	correct	regulate	Run3	regulate/STIM_016.jpg
2216.683	2.318	correct	regulate	Run3	regulate/STIM_016.jpg
2222.26	2.124	correct	regulate	Run3	regulate/STIM_016.jpg
2227.414	1.297	correct	regulate	Run3	regulate/STIM_016.jpg
2230.844	2.331	correct	regulate	Run3	regulate/STIM_017.jpg
2236.973	1.455	correct	regulate	Run3	regulate/STIM_017.jpg
2240.768	1.831	correct	regulate	Run3	regulate/STIM_017.jpg
2244.981	2.27	correct	regulate	Run3	regulate/STIM_017.jpg
2250.375	1.437	correct	regulate	Run3	regulate/STIM_018.jpg
2255.124	2.442	correct	regulate	Run3	regulate/STIM_018.jpg
2260.892	1.384	correct	regulate	Run3	regulate/STIM_018.jpg
2264.652	2.422	correct	regulate	Run3	regulate/STIM_018.jpg
2269.042	1.16	correct	regulate	Run3	regulate/STIM_019.jpg
2272.846	2.626	correct	regulate	Run3	regulate/STIM_019.jpg
2279.176	2.312	correct	regulate	Run3	regulate/STIM_019.jpg
2284.342	2.513	correct	regulate	Run3	regulate/STIM_019.jpg
2290.044	1.576	correct	regulate	Run3	regulate/STIM_020.jpg
2293.711	1.743	correct	regulate	Run3	regulate/STIM_020.jpg
2297.868	2.674	correct	regulate	Run3	regulate/STIM_020.jpg
2302.406	2.071	correct	regulate	Run3	regulate/STIM_020.jpg
2308.19	1.902	correct	regulate	Run3	regulate/STIM_021.jpg
2312.461	1.256	correct	regulate	Run3	regulate/STIM_021.jpg
2316.845	1.191	correct	regulate	Run3	regulate/STIM_021.jpg
2320.853	1.305	correct	regulate	Run3	regulate/STIM_021.jpg
2324.175	2.005	correct	regulate	Run3	regulate/STIM_022.jpg
2329.053	2.018	correct	regulate	Run3	regulate/STIM_022.jpg
2334.554	2.669	correct	regulate	Run3	regulate/STIM_022.jpg
2339.374	2.2	correct	regulate	Run3	regulate/STIM_022.jpg
2344.434	2.148	correct	regulate	Run3	regulate/STIM_023.jpg
2348.488	1.651	correct	regulate	Run3	regulate/STIM_023.jpg
2352.901	1.974	correct	regulate	Run3	regulate/STIM_023.jpg
2356.899	2.625	correct	regulate	Run3	regulate/STIM_023.jpg
2363.102	1.165	correct	regulate	Run3	regulate/STIM_024.jpg
2367.035	2.264	correct	regulate	Run3	regulate/STIM_024.jpg
2371.32	1.257	correct	regulate	Run3	regulate/STIM_024.jpg
2374.86	1.847	correct	regulate	Run3	regulate/STIM_024.jpg
2379.739	2.162	correct	regulate	Run3	regulate/STIM_025.jpg
2384.618	2.102	correct	regulate	Run3	regulate/STIM_025.jpg
2389.141	1.947	correct	regulate	Run3	regulate/STIM_025.jpg
2394.308	1.505	correct	regulate	Run3	regulate/STIM_025.jpg
2398.19	1.184	correct	regulate	Run3	regulate/STIM_026.jpg
2402.776	1.541	correct	regulate	Run3	regulate/STIM_026.jpg
2407.535	2.06	correct	regulate	Run3	regulate/STIM_026.jpg
2413.059	2.563	correct	regulate	Run3	regulate/STIM_026.jpg
2418.948	2.277	correct	regulate	Run3	regulate/STIM_027.jpg
2424.182	2.022	correct	regulate	Run3	regulate/STIM_027.jpg
2429.417	1.492	correct	regulate	Run3	regulate/STIM_027.jpg
2433.714	2.392	incorrect	regulate	Run3	regulate/STIM_027.jpg
2438.125	2.026	correct	regulate	Run3	regulate/STIM_028.jpg
2443.903	1.48	incorrect	regulate	Run3	regulate/STIM_028.jpg
2448.31	1.536	correct	regulate	Run3	regulate/STIM_028.jpg
2451.956	2.177	correct	regulate	Run3	regulate/STIM_028.jpg
2457.599	1.947	correct	regulate	Run3	regulate/STIM_029.jpg
2462.279	1.545	correct	regulate	Run3	regulate/STIM_029.jpg
2466.777	1.97	correct	regulate	Run3	regulate/STIM_029.jpg
2472.549	2.465	correct	regulate	Run3	regulate/STIM_029.jpg
2478.63	1.034	incorrect	observe	Run3	observe/STIM_000.jpg
2482.058	1.275	incorrect	observe	Run3	observe/STIM_000.jpg
2485.272	1.596	correct	observe	Run3	observe/STIM_000.jpg
2488.802	1.524	correct	observe	Run3	observe/STIM_000.jpg
2493.417	1.272	correct	observe	Run3	observe/STIM_001.jpg
2497.033	1.12	correct	observe	Run3	observe/STIM_001.jpg
2500.514	1.462	correct	observe	Run3	observe/STIM_001.jpg
2504.786	1.142	correct	observe	Run3	observe/STIM_001.jpg
2508.479	1.002	correct	observe	Run3	observe/STIM_002.jpg
2512.726	1.404	correct	observe	Run3	observe/STIM_002.jpg
2516.939	1.483	correct	observe	Run3	observe/STIM_002.jpg
2521.029	1.075	correct	observe	Run3	observe/STIM_002.jpg
2525.198	1.314	correct	observe	Run3	observe/STIM_003.jpg
2530.072	0.954	correct	observe	Run3	observe/STIM_003.jpg
2534.312	0.962	correct	observe	Run3	observe/STIM_003.jpg
2537.977	1.135	correct	observe	Run3	observe/STIM_003.jpg
2541.41	1.66	correct	observe	Run3	observe/STIM_004.jpg
2546.711	1.743	correct	observe	Run3	observe/STIM_004.jpg
2550.898	1.07	correct	observe	Run3	observe/STIM_004.jpg
2554.952	1.268	incorrect	observe	Run3	observe/STIM_004.jpg
2559.755	1.176	incorrect	observe	Run3	observe/STIM_005.jpg
2563.168	1.268	incorrect	observe	Run3	observe/STIM_005.jpg
2566.75	1.168	correct	observe	Run3	observe/STIM_005.jpg
2570.698	0.969	correct	observe	Run3	observe/STIM_005.jpg
2575.144	1.319	correct	observe	Run3	observe/STIM_006.jpg
2580.273	1.498	correct	observe	Run3	observe/STIM_006.jpg
2583.987	1.156	correct	observe	Run3	observe/STIM_006.jpg
2588.796	1.548	incorrect	observe	Run3	observe/STIM_006.jpg
2592.769	1.681	correct	observe	Run3	observe/STIM_007.jpg
2596.753	1.468	correct	observe	Run3	observe/STIM_007.jpg
2600.148	1.108	correct	observe	Run3	observe/STIM_007.jpg
2604.973	1.18	correct	observe	Run3	observe/STIM_007.jpg
2608.655	1.381	correct	observe	Run3	observe/STIM_008.jpg
2612.285	1.256	correct	observe	Run3	observe/STIM_008.jpg
2616.027	1.704	incorrect	observe	Run3	observe/STIM_008.jpg
2619.723	1.32	correct	observe	Run3	observe/STIM_008.jpg
2623.827	1.072	correct	observe	Run3	observe/STIM_009.jpg
2627.956	1.44	correct	observe	Run3	observe/STIM_009.jpg
2633.01	1.644	incorrect	observe	Run3	observe/STIM_009.jpg
2638.02	1.603	correct	observe	Run3	observe/STIM_009.jpg
2641.519	1.172	correct	observe	Run3	observe/STIM_010.jpg
2646.068	1.357	incorrect	observe	Run3	observe/STIM_010.jpg
2649.34	1.367	correct	observe	Run3	observe/STIM_010.jpg
2653.115	1.086	correct	observe	Run3	observe/STIM_010.jpg
2656.766	0.952	correct	observe	Run3	observe/STIM_011.jpg
2660.796	1.275	correct	observe	Run3	observe/STIM_011.jpg
2665.198	1.068	correct	observe	Run3	observe/STIM_011.jpg
2668.95	1.648	correct	observe	Run3	observe/STIM_011.jpg
2674.04	1.485	correct	observe	Run3	observe/STIM_012.jpg
2677.762	1.135	correct	observe	Run3	observe/STIM_012.jpg
2682.647	1.661	correct	observe	Run3	observe/STIM_012.jpg
2687.351	0.897	incorrect	observe	Run3	observe/STIM_012.jpg
2691.742	1.172	correct	observe	Run3	observe/STIM_013.jpg
2696.689	1.469	correct	observe	Run3	observe/STIM_013.jpg
2700.074	1.326	correct	observe	Run3	observe/STIM_013.jpg
2704.468	1.006	correct	observe	Run3	observe/STIM_013.jpg
2708.553	1.479	correct	observe	Run3	observe/STIM_014.jpg
2712.687	1.566	correct	observe	Run3	observe/STIM_014.jpg
2717.754	1.537	correct	observe	Run3	observe/STIM_014.jpg
2722.466	1.126	correct	observe	Run3	observe/STIM_014.jpg
2726.216	1.058	correct	observe	Run3	observe/STIM_015.jpg
2729.813	1.734	correct	observe	Run3	observe/STIM_015.jpg
2735.338	1.646	correct	observe	Run3	observe/STIM_015.jpg
2739.056	0.92	correct	observe	Run3	observe/STIM_015.jpg
2743.839	1.473	correct	observe	Run3	observe/STIM_016.jpg
2748.521	0.885	correct	observe	Run3	observe/STIM_016.jpg
2753.279	1.134	correct	observe	Run3	observe/STIM_016.jpg
2758.009	1.67	correct	observe	Run3	observe/STIM_016.jpg
2762.356	1.242	correct	observe	Run3	observe/STIM_017.jpg
2766.296	0.91	correct	observe	Run3	observe/STIM_017.jpg
2769.442	1.102	correct	observe	Run3	observe/STIM_017.jpg
2773.709	1.368	correct	observe	Run3	observe/STIM_017.jpg
2777.518	1.191	correct	observe	Run3	observe/STIM_018.jpg
2782.455	1.629	correct	observe	Run3	observe/STIM_018.jpg
2787.194	1.675	correct	observe	Run3	observe/STIM_018.jpg
2791.978	1.348	correct	observe	Run3	observe/STIM_018.jpg
2796.989	0.956	correct	observe	Run3	observe/STIM_019.jpg
2801.081	0.967	correct	observe	Run3	observe/STIM_019.jpg
2803.969	1.592	incorrect	observe	Run3	observe/STIM_019.jpg
2809.405	0.995	correct	observe	Run3	observe/STIM_019.jpg
