onset	duration	response_time_ms	trial_type	learning_stage	stimulus	response_port
0.0	3.092	3091.7	regulate	Run1	regulate/STIM_000.jpg	99
5.791	2.412	2412.0	regulate	Run1	regulate/STIM_000.jpg	100
10.78	1.417	1416.7	regulate	Run1	regulate/STIM_000.jpg	100
15.406	2.012	2011.7	regulate	Run1	regulate/STIM_000.jpg	99
19.741	2.109	2108.9	regulate	Run1	regulate/STIM_001.jpg	99
25.694	1.852	1852.1	regulate	Run1	regulate/STIM_001.jpg	99
31.231	2.715	2715.3	regulate	Run1	regulate/STIM_001.jpg	100
36.495	1.548	1548.2	regulate	Run1	regulate/STIM_001.jpg	100
40.715	1.594	1593.8	regulate	Run1	regulate/STIM_002.jpg	100
45.311	2.625	2624.7	regulate	Run1	regulate/STIM_002.jpg	99
50.109	1.504	1503.9	regulate	Run1	regulate/STIM_002.jpg	100
54.052	1.398	1398.2	regulate	Run1	regulate/STIM_002.jpg	99
58.387	2.73	2729.9	regulate	Run1	regulate/STIM_003.jpg	99
63.233	2.503	2503.3	regulate	Run1	regulate/STIM_003.jpg	99
69.612	2.701	2701.4	regulate	Run1	regulate/STIM_003.jpg	100
76.005	2.57	2569.8	regulate	Run1	regulate/STIM_003.jpg	99
82.09	2.505	2505.2	regulate	Run1	regulate/STIM_004.jpg	100
88.488	1.701	1700.9	regulate	Run1	regulate/STIM_004.jpg	99
94.025	1.693	1692.9	regulate	Run1	regulate/STIM_004.jpg	99
98.798	2.677	2677.2	regulate	Run1	regulate/STIM_004.jpg	100
104.753	2.403	2403.1	regulate	Run1	regulate/STIM_005.jpg	100
111.113	1.34	1340.5	regulate	Run1	regulate/STIM_005.jpg	100
114.539	2.076	2076.0	regulate	Run1	regulate/STIM_005.jpg	99
119.089	1.725	1725.4	regulate	Run1	regulate/STIM_005.jpg	100
123.198	2.567	2566.6	regulate	Run1	regulate/STIM_006.jpg	100
127.93	1.764	1764.5	regulate	Run1	regulate/STIM_006.jpg	100
132.258	2.666	2666.3	regulate	Run1	regulate/STIM_006.jpg	100
137.703	2.46	2460.0	regulate	Run1	regulate/STIM_006.jpg	99
143.822	1.651	1650.6	regulate	Run1	regulate/STIM_007.jpg	100
148.602	1.679	1679.3	regulate	Run1	regulate/STIM_007.jpg	99
154.258	1.545	1545.4	regulate	Run1	regulate/STIM_007.jpg	99
159.613	1.458	1457.8	regulate	Run1	regulate/STIM_007.jpg	99
164.974	2.322	2321.7	regulate	Run1	regulate/STIM_008.jpg	100
169.812	1.41	1410.5	regulate	Run1	regulate/STIM_008.jpg	99
173.76	2.101	2101.2	regulate	Run1	regulate/STIM_008.jpg	99
179.855	2.52	2519.9	regulate	Run1	regulate/STIM_008.jpg	100
184.658	3.104	3104.4	regulate	Run1	regulate/STIM_009.jpg	99
191.145	2.229	2228.6	regulate	Run1	regulate/STIM_009.jpg	99
196.941	1.566	1566.5	regulate	Run1	regulate/STIM_009.jpg	99
201.153	1.304	1304.5	regulate	Run1	regulate/STIM_009.jpg	99
205.318	2.378	2378.0	regulate	Run1	regulate/STIM_010.jpg	99
210.648	1.708	1708.3	regulate	Run1	regulate/STIM_010.jpg	100
215.64	2.808	2808.4	regulate	Run1	regulate/STIM_010.jpg	99
222.289	1.509	1508.6	regulate	Run1	regulate/STIM_010.jpg	99
226.595	1.793	1793.2	regulate	Run1	regulate/STIM_011.jpg	99
231.983	1.709	1708.8	regulate	Run1	regulate/STIM_011.jpg	100
236.327	1.667	1667.2	regulate	Run1	regulate/STIM_011.jpg	99
240.255	1.872	1872.3	regulate	Run1	regulate/STIM_011.jpg	100
244.632	3.075	3074.7	regulate	Run1	regulate/STIM_012.jpg	99
250.784	2.1	2099.8	regulate	Run1	regulate/STIM_012.jpg	99
255.037	2.543	2543.2	regulate	Run1	regulate/STIM_012.jpg	100
259.983	1.788	1787.6	regulate	Run1	regulate/STIM_012.jpg	100
265.276	2.475	2474.6	regulate	Run1	regulate/STIM_013.jpg	100
270.991	1.575	1575.2	regulate	Run1	regulate/STIM_013.jpg	99
275.339	2.576	2576.2	regulate	Run1	regulate/STIM_013.jpg	99
281.101	2.636	2635.5	regulate	Run1	regulate/STIM_013.jpg	99
286.289	1.365	1364.6	regulate	Run1	regulate/STIM_014.jpg	100
290.077	2.178	2178.3	regulate	Run1	regulate/STIM_014.jpg	100
294.534	2.12	2120.1	regulate	Run1	regulate/STIM_014.jpg	100
299.406	2.08	2079.8	regulate	Run1	regulate/STIM_014.jpg	99
304.888	3.097	3096.9	regulate	Run1	regulate/STIM_015.jpg	100
311.029	2.723	2722.8	regulate	Run1	regulate/STIM_015.jpg	100
317.658	2.791	2790.7	regulate	Run1	regulate/STIM_015.jpg	99
322.701	1.831	1830.8	regulate	Run1	regulate/STIM_015.jpg	99
326.684	1.67	1670.0	regulate	Run1	regulate/STIM_016.jpg	100
331.25	2.518	2517.5	regulate	Run1	regulate/STIM_016.jpg	99
336.824	1.912	1912.1	regulate	Run1	regulate/STIM_016.jpg	99
342.491	2.572	2572.5	regulate	Run1	regulate/STIM_016.jpg	99
347.273	1.989	1989.0	regulate	Run1	regulate/STIM_017.jpg	100
353.142	1.678	1678.4	regulate	Run1	regulate/STIM_017.jpg	100
358.796	2.646	2645.5	regulate	Run1	regulate/STIM_017.jpg	99
365.066	2.007	2006.8	regulate	Run1	regulate/STIM_017.jpg	100
370.138	1.931	1930.6	regulate	Run1	regulate/STIM_018.jpg	99
374.982	2.369	2369.3	regulate	Run1	regulate/STIM_018.jpg	99
379.924	2.255	2255.1	regulate	Run1	regulate/STIM_018.jpg	99
384.506	1.918	1918.5	regulate	Run1	regulate/STIM_018.jpg	99
390.124	2.057	2057.2	regulate	Run1	regulate/STIM_019.jpg	100
394.79	1.674	1673.7	regulate	Run1	regulate/STIM_019.jpg	99
399.598	2.354	2354.0	regulate	Run1	regulate/STIM_019.jpg	99
404.308	2.052	2052.3	regulate	Run1	regulate/STIM_019.jpg	99
408.56	1.384	1383.9	regulate	Run1	regulate/STIM_020.jpg	100
413.101	2.272	2272.4	regulate	Run1	regulate/STIM_020.jpg	100
419.013	2.486	2486.3	regulate	Run1	regulate/STIM_020.jpg	99
424.223	2.56	2559.7	regulate	Run1	regulate/STIM_020.jpg	99
430.054	2.704	2704.5	regulate	Run1	regulate/STIM_021.jpg	100
436.5	2.656	2656.2	regulate	Run1	regulate/STIM_021.jpg	99
441.483	2.078	2078.2	regulate	Run1	regulate/STIM_021.jpg	100
446.69	2.145	2144.8	regulate	Run1	regulate/STIM_021.jpg	100
451.736	2.001	2000.5	regulate	Run1	regulate/STIM_022.jpg	99
456.8	1.774	1774.1	regulate	Run1	regulate/STIM_022.jpg	99
461.625	2.258	2258.5	regulate	Run1	regulate/STIM_022.jpg	99
467.665	1.305	1305.1	regulate	Run1	regulate/STIM_022.jpg	100
472.179	2.609	2609.0	regulate	Run1	regulate/STIM_023.jpg	100
477.325	2.796	2796.2	regulate	Run1	regulate/STIM_023.jpg	99
483.271	1.988	1987.6	regulate	Run1	regulate/STIM_023.jpg	100
488.066	2.45	2449.6	regulate	Run1	regulate/STIM_023.jpg	99
493.027	1.58	1580.0	regulate	Run1	regulate/STIM_024.jpg	100
498.538	1.531	1530.6	regulate	Run1	regulate/STIM_024.jpg	99
503.552	1.235	1234.7	regulate	Run1	regulate/STIM_024.jpg	99
507.642	1.442	1442.2	regulate	Run1	regulate/STIM_024.jpg	100
512.847	2.096	2095.8	regulate	Run1	regulate/STIM_025.jpg	99
518.134	2.977	2977.3	regulate	Run1	regulate/STIM_025.jpg	100
523.819	1.327	1327.0	regulate	Run1	regulate/STIM_025.jpg	99
528.14	2.018	2018.0	regulate	Run1	regulate/STIM_025.jpg	99
533.561	2.141	2141.0	regulate	Run1	regulate/STIM_026.jpg	99
539.251	1.39	1389.8	regulate	Run1	regulate/STIM_026.jpg	99
542.733	1.376	1376.0	regulate	Run1	regulate/STIM_026.jpg	100
546.865	2.489	2489.3	regulate	Run1	regulate/STIM_026.jpg	100
551.555	1.465	1464.8	regulate	Run1	regulate/STIM_027.jpg	99
556.329	1.3	1299.9	regulate	Run1	regulate/STIM_027.jpg	99
560.372	1.345	1344.7	regulate	Run1	regulate/STIM_027.jpg	100
565.422	1.308	1308.0	regulate	Run1	regulate/STIM_027.jpg	99
570.185	2.529	2529.3	regulate	Run1	regulate/STIM_028.jpg	99
575.328	1.703	1703.1	regulate	Run1	regulate/STIM_028.jpg	100
580.61	2.222	2221.8	regulate	Run1	regulate/STIM_028.jpg	99
585.272	1.806	1805.7	regulate	Run1	regulate/STIM_028.jpg	100
590.789	2.97	2969.8	regulate	Run1	regulate/STIM_029.jpg	99
596.035	2.646	2646.4	regulate	Run1	regulate/STIM_029.jpg	100
601.737	1.457	1457.4	regulate	Run1	regulate/STIM_029.jpg	100
605.621	1.99	1990.2	regulate	Run1	regulate/STIM_029.jpg	99
610.42	0.877	877.0	observe	Run1	observe/STIM_000.jpg	100
614.121	0.997	997.4	observe	Run1	observe/STIM_000.jpg	99
617.628	1.442	1442.3	observe	Run1	observe/STIM_000.jpg	99
622.857	1.419	1419.4	observe	Run1	observe/STIM_000.jpg	99
626.845	1.31	1309.6	observe	Run1	observe/STIM_001.jpg	100
631.307	0.948	948.5	observe	Run1	observe/STIM_001.jpg	100
635.131	1.316	1315.7	observe	Run1	observe/STIM_001.jpg	100
639.114	1.204	1204.2	observe	Run1	observe/STIM_001.jpg	99
643.348	1.232	1232.1	observe	Run1	observe/STIM_002.jpg	100
648.015	0.951	950.9	observe	Run1	observe/STIM_002.jpg	100
651.795	1.321	1320.6	observe	Run1	observe/STIM_002.jpg	100
655.886	1.109	1109.3	observe	Run1	observe/STIM_002.jpg	99
659.61	1.448	1447.9	observe	Run1	observe/STIM_003.jpg	99
663.41	1.254	1253.7	observe	Run1	observe/STIM_003.jpg	100
668.246	0.987	987.1	observe	Run1	observe/STIM_003.jpg	100
672.415	1.016	1016.2	observe	Run1	observe/STIM_003.jpg	100
675.702	1.222	1222.0	observe	Run1	observe/STIM_004.jpg	100
680.495	1.322	1322.1	observe	Run1	observe/STIM_004.jpg	100
685.411	1.227	1226.6	observe	Run1	observe/STIM_004.jpg	100
689.655	1.256	1256.4	observe	Run1	observe/STIM_004.jpg	99
694.38	1.363	1363.2	observe	Run1	observe/STIM_005.jpg	99
699.088	0.888	888.1	observe	Run1	observe/STIM_005.jpg	100
702.197	0.79	790.2	observe	Run1	observe/STIM_005.jpg	99
705.188	1.318	1317.8	observe	Run1	observe/STIM_005.jpg	99
709.334	0.756	756.1	observe	Run1	observe/STIM_006.jpg	100
713.912	0.802	801.6	observe	Run1	observe/STIM_006.jpg	99
717.67	1.2	1200.0	observe	Run1	observe/STIM_006.jpg	99
721.693	1.062	1061.7	observe	Run1	observe/STIM_006.jpg	100
725.792	0.899	899.0	observe	Run1	observe/STIM_007.jpg	99
730.526	1.311	1311.4	observe	Run1	observe/STIM_007.jpg	99
733.861	1.361	1360.6	observe	Run1	observe/STIM_007.jpg	99
738.152	1.164	1164.3	observe	Run1	observe/STIM_007.jpg	100
743.148	1.036	1035.6	observe	Run1	observe/STIM_008.jpg	100
747.374	0.924	924.3	observe	Run1	observe/STIM_008.jpg	99
751.797	0.788	788.1	observe	Run1	observe/STIM_008.jpg	100
756.294	0.751	750.6	observe	Run1	observe/STIM_008.jpg	99
760.465	0.948	947.8	observe	Run1	observe/STIM_009.jpg	100
764.502	1.025	1024.6	observe	Run1	observe/STIM_009.jpg	99
769.266	1.383	1383.1	observe	Run1	observe/STIM_009.jpg	99
772.666	1.072	1071.8	observe	Run1	observe/STIM_009.jpg	99
777.29	0.748	747.5	observe	Run1	observe/STIM_010.jpg	99
780.393	1.236	1235.7	observe	Run1	observe/STIM_010.jpg	99
785.122	1.343	1343.2	observe	Run1	observe/STIM_010.jpg	100
790.289	1.396	1396.3	observe	Run1	observe/STIM_010.jpg	100
795.563	1.06	1060.1	observe	Run1	observe/STIM_011.jpg	100
798.654	1.224	1224.0	observe	Run1	observe/STIM_011.jpg	99
802.591	1.222	1221.8	observe	Run1	observe/STIM_011.jpg	99
807.653	1.298	1297.8	observe	Run1	observe/STIM_011.jpg	99
811.403	1.265	1264.6	observe	Run1	observe/STIM_012.jpg	99
815.764	1.3	1299.5	observe	Run1	observe/STIM_012.jpg	100
819.4	0.961	960.7	observe	Run1	observe/STIM_012.jpg	99
824.067	0.762	762.1	observe	Run1	observe/STIM_012.jpg	100
827.01	0.792	792.4	observe	Run1	observe/STIM_013.jpg	99
829.871	0.779	778.9	observe	Run1	observe/STIM_013.jpg	100
832.912	1.367	1366.6	observe	Run1	observe/STIM_013.jpg	99
838.005	1.176	1175.5	observe	Run1	observe/STIM_013.jpg	99
843.005	0.971	970.7	observe	Run1	observe/STIM_014.jpg	100
846.209	0.83	829.8	observe	Run1	observe/STIM_014.jpg	100
850.266	0.781	781.3	observe	Run1	observe/STIM_014.jpg	99
854.775	1.371	1371.3	observe	Run1	observe/STIM_014.jpg	99
858.304	1.179	1178.7	observe	Run1	observe/STIM_015.jpg	100
862.415	1.281	1280.7	observe	Run1	observe/STIM_015.jpg	100
866.033	1.09	1089.6	observe	Run1	observe/STIM_015.jpg	99
870.212	1.334	1334.2	observe	Run1	observe/STIM_015.jpg	99
874.884	0.99	990.5	observe	Run1	observe/STIM_016.jpg	100
877.996	0.811	811.4	observe	Run1	observe/STIM_016.jpg	100
881.915	0.815	814.6	observe	Run1	observe/STIM_016.jpg	100
885.686	1.126	1126.5	observe	Run1	observe/STIM_016.jpg	99
890.16	0.856	855.9	observe	Run1	observe/STIM_017.jpg	99
893.384	0.822	822.1	observe	Run1	observe/STIM_017.jpg	100
896.521	1.281	1280.6	observe	Run1	observe/STIM_017.jpg	100
900.112	1.027	1026.6	observe	Run1	observe/STIM_017.jpg	100
904.343	1.304	1303.9	observe	Run1	observe/STIM_018.jpg	99
909.468	1.432	1432.1	observe	Run1	observe/STIM_018.jpg	100
914.273	0.73	730.4	observe	Run1	observe/STIM_018.jpg	99
917.872	0.74	740.1	observe	Run1	observe/STIM_018.jpg	99
921.308	0.849	849.0	observe	Run1	observe/STIM_019.jpg	100
924.304	0.809	809.0	observe	Run1	observe/STIM_019.jpg	99
927.559	1.002	1001.8	observe	Run1	observe/STIM_019.jpg	100
931.841	1.159	1159.1	observe	Run1	observe/STIM_019.jpg	100
936.335	2.086	2085.9	regulate	Run2	regulate/STIM_000.jpg	100
941.698	1.208	1208.0	regulate	Run2	regulate/STIM_000.jpg	100
946.891	1.58	1579.5	regulate	Run2	regulate/STIM_000.jpg	99
951.9	1.21	1209.9	regulate	Run2	regulate/STIM_000.jpg	99
955.919	2.034	2033.5	regulate	Run2	regulate/STIM_001.jpg	100
960.832	1.098	1097.8	regulate	Run2	regulate/STIM_001.jpg	100
964.923	1.639	1639.1	regulate	Run2	regulate/STIM_001.jpg	100
969.811	1.636	1636.4	regulate	Run2	regulate/STIM_001.jpg	99
974.133	1.598	1597.9	regulate	Run2	regulate/STIM_002.jpg	100
978.236	2.539	2539.0	regulate	Run2	regulate/STIM_002.jpg	100
983.975	1.278	1277.7	regulate	Run2	regulate/STIM_002.jpg	99
988.285	2.15	2150.1	regulate	Run2	regulate/STIM_002.jpg	100
992.534	2.035	2035.5	regulate	Run2	regulate/STIM_003.jpg	99
997.264	2.13	2129.5	regulate	Run2	regulate/STIM_003.jpg	99
1002.447	2.23	2230.0	regulate	Run2	regulate/STIM_003.jpg	99
1007.784	2.093	2092.7	regulate	Run2	regulate/STIM_003.jpg	100
1012.339	1.848	1847.7	regulate	Run2	regulate/STIM_004.jpg	99
1016.782	2.426	2425.8	regulate	Run2	regulate/STIM_004.jpg	100
1021.633	1.967	1966.8	regulate	Run2	regulate/STIM_004.jpg	100
1026.452	1.18	1180.5	regulate	Run2	regulate/STIM_004.jpg	100
1031.07	2.353	2353.0	regulate	Run2	regulate/STIM_005.jpg	99
1036.799	1.376	1375.5	regulate	Run2	regulate/STIM_005.jpg	99
1041.011	1.51	1510.3	regulate	Run2	regulate/STIM_005.jpg	99
1045.869	1.592	1592.1	regulate	Run2	regulate/STIM_005.jpg	100
1050.382	1.791	1791.3	regulate	Run2	regulate/STIM_006.jpg	100
1055.029	2.446	2445.8	regulate	Run2	regulate/STIM_006.jpg	100
1060.532	1.641	1641.1	regulate	Run2	regulate/STIM_006.jpg	100
1064.177	1.754	1753.8	regulate	Run2	regulate/STIM_006.jpg	99
1068.513	1.494	1493.9	regulate	Run2	regulate/STIM_007.jpg	99
1073.72	1.233	1232.8	regulate	Run2	regulate/STIM_007.jpg	100
1077.678	1.821	1821.2	regulate	Run2	regulate/STIM_007.jpg	99
1082.351	2.022	2022.4	regulate	Run2	regulate/STIM_007.jpg	100
1086.555	1.843	1842.8	regulate	Run2	regulate/STIM_008.jpg	100
1091.606	2.24	2240.2	regulate	Run2	regulate/STIM_008.jpg	100
1097.704	2.247	2246.9	regulate	Run2	regulate/STIM_008.jpg	99
1102.738	1.928	1927.7	regulate	Run2	regulate/STIM_008.jpg	99
1107.122	1.738	1738.3	regulate	Run2	regulate/STIM_009.jpg	99
1111.266	1.688	1688.4	regulate	Run2	regulate/STIM_009.jpg	99
1115.739	1.831	1830.8	regulate	Run2	regulate/STIM_009.jpg	99
1121.425	2.136	2135.7	regulate	Run2	regulate/STIM_009.jpg	99
1125.725	2.118	2117.7	regulate	Run2	regulate/STIM_010.jpg	100
1131.141	1.474	1473.7	regulate	Run2	regulate/STIM_010.jpg	99
1134.7	1.166	1165.7	regulate	Run2	regulate/STIM_010.jpg	100
1138.468	1.036	1036.0	regulate	Run2	regulate/STIM_010.jpg	99
1142.253	1.491	1491.3	regulate	Run2	regulate/STIM_011.jpg	99
1147.49	1.127	1126.9	regulate	Run2	regulate/STIM_011.jpg	100
1152.56	1.488	1488.4	regulate	Run2	regulate/STIM_011.jpg	99
1157.282	1.821	1821.4	regulate	Run2	regulate/STIM_011.jpg	100
1162.757	1.858	1857.6	regulate	Run2	regulate/STIM_012.jpg	100
1168.438	2.305	2305.4	regulate	Run2	regulate/STIM_012.jpg	99
1174.027	1.63	1629.5	regulate	Run2	regulate/STIM_012.jpg	99
1179.125	1.187	1186.7	regulate	Run2	regulate/STIM_012.jpg	100
1183.177	1.97	1969.7	regulate	Run2	regulate/STIM_013.jpg	100
1187.799	2.502	2501.5	regulate	Run2	regulate/STIM_013.jpg	99
1193.776	1.456	1456.5	regulate	Run2	regulate/STIM_013.jpg	100
1198.13	1.911	1910.8	regulate	Run2	regulate/STIM_013.jpg	100
1203.552	1.821	1821.4	regulate	Run2	regulate/STIM_014.jpg	100
1208.052	2.051	2051.4	regulate	Run2	regulate/STIM_014.jpg	100
1212.328	1.345	1345.4	regulate	Run2	regulate/STIM_014.jpg	99
1217.472	1.773	1772.9	regulate	Run2	regulate/STIM_014.jpg	100
1222.366	2.274	2273.8	regulate	Run2	regulate/STIM_015.jpg	99
1227.904	1.995	1994.8	regulate	Run2	regulate/STIM_015.jpg	99
1233.454	1.994	1993.8	regulate	Run2	regulate/STIM_015.jpg	100
1237.5	1.515	1515.0	regulate	Run2	regulate/STIM_015.jpg	99
1242.367	1.661	1660.9	regulate	Run2	regulate/STIM_016.jpg	99
1246.072	1.765	1764.7	regulate	Run2	regulate/STIM_016.jpg	100
1251.577	1.783	1782.7	regulate	Run2	regulate/STIM_016.jpg	99
1257.261	1.661	1661.1	regulate	Run2	regulate/STIM_016.jpg	100
1261.713	2.215	2214.9	regulate	Run2	regulate/STIM_017.jpg	100
1266.427	1.439	1439.2	regulate	Run2	regulate/STIM_017.jpg	99
1270.952	1.924	1924.4	regulate	Run2	regulate/STIM_017.jpg	99
1276.514	1.647	1647.0	regulate	Run2	regulate/STIM_017.jpg	100
1280.528	1.334	1333.7	regulate	Run2	regulate/STIM_018.jpg	100
1284.746	1.817	1817.0	regulate	Run2	regulate/STIM_018.jpg	99
1288.585	1.232	1231.7	regulate	Run2	regulate/STIM_018.jpg	100
1293.642	1.685	1685.2	regulate	Run2	regulate/STIM_018.jpg	100
1298.956	1.596	1596.4	regulate	Run2	regulate/STIM_019.jpg	100
1303.977	1.602	1601.5	regulate	Run2	regulate/STIM_019.jpg	99
1308.04	1.572	1572.0	regulate	Run2	regulate/STIM_019.jpg	100
1313.336	1.786	1786.1	regulate	Run2	regulate/STIM_019.jpg	100
1317.403	2.293	2293.4	regulate	Run2	regulate/STIM_020.jpg	99
1322.089	1.842	1841.8	regulate	Run2	regulate/STIM_020.jpg	99
1327.915	2.181	2181.1	regulate	Run2	regulate/STIM_020.jpg	100
1332.378	1.614	1614.0	regulate	Run2	regulate/STIM_020.jpg	100
1337.024	1.482	1482.1	regulate	Run2	regulate/STIM_021.jpg	99
1341.301	2.434	2434.2	regulate	Run2	regulate/STIM_021.jpg	99
1345.808	2.362	2362.0	regulate	Run2	regulate/STIM_021.jpg	100
1352.161	1.321	1321.4	regulate	Run2	regulate/STIM_021.jpg	99
1357.123	1.852	1851.6	regulate	Run2	regulate/STIM_022.jpg	99
1362.602	1.261	1260.8	regulate	Run2	regulate/STIM_022.jpg	100
1365.989	1.413	1412.8	regulate	Run2	regulate/STIM_022.jpg	99
1371.2	1.683	1683.0	regulate	Run2	regulate/STIM_022.jpg	100
1374.934	2.646	2645.7	regulate	Run2	regulate/STIM_023.jpg	100
1381.415	1.31	1309.5	regulate	Run2	regulate/STIM_023.jpg	100
1386.579	2.158	2157.5	regulate	Run2	regulate/STIM_023.jpg	100
1390.792	1.625	1625.4	regulate	Run2	regulate/STIM_023.jpg	100
1395.058	2.284	2284.3	regulate	Run2	regulate/STIM_024.jpg	100
1400.33	2.281	2281.1	regulate	Run2	regulate/STIM_024.jpg	100
1405.359	2.314	2314.0	regulate	Run2	regulate/STIM_024.jpg	99
1411.174	2.056	2056.0	regulate	Run2	regulate/STIM_024.jpg	99
1417.098	1.983	1983.2	regulate	Run2	regulate/STIM_025.jpg	100
1422.096	1.17	1170.3	regulate	Run2	regulate/STIM_025.jpg	100
1427.183	1.96	1960.2	regulate	Run2	regulate/STIM_025.jpg	99
1432.147	1.656	1655.9	regulate	Run2	regulate/STIM_025.jpg	100
1437.335	2.368	2367.7	regulate	Run2	regulate/STIM_026.jpg	99
1441.803	2.498	2498.3	regulate	Run2	regulate/STIM_026.jpg	99
1447.435	1.412	1411.9	regulate	Run2	regulate/STIM_026.jpg	100
1452.494	1.59	1589.8	regulate	Run2	regulate/STIM_026.jpg	100
1456.362	1.199	1199.2	regulate	Run2	regulate/STIM_027.jpg	99
1459.737	2.265	2265.4	regulate	Run2	regulate/STIM_027.jpg	100
1465.847	1.635	1634.9	regulate	Run2	regulate/STIM_027.jpg	100
1470.693	1.21	1209.5	regulate	Run2	regulate/STIM_027.jpg	100
1474.468	1.955	1954.8	regulate	Run2	regulate/STIM_028.jpg	100
1480.16	1.284	1284.3	regulate	Run2	regulate/STIM_028.jpg	99
1484.928	1.728	1727.7	regulate	Run2	regulate/STIM_028.jpg	99
1488.903	2.152	2152.5	regulate	Run2	regulate/STIM_028.jpg	99
1494.635	1.178	1178.4	regulate	Run2	regulate/STIM_029.jpg	99
1498.166	2.378	2378.0	regulate	Run2	regulate/STIM_029.jpg	99
1503.896	2.356	2355.6	regulate	Run2	regulate/STIM_029.jpg	100
1508.278	1.594	1593.6	regulate	Run2	regulate/STIM_029.jpg	100
1512.092	0.843	843.0	observe	Run2	observe/STIM_000.jpg	99
1515.454	1.411	1410.8	observe	Run2	observe/STIM_000.jpg	100
1519.015	0.848	847.7	observe	Run2	observe/STIM_000.jpg	99
1522.25	0.999	998.8	observe	Run2	observe/STIM_000.jpg	100
1525.976	1.012	1012.2	observe	Run2	observe/STIM_001.jpg	100
1529.41	0.797	797.4	observe	Run2	observe/STIM_001.jpg	100
1533.129	1.382	1382.1	observe	Run2	observe/STIM_001.jpg	100
1536.746	1.15	1149.8	observe	Run2	observe/STIM_001.jpg	99
1540.761	1.383	1383.1	observe	Run2	observe/STIM_002.jpg	99
1545.8	0.845	845.0	observe	Run2	observe/STIM_002.jpg	100
1549.303	1.177	1177.0	observe	Run2	observe/STIM_002.jpg	99
1553.877	1.151	1150.7	observe	Run2	observe/STIM_002.jpg	99
1558.572	1.292	1291.9	observe	Run2	observe/STIM_003.jpg	100
1562.218	1.367	1367.0	observe	Run2	observe/STIM_003.jpg	99
1565.634	1.074	1073.7	observe	Run2	observe/STIM_003.jpg	99
1569.76	1.184	1183.7	observe	Run2	observe/STIM_003.jpg	99
1574.277	0.842	841.5	observe	Run2	observe/STIM_004.jpg	99
1578.477	1.298	1298.4	observe	Run2	observe/STIM_004.jpg	99
1583.242	1.436	1436.0	observe	Run2	observe/STIM_004.jpg	100
1587.493	0.808	807.5	observe	Run2	observe/STIM_004.jpg	99
1592.076	1.002	1001.7	observe	Run2	observe/STIM_005.jpg	100
1595.406	0.869	869.4	observe	Run2	observe/STIM_005.jpg	99
1598.872	1.125	1124.7	observe	Run2	observe/STIM_005.jpg	99
1602.941	0.953	953.0	observe	Run2	observe/STIM_005.jpg	100
1607.036	1.15	1149.9	observe	Run2	observe/STIM_006.jpg	100
1611.825	1.43	1430.3	observe	Run2	observe/STIM_006.jpg	100
1616.374	1.406	1406.3	observe	Run2	observe/STIM_006.jpg	100
1620.589	1.26	1260.3	observe	Run2	observe/STIM_006.jpg	100
1625.096	0.873	872.8	observe	Run2	observe/STIM_007.jpg	100
1628.139	0.913	912.6	observe	Run2	observe/STIM_007.jpg	99
1631.485	1.115	1114.9	observe	Run2	observe/STIM_007.jpg	99
1635.965	1.181	1181.3	observe	Run2	observe/STIM_007.jpg	99
1639.476	0.91	910.2	observe	Run2	observe/STIM_008.jpg	99
1643.483	0.762	762.3	observe	Run2	observe/STIM_008.jpg	100
1647.729	0.932	931.9	observe	Run2	observe/STIM_008.jpg	99
1651.896	0.797	796.9	observe	Run2	observe/STIM_008.jpg	100
1656.57	0.977	976.9	observe	Run2	observe/STIM_009.jpg	99
1661.543	1.185	1185.0	observe	Run2	observe/STIM_009.jpg	100
1665.368	0.865	864.7	observe	Run2	observe/STIM_009.jpg	99
1670.009	0.978	977.6	observe	Run2	observe/STIM_009.jpg	99
1674.882	1.384	1384.2	observe	Run2	observe/STIM_010.jpg	100
1679.953	1.444	1444.5	observe	Run2	observe/STIM_010.jpg	100
1685.077	1.282	1282.2	observe	Run2	observe/STIM_010.jpg	99
1688.828	1.094	1093.7	observe	Run2	observe/STIM_010.jpg	99
1693.284	0.789	788.8	observe	Run2	observe/STIM_011.jpg	99
1697.604	0.736	736.2	observe	Run2	observe/STIM_011.jpg	100
1700.478	1.266	1265.5	observe	Run2	observe/STIM_011.jpg	100
1703.748	0.823	823.3	observe	Run2	observe/STIM_011.jpg	100
1706.856	1.304	1304.1	observe	Run2	observe/STIM_012.jpg	99
1711.756	0.788	788.4	observe	Run2	observe/STIM_012.jpg	100
1715.97	1.165	1165.4	observe	Run2	observe/STIM_012.jpg	100
1719.643	0.972	972.3	observe	Run2	observe/STIM_012.jpg	99
1723.826	1.134	1133.8	observe	Run2	observe/STIM_013.jpg	100
1728.806	0.916	915.7	observe	Run2	observe/STIM_013.jpg	100
1731.893	0.826	826.0	observe	Run2	observe/STIM_013.jpg	100
1736.635	1.018	1017.6	observe	Run2	observe/STIM_013.jpg	99
1741.639	1.396	1395.6	observe	Run2	observe/STIM_014.jpg	99
1746.714	0.97	970.0	observe	Run2	observe/STIM_014.jpg	100
1749.906	0.874	874.5	observe	Run2	observe/STIM_014.jpg	100
1752.885	1.4	1399.9	observe	Run2	observe/STIM_014.jpg	100
1757.98	1.01	1010.4	observe	Run2	observe/STIM_015.jpg	99
1762.614	0.927	927.1	observe	Run2	observe/STIM_015.jpg	99
1766.008	1.33	1329.8	observe	Run2	observe/STIM_015.jpg	99
1770.748	1.45	1449.7	observe	Run2	observe/STIM_015.jpg	100
1774.5	1.114	1113.6	observe	Run2	observe/STIM_016.jpg	99
1779.529	0.963	962.8	observe	Run2	observe/STIM_016.jpg	100
1783.316	1.185	1185.4	observe	Run2	observe/STIM_016.jpg	99
1788.499	0.885	885.2	observe	Run2	observe/STIM_016.jpg	100
1793.163	1.31	1309.5	observe	Run2	observe/STIM_017.jpg	99
1797.416	1.265	1264.6	observe	Run2	observe/STIM_017.jpg	99
1801.337	0.828	828.4	observe	Run2	observe/STIM_017.jpg	100
1804.478	1.085	1084.8	observe	Run2	observe/STIM_017.jpg	100
1808.364	1.254	1254.0	observe	Run2	observe/STIM_018.jpg	100
1813.391	0.96	960.2	observe	Run2	observe/STIM_018.jpg	100
1818.279	1.062	1061.9	observe	Run2	observe/STIM_018.jpg	100
1821.343	0.788	788.1	observe	Run2	observe/STIM_018.jpg	100
1825.307	1.122	1121.5	observe	Run2	observe/STIM_019.jpg	99
1829.093	0.926	926.0	observe	Run2	observe/STIM_019.jpg	99
1833.997	1.09	1089.7	observe	Run2	observe/STIM_019.jpg	100
1837.715	1.254	1254.1	observe	Run2	observe/STIM_019.jpg	100
1841.138	1.971	1970.9	regulate	Run3	regulate/STIM_000.jpg	99
1846.129	2.022	2021.8	regulate	Run3	regulate/STIM_000.jpg	99
1851.088	1.708	1707.5	regulate	Run3	regulate/STIM_000.jpg	100
1855.641	1.603	1603.2	regulate	Run3	regulate/STIM_000.jpg	99
1859.626	2.212	2212.3	regulate	Run3	regulate/STIM_001.jpg	99
1864.75	1.041	1041.1	regulate	Run3	regulate/STIM_001.jpg	99
1868.989	1.64	1640.2	regulate	Run3	regulate/STIM_001.jpg	100
1874.238	1.444	1444.3	regulate	Run3	regulate/STIM_001.jpg	99
1878.505	1.074	1074.5	regulate	Run3	regulate/STIM_002.jpg	99
1882.208	1.517	1516.9	regulate	Run3	regulate/STIM_002.jpg	100
1886.678	2.181	2181.1	regulate	Run3	regulate/STIM_002.jpg	99
1891.773	1.334	1334.5	regulate	Run3	regulate/STIM_002.jpg	99
1895.542	1.634	1634.1	regulate	Run3	regulate/STIM_003.jpg	100
1899.486	1.275	1275.4	regulate	Run3	regulate/STIM_003.jpg	100
1904.547	1.792	1791.6	regulate	Run3	regulate/STIM_003.jpg	100
1909.459	1.0	999.6	regulate	Run3	regulate/STIM_003.jpg	100
1913.75	1.018	1018.3	regulate	Run3	regulate/STIM_004.jpg	100
1918.457	1.427	1426.8	regulate	Run3	regulate/STIM_004.jpg	99
1923.533	1.078	1077.6	regulate	Run3	regulate/STIM_004.jpg	100
1928.577	1.815	1815.3	regulate	Run3	regulate/STIM_004.jpg	100
1934.309	1.496	1496.3	regulate	Run3	regulate/STIM_005.jpg	100
1937.849	1.931	1931.4	regulate	Run3	regulate/STIM_005.jpg	99
1942.559	1.214	1214.1	regulate	Run3	regulate/STIM_005.jpg	100
1946.206	1.738	1737.9	regulate	Run3	regulate/STIM_005.jpg	100
1950.941	1.357	1357.2	regulate	Run3	regulate/STIM_006.jpg	100
1954.975	1.917	1917.4	regulate	Run3	regulate/STIM_006.jpg	100
1959.536	1.022	1022.2	regulate	Run3	regulate/STIM_006.jpg	99
1963.111	1.491	1491.1	regulate	Run3	regulate/STIM_006.jpg	99
1966.766	1.777	1777.3	regulate	Run3	regulate/STIM_007.jpg	99
1972.385	2.201	2201.4	regulate	Run3	regulate/STIM_007.jpg	100
1977.353	2.182	2182.3	regulate	Run3	regulate/STIM_007.jpg	99
1982.8	1.462	1462.3	regulate	Run3	regulate/STIM_007.jpg	100
1987.921	0.966	966.5	regulate	Run3	regulate/STIM_008.jpg	100
1990.912	1.727	1727.3	regulate	Run3	regulate/STIM_008.jpg	100
1996.063	1.705	1704.8	regulate	Run3	regulate/STIM_008.jpg	99
2000.1	1.08	1079.7	regulate	Run3	regulate/STIM_008.jpg	100
2003.528	1.304	1303.7	regulate	Run3	regulate/STIM_009.jpg	100
2007.544	1.024	1024.5	regulate	Run3	regulate/STIM_009.jpg	99
2011.134	1.006	1006.5	regulate	Run3	regulate/STIM_009.jpg	99
2014.945	1.106	1106.4	regulate	Run3	regulate/STIM_009.jpg	100
2019.309	1.82	1820.2	regulate	Run3	regulate/STIM_010.jpg	99
2025.072	1.481	1481.3	regulate	Run3	regulate/STIM_010.jpg	99
2030.534	1.656	1656.5	regulate	Run3	regulate/STIM_010.jpg	99
2034.989	1.128	1128.2	regulate	Run3	regulate/STIM_010.jpg	99
2039.549	2.172	2172.2	regulate	Run3	regulate/STIM_011.jpg	100
2045.215	2.071	2070.6	regulate	Run3	regulate/STIM_011.jpg	99
2051.233	1.966	1966.2	regulate	Run3	regulate/STIM_011.jpg	99
2056.168	0.982	982.1	regulate	Run3	regulate/STIM_011.jpg	100
2059.205	1.298	1298.2	regulate	Run3	regulate/STIM_012.jpg	100
2063.001	1.528	1527.6	regulate	Run3	regulate/STIM_012.jpg	100
2066.836	1.06	1059.7	regulate	Run3	regulate/STIM_012.jpg	100
2070.083	1.623	1622.6	regulate	Run3	regulate/STIM_012.jpg	100
2075.043	1.668	1668.3	regulate	Run3	regulate/STIM_013.jpg	100
2080.68	1.302	1302.5	regulate	Run3	regulate/STIM_013.jpg	100
2084.646	1.638	1637.5	regulate	Run3	regulate/STIM_013.jpg	100
2089.579	2.043	2043.0	regulate	Run3	regulate/STIM_013.jpg	99
2093.768	0.985	985.0	regulate	Run3	regulate/STIM_014.jpg	100
2096.755	1.524	1523.7	regulate	Run3	regulate/STIM_014.jpg	100
2101.741	1.768	1767.5	regulate	Run3	regulate/STIM_014.jpg	99
2105.804	1.827	1826.8	regulate	Run3	regulate/STIM_014.jpg	99
2110.233	1.184	1184.1	regulate	Run3	regulate/STIM_015.jpg	99
2113.722	2.083	2082.6	regulate	Run3	regulate/STIM_015.jpg	99
2117.836	1.622	1622.0	regulate	Run3	regulate/STIM_015.jpg	99
2122.178	2.162	2162.3	regulate	Run3	regulate/STIM_015.jpg	99
2127.555	2.162	2161.5	regulate	Run3	regulate/STIM_016.jpg	100
2133.099	1.721	1721.2	regulate	Run3	regulate/STIM_016.jpg	99
2137.127	1.479	1479.3	regulate	Run3	regulate/STIM_016.jpg	99
2140.619	1.53	1530.2	regulate	Run3	regulate/STIM_016.jpg	99
2145.056	1.22	1219.8	regulate	Run3	regulate/STIM_017.jpg	99
2150.204	2.136	2135.9	regulate	Run3	regulate/STIM_017.jpg	100
2155.077	1.661	1660.9	regulate	Run3	regulate/STIM_017.jpg	100
2160.488	2.107	2107.0	regulate	Run3	regulate/STIM_017.jpg	100
2165.981	2.2	2200.0	regulate	Run3	regulate/STIM_018.jpg	99
2170.604	2.204	2204.1	regulate	Run3	regulate/STIM_018.jpg	99
2175.01	2.093	2092.9	regulate	Run3	regulate/STIM_018.jpg	99
2180.449	1.512	1512.2	regulate	Run3	regulate/STIM_018.jpg	100
2185.025	1.164	1163.9	regulate	Run3	regulate/STIM_019.jpg	100
2188.427	0.988	988.1	regulate	Run3	regulate/STIM_019.jpg	100
2192.647	1.819	1818.7	regulate	Run3	regulate/STIM_019.jpg	99
2196.969	1.975	1974.9	regulate	Run3	regulate/STIM_019.jpg	100
2202.387	1.876	1876.4	regulate	Run3	regulate/STIM_020.jpg	100
2207.457	1.346	1346.5	regulate	Run3	regulate/STIM_020.jpg	100
2211.175	1.223	1222.7	regulate	Run3	regulate/STIM_020.jpg	99
2216.24	1.738	1738.5	regulate	Run3	regulate/STIM_020.jpg	100
2220.807	1.516	1516.2	regulate	Run3	regulate/STIM_021.jpg	99
2224.887	1.703	1702.8	regulate	Run3	regulate/STIM_021.jpg	100
2228.855	1.024	1023.9	regulate	Run3	regulate/STIM_021.jpg	99
2231.909	2.166	2165.6	regulate	Run3	regulate/STIM_021.jpg	99
2237.84	1.336	1336.2	regulate	Run3	regulate/STIM_022.jpg	100
2242.661	1.853	1852.9	regulate	Run3	regulate/STIM_022.jpg	100
2248.287	0.965	964.7	regulate	Run3	regulate/STIM_022.jpg	100
2252.961	1.932	1931.5	regulate	Run3	regulate/STIM_022.jpg	100
2257.065	1.316	1316.5	regulate	Run3	regulate/STIM_023.jpg	99
2261.457	1.514	1514.5	regulate	Run3	regulate/STIM_023.jpg	100
2265.723	1.502	1501.6	regulate	Run3	regulate/STIM_023.jpg	100
2270.693	1.406	1405.6	regulate	Run3	regulate/STIM_023.jpg	99
2275.356	1.325	1325.2	regulate	Run3	regulate/STIM_024.jpg	100
2280.323	1.58	1579.8	regulate	Run3	regulate/STIM_024.jpg	99
2284.809	1.996	1996.2	regulate	Run3	regulate/STIM_024.jpg	99
2289.066	2.083	2082.6	regulate	Run3	regulate/STIM_024.jpg	99
2293.764	1.771	1770.7	regulate	Run3	regulate/STIM_025.jpg	99
2297.8	1.778	1777.7	regulate	Run3	regulate/STIM_025.jpg	100
2303.09	1.082	1082.1	regulate	Run3	regulate/STIM_025.jpg	99
2307.01	1.403	1403.1	regulate	Run3	regulate/STIM_025.jpg	100
2310.618	0.988	987.6	regulate	Run3	regulate/STIM_026.jpg	100
2315.319	2.223	2222.9	regulate	Run3	regulate/STIM_026.jpg	99
2321.058	1.842	1842.5	regulate	Run3	regulate/STIM_026.jpg	100
2325.255	1.137	1137.3	regulate	Run3	regulate/STIM_026.jpg	99
2329.382	1.211	1211.3	regulate	Run3	regulate/STIM_027.jpg	99
2332.822	1.052	1052.4	regulate	Run3	regulate/STIM_027.jpg	100
2337.687	1.742	1742.3	regulate	Run3	regulate/STIM_027.jpg	99
2342.995	2.09	2090.3	regulate	Run3	regulate/STIM_027.jpg	100
2347.38	1.429	1428.6	regulate	Run3	regulate/STIM_028.jpg	99
2350.84	1.824	1823.8	regulate	Run3	regulate/STIM_028.jpg	99
2356.529	1.7	1699.6	regulate	Run3	regulate/STIM_028.jpg	99
2360.839	1.793	1793.0	regulate	Run3	regulate/STIM_028.jpg	99
2365.839	0.984	984.3	regulate	Run3	regulate/STIM_029.jpg	100
2369.502	1.531	1531.4	regulate	Run3	regulate/STIM_029.jpg	99
2374.228	1.908	1908.5	regulate	Run3	regulate/STIM_029.jpg	100
2378.575	2.037	2037.0	regulate	Run3	regulate/STIM_029.jpg	100
2383.021	1.138	1138.0	observe	Run3	observe/STIM_000.jpg	100
2387.94	0.949	949.4	observe	Run3	observe/STIM_000.jpg	99
2392.068	1.134	1133.7	observe	Run3	observe/STIM_000.jpg	99
2396.528	1.388	1387.5	observe	Run3	observe/STIM_000.jpg	99
2401.715	0.941	941.0	observe	Run3	observe/STIM_001.jpg	99
2405.393	1.379	1378.6	observe	Run3	observe/STIM_001.jpg	99
2409.253	1.213	1212.9	observe	Run3	observe/STIM_001.jpg	99
2414.421	0.944	944.4	observe	Run3	observe/STIM_001.jpg	99
2417.653	1.31	1310.1	observe	Run3	observe/STIM_002.jpg	99
2422.194	0.902	901.7	observe	Run3	observe/STIM_002.jpg	99
2425.682	1.241	1241.0	observe	Run3	observe/STIM_002.jpg	100
2429.573	0.859	859.2	observe	Run3	observe/STIM_002.jpg	99
2434.285	1.248	1248.4	observe	Run3	observe/STIM_003.jpg	99
2438.643	1.023	1023.3	observe	Run3	observe/STIM_003.jpg	100
2441.736	1.362	1361.5	observe	Run3	observe/STIM_003.jpg	100
2447.093	0.881	881.2	observe	Run3	observe/STIM_003.jpg	99
2451.234	0.815	815.4	observe	Run3	observe/STIM_004.jpg	100
2454.278	1.412	1411.5	observe	Run3	observe/STIM_004.jpg	100
2459.664	0.767	766.7	observe	Run3	observe/STIM_004.jpg	99
2463.695	1.031	1030.7	observe	Run3	observe/STIM_004.jpg	100
2466.774	0.987	987.4	observe	Run3	observe/STIM_005.jpg	100
2470.259	0.909	909.0	observe	Run3	observe/STIM_005.jpg	99
2473.51	1.084	1084.3	observe	Run3	observe/STIM_005.jpg	100
2478.075	1.265	1264.6	observe	Run3	observe/STIM_005.jpg	99
2482.608	1.092	1092.3	observe	Run3	observe/STIM_006.jpg	99
2486.141	1.343	1343.3	observe	Run3	observe/STIM_006.jpg	100
2490.108	1.166	1165.8	observe	Run3	observe/STIM_006.jpg	100
2495.158	0.957	957.1	observe	Run3	observe/STIM_006.jpg	100
2499.995	1.411	1410.8	observe	Run3	observe/STIM_007.jpg	99
2504.357	1.191	1191.2	observe	Run3	observe/STIM_007.jpg	99
2509.316	1.081	1081.2	observe	Run3	observe/STIM_007.jpg	100
2512.702	1.295	1294.6	observe	Run3	observe/STIM_007.jpg	100
2516.576	1.394	1394.2	observe	Run3	observe/STIM_008.jpg	100
2520.014	0.809	808.9	observe	Run3	observe/STIM_008.jpg	100
2523.954	1.172	1171.8	observe	Run3	observe/STIM_008.jpg	100
2528.039	0.994	994.5	observe	Run3	observe/STIM_008.jpg	99
2531.231	1.008	1008.0	observe	Run3	observe/STIM_009.jpg	99
2535.015	1.312	1311.8	observe	Run3	observe/STIM_009.jpg	100
2539.384	0.967	966.9	observe	Run3	observe/STIM_009.jpg	100
2543.394	1.051	1051.2	observe	Run3	observe/STIM_009.jpg	99
2547.585	0.967	967.0	observe	Run3	observe/STIM_010.jpg	99
2551.964	0.76	760.4	observe	Run3	observe/STIM_010.jpg	100
2555.64	1.313	1312.6	observe	Run3	observe/STIM_010.jpg	100
2560.784	0.873	873.1	observe	Run3	observe/STIM_010.jpg	99
2565.474	1.187	1186.6	observe	Run3	observe/STIM_011.jpg	100
2570.327	1.291	1291.2	observe	Run3	observe/STIM_011.jpg	99
2574.683	1.245	1244.6	observe	Run3	observe/STIM_011.jpg	99
2579.141	1.274	1274.0	observe	Run3	observe/STIM_011.jpg	99
2583.086	1.037	1036.9	observe	Run3	observe/STIM_012.jpg	100
2588.109	0.951	950.8	observe	Run3	observe/STIM_012.jpg	100
2592.675	0.859	858.7	observe	Run3	observe/STIM_012.jpg	99
2596.995	1.221	1221.4	observe	Run3	observe/STIM_012.jpg	100
2601.576	1.431	1430.8	observe	Run3	observe/STIM_013.jpg	100
2606.261	1.162	1161.8	observe	Run3	observe/STIM_013.jpg	100
2610.691	0.843	842.9	observe	Run3	observe/STIM_013.jpg	99
2614.178	1.003	1002.9	observe	Run3	observe/STIM_013.jpg	99
2618.557	0.865	865.1	observe	Run3	observe/STIM_014.jpg	100
2621.832	1.0	1000.3	observe	Run3	observe/STIM_014.jpg	100
2626.535	1.192	1191.7	observe	Run3	observe/STIM_014.jpg	99
2631.261	1.266	1265.8	observe	Run3	observe/STIM_014.jpg	99
2635.708	1.394	1394.5	observe	Run3	observe/STIM_015.jpg	100
2639.682	1.224	1224.4	observe	Run3	observe/STIM_015.jpg	100
2643.253	1.309	1308.7	observe	Run3	observe/STIM_015.jpg	99
2648.469	0.931	931.3	observe	Run3	observe/STIM_015.jpg	99
2652.93	0.998	997.9	observe	Run3	observe/STIM_016.jpg	100
2655.97	1.426	1426.5	observe	Run3	observe/STIM_016.jpg	100
2660.441	0.924	924.2	observe	Run3	observe/STIM_016.jpg	99
2665.109	1.036	1036.5	observe	Run3	observe/STIM_016.jpg	100
2669.141	1.215	1215.1	observe	Run3	observe/STIM_017.jpg	99
2674.102	0.968	967.7	observe	Run3	observe/STIM_017.jpg	100
2678.777	1.034	1033.9	observe	Run3	observe/STIM_017.jpg	99
2683.467	0.789	788.7	observe	Run3	observe/STIM_017.jpg	99
2687.878	1.292	1292.1	observe	Run3	observe/STIM_018.jpg	100
2692.621	1.148	1147.5	observe	Run3	observe/STIM_018.jpg	100
2696.533	1.217	1216.7	observe	Run3	observe/STIM_018.jpg	99
2701.137	0.735	735.4	observe	Run3	observe/STIM_018.jpg	100
2704.812	0.823	823.4	observe	Run3	observe/STIM_019.jpg	100
2708.568	0.989	989.3	observe	Run3	observe/STIM_019.jpg	100
2712.046	1.44	1439.8	observe	Run3	observe/STIM_019.jpg	99
2716.524	1.262	1261.5	observe	Run3	observe/STIM_019.jpg	99
