onset	duration	accuracy_binary	trial_type	learning_stage	stimulus
0.0	3.092	1	regulate	Run1	regulate/STIM_000.jpg
5.791	2.412	1	regulate	Run1	regulate/STIM_000.jpg
10.78	1.417	1	regulate	Run1	regulate/STIM_000.jpg
15.406	2.012	0	regulate	Run1	regulate/STIM_000.jpg
19.741	2.109	0	regulate	Run1	regulate/STIM_001.jpg
25.694	1.852	0	regulate	Run1	regulate/STIM_001.jpg
31.231	2.715	1	regulate	Run1	regulate/STIM_001.jpg
36.495	1.548	1	regulate	Run1	regulate/STIM_001.jpg
40.715	1.594	1	regulate	Run1	regulate/STIM_002.jpg
45.311	2.625	0	regulate	Run1	regulate/STIM_002.jpg
50.109	1.504	0	regulate	Run1	regulate/STIM_002.jpg
54.052	1.398	1	regulate	Run1	regulate/STIM_002.jpg
58.387	2.73	1	regulate	Run1	regulate/STIM_003.jpg
63.233	2.503	1	regulate	Run1	regulate/STIM_003.jpg
69.612	2.701	1	regulate	Run1	regulate/STIM_003.jpg
76.005	2.57	1	regulate	Run1	regulate/STIM_003.jpg
82.09	2.505	0	regulate	Run1	regulate/STIM_004.jpg
88.488	1.701	1	regulate	Run1	regulate/STIM_004.jpg
94.025	1.693	1	regulate	Run1	regulate/STIM_004.jpg
98.798	2.677	1	regulate	Run1	regulate/STIM_004.jpg
104.753	2.403	1	regulate	Run1	regulate/STIM_005.jpg
111.113	1.34	1	regulate	Run1	regulate/STIM_005.jpg
114.539	2.076	1	regulate	Run1	regulate/STIM_005.jpg
119.089	1.725	1	regulate	Run1	regulate/STIM_005.jpg
123.198	2.567	1	regulate	Run1	regulate/STIM_006.jpg
127.93	1.764	1	regulate	Run1	regulate/STIM_006.jpg
132.258	2.666	1	regulate	Run1	regulate/STIM_006.jpg
137.703	2.46	1	regulate	Run1	regulate/STIM_006.jpg
143.822	1.651	0	regulate	Run1	regulate/STIM_007.jpg
148.602	1.679	0	regulate	Run1	regulate/STIM_007.jpg
154.258	1.545	1	regulate	Run1	regulate/STIM_007.jpg
159.613	1.458	0	regulate	Run1	regulate/STIM_007.jpg
164.974	2.322	1	regulate	Run1	regulate/STIM_008.jpg
169.812	1.41	0	regulate	Run1	regulate/STIM_008.jpg
173.76	2.101	1	regulate	Run1	regulate/STIM_008.jpg
179.855	2.52	1	regulate	Run1	regulate/STIM_008.jpg
184.658	3.104	1	regulate	Run1	regulate/STIM_009.jpg
191.145	2.229	1	regulate	Run1	regulate/STIM_009.jpg
196.941	1.566	1	regulate	Run1	regulate/STIM_009.jpg
201.153	1.304	1	regulate	Run1	regulate/STIM_009.jpg
205.318	2.378	1	regulate	Run1	regulate/STIM_010.jpg
210.648	1.708	1	regulate	Run1	regulate/STIM_010.jpg
215.64	2.808	0	regulate	Run1	regulate/STIM_010.jpg
222.289	1.509	1	regulate	Run1	regulate/STIM_010.jpg
226.595	1.793	1	regulate	Run1	regulate/STIM_011.jpg
231.983	1.709	0	regulate	Run1	regulate/STIM_011.jpg
236.327	1.667	0	regulate	Run1	regulate/STIM_011.jpg
240.255	1.872	1	regulate	Run1	regulate/STIM_011.jpg
244.632	3.075	1	regulate	Run1	regulate/STIM_012.jpg
250.784	2.1	1	regulate	Run1	regulate/STIM_012.jpg
255.037	2.543	1	regulate	Run1	regulate/STIM_012.jpg
259.983	1.788	1	regulate	Run1	regulate/STIM_012.jpg
265.276	2.475	1	regulate	Run1	regulate/STIM_013.jpg
270.991	1.575	1	regulate	Run1	regulate/STIM_013.jpg
275.339	2.576	1	regulate	Run1	regulate/STIM_013.jpg
281.101	2.636	1	regulate	Run1	regulate/STIM_013.jpg
286.289	1.365	1	regulate	Run1	regulate/STIM_014.jpg
290.077	2.178	1	regulate	Run1	regulate/STIM_014.jpg
294.534	2.12	1	regulate	Run1	regulate/STIM_014.jpg
299.406	2.08	0	regulate	Run1	regulate/STIM_014.jpg
304.888	3.097	1	regulate	Run1	regulate/STIM_015.jpg
311.029	2.723	1	regulate	Run1	regulate/STIM_015.jpg
317.658	2.791	1	regulate	Run1	regulate/STIM_015.jpg
322.701	1.831	1	regulate	Run1	regulate/STIM_015.jpg
326.684	1.67	1	regulate	Run1	regulate/STIM_016.jpg
331.25	2.518	1	regulate	Run1	regulate/STIM_016.jpg
336.824	1.912	0	regulate	Run1	regulate/STIM_016.jpg
342.491	2.572	1	regulate	Run1	regulate/STIM_016.jpg
347.273	1.989	1	regulate	Run1	regulate/STIM_017.jpg
353.142	1.678	1	regulate	Run1	regulate/STIM_017.jpg
358.796	2.646	1	regulate	Run1	regulate/STIM_017.jpg
365.066	2.007	0	regulate	Run1	regulate/STIM_017.jpg
370.138	1.931	1	regulate	Run1	regulate/STIM_018.jpg
374.982	2.369	1	regulate	Run1	regulate/STIM_018.jpg
379.924	2.255	1	regulate	Run1	regulate/STIM_018.jpg
384.506	1.918	0	regulate	Run1	regulate/STIM_018.jpg
390.124	2.057	0	regulate	Run1	regulate/STIM_019.jpg
394.79	1.674	1	regulate	Run1	regulate/STIM_019.jpg
399.598	2.354	1	regulate	Run1	regulate/STIM_019.jpg
404.308	2.052	1	regulate	Run1	regulate/STIM_019.jpg
408.56	1.384	0	regulate	Run1	regulate/STIM_020.jpg
413.101	2.272	0	regulate	Run1	regulate/STIM_020.jpg
419.013	2.486	1	regulate	Run1	regulate/STIM_020.jpg
424.223	2.56	1	regulate	Run1	regulate/STIM_020.jpg
430.054	2.704	1	regulate	Run1	regulate/STIM_021.jpg
436.5	2.656	1	regulate	Run1	regulate/STIM_021.jpg
441.483	2.078	1	regulate	Run1	regulate/STIM_021.jpg
446.69	2.145	1	regulate	Run1	regulate/STIM_021.jpg
451.736	2.001	1	regulate	Run1	regulate/STIM_022.jpg
456.8	1.774	0	regulate	Run1	regulate/STIM_022.jpg
461.625	2.258	0	regulate	Run1	regulate/STIM_022.jpg
467.665	1.305	1	regulate	Run1	regulate/STIM_022.jpg
472.179	2.609	1	regulate	Run1	regulate/STIM_023.jpg
477.325	2.796	1	regulate	Run1	regulate/STIM_023.jpg
483.271	1.988	1	regulate	Run1	regulate/STIM_023.jpg
488.066	2.45	1	regulate	Run1	regulate/STIM_023.jpg
493.027	1.58	1	regulate	Run1	regulate/STIM_024.jpg
498.538	1.531	0	regulate	Run1	regulate/STIM_024.jpg
503.552	1.235	1	regulate	Run1	regulate/STIM_024.jpg
507.642	1.442	1	regulate	Run1	regulate/STIM_024.jpg
512.847	2.096	1	regulate	Run1	regulate/STIM_025.jpg
518.134	2.977	0	regulate	Run1	regulate/STIM_025.jpg
523.819	1.327	1	regulate	Run1	regulate/STIM_025.jpg
528.14	2.018	1	regulate	Run1	regulate/STIM_025.jpg
533.561	2.141	1	regulate	Run1	regulate/STIM_026.jpg
539.251	1.39	0	regulate	Run1	regulate/STIM_026.jpg
542.733	1.376	1	regulate	Run1	regulate/STIM_026.jpg
546.865	2.489	1	regulate	Run1	regulate/STIM_026.jpg
551.555	1.465	1	regulate	Run1	regulate/STIM_027.jpg
556.329	1.3	0	regulate	Run1	regulate/STIM_027.jpg
560.372	1.345	1	regulate	Run1	regulate/STIM_027.jpg
565.422	1.308	1	regulate	Run1	regulate/STIM_027.jpg
570.185	2.529	1	regulate	Run1	regulate/STIM_028.jpg
575.328	1.703	1	regulate	Run1	regulate/STIM_028.jpg
580.61	2.222	1	regulate	Run1	regulate/STIM_028.jpg
585.272	1.806	0	regulate	Run1	regulate/STIM_028.jpg
590.789	2.97	1	regulate	Run1	regulate/STIM_029.jpg
596.035	2.646	1	regulate	Run1	regulate/STIM_029.jpg
601.737	1.457	1	regulate	Run1	regulate/STIM_029.jpg
605.621	1.99	1	regulate	Run1	regulate/STIM_029.jpg
610.42	0.877	1	observe	Run1	observe/STIM_000.jpg
614.121	0.997	1	observe	Run1	observe/STIM_000.jpg
617.628	1.442	1	observe	Run1	observe/STIM_000.jpg
622.857	1.419	0	observe	Run1	observe/STIM_000.jpg
626.845	1.31	1	observe	Run1	observe/STIM_001.jpg
631.307	0.948	1	observe	Run1	observe/STIM_001.jpg
635.131	1.316	1	observe	Run1	observe/STIM_001.jpg
639.114	1.204	0	observe	Run1	observe/STIM_001.jpg
643.348	1.232	1	observe	Run1	observe/STIM_002.jpg
648.015	0.951	1	observe	Run1	observe/STIM_002.jpg
651.795	1.321	1	observe	Run1	observe/STIM_002.jpg
655.886	1.109	1	observe	Run1	observe/STIM_002.jpg
659.61	1.448	0	observe	Run1	observe/STIM_003.jpg
663.41	1.254	1	observe	Run1	observe/STIM_003.jpg
668.246	0.987	0	observe	Run1	observe/STIM_003.jpg
672.415	1.016	1	observe	Run1	observe/STIM_003.jpg
675.702	1.222	1	observe	Run1	observe/STIM_004.jpg
680.495	1.322	1	observe	Run1	observe/STIM_004.jpg
685.411	1.227	1	observe	Run1	observe/STIM_004.jpg
689.655	1.256	1	observe	Run1	observe/STIM_004.jpg
694.38	1.363	1	observe	Run1	observe/STIM_005.jpg
699.088	0.888	1	observe	Run1	observe/STIM_005.jpg
702.197	0.79	1	observe	Run1	observe/STIM_005.jpg
705.188	1.318	0	observe	Run1	observe/STIM_005.jpg
709.334	0.756	1	observe	Run1	observe/STIM_006.jpg
713.912	0.802	1	observe	Run1	observe/STIM_006.jpg
717.67	1.2	1	observe	Run1	observe/STIM_006.jpg
721.693	1.062	1	observe	Run1	observe/STIM_006.jpg
725.792	0.899	0	observe	Run1	observe/STIM_007.jpg
730.526	1.311	1	observe	Run1	observe/STIM_007.jpg
733.861	1.361	1	observe	Run1	observe/STIM_007.jpg
738.152	1.164	1	observe	Run1	observe/STIM_007.jpg
743.148	1.036	1	observe	Run1	observe/STIM_008.jpg
747.374	0.924	1	observe	Run1	observe/STIM_008.jpg
751.797	0.788	1	observe	Run1	observe/STIM_008.jpg
756.294	0.751	1	observe	Run1	observe/STIM_008.jpg
760.465	0.948	1	observe	Run1	observe/STIM_009.jpg
764.502	1.025	1	observe	Run1	observe/STIM_009.jpg
769.266	1.383	1	observe	Run1	observe/STIM_009.jpg
772.666	1.072	1	observe	Run1	observe/STIM_009.jpg
777.29	0.748	1	observe	Run1	observe/STIM_010.jpg
780.393	1.236	1	observe	Run1	observe/STIM_010.jpg
785.122	1.343	1	observe	Run1	observe/STIM_010.jpg
790.289	1.396	1	observe	Run1	observe/STIM_010.jpg
795.563	1.06	0	observe	Run1	observe/STIM_011.jpg
798.654	1.224	1	observe	Run1	observe/STIM_011.jpg
802.591	1.222	0	observe	Run1	observe/STIM_011.jpg
807.653	1.298	1	observe	Run1	observe/STIM_011.jpg
811.403	1.265	1	observe	Run1	observe/STIM_012.jpg
815.764	1.3	1	observe	Run1	observe/STIM_012.jpg
819.4	0.961	0	observe	Run1	observe/STIM_012.jpg
824.067	0.762	1	observe	Run1	observe/STIM_012.jpg
827.01	0.792	1	observe	Run1	observe/STIM_013.jpg
829.871	0.779	1	observe	Run1	observe/STIM_013.jpg
832.912	1.367	1	observe	Run1	observe/STIM_013.jpg
838.005	1.176	1	observe	Run1	observe/STIM_013.jpg
843.005	0.971	1	observe	Run1	observe/STIM_014.jpg
846.209	0.83	1	observe	Run1	observe/STIM_014.jpg
850.266	0.781	1	observe	Run1	observe/STIM_014.jpg
854.775	1.371	0	observe	Run1	observe/STIM_014.jpg
858.304	1.179	0	observe	Run1	observe/STIM_015.jpg
862.415	1.281	1	observe	Run1	observe/STIM_015.jpg
866.033	1.09	1	observe	Run1	observe/STIM_015.jpg
870.212	1.334	0	observe	Run1	observe/STIM_015.jpg
874.884	0.99	1	observe	Run1	observe/STIM_016.jpg
877.996	0.811	1	observe	Run1	observe/STIM_016.jpg
881.915	0.815	0	observe	Run1	observe/STIM_016.jpg
885.686	1.126	1	observe	Run1	observe/STIM_016.jpg
890.16	0.856	1	observe	Run1	observe/STIM_017.jpg
893.384	0.822	1	observe	Run1	observe/STIM_017.jpg
896.521	1.281	1	observe	Run1	observe/STIM_017.jpg
900.112	1.027	0	observe	Run1	observe/STIM_017.jpg
904.343	1.304	1	observe	Run1	observe/STIM_018.jpg
909.468	1.432	1	observe	Run1	observe/STIM_018.jpg
914.273	0.73	1	observe	Run1	observe/STIM_018.jpg
917.872	0.74	1	observe	Run1	observe/STIM_018.jpg
921.308	0.849	1	observe	Run1	observe/STIM_019.jpg
924.304	0.809	1	observe	Run1	observe/STIM_019.jpg
927.559	1.002	1	observe	Run1	observe/STIM_019.jpg
931.841	1.159	1	observe	Run1	observe/STIM_019.jpg
936.335	2.086	1	regulate	Run2	regulate/STIM_000.jpg
941.698	1.208	1	regulate	Run2	regulate/STIM_000.jpg
946.891	1.58	0	regulate	Run2	regulate/STIM_000.jpg
951.9	1.21	0	regulate	Run2	regulate/STIM_000.jpg
955.919	2.034	1	regulate	Run2	regulate/STIM_001.jpg
960.832	1.098	1	regulate	Run2	regulate/STIM_001.jpg
964.923	1.639	1	regulate	Run2	regulate/STIM_001.jpg
969.811	1.636	1	regulate	Run2	regulate/STIM_001.jpg
974.133	1.598	1	regulate	Run2	regulate/STIM_002.jpg
978.236	2.539	1	regulate	Run2	regulate/STIM_002.jpg
983.975	1.278	0	regulate	Run2	regulate/STIM_002.jpg
988.285	2.15	1	regulate	Run2	regulate/STIM_002.jpg
992.534	2.035	1	regulate	Run2	regulate/STIM_003.jpg
997.264	2.13	1	regulate	Run2	regulate/STIM_003.jpg
1002.447	2.23	0	regulate	Run2	regulate/STIM_003.jpg
1007.784	2.093	1	regulate	Run2	regulate/STIM_003.jpg
1012.339	1.848	1	regulate	Run2	regulate/STIM_004.jpg
1016.782	2.426	1	regulate	Run2	regulate/STIM_004.jpg
1021.633	1.967	1	regulate	Run2	regulate/STIM_004.jpg
1026.452	1.18	1	regulate	Run2	regulate/STIM_004.jpg
1031.07	2.353	0	regulate	Run2	regulate/STIM_005.jpg
1036.799	1.376	0	regulate	Run2	regulate/STIM_005.jpg
1041.011	1.51	1	regulate	Run2	regulate/STIM_005.jpg
1045.869	1.592	1	regulate	Run2	regulate/STIM_005.jpg
1050.382	1.791	1	regulate	Run2	regulate/STIM_006.jpg
1055.029	2.446	1	regulate	Run2	regulate/STIM_006.jpg
1060.532	1.641	1	regulate	Run2	regulate/STIM_006.jpg
1064.177	1.754	1	regulate	Run2	regulate/STIM_006.jpg
1068.513	1.494	1	regulate	Run2	regulate/STIM_007.jpg
1073.72	1.233	1	regulate	Run2	regulate/STIM_007.jpg
1077.678	1.821	1	regulate	Run2	regulate/STIM_007.jpg
1082.351	2.022	1	regulate	Run2	regulate/STIM_007.jpg
1086.555	1.843	1	regulate	Run2	regulate/STIM_008.jpg
1091.606	2.24	1	regulate	Run2	regulate/STIM_008.jpg
1097.704	2.247	1	regulate	Run2	regulate/STIM_008.jpg
1102.738	1.928	1	regulate	Run2	regulate/STIM_008.jpg
1107.122	1.738	1	regulate	Run2	regulate/STIM_009.jpg
1111.266	1.688	0	regulate	Run2	regulate/STIM_009.jpg
1115.739	1.831	1	regulate	Run2	regulate/STIM_009.jpg
1121.425	2.136	1	regulate	Run2	regulate/STIM_009.jpg
1125.725	2.118	1	regulate	Run2	regulate/STIM_010.jpg
1131.141	1.474	1	regulate	Run2	regulate/STIM_010.jpg
1134.7	1.166	1	regulate	Run2	regulate/STIM_010.jpg
1138.468	1.036	1	regulate	Run2	regulate/STIM_010.jpg
1142.253	1.491	1	regulate	Run2	regulate/STIM_011.jpg
1147.49	1.127	1	regulate	Run2	regulate/STIM_011.jpg
1152.56	1.488	1	regulate	Run2	regulate/STIM_011.jpg
1157.282	1.821	0	regulate	Run2	regulate/STIM_011.jpg
1162.757	1.858	1	regulate	Run2	regulate/STIM_012.jpg
1168.438	2.305	1	regulate	Run2	regulate/STIM_012.jpg
1174.027	1.63	1	regulate	Run2	regulate/STIM_012.jpg
1179.125	1.187	0	regulate	Run2	regulate/STIM_012.jpg
1183.177	1.97	0	regulate	Run2	regulate/STIM_013.jpg
1187.799	2.502	0	regulate	Run2	regulate/STIM_013.jpg
1193.776	1.456	0	regulate	Run2	regulate/STIM_013.jpg
1198.13	1.911	1	regulate	Run2	regulate/STIM_013.jpg
1203.552	1.821	1	regulate	Run2	regulate/STIM_014.jpg
1208.052	2.051	1	regulate	Run2	regulate/STIM_014.jpg
1212.328	1.345	0	regulate	Run2	regulate/STIM_014.jpg
1217.472	1.773	1	regulate	Run2	regulate/STIM_014.jpg
1222.366	2.274	1	regulate	Run2	regulate/STIM_015.jpg
1227.904	1.995	1	regulate	Run2	regulate/STIM_015.jpg
1233.454	1.994	1	regulate	Run2	regulate/STIM_015.jpg
1237.5	1.515	1	regulate	Run2	regulate/STIM_015.jpg
1242.367	1.661	0	regulate	Run2	regulate/STIM_016.jpg
1246.072	1.765	1	regulate	Run2	regulate/STIM_016.jpg
1251.577	1.783	1	regulate	Run2	regulate/STIM_016.jpg
1257.261	1.661	1	regulate	Run2	regulate/STIM_016.jpg
1261.713	2.215	1	regulate	Run2	regulate/STIM_017.jpg
1266.427	1.439	1	regulate	Run2	regulate/STIM_017.jpg
1270.952	1.924	1	regulate	Run2	regulate/STIM_017.jpg
1276.514	1.647	1	regulate	Run2	regulate/STIM_017.jpg
1280.528	1.334	1	regulate	Run2	regulate/STIM_018.jpg
1284.746	1.817	1	regulate	Run2	regulate/STIM_018.jpg
1288.585	1.232	1	regulate	Run2	regulate/STIM_018.jpg
1293.642	1.685	1	regulate	Run2	regulate/STIM_018.jpg
1298.956	1.596	1	regulate	Run2	regulate/STIM_019.jpg
1303.977	1.602	1	regulate	Run2	regulate/STIM_019.jpg
1308.04	1.572	1	regulate	Run2	regulate/STIM_019.jpg
1313.336	1.786	1	regulate	Run2	regulate/STIM_019.jpg
1317.403	2.293	0	regulate	Run2	regulate/STIM_020.jpg
1322.089	1.842	1	regulate	Run2	regulate/STIM_020.jpg
1327.915	2.181	1	regulate	Run2	regulate/STIM_020.jpg
1332.378	1.614	1	regulate	Run2	regulate/STIM_020.jpg
1337.024	1.482	1	regulate	Run2	regulate/STIM_021.jpg
1341.301	2.434	1	regulate	Run2	regulate/STIM_021.jpg
1345.808	2.362	1	regulate	Run2	regulate/STIM_021.jpg
1352.161	1.321	1	regulate	Run2	regulate/STIM_021.jpg
1357.123	1.852	1	regulate	Run2	regulate/STIM_022.jpg
1362.602	1.261	1	regulate	Run2	regulate/STIM_022.jpg
1365.989	1.413	1	regulate	Run2	regulate/STIM_022.jpg
1371.2	1.683	1	regulate	Run2	regulate/STIM_022.jpg
1374.934	2.646	1	regulate	Run2	regulate/STIM_023.jpg
1381.415	1.31	1	regulate	Run2	regulate/STIM_023.jpg
1386.579	2.158	1	regulate	Run2	regulate/STIM_023.jpg
1390.792	1.625	1	regulate	Run2	regulate/STIM_023.jpg
1395.058	2.284	1	regulate	Run2	regulate/STIM_024.jpg
1400.33	2.281	1	regulate	Run2	regulate/STIM_024.jpg
1405.359	2.314	1	regulate	Run2	regulate/STIM_024.jpg
1411.174	2.056	1	regulate	Run2	regulate/STIM_024.jpg
1417.098	1.983	0	regulate	Run2	regulate/STIM_025.jpg
1422.096	1.17	1	regulate	Run2	regulate/STIM_025.jpg
1427.183	1.96	1	regulate	Run2	regulate/STIM_025.jpg
1432.147	1.656	1	regulate	Run2	regulate/STIM_025.jpg
1437.335	2.368	1	regulate	Run2	regulate/STIM_026.jpg
1441.803	2.498	0	regulate	Run2	regulate/STIM_026.jpg
1447.435	1.412	1	regulate	Run2	regulate/STIM_026.jpg
1452.494	1.59	1	regulate	Run2	regulate/STIM_026.jpg
1456.362	1.199	1	regulate	Run2	regulate/STIM_027.jpg
1459.737	2.265	1	regulate	Run2	regulate/STIM_027.jpg
1465.847	1.635	1	regulate	Run2	regulate/STIM_027.jpg
1470.693	1.21	1	regulate	Run2	regulate/STIM_027.jpg
1474.468	1.955	1	regulate	Run2	regulate/STIM_028.jpg
1480.16	1.284	0	regulate	Run2	regulate/STIM_028.jpg
1484.928	1.728	1	regulate	Run2	regulate/STIM_028.jpg
1488.903	2.152	0	regulate	Run2	regulate/STIM_028.jpg
1494.635	1.178	1	regulate	Run2	regulate/STIM_029.jpg
1498.166	2.378	1	regulate	Run2	regulate/STIM_029.jpg
1503.896	2.356	1	regulate	Run2	regulate/STIM_029.jpg
1508.278	1.594	1	regulate	Run2	regulate/STIM_029.jpg
1512.092	0.843	1	observe	Run2	observe/STIM_000.jpg
1515.454	1.411	1	observe	Run2	observe/STIM_000.jpg
1519.015	0.848	1	observe	Run2	observe/STIM_000.jpg
1522.25	0.999	1	observe	Run2	observe/STIM_000.jpg
1525.976	1.012	1	observe	Run2	observe/STIM_001.jpg
1529.41	0.797	1	observe	Run2	observe/STIM_001.jpg
1533.129	1.382	1	observe	Run2	observe/STIM_001.jpg
1536.746	1.15	1	observe	Run2	observe/STIM_001.jpg
1540.761	1.383	1	observe	Run2	observe/STIM_002.jpg
1545.8	0.845	1	observe	Run2	observe/STIM_002.jpg
1549.303	1.177	1	observe	Run2	observe/STIM_002.jpg
1553.877	1.151	1	observe	Run2	observe/STIM_002.jpg
1558.572	1.292	1	observe	Run2	observe/STIM_003.jpg
1562.218	1.367	0	observe	Run2	observe/STIM_003.jpg
1565.634	1.074	1	observe	Run2	observe/STIM_003.jpg
1569.76	1.184	1	observe	Run2	observe/STIM_003.jpg
1574.277	0.842	1	observe	Run2	observe/STIM_004.jpg
1578.477	1.298	1	observe	Run2	observe/STIM_004.jpg
1583.242	1.436	1	observe	Run2	observe/STIM_004.jpg
1587.493	0.808	1	observe	Run2	observe/STIM_004.jpg
1592.076	1.002	1	observe	Run2	observe/STIM_005.jpg
1595.406	0.869	1	observe	Run2	observe/STIM_005.jpg
1598.872	1.125	1	observe	Run2	observe/STIM_005.jpg
1602.941	0.953	0	observe	Run2	observe/STIM_005.jpg
1607.036	1.15	1	observe	Run2	observe/STIM_006.jpg
1611.825	1.43	1	observe	Run2	observe/STIM_006.jpg
1616.374	1.406	1	observe	Run2	observe/STIM_006.jpg
1620.589	1.26	1	observe	Run2	observe/STIM_006.jpg
1625.096	0.873	0	observe	Run2	observe/STIM_007.jpg
1628.139	0.913	1	observe	Run2	observe/STIM_007.jpg
1631.485	1.115	1	observe	Run2	observe/STIM_007.jpg
1635.965	1.181	1	observe	Run2	observe/STIM_007.jpg
1639.476	0.91	1	observe	Run2	observe/STIM_008.jpg
1643.483	0.762	0	observe	Run2	observe/STIM_008.jpg
1647.729	0.932	1	observe	Run2	observe/STIM_008.jpg
1651.896	0.797	1	observe	Run2	observe/STIM_008.jpg
1656.57	0.977	1	observe	Run2	observe/STIM_009.jpg
1661.543	1.185	1	observe	Run2	observe/STIM_009.jpg
1665.368	0.865	1	observe	Run2	observe/STIM_009.jpg
1670.009	0.978	1	observe	Run2	observe/STIM_009.jpg
1674.882	1.384	1	observe	Run2	observe/STIM_010.jpg
1679.953	1.444	1	observe	Run2	observe/STIM_010.jpg
1685.077	1.282	0	observe	Run2	observe/STIM_010.jpg
1688.828	1.094	1	observe	Run2	observe/STIM_010.jpg
1693.284	0.789	0	observe	Run2	observe/STIM_011.jpg
1697.604	0.736	1	observe	Run2	observe/STIM_011.jpg
1700.478	1.266	1	observe	Run2	observe/STIM_011.jpg
1703.748	0.823	1	observe	Run2	observe/STIM_011.jpg
1706.856	1.304	1	observe	Run2	observe/STIM_012.jpg
1711.756	0.788	0	observe	Run2	observe/STIM_012.jpg
1715.97	1.165	1	observe	Run2	observe/STIM_012.jpg
1719.643	0.972	1	observe	Run2	observe/STIM_012.jpg
1723.826	1.134	1	observe	Run2	observe/STIM_013.jpg
1728.806	0.916	1	observe	Run2	observe/STIM_013.jpg
1731.893	0.826	1	observe	Run2	observe/STIM_013.jpg
1736.635	1.018	1	observe	Run2	observe/STIM_013.jpg
1741.639	1.396	1	observe	Run2	observe/STIM_014.jpg
1746.714	0.97	1	observe	Run2	observe/STIM_014.jpg
1749.906	0.874	1	observe	Run2	observe/STIM_014.jpg
1752.885	1.4	1	observe	Run2	observe/STIM_014.jpg
1757.98	1.01	1	observe	Run2	observe/STIM_015.jpg
1762.614	0.927	1	observe	Run2	observe/STIM_015.jpg
1766.008	1.33	1	observe	Run2	observe/STIM_015.jpg
1770.748	1.45	0	observe	Run2	observe/STIM_015.jpg
1774.5	1.114	1	observe	Run2	observe/STIM_016.jpg
1779.529	0.963	1	observe	Run2	observe/STIM_016.jpg
1783.316	1.185	0	observe	Run2	observe/STIM_016.jpg
1788.499	0.885	1	observe	Run2	observe/STIM_016.jpg
1793.163	1.31	1	observe	Run2	observe/STIM_017.jpg
1797.416	1.265	1	observe	Run2	observe/STIM_017.jpg
1801.337	0.828	1	observe	Run2	observe/STIM_017.jpg
1804.478	1.085	1	observe	Run2	observe/STIM_017.jpg
1808.364	1.254	1	observe	Run2	observe/STIM_018.jpg
1813.391	0.96	1	observe	Run2	observe/STIM_018.jpg
1818.279	1.062	1	observe	Run2	observe/STIM_018.jpg
1821.343	0.788	1	observe	Run2	observe/STIM_018.jpg
1825.307	1.122	0	observe	Run2	observe/STIM_019.jpg
1829.093	0.926	0	observe	Run2	observe/STIM_019.jpg
1833.997	1.09	1	observe	Run2	observe/STIM_019.jpg
1837.715	1.254	1	observe	Run2	observe/STIM_019.jpg
1841.138	1.971	1	regulate	Run3	regulate/STIM_000.jpg
1846.129	2.022	1	regulate	Run3	regulate/STIM_000.jpg
1851.088	1.708	1	regulate	Run3	regulate/STIM_000.jpg
1855.641	1.603	1	regulate	Run3	regulate/STIM_000.jpg
1859.626	2.212	0	regulate	Run3	regulate/STIM_001.jpg
1864.75	1.041	1	regulate	Run3	regulate/STIM_001.jpg
1868.989	1.64	1	regulate	Run3	regulate/STIM_001.jpg
1874.238	1.444	1	regulate	Run3	regulate/STIM_001.jpg
1878.505	1.074	1	regulate	Run3	regulate/STIM_002.jpg
1882.208	1.517	1	regulate	Run3	regulate/STIM_002.jpg
1886.678	2.181	1	regulate	Run3	regulate/STIM_002.jpg
1891.773	1.334	1	regulate	Run3	regulate/STIM_002.jpg
1895.542	1.634	1	regulate	Run3	regulate/STIM_003.jpg
1899.486	1.275	1	regulate	Run3	regulate/STIM_003.jpg
1904.547	1.792	1	regulate	Run3	regulate/STIM_003.jpg
1909.459	1.0	1	regulate	Run3	regulate/STIM_003.jpg
1913.75	1.018	1	regulate	Run3	regulate/STIM_004.jpg
1918.457	1.427	1	regulate	Run3	regulate/STIM_004.jpg
1923.533	1.078	1	regulate	Run3	regulate/STIM_004.jpg
1928.577	1.815	1	regulate	Run3	regulate/STIM_004.jpg
1934.309	1.496	0	regulate	Run3	regulate/STIM_005.jpg
1937.849	1.931	1	regulate	Run3	regulate/STIM_005.jpg
1942.559	1.214	1	regulate	Run3	regulate/STIM_005.jpg
1946.206	1.738	1	regulate	Run3	regulate/STIM_005.jpg
1950.941	1.357	1	regulate	Run3	regulate/STIM_006.jpg
1954.975	1.917	1	regulate	Run3	regulate/STIM_006.jpg
1959.536	1.022	1	regulate	Run3	regulate/STIM_006.jpg
1963.111	1.491	1	regulate	Run3	regulate/STIM_006.jpg
1966.766	1.777	1	regulate	Run3	regulate/STIM_007.jpg
1972.385	2.201	1	regulate	Run3	regulate/STIM_007.jpg
1977.353	2.182	1	regulate	Run3	regulate/STIM_007.jpg
1982.8	1.462	1	regulate	Run3	regulate/STIM_007.jpg
1987.921	0.966	0	regulate	Run3	regulate/STIM_008.jpg
1990.912	1.727	1	regulate	Run3	regulate/STIM_008.jpg
1996.063	1.705	1	regulate	Run3	regulate/STIM_008.jpg
2000.1	1.08	1	regulate	Run3	regulate/STIM_008.jpg
2003.528	1.304	1	regulate	Run3	regulate/STIM_009.jpg
2007.544	1.024	1	regulate	Run3	regulate/STIM_009.jpg
2011.134	1.006	0	regulate	Run3	regulate/STIM_009.jpg
2014.945	1.106	1	regulate	Run3	regulate/STIM_009.jpg
2019.309	1.82	1	regulate	Run3	regulate/STIM_010.jpg
2025.072	1.481	1	regulate	Run3	regulate/STIM_010.jpg
2030.534	1.656	1	regulate	Run3	regulate/STIM_010.jpg
2034.989	1.128	1	regulate	Run3	regulate/STIM_010.jpg
2039.549	2.172	1	regulate	Run3	regulate/STIM_011.jpg
2045.215	2.071	1	regulate	Run3	regulate/STIM_011.jpg
2051.233	1.966	1	regulate	Run3	regulate/STIM_011.jpg
2056.168	0.982	1	regulate	Run3	regulate/STIM_011.jpg
2059.205	1.298	1	regulate	Run3	regulate/STIM_012.jpg
2063.001	1.528	0	regulate	Run3	regulate/STIM_012.jpg
2066.836	1.06	1	regulate	Run3	regulate/STIM_012.jpg
2070.083	1.623	0	regulate	Run3	regulate/STIM_012.jpg
2075.043	1.668	1	regulate	Run3	regulate/STIM_013.jpg
2080.68	1.302	1	regulate	Run3	regulate/STIM_013.jpg
2084.646	1.638	1	regulate	Run3	regulate/STIM_013.jpg
2089.579	2.043	1	regulate	Run3	regulate/STIM_013.jpg
2093.768	0.985	1	regulate	Run3	regulate/STIM_014.jpg
2096.755	1.524	1	regulate	Run3	regulate/STIM_014.jpg
2101.741	1.768	1	regulate	Run3	regulate/STIM_014.jpg
2105.804	1.827	1	regulate	Run3	regulate/STIM_014.jpg
2110.233	1.184	1	regulate	Run3	regulate/STIM_015.jpg
2113.722	2.083	1	regulate	Run3	regulate/STIM_015.jpg
2117.836	1.622	1	regulate	Run3	regulate/STIM_015.jpg
2122.178	2.162	1	regulate	Run3	regulate/STIM_015.jpg
2127.555	2.162	1	regulate	Run3	regulate/STIM_016.jpg
2133.099	1.721	1	regulate	Run3	regulate/STIM_016.jpg
2137.127	1.479	1	regulate	Run3	regulate/STIM_016.jpg
2140.619	1.53	1	regulate	Run3	regulate/STIM_016.jpg
2145.056	1.22	1	regulate	Run3	regulate/STIM_017.jpg
2150.204	2.136	1	regulate	Run3	regulate/STIM_017.jpg
2155.077	1.661	1	regulate	Run3	regulate/STIM_017.jpg
2160.488	2.107	1	regulate	Run3	regulate/STIM_017.jpg
2165.981	2.2	1	regulate	Run3	regulate/STIM_018.jpg
2170.604	2.204	1	regulate	Run3	regulate/STIM_018.jpg
2175.01	2.093	1	regulate	Run3	regulate/STIM_018.jpg
2180.449	1.512	1	regulate	Run3	regulate/STIM_018.jpg
2185.025	1.164	1	regulate	Run3	regulate/STIM_019.jpg
2188.427	0.988	1	regulate	Run3	regulate/STIM_019.jpg
2192.647	1.819	1	regulate	Run3	regulate/STIM_019.jpg
2196.969	1.975	1	regulate	Run3	regulate/STIM_019.jpg
2202.387	1.876	1	regulate	Run3	regulate/STIM_020.jpg
2207.457	1.346	1	regulate	Run3	regulate/STIM_020.jpg
2211.175	1.223	1	regulate	Run3	regulate/STIM_020.jpg
2216.24	1.738	1	regulate	Run3	regulate/STIM_020.jpg
2220.807	1.516	1	regulate	Run3	regulate/STIM_021.jpg
2224.887	1.703	1	regulate	Run3	regulate/STIM_021.jpg
2228.855	1.024	1	regulate	Run3	regulate/STIM_021.jpg
2231.909	2.166	1	regulate	Run3	regulate/STIM_021.jpg
2237.84	1.336	1	regulate	Run3	regulate/STIM_022.jpg
2242.661	1.853	1	regulate	Run3	regulate/STIM_022.jpg
2248.287	0.965	1	regulate	Run3	regulate/STIM_022.jpg
2252.961	1.932	1	regulate	Run3	regulate/STIM_022.jpg
2257.065	1.316	1	regulate	Run3	regulate/STIM_023.jpg
2261.457	1.514	1	regulate	Run3	regulate/STIM_023.jpg
2265.723	1.502	1	regulate	Run3	regulate/STIM_023.jpg
2270.693	1.406	1	regulate	Run3	regulate/STIM_023.jpg
2275.356	1.325	1	regulate	Run3	regulate/STIM_024.jpg
2280.323	1.58	1	regulate	Run3	regulate/STIM_024.jpg
2284.809	1.996	1	regulate	Run3	regulate/STIM_024.jpg
2289.066	2.083	1	regulate	Run3	regulate/STIM_024.jpg
2293.764	1.771	1	regulate	Run3	regulate/STIM_025.jpg
2297.8	1.778	1	regulate	Run3	regulate/STIM_025.jpg
2303.09	1.082	1	regulate	Run3	regulate/STIM_025.jpg
2307.01	1.403	1	regulate	Run3	regulate/STIM_025.jpg
2310.618	0.988	1	regulate	Run3	regulate/STIM_026.jpg
2315.319	2.223	1	regulate	Run3	regulate/STIM_026.jpg
2321.058	1.842	1	regulate	Run3	regulate/STIM_026.jpg
2325.255	1.137	1	regulate	Run3	regulate/STIM_026.jpg
2329.382	1.211	1	regulate	Run3	regulate/STIM_027.jpg
2332.822	1.052	1	regulate	Run3	regulate/STIM_027.jpg
2337.687	1.742	1	regulate	Run3	regulate/STIM_027.jpg
2342.995	2.09	0	regulate	Run3	regulate/STIM_027.jpg
2347.38	1.429	1	regulate	Run3	regulate/STIM_028.jpg
2350.84	1.824	0	regulate	Run3	regulate/STIM_028.jpg
2356.529	1.7	1	regulate	Run3	regulate/STIM_028.jpg
2360.839	1.793	1	regulate	Run3	regulate/STIM_028.jpg
2365.839	0.984	1	regulate	Run3	regulate/STIM_029.jpg
2369.502	1.531	1	regulate	Run3	regulate/STIM_029.jpg
2374.228	1.908	1	regulate	Run3	regulate/STIM_029.jpg
2378.575	2.037	1	regulate	Run3	regulate/STIM_029.jpg
2383.021	1.138	0	observe	Run3	observe/STIM_000.jpg
2387.94	0.949	0	observe	Run3	observe/STIM_000.jpg
2392.068	1.134	1	observe	Run3	observe/STIM_000.jpg
2396.528	1.388	1	observe	Run3	observe/STIM_000.jpg
2401.715	0.941	0	observe	Run3	observe/STIM_001.jpg
2405.393	1.379	1	observe	Run3	observe/STIM_001.jpg
2409.253	1.213	1	observe	Run3	observe/STIM_001.jpg
2414.421	0.944	1	observe	Run3	observe/STIM_001.jpg
2417.653	1.31	1	observe	Run3	observe/STIM_002.jpg
2422.194	0.902	1	observe	Run3	observe/STIM_002.jpg
2425.682	1.241	1	observe	Run3	observe/STIM_002.jpg
2429.573	0.859	1	observe	Run3	observe/STIM_002.jpg
2434.285	1.248	1	observe	Run3	observe/STIM_003.jpg
2438.643	1.023	1	observe	Run3	observe/STIM_003.jpg
2441.736	1.362	1	observe	Run3	observe/STIM_003.jpg
2447.093	0.881	0	observe	Run3	observe/STIM_003.jpg
2451.234	0.815	1	observe	Run3	observe/STIM_004.jpg
2454.278	1.412	1	observe	Run3	observe/STIM_004.jpg
2459.664	0.767	1	observe	Run3	observe/STIM_004.jpg
2463.695	1.031	0	observe	Run3	observe/STIM_004.jpg
2466.774	0.987	0	observe	Run3	observe/STIM_005.jpg
2470.259	0.909	0	observe	Run3	observe/STIM_005.jpg
2473.51	1.084	1	observe	Run3	observe/STIM_005.jpg
2478.075	1.265	1	observe	Run3	observe/STIM_005.jpg
2482.608	1.092	1	observe	Run3	observe/STIM_006.jpg
2486.141	1.343	1	observe	Run3	observe/STIM_006.jpg
2490.108	1.166	1	observe	Run3	observe/STIM_006.jpg
2495.158	0.957	0	observe	Run3	observe/STIM_006.jpg
2499.995	1.411	1	observe	Run3	observe/STIM_007.jpg
2504.357	1.191	0	observe	Run3	observe/STIM_007.jpg
2509.316	1.081	1	observe	Run3	observe/STIM_007.jpg
2512.702	1.295	0	observe	Run3	observe/STIM_007.jpg
2516.576	1.394	1	observe	Run3	observe/STIM_008.jpg
2520.014	0.809	1	observe	Run3	observe/STIM_008.jpg
2523.954	1.172	0	observe	Run3	observe/STIM_008.jpg
2528.039	0.994	1	observe	Run3	observe/STIM_008.jpg
2531.231	1.008	1	observe	Run3	observe/STIM_009.jpg
2535.015	1.312	1	observe	Run3	observe/STIM_009.jpg
2539.384	0.967	0	observe	Run3	observe/STIM_009.jpg
2543.394	1.051	0	observe	Run3	observe/STIM_009.jpg
2547.585	0.967	1	observe	Run3	observe/STIM_010.jpg
2551.964	0.76	0	observe	Run3	observe/STIM_010.jpg
2555.64	1.313	1	observe	Run3	observe/STIM_010.jpg
2560.784	0.873	0	observe	Run3	observe/STIM_010.jpg
2565.474	1.187	1	observe	Run3	observe/STIM_011.jpg
2570.327	1.291	1	observe	Run3	observe/STIM_011.jpg
2574.683	1.245	1	observe	Run3	observe/STIM_011.jpg
2579.141	1.274	1	observe	Run3	observe/STIM_011.jpg
2583.086	1.037	1	observe	Run3	observe/STIM_012.jpg
2588.109	0.951	1	observe	Run3	observe/STIM_012.jpg
2592.675	0.859	1	observe	Run3	observe/STIM_012.jpg
2596.995	1.221	0	observe	Run3	observe/STIM_012.jpg
2601.576	1.431	1	observe	Run3	observe/STIM_013.jpg
2606.261	1.162	1	observe	Run3	observe/STIM_013.jpg
2610.691	0.843	1	observe	Run3	observe/STIM_013.jpg
2614.178	1.003	1	observe	Run3	observe/STIM_013.jpg
2618.557	0.865	1	observe	Run3	observe/STIM_014.jpg
2621.832	1.0	1	observe	Run3	observe/STIM_014.jpg
2626.535	1.192	1	observe	Run3	observe/STIM_014.jpg
2631.261	1.266	1	observe	Run3	observe/STIM_014.jpg
2635.708	1.394	0	observe	Run3	observe/STIM_015.jpg
2639.682	1.224	1	observe	Run3	observe/STIM_015.jpg
2643.253	1.309	1	observe	Run3	observe/STIM_015.jpg
2648.469	0.931	1	observe	Run3	observe/STIM_015.jpg
2652.93	0.998	0	observe	Run3	observe/STIM_016.jpg
2655.97	1.426	1	observe	Run3	observe/STIM_016.jpg
2660.441	0.924	1	observe	Run3	observe/STIM_016.jpg
2665.109	1.036	1	observe	Run3	observe/STIM_016.jpg
2669.141	1.215	1	observe	Run3	observe/STIM_017.jpg
2674.102	0.968	1	observe	Run3	observe/STIM_017.jpg
2678.777	1.034	1	observe	Run3	observe/STIM_017.jpg
2683.467	0.789	1	observe	Run3	observe/STIM_017.jpg
2687.878	1.292	0	observe	Run3	observe/STIM_018.jpg
2692.621	1.148	1	observe	Run3	observe/STIM_018.jpg
2696.533	1.217	1	observe	Run3	observe/STIM_018.jpg
2701.137	0.735	1	observe	Run3	observe/STIM_018.jpg
2704.812	0.823	1	observe	Run3	observe/STIM_019.jpg
2708.568	0.989	1	observe	Run3	observe/STIM_019.jpg
2712.046	1.44	0	observe	Run3	observe/STIM_019.jpg
2716.524	1.262	1	observe	Run3	observe/STIM_019.jpg
