onset	duration	response_time_ms	trial_type	learning_stage	stimulus	response_port
0.0	0.942	941.8	study	Phase1	study/STIM_000.jpg	99
4.441	1.399	1398.9	study	Phase1	study/STIM_000.jpg	99
9.944	1.132	1131.9	study	Phase1	study/STIM_000.jpg	100
13.397	1.11	1110.2	study	Phase1	study/STIM_001.jpg	99
18.378	0.745	745.1	study	Phase1	study/STIM_001.jpg	99
22.059	1.174	1174.4	study	Phase1	study/STIM_001.jpg	99
26.568	1.272	1272.4	study	Phase1	study/STIM_002.jpg	99
30.824	0.997	996.6	study	Phase1	study/STIM_002.jpg	99
35.155	1.42	1420.2	study	Phase1	study/STIM_002.jpg	99
39.266	0.864	864.4	study	Phase1	study/STIM_003.jpg	99
43.701	0.759	759.4	study	Phase1	study/STIM_003.jpg	99
47.841	1.016	1016.5	study	Phase1	study/STIM_003.jpg	100
51.003	1.242	1241.7	study	Phase1	study/STIM_004.jpg	99
55.027	0.984	983.7	study	Phase1	study/STIM_004.jpg	100
58.945	1.271	1271.0	study	Phase1	study/STIM_004.jpg	99
62.929	0.974	974.0	study	Phase1	study/STIM_005.jpg	99
67.877	0.936	935.9	study	Phase1	study/STIM_005.jpg	99
72.669	1.231	1230.7	study	Phase1	study/STIM_005.jpg	100
77.812	1.498	1498.0	study	Phase1	study/STIM_006.jpg	100
81.601	1.207	1206.8	study	Phase1	study/STIM_006.jpg	100
86.893	1.079	1078.8	study	Phase1	study/STIM_006.jpg	99
91.399	1.436	1435.9	study	Phase1	study/STIM_007.jpg	99
96.823	1.066	1065.7	study	Phase1	study/STIM_007.jpg	99
101.973	0.652	652.0	study	Phase1	study/STIM_007.jpg	100
105.48	1.22	1220.2	study	Phase1	study/STIM_008.jpg	99
109.002	1.126	1126.3	study	Phase1	study/STIM_008.jpg	99
114.258	1.382	1382.4	study	Phase1	study/STIM_008.jpg	100
117.91	1.415	1415.0	study	Phase1	study/STIM_009.jpg	100
121.816	1.356	1356.4	study	Phase1	study/STIM_009.jpg	99
126.899	1.35	1350.5	study	Phase1	study/STIM_009.jpg	99
130.467	1.207	1207.2	study	Phase1	study/STIM_010.jpg	99
135.065	0.815	814.8	study	Phase1	study/STIM_010.jpg	99
139.676	1.188	1187.8	study	Phase1	study/STIM_010.jpg	100
143.349	0.836	835.9	study	Phase1	study/STIM_011.jpg	99
147.359	0.698	697.6	study	Phase1	study/STIM_011.jpg	100
150.925	1.082	1081.6	study	Phase1	study/STIM_011.jpg	99
155.362	1.176	1175.6	study	Phase1	study/STIM_012.jpg	100
160.034	0.806	806.2	study	Phase1	study/STIM_012.jpg	100
164.3	1.098	1098.1	study	Phase1	study/STIM_012.jpg	100
168.308	1.218	1217.9	study	Phase1	study/STIM_013.jpg	100
171.75	1.341	1341.4	study	Phase1	study/STIM_013.jpg	99
177.21	1.349	1349.2	study	Phase1	study/STIM_013.jpg	100
182.335	1.113	1112.7	study	Phase1	study/STIM_014.jpg	99
186.596	1.153	1153.2	study	Phase1	study/STIM_014.jpg	100
191.789	1.377	1376.8	study	Phase1	study/STIM_014.jpg	100
196.525	1.167	1166.9	study	Phase1	study/STIM_015.jpg	99
201.475	1.292	1291.6	study	Phase1	study/STIM_015.jpg	100
206.245	0.801	801.0	study	Phase1	study/STIM_015.jpg	99
210.461	1.239	1238.9	study	Phase1	study/STIM_016.jpg	100
215.547	1.08	1080.5	study	Phase1	study/STIM_016.jpg	99
220.039	0.67	670.4	study	Phase1	study/STIM_016.jpg	99
223.021	1.387	1387.1	study	Phase1	study/STIM_017.jpg	100
228.149	1.089	1088.6	study	Phase1	study/STIM_017.jpg	100
232.309	0.954	954.5	study	Phase1	study/STIM_017.jpg	99
236.998	1.209	1208.9	study	Phase1	study/STIM_018.jpg	100
241.663	1.098	1097.8	study	Phase1	study/STIM_018.jpg	100
246.77	0.913	913.1	study	Phase1	study/STIM_018.jpg	100
250.281	1.552	1552.2	study	Phase1	study/STIM_019.jpg	100
254.548	1.04	1040.0	study	Phase1	study/STIM_019.jpg	100
258.299	0.75	749.7	study	Phase1	study/STIM_019.jpg	99
262.075	0.91	910.4	study	Phase1	study/STIM_020.jpg	99
266.349	0.943	942.8	study	Phase1	study/STIM_020.jpg	100
270.132	1.223	1222.8	study	Phase1	study/STIM_020.jpg	100
273.743	1.23	1230.5	study	Phase1	study/STIM_021.jpg	99
278.878	1.424	1424.0	study	Phase1	study/STIM_021.jpg	99
282.579	1.18	1180.0	study	Phase1	study/STIM_021.jpg	100
286.542	0.872	872.5	study	Phase1	study/STIM_022.jpg	99
291.188	0.813	813.2	study	Phase1	study/STIM_022.jpg	99
294.422	0.887	887.0	study	Phase1	study/STIM_022.jpg	99
297.916	1.144	1144.4	study	Phase1	study/STIM_023.jpg	99
302.715	0.832	832.1	study	Phase1	study/STIM_023.jpg	100
306.086	0.797	796.7	study	Phase1	study/STIM_023.jpg	99
309.003	0.971	971.1	study	Phase1	study/STIM_024.jpg	99
312.761	1.41	1409.9	study	Phase1	study/STIM_024.jpg	100
317.543	1.335	1335.3	study	Phase1	study/STIM_024.jpg	99
321.968	1.289	1289.1	study	Phase1	study/STIM_025.jpg	99
326.191	1.515	1515.3	study	Phase1	study/STIM_025.jpg	100
331.176	1.259	1259.0	study	Phase1	study/STIM_025.jpg	99
335.502	1.333	1332.8	study	Phase1	study/STIM_026.jpg	99
340.948	1.469	1468.8	study	Phase1	study/STIM_026.jpg	100
344.664	0.882	881.8	study	Phase1	study/STIM_026.jpg	99
347.78	1.592	1591.7	study	Phase1	study/STIM_027.jpg	99
351.943	1.352	1352.3	study	Phase1	study/STIM_027.jpg	99
356.77	1.449	1448.9	study	Phase1	study/STIM_027.jpg	99
360.478	1.519	1518.7	study	Phase1	study/STIM_028.jpg	99
365.94	0.9	900.0	study	Phase1	study/STIM_028.jpg	100
368.956	1.089	1088.8	study	Phase1	study/STIM_028.jpg	99
374.033	1.423	1423.2	study	Phase1	study/STIM_029.jpg	99
377.864	1.398	1398.0	study	Phase1	study/STIM_029.jpg	99
381.524	0.887	886.9	study	Phase1	study/STIM_029.jpg	99
385.593	0.586	585.9	test	Phase1	test/STIM_000.jpg	99
389.74	1.118	1117.9	test	Phase1	test/STIM_000.jpg	100
394.478	0.897	897.4	test	Phase1	test/STIM_000.jpg	100
399.086	0.54	539.5	test	Phase1	test/STIM_001.jpg	100
403.034	0.757	756.6	test	Phase1	test/STIM_001.jpg	99
407.218	0.604	603.5	test	Phase1	test/STIM_001.jpg	100
411.303	0.806	806.3	test	Phase1	test/STIM_002.jpg	100
415.544	0.83	829.6	test	Phase1	test/STIM_002.jpg	100
419.801	0.971	971.2	test	Phase1	test/STIM_002.jpg	99
424.014	1.08	1079.6	test	Phase1	test/STIM_003.jpg	99
428.37	0.689	688.7	test	Phase1	test/STIM_003.jpg	99
431.24	0.734	733.7	test	Phase1	test/STIM_003.jpg	99
434.177	1.027	1027.0	test	Phase1	test/STIM_004.jpg	99
438.205	0.591	590.9	test	Phase1	test/STIM_004.jpg	100
442.854	0.782	782.3	test	Phase1	test/STIM_004.jpg	100
446.808	0.783	783.0	test	Phase1	test/STIM_005.jpg	99
451.143	0.937	936.6	test	Phase1	test/STIM_005.jpg	99
455.565	0.713	712.9	test	Phase1	test/STIM_005.jpg	99
460.07	0.691	691.0	test	Phase1	test/STIM_006.jpg	99
464.544	1.028	1027.6	test	Phase1	test/STIM_006.jpg	100
468.693	1.128	1127.6	test	Phase1	test/STIM_006.jpg	99
473.855	0.942	942.0	test	Phase1	test/STIM_007.jpg	100
477.474	0.739	739.3	test	Phase1	test/STIM_007.jpg	99
481.561	0.664	664.3	test	Phase1	test/STIM_007.jpg	99
485.468	0.736	736.3	test	Phase1	test/STIM_008.jpg	99
490.204	0.919	919.2	test	Phase1	test/STIM_008.jpg	100
493.287	0.974	973.6	test	Phase1	test/STIM_008.jpg	100
498.018	0.654	654.3	test	Phase1	test/STIM_009.jpg	99
501.358	0.809	809.2	test	Phase1	test/STIM_009.jpg	100
505.403	0.747	746.9	test	Phase1	test/STIM_009.jpg	100
508.646	0.894	893.6	test	Phase1	test/STIM_010.jpg	100
512.833	0.736	736.3	test	Phase1	test/STIM_010.jpg	100
516.133	0.62	620.1	test	Phase1	test/STIM_010.jpg	99
520.779	0.894	894.1	test	Phase1	test/STIM_011.jpg	100
524.998	0.63	630.1	test	Phase1	test/STIM_011.jpg	99
529.299	0.653	652.7	test	Phase1	test/STIM_011.jpg	99
532.327	1.004	1004.5	test	Phase1	test/STIM_012.jpg	99
536.251	0.997	996.8	test	Phase1	test/STIM_012.jpg	99
539.988	0.838	837.5	test	Phase1	test/STIM_012.jpg	100
543.007	0.624	623.6	test	Phase1	test/STIM_013.jpg	100
546.714	0.808	808.1	test	Phase1	test/STIM_013.jpg	99
549.718	0.583	582.8	test	Phase1	test/STIM_013.jpg	100
553.19	0.779	779.0	test	Phase1	test/STIM_014.jpg	100
556.305	0.685	685.4	test	Phase1	test/STIM_014.jpg	100
560.92	0.897	897.2	test	Phase1	test/STIM_014.jpg	99
564.873	0.635	635.4	test	Phase1	test/STIM_015.jpg	99
569.432	0.787	787.3	test	Phase1	test/STIM_015.jpg	99
572.612	0.837	836.9	test	Phase1	test/STIM_015.jpg	100
577.214	0.719	719.2	test	Phase1	test/STIM_016.jpg	100
580.865	0.659	658.8	test	Phase1	test/STIM_016.jpg	100
584.726	0.781	781.0	test	Phase1	test/STIM_016.jpg	100
589.589	0.717	716.6	test	Phase1	test/STIM_017.jpg	100
594.307	0.683	682.7	test	Phase1	test/STIM_017.jpg	99
598.779	1.011	1011.2	test	Phase1	test/STIM_017.jpg	99
603.629	0.924	923.6	test	Phase1	test/STIM_018.jpg	99
607.652	0.822	821.6	test	Phase1	test/STIM_018.jpg	99
612.115	0.876	875.7	test	Phase1	test/STIM_018.jpg	99
616.777	0.881	880.7	test	Phase1	test/STIM_019.jpg	100
621.347	0.97	969.8	test	Phase1	test/STIM_019.jpg	99
625.857	0.861	861.3	test	Phase1	test/STIM_019.jpg	99
629.502	1.028	1027.6	test	Phase1	test/STIM_020.jpg	100
632.99	0.896	896.4	test	Phase1	test/STIM_020.jpg	99
636.973	0.973	972.7	test	Phase1	test/STIM_020.jpg	99
641.337	1.026	1025.7	test	Phase1	test/STIM_021.jpg	99
645.492	1.101	1100.7	test	Phase1	test/STIM_021.jpg	99
649.027	1.099	1098.6	test	Phase1	test/STIM_021.jpg	100
653.336	0.925	924.9	test	Phase1	test/STIM_022.jpg	99
656.701	0.711	711.4	test	Phase1	test/STIM_022.jpg	100
660.093	1.022	1021.9	test	Phase1	test/STIM_022.jpg	100
665.12	1.124	1123.6	test	Phase1	test/STIM_023.jpg	100
670.113	0.695	694.7	test	Phase1	test/STIM_023.jpg	99
673.337	0.86	859.9	test	Phase1	test/STIM_023.jpg	100
677.782	1.145	1145.2	test	Phase1	test/STIM_024.jpg	99
682.555	1.065	1065.1	test	Phase1	test/STIM_024.jpg	99
686.177	0.616	615.8	test	Phase1	test/STIM_024.jpg	99
689.836	0.79	789.9	test	Phase1	test/STIM_025.jpg	100
692.746	0.61	609.9	test	Phase1	test/STIM_025.jpg	100
696.642	0.997	996.6	test	Phase1	test/STIM_025.jpg	100
699.806	0.989	988.8	test	Phase1	test/STIM_026.jpg	99
703.373	0.64	640.1	test	Phase1	test/STIM_026.jpg	99
706.126	0.656	656.4	test	Phase1	test/STIM_026.jpg	99
709.767	0.68	679.8	test	Phase1	test/STIM_027.jpg	100
713.994	0.544	544.0	test	Phase1	test/STIM_027.jpg	100
718.456	0.558	558.1	test	Phase1	test/STIM_027.jpg	100
722.372	1.007	1007.1	test	Phase1	test/STIM_028.jpg	99
727.092	1.037	1037.0	test	Phase1	test/STIM_028.jpg	100
731.756	0.949	948.7	test	Phase1	test/STIM_028.jpg	99
735.9	0.794	794.5	test	Phase1	test/STIM_029.jpg	100
740.218	1.113	1112.6	test	Phase1	test/STIM_029.jpg	99
744.22	1.127	1127.3	test	Phase1	test/STIM_029.jpg	100
748.754	1.294	1294.5	study	Phase2	study/STIM_000.jpg	99
753.165	1.286	1285.5	study	Phase2	study/STIM_000.jpg	99
758.414	1.053	1052.7	study	Phase2	study/STIM_000.jpg	99
762.642	1.08	1080.2	study	Phase2	study/STIM_001.jpg	99
766.81	1.091	1091.3	study	Phase2	study/STIM_001.jpg	99
771.347	0.566	565.7	study	Phase2	study/STIM_001.jpg	99
774.618	0.764	763.8	study	Phase2	study/STIM_002.jpg	100
778.801	0.847	846.8	study	Phase2	study/STIM_002.jpg	99
782.774	0.989	989.0	study	Phase2	study/STIM_002.jpg	99
786.074	0.632	631.5	study	Phase2	study/STIM_003.jpg	99
788.91	0.658	657.6	study	Phase2	study/STIM_003.jpg	99
793.382	1.01	1010.5	study	Phase2	study/STIM_003.jpg	100
798.144	1.135	1135.4	study	Phase2	study/STIM_004.jpg	99
803.105	0.823	823.3	study	Phase2	study/STIM_004.jpg	99
807.757	0.57	570.5	study	Phase2	study/STIM_004.jpg	99
811.057	0.87	869.5	study	Phase2	study/STIM_005.jpg	99
814.404	0.905	905.4	study	Phase2	study/STIM_005.jpg	100
818.567	0.888	888.5	study	Phase2	study/STIM_005.jpg	99
822.137	0.974	974.4	study	Phase2	study/STIM_006.jpg	100
826.673	0.97	969.8	study	Phase2	study/STIM_006.jpg	100
831.426	1.142	1142.3	study	Phase2	study/STIM_006.jpg	100
836.235	0.982	982.3	study	Phase2	study/STIM_007.jpg	99
841.318	1.214	1213.9	study	Phase2	study/STIM_007.jpg	100
846.404	0.542	541.9	study	Phase2	study/STIM_007.jpg	99
850.944	0.909	909.2	study	Phase2	study/STIM_008.jpg	100
854.178	0.86	860.0	study	Phase2	study/STIM_008.jpg	100
858.056	0.613	613.4	study	Phase2	study/STIM_008.jpg	100
862.441	0.871	871.0	study	Phase2	study/STIM_009.jpg	100
866.879	1.186	1186.1	study	Phase2	study/STIM_009.jpg	99
871.683	0.594	594.3	study	Phase2	study/STIM_009.jpg	100
875.393	0.776	776.0	study	Phase2	study/STIM_010.jpg	100
879.841	0.961	960.8	study	Phase2	study/STIM_010.jpg	99
884.738	0.978	978.1	study	Phase2	study/STIM_010.jpg	100
888.488	0.918	918.3	study	Phase2	study/STIM_011.jpg	99
893.216	1.272	1272.1	study	Phase2	study/STIM_011.jpg	99
896.811	0.893	892.8	study	Phase2	study/STIM_011.jpg	99
900.1	1.113	1113.1	study	Phase2	study/STIM_012.jpg	99
903.841	1.139	1138.8	study	Phase2	study/STIM_012.jpg	99
907.74	0.6	600.1	study	Phase2	study/STIM_012.jpg	99
912.211	0.974	974.4	study	Phase2	study/STIM_013.jpg	99
916.56	0.642	641.5	study	Phase2	study/STIM_013.jpg	100
919.532	1.101	1100.8	study	Phase2	study/STIM_013.jpg	99
923.293	1.176	1176.1	study	Phase2	study/STIM_014.jpg	100
927.217	1.012	1012.5	study	Phase2	study/STIM_014.jpg	99
931.095	0.642	641.5	study	Phase2	study/STIM_014.jpg	100
935.166	0.656	655.6	study	Phase2	study/STIM_015.jpg	99
939.007	1.21	1210.4	study	Phase2	study/STIM_015.jpg	99
942.9	1.098	1098.2	study	Phase2	study/STIM_015.jpg	100
946.344	1.326	1326.0	study	Phase2	study/STIM_016.jpg	99
951.407	1.114	1113.8	study	Phase2	study/STIM_016.jpg	99
955.335	1.06	1060.4	study	Phase2	study/STIM_016.jpg	100
960.44	0.864	864.4	study	Phase2	study/STIM_017.jpg	100
964.986	1.284	1283.9	study	Phase2	study/STIM_017.jpg	99
968.843	1.138	1137.6	study	Phase2	study/STIM_017.jpg	99
973.923	0.648	648.0	study	Phase2	study/STIM_018.jpg	100
977.263	1.008	1007.6	study	Phase2	study/STIM_018.jpg	99
981.985	0.757	756.6	study	Phase2	study/STIM_018.jpg	100
986.078	0.863	863.2	study	Phase2	study/STIM_019.jpg	100
990.318	1.032	1031.6	study	Phase2	study/STIM_019.jpg	99
995.384	0.575	575.4	study	Phase2	study/STIM_019.jpg	100
999.96	1.137	1136.9	study	Phase2	study/STIM_020.jpg	99
1003.32	1.139	1139.3	study	Phase2	study/STIM_020.jpg	99
1006.822	0.799	799.4	study	Phase2	study/STIM_020.jpg	99
1010.402	0.813	813.0	study	Phase2	study/STIM_021.jpg	99
1014.804	1.244	1244.1	study	Phase2	study/STIM_021.jpg	99
1020.056	0.582	582.0	study	Phase2	study/STIM_021.jpg	99
1023.597	0.693	693.4	study	Phase2	study/STIM_022.jpg	99
1027.069	1.019	1018.8	study	Phase2	study/STIM_022.jpg	100
1030.448	0.917	916.8	study	Phase2	study/STIM_022.jpg	99
1034.901	1.296	1295.5	study	Phase2	study/STIM_023.jpg	99
1039.119	0.755	754.9	study	Phase2	study/STIM_023.jpg	99
1042.572	0.826	826.4	study	Phase2	study/STIM_023.jpg	99
1046.3	0.92	919.9	study	Phase2	study/STIM_024.jpg	99
1049.656	1.206	1206.2	study	Phase2	study/STIM_024.jpg	99
1054.598	0.988	987.5	study	Phase2	study/STIM_024.jpg	99
1059.65	0.696	695.7	study	Phase2	study/STIM_025.jpg	100
1063.894	0.688	688.1	study	Phase2	study/STIM_025.jpg	99
1067.581	1.119	1118.7	study	Phase2	study/STIM_025.jpg	99
1071.795	0.934	934.2	study	Phase2	study/STIM_026.jpg	100
1076.005	0.942	941.8	study	Phase2	study/STIM_026.jpg	100
1080.62	0.919	918.8	study	Phase2	study/STIM_026.jpg	100
1084.776	1.346	1346.0	study	Phase2	study/STIM_027.jpg	100
1089.06	1.242	1242.0	study	Phase2	study/STIM_027.jpg	99
1092.657	0.71	710.2	study	Phase2	study/STIM_027.jpg	99
1096.159	1.179	1179.1	study	Phase2	study/STIM_028.jpg	99
1100.309	0.882	881.8	study	Phase2	study/STIM_028.jpg	99
1104.574	0.773	772.7	study	Phase2	study/STIM_028.jpg	100
1109.263	0.726	726.1	study	Phase2	study/STIM_029.jpg	99
1112.316	0.839	838.6	study	Phase2	study/STIM_029.jpg	100
1116.152	0.706	706.2	study	Phase2	study/STIM_029.jpg	100
1120.064	0.712	712.3	test	Phase2	test/STIM_000.jpg	99
1123.827	1.006	1006.2	test	Phase2	test/STIM_000.jpg	99
1128.935	0.688	688.2	test	Phase2	test/STIM_000.jpg	99
1132.312	0.987	987.3	test	Phase2	test/STIM_001.jpg	100
1136.448	0.595	595.2	test	Phase2	test/STIM_001.jpg	100
1139.421	0.782	781.9	test	Phase2	test/STIM_001.jpg	99
1144.052	1.06	1060.3	test	Phase2	test/STIM_002.jpg	99
1147.877	1.006	1005.5	test	Phase2	test/STIM_002.jpg	99
1151.729	0.961	960.7	test	Phase2	test/STIM_002.jpg	100
1155.33	0.958	958.4	test	Phase2	test/STIM_003.jpg	99
1159.698	0.9	899.5	test	Phase2	test/STIM_003.jpg	99
1164.639	0.705	704.6	test	Phase2	test/STIM_003.jpg	100
1168.55	0.57	570.1	test	Phase2	test/STIM_004.jpg	99
1171.955	0.738	738.5	test	Phase2	test/STIM_004.jpg	99
1175.151	1.148	1147.9	test	Phase2	test/STIM_004.jpg	100
1178.534	1.163	1162.9	test	Phase2	test/STIM_005.jpg	99
1182.013	0.95	950.3	test	Phase2	test/STIM_005.jpg	100
1185.383	0.649	648.7	test	Phase2	test/STIM_005.jpg	100
1189.074	0.879	879.2	test	Phase2	test/STIM_006.jpg	99
1193.784	0.819	819.2	test	Phase2	test/STIM_006.jpg	100
1196.699	0.606	605.6	test	Phase2	test/STIM_006.jpg	100
1201.29	0.883	882.7	test	Phase2	test/STIM_007.jpg	100
1206.159	0.588	588.2	test	Phase2	test/STIM_007.jpg	99
1209.528	1.125	1124.7	test	Phase2	test/STIM_007.jpg	99
1213.009	0.553	553.3	test	Phase2	test/STIM_008.jpg	99
1216.63	0.642	642.4	test	Phase2	test/STIM_008.jpg	99
1221.227	1.012	1011.8	test	Phase2	test/STIM_008.jpg	100
1226.227	0.692	691.7	test	Phase2	test/STIM_009.jpg	100
1229.018	0.739	738.9	test	Phase2	test/STIM_009.jpg	99
1232.66	0.762	761.7	test	Phase2	test/STIM_009.jpg	100
1236.673	0.999	999.4	test	Phase2	test/STIM_010.jpg	99
1241.616	0.556	555.7	test	Phase2	test/STIM_010.jpg	100
1245.66	0.893	892.8	test	Phase2	test/STIM_010.jpg	100
1249.013	0.573	573.4	test	Phase2	test/STIM_011.jpg	99
1252.515	1.154	1153.5	test	Phase2	test/STIM_011.jpg	99
1256.315	1.156	1155.5	test	Phase2	test/STIM_011.jpg	99
1261.121	0.958	957.7	test	Phase2	test/STIM_012.jpg	99
1265.224	0.651	650.7	test	Phase2	test/STIM_012.jpg	99
1268.965	1.067	1067.3	test	Phase2	test/STIM_012.jpg	100
1273.349	1.158	1157.8	test	Phase2	test/STIM_013.jpg	100
1278.494	0.805	804.7	test	Phase2	test/STIM_013.jpg	99
1281.422	0.666	666.0	test	Phase2	test/STIM_013.jpg	99
1286.162	0.591	591.0	test	Phase2	test/STIM_014.jpg	100
1289.86	0.585	584.6	test	Phase2	test/STIM_014.jpg	99
1294.501	0.545	545.0	test	Phase2	test/STIM_014.jpg	99
1298.612	1.133	1133.3	test	Phase2	test/STIM_015.jpg	100
1302.861	1.052	1051.8	test	Phase2	test/STIM_015.jpg	100
1307.987	1.102	1101.7	test	Phase2	test/STIM_015.jpg	99
1311.412	0.584	583.7	test	Phase2	test/STIM_016.jpg	100
1315.054	0.623	622.9	test	Phase2	test/STIM_016.jpg	99
1318.949	1.008	1007.9	test	Phase2	test/STIM_016.jpg	100
1322.685	0.662	661.5	test	Phase2	test/STIM_017.jpg	99
1326.492	0.919	919.4	test	Phase2	test/STIM_017.jpg	100
1329.719	1.007	1006.6	test	Phase2	test/STIM_017.jpg	100
1333.585	0.742	742.4	test	Phase2	test/STIM_018.jpg	100
1338.253	1.02	1019.6	test	Phase2	test/STIM_018.jpg	99
1343.216	0.759	758.9	test	Phase2	test/STIM_018.jpg	100
1347.928	1.013	1013.3	test	Phase2	test/STIM_019.jpg	99
1351.954	0.901	901.3	test	Phase2	test/STIM_019.jpg	100
1356.845	0.641	641.3	test	Phase2	test/STIM_019.jpg	100
1360.345	1.128	1128.2	test	Phase2	test/STIM_020.jpg	99
1364.608	0.586	586.0	test	Phase2	test/STIM_020.jpg	99
1367.977	0.812	812.0	test	Phase2	test/STIM_020.jpg	100
1372.339	1.164	1163.8	test	Phase2	test/STIM_021.jpg	100
1377.313	0.92	919.7	test	Phase2	test/STIM_021.jpg	99
1380.493	0.573	572.7	test	Phase2	test/STIM_021.jpg	99
1384.7	0.638	637.8	test	Phase2	test/STIM_022.jpg	99
1387.531	0.722	722.5	test	Phase2	test/STIM_022.jpg	100
1391.305	0.707	707.1	test	Phase2	test/STIM_022.jpg	100
1394.701	0.628	628.0	test	Phase2	test/STIM_023.jpg	99
1399.364	0.627	626.6	test	Phase2	test/STIM_023.jpg	100
1403.644	0.714	714.0	test	Phase2	test/STIM_023.jpg	99
1407.923	0.937	937.1	test	Phase2	test/STIM_024.jpg	99
1412.877	0.602	601.9	test	Phase2	test/STIM_024.jpg	99
1416.091	1.128	1128.5	test	Phase2	test/STIM_024.jpg	100
1419.442	1.005	1005.4	test	Phase2	test/STIM_025.jpg	99
1424.074	0.607	606.9	test	Phase2	test/STIM_025.jpg	99
1427.891	0.752	751.5	test	Phase2	test/STIM_025.jpg	99
1431.753	1.103	1102.7	test	Phase2	test/STIM_026.jpg	99
1435.626	0.658	658.1	test	Phase2	test/STIM_026.jpg	100
1439.384	0.625	624.8	test	Phase2	test/STIM_026.jpg	100
1443.36	0.64	639.6	test	Phase2	test/STIM_027.jpg	100
1447.445	1.059	1059.0	test	Phase2	test/STIM_027.jpg	100
1452.478	1.071	1070.8	test	Phase2	test/STIM_027.jpg	99
1457.483	0.787	787.4	test	Phase2	test/STIM_028.jpg	99
1461.61	1.149	1148.7	test	Phase2	test/STIM_028.jpg	99
1466.186	1.047	1046.6	test	Phase2	test/STIM_028.jpg	99
1469.661	0.979	979.4	test	Phase2	test/STIM_029.jpg	100
1474.533	0.605	605.0	test	Phase2	test/STIM_029.jpg	100
1478.524	0.632	632.3	test	Phase2	test/STIM_029.jpg	99
1482.96	0.529	529.2	study	Phase3	study/STIM_000.jpg	99
1486.59	0.88	879.5	study	Phase3	study/STIM_000.jpg	99
1490.419	1.043	1043.4	study	Phase3	study/STIM_000.jpg	99
1495.499	0.949	948.9	study	Phase3	study/STIM_001.jpg	100
1500.315	0.72	719.9	study	Phase3	study/STIM_001.jpg	99
1503.262	0.684	683.5	study	Phase3	study/STIM_001.jpg	100
1507.97	0.872	872.4	study	Phase3	study/STIM_002.jpg	99
1512.4	1.014	1013.9	study	Phase3	study/STIM_002.jpg	100
1516.565	0.92	919.5	study	Phase3	study/STIM_002.jpg	100
1519.775	0.994	993.9	study	Phase3	study/STIM_003.jpg	100
1524.423	0.54	539.9	study	Phase3	study/STIM_003.jpg	100
1527.831	0.646	646.1	study	Phase3	study/STIM_003.jpg	100
1530.735	0.579	578.6	study	Phase3	study/STIM_004.jpg	99
1533.977	0.85	850.0	study	Phase3	study/STIM_004.jpg	100
1537.688	1.05	1050.0	study	Phase3	study/STIM_004.jpg	99
1541.834	1.011	1011.3	study	Phase3	study/STIM_005.jpg	100
1545.327	0.536	536.0	study	Phase3	study/STIM_005.jpg	99
1549.24	0.987	987.3	study	Phase3	study/STIM_005.jpg	100
1552.839	0.814	813.9	study	Phase3	study/STIM_006.jpg	100
1556.323	0.653	653.3	study	Phase3	study/STIM_006.jpg	100
1560.928	0.672	672.5	study	Phase3	study/STIM_006.jpg	99
1565.202	0.707	707.0	study	Phase3	study/STIM_007.jpg	100
1569.367	0.601	601.0	study	Phase3	study/STIM_007.jpg	99
1572.768	0.833	833.1	study	Phase3	study/STIM_007.jpg	99
1577.494	0.845	844.6	study	Phase3	study/STIM_008.jpg	99
1582.278	0.998	997.9	study	Phase3	study/STIM_008.jpg	100
1585.687	0.529	528.6	study	Phase3	study/STIM_008.jpg	99
1589.629	0.735	735.4	study	Phase3	study/STIM_009.jpg	99
1593.169	0.88	879.7	study	Phase3	study/STIM_009.jpg	99
1597.351	1.094	1094.1	study	Phase3	study/STIM_009.jpg	99
1601.855	0.613	613.1	study	Phase3	study/STIM_010.jpg	100
1604.924	0.843	843.4	study	Phase3	study/STIM_010.jpg	100
1609.155	0.638	638.2	study	Phase3	study/STIM_010.jpg	99
1613.322	0.648	647.9	study	Phase3	study/STIM_011.jpg	99
1616.233	0.811	811.1	study	Phase3	study/STIM_011.jpg	100
1620.806	0.991	991.0	study	Phase3	study/STIM_011.jpg	100
1624.489	1.119	1119.4	study	Phase3	study/STIM_012.jpg	100
1628.809	0.859	858.7	study	Phase3	study/STIM_012.jpg	100
1633.164	1.086	1086.2	study	Phase3	study/STIM_012.jpg	100
1636.995	0.95	949.9	study	Phase3	study/STIM_013.jpg	99
1641.897	0.772	771.7	study	Phase3	study/STIM_013.jpg	99
1644.909	0.808	807.8	study	Phase3	study/STIM_013.jpg	99
1648.084	1.05	1049.7	study	Phase3	study/STIM_014.jpg	100
1651.547	0.91	910.5	study	Phase3	study/STIM_014.jpg	99
1655.051	0.854	853.7	study	Phase3	study/STIM_014.jpg	99
1658.077	0.864	863.8	study	Phase3	study/STIM_015.jpg	99
1662.165	0.823	823.1	study	Phase3	study/STIM_015.jpg	100
1665.254	0.796	795.6	study	Phase3	study/STIM_015.jpg	99
1669.257	0.971	970.9	study	Phase3	study/STIM_016.jpg	99
1673.239	0.594	594.4	study	Phase3	study/STIM_016.jpg	100
1676.218	0.581	581.4	study	Phase3	study/STIM_016.jpg	100
1680.817	0.611	610.8	study	Phase3	study/STIM_017.jpg	99
1683.616	1.11	1110.0	study	Phase3	study/STIM_017.jpg	99
1688.535	0.82	820.5	study	Phase3	study/STIM_017.jpg	100
1692.401	0.793	793.0	study	Phase3	study/STIM_018.jpg	99
1696.717	1.053	1053.1	study	Phase3	study/STIM_018.jpg	100
1701.695	0.646	646.4	study	Phase3	study/STIM_018.jpg	100
1704.884	0.567	567.1	study	Phase3	study/STIM_019.jpg	100
1708.304	0.881	881.0	study	Phase3	study/STIM_019.jpg	100
1712.442	0.723	723.2	study	Phase3	study/STIM_019.jpg	99
1716.616	0.946	945.9	study	Phase3	study/STIM_020.jpg	99
1720.193	1.026	1026.4	study	Phase3	study/STIM_020.jpg	100
1723.43	0.911	910.7	study	Phase3	study/STIM_020.jpg	100
1726.957	1.047	1047.1	study	Phase3	study/STIM_021.jpg	100
1731.805	0.785	785.3	study	Phase3	study/STIM_021.jpg	100
1735.285	0.601	601.4	study	Phase3	study/STIM_021.jpg	100
1739.805	0.863	863.1	study	Phase3	study/STIM_022.jpg	99
1743.16	0.913	913.4	study	Phase3	study/STIM_022.jpg	99
1747.726	0.992	991.6	study	Phase3	study/STIM_022.jpg	100
1751.095	0.748	748.5	study	Phase3	study/STIM_023.jpg	100
1753.964	1.006	1005.5	study	Phase3	study/STIM_023.jpg	100
1758.633	0.582	581.6	study	Phase3	study/STIM_023.jpg	99
1762.583	0.876	876.2	study	Phase3	study/STIM_024.jpg	99
1766.915	0.844	844.5	study	Phase3	study/STIM_024.jpg	99
1771.517	1.037	1037.2	study	Phase3	study/STIM_024.jpg	100
1774.697	0.841	840.9	study	Phase3	study/STIM_025.jpg	100
1777.676	0.774	774.3	study	Phase3	study/STIM_025.jpg	99
1781.307	0.948	948.4	study	Phase3	study/STIM_025.jpg	100
1786.295	0.889	889.3	study	Phase3	study/STIM_026.jpg	99
1789.87	0.584	584.1	study	Phase3	study/STIM_026.jpg	99
1793.491	0.95	950.2	study	Phase3	study/STIM_026.jpg	100
1796.953	0.786	786.0	study	Phase3	study/STIM_027.jpg	100
1800.994	0.866	865.7	study	Phase3	study/STIM_027.jpg	99
1804.156	0.863	862.9	study	Phase3	study/STIM_027.jpg	99
1808.568	1.007	1006.7	study	Phase3	study/STIM_028.jpg	100
1812.311	0.776	776.4	study	Phase3	study/STIM_028.jpg	99
1815.824	1.087	1087.1	study	Phase3	study/STIM_028.jpg	99
1820.139	0.613	613.4	study	Phase3	study/STIM_029.jpg	99
1822.89	0.771	771.3	study	Phase3	study/STIM_029.jpg	100
1826.547	0.555	555.0	study	Phase3	study/STIM_029.jpg	100
1830.743	0.714	714.2	test	Phase3	test/STIM_000.jpg	100
1833.561	1.098	1097.7	test	Phase3	test/STIM_000.jpg	100
1837.961	0.779	779.2	test	Phase3	test/STIM_000.jpg	100
1841.633	0.891	891.3	test	Phase3	test/STIM_001.jpg	100
1845.53	0.706	705.6	test	Phase3	test/STIM_001.jpg	99
1850.247	1.067	1067.2	test	Phase3	test/STIM_001.jpg	99
1854.741	0.558	558.3	test	Phase3	test/STIM_002.jpg	99
1857.829	0.68	679.8	test	Phase3	test/STIM_002.jpg	99
1860.873	0.86	859.6	test	Phase3	test/STIM_002.jpg	99
1864.508	0.871	871.0	test	Phase3	test/STIM_003.jpg	100
1868.706	0.974	974.1	test	Phase3	test/STIM_003.jpg	99
1873.602	1.093	1092.8	test	Phase3	test/STIM_003.jpg	100
1877.616	0.654	654.0	test	Phase3	test/STIM_004.jpg	99
1880.545	0.963	962.6	test	Phase3	test/STIM_004.jpg	99
1885.2	0.962	962.2	test	Phase3	test/STIM_004.jpg	100
1890.164	0.612	612.3	test	Phase3	test/STIM_005.jpg	100
1894.428	0.541	541.4	test	Phase3	test/STIM_005.jpg	100
1898.958	0.72	719.9	test	Phase3	test/STIM_005.jpg	100
1902.083	0.931	930.9	test	Phase3	test/STIM_006.jpg	99
1906.636	0.648	648.4	test	Phase3	test/STIM_006.jpg	99
1910.887	0.864	864.4	test	Phase3	test/STIM_006.jpg	100
1914.048	0.564	564.4	test	Phase3	test/STIM_007.jpg	99
1918.286	0.592	592.1	test	Phase3	test/STIM_007.jpg	100
1921.689	0.826	826.0	test	Phase3	test/STIM_007.jpg	99
1925.768	0.75	750.2	test	Phase3	test/STIM_008.jpg	100
1929.346	0.685	685.0	test	Phase3	test/STIM_008.jpg	99
1933.82	1.142	1142.1	test	Phase3	test/STIM_008.jpg	100
1938.473	0.54	540.3	test	Phase3	test/STIM_009.jpg	100
1942.238	0.733	732.8	test	Phase3	test/STIM_009.jpg	100
1945.352	1.099	1098.8	test	Phase3	test/STIM_009.jpg	100
1948.886	0.677	677.2	test	Phase3	test/STIM_010.jpg	100
1951.717	0.614	614.2	test	Phase3	test/STIM_010.jpg	100
1955.984	0.685	685.0	test	Phase3	test/STIM_010.jpg	99
1960.355	0.737	737.0	test	Phase3	test/STIM_011.jpg	99
1964.544	1.02	1020.0	test	Phase3	test/STIM_011.jpg	99
1968.67	1.021	1021.2	test	Phase3	test/STIM_011.jpg	100
1973.147	1.068	1067.7	test	Phase3	test/STIM_012.jpg	100
1978.272	0.808	808.4	test	Phase3	test/STIM_012.jpg	100
1982.086	1.044	1044.5	test	Phase3	test/STIM_012.jpg	100
1985.707	0.574	573.7	test	Phase3	test/STIM_013.jpg	99
1988.704	1.02	1019.7	test	Phase3	test/STIM_013.jpg	100
1993.21	0.797	797.2	test	Phase3	test/STIM_013.jpg	99
1997.753	0.586	585.5	test	Phase3	test/STIM_014.jpg	100
2000.947	0.74	739.7	test	Phase3	test/STIM_014.jpg	100
2004.231	0.613	613.1	test	Phase3	test/STIM_014.jpg	99
2007.232	0.688	687.8	test	Phase3	test/STIM_015.jpg	99
2010.108	0.58	580.4	test	Phase3	test/STIM_015.jpg	100
2012.884	0.791	790.8	test	Phase3	test/STIM_015.jpg	100
2017.077	0.791	791.0	test	Phase3	test/STIM_016.jpg	100
2021.712	0.716	715.6	test	Phase3	test/STIM_016.jpg	99
2025.008	0.833	832.7	test	Phase3	test/STIM_016.jpg	99
2029.093	0.928	928.4	test	Phase3	test/STIM_017.jpg	100
2032.276	1.022	1021.8	test	Phase3	test/STIM_017.jpg	99
2037.154	0.871	871.3	test	Phase3	test/STIM_017.jpg	99
2041.565	0.724	724.2	test	Phase3	test/STIM_018.jpg	100
2046.119	0.725	725.0	test	Phase3	test/STIM_018.jpg	99
2049.77	0.787	786.9	test	Phase3	test/STIM_018.jpg	99
2053.235	0.785	785.4	test	Phase3	test/STIM_019.jpg	99
2056.859	0.884	883.7	test	Phase3	test/STIM_019.jpg	100
2060.931	0.646	645.7	test	Phase3	test/STIM_019.jpg	100
2064.336	1.064	1064.5	test	Phase3	test/STIM_020.jpg	100
2067.729	0.814	814.5	test	Phase3	test/STIM_020.jpg	99
2071.478	0.728	728.0	test	Phase3	test/STIM_020.jpg	100
2075.941	1.147	1147.2	test	Phase3	test/STIM_021.jpg	100
2080.865	0.981	980.7	test	Phase3	test/STIM_021.jpg	100
2084.472	1.13	1130.0	test	Phase3	test/STIM_021.jpg	99
2088.844	0.688	687.8	test	Phase3	test/STIM_022.jpg	100
2093.421	0.857	856.7	test	Phase3	test/STIM_022.jpg	100
2096.967	1.077	1076.8	test	Phase3	test/STIM_022.jpg	100
2101.794	0.935	934.8	test	Phase3	test/STIM_023.jpg	100
2105.284	0.637	636.7	test	Phase3	test/STIM_023.jpg	99
2108.813	1.002	1001.9	test	Phase3	test/STIM_023.jpg	99
2113.228	0.711	711.4	test	Phase3	test/STIM_024.jpg	100
2116.912	1.05	1049.6	test	Phase3	test/STIM_024.jpg	99
2120.308	1.074	1073.8	test	Phase3	test/STIM_024.jpg	99
2124.085	0.93	929.9	test	Phase3	test/STIM_025.jpg	100
2129.015	0.68	679.9	test	Phase3	test/STIM_025.jpg	99
2133.501	0.611	611.2	test	Phase3	test/STIM_025.jpg	100
2136.704	0.976	976.0	test	Phase3	test/STIM_026.jpg	100
2140.26	0.655	654.6	test	Phase3	test/STIM_026.jpg	99
2144.441	0.563	562.6	test	Phase3	test/STIM_026.jpg	100
2147.913	1.074	1074.5	test	Phase3	test/STIM_027.jpg	99
2151.717	0.742	742.4	test	Phase3	test/STIM_027.jpg	99
2156.341	1.119	1119.3	test	Phase3	test/STIM_027.jpg	100
2161.269	0.9	900.5	test	Phase3	test/STIM_028.jpg	99
2164.465	0.734	733.7	test	Phase3	test/STIM_028.jpg	100
2168.868	0.563	563.1	test	Phase3	test/STIM_028.jpg	99
2172.19	1.067	1067.1	test	Phase3	test/STIM_029.jpg	99
2175.749	0.955	955.2	test	Phase3	test/STIM_029.jpg	99
2180.473	1.044	1043.8	test	Phase3	test/STIM_029.jpg	100
