onset	duration	response_time_ms	trial_type	learning_stage	stimulus	response_port
0.0	2.424	2423.7	regulate	Run1	regulate/STIM_000.jpg	99
6.091	2.726	2725.5	regulate	Run1	regulate/STIM_000.jpg	99
11.537	1.704	1704.3	regulate	Run1	regulate/STIM_000.jpg	99
15.671	1.112	1112.1	regulate	Run1	regulate/STIM_000.jpg	100
20.733	2.322	2321.7	regulate	Run1	regulate/STIM_001.jpg	99
27.044	1.529	1528.7	regulate	Run1	regulate/STIM_001.jpg	100
31.877	2.493	2493.4	regulate	Run1	regulate/STIM_001.jpg	99
38.022	2.073	2072.6	regulate	Run1	regulate/STIM_001.jpg	100
44.0	2.761	2761.1	regulate	Run1	regulate/STIM_002.jpg	99
49.028	2.596	2596.4	regulate	Run1	regulate/STIM_002.jpg	99
53.782	2.302	2302.5	regulate	Run1	regulate/STIM_002.jpg	99
59.129	1.57	1570.3	regulate	Run1	regulate/STIM_002.jpg	100
63.502	1.626	1626.0	regulate	Run1	regulate/STIM_003.jpg	99
68.539	1.912	1911.9	regulate	Run1	regulate/STIM_003.jpg	99
72.57	1.801	1801.2	regulate	Run1	regulate/STIM_003.jpg	100
77.404	1.891	1890.6	regulate	Run1	regulate/STIM_003.jpg	100
82.526	2.086	2085.8	regulate	Run1	regulate/STIM_004.jpg	100
88.506	2.469	2469.2	regulate	Run1	regulate/STIM_004.jpg	100
94.247	1.503	1503.2	regulate	Run1	regulate/STIM_004.jpg	100
98.211	2.421	2420.6	regulate	Run1	regulate/STIM_004.jpg	99
102.962	1.508	1508.1	regulate	Run1	regulate/STIM_005.jpg	99
107.081	2.816	2815.7	regulate	Run1	regulate/STIM_005.jpg	100
111.939	1.834	1834.4	regulate	Run1	regulate/STIM_005.jpg	99
116.112	1.275	1274.6	regulate	Run1	regulate/STIM_005.jpg	99
120.766	3.02	3019.6	regulate	Run1	regulate/STIM_006.jpg	100
126.144	2.237	2237.3	regulate	Run1	regulate/STIM_006.jpg	100
132.158	1.544	1543.8	regulate	Run1	regulate/STIM_006.jpg	99
136.06	2.446	2445.6	regulate	Run1	regulate/STIM_006.jpg	99
141.892	1.316	1316.2	regulate	Run1	regulate/STIM_007.jpg	99
146.487	1.357	1356.8	regulate	Run1	regulate/STIM_007.jpg	99
151.119	2.037	2037.4	regulate	Run1	regulate/STIM_007.jpg	99
155.751	2.296	2295.9	regulate	Run1	regulate/STIM_007.jpg	100
161.4	2.287	2286.9	regulate	Run1	regulate/STIM_008.jpg	99
165.92	1.979	1978.7	regulate	Run1	regulate/STIM_008.jpg	100
169.998	1.396	1395.7	regulate	Run1	regulate/STIM_008.jpg	100
175.332	2.263	2263.2	regulate	Run1	regulate/STIM_008.jpg	99
179.865	2.734	2733.9	regulate	Run1	regulate/STIM_009.jpg	100
185.489	1.698	1698.1	regulate	Run1	regulate/STIM_009.jpg	100
189.651	1.893	1892.9	regulate	Run1	regulate/STIM_009.jpg	100
194.072	2.556	2555.7	regulate	Run1	regulate/STIM_009.jpg	100
200.406	1.613	1612.6	regulate	Run1	regulate/STIM_010.jpg	99
204.202	2.005	2004.5	regulate	Run1	regulate/STIM_010.jpg	100
208.236	1.516	1515.7	regulate	Run1	regulate/STIM_010.jpg	100
212.523	1.461	1461.4	regulate	Run1	regulate/STIM_010.jpg	100
216.885	1.446	1446.3	regulate	Run1	regulate/STIM_011.jpg	100
221.057	1.871	1871.1	regulate	Run1	regulate/STIM_011.jpg	99
225.976	2.44	2440.3	regulate	Run1	regulate/STIM_011.jpg	99
232.415	1.135	1135.0	regulate	Run1	regulate/STIM_011.jpg	100
236.704	1.784	1783.7	regulate	Run1	regulate/STIM_012.jpg	100
242.084	2.754	2754.3	regulate	Run1	regulate/STIM_012.jpg	99
247.745	1.676	1675.6	regulate	Run1	regulate/STIM_012.jpg	99
251.895	2.023	2023.0	regulate	Run1	regulate/STIM_012.jpg	100
257.212	1.747	1747.3	regulate	Run1	regulate/STIM_013.jpg	100
262.175	1.858	1858.2	regulate	Run1	regulate/STIM_013.jpg	100
266.116	1.885	1884.6	regulate	Run1	regulate/STIM_013.jpg	99
270.244	2.551	2550.8	regulate	Run1	regulate/STIM_013.jpg	100
275.785	2.42	2419.9	regulate	Run1	regulate/STIM_014.jpg	99
281.3	2.544	2543.7	regulate	Run1	regulate/STIM_014.jpg	100
287.444	1.778	1777.9	regulate	Run1	regulate/STIM_014.jpg	100
292.024	1.444	1444.0	regulate	Run1	regulate/STIM_014.jpg	99
296.57	2.547	2547.4	regulate	Run1	regulate/STIM_015.jpg	100
302.141	2.637	2636.8	regulate	Run1	regulate/STIM_015.jpg	100
307.051	2.305	2305.3	regulate	Run1	regulate/STIM_015.jpg	99
313.322	1.621	1621.3	regulate	Run1	regulate/STIM_015.jpg	99
317.884	1.564	1563.7	regulate	Run1	regulate/STIM_016.jpg	100
322.17	1.66	1659.8	regulate	Run1	regulate/STIM_016.jpg	100
327.583	2.363	2363.3	regulate	Run1	regulate/STIM_016.jpg	99
333.299	2.223	2222.6	regulate	Run1	regulate/STIM_016.jpg	99
337.762	2.777	2776.9	regulate	Run1	regulate/STIM_017.jpg	99
344.391	2.062	2062.4	regulate	Run1	regulate/STIM_017.jpg	99
350.19	2.37	2369.7	regulate	Run1	regulate/STIM_017.jpg	99
356.021	1.971	1971.0	regulate	Run1	regulate/STIM_017.jpg	99
360.111	2.298	2298.5	regulate	Run1	regulate/STIM_018.jpg	99
365.217	1.96	1960.5	regulate	Run1	regulate/STIM_018.jpg	100
369.477	1.489	1489.3	regulate	Run1	regulate/STIM_018.jpg	99
372.97	1.446	1445.6	regulate	Run1	regulate/STIM_018.jpg	100
377.623	2.801	2800.7	regulate	Run1	regulate/STIM_019.jpg	99
383.415	2.357	2357.4	regulate	Run1	regulate/STIM_019.jpg	99
389.199	1.206	1205.8	regulate	Run1	regulate/STIM_019.jpg	100
393.725	2.36	2360.1	regulate	Run1	regulate/STIM_019.jpg	100
398.524	2.4	2399.7	regulate	Run1	regulate/STIM_020.jpg	100
404.768	1.804	1803.7	regulate	Run1	regulate/STIM_020.jpg	99
409.786	1.58	1580.4	regulate	Run1	regulate/STIM_020.jpg	100
414.243	2.145	2144.9	regulate	Run1	regulate/STIM_020.jpg	99
419.109	2.9	2900.0	regulate	Run1	regulate/STIM_021.jpg	100
425.811	2.871	2871.3	regulate	Run1	regulate/STIM_021.jpg	100
432.143	1.639	1639.1	regulate	Run1	regulate/STIM_021.jpg	100
436.076	1.905	1905.4	regulate	Run1	regulate/STIM_021.jpg	100
440.983	2.544	2543.7	regulate	Run1	regulate/STIM_022.jpg	100
445.747	1.455	1454.7	regulate	Run1	regulate/STIM_022.jpg	99
449.884	2.069	2069.3	regulate	Run1	regulate/STIM_022.jpg	99
454.617	1.308	1308.0	regulate	Run1	regulate/STIM_022.jpg	100
458.062	1.746	1746.1	regulate	Run1	regulate/STIM_023.jpg	100
462.432	1.539	1538.6	regulate	Run1	regulate/STIM_023.jpg	99
467.134	2.628	2628.1	regulate	Run1	regulate/STIM_023.jpg	99
473.048	1.25	1249.9	regulate	Run1	regulate/STIM_023.jpg	100
477.971	1.371	1371.4	regulate	Run1	regulate/STIM_024.jpg	100
481.781	2.738	2738.2	regulate	Run1	regulate/STIM_024.jpg	99
488.439	2.032	2031.6	regulate	Run1	regulate/STIM_024.jpg	100
493.622	2.268	2268.3	regulate	Run1	regulate/STIM_024.jpg	100
499.057	2.514	2514.4	regulate	Run1	regulate/STIM_025.jpg	99
505.353	1.278	1277.7	regulate	Run1	regulate/STIM_025.jpg	99
508.735	1.748	1748.4	regulate	Run1	regulate/STIM_025.jpg	99
514.268	2.493	2493.3	regulate	Run1	regulate/STIM_025.jpg	99
520.039	2.117	2116.6	regulate	Run1	regulate/STIM_026.jpg	100
524.564	1.687	1686.7	regulate	Run1	regulate/STIM_026.jpg	99
529.973	1.676	1675.8	regulate	Run1	regulate/STIM_026.jpg	100
535.384	1.178	1177.8	regulate	Run1	regulate/STIM_026.jpg	99
539.094	2.443	2443.1	regulate	Run1	regulate/STIM_027.jpg	100
543.863	2.228	2228.4	regulate	Run1	regulate/STIM_027.jpg	99
549.906	1.374	1373.8	regulate	Run1	regulate/STIM_027.jpg	99
553.506	2.401	2401.2	regulate	Run1	regulate/STIM_027.jpg	99
559.742	2.26	2260.5	regulate	Run1	regulate/STIM_028.jpg	100
565.989	2.575	2575.3	regulate	Run1	regulate/STIM_028.jpg	100
572.275	1.977	1976.9	regulate	Run1	regulate/STIM_028.jpg	99
578.183	2.456	2456.1	regulate	Run1	regulate/STIM_028.jpg	99
583.877	2.658	2658.3	regulate	Run1	regulate/STIM_029.jpg	99
588.838	2.017	2017.4	regulate	Run1	regulate/STIM_029.jpg	100
593.619	2.351	2351.1	regulate	Run1	regulate/STIM_029.jpg	100
598.937	2.48	2479.5	regulate	Run1	regulate/STIM_029.jpg	99
604.792	1.268	1267.5	observe	Run1	observe/STIM_000.jpg	100
608.35	1.221	1220.7	observe	Run1	observe/STIM_000.jpg	100
611.581	1.194	1194.4	observe	Run1	observe/STIM_000.jpg	100
615.531	1.043	1043.1	observe	Run1	observe/STIM_000.jpg	100
618.796	0.863	863.0	observe	Run1	observe/STIM_001.jpg	100
621.888	1.358	1358.5	observe	Run1	observe/STIM_001.jpg	99
625.387	1.21	1209.5	observe	Run1	observe/STIM_001.jpg	100
628.8	1.116	1115.7	observe	Run1	observe/STIM_001.jpg	99
632.735	0.968	968.0	observe	Run1	observe/STIM_002.jpg	99
636.551	1.329	1328.9	observe	Run1	observe/STIM_002.jpg	100
640.258	0.981	981.0	observe	Run1	observe/STIM_002.jpg	99
644.759	0.981	981.4	observe	Run1	observe/STIM_002.jpg	100
649.375	1.272	1271.7	observe	Run1	observe/STIM_003.jpg	100
653.471	1.305	1304.8	observe	Run1	observe/STIM_003.jpg	99
657.879	0.906	905.6	observe	Run1	observe/STIM_003.jpg	99
661.223	1.275	1274.6	observe	Run1	observe/STIM_003.jpg	99
665.219	0.696	696.2	observe	Run1	observe/STIM_004.jpg	99
669.666	1.161	1161.1	observe	Run1	observe/STIM_004.jpg	99
674.761	1.144	1143.8	observe	Run1	observe/STIM_004.jpg	99
678.434	1.221	1220.9	observe	Run1	observe/STIM_004.jpg	100
682.13	0.708	708.2	observe	Run1	observe/STIM_005.jpg	99
685.006	1.091	1090.9	observe	Run1	observe/STIM_005.jpg	100
689.876	1.23	1229.7	observe	Run1	observe/STIM_005.jpg	100
693.974	0.803	803.3	observe	Run1	observe/STIM_005.jpg	99
697.415	0.945	944.7	observe	Run1	observe/STIM_006.jpg	100
701.944	1.209	1209.1	observe	Run1	observe/STIM_006.jpg	99
706.37	0.795	795.1	observe	Run1	observe/STIM_006.jpg	99
709.365	1.341	1341.1	observe	Run1	observe/STIM_006.jpg	100
712.833	0.711	710.9	observe	Run1	observe/STIM_007.jpg	99
716.277	1.275	1275.4	observe	Run1	observe/STIM_007.jpg	100
719.894	1.097	1097.4	observe	Run1	observe/STIM_007.jpg	100
724.884	0.957	957.2	observe	Run1	observe/STIM_007.jpg	99
729.303	0.982	982.5	observe	Run1	observe/STIM_008.jpg	100
733.648	0.861	860.7	observe	Run1	observe/STIM_008.jpg	100
736.922	1.222	1222.0	observe	Run1	observe/STIM_008.jpg	99
741.588	1.372	1371.9	observe	Run1	observe/STIM_008.jpg	100
745.839	1.212	1212.0	observe	Run1	observe/STIM_009.jpg	100
749.964	1.057	1056.9	observe	Run1	observe/STIM_009.jpg	100
753.11	0.817	817.2	observe	Run1	observe/STIM_009.jpg	100
757.788	1.261	1261.2	observe	Run1	observe/STIM_009.jpg	99
761.583	0.721	721.1	observe	Run1	observe/STIM_010.jpg	100
764.584	0.879	879.2	observe	Run1	observe/STIM_010.jpg	100
768.802	1.208	1208.5	observe	Run1	observe/STIM_010.jpg	99
773.27	1.037	1037.1	observe	Run1	observe/STIM_010.jpg	100
776.908	1.339	1338.9	observe	Run1	observe/STIM_011.jpg	100
780.5	0.824	823.5	observe	Run1	observe/STIM_011.jpg	100
785.116	0.738	738.3	observe	Run1	observe/STIM_011.jpg	100
789.62	1.32	1320.2	observe	Run1	observe/STIM_011.jpg	100
793.001	0.862	861.7	observe	Run1	observe/STIM_012.jpg	99
797.364	1.061	1060.9	observe	Run1	observe/STIM_012.jpg	100
800.955	0.759	759.1	observe	Run1	observe/STIM_012.jpg	100
804.693	1.044	1044.1	observe	Run1	observe/STIM_012.jpg	99
808.411	1.37	1370.3	observe	Run1	observe/STIM_013.jpg	99
813.312	0.952	952.0	observe	Run1	observe/STIM_013.jpg	99
817.364	1.309	1309.3	observe	Run1	observe/STIM_013.jpg	100
821.095	1.212	1212.3	observe	Run1	observe/STIM_013.jpg	100
824.639	1.347	1347.0	observe	Run1	observe/STIM_014.jpg	100
828.856	0.896	896.4	observe	Run1	observe/STIM_014.jpg	99
832.379	1.239	1239.1	observe	Run1	observe/STIM_014.jpg	100
836.807	1.161	1161.3	observe	Run1	observe/STIM_014.jpg	100
840.877	0.749	748.8	observe	Run1	observe/STIM_015.jpg	99
845.099	1.218	1217.6	observe	Run1	observe/STIM_015.jpg	100
849.779	0.89	890.4	observe	Run1	observe/STIM_015.jpg	100
853.972	1.319	1318.6	observe	Run1	observe/STIM_015.jpg	100
858.819	0.986	985.9	observe	Run1	observe/STIM_016.jpg	100
863.239	0.72	719.8	observe	Run1	observe/STIM_016.jpg	99
866.369	0.832	831.9	observe	Run1	observe/STIM_016.jpg	99
869.718	0.847	846.7	observe	Run1	observe/STIM_016.jpg	99
874.315	0.833	833.1	observe	Run1	observe/STIM_017.jpg	99
878.772	1.062	1061.9	observe	Run1	observe/STIM_017.jpg	99
882.968	0.986	985.9	observe	Run1	observe/STIM_017.jpg	100
886.33	1.172	1172.1	observe	Run1	observe/STIM_017.jpg	99
891.407	0.939	939.3	observe	Run1	observe/STIM_018.jpg	100
895.473	0.891	890.9	observe	Run1	observe/STIM_018.jpg	99
899.143	0.901	901.0	observe	Run1	observe/STIM_018.jpg	99
902.999	0.823	823.0	observe	Run1	observe/STIM_018.jpg	99
907.161	0.977	977.0	observe	Run1	observe/STIM_019.jpg	100
910.917	1.08	1079.6	observe	Run1	observe/STIM_019.jpg	100
914.152	0.846	845.7	observe	Run1	observe/STIM_019.jpg	100
917.643	1.236	1236.4	observe	Run1	observe/STIM_019.jpg	100
921.966	1.405	1404.8	regulate	Run2	regulate/STIM_000.jpg	100
926.827	1.478	1478.2	regulate	Run2	regulate/STIM_000.jpg	100
931.587	1.005	1005.2	regulate	Run2	regulate/STIM_000.jpg	99
936.398	1.416	1415.5	regulate	Run2	regulate/STIM_000.jpg	100
940.166	1.216	1216.0	regulate	Run2	regulate/STIM_001.jpg	100
945.363	1.331	1331.2	regulate	Run2	regulate/STIM_001.jpg	100
949.358	1.661	1660.8	regulate	Run2	regulate/STIM_001.jpg	100
953.97	1.29	1290.5	regulate	Run2	regulate/STIM_001.jpg	100
957.944	2.266	2265.9	regulate	Run2	regulate/STIM_002.jpg	99
963.775	1.997	1996.9	regulate	Run2	regulate/STIM_002.jpg	99
968.15	2.214	2213.5	regulate	Run2	regulate/STIM_002.jpg	99
974.111	1.812	1812.4	regulate	Run2	regulate/STIM_002.jpg	99
979.218	1.835	1835.3	regulate	Run2	regulate/STIM_003.jpg	99
984.452	1.153	1153.0	regulate	Run2	regulate/STIM_003.jpg	99
988.989	1.77	1769.6	regulate	Run2	regulate/STIM_003.jpg	99
993.098	0.999	998.6	regulate	Run2	regulate/STIM_003.jpg	99
997.825	2.094	2094.4	regulate	Run2	regulate/STIM_004.jpg	99
1002.295	1.696	1696.0	regulate	Run2	regulate/STIM_004.jpg	100
1006.426	1.987	1987.2	regulate	Run2	regulate/STIM_004.jpg	100
1011.39	1.877	1877.4	regulate	Run2	regulate/STIM_004.jpg	100
1015.894	2.489	2488.7	regulate	Run2	regulate/STIM_005.jpg	99
1022.24	1.916	1915.5	regulate	Run2	regulate/STIM_005.jpg	100
1027.147	2.111	2111.2	regulate	Run2	regulate/STIM_005.jpg	99
1033.227	1.47	1470.0	regulate	Run2	regulate/STIM_005.jpg	100
1037.246	2.134	2133.7	regulate	Run2	regulate/STIM_006.jpg	100
1042.311	1.588	1588.0	regulate	Run2	regulate/STIM_006.jpg	100
1046.258	1.404	1404.5	regulate	Run2	regulate/STIM_006.jpg	100
1051.227	1.152	1151.7	regulate	Run2	regulate/STIM_006.jpg	100
1054.869	1.581	1581.4	regulate	Run2	regulate/STIM_007.jpg	100
1059.021	1.261	1261.3	regulate	Run2	regulate/STIM_007.jpg	99
1063.785	1.426	1426.1	regulate	Run2	regulate/STIM_007.jpg	100
1068.329	0.959	959.2	regulate	Run2	regulate/STIM_007.jpg	100
1072.343	1.49	1490.2	regulate	Run2	regulate/STIM_008.jpg	100
1076.119	1.128	1128.2	regulate	Run2	regulate/STIM_008.jpg	100
1079.289	1.37	1370.2	regulate	Run2	regulate/STIM_008.jpg	99
1083.907	1.033	1033.4	regulate	Run2	regulate/STIM_008.jpg	100
1087.631	1.305	1304.8	regulate	Run2	regulate/STIM_009.jpg	99
1091.102	1.423	1423.4	regulate	Run2	regulate/STIM_009.jpg	99
1095.226	2.194	2193.8	regulate	Run2	regulate/STIM_009.jpg	100
1099.688	1.929	1928.9	regulate	Run2	regulate/STIM_009.jpg	100
1105.046	1.668	1668.5	regulate	Run2	regulate/STIM_010.jpg	99
1110.634	2.048	2047.8	regulate	Run2	regulate/STIM_010.jpg	99
1114.833	1.47	1469.8	regulate	Run2	regulate/STIM_010.jpg	99
1119.352	2.035	2034.6	regulate	Run2	regulate/STIM_010.jpg	100
1123.99	1.841	1841.0	regulate	Run2	regulate/STIM_011.jpg	99
1128.372	1.643	1643.3	regulate	Run2	regulate/STIM_011.jpg	100
1133.993	1.817	1817.0	regulate	Run2	regulate/STIM_011.jpg	99
1139.712	1.112	1111.8	regulate	Run2	regulate/STIM_011.jpg	100
1142.843	1.29	1289.8	regulate	Run2	regulate/STIM_012.jpg	99
1147.658	1.501	1501.1	regulate	Run2	regulate/STIM_012.jpg	99
1151.265	2.169	2168.9	regulate	Run2	regulate/STIM_012.jpg	100
1157.271	1.881	1880.6	regulate	Run2	regulate/STIM_012.jpg	99
1162.939	2.349	2349.0	regulate	Run2	regulate/STIM_013.jpg	100
1167.99	1.926	1925.8	regulate	Run2	regulate/STIM_013.jpg	99
1172.588	1.325	1325.4	regulate	Run2	regulate/STIM_013.jpg	100
1176.451	1.18	1180.4	regulate	Run2	regulate/STIM_013.jpg	99
1180.731	2.353	2352.8	regulate	Run2	regulate/STIM_014.jpg	100
1186.916	1.361	1360.8	regulate	Run2	regulate/STIM_014.jpg	99
1190.508	1.913	1913.3	regulate	Run2	regulate/STIM_014.jpg	100
1196.212	1.932	1931.6	regulate	Run2	regulate/STIM_014.jpg	99
1201.758	2.218	2218.1	regulate	Run2	regulate/STIM_015.jpg	99
1206.485	2.341	2341.1	regulate	Run2	regulate/STIM_015.jpg	99
1211.783	1.77	1769.7	regulate	Run2	regulate/STIM_015.jpg	100
1217.317	0.971	971.2	regulate	Run2	regulate/STIM_015.jpg	99
1220.317	2.322	2321.8	regulate	Run2	regulate/STIM_016.jpg	99
1224.867	2.191	2190.8	regulate	Run2	regulate/STIM_016.jpg	100
1230.982	1.087	1086.6	regulate	Run2	regulate/STIM_016.jpg	99
1234.439	1.739	1739.3	regulate	Run2	regulate/STIM_016.jpg	100
1239.714	2.221	2220.6	regulate	Run2	regulate/STIM_017.jpg	100
1244.762	1.073	1073.1	regulate	Run2	regulate/STIM_017.jpg	100
1249.045	1.593	1592.9	regulate	Run2	regulate/STIM_017.jpg	100
1253.358	2.085	2084.7	regulate	Run2	regulate/STIM_017.jpg	99
1257.681	1.176	1175.9	regulate	Run2	regulate/STIM_018.jpg	99
1261.361	2.222	2221.9	regulate	Run2	regulate/STIM_018.jpg	99
1265.749	1.938	1937.5	regulate	Run2	regulate/STIM_018.jpg	100
1270.207	1.14	1139.6	regulate	Run2	regulate/STIM_018.jpg	100
1274.528	2.356	2356.1	regulate	Run2	regulate/STIM_019.jpg	99
1279.124	1.806	1806.2	regulate	Run2	regulate/STIM_019.jpg	100
1282.951	1.373	1372.8	regulate	Run2	regulate/STIM_019.jpg	100
1287.216	2.088	2088.2	regulate	Run2	regulate/STIM_019.jpg	100
1291.378	2.146	2145.6	regulate	Run2	regulate/STIM_020.jpg	99
1297.498	1.559	1558.6	regulate	Run2	regulate/STIM_020.jpg	100
1301.223	2.082	2082.2	regulate	Run2	regulate/STIM_020.jpg	100
1306.255	0.92	920.1	regulate	Run2	regulate/STIM_020.jpg	100
1311.074	2.518	2518.1	regulate	Run2	regulate/STIM_021.jpg	100
1317.356	2.019	2019.0	regulate	Run2	regulate/STIM_021.jpg	100
1322.013	1.096	1096.2	regulate	Run2	regulate/STIM_021.jpg	100
1326.463	1.165	1165.1	regulate	Run2	regulate/STIM_021.jpg	100
1331.129	1.501	1500.7	regulate	Run2	regulate/STIM_022.jpg	100
1335.389	2.028	2028.4	regulate	Run2	regulate/STIM_022.jpg	100
1339.532	1.792	1792.1	regulate	Run2	regulate/STIM_022.jpg	100
1343.445	0.961	961.4	regulate	Run2	regulate/STIM_022.jpg	99
1347.133	1.378	1377.5	regulate	Run2	regulate/STIM_023.jpg	100
1351.207	1.096	1095.8	regulate	Run2	regulate/STIM_023.jpg	99
1355.068	2.187	2186.6	regulate	Run2	regulate/STIM_023.jpg	100
1360.65	1.675	1675.4	regulate	Run2	regulate/STIM_023.jpg	99
1365.512	2.524	2523.7	regulate	Run2	regulate/STIM_024.jpg	99
1371.943	2.418	2417.7	regulate	Run2	regulate/STIM_024.jpg	100
1376.861	2.045	2045.3	regulate	Run2	regulate/STIM_024.jpg	99
1381.665	1.103	1102.9	regulate	Run2	regulate/STIM_024.jpg	100
1386.237	1.884	1883.6	regulate	Run2	regulate/STIM_025.jpg	99
1391.597	1.958	1958.0	regulate	Run2	regulate/STIM_025.jpg	100
1396.052	1.95	1949.8	regulate	Run2	regulate/STIM_025.jpg	99
1401.866	1.648	1648.3	regulate	Run2	regulate/STIM_025.jpg	99
1406.127	1.513	1513.1	regulate	Run2	regulate/STIM_026.jpg	100
1409.94	2.02	2020.4	regulate	Run2	regulate/STIM_026.jpg	100
1415.306	1.422	1421.8	regulate	Run2	regulate/STIM_026.jpg	99
1419.845	1.927	1927.0	regulate	Run2	regulate/STIM_026.jpg	100
1424.454	2.01	2009.9	regulate	Run2	regulate/STIM_027.jpg	100
1430.051	1.455	1454.6	regulate	Run2	regulate/STIM_027.jpg	99
1434.636	1.244	1243.6	regulate	Run2	regulate/STIM_027.jpg	100
1438.063	1.562	1561.5	regulate	Run2	regulate/STIM_027.jpg	100
1441.982	1.363	1363.4	regulate	Run2	regulate/STIM_028.jpg	99
1445.528	1.513	1512.7	regulate	Run2	regulate/STIM_028.jpg	100
1449.195	1.589	1589.4	regulate	Run2	regulate/STIM_028.jpg	100
1453.907	1.328	1328.5	regulate	Run2	regulate/STIM_028.jpg	100
1458.904	1.362	1362.0	regulate	Run2	regulate/STIM_029.jpg	99
1463.8	1.133	1133.2	regulate	Run2	regulate/STIM_029.jpg	99
1468.238	1.467	1466.6	regulate	Run2	regulate/STIM_029.jpg	99
1472.498	1.716	1716.1	regulate	Run2	regulate/STIM_029.jpg	99
1478.053	0.767	767.4	observe	Run2	observe/STIM_000.jpg	100
1482.728	1.112	1111.5	observe	Run2	observe/STIM_000.jpg	100
1487.164	0.856	855.8	observe	Run2	observe/STIM_000.jpg	100
1490.942	0.917	917.4	observe	Run2	observe/STIM_000.jpg	99
1494.345	0.894	893.7	observe	Run2	observe/STIM_001.jpg	99
1498.849	0.707	706.7	observe	Run2	observe/STIM_001.jpg	100
1502.247	0.847	847.4	observe	Run2	observe/STIM_001.jpg	99
1506.581	0.722	722.3	observe	Run2	observe/STIM_001.jpg	100
1509.976	1.051	1051.3	observe	Run2	observe/STIM_002.jpg	99
1514.36	1.2	1199.6	observe	Run2	observe/STIM_002.jpg	99
1518.022	0.964	963.9	observe	Run2	observe/STIM_002.jpg	100
1521.708	0.996	996.3	observe	Run2	observe/STIM_002.jpg	99
1525.945	0.998	997.9	observe	Run2	observe/STIM_003.jpg	100
1530.662	0.938	937.9	observe	Run2	observe/STIM_003.jpg	100
1535.59	0.834	833.6	observe	Run2	observe/STIM_003.jpg	99
1540.274	1.0	1000.0	observe	Run2	observe/STIM_003.jpg	100
1543.906	0.764	763.6	observe	Run2	observe/STIM_004.jpg	99
1548.597	0.857	857.2	observe	Run2	observe/STIM_004.jpg	100
1551.96	0.963	963.2	observe	Run2	observe/STIM_004.jpg	100
1555.011	1.029	1029.1	observe	Run2	observe/STIM_004.jpg	100
1559.196	0.928	928.1	observe	Run2	observe/STIM_005.jpg	100
1563.418	0.967	967.0	observe	Run2	observe/STIM_005.jpg	100
1566.814	1.163	1162.7	observe	Run2	observe/STIM_005.jpg	100
1570.963	1.113	1113.0	observe	Run2	observe/STIM_005.jpg	100
1575.024	1.282	1282.3	observe	Run2	observe/STIM_006.jpg	99
1578.895	0.842	842.5	observe	Run2	observe/STIM_006.jpg	99
1582.047	0.991	990.7	observe	Run2	observe/STIM_006.jpg	100
1585.861	0.871	871.2	observe	Run2	observe/STIM_006.jpg	99
1590.359	0.742	741.5	observe	Run2	observe/STIM_007.jpg	100
1593.94	1.1	1100.1	observe	Run2	observe/STIM_007.jpg	99
1598.442	0.961	960.8	observe	Run2	observe/STIM_007.jpg	99
1602.955	0.92	920.1	observe	Run2	observe/STIM_007.jpg	99
1605.885	1.077	1076.6	observe	Run2	observe/STIM_008.jpg	99
1610.235	0.705	705.2	observe	Run2	observe/STIM_008.jpg	99
1613.404	1.097	1096.6	observe	Run2	observe/STIM_008.jpg	100
1616.896	0.713	712.9	observe	Run2	observe/STIM_008.jpg	99
1619.873	0.85	850.5	observe	Run2	observe/STIM_009.jpg	100
1624.18	1.063	1063.4	observe	Run2	observe/STIM_009.jpg	99
1628.846	0.94	940.2	observe	Run2	observe/STIM_009.jpg	99
1632.155	1.368	1368.1	observe	Run2	observe/STIM_009.jpg	100
1637.434	1.342	1342.3	observe	Run2	observe/STIM_010.jpg	100
1641.186	1.146	1146.4	observe	Run2	observe/STIM_010.jpg	99
1644.896	1.007	1006.6	observe	Run2	observe/STIM_010.jpg	99
1648.408	1.151	1151.2	observe	Run2	observe/STIM_010.jpg	99
1652.948	0.753	753.3	observe	Run2	observe/STIM_011.jpg	100
1656.681	1.284	1284.5	observe	Run2	observe/STIM_011.jpg	100
1660.633	1.049	1049.2	observe	Run2	observe/STIM_011.jpg	99
1664.146	0.76	760.0	observe	Run2	observe/STIM_011.jpg	99
1668.771	1.248	1248.0	observe	Run2	observe/STIM_012.jpg	100
1672.588	1.328	1327.7	observe	Run2	observe/STIM_012.jpg	100
1676.969	1.157	1156.7	observe	Run2	observe/STIM_012.jpg	100
1681.599	0.843	843.3	observe	Run2	observe/STIM_012.jpg	99
1684.487	0.764	764.5	observe	Run2	observe/STIM_013.jpg	99
1688.242	1.066	1066.2	observe	Run2	observe/STIM_013.jpg	100
1692.24	1.144	1144.3	observe	Run2	observe/STIM_013.jpg	100
1697.232	1.109	1109.2	observe	Run2	observe/STIM_013.jpg	99
1700.579	0.901	900.8	observe	Run2	observe/STIM_014.jpg	100
1705.242	0.851	851.2	observe	Run2	observe/STIM_014.jpg	99
1709.655	1.11	1110.5	observe	Run2	observe/STIM_014.jpg	100
1713.834	0.751	750.8	observe	Run2	observe/STIM_014.jpg	99
1717.087	0.989	989.2	observe	Run2	observe/STIM_015.jpg	100
1720.694	1.352	1352.1	observe	Run2	observe/STIM_015.jpg	99
1725.223	1.275	1274.7	observe	Run2	observe/STIM_015.jpg	99
1730.069	0.909	909.2	observe	Run2	observe/STIM_015.jpg	99
1734.828	0.904	904.3	observe	Run2	observe/STIM_016.jpg	99
1739.33	1.37	1370.3	observe	Run2	observe/STIM_016.jpg	99
1743.463	1.118	1118.1	observe	Run2	observe/STIM_016.jpg	100
1747.433	1.295	1294.7	observe	Run2	observe/STIM_016.jpg	100
1750.733	1.236	1235.9	observe	Run2	observe/STIM_017.jpg	99
1754.384	1.193	1193.2	observe	Run2	observe/STIM_017.jpg	99
1757.838	1.317	1316.8	observe	Run2	observe/STIM_017.jpg	100
1762.447	1.227	1226.6	observe	Run2	observe/STIM_017.jpg	100
1767.376	1.251	1251.3	observe	Run2	observe/STIM_018.jpg	99
1771.872	1.2	1200.3	observe	Run2	observe/STIM_018.jpg	100
1775.74	1.008	1007.8	observe	Run2	observe/STIM_018.jpg	100
1778.789	1.223	1223.1	observe	Run2	observe/STIM_018.jpg	100
1783.412	0.821	821.3	observe	Run2	observe/STIM_019.jpg	99
1787.63	0.708	707.5	observe	Run2	observe/STIM_019.jpg	99
1792.28	1.366	1365.5	observe	Run2	observe/STIM_019.jpg	100
1796.22	1.038	1037.8	observe	Run2	observe/STIM_019.jpg	100
1800.376	1.52	1519.9	regulate	Run3	regulate/STIM_000.jpg	100
1803.975	1.505	1505.4	regulate	Run3	regulate/STIM_000.jpg	99
1807.905	1.355	1354.9	regulate	Run3	regulate/STIM_000.jpg	100
1812.166	0.958	958.2	regulate	Run3	regulate/STIM_000.jpg	100
1815.416	1.784	1783.9	regulate	Run3	regulate/STIM_001.jpg	99
1820.371	1.842	1842.5	regulate	Run3	regulate/STIM_001.jpg	99
1824.878	1.002	1002.2	regulate	Run3	regulate/STIM_001.jpg	99
1827.981	1.418	1417.7	regulate	Run3	regulate/STIM_001.jpg	99
1832.962	1.557	1557.4	regulate	Run3	regulate/STIM_002.jpg	99
1836.783	1.758	1757.7	regulate	Run3	regulate/STIM_002.jpg	99
1842.537	1.958	1957.6	regulate	Run3	regulate/STIM_002.jpg	99
1848.004	1.369	1368.9	regulate	Run3	regulate/STIM_002.jpg	99
1853.04	1.953	1952.9	regulate	Run3	regulate/STIM_003.jpg	99
1858.499	1.065	1065.0	regulate	Run3	regulate/STIM_003.jpg	100
1862.6	0.911	910.9	regulate	Run3	regulate/STIM_003.jpg	99
1866.777	1.288	1287.8	regulate	Run3	regulate/STIM_003.jpg	100
1870.9	1.293	1293.3	regulate	Run3	regulate/STIM_004.jpg	99
1875.299	1.477	1476.9	regulate	Run3	regulate/STIM_004.jpg	100
1879.461	1.335	1335.2	regulate	Run3	regulate/STIM_004.jpg	100
1884.701	1.444	1443.8	regulate	Run3	regulate/STIM_004.jpg	100
1889.675	1.999	1999.2	regulate	Run3	regulate/STIM_005.jpg	100
1895.322	1.799	1799.4	regulate	Run3	regulate/STIM_005.jpg	99
1899.874	1.396	1396.2	regulate	Run3	regulate/STIM_005.jpg	100
1904.551	1.979	1979.3	regulate	Run3	regulate/STIM_005.jpg	100
1910.249	1.861	1861.2	regulate	Run3	regulate/STIM_006.jpg	100
1914.301	1.952	1952.2	regulate	Run3	regulate/STIM_006.jpg	100
1919.123	1.43	1429.6	regulate	Run3	regulate/STIM_006.jpg	99
1924.206	1.085	1085.0	regulate	Run3	regulate/STIM_006.jpg	100
1927.458	1.931	1930.9	regulate	Run3	regulate/STIM_007.jpg	99
1933.234	2.006	2006.2	regulate	Run3	regulate/STIM_007.jpg	100
1938.517	1.708	1708.3	regulate	Run3	regulate/STIM_007.jpg	100
1943.983	1.197	1196.9	regulate	Run3	regulate/STIM_007.jpg	100
1948.847	1.818	1818.5	regulate	Run3	regulate/STIM_008.jpg	100
1954.024	1.155	1155.1	regulate	Run3	regulate/STIM_008.jpg	99
1959.132	1.039	1039.4	regulate	Run3	regulate/STIM_008.jpg	99
1962.707	1.501	1500.6	regulate	Run3	regulate/STIM_008.jpg	100
1966.773	1.914	1913.9	regulate	Run3	regulate/STIM_009.jpg	99
1971.232	1.4	1400.1	regulate	Run3	regulate/STIM_009.jpg	99
1975.464	1.171	1171.0	regulate	Run3	regulate/STIM_009.jpg	99
1979.044	1.282	1281.5	regulate	Run3	regulate/STIM_009.jpg	99
1982.811	1.803	1802.7	regulate	Run3	regulate/STIM_010.jpg	100
1987.049	1.365	1365.2	regulate	Run3	regulate/STIM_010.jpg	99
1991.837	1.234	1234.4	regulate	Run3	regulate/STIM_010.jpg	100
1996.182	1.691	1690.6	regulate	Run3	regulate/STIM_010.jpg	99
2000.971	1.064	1063.7	regulate	Run3	regulate/STIM_011.jpg	99
2004.495	1.865	1865.3	regulate	Run3	regulate/STIM_011.jpg	99
2009.04	1.614	1614.3	regulate	Run3	regulate/STIM_011.jpg	99
2013.267	1.988	1987.5	regulate	Run3	regulate/STIM_011.jpg	99
2018.927	1.101	1100.7	regulate	Run3	regulate/STIM_012.jpg	100
2023.482	1.049	1048.6	regulate	Run3	regulate/STIM_012.jpg	99
2026.647	1.597	1596.7	regulate	Run3	regulate/STIM_012.jpg	99
2030.675	1.426	1426.4	regulate	Run3	regulate/STIM_012.jpg	100
2035.787	1.24	1240.4	regulate	Run3	regulate/STIM_013.jpg	99
2039.409	1.585	1584.7	regulate	Run3	regulate/STIM_013.jpg	100
2044.055	1.7	1700.4	regulate	Run3	regulate/STIM_013.jpg	100
2049.486	1.313	1313.3	regulate	Run3	regulate/STIM_013.jpg	99
2053.231	2.086	2086.2	regulate	Run3	regulate/STIM_014.jpg	99
2058.44	1.737	1737.0	regulate	Run3	regulate/STIM_014.jpg	100
2063.353	1.691	1691.1	regulate	Run3	regulate/STIM_014.jpg	99
2069.027	1.993	1993.1	regulate	Run3	regulate/STIM_014.jpg	100
2073.628	2.05	2049.9	regulate	Run3	regulate/STIM_015.jpg	100
2078.709	1.134	1134.0	regulate	Run3	regulate/STIM_015.jpg	99
2082.621	1.006	1006.2	regulate	Run3	regulate/STIM_015.jpg	99
2087.504	1.287	1286.9	regulate	Run3	regulate/STIM_015.jpg	99
2092.737	1.947	1947.2	regulate	Run3	regulate/STIM_016.jpg	100
2098.565	1.102	1102.5	regulate	Run3	regulate/STIM_016.jpg	100
2102.228	1.097	1097.3	regulate	Run3	regulate/STIM_016.jpg	99
2106.25	1.273	1272.9	regulate	Run3	regulate/STIM_016.jpg	99
2110.473	1.557	1556.8	regulate	Run3	regulate/STIM_017.jpg	100
2114.483	1.314	1314.5	regulate	Run3	regulate/STIM_017.jpg	100
2118.531	2.039	2039.4	regulate	Run3	regulate/STIM_017.jpg	100
2123.615	1.992	1992.4	regulate	Run3	regulate/STIM_017.jpg	99
2128.809	1.201	1200.7	regulate	Run3	regulate/STIM_018.jpg	99
2133.624	2.027	2027.0	regulate	Run3	regulate/STIM_018.jpg	99
2138.68	1.081	1080.9	regulate	Run3	regulate/STIM_018.jpg	99
2142.837	1.215	1215.0	regulate	Run3	regulate/STIM_018.jpg	100
2146.986	1.106	1106.3	regulate	Run3	regulate/STIM_019.jpg	99
2151.361	1.851	1851.1	regulate	Run3	regulate/STIM_019.jpg	99
2156.563	1.342	1341.6	regulate	Run3	regulate/STIM_019.jpg	99
2161.882	1.177	1176.9	regulate	Run3	regulate/STIM_019.jpg	100
2166.445	2.064	2064.1	regulate	Run3	regulate/STIM_020.jpg	100
2170.607	1.546	1545.7	regulate	Run3	regulate/STIM_020.jpg	99
2174.635	1.599	1598.9	regulate	Run3	regulate/STIM_020.jpg	99
2178.852	2.094	2094.1	regulate	Run3	regulate/STIM_020.jpg	100
2184.574	1.96	1960.2	regulate	Run3	regulate/STIM_021.jpg	100
2189.04	1.098	1097.7	regulate	Run3	regulate/STIM_021.jpg	100
2193.609	1.825	1824.9	regulate	Run3	regulate/STIM_021.jpg	100
2198.829	1.839	1839.3	regulate	Run3	regulate/STIM_021.jpg	99
2204.234	1.424	1423.5	regulate	Run3	regulate/STIM_022.jpg	100
2209.149	1.022	1022.5	regulate	Run3	regulate/STIM_022.jpg	100
2212.274	1.242	1242.5	regulate	Run3	regulate/STIM_022.jpg	99
2216.564	1.286	1285.7	regulate	Run3	regulate/STIM_022.jpg	100
2221.705	1.931	1931.3	regulate	Run3	regulate/STIM_023.jpg	100
2226.845	1.228	1227.8	regulate	Run3	regulate/STIM_023.jpg	100
2230.802	1.42	1419.8	regulate	Run3	regulate/STIM_023.jpg	100
2235.555	0.987	987.1	regulate	Run3	regulate/STIM_023.jpg	99
2239.215	1.265	1265.4	regulate	Run3	regulate/STIM_024.jpg	99
2242.535	1.209	1209.1	regulate	Run3	regulate/STIM_024.jpg	100
2246.343	2.049	2049.3	regulate	Run3	regulate/STIM_024.jpg	99
2252.137	0.918	918.0	regulate	Run3	regulate/STIM_024.jpg	100
2255.53	1.08	1080.2	regulate	Run3	regulate/STIM_025.jpg	100
2259.029	1.887	1887.0	regulate	Run3	regulate/STIM_025.jpg	99
2263.387	1.543	1542.7	regulate	Run3	regulate/STIM_025.jpg	100
2267.232	2.017	2016.6	regulate	Run3	regulate/STIM_025.jpg	100
2272.162	1.896	1895.7	regulate	Run3	regulate/STIM_026.jpg	100
2276.107	2.125	2125.3	regulate	Run3	regulate/STIM_026.jpg	99
2281.188	1.01	1010.1	regulate	Run3	regulate/STIM_026.jpg	99
2284.783	1.119	1118.6	regulate	Run3	regulate/STIM_026.jpg	100
2288.865	1.269	1269.0	regulate	Run3	regulate/STIM_027.jpg	100
2293.116	1.875	1874.9	regulate	Run3	regulate/STIM_027.jpg	99
2298.915	1.463	1463.2	regulate	Run3	regulate/STIM_027.jpg	100
2303.762	1.285	1284.7	regulate	Run3	regulate/STIM_027.jpg	99
2307.556	1.629	1628.7	regulate	Run3	regulate/STIM_028.jpg	100
2312.658	1.417	1417.1	regulate	Run3	regulate/STIM_028.jpg	99
2317.768	1.514	1513.8	regulate	Run3	regulate/STIM_028.jpg	100
2323.277	1.47	1470.2	regulate	Run3	regulate/STIM_028.jpg	99
2326.836	1.437	1437.2	regulate	Run3	regulate/STIM_029.jpg	99
2332.145	0.963	963.3	regulate	Run3	regulate/STIM_029.jpg	99
2335.486	1.273	1273.3	regulate	Run3	regulate/STIM_029.jpg	99
2340.27	1.128	1128.3	regulate	Run3	regulate/STIM_029.jpg	99
2343.89	0.982	982.4	observe	Run3	observe/STIM_000.jpg	100
2346.962	1.027	1026.7	observe	Run3	observe/STIM_000.jpg	100
2350.854	0.956	955.7	observe	Run3	observe/STIM_000.jpg	99
2355.007	1.005	1004.7	observe	Run3	observe/STIM_000.jpg	99
2358.814	0.803	802.9	observe	Run3	observe/STIM_001.jpg	100
2363.218	1.29	1289.6	observe	Run3	observe/STIM_001.jpg	100
2368.437	0.94	940.0	observe	Run3	observe/STIM_001.jpg	99
2372.976	1.005	1004.8	observe	Run3	observe/STIM_001.jpg	100
2377.24	0.997	997.1	observe	Run3	observe/STIM_002.jpg	99
2382.19	0.739	739.2	observe	Run3	observe/STIM_002.jpg	99
2385.172	1.31	1310.1	observe	Run3	observe/STIM_002.jpg	100
2389.007	0.969	969.0	observe	Run3	observe/STIM_002.jpg	99
2392.262	1.15	1149.5	observe	Run3	observe/STIM_003.jpg	99
2396.948	0.93	929.9	observe	Run3	observe/STIM_003.jpg	99
2400.017	1.384	1383.9	observe	Run3	observe/STIM_003.jpg	99
2404.351	1.2	1199.5	observe	Run3	observe/STIM_003.jpg	99
2408.901	0.776	776.5	observe	Run3	observe/STIM_004.jpg	99
2412.468	1.22	1220.4	observe	Run3	observe/STIM_004.jpg	99
2416.215	1.273	1272.7	observe	Run3	observe/STIM_004.jpg	100
2421.445	1.004	1003.5	observe	Run3	observe/STIM_004.jpg	99
2424.548	1.225	1225.1	observe	Run3	observe/STIM_005.jpg	100
2429.331	1.223	1223.4	observe	Run3	observe/STIM_005.jpg	100
2432.723	1.004	1004.5	observe	Run3	observe/STIM_005.jpg	100
2436.057	0.808	808.5	observe	Run3	observe/STIM_005.jpg	99
2439.645	1.276	1276.2	observe	Run3	observe/STIM_006.jpg	100
2443.758	1.025	1025.4	observe	Run3	observe/STIM_006.jpg	100
2446.919	1.073	1073.1	observe	Run3	observe/STIM_006.jpg	100
2450.699	0.882	881.7	observe	Run3	observe/STIM_006.jpg	99
2455.228	1.272	1272.1	observe	Run3	observe/STIM_007.jpg	100
2459.726	0.846	845.6	observe	Run3	observe/STIM_007.jpg	99
2463.211	0.75	749.6	observe	Run3	observe/STIM_007.jpg	99
2466.824	0.796	796.0	observe	Run3	observe/STIM_007.jpg	100
2469.675	0.716	715.6	observe	Run3	observe/STIM_008.jpg	100
2473.326	1.071	1070.8	observe	Run3	observe/STIM_008.jpg	99
2477.801	0.95	950.5	observe	Run3	observe/STIM_008.jpg	99
2482.522	0.858	857.6	observe	Run3	observe/STIM_008.jpg	99
2487.369	1.255	1254.7	observe	Run3	observe/STIM_009.jpg	100
2491.782	0.875	875.3	observe	Run3	observe/STIM_009.jpg	99
2495.098	0.808	808.1	observe	Run3	observe/STIM_009.jpg	100
2499.111	1.384	1383.9	observe	Run3	observe/STIM_009.jpg	99
2502.949	0.981	981.4	observe	Run3	observe/STIM_010.jpg	100
2507.49	1.377	1377.2	observe	Run3	observe/STIM_010.jpg	100
2511.395	1.084	1084.1	observe	Run3	observe/STIM_010.jpg	99
2515.673	0.852	852.2	observe	Run3	observe/STIM_010.jpg	99
2518.598	0.724	724.0	observe	Run3	observe/STIM_011.jpg	100
2523.224	1.244	1243.5	observe	Run3	observe/STIM_011.jpg	99
2527.44	0.73	729.9	observe	Run3	observe/STIM_011.jpg	99
2530.302	1.387	1386.6	observe	Run3	observe/STIM_011.jpg	100
2535.314	1.014	1013.7	observe	Run3	observe/STIM_012.jpg	100
2538.745	1.159	1159.2	observe	Run3	observe/STIM_012.jpg	100
2543.05	1.27	1270.0	observe	Run3	observe/STIM_012.jpg	99
2547.003	1.368	1367.6	observe	Run3	observe/STIM_012.jpg	99
2552.047	1.212	1211.7	observe	Run3	observe/STIM_013.jpg	100
2555.44	1.056	1056.3	observe	Run3	observe/STIM_013.jpg	100
2560.323	1.099	1099.2	observe	Run3	observe/STIM_013.jpg	99
2563.665	1.015	1015.1	observe	Run3	observe/STIM_013.jpg	99
2567.644	0.883	882.7	observe	Run3	observe/STIM_014.jpg	100
2572.278	0.893	893.1	observe	Run3	observe/STIM_014.jpg	99
2575.495	1.017	1016.9	observe	Run3	observe/STIM_014.jpg	100
2580.217	0.718	718.4	observe	Run3	observe/STIM_014.jpg	100
2583.005	0.873	873.0	observe	Run3	observe/STIM_015.jpg	100
2587.643	1.034	1033.8	observe	Run3	observe/STIM_015.jpg	100
2591.989	0.817	816.6	observe	Run3	observe/STIM_015.jpg	99
2596.049	0.856	855.5	observe	Run3	observe/STIM_015.jpg	100
2600.082	1.12	1119.5	observe	Run3	observe/STIM_016.jpg	100
2604.81	0.841	840.8	observe	Run3	observe/STIM_016.jpg	100
2608.485	0.864	864.4	observe	Run3	observe/STIM_016.jpg	100
2612.948	1.246	1245.8	observe	Run3	observe/STIM_016.jpg	100
2616.92	0.82	819.7	observe	Run3	observe/STIM_017.jpg	100
2621.15	0.863	863.1	observe	Run3	observe/STIM_017.jpg	99
2625.936	0.818	817.9	observe	Run3	observe/STIM_017.jpg	99
2629.907	1.055	1054.7	observe	Run3	observe/STIM_017.jpg	99
2634.93	1.186	1185.8	observe	Run3	observe/STIM_018.jpg	99
2638.322	0.922	922.3	observe	Run3	observe/STIM_018.jpg	99
2642.575	0.906	905.5	observe	Run3	observe/STIM_018.jpg	99
2646.086	1.29	1290.1	observe	Run3	observe/STIM_018.jpg	99
2649.783	0.696	696.0	observe	Run3	observe/STIM_019.jpg	99
2653.604	1.073	1072.6	observe	Run3	observe/STIM_019.jpg	100
2657.983	1.082	1082.4	observe	Run3	observe/STIM_019.jpg	99
2662.703	0.935	934.8	observe	Run3	observe/STIM_019.jpg	99
