onset	duration	accuracy_binary	trial_type	learning_stage	stimulus
0.0	2.732	1	regulate	Run1	regulate/STIM_000.jpg
5.389	2.846	1	regulate	Run1	regulate/STIM_000.jpg
10.938	2.09	1	regulate	Run1	regulate/STIM_000.jpg
16.233	2.614	1	regulate	Run1	regulate/STIM_000.jpg
22.501	2.022	0	regulate	Run1	regulate/STIM_001.jpg
27.196	2.77	1	regulate	Run1	regulate/STIM_001.jpg
33.603	2.726	1	regulate	Run1	regulate/STIM_001.jpg
40.03	2.309	1	regulate	Run1	regulate/STIM_001.jpg
44.584	3.211	1	regulate	Run1	regulate/STIM_002.jpg
50.416	1.648	1	regulate	Run1	regulate/STIM_002.jpg
56.106	2.048	1	regulate	Run1	regulate/STIM_002.jpg
60.617	2.198	1	regulate	Run1	regulate/STIM_002.jpg
66.689	1.899	1	regulate	Run1	regulate/STIM_003.jpg
71.672	2.341	1	regulate	Run1	regulate/STIM_003.jpg
77.092	1.444	1	regulate	Run1	regulate/STIM_003.jpg
81.122	1.796	1	regulate	Run1	regulate/STIM_003.jpg
85.958	3.063	1	regulate	Run1	regulate/STIM_004.jpg
92.315	2.331	0	regulate	Run1	regulate/STIM_004.jpg
96.765	1.88	0	regulate	Run1	regulate/STIM_004.jpg
101.084	2.118	1	regulate	Run1	regulate/STIM_004.jpg
105.29	1.784	1	regulate	Run1	regulate/STIM_005.jpg
111.117	3.043	0	regulate	Run1	regulate/STIM_005.jpg
116.48	2.762	1	regulate	Run1	regulate/STIM_005.jpg
123.048	2.37	1	regulate	Run1	regulate/STIM_005.jpg
128.464	2.991	0	regulate	Run1	regulate/STIM_006.jpg
133.729	1.819	1	regulate	Run1	regulate/STIM_006.jpg
139.176	1.489	0	regulate	Run1	regulate/STIM_006.jpg
143.117	1.708	0	regulate	Run1	regulate/STIM_006.jpg
148.194	2.82	1	regulate	Run1	regulate/STIM_007.jpg
153.81	1.919	1	regulate	Run1	regulate/STIM_007.jpg
159.638	2.417	1	regulate	Run1	regulate/STIM_007.jpg
164.195	1.846	1	regulate	Run1	regulate/STIM_007.jpg
169.526	2.868	1	regulate	Run1	regulate/STIM_008.jpg
176.097	1.872	0	regulate	Run1	regulate/STIM_008.jpg
180.296	2.694	1	regulate	Run1	regulate/STIM_008.jpg
185.678	1.546	1	regulate	Run1	regulate/STIM_008.jpg
190.576	2.237	1	regulate	Run1	regulate/STIM_009.jpg
195.855	3.001	1	regulate	Run1	regulate/STIM_009.jpg
202.363	2.941	1	regulate	Run1	regulate/STIM_009.jpg
207.766	2.652	1	regulate	Run1	regulate/STIM_009.jpg
212.681	2.386	1	regulate	Run1	regulate/STIM_010.jpg
218.715	1.582	1	regulate	Run1	regulate/STIM_010.jpg
223.985	1.611	1	regulate	Run1	regulate/STIM_010.jpg
228.783	2.277	1	regulate	Run1	regulate/STIM_010.jpg
233.579	3.212	1	regulate	Run1	regulate/STIM_011.jpg
240.565	1.725	1	regulate	Run1	regulate/STIM_011.jpg
245.738	1.6	1	regulate	Run1	regulate/STIM_011.jpg
251.183	2.419	1	regulate	Run1	regulate/STIM_011.jpg
256.121	2.647	1	regulate	Run1	regulate/STIM_012.jpg
262.047	1.856	0	regulate	Run1	regulate/STIM_012.jpg
266.314	2.296	1	regulate	Run1	regulate/STIM_012.jpg
271.614	2.332	1	regulate	Run1	regulate/STIM_012.jpg
277.346	2.097	0	regulate	Run1	regulate/STIM_013.jpg
282.984	2.003	1	regulate	Run1	regulate/STIM_013.jpg
288.963	2.477	1	regulate	Run1	regulate/STIM_013.jpg
294.776	1.659	1	regulate	Run1	regulate/STIM_013.jpg
299.829	2.01	0	regulate	Run1	regulate/STIM_014.jpg
304.936	2.7	1	regulate	Run1	regulate/STIM_014.jpg
311.087	2.822	1	regulate	Run1	regulate/STIM_014.jpg
316.468	2.319	1	regulate	Run1	regulate/STIM_014.jpg
321.242	3.235	1	regulate	Run1	regulate/STIM_015.jpg
327.392	2.933	0	regulate	Run1	regulate/STIM_015.jpg
333.143	2.951	1	regulate	Run1	regulate/STIM_015.jpg
339.753	2.299	1	regulate	Run1	regulate/STIM_015.jpg
344.542	3.253	1	regulate	Run1	regulate/STIM_016.jpg
350.919	2.383	1	regulate	Run1	regulate/STIM_016.jpg
355.528	2.045	1	regulate	Run1	regulate/STIM_016.jpg
360.638	2.277	1	regulate	Run1	regulate/STIM_016.jpg
365.428	2.564	1	regulate	Run1	regulate/STIM_017.jpg
371.648	2.098	1	regulate	Run1	regulate/STIM_017.jpg
376.393	1.8	1	regulate	Run1	regulate/STIM_017.jpg
381.074	1.932	1	regulate	Run1	regulate/STIM_017.jpg
385.496	2.549	1	regulate	Run1	regulate/STIM_018.jpg
391.118	2.805	1	regulate	Run1	regulate/STIM_018.jpg
397.42	1.683	1	regulate	Run1	regulate/STIM_018.jpg
401.992	1.652	1	regulate	Run1	regulate/STIM_018.jpg
406.459	3.153	1	regulate	Run1	regulate/STIM_019.jpg
413.699	3.2	0	regulate	Run1	regulate/STIM_019.jpg
419.979	2.931	1	regulate	Run1	regulate/STIM_019.jpg
426.915	2.355	1	regulate	Run1	regulate/STIM_019.jpg
432.117	2.476	1	regulate	Run1	regulate/STIM_020.jpg
438.346	2.966	1	regulate	Run1	regulate/STIM_020.jpg
443.952	2.875	1	regulate	Run1	regulate/STIM_020.jpg
450.382	2.825	1	regulate	Run1	regulate/STIM_020.jpg
456.448	2.749	1	regulate	Run1	regulate/STIM_021.jpg
463.175	2.132	1	regulate	Run1	regulate/STIM_021.jpg
469.011	2.301	1	regulate	Run1	regulate/STIM_021.jpg
473.521	2.232	0	regulate	Run1	regulate/STIM_021.jpg
479.021	2.492	1	regulate	Run1	regulate/STIM_022.jpg
484.074	3.19	1	regulate	Run1	regulate/STIM_022.jpg
489.984	2.982	1	regulate	Run1	regulate/STIM_022.jpg
495.302	2.513	1	regulate	Run1	regulate/STIM_022.jpg
501.858	3.116	1	regulate	Run1	regulate/STIM_023.jpg
508.034	2.807	1	regulate	Run1	regulate/STIM_023.jpg
513.887	2.327	1	regulate	Run1	regulate/STIM_023.jpg
518.745	2.384	1	regulate	Run1	regulate/STIM_023.jpg
525.206	2.894	1	regulate	Run1	regulate/STIM_024.jpg
530.873	2.42	0	regulate	Run1	regulate/STIM_024.jpg
536.308	1.976	0	regulate	Run1	regulate/STIM_024.jpg
541.598	2.718	1	regulate	Run1	regulate/STIM_024.jpg
547.047	3.26	1	regulate	Run1	regulate/STIM_025.jpg
554.086	3.205	1	regulate	Run1	regulate/STIM_025.jpg
561.067	2.442	1	regulate	Run1	regulate/STIM_025.jpg
566.433	1.886	0	regulate	Run1	regulate/STIM_025.jpg
570.69	2.778	1	regulate	Run1	regulate/STIM_026.jpg
575.814	2.094	1	regulate	Run1	regulate/STIM_026.jpg
581.589	2.58	1	regulate	Run1	regulate/STIM_026.jpg
586.485	1.384	1	regulate	Run1	regulate/STIM_026.jpg
591.452	2.235	1	regulate	Run1	regulate/STIM_027.jpg
596.308	1.496	1	regulate	Run1	regulate/STIM_027.jpg
600.578	2.74	1	regulate	Run1	regulate/STIM_027.jpg
606.769	1.234	1	regulate	Run1	regulate/STIM_027.jpg
611.379	2.049	1	regulate	Run1	regulate/STIM_028.jpg
616.673	2.199	1	regulate	Run1	regulate/STIM_028.jpg
621.849	2.985	1	regulate	Run1	regulate/STIM_028.jpg
628.783	2.842	1	regulate	Run1	regulate/STIM_028.jpg
635.416	2.467	0	regulate	Run1	regulate/STIM_029.jpg
640.962	1.703	1	regulate	Run1	regulate/STIM_029.jpg
645.361	1.635	0	regulate	Run1	regulate/STIM_029.jpg
650.215	1.322	1	regulate	Run1	regulate/STIM_029.jpg
655.044	1.315	1	observe	Run1	observe/STIM_000.jpg
658.61	1.275	1	observe	Run1	observe/STIM_000.jpg
662.998	1.013	0	observe	Run1	observe/STIM_000.jpg
666.665	1.481	1	observe	Run1	observe/STIM_000.jpg
671.743	0.868	1	observe	Run1	observe/STIM_001.jpg
674.773	1.372	1	observe	Run1	observe/STIM_001.jpg
679.548	0.949	1	observe	Run1	observe/STIM_001.jpg
682.555	0.808	1	observe	Run1	observe/STIM_001.jpg
686.324	0.954	1	observe	Run1	observe/STIM_002.jpg
689.508	1.49	1	observe	Run1	observe/STIM_002.jpg
693.353	1.427	1	observe	Run1	observe/STIM_002.jpg
697.172	1.517	1	observe	Run1	observe/STIM_002.jpg
702.403	0.917	1	observe	Run1	observe/STIM_003.jpg
706.468	0.901	1	observe	Run1	observe/STIM_003.jpg
709.687	1.104	1	observe	Run1	observe/STIM_003.jpg
714.785	1.207	1	observe	Run1	observe/STIM_003.jpg
719.623	1.092	1	observe	Run1	observe/STIM_004.jpg
724.034	1.111	0	observe	Run1	observe/STIM_004.jpg
727.835	1.052	1	observe	Run1	observe/STIM_004.jpg
731.01	1.503	1	observe	Run1	observe/STIM_004.jpg
735.511	1.192	1	observe	Run1	observe/STIM_005.jpg
739.495	0.98	0	observe	Run1	observe/STIM_005.jpg
743.955	0.928	0	observe	Run1	observe/STIM_005.jpg
747.401	0.903	1	observe	Run1	observe/STIM_005.jpg
750.591	0.82	1	observe	Run1	observe/STIM_006.jpg
754.74	1.292	1	observe	Run1	observe/STIM_006.jpg
758.283	1.069	1	observe	Run1	observe/STIM_006.jpg
763.33	0.79	0	observe	Run1	observe/STIM_006.jpg
767.588	1.179	1	observe	Run1	observe/STIM_007.jpg
771.686	0.856	1	observe	Run1	observe/STIM_007.jpg
774.579	0.941	1	observe	Run1	observe/STIM_007.jpg
778.538	1.425	1	observe	Run1	observe/STIM_007.jpg
782.025	1.351	1	observe	Run1	observe/STIM_008.jpg
786.415	0.91	1	observe	Run1	observe/STIM_008.jpg
791.059	1.132	1	observe	Run1	observe/STIM_008.jpg
796.198	1.297	1	observe	Run1	observe/STIM_008.jpg
800.175	0.802	1	observe	Run1	observe/STIM_009.jpg
804.517	0.871	1	observe	Run1	observe/STIM_009.jpg
808.431	0.774	1	observe	Run1	observe/STIM_009.jpg
812.913	0.932	1	observe	Run1	observe/STIM_009.jpg
817.231	1.278	1	observe	Run1	observe/STIM_010.jpg
821.179	1.514	1	observe	Run1	observe/STIM_010.jpg
824.813	1.466	1	observe	Run1	observe/STIM_010.jpg
829.343	0.851	1	observe	Run1	observe/STIM_010.jpg
832.304	1.534	1	observe	Run1	observe/STIM_011.jpg
836.671	1.328	1	observe	Run1	observe/STIM_011.jpg
840.18	1.233	1	observe	Run1	observe/STIM_011.jpg
844.137	1.417	1	observe	Run1	observe/STIM_011.jpg
847.899	0.95	1	observe	Run1	observe/STIM_012.jpg
852.648	0.774	1	observe	Run1	observe/STIM_012.jpg
856.698	0.868	0	observe	Run1	observe/STIM_012.jpg
861.046	0.834	0	observe	Run1	observe/STIM_012.jpg
863.945	1.098	1	observe	Run1	observe/STIM_013.jpg
868.869	1.047	1	observe	Run1	observe/STIM_013.jpg
872.228	1.012	0	observe	Run1	observe/STIM_013.jpg
876.052	1.435	1	observe	Run1	observe/STIM_013.jpg
880.021	1.459	1	observe	Run1	observe/STIM_014.jpg
884.131	1.34	1	observe	Run1	observe/STIM_014.jpg
888.936	1.292	1	observe	Run1	observe/STIM_014.jpg
892.746	1.452	1	observe	Run1	observe/STIM_014.jpg
897.845	0.951	1	observe	Run1	observe/STIM_015.jpg
901.279	1.402	1	observe	Run1	observe/STIM_015.jpg
906.628	1.053	1	observe	Run1	observe/STIM_015.jpg
911.005	0.994	1	observe	Run1	observe/STIM_015.jpg
915.534	0.904	1	observe	Run1	observe/STIM_016.jpg
918.62	0.915	1	observe	Run1	observe/STIM_016.jpg
922.547	0.865	1	observe	Run1	observe/STIM_016.jpg
925.494	1.375	1	observe	Run1	observe/STIM_016.jpg
929.443	1.05	0	observe	Run1	observe/STIM_017.jpg
934.34	1.034	1	observe	Run1	observe/STIM_017.jpg
938.776	0.813	1	observe	Run1	observe/STIM_017.jpg
943.39	1.528	1	observe	Run1	observe/STIM_017.jpg
948.054	1.327	1	observe	Run1	observe/STIM_018.jpg
952.104	1.143	1	observe	Run1	observe/STIM_018.jpg
956.3	1.196	1	observe	Run1	observe/STIM_018.jpg
960.523	0.846	1	observe	Run1	observe/STIM_018.jpg
964.253	1.089	1	observe	Run1	observe/STIM_019.jpg
969.107	0.949	1	observe	Run1	observe/STIM_019.jpg
973.665	1.095	1	observe	Run1	observe/STIM_019.jpg
978.795	1.123	1	observe	Run1	observe/STIM_019.jpg
982.572	2.575	1	regulate	Run2	regulate/STIM_000.jpg
988.382	2.356	1	regulate	Run2	regulate/STIM_000.jpg
993.067	2.074	1	regulate	Run2	regulate/STIM_000.jpg
998.002	1.368	1	regulate	Run2	regulate/STIM_000.jpg
1003.153	1.507	0	regulate	Run2	regulate/STIM_001.jpg
1007.727	2.555	1	regulate	Run2	regulate/STIM_001.jpg
1012.717	2.003	1	regulate	Run2	regulate/STIM_001.jpg
1018.065	2.017	1	regulate	Run2	regulate/STIM_001.jpg
1023.536	1.256	1	regulate	Run2	regulate/STIM_002.jpg
1027.066	1.793	1	regulate	Run2	regulate/STIM_002.jpg
1031.157	2.331	1	regulate	Run2	regulate/STIM_002.jpg
1035.629	1.163	1	regulate	Run2	regulate/STIM_002.jpg
1040.83	1.282	1	regulate	Run2	regulate/STIM_003.jpg
1046.147	1.771	0	regulate	Run2	regulate/STIM_003.jpg
1050.405	1.883	1	regulate	Run2	regulate/STIM_003.jpg
1054.467	1.368	1	regulate	Run2	regulate/STIM_003.jpg
1059.834	1.9	1	regulate	Run2	regulate/STIM_004.jpg
1064.315	1.252	1	regulate	Run2	regulate/STIM_004.jpg
1068.441	1.159	1	regulate	Run2	regulate/STIM_004.jpg
1073.363	1.386	1	regulate	Run2	regulate/STIM_004.jpg
1077.307	1.706	1	regulate	Run2	regulate/STIM_005.jpg
1081.694	1.376	1	regulate	Run2	regulate/STIM_005.jpg
1086.317	1.331	1	regulate	Run2	regulate/STIM_005.jpg
1089.716	2.132	0	regulate	Run2	regulate/STIM_005.jpg
1095.809	1.732	0	regulate	Run2	regulate/STIM_006.jpg
1100.59	1.363	1	regulate	Run2	regulate/STIM_006.jpg
1104.509	1.707	1	regulate	Run2	regulate/STIM_006.jpg
1108.547	1.684	1	regulate	Run2	regulate/STIM_006.jpg
1113.032	1.428	1	regulate	Run2	regulate/STIM_007.jpg
1118.102	1.694	0	regulate	Run2	regulate/STIM_007.jpg
1123.838	2.17	1	regulate	Run2	regulate/STIM_007.jpg
1129.902	1.771	0	regulate	Run2	regulate/STIM_007.jpg
1133.827	2.735	1	regulate	Run2	regulate/STIM_008.jpg
1140.307	1.624	0	regulate	Run2	regulate/STIM_008.jpg
1144.153	2.047	0	regulate	Run2	regulate/STIM_008.jpg
1149.292	1.437	1	regulate	Run2	regulate/STIM_008.jpg
1153.466	2.644	1	regulate	Run2	regulate/STIM_009.jpg
1159.239	1.195	1	regulate	Run2	regulate/STIM_009.jpg
1164.245	1.769	0	regulate	Run2	regulate/STIM_009.jpg
1170.052	1.319	1	regulate	Run2	regulate/STIM_009.jpg
1174.893	2.244	0	regulate	Run2	regulate/STIM_010.jpg
1180.379	2.483	1	regulate	Run2	regulate/STIM_010.jpg
1184.964	1.969	1	regulate	Run2	regulate/STIM_010.jpg
1190.934	1.44	1	regulate	Run2	regulate/STIM_010.jpg
1194.66	2.249	1	regulate	Run2	regulate/STIM_011.jpg
1200.985	1.501	0	regulate	Run2	regulate/STIM_011.jpg
1204.962	1.113	1	regulate	Run2	regulate/STIM_011.jpg
1209.337	1.546	1	regulate	Run2	regulate/STIM_011.jpg
1214.155	2.594	1	regulate	Run2	regulate/STIM_012.jpg
1220.682	2.676	0	regulate	Run2	regulate/STIM_012.jpg
1227.355	2.518	1	regulate	Run2	regulate/STIM_012.jpg
1232.266	1.741	1	regulate	Run2	regulate/STIM_012.jpg
1236.451	1.293	1	regulate	Run2	regulate/STIM_013.jpg
1240.8	2.406	0	regulate	Run2	regulate/STIM_013.jpg
1245.547	1.924	1	regulate	Run2	regulate/STIM_013.jpg
1249.82	2.26	1	regulate	Run2	regulate/STIM_013.jpg
1255.409	1.854	1	regulate	Run2	regulate/STIM_014.jpg
1261.079	1.742	1	regulate	Run2	regulate/STIM_014.jpg
1265.798	2.491	1	regulate	Run2	regulate/STIM_014.jpg
1270.755	1.432	1	regulate	Run2	regulate/STIM_014.jpg
1274.977	2.553	1	regulate	Run2	regulate/STIM_015.jpg
1280.953	1.174	1	regulate	Run2	regulate/STIM_015.jpg
1285.949	2.212	1	regulate	Run2	regulate/STIM_015.jpg
1290.283	1.298	1	regulate	Run2	regulate/STIM_015.jpg
1294.32	2.319	1	regulate	Run2	regulate/STIM_016.jpg
1300.715	1.452	1	regulate	Run2	regulate/STIM_016.jpg
1305.713	1.138	1	regulate	Run2	regulate/STIM_016.jpg
1310.72	1.908	0	regulate	Run2	regulate/STIM_016.jpg
1316.218	2.271	1	regulate	Run2	regulate/STIM_017.jpg
1322.212	2.688	1	regulate	Run2	regulate/STIM_017.jpg
1327.862	2.418	1	regulate	Run2	regulate/STIM_017.jpg
1334.345	1.587	1	regulate	Run2	regulate/STIM_017.jpg
1338.714	1.622	1	regulate	Run2	regulate/STIM_018.jpg
1343.515	1.548	1	regulate	Run2	regulate/STIM_018.jpg
1347.82	1.468	1	regulate	Run2	regulate/STIM_018.jpg
1353.28	1.62	1	regulate	Run2	regulate/STIM_018.jpg
1357.699	1.24	1	regulate	Run2	regulate/STIM_019.jpg
1361.643	2.404	1	regulate	Run2	regulate/STIM_019.jpg
1366.457	2.451	1	regulate	Run2	regulate/STIM_019.jpg
1372.698	1.654	1	regulate	Run2	regulate/STIM_019.jpg
1377.402	1.723	1	regulate	Run2	regulate/STIM_020.jpg
1382.242	2.685	1	regulate	Run2	regulate/STIM_020.jpg
1388.955	1.463	1	regulate	Run2	regulate/STIM_020.jpg
1393.495	1.856	0	regulate	Run2	regulate/STIM_020.jpg
1399.016	2.122	1	regulate	Run2	regulate/STIM_021.jpg
1404.237	2.659	0	regulate	Run2	regulate/STIM_021.jpg
1409.223	2.057	1	regulate	Run2	regulate/STIM_021.jpg
1414.465	1.689	1	regulate	Run2	regulate/STIM_021.jpg
1419.502	1.294	1	regulate	Run2	regulate/STIM_022.jpg
1423.758	2.488	1	regulate	Run2	regulate/STIM_022.jpg
1429.908	1.786	1	regulate	Run2	regulate/STIM_022.jpg
1434.089	1.882	1	regulate	Run2	regulate/STIM_022.jpg
1438.529	2.264	1	regulate	Run2	regulate/STIM_023.jpg
1443.223	1.466	1	regulate	Run2	regulate/STIM_023.jpg
1448.007	2.208	1	regulate	Run2	regulate/STIM_023.jpg
1453.75	1.991	1	regulate	Run2	regulate/STIM_023.jpg
1459.189	1.962	1	regulate	Run2	regulate/STIM_024.jpg
1465.214	2.011	1	regulate	Run2	regulate/STIM_024.jpg
1469.603	1.092	0	regulate	Run2	regulate/STIM_024.jpg
1473.775	1.737	1	regulate	Run2	regulate/STIM_024.jpg
1479.107	2.662	1	regulate	Run2	regulate/STIM_025.jpg
1484.336	1.894	1	regulate	Run2	regulate/STIM_025.jpg
1490.073	2.312	1	regulate	Run2	regulate/STIM_025.jpg
1494.477	2.098	0	regulate	Run2	regulate/STIM_025.jpg
1499.886	1.753	1	regulate	Run2	regulate/STIM_026.jpg
1504.998	1.442	1	regulate	Run2	regulate/STIM_026.jpg
1510.296	1.126	1	regulate	Run2	regulate/STIM_026.jpg
1515.191	2.104	0	regulate	Run2	regulate/STIM_026.jpg
1520.113	1.26	1	regulate	Run2	regulate/STIM_027.jpg
1525.37	1.288	1	regulate	Run2	regulate/STIM_027.jpg
1530.01	2.286	0	regulate	Run2	regulate/STIM_027.jpg
1534.558	2.115	1	regulate	Run2	regulate/STIM_027.jpg
1540.366	1.876	1	regulate	Run2	regulate/STIM_028.jpg
1544.916	2.253	1	regulate	Run2	regulate/STIM_028.jpg
1550.02	1.836	1	regulate	Run2	regulate/STIM_028.jpg
1555.565	2.219	1	regulate	Run2	regulate/STIM_028.jpg
1561.497	2.257	1	regulate	Run2	regulate/STIM_029.jpg
1566.814	2.039	0	regulate	Run2	regulate/STIM_029.jpg
1572.031	1.242	1	regulate	Run2	regulate/STIM_029.jpg
1575.7	1.306	1	regulate	Run2	regulate/STIM_029.jpg
1579.069	0.784	1	observe	Run2	observe/STIM_000.jpg
1582.329	1.234	1	observe	Run2	observe/STIM_000.jpg
1585.772	0.87	1	observe	Run2	observe/STIM_000.jpg
1589.671	0.778	1	observe	Run2	observe/STIM_000.jpg
1593.073	0.972	0	observe	Run2	observe/STIM_001.jpg
1597.943	1.372	1	observe	Run2	observe/STIM_001.jpg
1602.992	1.215	1	observe	Run2	observe/STIM_001.jpg
1607.339	1.449	1	observe	Run2	observe/STIM_001.jpg
1611.595	1.229	1	observe	Run2	observe/STIM_002.jpg
1616.001	1.341	0	observe	Run2	observe/STIM_002.jpg
1620.066	1.135	1	observe	Run2	observe/STIM_002.jpg
1624.77	0.828	1	observe	Run2	observe/STIM_002.jpg
1627.692	1.282	1	observe	Run2	observe/STIM_003.jpg
1631.227	0.919	1	observe	Run2	observe/STIM_003.jpg
1635.962	1.183	1	observe	Run2	observe/STIM_003.jpg
1639.273	0.952	1	observe	Run2	observe/STIM_003.jpg
1643.764	1.201	1	observe	Run2	observe/STIM_004.jpg
1647.1	1.517	0	observe	Run2	observe/STIM_004.jpg
1652.207	1.196	1	observe	Run2	observe/STIM_004.jpg
1656.032	1.408	0	observe	Run2	observe/STIM_004.jpg
1659.723	1.465	1	observe	Run2	observe/STIM_005.jpg
1665.199	1.397	1	observe	Run2	observe/STIM_005.jpg
1669.531	1.077	1	observe	Run2	observe/STIM_005.jpg
1673.346	1.217	1	observe	Run2	observe/STIM_005.jpg
1676.771	1.05	1	observe	Run2	observe/STIM_006.jpg
1680.541	0.982	1	observe	Run2	observe/STIM_006.jpg
1685.125	0.88	1	observe	Run2	observe/STIM_006.jpg
1688.832	1.399	1	observe	Run2	observe/STIM_006.jpg
1693.001	1.06	1	observe	Run2	observe/STIM_007.jpg
1697.453	0.869	1	observe	Run2	observe/STIM_007.jpg
1700.816	1.322	1	observe	Run2	observe/STIM_007.jpg
1705.796	1.288	0	observe	Run2	observe/STIM_007.jpg
1710.254	0.987	1	observe	Run2	observe/STIM_008.jpg
1713.506	1.0	1	observe	Run2	observe/STIM_008.jpg
1717.918	1.399	0	observe	Run2	observe/STIM_008.jpg
1722.103	1.005	1	observe	Run2	observe/STIM_008.jpg
1725.476	1.195	1	observe	Run2	observe/STIM_009.jpg
1729.864	1.011	1	observe	Run2	observe/STIM_009.jpg
1732.946	0.86	1	observe	Run2	observe/STIM_009.jpg
1736.831	1.12	1	observe	Run2	observe/STIM_009.jpg
1740.611	0.975	1	observe	Run2	observe/STIM_010.jpg
1745.065	0.792	1	observe	Run2	observe/STIM_010.jpg
1749.797	1.153	0	observe	Run2	observe/STIM_010.jpg
1753.104	1.205	1	observe	Run2	observe/STIM_010.jpg
1757.691	1.516	1	observe	Run2	observe/STIM_011.jpg
1762.716	1.335	0	observe	Run2	observe/STIM_011.jpg
1766.434	1.464	1	observe	Run2	observe/STIM_011.jpg
1770.998	1.169	1	observe	Run2	observe/STIM_011.jpg
1774.841	1.267	0	observe	Run2	observe/STIM_012.jpg
1779.624	1.309	1	observe	Run2	observe/STIM_012.jpg
1784.48	1.446	1	observe	Run2	observe/STIM_012.jpg
1788.595	1.515	1	observe	Run2	observe/STIM_012.jpg
1793.908	1.396	1	observe	Run2	observe/STIM_013.jpg
1798.136	1.169	1	observe	Run2	observe/STIM_013.jpg
1801.591	1.192	1	observe	Run2	observe/STIM_013.jpg
1806.482	1.4	0	observe	Run2	observe/STIM_013.jpg
1811.591	0.799	1	observe	Run2	observe/STIM_014.jpg
1814.658	1.086	1	observe	Run2	observe/STIM_014.jpg
1818.715	1.145	1	observe	Run2	observe/STIM_014.jpg
1822.496	1.141	1	observe	Run2	observe/STIM_014.jpg
1826.664	1.544	1	observe	Run2	observe/STIM_015.jpg
1830.718	1.41	1	observe	Run2	observe/STIM_015.jpg
1835.105	1.196	1	observe	Run2	observe/STIM_015.jpg
1838.702	1.446	1	observe	Run2	observe/STIM_015.jpg
1843.928	1.496	1	observe	Run2	observe/STIM_016.jpg
1849.081	1.331	1	observe	Run2	observe/STIM_016.jpg
1854.382	1.174	1	observe	Run2	observe/STIM_016.jpg
1859.316	0.944	1	observe	Run2	observe/STIM_016.jpg
1863.882	1.514	1	observe	Run2	observe/STIM_017.jpg
1867.731	1.064	1	observe	Run2	observe/STIM_017.jpg
1871.972	0.884	1	observe	Run2	observe/STIM_017.jpg
1875.125	0.922	1	observe	Run2	observe/STIM_017.jpg
1879.133	1.078	1	observe	Run2	observe/STIM_018.jpg
1882.626	0.979	1	observe	Run2	observe/STIM_018.jpg
1887.503	1.136	1	observe	Run2	observe/STIM_018.jpg
1891.055	1.514	1	observe	Run2	observe/STIM_018.jpg
1895.439	1.365	1	observe	Run2	observe/STIM_019.jpg
1899.679	1.386	1	observe	Run2	observe/STIM_019.jpg
1904.922	1.509	1	observe	Run2	observe/STIM_019.jpg
1909.179	1.47	1	observe	Run2	observe/STIM_019.jpg
1914.685	2.304	1	regulate	Run3	regulate/STIM_000.jpg
1919.911	1.878	1	regulate	Run3	regulate/STIM_000.jpg
1925.178	1.773	1	regulate	Run3	regulate/STIM_000.jpg
1929.076	1.371	1	regulate	Run3	regulate/STIM_000.jpg
1932.669	2.192	1	regulate	Run3	regulate/STIM_001.jpg
1938.121	1.295	1	regulate	Run3	regulate/STIM_001.jpg
1941.617	2.349	1	regulate	Run3	regulate/STIM_001.jpg
1946.302	1.387	1	regulate	Run3	regulate/STIM_001.jpg
1950.917	1.82	1	regulate	Run3	regulate/STIM_002.jpg
1954.942	2.198	1	regulate	Run3	regulate/STIM_002.jpg
1960.366	1.251	1	regulate	Run3	regulate/STIM_002.jpg
1963.795	2.068	1	regulate	Run3	regulate/STIM_002.jpg
1968.979	2.05	1	regulate	Run3	regulate/STIM_003.jpg
1973.99	1.498	1	regulate	Run3	regulate/STIM_003.jpg
1978.154	2.073	1	regulate	Run3	regulate/STIM_003.jpg
1983.609	1.014	1	regulate	Run3	regulate/STIM_003.jpg
1987.235	1.558	1	regulate	Run3	regulate/STIM_004.jpg
1992.226	1.182	1	regulate	Run3	regulate/STIM_004.jpg
1996.001	1.683	1	regulate	Run3	regulate/STIM_004.jpg
2000.471	1.761	1	regulate	Run3	regulate/STIM_004.jpg
2005.058	1.581	1	regulate	Run3	regulate/STIM_005.jpg
2009.73	1.989	1	regulate	Run3	regulate/STIM_005.jpg
2015.419	2.004	1	regulate	Run3	regulate/STIM_005.jpg
2020.839	1.829	1	regulate	Run3	regulate/STIM_005.jpg
2026.715	2.23	1	regulate	Run3	regulate/STIM_006.jpg
2031.284	1.336	1	regulate	Run3	regulate/STIM_006.jpg
2035.654	1.4	1	regulate	Run3	regulate/STIM_006.jpg
2040.696	1.671	1	regulate	Run3	regulate/STIM_006.jpg
2046.204	1.699	1	regulate	Run3	regulate/STIM_007.jpg
2050.005	2.159	1	regulate	Run3	regulate/STIM_007.jpg
2054.818	1.398	1	regulate	Run3	regulate/STIM_007.jpg
2058.504	1.723	1	regulate	Run3	regulate/STIM_007.jpg
2064.122	1.962	1	regulate	Run3	regulate/STIM_008.jpg
2069.812	1.616	1	regulate	Run3	regulate/STIM_008.jpg
2074.931	1.77	1	regulate	Run3	regulate/STIM_008.jpg
2080.641	1.64	1	regulate	Run3	regulate/STIM_008.jpg
2085.999	1.618	1	regulate	Run3	regulate/STIM_009.jpg
2090.536	2.0	1	regulate	Run3	regulate/STIM_009.jpg
2095.588	2.259	1	regulate	Run3	regulate/STIM_009.jpg
2101.014	1.97	1	regulate	Run3	regulate/STIM_009.jpg
2106.185	1.384	1	regulate	Run3	regulate/STIM_010.jpg
2110.117	1.915	1	regulate	Run3	regulate/STIM_010.jpg
2114.375	1.74	0	regulate	Run3	regulate/STIM_010.jpg
2119.038	1.769	0	regulate	Run3	regulate/STIM_010.jpg
2123.944	1.539	1	regulate	Run3	regulate/STIM_011.jpg
2129.389	1.326	1	regulate	Run3	regulate/STIM_011.jpg
2133.928	1.81	1	regulate	Run3	regulate/STIM_011.jpg
2138.853	1.897	0	regulate	Run3	regulate/STIM_011.jpg
2144.281	1.702	0	regulate	Run3	regulate/STIM_012.jpg
2149.438	1.593	1	regulate	Run3	regulate/STIM_012.jpg
2153.979	2.186	1	regulate	Run3	regulate/STIM_012.jpg
2158.698	1.78	1	regulate	Run3	regulate/STIM_012.jpg
2164.288	1.872	1	regulate	Run3	regulate/STIM_013.jpg
2170.076	1.737	1	regulate	Run3	regulate/STIM_013.jpg
2174.581	2.163	0	regulate	Run3	regulate/STIM_013.jpg
2179.156	1.394	1	regulate	Run3	regulate/STIM_013.jpg
2182.864	1.873	1	regulate	Run3	regulate/STIM_014.jpg
2188.406	1.777	1	regulate	Run3	regulate/STIM_014.jpg
2193.754	1.02	1	regulate	Run3	regulate/STIM_014.jpg
2198.037	1.333	1	regulate	Run3	regulate/STIM_014.jpg
2202.037	1.304	1	regulate	Run3	regulate/STIM_015.jpg
2206.907	1.228	1	regulate	Run3	regulate/STIM_015.jpg
2211.526	2.097	1	regulate	Run3	regulate/STIM_015.jpg
2215.806	1.362	1	regulate	Run3	regulate/STIM_015.jpg
2220.05	1.486	1	regulate	Run3	regulate/STIM_016.jpg
2223.693	1.499	1	regulate	Run3	regulate/STIM_016.jpg
2227.949	1.476	1	regulate	Run3	regulate/STIM_016.jpg
2232.448	1.792	1	regulate	Run3	regulate/STIM_016.jpg
2236.612	1.16	1	regulate	Run3	regulate/STIM_017.jpg
2240.576	2.011	1	regulate	Run3	regulate/STIM_017.jpg
2244.729	1.342	1	regulate	Run3	regulate/STIM_017.jpg
2249.584	1.526	1	regulate	Run3	regulate/STIM_017.jpg
2253.353	1.764	1	regulate	Run3	regulate/STIM_018.jpg
2259.147	2.293	1	regulate	Run3	regulate/STIM_018.jpg
2264.437	1.472	1	regulate	Run3	regulate/STIM_018.jpg
2269.669	1.44	1	regulate	Run3	regulate/STIM_018.jpg
2274.302	1.12	1	regulate	Run3	regulate/STIM_019.jpg
2278.84	1.928	1	regulate	Run3	regulate/STIM_019.jpg
2283.395	1.774	1	regulate	Run3	regulate/STIM_019.jpg
2287.596	1.356	1	regulate	Run3	regulate/STIM_019.jpg
2292.825	1.859	0	regulate	Run3	regulate/STIM_020.jpg
2296.815	1.362	1	regulate	Run3	regulate/STIM_020.jpg
2301.266	2.131	1	regulate	Run3	regulate/STIM_020.jpg
2307.074	2.143	1	regulate	Run3	regulate/STIM_020.jpg
2312.79	2.343	1	regulate	Run3	regulate/STIM_021.jpg
2317.472	1.117	1	regulate	Run3	regulate/STIM_021.jpg
2321.625	1.119	1	regulate	Run3	regulate/STIM_021.jpg
2326.35	1.955	1	regulate	Run3	regulate/STIM_021.jpg
2331.505	2.255	1	regulate	Run3	regulate/STIM_022.jpg
2336.017	1.516	1	regulate	Run3	regulate/STIM_022.jpg
2341.425	2.045	1	regulate	Run3	regulate/STIM_022.jpg
2345.833	1.388	1	regulate	Run3	regulate/STIM_022.jpg
2350.593	2.145	1	regulate	Run3	regulate/STIM_023.jpg
2355.368	1.942	1	regulate	Run3	regulate/STIM_023.jpg
2359.415	1.025	1	regulate	Run3	regulate/STIM_023.jpg
2363.742	2.053	1	regulate	Run3	regulate/STIM_023.jpg
2368.482	1.808	1	regulate	Run3	regulate/STIM_024.jpg
2372.969	1.853	1	regulate	Run3	regulate/STIM_024.jpg
2378.648	1.877	1	regulate	Run3	regulate/STIM_024.jpg
2384.139	1.383	1	regulate	Run3	regulate/STIM_024.jpg
2388.51	1.454	1	regulate	Run3	regulate/STIM_025.jpg
2394.015	1.91	1	regulate	Run3	regulate/STIM_025.jpg
2398.784	1.996	1	regulate	Run3	regulate/STIM_025.jpg
2403.004	2.291	1	regulate	Run3	regulate/STIM_025.jpg
2408.87	1.366	1	regulate	Run3	regulate/STIM_026.jpg
2413.74	1.806	0	regulate	Run3	regulate/STIM_026.jpg
2418.603	1.604	1	regulate	Run3	regulate/STIM_026.jpg
2422.312	2.32	1	regulate	Run3	regulate/STIM_026.jpg
2427.756	1.021	1	regulate	Run3	regulate/STIM_027.jpg
2431.147	1.603	1	regulate	Run3	regulate/STIM_027.jpg
2435.729	1.354	1	regulate	Run3	regulate/STIM_027.jpg
2439.751	1.746	1	regulate	Run3	regulate/STIM_027.jpg
2444.3	1.238	1	regulate	Run3	regulate/STIM_028.jpg
2448.023	1.078	0	regulate	Run3	regulate/STIM_028.jpg
2452.675	2.304	1	regulate	Run3	regulate/STIM_028.jpg
2457.205	2.177	1	regulate	Run3	regulate/STIM_028.jpg
2461.891	2.052	1	regulate	Run3	regulate/STIM_029.jpg
2467.65	1.217	1	regulate	Run3	regulate/STIM_029.jpg
2471.5	1.291	1	regulate	Run3	regulate/STIM_029.jpg
2476.024	1.152	1	regulate	Run3	regulate/STIM_029.jpg
2480.938	1.52	1	observe	Run3	observe/STIM_000.jpg
2485.047	0.856	1	observe	Run3	observe/STIM_000.jpg
2488.634	1.12	1	observe	Run3	observe/STIM_000.jpg
2492.371	1.429	1	observe	Run3	observe/STIM_000.jpg
2495.958	1.043	1	observe	Run3	observe/STIM_001.jpg
2499.723	1.209	1	observe	Run3	observe/STIM_001.jpg
2504.083	0.961	1	observe	Run3	observe/STIM_001.jpg
2507.861	0.793	1	observe	Run3	observe/STIM_001.jpg
2512.123	1.147	1	observe	Run3	observe/STIM_002.jpg
2517.207	1.246	0	observe	Run3	observe/STIM_002.jpg
2522.026	1.363	1	observe	Run3	observe/STIM_002.jpg
2527.431	1.294	1	observe	Run3	observe/STIM_002.jpg
2531.858	1.078	1	observe	Run3	observe/STIM_003.jpg
2536.694	1.016	1	observe	Run3	observe/STIM_003.jpg
2540.417	0.785	0	observe	Run3	observe/STIM_003.jpg
2544.717	0.849	1	observe	Run3	observe/STIM_003.jpg
2548.199	1.295	1	observe	Run3	observe/STIM_004.jpg
2552.33	1.148	1	observe	Run3	observe/STIM_004.jpg
2557.469	1.457	1	observe	Run3	observe/STIM_004.jpg
2561.26	0.996	1	observe	Run3	observe/STIM_004.jpg
2565.594	1.092	1	observe	Run3	observe/STIM_005.jpg
2570.298	1.463	1	observe	Run3	observe/STIM_005.jpg
2575.434	1.419	1	observe	Run3	observe/STIM_005.jpg
2580.344	1.058	1	observe	Run3	observe/STIM_005.jpg
2584.418	1.137	1	observe	Run3	observe/STIM_006.jpg
2589.389	1.122	1	observe	Run3	observe/STIM_006.jpg
2594.328	0.781	1	observe	Run3	observe/STIM_006.jpg
2597.813	1.318	1	observe	Run3	observe/STIM_006.jpg
2603.155	1.004	1	observe	Run3	observe/STIM_007.jpg
2606.497	1.505	1	observe	Run3	observe/STIM_007.jpg
2611.17	0.817	1	observe	Run3	observe/STIM_007.jpg
2615.293	1.105	1	observe	Run3	observe/STIM_007.jpg
2619.04	1.163	0	observe	Run3	observe/STIM_008.jpg
2622.982	1.446	0	observe	Run3	observe/STIM_008.jpg
2627.483	1.087	1	observe	Run3	observe/STIM_008.jpg
2632.203	0.955	1	observe	Run3	observe/STIM_008.jpg
2635.504	1.089	1	observe	Run3	observe/STIM_009.jpg
2639.445	1.322	1	observe	Run3	observe/STIM_009.jpg
2643.241	1.542	1	observe	Run3	observe/STIM_009.jpg
2648.529	1.46	1	observe	Run3	observe/STIM_009.jpg
2652.57	0.905	1	observe	Run3	observe/STIM_010.jpg
2656.546	1.263	1	observe	Run3	observe/STIM_010.jpg
2660.081	1.267	1	observe	Run3	observe/STIM_010.jpg
2664.503	0.819	1	observe	Run3	observe/STIM_010.jpg
2668.997	0.927	1	observe	Run3	observe/STIM_011.jpg
2673.285	0.88	1	observe	Run3	observe/STIM_011.jpg
2677.395	1.434	0	observe	Run3	observe/STIM_011.jpg
2681.19	0.817	1	observe	Run3	observe/STIM_011.jpg
2684.668	1.352	1	observe	Run3	observe/STIM_012.jpg
2689.74	1.093	1	observe	Run3	observe/STIM_012.jpg
2693.214	1.449	1	observe	Run3	observe/STIM_012.jpg
2698.445	1.532	1	observe	Run3	observe/STIM_012.jpg
2702.148	0.977	1	observe	Run3	observe/STIM_013.jpg
2705.215	1.181	1	observe	Run3	observe/STIM_013.jpg
2709.881	1.177	1	observe	Run3	observe/STIM_013.jpg
2714.061	1.525	1	observe	Run3	observe/STIM_013.jpg
2717.708	0.792	0	observe	Run3	observe/STIM_014.jpg
2721.899	1.426	1	observe	Run3	observe/STIM_014.jpg
2727.246	1.185	0	observe	Run3	observe/STIM_014.jpg
2731.544	0.848	1	observe	Run3	observe/STIM_014.jpg
2735.779	1.299	1	observe	Run3	observe/STIM_015.jpg
2740.728	1.177	1	observe	Run3	observe/STIM_015.jpg
2745.305	1.319	1	observe	Run3	observe/STIM_015.jpg
2750.132	1.354	1	observe	Run3	observe/STIM_015.jpg
2754.917	1.236	1	observe	Run3	observe/STIM_016.jpg
2758.321	1.169	1	observe	Run3	observe/STIM_016.jpg
2763.1	0.913	1	observe	Run3	observe/STIM_016.jpg
2767.891	1.543	1	observe	Run3	observe/STIM_016.jpg
2771.885	1.168	0	observe	Run3	observe/STIM_017.jpg
2776.414	1.232	0	observe	Run3	observe/STIM_017.jpg
2781.545	1.096	1	observe	Run3	observe/STIM_017.jpg
2785.987	0.942	1	observe	Run3	observe/STIM_017.jpg
2790.749	0.916	1	observe	Run3	observe/STIM_018.jpg
2795.067	0.879	0	observe	Run3	observe/STIM_018.jpg
2798.574	1.529	1	observe	Run3	observe/STIM_018.jpg
2802.664	0.97	1	observe	Run3	observe/STIM_018.jpg
2805.964	1.064	0	observe	Run3	observe/STIM_019.jpg
2810.986	1.183	1	observe	Run3	observe/STIM_019.jpg
2816.081	1.215	1	observe	Run3	observe/STIM_019.jpg
2820.45	1.098	1	observe	Run3	observe/STIM_019.jpg
