onset	duration	accuracy	trial_type	learning_stage	stimulus
0.0	2.424	correct	regulate	Run1	regulate/STIM_000.jpg
6.091	2.726	correct	regulate	Run1	regulate/STIM_000.jpg
11.537	1.704	correct	regulate	Run1	regulate/STIM_000.jpg
15.671	1.112	correct	regulate	Run1	regulate/STIM_000.jpg
20.733	2.322	correct	regulate	Run1	regulate/STIM_001.jpg
27.044	1.529	correct	regulate	Run1	regulate/STIM_001.jpg
31.877	2.493	correct	regulate	Run1	regulate/STIM_001.jpg
38.022	2.073	correct	regulate	Run1	regulate/STIM_001.jpg
44.0	2.761	correct	regulate	Run1	regulate/STIM_002.jpg
49.028	2.596	correct	regulate	Run1	regulate/STIM_002.jpg
53.782	2.302	correct	regulate	Run1	regulate/STIM_002.jpg
59.129	1.57	correct	regulate	Run1	regulate/STIM_002.jpg
63.502	1.626	correct	regulate	Run1	regulate/STIM_003.jpg
68.539	1.912	correct	regulate	Run1	regulate/STIM_003.jpg
72.57	1.801	correct	regulate	Run1	regulate/STIM_003.jpg
77.404	1.891	correct	regulate	Run1	regulate/STIM_003.jpg
82.526	2.086	correct	regulate	Run1	regulate/STIM_004.jpg
88.506	2.469	correct	regulate	Run1	regulate/STIM_004.jpg
94.247	1.503	correct	regulate	Run1	regulate/STIM_004.jpg
98.211	2.421	correct	regulate	Run1	regulate/STIM_004.jpg
102.962	1.508	correct	regulate	Run1	regulate/STIM_005.jpg
107.081	2.816	incorrect	regulate	Run1	regulate/STIM_005.jpg
111.939	1.834	correct	regulate	Run1	regulate/STIM_005.jpg
116.112	1.275	correct	regulate	Run1	regulate/STIM_005.jpg
120.766	3.02	incorrect	regulate	Run1	regulate/STIM_006.jpg
126.144	2.237	correct	regulate	Run1	regulate/STIM_006.jpg
132.158	1.544	incorrect	regulate	Run1	regulate/STIM_006.jpg
136.06	2.446	correct	regulate	Run1	regulate/STIM_006.jpg
141.892	1.316	correct	regulate	Run1	regulate/STIM_007.jpg
146.487	1.357	correct	regulate	Run1	regulate/STIM_007.jpg
151.119	2.037	correct	regulate	Run1	regulate/STIM_007.jpg
155.751	2.296	correct	regulate	Run1	regulate/STIM_007.jpg
161.4	2.287	correct	regulate	Run1	regulate/STIM_008.jpg
165.92	1.979	correct	regulate	Run1	regulate/STIM_008.jpg
169.998	1.396	correct	regulate	Run1	regulate/STIM_008.jpg
175.332	2.263	correct	regulate	Run1	regulate/STIM_008.jpg
179.865	2.734	correct	regulate	Run1	regulate/STIM_009.jpg
185.489	1.698	correct	regulate	Run1	regulate/STIM_009.jpg
189.651	1.893	correct	regulate	Run1	regulate/STIM_009.jpg
194.072	2.556	correct	regulate	Run1	regulate/STIM_009.jpg
200.406	1.613	correct	regulate	Run1	regulate/STIM_010.jpg
204.202	2.005	correct	regulate	Run1	regulate/STIM_010.jpg
208.236	1.516	correct	regulate	Run1	regulate/STIM_010.jpg
212.523	1.461	correct	regulate	Run1	regulate/STIM_010.jpg
216.885	1.446	correct	regulate	Run1	regulate/STIM_011.jpg
221.057	1.871	correct	regulate	Run1	regulate/STIM_011.jpg
225.976	2.44	correct	regulate	Run1	regulate/STIM_011.jpg
232.415	1.135	correct	regulate	Run1	regulate/STIM_011.jpg
236.704	1.784	correct	regulate	Run1	regulate/STIM_012.jpg
242.084	2.754	incorrect	regulate	Run1	regulate/STIM_012.jpg
247.745	1.676	correct	regulate	Run1	regulate/STIM_012.jpg
251.895	2.023	correct	regulate	Run1	regulate/STIM_012.jpg
257.212	1.747	incorrect	regulate	Run1	regulate/STIM_013.jpg
262.175	1.858	correct	regulate	Run1	regulate/STIM_013.jpg
266.116	1.885	correct	regulate	Run1	regulate/STIM_013.jpg
270.244	2.551	correct	regulate	Run1	regulate/STIM_013.jpg
275.785	2.42	correct	regulate	Run1	regulate/STIM_014.jpg
281.3	2.544	correct	regulate	Run1	regulate/STIM_014.jpg
287.444	1.778	correct	regulate	Run1	regulate/STIM_014.jpg
292.024	1.444	correct	regulate	Run1	regulate/STIM_014.jpg
296.57	2.547	correct	regulate	Run1	regulate/STIM_015.jpg
302.141	2.637	correct	regulate	Run1	regulate/STIM_015.jpg
307.051	2.305	correct	regulate	Run1	regulate/STIM_015.jpg
313.322	1.621	correct	regulate	Run1	regulate/STIM_015.jpg
317.884	1.564	correct	regulate	Run1	regulate/STIM_016.jpg
322.17	1.66	correct	regulate	Run1	regulate/STIM_016.jpg
327.583	2.363	correct	regulate	Run1	regulate/STIM_016.jpg
333.299	2.223	correct	regulate	Run1	regulate/STIM_016.jpg
337.762	2.777	correct	regulate	Run1	regulate/STIM_017.jpg
344.391	2.062	correct	regulate	Run1	regulate/STIM_017.jpg
350.19	2.37	correct	regulate	Run1	regulate/STIM_017.jpg
356.021	1.971	correct	regulate	Run1	regulate/STIM_017.jpg
360.111	2.298	correct	regulate	Run1	regulate/STIM_018.jpg
365.217	1.96	correct	regulate	Run1	regulate/STIM_018.jpg
369.477	1.489	correct	regulate	Run1	regulate/STIM_018.jpg
372.97	1.446	correct	regulate	Run1	regulate/STIM_018.jpg
377.623	2.801	correct	regulate	Run1	regulate/STIM_019.jpg
383.415	2.357	incorrect	regulate	Run1	regulate/STIM_019.jpg
389.199	1.206	correct	regulate	Run1	regulate/STIM_019.jpg
393.725	2.36	correct	regulate	Run1	regulate/STIM_019.jpg
398.524	2.4	correct	regulate	Run1	regulate/STIM_020.jpg
404.768	1.804	correct	regulate	Run1	regulate/STIM_020.jpg
409.786	1.58	correct	regulate	Run1	regulate/STIM_020.jpg
414.243	2.145	correct	regulate	Run1	regulate/STIM_020.jpg
419.109	2.9	correct	regulate	Run1	regulate/STIM_021.jpg
425.811	2.871	correct	regulate	Run1	regulate/STIM_021.jpg
432.143	1.639	correct	regulate	Run1	regulate/STIM_021.jpg
436.076	1.905	correct	regulate	Run1	regulate/STIM_021.jpg
440.983	2.544	correct	regulate	Run1	regulate/STIM_022.jpg
445.747	1.455	correct	regulate	Run1	regulate/STIM_022.jpg
449.884	2.069	correct	regulate	Run1	regulate/STIM_022.jpg
454.617	1.308	correct	regulate	Run1	regulate/STIM_022.jpg
458.062	1.746	correct	regulate	Run1	regulate/STIM_023.jpg
462.432	1.539	correct	regulate	Run1	regulate/STIM_023.jpg
467.134	2.628	correct	regulate	Run1	regulate/STIM_023.jpg
473.048	1.25	correct	regulate	Run1	regulate/STIM_023.jpg
477.971	1.371	correct	regulate	Run1	regulate/STIM_024.jpg
481.781	2.738	correct	regulate	Run1	regulate/STIM_024.jpg
488.439	2.032	correct	regulate	Run1	regulate/STIM_024.jpg
493.622	2.268	correct	regulate	Run1	regulate/STIM_024.jpg
499.057	2.514	correct	regulate	Run1	regulate/STIM_025.jpg
505.353	1.278	correct	regulate	Run1	regulate/STIM_025.jpg
508.735	1.748	correct	regulate	Run1	regulate/STIM_025.jpg
514.268	2.493	correct	regulate	Run1	regulate/STIM_025.jpg
520.039	2.117	correct	regulate	Run1	regulate/STIM_026.jpg
524.564	1.687	correct	regulate	Run1	regulate/STIM_026.jpg
529.973	1.676	correct	regulate	Run1	regulate/STIM_026.jpg
535.384	1.178	correct	regulate	Run1	regulate/STIM_026.jpg
539.094	2.443	correct	regulate	Run1	regulate/STIM_027.jpg
543.863	2.228	correct	regulate	Run1	regulate/STIM_027.jpg
549.906	1.374	correct	regulate	Run1	regulate/STIM_027.jpg
553.506	2.401	correct	regulate	Run1	regulate/STIM_027.jpg
559.742	2.26	correct	regulate	Run1	regulate/STIM_028.jpg
565.989	2.575	correct	regulate	Run1	regulate/STIM_028.jpg
572.275	1.977	correct	regulate	Run1	regulate/STIM_028.jpg
578.183	2.456	correct	regulate	Run1	regulate/STIM_028.jpg
583.877	2.658	incorrect	regulate	Run1	regulate/STIM_029.jpg
588.838	2.017	correct	regulate	Run1	regulate/STIM_029.jpg
593.619	2.351	incorrect	regulate	Run1	regulate/STIM_029.jpg
598.937	2.48	correct	regulate	Run1	regulate/STIM_029.jpg
604.792	1.268	correct	observe	Run1	observe/STIM_000.jpg
608.35	1.221	correct	observe	Run1	observe/STIM_000.jpg
611.581	1.194	incorrect	observe	Run1	observe/STIM_000.jpg
615.531	1.043	correct	observe	Run1	observe/STIM_000.jpg
618.796	0.863	correct	observe	Run1	observe/STIM_001.jpg
621.888	1.358	correct	observe	Run1	observe/STIM_001.jpg
625.387	1.21	correct	observe	Run1	observe/STIM_001.jpg
628.8	1.116	correct	observe	Run1	observe/STIM_001.jpg
632.735	0.968	correct	observe	Run1	observe/STIM_002.jpg
636.551	1.329	correct	observe	Run1	observe/STIM_002.jpg
640.258	0.981	correct	observe	Run1	observe/STIM_002.jpg
644.759	0.981	correct	observe	Run1	observe/STIM_002.jpg
649.375	1.272	correct	observe	Run1	observe/STIM_003.jpg
653.471	1.305	correct	observe	Run1	observe/STIM_003.jpg
657.879	0.906	correct	observe	Run1	observe/STIM_003.jpg
661.223	1.275	correct	observe	Run1	observe/STIM_003.jpg
665.219	0.696	correct	observe	Run1	observe/STIM_004.jpg
669.666	1.161	correct	observe	Run1	observe/STIM_004.jpg
674.761	1.144	correct	observe	Run1	observe/STIM_004.jpg
678.434	1.221	correct	observe	Run1	observe/STIM_004.jpg
682.13	0.708	correct	observe	Run1	observe/STIM_005.jpg
685.006	1.091	correct	observe	Run1	observe/STIM_005.jpg
689.876	1.23	incorrect	observe	Run1	observe/STIM_005.jpg
693.974	0.803	correct	observe	Run1	observe/STIM_005.jpg
697.415	0.945	correct	observe	Run1	observe/STIM_006.jpg
701.944	1.209	correct	observe	Run1	observe/STIM_006.jpg
706.37	0.795	correct	observe	Run1	observe/STIM_006.jpg
709.365	1.341	correct	observe	Run1	observe/STIM_006.jpg
712.833	0.711	correct	observe	Run1	observe/STIM_007.jpg
716.277	1.275	correct	observe	Run1	observe/STIM_007.jpg
719.894	1.097	correct	observe	Run1	observe/STIM_007.jpg
724.884	0.957	correct	observe	Run1	observe/STIM_007.jpg
729.303	0.982	correct	observe	Run1	observe/STIM_008.jpg
733.648	0.861	correct	observe	Run1	observe/STIM_008.jpg
736.922	1.222	correct	observe	Run1	observe/STIM_008.jpg
741.588	1.372	correct	observe	Run1	observe/STIM_008.jpg
745.839	1.212	correct	observe	Run1	observe/STIM_009.jpg
749.964	1.057	correct	observe	Run1	observe/STIM_009.jpg
753.11	0.817	correct	observe	Run1	observe/STIM_009.jpg
757.788	1.261	correct	observe	Run1	observe/STIM_009.jpg
761.583	0.721	correct	observe	Run1	observe/STIM_010.jpg
764.584	0.879	correct	observe	Run1	observe/STIM_010.jpg
768.802	1.208	correct	observe	Run1	observe/STIM_010.jpg
773.27	1.037	correct	observe	Run1	observe/STIM_010.jpg
776.908	1.339	correct	observe	Run1	observe/STIM_011.jpg
780.5	0.824	correct	observe	Run1	observe/STIM_011.jpg
785.116	0.738	correct	observe	Run1	observe/STIM_011.jpg
789.62	1.32	correct	observe	Run1	observe/STIM_011.jpg
793.001	0.862	correct	observe	Run1	observe/STIM_012.jpg
797.364	1.061	correct	observe	Run1	observe/STIM_012.jpg
800.955	0.759	correct	observe	Run1	observe/STIM_012.jpg
804.693	1.044	correct	observe	Run1	observe/STIM_012.jpg
808.411	1.37	correct	observe	Run1	observe/STIM_013.jpg
813.312	0.952	correct	observe	Run1	observe/STIM_013.jpg
817.364	1.309	correct	observe	Run1	observe/STIM_013.jpg
821.095	1.212	correct	observe	Run1	observe/STIM_013.jpg
824.639	1.347	correct	observe	Run1	observe/STIM_014.jpg
828.856	0.896	correct	observe	Run1	observe/STIM_014.jpg
832.379	1.239	correct	observe	Run1	observe/STIM_014.jpg
836.807	1.161	correct	observe	Run1	observe/STIM_014.jpg
840.877	0.749	correct	observe	Run1	observe/STIM_015.jpg
845.099	1.218	correct	observe	Run1	observe/STIM_015.jpg
849.779	0.89	correct	observe	Run1	observe/STIM_015.jpg
853.972	1.319	correct	observe	Run1	observe/STIM_015.jpg
858.819	0.986	correct	observe	Run1	observe/STIM_016.jpg
863.239	0.72	correct	observe	Run1	observe/STIM_016.jpg
866.369	0.832	correct	observe	Run1	observe/STIM_016.jpg
869.718	0.847	correct	observe	Run1	observe/STIM_016.jpg
874.315	0.833	correct	observe	Run1	observe/STIM_017.jpg
878.772	1.062	correct	observe	Run1	observe/STIM_017.jpg
882.968	0.986	correct	observe	Run1	observe/STIM_017.jpg
886.33	1.172	correct	observe	Run1	observe/STIM_017.jpg
891.407	0.939	correct	observe	Run1	observe/STIM_018.jpg
895.473	0.891	correct	observe	Run1	observe/STIM_018.jpg
899.143	0.901	correct	observe	Run1	observe/STIM_018.jpg
902.999	0.823	correct	observe	Run1	observe/STIM_018.jpg
907.161	0.977	correct	observe	Run1	observe/STIM_019.jpg
910.917	1.08	correct	observe	Run1	observe/STIM_019.jpg
914.152	0.846	correct	observe	Run1	observe/STIM_019.jpg
917.643	1.236	correct	observe	Run1	observe/STIM_019.jpg
921.966	1.405	correct	regulate	Run2	regulate/STIM_000.jpg
926.827	1.478	correct	regulate	Run2	regulate/STIM_000.jpg
931.587	1.005	correct	regulate	Run2	regulate/STIM_000.jpg
936.398	1.416	correct	regulate	Run2	regulate/STIM_000.jpg
940.166	1.216	incorrect	regulate	Run2	regulate/STIM_001.jpg
945.363	1.331	correct	regulate	Run2	regulate/STIM_001.jpg
949.358	1.661	correct	regulate	Run2	regulate/STIM_001.jpg
953.97	1.29	correct	regulate	Run2	regulate/STIM_001.jpg
957.944	2.266	correct	regulate	Run2	regulate/STIM_002.jpg
963.775	1.997	correct	regulate	Run2	regulate/STIM_002.jpg
968.15	2.214	correct	regulate	Run2	regulate/STIM_002.jpg
974.111	1.812	correct	regulate	Run2	regulate/STIM_002.jpg
979.218	1.835	correct	regulate	Run2	regulate/STIM_003.jpg
984.452	1.153	correct	regulate	Run2	regulate/STIM_003.jpg
988.989	1.77	correct	regulate	Run2	regulate/STIM_003.jpg
993.098	0.999	correct	regulate	Run2	regulate/STIM_003.jpg
997.825	2.094	correct	regulate	Run2	regulate/STIM_004.jpg
1002.295	1.696	correct	regulate	Run2	regulate/STIM_004.jpg
1006.426	1.987	correct	regulate	Run2	regulate/STIM_004.jpg
1011.39	1.877	correct	regulate	Run2	regulate/STIM_004.jpg
1015.894	2.489	correct	regulate	Run2	regulate/STIM_005.jpg
1022.24	1.916	correct	regulate	Run2	regulate/STIM_005.jpg
1027.147	2.111	correct	regulate	Run2	regulate/STIM_005.jpg
1033.227	1.47	correct	regulate	Run2	regulate/STIM_005.jpg
1037.246	2.134	incorrect	regulate	Run2	regulate/STIM_006.jpg
1042.311	1.588	correct	regulate	Run2	regulate/STIM_006.jpg
1046.258	1.404	correct	regulate	Run2	regulate/STIM_006.jpg
1051.227	1.152	correct	regulate	Run2	regulate/STIM_006.jpg
1054.869	1.581	correct	regulate	Run2	regulate/STIM_007.jpg
1059.021	1.261	correct	regulate	Run2	regulate/STIM_007.jpg
1063.785	1.426	correct	regulate	Run2	regulate/STIM_007.jpg
1068.329	0.959	correct	regulate	Run2	regulate/STIM_007.jpg
1072.343	1.49	correct	regulate	Run2	regulate/STIM_008.jpg
1076.119	1.128	correct	regulate	Run2	regulate/STIM_008.jpg
1079.289	1.37	correct	regulate	Run2	regulate/STIM_008.jpg
1083.907	1.033	correct	regulate	Run2	regulate/STIM_008.jpg
1087.631	1.305	correct	regulate	Run2	regulate/STIM_009.jpg
1091.102	1.423	correct	regulate	Run2	regulate/STIM_009.jpg
1095.226	2.194	correct	regulate	Run2	regulate/STIM_009.jpg
1099.688	1.929	correct	regulate	Run2	regulate/STIM_009.jpg
1105.046	1.668	correct	regulate	Run2	regulate/STIM_010.jpg
1110.634	2.048	correct	regulate	Run2	regulate/STIM_010.jpg
1114.833	1.47	correct	regulate	Run2	regulate/STIM_010.jpg
1119.352	2.035	correct	regulate	Run2	regulate/STIM_010.jpg
1123.99	1.841	correct	regulate	Run2	regulate/STIM_011.jpg
1128.372	1.643	correct	regulate	Run2	regulate/STIM_011.jpg
1133.993	1.817	correct	regulate	Run2	regulate/STIM_011.jpg
1139.712	1.112	correct	regulate	Run2	regulate/STIM_011.jpg
1142.843	1.29	correct	regulate	Run2	regulate/STIM_012.jpg
1147.658	1.501	correct	regulate	Run2	regulate/STIM_012.jpg
1151.265	2.169	correct	regulate	Run2	regulate/STIM_012.jpg
1157.271	1.881	correct	regulate	Run2	regulate/STIM_012.jpg
1162.939	2.349	correct	regulate	Run2	regulate/STIM_013.jpg
1167.99	1.926	incorrect	regulate	Run2	regulate/STIM_013.jpg
1172.588	1.325	correct	regulate	Run2	regulate/STIM_013.jpg
1176.451	1.18	correct	regulate	Run2	regulate/STIM_013.jpg
1180.731	2.353	correct	regulate	Run2	regulate/STIM_014.jpg
1186.916	1.361	correct	regulate	Run2	regulate/STIM_014.jpg
1190.508	1.913	correct	regulate	Run2	regulate/STIM_014.jpg
1196.212	1.932	correct	regulate	Run2	regulate/STIM_014.jpg
1201.758	2.218	correct	regulate	Run2	regulate/STIM_015.jpg
1206.485	2.341	correct	regulate	Run2	regulate/STIM_015.jpg
1211.783	1.77	correct	regulate	Run2	regulate/STIM_015.jpg
1217.317	0.971	correct	regulate	Run2	regulate/STIM_015.jpg
1220.317	2.322	correct	regulate	Run2	regulate/STIM_016.jpg
1224.867	2.191	correct	regulate	Run2	regulate/STIM_016.jpg
1230.982	1.087	correct	regulate	Run2	regulate/STIM_016.jpg
1234.439	1.739	correct	regulate	Run2	regulate/STIM_016.jpg
1239.714	2.221	correct	regulate	Run2	regulate/STIM_017.jpg
1244.762	1.073	correct	regulate	Run2	regulate/STIM_017.jpg
1249.045	1.593	correct	regulate	Run2	regulate/STIM_017.jpg
1253.358	2.085	correct	regulate	Run2	regulate/STIM_017.jpg
1257.681	1.176	correct	regulate	Run2	regulate/STIM_018.jpg
1261.361	2.222	correct	regulate	Run2	regulate/STIM_018.jpg
1265.749	1.938	correct	regulate	Run2	regulate/STIM_018.jpg
1270.207	1.14	correct	regulate	Run2	regulate/STIM_018.jpg
1274.528	2.356	correct	regulate	Run2	regulate/STIM_019.jpg
1279.124	1.806	correct	regulate	Run2	regulate/STIM_019.jpg
1282.951	1.373	correct	regulate	Run2	regulate/STIM_019.jpg
1287.216	2.088	correct	regulate	Run2	regulate/STIM_019.jpg
1291.378	2.146	correct	regulate	Run2	regulate/STIM_020.jpg
1297.498	1.559	correct	regulate	Run2	regulate/STIM_020.jpg
1301.223	2.082	correct	regulate	Run2	regulate/STIM_020.jpg
1306.255	0.92	correct	regulate	Run2	regulate/STIM_020.jpg
1311.074	2.518	correct	regulate	Run2	regulate/STIM_021.jpg
1317.356	2.019	incorrect	regulate	Run2	regulate/STIM_021.jpg
1322.013	1.096	correct	regulate	Run2	regulate/STIM_021.jpg
1326.463	1.165	correct	regulate	Run2	regulate/STIM_021.jpg
1331.129	1.501	correct	regulate	Run2	regulate/STIM_022.jpg
1335.389	2.028	correct	regulate	Run2	regulate/STIM_022.jpg
1339.532	1.792	correct	regulate	Run2	regulate/STIM_022.jpg
1343.445	0.961	correct	regulate	Run2	regulate/STIM_022.jpg
1347.133	1.378	correct	regulate	Run2	regulate/STIM_023.jpg
1351.207	1.096	correct	regulate	Run2	regulate/STIM_023.jpg
1355.068	2.187	correct	regulate	Run2	regulate/STIM_023.jpg
1360.65	1.675	correct	regulate	Run2	regulate/STIM_023.jpg
1365.512	2.524	correct	regulate	Run2	regulate/STIM_024.jpg
1371.943	2.418	correct	regulate	Run2	regulate/STIM_024.jpg
1376.861	2.045	incorrect	regulate	Run2	regulate/STIM_024.jpg
1381.665	1.103	correct	regulate	Run2	regulate/STIM_024.jpg
1386.237	1.884	correct	regulate	Run2	regulate/STIM_025.jpg
1391.597	1.958	correct	regulate	Run2	regulate/STIM_025.jpg
1396.052	1.95	correct	regulate	Run2	regulate/STIM_025.jpg
1401.866	1.648	incorrect	regulate	Run2	regulate/STIM_025.jpg
1406.127	1.513	correct	regulate	Run2	regulate/STIM_026.jpg
1409.94	2.02	correct	regulate	Run2	regulate/STIM_026.jpg
1415.306	1.422	correct	regulate	Run2	regulate/STIM_026.jpg
1419.845	1.927	correct	regulate	Run2	regulate/STIM_026.jpg
1424.454	2.01	correct	regulate	Run2	regulate/STIM_027.jpg
1430.051	1.455	correct	regulate	Run2	regulate/STIM_027.jpg
1434.636	1.244	incorrect	regulate	Run2	regulate/STIM_027.jpg
1438.063	1.562	correct	regulate	Run2	regulate/STIM_027.jpg
1441.982	1.363	correct	regulate	Run2	regulate/STIM_028.jpg
1445.528	1.513	correct	regulate	Run2	regulate/STIM_028.jpg
1449.195	1.589	correct	regulate	Run2	regulate/STIM_028.jpg
1453.907	1.328	correct	regulate	Run2	regulate/STIM_028.jpg
1458.904	1.362	correct	regulate	Run2	regulate/STIM_029.jpg
1463.8	1.133	incorrect	regulate	Run2	regulate/STIM_029.jpg
1468.238	1.467	correct	regulate	Run2	regulate/STIM_029.jpg
1472.498	1.716	correct	regulate	Run2	regulate/STIM_029.jpg
1478.053	0.767	correct	observe	Run2	observe/STIM_000.jpg
1482.728	1.112	correct	observe	Run2	observe/STIM_000.jpg
1487.164	0.856	correct	observe	Run2	observe/STIM_000.jpg
1490.942	0.917	correct	observe	Run2	observe/STIM_000.jpg
1494.345	0.894	correct	observe	Run2	observe/STIM_001.jpg
1498.849	0.707	correct	observe	Run2	observe/STIM_001.jpg
1502.247	0.847	correct	observe	Run2	observe/STIM_001.jpg
1506.581	0.722	correct	observe	Run2	observe/STIM_001.jpg
1509.976	1.051	correct	observe	Run2	observe/STIM_002.jpg
1514.36	1.2	incorrect	observe	Run2	observe/STIM_002.jpg
1518.022	0.964	correct	observe	Run2	observe/STIM_002.jpg
1521.708	0.996	correct	observe	Run2	observe/STIM_002.jpg
1525.945	0.998	correct	observe	Run2	observe/STIM_003.jpg
1530.662	0.938	correct	observe	Run2	observe/STIM_003.jpg
1535.59	0.834	correct	observe	Run2	observe/STIM_003.jpg
1540.274	1.0	correct	observe	Run2	observe/STIM_003.jpg
1543.906	0.764	correct	observe	Run2	observe/STIM_004.jpg
1548.597	0.857	correct	observe	Run2	observe/STIM_004.jpg
1551.96	0.963	correct	observe	Run2	observe/STIM_004.jpg
1555.011	1.029	correct	observe	Run2	observe/STIM_004.jpg
1559.196	0.928	correct	observe	Run2	observe/STIM_005.jpg
1563.418	0.967	correct	observe	Run2	observe/STIM_005.jpg
1566.814	1.163	correct	observe	Run2	observe/STIM_005.jpg
1570.963	1.113	correct	observe	Run2	observe/STIM_005.jpg
1575.024	1.282	correct	observe	Run2	observe/STIM_006.jpg
1578.895	0.842	correct	observe	Run2	observe/STIM_006.jpg
1582.047	0.991	correct	observe	Run2	observe/STIM_006.jpg
1585.861	0.871	correct	observe	Run2	observe/STIM_006.jpg
1590.359	0.742	correct	observe	Run2	observe/STIM_007.jpg
1593.94	1.1	correct	observe	Run2	observe/STIM_007.jpg
1598.442	0.961	correct	observe	Run2	observe/STIM_007.jpg
1602.955	0.92	correct	observe	Run2	observe/STIM_007.jpg
1605.885	1.077	correct	observe	Run2	observe/STIM_008.jpg
1610.235	0.705	correct	observe	Run2	observe/STIM_008.jpg
1613.404	1.097	correct	observe	Run2	observe/STIM_008.jpg
1616.896	0.713	correct	observe	Run2	observe/STIM_008.jpg
1619.873	0.85	correct	observe	Run2	observe/STIM_009.jpg
1624.18	1.063	correct	observe	Run2	observe/STIM_009.jpg
1628.846	0.94	correct	observe	Run2	observe/STIM_009.jpg
1632.155	1.368	correct	observe	Run2	observe/STIM_009.jpg
1637.434	1.342	correct	observe	Run2	observe/STIM_010.jpg
1641.186	1.146	correct	observe	Run2	observe/STIM_010.jpg
1644.896	1.007	incorrect	observe	Run2	observe/STIM_010.jpg
1648.408	1.151	correct	observe	Run2	observe/STIM_010.jpg
1652.948	0.753	correct	observe	Run2	observe/STIM_011.jpg
1656.681	1.284	correct	observe	Run2	observe/STIM_011.jpg
1660.633	1.049	correct	observe	Run2	observe/STIM_011.jpg
1664.146	0.76	correct	observe	Run2	observe/STIM_011.jpg
1668.771	1.248	correct	observe	Run2	observe/STIM_012.jpg
1672.588	1.328	correct	observe	Run2	observe/STIM_012.jpg
1676.969	1.157	correct	observe	Run2	observe/STIM_012.jpg
1681.599	0.843	correct	observe	Run2	observe/STIM_012.jpg
1684.487	0.764	correct	observe	Run2	observe/STIM_013.jpg
1688.242	1.066	correct	observe	Run2	observe/STIM_013.jpg
1692.24	1.144	correct	observe	Run2	observe/STIM_013.jpg
1697.232	1.109	correct	observe	Run2	observe/STIM_013.jpg
1700.579	0.901	correct	observe	Run2	observe/STIM_014.jpg
1705.242	0.851	correct	observe	Run2	observe/STIM_014.jpg
1709.655	1.11	correct	observe	Run2	observe/STIM_014.jpg
1713.834	0.751	correct	observe	Run2	observe/STIM_014.jpg
1717.087	0.989	correct	observe	Run2	observe/STIM_015.jpg
1720.694	1.352	correct	observe	Run2	observe/STIM_015.jpg
1725.223	1.275	correct	observe	Run2	observe/STIM_015.jpg
1730.069	0.909	correct	observe	Run2	observe/STIM_015.jpg
1734.828	0.904	correct	observe	Run2	observe/STIM_016.jpg
1739.33	1.37	correct	observe	Run2	observe/STIM_016.jpg
1743.463	1.118	correct	observe	Run2	observe/STIM_016.jpg
1747.433	1.295	correct	observe	Run2	observe/STIM_016.jpg
1750.733	1.236	correct	observe	Run2	observe/STIM_017.jpg
1754.384	1.193	correct	observe	Run2	observe/STIM_017.jpg
1757.838	1.317	correct	observe	Run2	observe/STIM_017.jpg
1762.447	1.227	correct	observe	Run2	observe/STIM_017.jpg
1767.376	1.251	correct	observe	Run2	observe/STIM_018.jpg
1771.872	1.2	correct	observe	Run2	observe/STIM_018.jpg
1775.74	1.008	correct	observe	Run2	observe/STIM_018.jpg
1778.789	1.223	correct	observe	Run2	observe/STIM_018.jpg
1783.412	0.821	correct	observe	Run2	observe/STIM_019.jpg
1787.63	0.708	correct	observe	Run2	observe/STIM_019.jpg
1792.28	1.366	correct	observe	Run2	observe/STIM_019.jpg
1796.22	1.038	correct	observe	Run2	observe/STIM_019.jpg
1800.376	1.52	correct	regulate	Run3	regulate/STIM_000.jpg
1803.975	1.505	correct	regulate	Run3	regulate/STIM_000.jpg
1807.905	1.355	correct	regulate	Run3	regulate/STIM_000.jpg
1812.166	0.958	correct	regulate	Run3	regulate/STIM_000.jpg
1815.416	1.784	correct	regulate	Run3	regulate/STIM_001.jpg
1820.371	1.842	correct	regulate	Run3	regulate/STIM_001.jpg
1824.878	1.002	correct	regulate	Run3	regulate/STIM_001.jpg
1827.981	1.418	correct	regulate	Run3	regulate/STIM_001.jpg
1832.962	1.557	correct	regulate	Run3	regulate/STIM_002.jpg
1836.783	1.758	correct	regulate	Run3	regulate/STIM_002.jpg
1842.537	1.958	correct	regulate	Run3	regulate/STIM_002.jpg
1848.004	1.369	correct	regulate	Run3	regulate/STIM_002.jpg
1853.04	1.953	correct	regulate	Run3	regulate/STIM_003.jpg
1858.499	1.065	correct	regulate	Run3	regulate/STIM_003.jpg
1862.6	0.911	correct	regulate	Run3	regulate/STIM_003.jpg
1866.777	1.288	correct	regulate	Run3	regulate/STIM_003.jpg
1870.9	1.293	correct	regulate	Run3	regulate/STIM_004.jpg
1875.299	1.477	correct	regulate	Run3	regulate/STIM_004.jpg
1879.461	1.335	correct	regulate	Run3	regulate/STIM_004.jpg
1884.701	1.444	correct	regulate	Run3	regulate/STIM_004.jpg
1889.675	1.999	correct	regulate	Run3	regulate/STIM_005.jpg
1895.322	1.799	correct	regulate	Run3	regulate/STIM_005.jpg
1899.874	1.396	correct	regulate	Run3	regulate/STIM_005.jpg
1904.551	1.979	correct	regulate	Run3	regulate/STIM_005.jpg
1910.249	1.861	correct	regulate	Run3	regulate/STIM_006.jpg
1914.301	1.952	correct	regulate	Run3	regulate/STIM_006.jpg
1919.123	1.43	correct	regulate	Run3	regulate/STIM_006.jpg
1924.206	1.085	correct	regulate	Run3	regulate/STIM_006.jpg
1927.458	1.931	correct	regulate	Run3	regulate/STIM_007.jpg
1933.234	2.006	correct	regulate	Run3	regulate/STIM_007.jpg
1938.517	1.708	correct	regulate	Run3	regulate/STIM_007.jpg
1943.983	1.197	correct	regulate	Run3	regulate/STIM_007.jpg
1948.847	1.818	correct	regulate	Run3	regulate/STIM_008.jpg
1954.024	1.155	correct	regulate	Run3	regulate/STIM_008.jpg
1959.132	1.039	correct	regulate	Run3	regulate/STIM_008.jpg
1962.707	1.501	correct	regulate	Run3	regulate/STIM_008.jpg
1966.773	1.914	correct	regulate	Run3	regulate/STIM_009.jpg
1971.232	1.4	correct	regulate	Run3	regulate/STIM_009.jpg
1975.464	1.171	correct	regulate	Run3	regulate/STIM_009.jpg
1979.044	1.282	correct	regulate	Run3	regulate/STIM_009.jpg
1982.811	1.803	correct	regulate	Run3	regulate/STIM_010.jpg
1987.049	1.365	correct	regulate	Run3	regulate/STIM_010.jpg
1991.837	1.234	correct	regulate	Run3	regulate/STIM_010.jpg
1996.182	1.691	correct	regulate	Run3	regulate/STIM_010.jpg
2000.971	1.064	correct	regulate	Run3	regulate/STIM_011.jpg
2004.495	1.865	correct	regulate	Run3	regulate/STIM_011.jpg
2009.04	1.614	correct	regulate	Run3	regulate/STIM_011.jpg
2013.267	1.988	correct	regulate	Run3	regulate/STIM_011.jpg
2018.927	1.101	correct	regulate	Run3	regulate/STIM_012.jpg
2023.482	1.049	correct	regulate	Run3	regulate/STIM_012.jpg
2026.647	1.597	correct	regulate	Run3	regulate/STIM_012.jpg
2030.675	1.426	correct	regulate	Run3	regulate/STIM_012.jpg
2035.787	1.24	correct	regulate	Run3	regulate/STIM_013.jpg
2039.409	1.585	correct	regulate	Run3	regulate/STIM_013.jpg
2044.055	1.7	incorrect	regulate	Run3	regulate/STIM_013.jpg
2049.486	1.313	correct	regulate	Run3	regulate/STIM_013.jpg
2053.231	2.086	correct	regulate	Run3	regulate/STIM_014.jpg
2058.44	1.737	correct	regulate	Run3	regulate/STIM_014.jpg
2063.353	1.691	correct	regulate	Run3	regulate/STIM_014.jpg
2069.027	1.993	correct	regulate	Run3	regulate/STIM_014.jpg
2073.628	2.05	correct	regulate	Run3	regulate/STIM_015.jpg
2078.709	1.134	correct	regulate	Run3	regulate/STIM_015.jpg
2082.621	1.006	correct	regulate	Run3	regulate/STIM_015.jpg
2087.504	1.287	correct	regulate	Run3	regulate/STIM_015.jpg
2092.737	1.947	correct	regulate	Run3	regulate/STIM_016.jpg
2098.565	1.102	correct	regulate	Run3	regulate/STIM_016.jpg
2102.228	1.097	correct	regulate	Run3	regulate/STIM_016.jpg
2106.25	1.273	correct	regulate	Run3	regulate/STIM_016.jpg
2110.473	1.557	correct	regulate	Run3	regulate/STIM_017.jpg
2114.483	1.314	correct	regulate	Run3	regulate/STIM_017.jpg
2118.531	2.039	correct	regulate	Run3	regulate/STIM_017.jpg
2123.615	1.992	correct	regulate	Run3	regulate/STIM_017.jpg
2128.809	1.201	correct	regulate	Run3	regulate/STIM_018.jpg
2133.624	2.027	correct	regulate	Run3	regulate/STIM_018.jpg
2138.68	1.081	correct	regulate	Run3	regulate/STIM_018.jpg
2142.837	1.215	correct	regulate	Run3	regulate/STIM_018.jpg
2146.986	1.106	correct	regulate	Run3	regulate/STIM_019.jpg
2151.361	1.851	correct	regulate	Run3	regulate/STIM_019.jpg
2156.563	1.342	correct	regulate	Run3	regulate/STIM_019.jpg
2161.882	1.177	correct	regulate	Run3	regulate/STIM_019.jpg
2166.445	2.064	correct	regulate	Run3	regulate/STIM_020.jpg
2170.607	1.546	correct	regulate	Run3	regulate/STIM_020.jpg
2174.635	1.599	correct	regulate	Run3	regulate/STIM_020.jpg
2178.852	2.094	correct	regulate	Run3	regulate/STIM_020.jpg
2184.574	1.96	correct	regulate	Run3	regulate/STIM_021.jpg
2189.04	1.098	correct	regulate	Run3	regulate/STIM_021.jpg
2193.609	1.825	correct	regulate	Run3	regulate/STIM_021.jpg
2198.829	1.839	correct	regulate	Run3	regulate/STIM_021.jpg
2204.234	1.424	correct	regulate	Run3	regulate/STIM_022.jpg
2209.149	1.022	correct	regulate	Run3	regulate/STIM_022.jpg
2212.274	1.242	correct	regulate	Run3	regulate/STIM_022.jpg
2216.564	1.286	correct	regulate	Run3	regulate/STIM_022.jpg
2221.705	1.931	correct	regulate	Run3	regulate/STIM_023.jpg
2226.845	1.228	correct	regulate	Run3	regulate/STIM_023.jpg
2230.802	1.42	correct	regulate	Run3	regulate/STIM_023.jpg
2235.555	0.987	correct	regulate	Run3	regulate/STIM_023.jpg
2239.215	1.265	correct	regulate	Run3	regulate/STIM_024.jpg
2242.535	1.209	correct	regulate	Run3	regulate/STIM_024.jpg
2246.343	2.049	correct	regulate	Run3	regulate/STIM_024.jpg
2252.137	0.918	correct	regulate	Run3	regulate/STIM_024.jpg
2255.53	1.08	correct	regulate	Run3	regulate/STIM_025.jpg
2259.029	1.887	correct	regulate	Run3	regulate/STIM_025.jpg
2263.387	1.543	correct	regulate	Run3	regulate/STIM_025.jpg
2267.232	2.017	correct	regulate	Run3	regulate/STIM_025.jpg
2272.162	1.896	correct	regulate	Run3	regulate/STIM_026.jpg
2276.107	2.125	incorrect	regulate	Run3	regulate/STIM_026.jpg
2281.188	1.01	correct	regulate	Run3	regulate/STIM_026.jpg
2284.783	1.119	correct	regulate	Run3	regulate/STIM_026.jpg
2288.865	1.269	correct	regulate	Run3	regulate/STIM_027.jpg
2293.116	1.875	correct	regulate	Run3	regulate/STIM_027.jpg
2298.915	1.463	correct	regulate	Run3	regulate/STIM_027.jpg
2303.762	1.285	correct	regulate	Run3	regulate/STIM_027.jpg
2307.556	1.629	correct	regulate	Run3	regulate/STIM_028.jpg
2312.658	1.417	correct	regulate	Run3	regulate/STIM_028.jpg
2317.768	1.514	correct	regulate	Run3	regulate/STIM_028.jpg
2323.277	1.47	correct	regulate	Run3	regulate/STIM_028.jpg
2326.836	1.437	correct	regulate	Run3	regulate/STIM_029.jpg
2332.145	0.963	correct	regulate	Run3	regulate/STIM_029.jpg
2335.486	1.273	correct	regulate	Run3	regulate/STIM_029.jpg
2340.27	1.128	correct	regulate	Run3	regulate/STIM_029.jpg
2343.89	0.982	correct	observe	Run3	observe/STIM_000.jpg
2346.962	1.027	correct	observe	Run3	observe/STIM_000.jpg
2350.854	0.956	correct	observe	Run3	observe/STIM_000.jpg
2355.007	1.005	correct	observe	Run3	observe/STIM_000.jpg
2358.814	0.803	correct	observe	Run3	observe/STIM_001.jpg
2363.218	1.29	correct	observe	Run3	observe/STIM_001.jpg
2368.437	0.94	correct	observe	Run3	observe/STIM_001.jpg
2372.976	1.005	correct	observe	Run3	observe/STIM_001.jpg
2377.24	0.997	correct	observe	Run3	observe/STIM_002.jpg
2382.19	0.739	correct	observe	Run3	observe/STIM_002.jpg
2385.172	1.31	correct	observe	Run3	observe/STIM_002.jpg
2389.007	0.969	correct	observe	Run3	observe/STIM_002.jpg
2392.262	1.15	correct	observe	Run3	observe/STIM_003.jpg
2396.948	0.93	correct	observe	Run3	observe/STIM_003.jpg
2400.017	1.384	correct	observe	Run3	observe/STIM_003.jpg
2404.351	1.2	correct	observe	Run3	observe/STIM_003.jpg
2408.901	0.776	correct	observe	Run3	observe/STIM_004.jpg
2412.468	1.22	correct	observe	Run3	observe/STIM_004.jpg
2416.215	1.273	correct	observe	Run3	observe/STIM_004.jpg
2421.445	1.004	correct	observe	Run3	observe/STIM_004.jpg
2424.548	1.225	correct	observe	Run3	observe/STIM_005.jpg
2429.331	1.223	correct	observe	Run3	observe/STIM_005.jpg
2432.723	1.004	correct	observe	Run3	observe/STIM_005.jpg
2436.057	0.808	correct	observe	Run3	observe/STIM_005.jpg
2439.645	1.276	correct	observe	Run3	observe/STIM_006.jpg
2443.758	1.025	correct	observe	Run3	observe/STIM_006.jpg
2446.919	1.073	correct	observe	Run3	observe/STIM_006.jpg
2450.699	0.882	correct	observe	Run3	observe/STIM_006.jpg
2455.228	1.272	correct	observe	Run3	observe/STIM_007.jpg
2459.726	0.846	correct	observe	Run3	observe/STIM_007.jpg
2463.211	0.75	correct	observe	Run3	observe/STIM_007.jpg
2466.824	0.796	correct	observe	Run3	observe/STIM_007.jpg
2469.675	0.716	incorrect	observe	Run3	observe/STIM_008.jpg
2473.326	1.071	incorrect	observe	Run3	observe/STIM_008.jpg
2477.801	0.95	correct	observe	Run3	observe/STIM_008.jpg
2482.522	0.858	correct	observe	Run3	observe/STIM_008.jpg
2487.369	1.255	correct	observe	Run3	observe/STIM_009.jpg
2491.782	0.875	correct	observe	Run3	observe/STIM_009.jpg
2495.098	0.808	correct	observe	Run3	observe/STIM_009.jpg
2499.111	1.384	correct	observe	Run3	observe/STIM_009.jpg
2502.949	0.981	correct	observe	Run3	observe/STIM_010.jpg
2507.49	1.377	correct	observe	Run3	observe/STIM_010.jpg
2511.395	1.084	correct	observe	Run3	observe/STIM_010.jpg
2515.673	0.852	correct	observe	Run3	observe/STIM_010.jpg
2518.598	0.724	correct	observe	Run3	observe/STIM_011.jpg
2523.224	1.244	correct	observe	Run3	observe/STIM_011.jpg
2527.44	0.73	correct	observe	Run3	observe/STIM_011.jpg
2530.302	1.387	correct	observe	Run3	observe/STIM_011.jpg
2535.314	1.014	correct	observe	Run3	observe/STIM_012.jpg
2538.745	1.159	correct	observe	Run3	observe/STIM_012.jpg
2543.05	1.27	correct	observe	Run3	observe/STIM_012.jpg
2547.003	1.368	correct	observe	Run3	observe/STIM_012.jpg
2552.047	1.212	correct	observe	Run3	observe/STIM_013.jpg
2555.44	1.056	correct	observe	Run3	observe/STIM_013.jpg
2560.323	1.099	correct	observe	Run3	observe/STIM_013.jpg
2563.665	1.015	correct	observe	Run3	observe/STIM_013.jpg
2567.644	0.883	incorrect	observe	Run3	observe/STIM_014.jpg
2572.278	0.893	correct	observe	Run3	observe/STIM_014.jpg
2575.495	1.017	incorrect	observe	Run3	observe/STIM_014.jpg
2580.217	0.718	correct	observe	Run3	observe/STIM_014.jpg
2583.005	0.873	correct	observe	Run3	observe/STIM_015.jpg
2587.643	1.034	correct	observe	Run3	observe/STIM_015.jpg
2591.989	0.817	correct	observe	Run3	observe/STIM_015.jpg
2596.049	0.856	correct	observe	Run3	observe/STIM_015.jpg
2600.082	1.12	correct	observe	Run3	observe/STIM_016.jpg
2604.81	0.841	correct	observe	Run3	observe/STIM_016.jpg
2608.485	0.864	correct	observe	Run3	observe/STIM_016.jpg
2612.948	1.246	correct	observe	Run3	observe/STIM_016.jpg
2616.92	0.82	correct	observe	Run3	observe/STIM_017.jpg
2621.15	0.863	incorrect	observe	Run3	observe/STIM_017.jpg
2625.936	0.818	correct	observe	Run3	observe/STIM_017.jpg
2629.907	1.055	correct	observe	Run3	observe/STIM_017.jpg
2634.93	1.186	correct	observe	Run3	observe/STIM_018.jpg
2638.322	0.922	correct	observe	Run3	observe/STIM_018.jpg
2642.575	0.906	correct	observe	Run3	observe/STIM_018.jpg
2646.086	1.29	correct	observe	Run3	observe/STIM_018.jpg
2649.783	0.696	correct	observe	Run3	observe/STIM_019.jpg
2653.604	1.073	correct	observe	Run3	observe/STIM_019.jpg
2657.983	1.082	correct	observe	Run3	observe/STIM_019.jpg
2662.703	0.935	correct	observe	Run3	observe/STIM_019.jpg
