onset	duration	response_time_ms	trial_type	learning_stage	stimulus	response_port
0.0	2.732	2731.9	regulate	Run1	regulate/STIM_000.jpg	99
5.389	2.846	2845.8	regulate	Run1	regulate/STIM_000.jpg	99
10.938	2.09	2089.7	regulate	Run1	regulate/STIM_000.jpg	99
16.233	2.614	2614.2	regulate	Run1	regulate/STIM_000.jpg	100
22.501	2.022	2022.3	regulate	Run1	regulate/STIM_001.jpg	99
27.196	2.77	2769.7	regulate	Run1	regulate/STIM_001.jpg	100
33.603	2.726	2726.5	regulate	Run1	regulate/STIM_001.jpg	99
40.03	2.309	2308.9	regulate	Run1	regulate/STIM_001.jpg	100
44.584	3.211	3210.7	regulate	Run1	regulate/STIM_002.jpg	99
50.416	1.648	1648.5	regulate	Run1	regulate/STIM_002.jpg	99
56.106	2.048	2048.0	regulate	Run1	regulate/STIM_002.jpg	99
60.617	2.198	2197.6	regulate	Run1	regulate/STIM_002.jpg	100
66.689	1.899	1899.1	regulate	Run1	regulate/STIM_003.jpg	99
71.672	2.341	2341.1	regulate	Run1	regulate/STIM_003.jpg	99
77.092	1.444	1444.3	regulate	Run1	regulate/STIM_003.jpg	100
81.122	1.796	1795.5	regulate	Run1	regulate/STIM_003.jpg	100
85.958	3.063	3062.7	regulate	Run1	regulate/STIM_004.jpg	100
92.315	2.331	2330.9	regulate	Run1	regulate/STIM_004.jpg	100
96.765	1.88	1880.4	regulate	Run1	regulate/STIM_004.jpg	100
101.084	2.118	2118.0	regulate	Run1	regulate/STIM_004.jpg	99
105.29	1.784	1784.0	regulate	Run1	regulate/STIM_005.jpg	99
111.117	3.043	3043.4	regulate	Run1	regulate/STIM_005.jpg	100
116.48	2.762	2762.3	regulate	Run1	regulate/STIM_005.jpg	99
123.048	2.37	2370.0	regulate	Run1	regulate/STIM_005.jpg	99
128.464	2.991	2991.4	regulate	Run1	regulate/STIM_006.jpg	100
133.729	1.819	1819.2	regulate	Run1	regulate/STIM_006.jpg	100
139.176	1.489	1489.0	regulate	Run1	regulate/STIM_006.jpg	99
143.117	1.708	1708.1	regulate	Run1	regulate/STIM_006.jpg	99
148.194	2.82	2819.5	regulate	Run1	regulate/STIM_007.jpg	99
153.81	1.919	1919.3	regulate	Run1	regulate/STIM_007.jpg	99
159.638	2.417	2416.9	regulate	Run1	regulate/STIM_007.jpg	99
164.195	1.846	1845.7	regulate	Run1	regulate/STIM_007.jpg	100
169.526	2.868	2867.7	regulate	Run1	regulate/STIM_008.jpg	99
176.097	1.872	1872.0	regulate	Run1	regulate/STIM_008.jpg	100
180.296	2.694	2693.5	regulate	Run1	regulate/STIM_008.jpg	100
185.678	1.546	1546.0	regulate	Run1	regulate/STIM_008.jpg	99
190.576	2.237	2237.1	regulate	Run1	regulate/STIM_009.jpg	100
195.855	3.001	3001.0	regulate	Run1	regulate/STIM_009.jpg	100
202.363	2.941	2941.4	regulate	Run1	regulate/STIM_009.jpg	100
207.766	2.652	2652.0	regulate	Run1	regulate/STIM_009.jpg	100
212.681	2.386	2385.7	regulate	Run1	regulate/STIM_010.jpg	99
218.715	1.582	1581.5	regulate	Run1	regulate/STIM_010.jpg	100
223.985	1.611	1610.6	regulate	Run1	regulate/STIM_010.jpg	100
228.783	2.277	2277.4	regulate	Run1	regulate/STIM_010.jpg	100
233.579	3.212	3211.6	regulate	Run1	regulate/STIM_011.jpg	100
240.565	1.725	1724.6	regulate	Run1	regulate/STIM_011.jpg	99
245.738	1.6	1599.5	regulate	Run1	regulate/STIM_011.jpg	99
251.183	2.419	2418.6	regulate	Run1	regulate/STIM_011.jpg	100
256.121	2.647	2647.2	regulate	Run1	regulate/STIM_012.jpg	100
262.047	1.856	1855.8	regulate	Run1	regulate/STIM_012.jpg	99
266.314	2.296	2295.9	regulate	Run1	regulate/STIM_012.jpg	99
271.614	2.332	2331.8	regulate	Run1	regulate/STIM_012.jpg	100
277.346	2.097	2097.2	regulate	Run1	regulate/STIM_013.jpg	100
282.984	2.003	2003.2	regulate	Run1	regulate/STIM_013.jpg	100
288.963	2.477	2477.3	regulate	Run1	regulate/STIM_013.jpg	99
294.776	1.659	1658.7	regulate	Run1	regulate/STIM_013.jpg	100
299.829	2.01	2009.9	regulate	Run1	regulate/STIM_014.jpg	99
304.936	2.7	2699.6	regulate	Run1	regulate/STIM_014.jpg	100
311.087	2.822	2822.2	regulate	Run1	regulate/STIM_014.jpg	100
316.468	2.319	2318.7	regulate	Run1	regulate/STIM_014.jpg	99
321.242	3.235	3234.7	regulate	Run1	regulate/STIM_015.jpg	100
327.392	2.933	2932.8	regulate	Run1	regulate/STIM_015.jpg	100
333.143	2.951	2950.6	regulate	Run1	regulate/STIM_015.jpg	99
339.753	2.299	2299.2	regulate	Run1	regulate/STIM_015.jpg	99
344.542	3.253	3253.1	regulate	Run1	regulate/STIM_016.jpg	100
350.919	2.383	2383.3	regulate	Run1	regulate/STIM_016.jpg	100
355.528	2.045	2044.8	regulate	Run1	regulate/STIM_016.jpg	99
360.638	2.277	2277.4	regulate	Run1	regulate/STIM_016.jpg	99
365.428	2.564	2564.5	regulate	Run1	regulate/STIM_017.jpg	99
371.648	2.098	2097.5	regulate	Run1	regulate/STIM_017.jpg	99
376.393	1.8	1799.6	regulate	Run1	regulate/STIM_017.jpg	99
381.074	1.932	1931.5	regulate	Run1	regulate/STIM_017.jpg	99
385.496	2.549	2549.0	regulate	Run1	regulate/STIM_018.jpg	99
391.118	2.805	2805.3	regulate	Run1	regulate/STIM_018.jpg	100
397.42	1.683	1682.7	regulate	Run1	regulate/STIM_018.jpg	99
401.992	1.652	1652.1	regulate	Run1	regulate/STIM_018.jpg	100
406.459	3.153	3152.9	regulate	Run1	regulate/STIM_019.jpg	99
413.699	3.2	3200.0	regulate	Run1	regulate/STIM_019.jpg	99
419.979	2.931	2930.9	regulate	Run1	regulate/STIM_019.jpg	100
426.915	2.355	2354.9	regulate	Run1	regulate/STIM_019.jpg	100
432.117	2.476	2475.6	regulate	Run1	regulate/STIM_020.jpg	100
438.346	2.966	2966.5	regulate	Run1	regulate/STIM_020.jpg	99
443.952	2.875	2875.3	regulate	Run1	regulate/STIM_020.jpg	100
450.382	2.825	2824.7	regulate	Run1	regulate/STIM_020.jpg	99
456.448	2.749	2749.1	regulate	Run1	regulate/STIM_021.jpg	100
463.175	2.132	2131.6	regulate	Run1	regulate/STIM_021.jpg	100
469.011	2.301	2301.4	regulate	Run1	regulate/STIM_021.jpg	100
473.521	2.232	2231.6	regulate	Run1	regulate/STIM_021.jpg	100
479.021	2.492	2491.8	regulate	Run1	regulate/STIM_022.jpg	100
484.074	3.19	3189.7	regulate	Run1	regulate/STIM_022.jpg	99
489.984	2.982	2982.1	regulate	Run1	regulate/STIM_022.jpg	99
495.302	2.513	2513.0	regulate	Run1	regulate/STIM_022.jpg	100
501.858	3.116	3116.2	regulate	Run1	regulate/STIM_023.jpg	100
508.034	2.807	2807.1	regulate	Run1	regulate/STIM_023.jpg	99
513.887	2.327	2327.0	regulate	Run1	regulate/STIM_023.jpg	99
518.745	2.384	2384.1	regulate	Run1	regulate/STIM_023.jpg	100
525.206	2.894	2893.9	regulate	Run1	regulate/STIM_024.jpg	100
530.873	2.42	2420.5	regulate	Run1	regulate/STIM_024.jpg	99
536.308	1.976	1975.7	regulate	Run1	regulate/STIM_024.jpg	100
541.598	2.718	2718.2	regulate	Run1	regulate/STIM_024.jpg	100
547.047	3.26	3259.7	regulate	Run1	regulate/STIM_025.jpg	99
554.086	3.205	3205.1	regulate	Run1	regulate/STIM_025.jpg	99
561.067	2.442	2442.2	regulate	Run1	regulate/STIM_025.jpg	99
566.433	1.886	1886.1	regulate	Run1	regulate/STIM_025.jpg	99
570.69	2.778	2777.5	regulate	Run1	regulate/STIM_026.jpg	100
575.814	2.094	2093.7	regulate	Run1	regulate/STIM_026.jpg	99
581.589	2.58	2580.1	regulate	Run1	regulate/STIM_026.jpg	100
586.485	1.384	1383.8	regulate	Run1	regulate/STIM_026.jpg	99
591.452	2.235	2235.3	regulate	Run1	regulate/STIM_027.jpg	100
596.308	1.496	1496.4	regulate	Run1	regulate/STIM_027.jpg	99
600.578	2.74	2740.4	regulate	Run1	regulate/STIM_027.jpg	99
606.769	1.234	1233.7	regulate	Run1	regulate/STIM_027.jpg	99
611.379	2.049	2049.3	regulate	Run1	regulate/STIM_028.jpg	100
616.673	2.199	2198.9	regulate	Run1	regulate/STIM_028.jpg	100
621.849	2.985	2985.1	regulate	Run1	regulate/STIM_028.jpg	99
628.783	2.842	2841.8	regulate	Run1	regulate/STIM_028.jpg	99
635.416	2.467	2467.2	regulate	Run1	regulate/STIM_029.jpg	99
640.962	1.703	1702.7	regulate	Run1	regulate/STIM_029.jpg	100
645.361	1.635	1634.8	regulate	Run1	regulate/STIM_029.jpg	100
650.215	1.322	1322.4	regulate	Run1	regulate/STIM_029.jpg	99
655.044	1.315	1314.8	observe	Run1	observe/STIM_000.jpg	100
658.61	1.275	1275.4	observe	Run1	observe/STIM_000.jpg	100
662.998	1.013	1013.4	observe	Run1	observe/STIM_000.jpg	100
666.665	1.481	1480.7	observe	Run1	observe/STIM_000.jpg	100
671.743	0.868	868.3	observe	Run1	observe/STIM_001.jpg	100
674.773	1.372	1371.5	observe	Run1	observe/STIM_001.jpg	99
679.548	0.949	949.2	observe	Run1	observe/STIM_001.jpg	100
682.555	0.808	807.9	observe	Run1	observe/STIM_001.jpg	99
686.324	0.954	954.1	observe	Run1	observe/STIM_002.jpg	99
689.508	1.49	1489.9	observe	Run1	observe/STIM_002.jpg	100
693.353	1.427	1426.8	observe	Run1	observe/STIM_002.jpg	99
697.172	1.517	1517.1	observe	Run1	observe/STIM_002.jpg	100
702.403	0.917	917.0	observe	Run1	observe/STIM_003.jpg	100
706.468	0.901	901.0	observe	Run1	observe/STIM_003.jpg	99
709.687	1.104	1104.3	observe	Run1	observe/STIM_003.jpg	99
714.785	1.207	1206.6	observe	Run1	observe/STIM_003.jpg	99
719.623	1.092	1092.0	observe	Run1	observe/STIM_004.jpg	99
724.034	1.111	1111.4	observe	Run1	observe/STIM_004.jpg	99
727.835	1.052	1051.5	observe	Run1	observe/STIM_004.jpg	99
731.01	1.503	1503.4	observe	Run1	observe/STIM_004.jpg	100
735.511	1.192	1192.1	observe	Run1	observe/STIM_005.jpg	99
739.495	0.98	980.2	observe	Run1	observe/STIM_005.jpg	100
743.955	0.928	928.3	observe	Run1	observe/STIM_005.jpg	100
747.401	0.903	902.7	observe	Run1	observe/STIM_005.jpg	99
750.591	0.82	820.0	observe	Run1	observe/STIM_006.jpg	100
754.74	1.292	1292.0	observe	Run1	observe/STIM_006.jpg	99
758.283	1.069	1068.8	observe	Run1	observe/STIM_006.jpg	99
763.33	0.79	790.1	observe	Run1	observe/STIM_006.jpg	100
767.588	1.179	1179.0	observe	Run1	observe/STIM_007.jpg	99
771.686	0.856	856.4	observe	Run1	observe/STIM_007.jpg	100
774.579	0.941	941.3	observe	Run1	observe/STIM_007.jpg	100
778.538	1.425	1424.7	observe	Run1	observe/STIM_007.jpg	99
782.025	1.351	1351.3	observe	Run1	observe/STIM_008.jpg	100
786.415	0.91	910.2	observe	Run1	observe/STIM_008.jpg	100
791.059	1.132	1132.1	observe	Run1	observe/STIM_008.jpg	99
796.198	1.297	1297.2	observe	Run1	observe/STIM_008.jpg	100
800.175	0.802	801.8	observe	Run1	observe/STIM_009.jpg	100
804.517	0.871	871.2	observe	Run1	observe/STIM_009.jpg	100
808.431	0.774	774.2	observe	Run1	observe/STIM_009.jpg	100
812.913	0.932	931.8	observe	Run1	observe/STIM_009.jpg	99
817.231	1.278	1278.3	observe	Run1	observe/STIM_010.jpg	100
821.179	1.514	1514.2	observe	Run1	observe/STIM_010.jpg	100
824.813	1.466	1466.5	observe	Run1	observe/STIM_010.jpg	99
829.343	0.851	851.4	observe	Run1	observe/STIM_010.jpg	100
832.304	1.534	1534.2	observe	Run1	observe/STIM_011.jpg	100
836.671	1.328	1327.7	observe	Run1	observe/STIM_011.jpg	100
840.18	1.233	1233.1	observe	Run1	observe/STIM_011.jpg	100
844.137	1.417	1417.0	observe	Run1	observe/STIM_011.jpg	100
847.899	0.95	949.5	observe	Run1	observe/STIM_012.jpg	99
852.648	0.774	774.2	observe	Run1	observe/STIM_012.jpg	100
856.698	0.868	868.2	observe	Run1	observe/STIM_012.jpg	100
861.046	0.834	833.8	observe	Run1	observe/STIM_012.jpg	99
863.945	1.098	1098.3	observe	Run1	observe/STIM_013.jpg	99
868.869	1.047	1047.3	observe	Run1	observe/STIM_013.jpg	99
872.228	1.012	1012.0	observe	Run1	observe/STIM_013.jpg	100
876.052	1.435	1434.7	observe	Run1	observe/STIM_013.jpg	100
880.021	1.459	1458.8	observe	Run1	observe/STIM_014.jpg	100
884.131	1.34	1339.5	observe	Run1	observe/STIM_014.jpg	99
888.936	1.292	1292.0	observe	Run1	observe/STIM_014.jpg	100
892.746	1.452	1451.6	observe	Run1	observe/STIM_014.jpg	100
897.845	0.951	951.2	observe	Run1	observe/STIM_015.jpg	99
901.279	1.402	1402.1	observe	Run1	observe/STIM_015.jpg	100
906.628	1.053	1052.6	observe	Run1	observe/STIM_015.jpg	100
911.005	0.994	994.2	observe	Run1	observe/STIM_015.jpg	100
915.534	0.904	904.3	observe	Run1	observe/STIM_016.jpg	100
918.62	0.915	915.2	observe	Run1	observe/STIM_016.jpg	99
922.547	0.865	864.6	observe	Run1	observe/STIM_016.jpg	99
925.494	1.375	1374.7	observe	Run1	observe/STIM_016.jpg	99
929.443	1.05	1050.5	observe	Run1	observe/STIM_017.jpg	99
934.34	1.034	1034.4	observe	Run1	observe/STIM_017.jpg	99
938.776	0.813	813.2	observe	Run1	observe/STIM_017.jpg	100
943.39	1.528	1527.9	observe	Run1	observe/STIM_017.jpg	99
948.054	1.327	1327.2	observe	Run1	observe/STIM_018.jpg	100
952.104	1.143	1142.7	observe	Run1	observe/STIM_018.jpg	99
956.3	1.196	1196.2	observe	Run1	observe/STIM_018.jpg	99
960.523	0.846	846.3	observe	Run1	observe/STIM_018.jpg	99
964.253	1.089	1088.9	observe	Run1	observe/STIM_019.jpg	100
969.107	0.949	949.3	observe	Run1	observe/STIM_019.jpg	100
973.665	1.095	1095.1	observe	Run1	observe/STIM_019.jpg	100
978.795	1.123	1122.6	observe	Run1	observe/STIM_019.jpg	100
982.572	2.575	2575.2	regulate	Run2	regulate/STIM_000.jpg	100
988.382	2.356	2355.5	regulate	Run2	regulate/STIM_000.jpg	100
993.067	2.074	2073.7	regulate	Run2	regulate/STIM_000.jpg	99
998.002	1.368	1368.1	regulate	Run2	regulate/STIM_000.jpg	100
1003.153	1.507	1507.4	regulate	Run2	regulate/STIM_001.jpg	100
1007.727	2.555	2554.7	regulate	Run2	regulate/STIM_001.jpg	100
1012.717	2.003	2003.4	regulate	Run2	regulate/STIM_001.jpg	100
1018.065	2.017	2016.5	regulate	Run2	regulate/STIM_001.jpg	100
1023.536	1.256	1255.7	regulate	Run2	regulate/STIM_002.jpg	99
1027.066	1.793	1793.2	regulate	Run2	regulate/STIM_002.jpg	99
1031.157	2.331	2331.1	regulate	Run2	regulate/STIM_002.jpg	99
1035.629	1.163	1163.0	regulate	Run2	regulate/STIM_002.jpg	99
1040.83	1.282	1281.5	regulate	Run2	regulate/STIM_003.jpg	99
1046.147	1.771	1770.7	regulate	Run2	regulate/STIM_003.jpg	99
1050.405	1.883	1883.3	regulate	Run2	regulate/STIM_003.jpg	99
1054.467	1.368	1367.8	regulate	Run2	regulate/STIM_003.jpg	99
1059.834	1.9	1900.0	regulate	Run2	regulate/STIM_004.jpg	99
1064.315	1.252	1251.6	regulate	Run2	regulate/STIM_004.jpg	100
1068.441	1.159	1158.7	regulate	Run2	regulate/STIM_004.jpg	100
1073.363	1.386	1385.7	regulate	Run2	regulate/STIM_004.jpg	100
1077.307	1.706	1705.8	regulate	Run2	regulate/STIM_005.jpg	99
1081.694	1.376	1376.1	regulate	Run2	regulate/STIM_005.jpg	100
1086.317	1.331	1331.2	regulate	Run2	regulate/STIM_005.jpg	99
1089.716	2.132	2132.2	regulate	Run2	regulate/STIM_005.jpg	100
1095.809	1.732	1732.5	regulate	Run2	regulate/STIM_006.jpg	100
1100.59	1.363	1363.2	regulate	Run2	regulate/STIM_006.jpg	100
1104.509	1.707	1706.7	regulate	Run2	regulate/STIM_006.jpg	100
1108.547	1.684	1683.6	regulate	Run2	regulate/STIM_006.jpg	100
1113.032	1.428	1427.9	regulate	Run2	regulate/STIM_007.jpg	100
1118.102	1.694	1694.5	regulate	Run2	regulate/STIM_007.jpg	99
1123.838	2.17	2169.9	regulate	Run2	regulate/STIM_007.jpg	100
1129.902	1.771	1770.7	regulate	Run2	regulate/STIM_007.jpg	100
1133.827	2.735	2735.0	regulate	Run2	regulate/STIM_008.jpg	100
1140.307	1.624	1624.1	regulate	Run2	regulate/STIM_008.jpg	100
1144.153	2.047	2046.6	regulate	Run2	regulate/STIM_008.jpg	99
1149.292	1.437	1436.6	regulate	Run2	regulate/STIM_008.jpg	100
1153.466	2.644	2644.3	regulate	Run2	regulate/STIM_009.jpg	99
1159.239	1.195	1195.2	regulate	Run2	regulate/STIM_009.jpg	99
1164.245	1.769	1769.1	regulate	Run2	regulate/STIM_009.jpg	100
1170.052	1.319	1318.9	regulate	Run2	regulate/STIM_009.jpg	100
1174.893	2.244	2243.7	regulate	Run2	regulate/STIM_010.jpg	99
1180.379	2.483	2483.2	regulate	Run2	regulate/STIM_010.jpg	99
1184.964	1.969	1968.6	regulate	Run2	regulate/STIM_010.jpg	99
1190.934	1.44	1439.7	regulate	Run2	regulate/STIM_010.jpg	100
1194.66	2.249	2248.9	regulate	Run2	regulate/STIM_011.jpg	99
1200.985	1.501	1500.8	regulate	Run2	regulate/STIM_011.jpg	100
1204.962	1.113	1113.4	regulate	Run2	regulate/STIM_011.jpg	99
1209.337	1.546	1545.9	regulate	Run2	regulate/STIM_011.jpg	100
1214.155	2.594	2593.9	regulate	Run2	regulate/STIM_012.jpg	99
1220.682	2.676	2675.7	regulate	Run2	regulate/STIM_012.jpg	99
1227.355	2.518	2517.8	regulate	Run2	regulate/STIM_012.jpg	100
1232.266	1.741	1741.4	regulate	Run2	regulate/STIM_012.jpg	99
1236.451	1.293	1293.0	regulate	Run2	regulate/STIM_013.jpg	100
1240.8	2.406	2405.5	regulate	Run2	regulate/STIM_013.jpg	99
1245.547	1.924	1924.0	regulate	Run2	regulate/STIM_013.jpg	100
1249.82	2.26	2260.4	regulate	Run2	regulate/STIM_013.jpg	99
1255.409	1.854	1853.5	regulate	Run2	regulate/STIM_014.jpg	100
1261.079	1.742	1742.5	regulate	Run2	regulate/STIM_014.jpg	99
1265.798	2.491	2490.6	regulate	Run2	regulate/STIM_014.jpg	100
1270.755	1.432	1432.3	regulate	Run2	regulate/STIM_014.jpg	99
1274.977	2.553	2553.1	regulate	Run2	regulate/STIM_015.jpg	99
1280.953	1.174	1174.5	regulate	Run2	regulate/STIM_015.jpg	99
1285.949	2.212	2211.8	regulate	Run2	regulate/STIM_015.jpg	100
1290.283	1.298	1298.0	regulate	Run2	regulate/STIM_015.jpg	99
1294.32	2.319	2318.8	regulate	Run2	regulate/STIM_016.jpg	99
1300.715	1.452	1452.2	regulate	Run2	regulate/STIM_016.jpg	100
1305.713	1.138	1137.5	regulate	Run2	regulate/STIM_016.jpg	99
1310.72	1.908	1908.2	regulate	Run2	regulate/STIM_016.jpg	100
1316.218	2.271	2271.4	regulate	Run2	regulate/STIM_017.jpg	100
1322.212	2.688	2687.5	regulate	Run2	regulate/STIM_017.jpg	100
1327.862	2.418	2417.5	regulate	Run2	regulate/STIM_017.jpg	100
1334.345	1.587	1587.2	regulate	Run2	regulate/STIM_017.jpg	99
1338.714	1.622	1622.0	regulate	Run2	regulate/STIM_018.jpg	99
1343.515	1.548	1547.7	regulate	Run2	regulate/STIM_018.jpg	99
1347.82	1.468	1467.5	regulate	Run2	regulate/STIM_018.jpg	100
1353.28	1.62	1620.2	regulate	Run2	regulate/STIM_018.jpg	100
1357.699	1.24	1240.1	regulate	Run2	regulate/STIM_019.jpg	99
1361.643	2.404	2403.9	regulate	Run2	regulate/STIM_019.jpg	100
1366.457	2.451	2451.0	regulate	Run2	regulate/STIM_019.jpg	100
1372.698	1.654	1653.7	regulate	Run2	regulate/STIM_019.jpg	100
1377.402	1.723	1723.4	regulate	Run2	regulate/STIM_020.jpg	99
1382.242	2.685	2685.2	regulate	Run2	regulate/STIM_020.jpg	100
1388.955	1.463	1463.4	regulate	Run2	regulate/STIM_020.jpg	100
1393.495	1.856	1855.5	regulate	Run2	regulate/STIM_020.jpg	100
1399.016	2.122	2121.9	regulate	Run2	regulate/STIM_021.jpg	100
1404.237	2.659	2659.1	regulate	Run2	regulate/STIM_021.jpg	100
1409.223	2.057	2056.8	regulate	Run2	regulate/STIM_021.jpg	100
1414.465	1.689	1688.6	regulate	Run2	regulate/STIM_021.jpg	100
1419.502	1.294	1294.2	regulate	Run2	regulate/STIM_022.jpg	100
1423.758	2.488	2488.3	regulate	Run2	regulate/STIM_022.jpg	100
1429.908	1.786	1785.7	regulate	Run2	regulate/STIM_022.jpg	100
1434.089	1.882	1882.0	regulate	Run2	regulate/STIM_022.jpg	99
1438.529	2.264	2264.3	regulate	Run2	regulate/STIM_023.jpg	100
1443.223	1.466	1466.3	regulate	Run2	regulate/STIM_023.jpg	99
1448.007	2.208	2207.8	regulate	Run2	regulate/STIM_023.jpg	100
1453.75	1.991	1991.0	regulate	Run2	regulate/STIM_023.jpg	99
1459.189	1.962	1962.5	regulate	Run2	regulate/STIM_024.jpg	99
1465.214	2.011	2011.5	regulate	Run2	regulate/STIM_024.jpg	100
1469.603	1.092	1092.2	regulate	Run2	regulate/STIM_024.jpg	99
1473.775	1.737	1737.4	regulate	Run2	regulate/STIM_024.jpg	100
1479.107	2.662	2661.8	regulate	Run2	regulate/STIM_025.jpg	99
1484.336	1.894	1894.2	regulate	Run2	regulate/STIM_025.jpg	100
1490.073	2.312	2311.9	regulate	Run2	regulate/STIM_025.jpg	99
1494.477	2.098	2097.8	regulate	Run2	regulate/STIM_025.jpg	99
1499.886	1.753	1753.1	regulate	Run2	regulate/STIM_026.jpg	100
1504.998	1.442	1441.6	regulate	Run2	regulate/STIM_026.jpg	100
1510.296	1.126	1126.3	regulate	Run2	regulate/STIM_026.jpg	99
1515.191	2.104	2103.8	regulate	Run2	regulate/STIM_026.jpg	100
1520.113	1.26	1260.2	regulate	Run2	regulate/STIM_027.jpg	100
1525.37	1.288	1288.1	regulate	Run2	regulate/STIM_027.jpg	99
1530.01	2.286	2286.0	regulate	Run2	regulate/STIM_027.jpg	100
1534.558	2.115	2114.8	regulate	Run2	regulate/STIM_027.jpg	100
1540.366	1.876	1876.2	regulate	Run2	regulate/STIM_028.jpg	99
1544.916	2.253	2253.4	regulate	Run2	regulate/STIM_028.jpg	100
1550.02	1.836	1835.9	regulate	Run2	regulate/STIM_028.jpg	100
1555.565	2.219	2219.2	regulate	Run2	regulate/STIM_028.jpg	100
1561.497	2.257	2256.6	regulate	Run2	regulate/STIM_029.jpg	99
1566.814	2.039	2039.4	regulate	Run2	regulate/STIM_029.jpg	99
1572.031	1.242	1242.3	regulate	Run2	regulate/STIM_029.jpg	99
1575.7	1.306	1306.3	regulate	Run2	regulate/STIM_029.jpg	99
1579.069	0.784	783.8	observe	Run2	observe/STIM_000.jpg	100
1582.329	1.234	1234.1	observe	Run2	observe/STIM_000.jpg	100
1585.772	0.87	869.7	observe	Run2	observe/STIM_000.jpg	100
1589.671	0.778	778.0	observe	Run2	observe/STIM_000.jpg	99
1593.073	0.972	972.0	observe	Run2	observe/STIM_001.jpg	99
1597.943	1.372	1371.8	observe	Run2	observe/STIM_001.jpg	100
1602.992	1.215	1215.1	observe	Run2	observe/STIM_001.jpg	99
1607.339	1.449	1448.8	observe	Run2	observe/STIM_001.jpg	100
1611.595	1.229	1229.4	observe	Run2	observe/STIM_002.jpg	99
1616.001	1.341	1340.9	observe	Run2	observe/STIM_002.jpg	99
1620.066	1.135	1135.1	observe	Run2	observe/STIM_002.jpg	100
1624.77	0.828	828.0	observe	Run2	observe/STIM_002.jpg	99
1627.692	1.282	1281.9	observe	Run2	observe/STIM_003.jpg	100
1631.227	0.919	918.6	observe	Run2	observe/STIM_003.jpg	100
1635.962	1.183	1183.2	observe	Run2	observe/STIM_003.jpg	99
1639.273	0.952	952.4	observe	Run2	observe/STIM_003.jpg	100
1643.764	1.201	1200.8	observe	Run2	observe/STIM_004.jpg	99
1647.1	1.517	1516.8	observe	Run2	observe/STIM_004.jpg	100
1652.207	1.196	1196.4	observe	Run2	observe/STIM_004.jpg	100
1656.032	1.408	1407.8	observe	Run2	observe/STIM_004.jpg	100
1659.723	1.465	1464.7	observe	Run2	observe/STIM_005.jpg	100
1665.199	1.397	1397.1	observe	Run2	observe/STIM_005.jpg	100
1669.531	1.077	1076.6	observe	Run2	observe/STIM_005.jpg	100
1673.346	1.217	1216.7	observe	Run2	observe/STIM_005.jpg	100
1676.771	1.05	1049.6	observe	Run2	observe/STIM_006.jpg	99
1680.541	0.982	982.5	observe	Run2	observe/STIM_006.jpg	99
1685.125	0.88	880.5	observe	Run2	observe/STIM_006.jpg	100
1688.832	1.399	1399.1	observe	Run2	observe/STIM_006.jpg	99
1693.001	1.06	1060.3	observe	Run2	observe/STIM_007.jpg	100
1697.453	0.869	868.9	observe	Run2	observe/STIM_007.jpg	99
1700.816	1.322	1321.5	observe	Run2	observe/STIM_007.jpg	99
1705.796	1.288	1288.0	observe	Run2	observe/STIM_007.jpg	99
1710.254	0.987	986.8	observe	Run2	observe/STIM_008.jpg	99
1713.506	1.0	1000.3	observe	Run2	observe/STIM_008.jpg	99
1717.918	1.399	1399.4	observe	Run2	observe/STIM_008.jpg	100
1722.103	1.005	1004.7	observe	Run2	observe/STIM_008.jpg	99
1725.476	1.195	1195.1	observe	Run2	observe/STIM_009.jpg	100
1729.864	1.011	1011.4	observe	Run2	observe/STIM_009.jpg	99
1732.946	0.86	859.5	observe	Run2	observe/STIM_009.jpg	99
1736.831	1.12	1120.4	observe	Run2	observe/STIM_009.jpg	100
1740.611	0.975	974.6	observe	Run2	observe/STIM_010.jpg	100
1745.065	0.792	791.5	observe	Run2	observe/STIM_010.jpg	99
1749.797	1.153	1153.3	observe	Run2	observe/STIM_010.jpg	99
1753.104	1.205	1205.0	observe	Run2	observe/STIM_010.jpg	99
1757.691	1.516	1516.3	observe	Run2	observe/STIM_011.jpg	100
1762.716	1.335	1335.2	observe	Run2	observe/STIM_011.jpg	100
1766.434	1.464	1464.1	observe	Run2	observe/STIM_011.jpg	99
1770.998	1.169	1168.6	observe	Run2	observe/STIM_011.jpg	99
1774.841	1.267	1267.2	observe	Run2	observe/STIM_012.jpg	100
1779.624	1.309	1309.0	observe	Run2	observe/STIM_012.jpg	100
1784.48	1.446	1445.6	observe	Run2	observe/STIM_012.jpg	100
1788.595	1.515	1515.0	observe	Run2	observe/STIM_012.jpg	99
1793.908	1.396	1396.5	observe	Run2	observe/STIM_013.jpg	99
1798.136	1.169	1168.8	observe	Run2	observe/STIM_013.jpg	100
1801.591	1.192	1192.0	observe	Run2	observe/STIM_013.jpg	100
1806.482	1.4	1399.9	observe	Run2	observe/STIM_013.jpg	99
1811.591	0.799	799.2	observe	Run2	observe/STIM_014.jpg	100
1814.658	1.086	1086.4	observe	Run2	observe/STIM_014.jpg	99
1818.715	1.145	1145.0	observe	Run2	observe/STIM_014.jpg	100
1822.496	1.141	1140.6	observe	Run2	observe/STIM_014.jpg	99
1826.664	1.544	1544.2	observe	Run2	observe/STIM_015.jpg	100
1830.718	1.41	1409.8	observe	Run2	observe/STIM_015.jpg	99
1835.105	1.196	1195.9	observe	Run2	observe/STIM_015.jpg	99
1838.702	1.446	1446.3	observe	Run2	observe/STIM_015.jpg	99
1843.928	1.496	1495.5	observe	Run2	observe/STIM_016.jpg	99
1849.081	1.331	1330.6	observe	Run2	observe/STIM_016.jpg	99
1854.382	1.174	1174.1	observe	Run2	observe/STIM_016.jpg	100
1859.316	0.944	944.1	observe	Run2	observe/STIM_016.jpg	100
1863.882	1.514	1514.4	observe	Run2	observe/STIM_017.jpg	99
1867.731	1.064	1064.0	observe	Run2	observe/STIM_017.jpg	99
1871.972	0.884	883.7	observe	Run2	observe/STIM_017.jpg	100
1875.125	0.922	921.5	observe	Run2	observe/STIM_017.jpg	100
1879.133	1.078	1078.0	observe	Run2	observe/STIM_018.jpg	99
1882.626	0.979	979.4	observe	Run2	observe/STIM_018.jpg	100
1887.503	1.136	1135.5	observe	Run2	observe/STIM_018.jpg	100
1891.055	1.514	1514.5	observe	Run2	observe/STIM_018.jpg	100
1895.439	1.365	1365.0	observe	Run2	observe/STIM_019.jpg	99
1899.679	1.386	1385.9	observe	Run2	observe/STIM_019.jpg	99
1904.922	1.509	1508.6	observe	Run2	observe/STIM_019.jpg	100
1909.179	1.47	1469.5	observe	Run2	observe/STIM_019.jpg	100
1914.685	2.304	2303.8	regulate	Run3	regulate/STIM_000.jpg	100
1919.911	1.878	1878.5	regulate	Run3	regulate/STIM_000.jpg	99
1925.178	1.773	1773.1	regulate	Run3	regulate/STIM_000.jpg	100
1929.076	1.371	1371.4	regulate	Run3	regulate/STIM_000.jpg	100
1932.669	2.192	2192.3	regulate	Run3	regulate/STIM_001.jpg	99
1938.121	1.295	1294.9	regulate	Run3	regulate/STIM_001.jpg	99
1941.617	2.349	2348.7	regulate	Run3	regulate/STIM_001.jpg	99
1946.302	1.387	1387.4	regulate	Run3	regulate/STIM_001.jpg	99
1950.917	1.82	1819.8	regulate	Run3	regulate/STIM_002.jpg	99
1954.942	2.198	2198.0	regulate	Run3	regulate/STIM_002.jpg	99
1960.366	1.251	1251.1	regulate	Run3	regulate/STIM_002.jpg	99
1963.795	2.068	2067.8	regulate	Run3	regulate/STIM_002.jpg	99
1968.979	2.05	2050.4	regulate	Run3	regulate/STIM_003.jpg	99
1973.99	1.498	1497.8	regulate	Run3	regulate/STIM_003.jpg	100
1978.154	2.073	2073.4	regulate	Run3	regulate/STIM_003.jpg	99
1983.609	1.014	1014.1	regulate	Run3	regulate/STIM_003.jpg	100
1987.235	1.558	1557.8	regulate	Run3	regulate/STIM_004.jpg	99
1992.226	1.182	1181.9	regulate	Run3	regulate/STIM_004.jpg	100
1996.001	1.683	1683.1	regulate	Run3	regulate/STIM_004.jpg	100
2000.471	1.761	1760.8	regulate	Run3	regulate/STIM_004.jpg	100
2005.058	1.581	1581.0	regulate	Run3	regulate/STIM_005.jpg	100
2009.73	1.989	1988.6	regulate	Run3	regulate/STIM_005.jpg	99
2015.419	2.004	2004.1	regulate	Run3	regulate/STIM_005.jpg	100
2020.839	1.829	1829.1	regulate	Run3	regulate/STIM_005.jpg	100
2026.715	2.23	2230.2	regulate	Run3	regulate/STIM_006.jpg	100
2031.284	1.336	1335.8	regulate	Run3	regulate/STIM_006.jpg	100
2035.654	1.4	1399.7	regulate	Run3	regulate/STIM_006.jpg	99
2040.696	1.671	1671.3	regulate	Run3	regulate/STIM_006.jpg	100
2046.204	1.699	1698.9	regulate	Run3	regulate/STIM_007.jpg	99
2050.005	2.159	2158.7	regulate	Run3	regulate/STIM_007.jpg	100
2054.818	1.398	1398.1	regulate	Run3	regulate/STIM_007.jpg	100
2058.504	1.723	1723.3	regulate	Run3	regulate/STIM_007.jpg	100
2064.122	1.962	1961.6	regulate	Run3	regulate/STIM_008.jpg	100
2069.812	1.616	1616.3	regulate	Run3	regulate/STIM_008.jpg	99
2074.931	1.77	1770.2	regulate	Run3	regulate/STIM_008.jpg	99
2080.641	1.64	1639.6	regulate	Run3	regulate/STIM_008.jpg	100
2085.999	1.618	1618.5	regulate	Run3	regulate/STIM_009.jpg	99
2090.536	2.0	1999.8	regulate	Run3	regulate/STIM_009.jpg	99
2095.588	2.259	2259.3	regulate	Run3	regulate/STIM_009.jpg	99
2101.014	1.97	1969.5	regulate	Run3	regulate/STIM_009.jpg	99
2106.185	1.384	1384.0	regulate	Run3	regulate/STIM_010.jpg	100
2110.117	1.915	1915.3	regulate	Run3	regulate/STIM_010.jpg	99
2114.375	1.74	1739.9	regulate	Run3	regulate/STIM_010.jpg	100
2119.038	1.769	1768.7	regulate	Run3	regulate/STIM_010.jpg	99
2123.944	1.539	1539.1	regulate	Run3	regulate/STIM_011.jpg	99
2129.389	1.326	1326.3	regulate	Run3	regulate/STIM_011.jpg	99
2133.928	1.81	1810.2	regulate	Run3	regulate/STIM_011.jpg	99
2138.853	1.897	1896.7	regulate	Run3	regulate/STIM_011.jpg	99
2144.281	1.702	1701.5	regulate	Run3	regulate/STIM_012.jpg	100
2149.438	1.593	1592.7	regulate	Run3	regulate/STIM_012.jpg	99
2153.979	2.186	2185.7	regulate	Run3	regulate/STIM_012.jpg	99
2158.698	1.78	1780.2	regulate	Run3	regulate/STIM_012.jpg	100
2164.288	1.872	1871.7	regulate	Run3	regulate/STIM_013.jpg	99
2170.076	1.737	1737.3	regulate	Run3	regulate/STIM_013.jpg	100
2174.581	2.163	2162.9	regulate	Run3	regulate/STIM_013.jpg	100
2179.156	1.394	1394.0	regulate	Run3	regulate/STIM_013.jpg	99
2182.864	1.873	1873.4	regulate	Run3	regulate/STIM_014.jpg	99
2188.406	1.777	1777.1	regulate	Run3	regulate/STIM_014.jpg	100
2193.754	1.02	1020.4	regulate	Run3	regulate/STIM_014.jpg	99
2198.037	1.333	1332.8	regulate	Run3	regulate/STIM_014.jpg	100
2202.037	1.304	1303.6	regulate	Run3	regulate/STIM_015.jpg	100
2206.907	1.228	1227.9	regulate	Run3	regulate/STIM_015.jpg	99
2211.526	2.097	2097.1	regulate	Run3	regulate/STIM_015.jpg	99
2215.806	1.362	1362.0	regulate	Run3	regulate/STIM_015.jpg	99
2220.05	1.486	1486.0	regulate	Run3	regulate/STIM_016.jpg	100
2223.693	1.499	1499.2	regulate	Run3	regulate/STIM_016.jpg	100
2227.949	1.476	1475.5	regulate	Run3	regulate/STIM_016.jpg	99
2232.448	1.792	1792.4	regulate	Run3	regulate/STIM_016.jpg	99
2236.612	1.16	1160.4	regulate	Run3	regulate/STIM_017.jpg	100
2240.576	2.011	2010.8	regulate	Run3	regulate/STIM_017.jpg	100
2244.729	1.342	1341.6	regulate	Run3	regulate/STIM_017.jpg	100
2249.584	1.526	1525.9	regulate	Run3	regulate/STIM_017.jpg	99
2253.353	1.764	1764.2	regulate	Run3	regulate/STIM_018.jpg	99
2259.147	2.293	2293.0	regulate	Run3	regulate/STIM_018.jpg	99
2264.437	1.472	1471.5	regulate	Run3	regulate/STIM_018.jpg	99
2269.669	1.44	1440.2	regulate	Run3	regulate/STIM_018.jpg	100
2274.302	1.12	1120.0	regulate	Run3	regulate/STIM_019.jpg	99
2278.84	1.928	1928.1	regulate	Run3	regulate/STIM_019.jpg	99
2283.395	1.774	1774.1	regulate	Run3	regulate/STIM_019.jpg	99
2287.596	1.356	1356.1	regulate	Run3	regulate/STIM_019.jpg	100
2292.825	1.859	1859.2	regulate	Run3	regulate/STIM_020.jpg	100
2296.815	1.362	1362.0	regulate	Run3	regulate/STIM_020.jpg	99
2301.266	2.131	2130.7	regulate	Run3	regulate/STIM_020.jpg	99
2307.074	2.143	2142.9	regulate	Run3	regulate/STIM_020.jpg	100
2312.79	2.343	2343.4	regulate	Run3	regulate/STIM_021.jpg	100
2317.472	1.117	1117.1	regulate	Run3	regulate/STIM_021.jpg	100
2321.625	1.119	1119.4	regulate	Run3	regulate/STIM_021.jpg	100
2326.35	1.955	1955.4	regulate	Run3	regulate/STIM_021.jpg	99
2331.505	2.255	2255.3	regulate	Run3	regulate/STIM_022.jpg	100
2336.017	1.516	1516.2	regulate	Run3	regulate/STIM_022.jpg	100
2341.425	2.045	2045.3	regulate	Run3	regulate/STIM_022.jpg	99
2345.833	1.388	1388.5	regulate	Run3	regulate/STIM_022.jpg	100
2350.593	2.145	2145.0	regulate	Run3	regulate/STIM_023.jpg	100
2355.368	1.942	1942.1	regulate	Run3	regulate/STIM_023.jpg	100
2359.415	1.025	1024.7	regulate	Run3	regulate/STIM_023.jpg	100
2363.742	2.053	2053.1	regulate	Run3	regulate/STIM_023.jpg	99
2368.482	1.808	1807.5	regulate	Run3	regulate/STIM_024.jpg	99
2372.969	1.853	1852.7	regulate	Run3	regulate/STIM_024.jpg	100
2378.648	1.877	1876.9	regulate	Run3	regulate/STIM_024.jpg	99
2384.139	1.383	1383.1	regulate	Run3	regulate/STIM_024.jpg	100
2388.51	1.454	1453.6	regulate	Run3	regulate/STIM_025.jpg	100
2394.015	1.91	1910.0	regulate	Run3	regulate/STIM_025.jpg	99
2398.784	1.996	1996.3	regulate	Run3	regulate/STIM_025.jpg	100
2403.004	2.291	2290.9	regulate	Run3	regulate/STIM_025.jpg	100
2408.87	1.366	1365.8	regulate	Run3	regulate/STIM_026.jpg	100
2413.74	1.806	1806.5	regulate	Run3	regulate/STIM_026.jpg	99
2418.603	1.604	1604.0	regulate	Run3	regulate/STIM_026.jpg	99
2422.312	2.32	2320.1	regulate	Run3	regulate/STIM_026.jpg	100
2427.756	1.021	1020.6	regulate	Run3	regulate/STIM_027.jpg	100
2431.147	1.603	1603.0	regulate	Run3	regulate/STIM_027.jpg	99
2435.729	1.354	1353.8	regulate	Run3	regulate/STIM_027.jpg	100
2439.751	1.746	1746.0	regulate	Run3	regulate/STIM_027.jpg	99
2444.3	1.238	1238.5	regulate	Run3	regulate/STIM_028.jpg	100
2448.023	1.078	1078.2	regulate	Run3	regulate/STIM_028.jpg	99
2452.675	2.304	2303.9	regulate	Run3	regulate/STIM_028.jpg	100
2457.205	2.177	2177.0	regulate	Run3	regulate/STIM_028.jpg	99
2461.891	2.052	2051.9	regulate	Run3	regulate/STIM_029.jpg	99
2467.65	1.217	1217.2	regulate	Run3	regulate/STIM_029.jpg	99
2471.5	1.291	1291.4	regulate	Run3	regulate/STIM_029.jpg	99
2476.024	1.152	1152.5	regulate	Run3	regulate/STIM_029.jpg	99
2480.938	1.52	1520.0	observe	Run3	observe/STIM_000.jpg	100
2485.047	0.856	856.0	observe	Run3	observe/STIM_000.jpg	100
2488.634	1.12	1119.9	observe	Run3	observe/STIM_000.jpg	99
2492.371	1.429	1428.9	observe	Run3	observe/STIM_000.jpg	99
2495.958	1.043	1043.1	observe	Run3	observe/STIM_001.jpg	100
2499.723	1.209	1208.8	observe	Run3	observe/STIM_001.jpg	100
2504.083	0.961	961.2	observe	Run3	observe/STIM_001.jpg	99
2507.861	0.793	793.2	observe	Run3	observe/STIM_001.jpg	100
2512.123	1.147	1147.3	observe	Run3	observe/STIM_002.jpg	99
2517.207	1.246	1246.0	observe	Run3	observe/STIM_002.jpg	99
2522.026	1.363	1362.9	observe	Run3	observe/STIM_002.jpg	100
2527.431	1.294	1294.4	observe	Run3	observe/STIM_002.jpg	99
2531.858	1.078	1077.5	observe	Run3	observe/STIM_003.jpg	99
2536.694	1.016	1016.1	observe	Run3	observe/STIM_003.jpg	99
2540.417	0.785	784.8	observe	Run3	observe/STIM_003.jpg	99
2544.717	0.849	848.7	observe	Run3	observe/STIM_003.jpg	99
2548.199	1.295	1295.0	observe	Run3	observe/STIM_004.jpg	99
2552.33	1.148	1148.5	observe	Run3	observe/STIM_004.jpg	99
2557.469	1.457	1457.0	observe	Run3	observe/STIM_004.jpg	100
2561.26	0.996	996.5	observe	Run3	observe/STIM_004.jpg	99
2565.594	1.092	1092.4	observe	Run3	observe/STIM_005.jpg	100
2570.298	1.463	1462.7	observe	Run3	observe/STIM_005.jpg	100
2575.434	1.419	1419.4	observe	Run3	observe/STIM_005.jpg	100
2580.344	1.058	1057.5	observe	Run3	observe/STIM_005.jpg	99
2584.418	1.137	1137.4	observe	Run3	observe/STIM_006.jpg	100
2589.389	1.122	1122.4	observe	Run3	observe/STIM_006.jpg	100
2594.328	0.781	780.6	observe	Run3	observe/STIM_006.jpg	100
2597.813	1.318	1318.0	observe	Run3	observe/STIM_006.jpg	99
2603.155	1.004	1004.0	observe	Run3	observe/STIM_007.jpg	100
2606.497	1.505	1504.9	observe	Run3	observe/STIM_007.jpg	99
2611.17	0.817	816.8	observe	Run3	observe/STIM_007.jpg	99
2615.293	1.105	1105.4	observe	Run3	observe/STIM_007.jpg	100
2619.04	1.163	1163.3	observe	Run3	observe/STIM_008.jpg	100
2622.982	1.446	1446.3	observe	Run3	observe/STIM_008.jpg	99
2627.483	1.087	1086.8	observe	Run3	observe/STIM_008.jpg	99
2632.203	0.955	954.6	observe	Run3	observe/STIM_008.jpg	99
2635.504	1.089	1088.6	observe	Run3	observe/STIM_009.jpg	100
2639.445	1.322	1321.6	observe	Run3	observe/STIM_009.jpg	99
2643.241	1.542	1542.2	observe	Run3	observe/STIM_009.jpg	100
2648.529	1.46	1460.4	observe	Run3	observe/STIM_009.jpg	99
2652.57	0.905	904.9	observe	Run3	observe/STIM_010.jpg	100
2656.546	1.263	1262.6	observe	Run3	observe/STIM_010.jpg	100
2660.081	1.267	1267.1	observe	Run3	observe/STIM_010.jpg	99
2664.503	0.819	819.3	observe	Run3	observe/STIM_010.jpg	99
2668.997	0.927	927.4	observe	Run3	observe/STIM_011.jpg	100
2673.285	0.88	880.4	observe	Run3	observe/STIM_011.jpg	99
2677.395	1.434	1434.3	observe	Run3	observe/STIM_011.jpg	99
2681.19	0.817	817.1	observe	Run3	observe/STIM_011.jpg	100
2684.668	1.352	1352.2	observe	Run3	observe/STIM_012.jpg	100
2689.74	1.093	1093.2	observe	Run3	observe/STIM_012.jpg	100
2693.214	1.449	1449.0	observe	Run3	observe/STIM_012.jpg	99
2698.445	1.532	1532.1	observe	Run3	observe/STIM_012.jpg	99
2702.148	0.977	976.8	observe	Run3	observe/STIM_013.jpg	100
2705.215	1.181	1181.0	observe	Run3	observe/STIM_013.jpg	100
2709.881	1.177	1177.4	observe	Run3	observe/STIM_013.jpg	99
2714.061	1.525	1525.0	observe	Run3	observe/STIM_013.jpg	99
2717.708	0.792	792.3	observe	Run3	observe/STIM_014.jpg	100
2721.899	1.426	1426.4	observe	Run3	observe/STIM_014.jpg	99
2727.246	1.185	1185.1	observe	Run3	observe/STIM_014.jpg	100
2731.544	0.848	848.3	observe	Run3	observe/STIM_014.jpg	100
2735.779	1.299	1298.6	observe	Run3	observe/STIM_015.jpg	100
2740.728	1.177	1177.4	observe	Run3	observe/STIM_015.jpg	100
2745.305	1.319	1319.3	observe	Run3	observe/STIM_015.jpg	99
2750.132	1.354	1354.0	observe	Run3	observe/STIM_015.jpg	100
2754.917	1.236	1235.5	observe	Run3	observe/STIM_016.jpg	100
2758.321	1.169	1169.2	observe	Run3	observe/STIM_016.jpg	100
2763.1	0.913	912.7	observe	Run3	observe/STIM_016.jpg	100
2767.891	1.543	1542.6	observe	Run3	observe/STIM_016.jpg	100
2771.885	1.168	1167.7	observe	Run3	observe/STIM_017.jpg	100
2776.414	1.232	1232.1	observe	Run3	observe/STIM_017.jpg	99
2781.545	1.096	1096.1	observe	Run3	observe/STIM_017.jpg	99
2785.987	0.942	941.9	observe	Run3	observe/STIM_017.jpg	99
2790.749	0.916	916.5	observe	Run3	observe/STIM_018.jpg	99
2795.067	0.879	878.9	observe	Run3	observe/STIM_018.jpg	99
2798.574	1.529	1529.0	observe	Run3	observe/STIM_018.jpg	99
2802.664	0.97	970.3	observe	Run3	observe/STIM_018.jpg	99
2805.964	1.064	1064.4	observe	Run3	observe/STIM_019.jpg	99
2810.986	1.183	1183.1	observe	Run3	observe/STIM_019.jpg	100
2816.081	1.215	1215.2	observe	Run3	observe/STIM_019.jpg	99
2820.45	1.098	1098.2	observe	Run3	observe/STIM_019.jpg	99
