onset	duration	accuracy_binary	trial_type	learning_stage	stimulus
0.0	1.802	1	study	Phase1	study/STIM_000.jpg
3.942	1.253	1	study	Phase1	study/STIM_000.jpg
7.986	1.343	1	study	Phase1	study/STIM_000.jpg
13.052	1.959	1	study	Phase1	study/STIM_001.jpg
16.934	1.414	1	study	Phase1	study/STIM_001.jpg
21.724	1.488	1	study	Phase1	study/STIM_001.jpg
25.712	0.909	1	study	Phase1	study/STIM_002.jpg
28.689	1.502	1	study	Phase1	study/STIM_002.jpg
32.943	1.109	1	study	Phase1	study/STIM_002.jpg
36.589	1.71	1	study	Phase1	study/STIM_003.jpg
40.921	1.442	1	study	Phase1	study/STIM_003.jpg
45.381	1.744	1	study	Phase1	study/STIM_003.jpg
50.347	1.888	1	study	Phase1	study/STIM_004.jpg
55.137	0.985	1	study	Phase1	study/STIM_004.jpg
58.752	1.332	1	study	Phase1	study/STIM_004.jpg
63.099	2.008	1	study	Phase1	study/STIM_005.jpg
68.379	1.904	1	study	Phase1	study/STIM_005.jpg
73.734	0.857	1	study	Phase1	study/STIM_005.jpg
77.852	1.92	0	study	Phase1	study/STIM_006.jpg
83.173	1.057	1	study	Phase1	study/STIM_006.jpg
87.798	0.986	1	study	Phase1	study/STIM_006.jpg
92.331	1.61	1	study	Phase1	study/STIM_007.jpg
97.068	1.053	1	study	Phase1	study/STIM_007.jpg
100.784	1.597	1	study	Phase1	study/STIM_007.jpg
105.173	1.906	1	study	Phase1	study/STIM_008.jpg
109.485	1.156	1	study	Phase1	study/STIM_008.jpg
112.725	1.23	1	study	Phase1	study/STIM_008.jpg
116.43	1.855	1	study	Phase1	study/STIM_009.jpg
120.996	1.849	1	study	Phase1	study/STIM_009.jpg
126.567	0.886	1	study	Phase1	study/STIM_009.jpg
129.515	0.998	1	study	Phase1	study/STIM_010.jpg
133.215	1.727	0	study	Phase1	study/STIM_010.jpg
136.999	0.844	1	study	Phase1	study/STIM_010.jpg
140.209	1.31	0	study	Phase1	study/STIM_011.jpg
144.181	1.9	1	study	Phase1	study/STIM_011.jpg
149.292	1.052	1	study	Phase1	study/STIM_011.jpg
152.246	1.483	1	study	Phase1	study/STIM_012.jpg
156.398	1.12	0	study	Phase1	study/STIM_012.jpg
161.028	1.492	0	study	Phase1	study/STIM_012.jpg
164.601	1.212	1	study	Phase1	study/STIM_013.jpg
169.592	1.252	0	study	Phase1	study/STIM_013.jpg
173.854	1.513	1	study	Phase1	study/STIM_013.jpg
179.183	1.973	1	study	Phase1	study/STIM_014.jpg
184.317	1.274	0	study	Phase1	study/STIM_014.jpg
188.491	0.831	1	study	Phase1	study/STIM_014.jpg
191.941	1.409	1	study	Phase1	study/STIM_015.jpg
196.156	1.39	1	study	Phase1	study/STIM_015.jpg
200.139	1.044	1	study	Phase1	study/STIM_015.jpg
203.708	1.544	1	study	Phase1	study/STIM_016.jpg
208.51	1.813	1	study	Phase1	study/STIM_016.jpg
213.123	1.446	1	study	Phase1	study/STIM_016.jpg
217.687	1.87	0	study	Phase1	study/STIM_017.jpg
222.089	1.399	0	study	Phase1	study/STIM_017.jpg
225.354	1.398	1	study	Phase1	study/STIM_017.jpg
229.372	1.933	1	study	Phase1	study/STIM_018.jpg
234.346	1.077	1	study	Phase1	study/STIM_018.jpg
238.231	0.848	1	study	Phase1	study/STIM_018.jpg
241.655	0.949	1	study	Phase1	study/STIM_019.jpg
245.852	1.225	1	study	Phase1	study/STIM_019.jpg
250.843	1.468	1	study	Phase1	study/STIM_019.jpg
254.825	1.969	1	study	Phase1	study/STIM_020.jpg
259.446	1.152	0	study	Phase1	study/STIM_020.jpg
263.983	1.638	1	study	Phase1	study/STIM_020.jpg
269.313	1.261	1	study	Phase1	study/STIM_021.jpg
273.668	0.889	1	study	Phase1	study/STIM_021.jpg
277.719	1.401	1	study	Phase1	study/STIM_021.jpg
282.29	0.996	1	study	Phase1	study/STIM_022.jpg
285.783	1.309	1	study	Phase1	study/STIM_022.jpg
289.219	1.632	0	study	Phase1	study/STIM_022.jpg
294.12	1.324	1	study	Phase1	study/STIM_023.jpg
298.274	1.203	1	study	Phase1	study/STIM_023.jpg
302.478	1.385	1	study	Phase1	study/STIM_023.jpg
307.681	1.322	1	study	Phase1	study/STIM_024.jpg
311.445	1.273	1	study	Phase1	study/STIM_024.jpg
315.371	1.01	1	study	Phase1	study/STIM_024.jpg
318.352	1.048	1	study	Phase1	study/STIM_025.jpg
322.1	1.296	1	study	Phase1	study/STIM_025.jpg
325.711	0.959	1	study	Phase1	study/STIM_025.jpg
330.32	1.776	1	study	Phase1	study/STIM_026.jpg
334.445	1.414	0	study	Phase1	study/STIM_026.jpg
339.533	1.398	1	study	Phase1	study/STIM_026.jpg
344.663	1.518	1	study	Phase1	study/STIM_027.jpg
348.614	1.735	1	study	Phase1	study/STIM_027.jpg
352.505	1.608	0	study	Phase1	study/STIM_027.jpg
356.288	1.199	0	study	Phase1	study/STIM_028.jpg
359.491	1.2	0	study	Phase1	study/STIM_028.jpg
364.148	1.151	1	study	Phase1	study/STIM_028.jpg
368.427	1.192	1	study	Phase1	study/STIM_029.jpg
372.207	1.658	1	study	Phase1	study/STIM_029.jpg
376.96	1.227	1	study	Phase1	study/STIM_029.jpg
381.615	1.122	1	test	Phase1	test/STIM_000.jpg
385.728	0.745	1	test	Phase1	test/STIM_000.jpg
389.788	1.404	1	test	Phase1	test/STIM_000.jpg
393.501	0.718	1	test	Phase1	test/STIM_001.jpg
396.931	0.688	1	test	Phase1	test/STIM_001.jpg
400.712	1.423	1	test	Phase1	test/STIM_001.jpg
405.409	1.184	0	test	Phase1	test/STIM_002.jpg
409.005	0.996	1	test	Phase1	test/STIM_002.jpg
412.547	1.128	1	test	Phase1	test/STIM_002.jpg
416.121	1.384	1	test	Phase1	test/STIM_003.jpg
420.765	0.89	1	test	Phase1	test/STIM_003.jpg
424.921	0.916	1	test	Phase1	test/STIM_003.jpg
429.419	1.233	1	test	Phase1	test/STIM_004.jpg
432.882	1.208	1	test	Phase1	test/STIM_004.jpg
436.435	0.723	1	test	Phase1	test/STIM_004.jpg
440.086	1.075	1	test	Phase1	test/STIM_005.jpg
443.154	1.279	1	test	Phase1	test/STIM_005.jpg
447.719	1.462	1	test	Phase1	test/STIM_005.jpg
451.549	0.792	1	test	Phase1	test/STIM_006.jpg
455.916	0.802	1	test	Phase1	test/STIM_006.jpg
460.506	0.786	1	test	Phase1	test/STIM_006.jpg
463.633	1.463	1	test	Phase1	test/STIM_007.jpg
467.673	0.712	1	test	Phase1	test/STIM_007.jpg
471.288	1.433	1	test	Phase1	test/STIM_007.jpg
475.516	0.848	1	test	Phase1	test/STIM_008.jpg
479.037	1.322	0	test	Phase1	test/STIM_008.jpg
483.157	1.053	1	test	Phase1	test/STIM_008.jpg
487.713	1.272	1	test	Phase1	test/STIM_009.jpg
491.208	1.3	1	test	Phase1	test/STIM_009.jpg
494.638	0.803	1	test	Phase1	test/STIM_009.jpg
498.315	0.797	1	test	Phase1	test/STIM_010.jpg
501.067	1.066	1	test	Phase1	test/STIM_010.jpg
504.772	1.453	1	test	Phase1	test/STIM_010.jpg
508.759	1.02	1	test	Phase1	test/STIM_011.jpg
511.683	1.322	1	test	Phase1	test/STIM_011.jpg
516.548	0.788	1	test	Phase1	test/STIM_011.jpg
521.222	0.829	1	test	Phase1	test/STIM_012.jpg
524.6	1.188	1	test	Phase1	test/STIM_012.jpg
529.264	1.18	1	test	Phase1	test/STIM_012.jpg
533.832	0.785	1	test	Phase1	test/STIM_013.jpg
537.31	1.064	1	test	Phase1	test/STIM_013.jpg
540.707	0.907	1	test	Phase1	test/STIM_013.jpg
544.461	0.964	1	test	Phase1	test/STIM_014.jpg
547.79	1.057	1	test	Phase1	test/STIM_014.jpg
551.195	1.377	1	test	Phase1	test/STIM_014.jpg
554.416	0.794	1	test	Phase1	test/STIM_015.jpg
557.243	1.382	1	test	Phase1	test/STIM_015.jpg
562.432	1.169	1	test	Phase1	test/STIM_015.jpg
566.501	1.296	1	test	Phase1	test/STIM_016.jpg
569.961	0.76	1	test	Phase1	test/STIM_016.jpg
573.406	0.93	1	test	Phase1	test/STIM_016.jpg
576.509	0.836	1	test	Phase1	test/STIM_017.jpg
580.714	1.204	0	test	Phase1	test/STIM_017.jpg
583.833	0.708	1	test	Phase1	test/STIM_017.jpg
587.972	1.385	1	test	Phase1	test/STIM_018.jpg
592.064	1.326	0	test	Phase1	test/STIM_018.jpg
595.383	1.405	1	test	Phase1	test/STIM_018.jpg
599.554	1.14	1	test	Phase1	test/STIM_019.jpg
602.884	1.021	1	test	Phase1	test/STIM_019.jpg
605.903	0.744	1	test	Phase1	test/STIM_019.jpg
609.277	0.763	1	test	Phase1	test/STIM_020.jpg
612.745	1.346	1	test	Phase1	test/STIM_020.jpg
617.407	0.907	1	test	Phase1	test/STIM_020.jpg
620.704	1.256	1	test	Phase1	test/STIM_021.jpg
624.737	1.243	1	test	Phase1	test/STIM_021.jpg
628.757	1.369	0	test	Phase1	test/STIM_021.jpg
632.884	0.721	1	test	Phase1	test/STIM_022.jpg
636.565	1.274	1	test	Phase1	test/STIM_022.jpg
641.258	0.723	1	test	Phase1	test/STIM_022.jpg
645.109	0.683	1	test	Phase1	test/STIM_023.jpg
649.152	1.342	1	test	Phase1	test/STIM_023.jpg
654.21	1.096	1	test	Phase1	test/STIM_023.jpg
658.804	1.178	1	test	Phase1	test/STIM_024.jpg
662.795	0.855	1	test	Phase1	test/STIM_024.jpg
666.27	1.259	1	test	Phase1	test/STIM_024.jpg
671.255	1.386	1	test	Phase1	test/STIM_025.jpg
675.276	1.443	1	test	Phase1	test/STIM_025.jpg
680.537	0.864	1	test	Phase1	test/STIM_025.jpg
683.842	1.185	1	test	Phase1	test/STIM_026.jpg
688.039	1.331	0	test	Phase1	test/STIM_026.jpg
692.347	1.046	1	test	Phase1	test/STIM_026.jpg
695.397	1.264	1	test	Phase1	test/STIM_027.jpg
699.762	0.738	1	test	Phase1	test/STIM_027.jpg
704.413	1.27	1	test	Phase1	test/STIM_027.jpg
709.496	1.396	1	test	Phase1	test/STIM_028.jpg
714.596	1.287	1	test	Phase1	test/STIM_028.jpg
719.253	0.794	1	test	Phase1	test/STIM_028.jpg
722.449	0.786	1	test	Phase1	test/STIM_029.jpg
726.467	0.776	1	test	Phase1	test/STIM_029.jpg
730.549	0.716	1	test	Phase1	test/STIM_029.jpg
733.325	1.691	1	study	Phase2	study/STIM_000.jpg
736.959	1.283	1	study	Phase2	study/STIM_000.jpg
741.945	1.376	1	study	Phase2	study/STIM_000.jpg
745.564	1.06	1	study	Phase2	study/STIM_001.jpg
749.944	1.353	0	study	Phase2	study/STIM_001.jpg
753.283	1.484	1	study	Phase2	study/STIM_001.jpg
758.227	1.532	1	study	Phase2	study/STIM_002.jpg
762.081	1.205	1	study	Phase2	study/STIM_002.jpg
766.989	1.449	1	study	Phase2	study/STIM_002.jpg
770.316	1.578	0	study	Phase2	study/STIM_003.jpg
774.763	1.074	1	study	Phase2	study/STIM_003.jpg
778.227	1.164	1	study	Phase2	study/STIM_003.jpg
782.612	1.171	0	study	Phase2	study/STIM_004.jpg
786.486	1.536	1	study	Phase2	study/STIM_004.jpg
789.926	0.993	1	study	Phase2	study/STIM_004.jpg
793.367	0.947	1	study	Phase2	study/STIM_005.jpg
797.421	1.136	0	study	Phase2	study/STIM_005.jpg
801.906	1.316	1	study	Phase2	study/STIM_005.jpg
805.091	1.379	1	study	Phase2	study/STIM_006.jpg
809.286	1.343	1	study	Phase2	study/STIM_006.jpg
812.951	0.965	1	study	Phase2	study/STIM_006.jpg
816.997	0.947	0	study	Phase2	study/STIM_007.jpg
819.943	1.174	0	study	Phase2	study/STIM_007.jpg
824.649	0.967	1	study	Phase2	study/STIM_007.jpg
828.194	1.28	1	study	Phase2	study/STIM_008.jpg
833.122	0.931	1	study	Phase2	study/STIM_008.jpg
837.112	1.296	1	study	Phase2	study/STIM_008.jpg
841.583	1.143	0	study	Phase2	study/STIM_009.jpg
845.602	1.151	1	study	Phase2	study/STIM_009.jpg
850.201	1.284	1	study	Phase2	study/STIM_009.jpg
853.733	0.772	1	study	Phase2	study/STIM_010.jpg
857.121	1.275	0	study	Phase2	study/STIM_010.jpg
860.663	1.242	0	study	Phase2	study/STIM_010.jpg
863.957	1.058	0	study	Phase2	study/STIM_011.jpg
867.254	1.144	1	study	Phase2	study/STIM_011.jpg
872.121	1.271	0	study	Phase2	study/STIM_011.jpg
876.326	1.318	1	study	Phase2	study/STIM_012.jpg
880.985	1.312	1	study	Phase2	study/STIM_012.jpg
884.575	1.396	1	study	Phase2	study/STIM_012.jpg
888.207	0.908	1	study	Phase2	study/STIM_013.jpg
891.501	1.49	1	study	Phase2	study/STIM_013.jpg
896.237	0.702	1	study	Phase2	study/STIM_013.jpg
899.392	0.833	1	study	Phase2	study/STIM_014.jpg
902.38	0.921	1	study	Phase2	study/STIM_014.jpg
906.862	1.048	1	study	Phase2	study/STIM_014.jpg
910.715	1.219	1	study	Phase2	study/STIM_015.jpg
915.773	1.325	1	study	Phase2	study/STIM_015.jpg
919.832	1.321	1	study	Phase2	study/STIM_015.jpg
924.657	0.81	0	study	Phase2	study/STIM_016.jpg
928.513	1.064	1	study	Phase2	study/STIM_016.jpg
931.788	0.889	1	study	Phase2	study/STIM_016.jpg
936.363	0.894	1	study	Phase2	study/STIM_017.jpg
941.133	1.399	1	study	Phase2	study/STIM_017.jpg
945.49	0.816	1	study	Phase2	study/STIM_017.jpg
949.274	1.245	1	study	Phase2	study/STIM_018.jpg
952.681	0.949	1	study	Phase2	study/STIM_018.jpg
955.844	0.913	0	study	Phase2	study/STIM_018.jpg
959.991	1.087	1	study	Phase2	study/STIM_019.jpg
963.257	0.978	1	study	Phase2	study/STIM_019.jpg
966.655	0.833	1	study	Phase2	study/STIM_019.jpg
970.706	0.788	1	study	Phase2	study/STIM_020.jpg
974.724	1.042	1	study	Phase2	study/STIM_020.jpg
979.247	0.775	1	study	Phase2	study/STIM_020.jpg
982.913	0.984	1	study	Phase2	study/STIM_021.jpg
985.842	1.608	1	study	Phase2	study/STIM_021.jpg
990.759	1.048	1	study	Phase2	study/STIM_021.jpg
994.872	1.642	1	study	Phase2	study/STIM_022.jpg
999.933	1.482	1	study	Phase2	study/STIM_022.jpg
1004.524	1.407	1	study	Phase2	study/STIM_022.jpg
1009.045	1.267	1	study	Phase2	study/STIM_023.jpg
1013.731	0.99	1	study	Phase2	study/STIM_023.jpg
1018.434	1.161	1	study	Phase2	study/STIM_023.jpg
1021.984	0.917	0	study	Phase2	study/STIM_024.jpg
1025.649	1.105	1	study	Phase2	study/STIM_024.jpg
1030.503	0.768	1	study	Phase2	study/STIM_024.jpg
1034.129	1.48	1	study	Phase2	study/STIM_025.jpg
1037.584	0.763	1	study	Phase2	study/STIM_025.jpg
1040.285	1.154	1	study	Phase2	study/STIM_025.jpg
1043.687	0.939	1	study	Phase2	study/STIM_026.jpg
1047.468	0.915	1	study	Phase2	study/STIM_026.jpg
1051.167	1.124	1	study	Phase2	study/STIM_026.jpg
1054.337	1.126	1	study	Phase2	study/STIM_027.jpg
1057.995	1.524	1	study	Phase2	study/STIM_027.jpg
1062.62	1.424	1	study	Phase2	study/STIM_027.jpg
1067.365	1.391	1	study	Phase2	study/STIM_028.jpg
1071.507	1.586	1	study	Phase2	study/STIM_028.jpg
1075.044	1.326	1	study	Phase2	study/STIM_028.jpg
1080.152	0.768	1	study	Phase2	study/STIM_029.jpg
1083.04	1.176	1	study	Phase2	study/STIM_029.jpg
1087.231	1.15	0	study	Phase2	study/STIM_029.jpg
1090.542	1.241	1	test	Phase2	test/STIM_000.jpg
1094.222	0.821	1	test	Phase2	test/STIM_000.jpg
1098.024	0.876	1	test	Phase2	test/STIM_000.jpg
1101.556	1.219	1	test	Phase2	test/STIM_001.jpg
1106.544	1.385	1	test	Phase2	test/STIM_001.jpg
1110.19	1.409	1	test	Phase2	test/STIM_001.jpg
1113.451	1.396	1	test	Phase2	test/STIM_002.jpg
1117.591	1.304	1	test	Phase2	test/STIM_002.jpg
1121.365	1.048	1	test	Phase2	test/STIM_002.jpg
1124.879	1.375	1	test	Phase2	test/STIM_003.jpg
1129.982	1.118	1	test	Phase2	test/STIM_003.jpg
1133.759	0.862	1	test	Phase2	test/STIM_003.jpg
1137.133	1.088	1	test	Phase2	test/STIM_004.jpg
1141.932	0.893	1	test	Phase2	test/STIM_004.jpg
1146.02	0.875	1	test	Phase2	test/STIM_004.jpg
1149.762	1.273	1	test	Phase2	test/STIM_005.jpg
1153.351	0.76	1	test	Phase2	test/STIM_005.jpg
1157.513	0.788	1	test	Phase2	test/STIM_005.jpg
1160.603	0.856	1	test	Phase2	test/STIM_006.jpg
1164.378	0.808	1	test	Phase2	test/STIM_006.jpg
1167.81	0.857	1	test	Phase2	test/STIM_006.jpg
1170.746	1.235	1	test	Phase2	test/STIM_007.jpg
1174.864	0.768	0	test	Phase2	test/STIM_007.jpg
1178.243	1.208	0	test	Phase2	test/STIM_007.jpg
1182.731	1.194	1	test	Phase2	test/STIM_008.jpg
1187.495	0.89	1	test	Phase2	test/STIM_008.jpg
1190.383	0.849	0	test	Phase2	test/STIM_008.jpg
1193.706	1.153	1	test	Phase2	test/STIM_009.jpg
1197.041	1.131	0	test	Phase2	test/STIM_009.jpg
1201.529	0.799	1	test	Phase2	test/STIM_009.jpg
1205.195	0.875	1	test	Phase2	test/STIM_010.jpg
1208.293	0.927	1	test	Phase2	test/STIM_010.jpg
1211.786	0.749	1	test	Phase2	test/STIM_010.jpg
1216.135	1.339	1	test	Phase2	test/STIM_011.jpg
1219.347	1.135	1	test	Phase2	test/STIM_011.jpg
1224.066	1.339	1	test	Phase2	test/STIM_011.jpg
1228.966	0.874	1	test	Phase2	test/STIM_012.jpg
1233.608	1.096	0	test	Phase2	test/STIM_012.jpg
1238.394	0.732	1	test	Phase2	test/STIM_012.jpg
1241.245	0.994	1	test	Phase2	test/STIM_013.jpg
1244.268	0.989	0	test	Phase2	test/STIM_013.jpg
1248.556	1.363	1	test	Phase2	test/STIM_013.jpg
1252.864	1.343	1	test	Phase2	test/STIM_014.jpg
1257.045	1.352	1	test	Phase2	test/STIM_014.jpg
1260.261	1.372	1	test	Phase2	test/STIM_014.jpg
1264.076	1.115	1	test	Phase2	test/STIM_015.jpg
1268.815	1.3	1	test	Phase2	test/STIM_015.jpg
1273.642	1.323	1	test	Phase2	test/STIM_015.jpg
1276.943	1.145	1	test	Phase2	test/STIM_016.jpg
1281.812	0.706	1	test	Phase2	test/STIM_016.jpg
1285.805	1.038	1	test	Phase2	test/STIM_016.jpg
1289.915	1.37	1	test	Phase2	test/STIM_017.jpg
1295.115	0.981	1	test	Phase2	test/STIM_017.jpg
1299.597	1.22	1	test	Phase2	test/STIM_017.jpg
1303.406	0.853	1	test	Phase2	test/STIM_018.jpg
1307.053	1.221	1	test	Phase2	test/STIM_018.jpg
1310.824	1.283	1	test	Phase2	test/STIM_018.jpg
1315.197	1.331	1	test	Phase2	test/STIM_019.jpg
1320.054	0.839	1	test	Phase2	test/STIM_019.jpg
1323.348	0.69	1	test	Phase2	test/STIM_019.jpg
1326.35	1.187	1	test	Phase2	test/STIM_020.jpg
1330.04	1.028	1	test	Phase2	test/STIM_020.jpg
1334.729	0.882	1	test	Phase2	test/STIM_020.jpg
1338.332	0.941	1	test	Phase2	test/STIM_021.jpg
1341.878	0.907	1	test	Phase2	test/STIM_021.jpg
1345.492	0.796	1	test	Phase2	test/STIM_021.jpg
1348.777	1.082	1	test	Phase2	test/STIM_022.jpg
1351.766	1.299	1	test	Phase2	test/STIM_022.jpg
1356.002	0.786	1	test	Phase2	test/STIM_022.jpg
1359.682	0.709	1	test	Phase2	test/STIM_023.jpg
1363.046	0.818	0	test	Phase2	test/STIM_023.jpg
1367.528	1.17	1	test	Phase2	test/STIM_023.jpg
1372.255	0.864	1	test	Phase2	test/STIM_024.jpg
1375.459	1.066	1	test	Phase2	test/STIM_024.jpg
1379.071	0.809	1	test	Phase2	test/STIM_024.jpg
1382.254	1.268	1	test	Phase2	test/STIM_025.jpg
1387.091	0.79	1	test	Phase2	test/STIM_025.jpg
1391.263	1.276	1	test	Phase2	test/STIM_025.jpg
1395.14	0.876	1	test	Phase2	test/STIM_026.jpg
1399.527	0.922	1	test	Phase2	test/STIM_026.jpg
1402.637	0.716	1	test	Phase2	test/STIM_026.jpg
1407.13	1.337	1	test	Phase2	test/STIM_027.jpg
1410.596	0.752	1	test	Phase2	test/STIM_027.jpg
1413.923	0.94	1	test	Phase2	test/STIM_027.jpg
1418.038	1.412	1	test	Phase2	test/STIM_028.jpg
1422.773	0.751	1	test	Phase2	test/STIM_028.jpg
1426.301	0.702	1	test	Phase2	test/STIM_028.jpg
1430.804	1.297	1	test	Phase2	test/STIM_029.jpg
1434.018	1.269	1	test	Phase2	test/STIM_029.jpg
1437.712	1.07	1	test	Phase2	test/STIM_029.jpg
1440.942	1.408	1	study	Phase3	study/STIM_000.jpg
1445.557	1.256	1	study	Phase3	study/STIM_000.jpg
1449.485	0.698	1	study	Phase3	study/STIM_000.jpg
1452.799	0.655	1	study	Phase3	study/STIM_001.jpg
1457.235	1.166	1	study	Phase3	study/STIM_001.jpg
1461.305	0.907	1	study	Phase3	study/STIM_001.jpg
1466.006	1.174	1	study	Phase3	study/STIM_002.jpg
1469.341	1.232	1	study	Phase3	study/STIM_002.jpg
1472.898	0.717	1	study	Phase3	study/STIM_002.jpg
1477.287	1.058	1	study	Phase3	study/STIM_003.jpg
1480.403	0.775	1	study	Phase3	study/STIM_003.jpg
1484.604	1.015	1	study	Phase3	study/STIM_003.jpg
1488.06	0.829	1	study	Phase3	study/STIM_004.jpg
1492.223	1.391	1	study	Phase3	study/STIM_004.jpg
1496.628	1.114	1	study	Phase3	study/STIM_004.jpg
1501.562	1.356	1	study	Phase3	study/STIM_005.jpg
1505.508	0.949	1	study	Phase3	study/STIM_005.jpg
1509.23	0.988	1	study	Phase3	study/STIM_005.jpg
1513.926	1.049	1	study	Phase3	study/STIM_006.jpg
1517.927	0.772	1	study	Phase3	study/STIM_006.jpg
1521.682	1.383	1	study	Phase3	study/STIM_006.jpg
1524.928	0.719	1	study	Phase3	study/STIM_007.jpg
1527.903	0.887	1	study	Phase3	study/STIM_007.jpg
1532.067	1.134	1	study	Phase3	study/STIM_007.jpg
1536.614	1.42	1	study	Phase3	study/STIM_008.jpg
1541.209	0.791	1	study	Phase3	study/STIM_008.jpg
1545.853	0.793	1	study	Phase3	study/STIM_008.jpg
1549.521	1.182	1	study	Phase3	study/STIM_009.jpg
1553.367	1.002	1	study	Phase3	study/STIM_009.jpg
1557.059	0.753	1	study	Phase3	study/STIM_009.jpg
1561.001	0.658	1	study	Phase3	study/STIM_010.jpg
1565.089	0.731	1	study	Phase3	study/STIM_010.jpg
1568.257	1.167	1	study	Phase3	study/STIM_010.jpg
1572.423	0.808	1	study	Phase3	study/STIM_011.jpg
1576.085	0.653	1	study	Phase3	study/STIM_011.jpg
1580.05	0.634	1	study	Phase3	study/STIM_011.jpg
1583.474	1.016	1	study	Phase3	study/STIM_012.jpg
1587.203	1.031	1	study	Phase3	study/STIM_012.jpg
1591.356	1.13	1	study	Phase3	study/STIM_012.jpg
1594.429	1.32	1	study	Phase3	study/STIM_013.jpg
1597.694	0.981	1	study	Phase3	study/STIM_013.jpg
1600.629	0.986	1	study	Phase3	study/STIM_013.jpg
1603.559	1.286	1	study	Phase3	study/STIM_014.jpg
1606.704	1.35	1	study	Phase3	study/STIM_014.jpg
1611.781	1.366	0	study	Phase3	study/STIM_014.jpg
1616.026	1.018	1	study	Phase3	study/STIM_015.jpg
1620.093	1.393	1	study	Phase3	study/STIM_015.jpg
1624.075	1.415	1	study	Phase3	study/STIM_015.jpg
1628.148	0.911	1	study	Phase3	study/STIM_016.jpg
1632.734	0.772	1	study	Phase3	study/STIM_016.jpg
1635.549	0.848	1	study	Phase3	study/STIM_016.jpg
1639.591	1.352	1	study	Phase3	study/STIM_017.jpg
1644.764	1.134	1	study	Phase3	study/STIM_017.jpg
1649.495	0.912	1	study	Phase3	study/STIM_017.jpg
1652.649	1.19	1	study	Phase3	study/STIM_018.jpg
1656.481	0.632	1	study	Phase3	study/STIM_018.jpg
1660.489	1.331	1	study	Phase3	study/STIM_018.jpg
1664.652	1.228	1	study	Phase3	study/STIM_019.jpg
1667.828	1.273	1	study	Phase3	study/STIM_019.jpg
1671.667	0.767	1	study	Phase3	study/STIM_019.jpg
1675.938	1.314	1	study	Phase3	study/STIM_020.jpg
1679.396	1.039	1	study	Phase3	study/STIM_020.jpg
1682.758	0.823	1	study	Phase3	study/STIM_020.jpg
1686.629	0.783	1	study	Phase3	study/STIM_021.jpg
1691.147	1.093	1	study	Phase3	study/STIM_021.jpg
1695.664	0.936	1	study	Phase3	study/STIM_021.jpg
1700.151	0.967	1	study	Phase3	study/STIM_022.jpg
1704.995	1.13	1	study	Phase3	study/STIM_022.jpg
1709.673	0.727	1	study	Phase3	study/STIM_022.jpg
1714.112	1.144	1	study	Phase3	study/STIM_023.jpg
1717.911	1.048	1	study	Phase3	study/STIM_023.jpg
1722.148	0.872	1	study	Phase3	study/STIM_023.jpg
1726.4	1.402	1	study	Phase3	study/STIM_024.jpg
1731.39	1.371	1	study	Phase3	study/STIM_024.jpg
1735.393	0.681	1	study	Phase3	study/STIM_024.jpg
1739.188	1.254	1	study	Phase3	study/STIM_025.jpg
1743.19	0.83	1	study	Phase3	study/STIM_025.jpg
1747.525	1.211	1	study	Phase3	study/STIM_025.jpg
1750.909	0.984	1	study	Phase3	study/STIM_026.jpg
1755.693	1.268	1	study	Phase3	study/STIM_026.jpg
1758.856	1.23	1	study	Phase3	study/STIM_026.jpg
1763.433	0.688	1	study	Phase3	study/STIM_027.jpg
1767.409	0.785	1	study	Phase3	study/STIM_027.jpg
1770.283	1.286	1	study	Phase3	study/STIM_027.jpg
1773.46	0.832	1	study	Phase3	study/STIM_028.jpg
1777.483	1.164	1	study	Phase3	study/STIM_028.jpg
1781.391	0.642	1	study	Phase3	study/STIM_028.jpg
1784.145	1.294	1	study	Phase3	study/STIM_029.jpg
1788.009	0.746	1	study	Phase3	study/STIM_029.jpg
1791.062	1.235	1	study	Phase3	study/STIM_029.jpg
1795.148	1.428	1	test	Phase3	test/STIM_000.jpg
1799.176	1.144	1	test	Phase3	test/STIM_000.jpg
1803.848	1.109	1	test	Phase3	test/STIM_000.jpg
1807.475	1.071	1	test	Phase3	test/STIM_001.jpg
1811.906	1.206	1	test	Phase3	test/STIM_001.jpg
1815.403	1.04	1	test	Phase3	test/STIM_001.jpg
1820.272	1.448	1	test	Phase3	test/STIM_002.jpg
1823.84	1.378	1	test	Phase3	test/STIM_002.jpg
1827.965	1.07	0	test	Phase3	test/STIM_002.jpg
1831.656	1.207	1	test	Phase3	test/STIM_003.jpg
1836.284	1.13	0	test	Phase3	test/STIM_003.jpg
1839.31	1.156	1	test	Phase3	test/STIM_003.jpg
1843.602	1.412	1	test	Phase3	test/STIM_004.jpg
1848.266	0.835	1	test	Phase3	test/STIM_004.jpg
1851.068	0.889	1	test	Phase3	test/STIM_004.jpg
1855.554	1.11	1	test	Phase3	test/STIM_005.jpg
1859.026	0.932	1	test	Phase3	test/STIM_005.jpg
1863.552	0.75	1	test	Phase3	test/STIM_005.jpg
1867.315	1.338	0	test	Phase3	test/STIM_006.jpg
1871.658	1.32	0	test	Phase3	test/STIM_006.jpg
1875.553	0.757	1	test	Phase3	test/STIM_006.jpg
1879.211	1.202	1	test	Phase3	test/STIM_007.jpg
1882.894	0.883	1	test	Phase3	test/STIM_007.jpg
1887.571	0.824	1	test	Phase3	test/STIM_007.jpg
1891.987	0.783	1	test	Phase3	test/STIM_008.jpg
1896.244	0.973	0	test	Phase3	test/STIM_008.jpg
1900.692	1.103	1	test	Phase3	test/STIM_008.jpg
1904.121	1.454	1	test	Phase3	test/STIM_009.jpg
1908.048	0.818	1	test	Phase3	test/STIM_009.jpg
1912.415	1.147	1	test	Phase3	test/STIM_009.jpg
1916.745	1.352	1	test	Phase3	test/STIM_010.jpg
1921.204	1.154	0	test	Phase3	test/STIM_010.jpg
1926.071	0.726	1	test	Phase3	test/STIM_010.jpg
1930.2	0.939	1	test	Phase3	test/STIM_011.jpg
1933.882	0.866	1	test	Phase3	test/STIM_011.jpg
1936.72	0.715	1	test	Phase3	test/STIM_011.jpg
1939.63	0.961	1	test	Phase3	test/STIM_012.jpg
1942.531	0.795	1	test	Phase3	test/STIM_012.jpg
1945.996	0.966	1	test	Phase3	test/STIM_012.jpg
1949.732	1.288	0	test	Phase3	test/STIM_013.jpg
1953.176	1.115	1	test	Phase3	test/STIM_013.jpg
1956.883	0.975	1	test	Phase3	test/STIM_013.jpg
1961.335	0.835	1	test	Phase3	test/STIM_014.jpg
1965.581	1.087	1	test	Phase3	test/STIM_014.jpg
1969.968	0.788	1	test	Phase3	test/STIM_014.jpg
1974.38	0.994	1	test	Phase3	test/STIM_015.jpg
1978.891	0.693	1	test	Phase3	test/STIM_015.jpg
1982.035	1.282	1	test	Phase3	test/STIM_015.jpg
1985.999	0.949	1	test	Phase3	test/STIM_016.jpg
1990.054	0.848	1	test	Phase3	test/STIM_016.jpg
1992.828	1.007	1	test	Phase3	test/STIM_016.jpg
1996.64	0.899	1	test	Phase3	test/STIM_017.jpg
2000.773	1.105	1	test	Phase3	test/STIM_017.jpg
2005.571	0.95	1	test	Phase3	test/STIM_017.jpg
2009.001	0.901	1	test	Phase3	test/STIM_018.jpg
2013.081	0.914	1	test	Phase3	test/STIM_018.jpg
2016.844	1.206	1	test	Phase3	test/STIM_018.jpg
2021.851	1.024	0	test	Phase3	test/STIM_019.jpg
2025.824	1.415	1	test	Phase3	test/STIM_019.jpg
2030.45	1.007	1	test	Phase3	test/STIM_019.jpg
2034.956	1.136	1	test	Phase3	test/STIM_020.jpg
2038.833	0.791	1	test	Phase3	test/STIM_020.jpg
2043.519	1.105	1	test	Phase3	test/STIM_020.jpg
2047.399	1.178	1	test	Phase3	test/STIM_021.jpg
2051.753	0.805	1	test	Phase3	test/STIM_021.jpg
2056.325	0.931	1	test	Phase3	test/STIM_021.jpg
2059.68	0.809	0	test	Phase3	test/STIM_022.jpg
2063.774	0.968	1	test	Phase3	test/STIM_022.jpg
2067.349	1.402	1	test	Phase3	test/STIM_022.jpg
2070.66	1.295	1	test	Phase3	test/STIM_023.jpg
2075.204	1.01	1	test	Phase3	test/STIM_023.jpg
2078.559	1.31	1	test	Phase3	test/STIM_023.jpg
2083.623	0.973	1	test	Phase3	test/STIM_024.jpg
2087.101	1.351	1	test	Phase3	test/STIM_024.jpg
2092.02	1.266	1	test	Phase3	test/STIM_024.jpg
2095.203	1.453	1	test	Phase3	test/STIM_025.jpg
2099.041	1.318	1	test	Phase3	test/STIM_025.jpg
2103.223	1.008	1	test	Phase3	test/STIM_025.jpg
2107.467	1.374	1	test	Phase3	test/STIM_026.jpg
2111.797	0.689	1	test	Phase3	test/STIM_026.jpg
2115.507	1.442	1	test	Phase3	test/STIM_026.jpg
2119.489	1.406	1	test	Phase3	test/STIM_027.jpg
2124.648	0.928	1	test	Phase3	test/STIM_027.jpg
2129.157	1.377	0	test	Phase3	test/STIM_027.jpg
2134.346	1.264	1	test	Phase3	test/STIM_028.jpg
2138.985	1.336	1	test	Phase3	test/STIM_028.jpg
2142.508	0.78	1	test	Phase3	test/STIM_028.jpg
2146.633	0.976	1	test	Phase3	test/STIM_029.jpg
2150.218	1.231	1	test	Phase3	test/STIM_029.jpg
2154.423	1.154	1	test	Phase3	test/STIM_029.jpg
