onset	duration	accuracy	trial_type	learning_stage	stimulus
0.0	1.102	correct	2back	Block1	2back/STIM_000.jpg
3.957	0.718	correct	2back	Block1	2back/STIM_000.jpg
7.029	0.707	incorrect	2back	Block1	2back/STIM_000.jpg
11.446	0.542	correct	2back	Block1	2back/STIM_001.jpg
14.478	0.701	incorrect	2back	Block1	2back/STIM_001.jpg
17.784	0.842	correct	2back	Block1	2back/STIM_001.jpg
21.25	0.568	correct	2back	Block1	2back/STIM_002.jpg
24.325	0.8	correct	2back	Block1	2back/STIM_002.jpg
29.048	0.876	incorrect	2back	Block1	2back/STIM_002.jpg
33.822	0.905	incorrect	2back	Block1	2back/STIM_003.jpg
37.937	1.163	correct	2back	Block1	2back/STIM_003.jpg
42.934	0.921	correct	2back	Block1	2back/STIM_003.jpg
47.396	0.57	correct	2back	Block1	2back/STIM_004.jpg
51.94	0.698	incorrect	2back	Block1	2back/STIM_004.jpg
56.067	0.962	correct	2back	Block1	2back/STIM_004.jpg
60.9	0.914	correct	2back	Block1	2back/STIM_005.jpg
64.565	0.561	correct	2back	Block1	2back/STIM_005.jpg
67.428	1.014	correct	2back	Block1	2back/STIM_005.jpg
72.365	1.054	correct	2back	Block1	2back/STIM_006.jpg
76.419	0.623	correct	2back	Block1	2back/STIM_006.jpg
79.493	1.117	correct	2back	Block1	2back/STIM_006.jpg
84.162	0.903	correct	2back	Block1	2back/STIM_007.jpg
88.854	0.955	correct	2back	Block1	2back/STIM_007.jpg
93.685	1.054	correct	2back	Block1	2back/STIM_007.jpg
98.504	0.557	correct	2back	Block1	2back/STIM_008.jpg
102.044	1.147	correct	2back	Block1	2back/STIM_008.jpg
106.646	0.642	correct	2back	Block1	2back/STIM_008.jpg
110.995	1.224	correct	2back	Block1	2back/STIM_009.jpg
116.169	0.526	correct	2back	Block1	2back/STIM_009.jpg
120.292	1.091	correct	2back	Block1	2back/STIM_009.jpg
124.34	0.972	correct	2back	Block1	2back/STIM_010.jpg
129.05	0.55	incorrect	2back	Block1	2back/STIM_010.jpg
132.739	1.076	correct	2back	Block1	2back/STIM_010.jpg
135.973	0.547	correct	2back	Block1	2back/STIM_011.jpg
139.139	1.004	correct	2back	Block1	2back/STIM_011.jpg
143.636	0.902	incorrect	2back	Block1	2back/STIM_011.jpg
147.687	1.191	correct	2back	Block1	2back/STIM_012.jpg
152.246	1.042	correct	2back	Block1	2back/STIM_012.jpg
156.063	0.61	correct	2back	Block1	2back/STIM_012.jpg
160.342	0.987	correct	2back	Block1	2back/STIM_013.jpg
165.084	1.133	correct	2back	Block1	2back/STIM_013.jpg
169.211	0.959	correct	2back	Block1	2back/STIM_013.jpg
172.986	1.256	correct	2back	Block1	2back/STIM_014.jpg
177.903	0.717	correct	2back	Block1	2back/STIM_014.jpg
181.706	0.509	correct	2back	Block1	2back/STIM_014.jpg
185.03	0.731	correct	2back	Block1	2back/STIM_015.jpg
189.643	1.065	incorrect	2back	Block1	2back/STIM_015.jpg
194.232	0.842	correct	2back	Block1	2back/STIM_015.jpg
197.479	0.635	correct	2back	Block1	2back/STIM_016.jpg
202.003	0.729	correct	2back	Block1	2back/STIM_016.jpg
205.225	1.055	correct	2back	Block1	2back/STIM_016.jpg
209.407	0.893	correct	2back	Block1	2back/STIM_017.jpg
212.934	0.842	correct	2back	Block1	2back/STIM_017.jpg
215.97	1.051	correct	2back	Block1	2back/STIM_017.jpg
220.407	0.822	incorrect	2back	Block1	2back/STIM_018.jpg
223.917	0.96	correct	2back	Block1	2back/STIM_018.jpg
228.678	0.495	correct	2back	Block1	2back/STIM_018.jpg
231.619	0.813	correct	2back	Block1	2back/STIM_019.jpg
236.072	0.673	correct	2back	Block1	2back/STIM_019.jpg
239.332	1.13	correct	2back	Block1	2back/STIM_019.jpg
244.102	0.55	correct	2back	Block1	2back/STIM_020.jpg
247.851	0.721	correct	2back	Block1	2back/STIM_020.jpg
252.567	0.563	correct	2back	Block1	2back/STIM_020.jpg
255.775	1.053	correct	2back	Block1	2back/STIM_021.jpg
259.194	0.948	correct	2back	Block1	2back/STIM_021.jpg
263.778	0.61	correct	2back	Block1	2back/STIM_021.jpg
266.619	0.656	correct	2back	Block1	2back/STIM_022.jpg
270.079	0.562	correct	2back	Block1	2back/STIM_022.jpg
272.763	0.871	correct	2back	Block1	2back/STIM_022.jpg
277.472	0.719	correct	2back	Block1	2back/STIM_023.jpg
280.74	0.769	correct	2back	Block1	2back/STIM_023.jpg
284.89	1.032	correct	2back	Block1	2back/STIM_023.jpg
288.726	0.806	correct	2back	Block1	2back/STIM_024.jpg
291.607	0.792	incorrect	2back	Block1	2back/STIM_024.jpg
295.831	1.132	correct	2back	Block1	2back/STIM_024.jpg
300.605	0.856	correct	2back	Block1	2back/STIM_025.jpg
304.776	0.906	correct	2back	Block1	2back/STIM_025.jpg
309.421	0.751	correct	2back	Block1	2back/STIM_025.jpg
312.978	0.961	correct	2back	Block1	2back/STIM_026.jpg
317.17	0.614	correct	2back	Block1	2back/STIM_026.jpg
321.422	0.501	correct	2back	Block1	2back/STIM_026.jpg
325.897	1.035	correct	2back	Block1	2back/STIM_027.jpg
330.903	0.63	correct	2back	Block1	2back/STIM_027.jpg
334.816	0.639	correct	2back	Block1	2back/STIM_027.jpg
339.059	0.686	correct	2back	Block1	2back/STIM_028.jpg
341.894	0.677	incorrect	2back	Block1	2back/STIM_028.jpg
344.587	1.01	incorrect	2back	Block1	2back/STIM_028.jpg
348.146	1.158	correct	2back	Block1	2back/STIM_029.jpg
351.548	0.751	correct	2back	Block1	2back/STIM_029.jpg
354.653	0.98	correct	2back	Block1	2back/STIM_029.jpg
359.546	0.933	correct	2back	Block1	2back/STIM_030.jpg
364.348	0.573	correct	2back	Block1	2back/STIM_030.jpg
368.579	0.751	correct	2back	Block1	2back/STIM_030.jpg
372.98	1.062	incorrect	2back	Block1	2back/STIM_031.jpg
377.902	1.17	correct	2back	Block1	2back/STIM_031.jpg
382.948	0.904	correct	2back	Block1	2back/STIM_031.jpg
387.41	0.911	correct	2back	Block1	2back/STIM_032.jpg
391.341	0.801	correct	2back	Block1	2back/STIM_032.jpg
394.228	0.638	correct	2back	Block1	2back/STIM_032.jpg
396.903	0.977	correct	2back	Block1	2back/STIM_033.jpg
401.662	1.124	correct	2back	Block1	2back/STIM_033.jpg
406.148	0.895	correct	2back	Block1	2back/STIM_033.jpg
409.818	1.103	correct	2back	Block1	2back/STIM_034.jpg
413.291	0.553	correct	2back	Block1	2back/STIM_034.jpg
416.754	0.504	correct	2back	Block1	2back/STIM_034.jpg
419.311	0.818	correct	2back	Block1	2back/STIM_035.jpg
422.173	0.907	correct	2back	Block1	2back/STIM_035.jpg
425.379	1.057	correct	2back	Block1	2back/STIM_035.jpg
430.126	1.02	correct	2back	Block1	2back/STIM_036.jpg
433.225	1.18	correct	2back	Block1	2back/STIM_036.jpg
437.896	0.806	correct	2back	Block1	2back/STIM_036.jpg
442.385	0.723	correct	2back	Block1	2back/STIM_037.jpg
445.483	1.011	correct	2back	Block1	2back/STIM_037.jpg
449.582	0.98	correct	2back	Block1	2back/STIM_037.jpg
453.614	0.856	correct	2back	Block1	2back/STIM_038.jpg
456.637	0.576	correct	2back	Block1	2back/STIM_038.jpg
459.459	0.524	correct	2back	Block1	2back/STIM_038.jpg
462.601	1.125	correct	2back	Block1	2back/STIM_039.jpg
465.984	0.7	correct	2back	Block1	2back/STIM_039.jpg
470.232	0.564	correct	2back	Block1	2back/STIM_039.jpg
473.146	0.654	correct	0back	Block1	0back/STIM_000.jpg
476.635	0.376	correct	0back	Block1	0back/STIM_000.jpg
479.014	0.483	correct	0back	Block1	0back/STIM_000.jpg
482.242	0.432	correct	0back	Block1	0back/STIM_001.jpg
484.932	0.68	correct	0back	Block1	0back/STIM_001.jpg
487.889	0.643	correct	0back	Block1	0back/STIM_001.jpg
491.991	0.673	correct	0back	Block1	0back/STIM_002.jpg
495.242	0.625	correct	0back	Block1	0back/STIM_002.jpg
498.636	0.695	correct	0back	Block1	0back/STIM_002.jpg
502.118	0.412	correct	0back	Block1	0back/STIM_003.jpg
505.298	0.456	correct	0back	Block1	0back/STIM_003.jpg
508.872	0.708	correct	0back	Block1	0back/STIM_003.jpg
513.581	0.367	correct	0back	Block1	0back/STIM_004.jpg
517.004	0.541	incorrect	0back	Block1	0back/STIM_004.jpg
519.803	0.536	correct	0back	Block1	0back/STIM_004.jpg
524.275	0.442	correct	0back	Block1	0back/STIM_005.jpg
528.304	0.681	correct	0back	Block1	0back/STIM_005.jpg
531.274	0.394	correct	0back	Block1	0back/STIM_005.jpg
533.983	0.494	correct	0back	Block1	0back/STIM_006.jpg
536.657	0.682	correct	0back	Block1	0back/STIM_006.jpg
539.519	0.717	correct	0back	Block1	0back/STIM_006.jpg
543.862	0.389	correct	0back	Block1	0back/STIM_007.jpg
546.545	0.594	correct	0back	Block1	0back/STIM_007.jpg
550.206	0.488	correct	0back	Block1	0back/STIM_007.jpg
553.148	0.524	correct	0back	Block1	0back/STIM_008.jpg
557.003	0.658	correct	0back	Block1	0back/STIM_008.jpg
560.511	0.691	correct	0back	Block1	0back/STIM_008.jpg
564.373	0.414	correct	0back	Block1	0back/STIM_009.jpg
568.51	0.424	correct	0back	Block1	0back/STIM_009.jpg
572.271	0.685	correct	0back	Block1	0back/STIM_009.jpg
576.714	0.57	correct	0back	Block1	0back/STIM_010.jpg
580.333	0.711	correct	0back	Block1	0back/STIM_010.jpg
584.34	0.52	correct	0back	Block1	0back/STIM_010.jpg
588.816	0.692	correct	0back	Block1	0back/STIM_011.jpg
591.776	0.648	correct	0back	Block1	0back/STIM_011.jpg
595.622	0.492	correct	0back	Block1	0back/STIM_011.jpg
600.051	0.369	incorrect	0back	Block1	0back/STIM_012.jpg
602.478	0.606	correct	0back	Block1	0back/STIM_012.jpg
605.407	0.688	correct	0back	Block1	0back/STIM_012.jpg
609.07	0.505	correct	0back	Block1	0back/STIM_013.jpg
613.177	0.643	correct	0back	Block1	0back/STIM_013.jpg
617.458	0.365	correct	0back	Block1	0back/STIM_013.jpg
621.612	0.65	correct	0back	Block1	0back/STIM_014.jpg
625.888	0.711	correct	0back	Block1	0back/STIM_014.jpg
629.291	0.425	correct	0back	Block1	0back/STIM_014.jpg
632.562	0.578	correct	0back	Block1	0back/STIM_015.jpg
636.83	0.573	correct	0back	Block1	0back/STIM_015.jpg
640.033	0.478	correct	0back	Block1	0back/STIM_015.jpg
642.989	0.482	correct	0back	Block1	0back/STIM_016.jpg
647.153	0.459	correct	0back	Block1	0back/STIM_016.jpg
649.95	0.5	correct	0back	Block1	0back/STIM_016.jpg
653.008	0.48	correct	0back	Block1	0back/STIM_017.jpg
656.976	0.493	correct	0back	Block1	0back/STIM_017.jpg
660.409	0.54	correct	0back	Block1	0back/STIM_017.jpg
663.872	0.705	correct	0back	Block1	0back/STIM_018.jpg
667.725	0.682	correct	0back	Block1	0back/STIM_018.jpg
670.68	0.517	correct	0back	Block1	0back/STIM_018.jpg
673.861	0.405	correct	0back	Block1	0back/STIM_019.jpg
677.399	0.385	correct	0back	Block1	0back/STIM_019.jpg
679.837	0.425	correct	0back	Block1	0back/STIM_019.jpg
683.256	0.548	correct	2back	Block2	2back/STIM_000.jpg
686.712	0.579	correct	2back	Block2	2back/STIM_000.jpg
689.404	0.698	correct	2back	Block2	2back/STIM_000.jpg
692.772	0.658	correct	2back	Block2	2back/STIM_001.jpg
697.417	0.542	correct	2back	Block2	2back/STIM_001.jpg
701.209	0.801	correct	2back	Block2	2back/STIM_001.jpg
704.375	0.501	correct	2back	Block2	2back/STIM_002.jpg
707.011	0.526	correct	2back	Block2	2back/STIM_002.jpg
711.031	0.918	correct	2back	Block2	2back/STIM_002.jpg
715.109	0.644	correct	2back	Block2	2back/STIM_003.jpg
719.695	0.703	correct	2back	Block2	2back/STIM_003.jpg
723.42	0.576	correct	2back	Block2	2back/STIM_003.jpg
726.643	0.626	incorrect	2back	Block2	2back/STIM_004.jpg
731.092	0.52	correct	2back	Block2	2back/STIM_004.jpg
734.777	0.53	correct	2back	Block2	2back/STIM_004.jpg
738.753	0.663	correct	2back	Block2	2back/STIM_005.jpg
743.094	0.654	correct	2back	Block2	2back/STIM_005.jpg
747.581	0.674	correct	2back	Block2	2back/STIM_005.jpg
750.613	0.634	correct	2back	Block2	2back/STIM_006.jpg
753.593	0.591	correct	2back	Block2	2back/STIM_006.jpg
757.512	0.912	correct	2back	Block2	2back/STIM_006.jpg
761.462	0.67	correct	2back	Block2	2back/STIM_007.jpg
764.977	0.779	correct	2back	Block2	2back/STIM_007.jpg
769.178	0.736	correct	2back	Block2	2back/STIM_007.jpg
773.438	0.731	correct	2back	Block2	2back/STIM_008.jpg
776.713	0.746	correct	2back	Block2	2back/STIM_008.jpg
781.208	0.778	correct	2back	Block2	2back/STIM_008.jpg
784.635	0.634	correct	2back	Block2	2back/STIM_009.jpg
788.097	0.978	correct	2back	Block2	2back/STIM_009.jpg
791.784	0.843	correct	2back	Block2	2back/STIM_009.jpg
796.216	0.486	correct	2back	Block2	2back/STIM_010.jpg
800.524	0.75	correct	2back	Block2	2back/STIM_010.jpg
803.823	0.734	correct	2back	Block2	2back/STIM_010.jpg
807.762	0.883	correct	2back	Block2	2back/STIM_011.jpg
811.163	0.745	correct	2back	Block2	2back/STIM_011.jpg
815.057	0.943	correct	2back	Block2	2back/STIM_011.jpg
819.942	1.026	correct	2back	Block2	2back/STIM_012.jpg
823.407	0.603	correct	2back	Block2	2back/STIM_012.jpg
827.829	0.719	correct	2back	Block2	2back/STIM_012.jpg
831.424	0.588	correct	2back	Block2	2back/STIM_013.jpg
834.389	0.747	correct	2back	Block2	2back/STIM_013.jpg
837.541	0.612	correct	2back	Block2	2back/STIM_013.jpg
841.296	0.918	correct	2back	Block2	2back/STIM_014.jpg
844.747	0.556	correct	2back	Block2	2back/STIM_014.jpg
847.917	0.646	correct	2back	Block2	2back/STIM_014.jpg
852.396	0.975	correct	2back	Block2	2back/STIM_015.jpg
856.02	0.591	correct	2back	Block2	2back/STIM_015.jpg
860.038	0.594	correct	2back	Block2	2back/STIM_015.jpg
863.152	0.622	correct	2back	Block2	2back/STIM_016.jpg
867.025	0.696	correct	2back	Block2	2back/STIM_016.jpg
870.763	0.933	correct	2back	Block2	2back/STIM_016.jpg
874.695	0.676	correct	2back	Block2	2back/STIM_017.jpg
878.482	0.605	correct	2back	Block2	2back/STIM_017.jpg
883.024	0.544	correct	2back	Block2	2back/STIM_017.jpg
885.801	0.483	correct	2back	Block2	2back/STIM_018.jpg
888.46	0.946	correct	2back	Block2	2back/STIM_018.jpg
891.425	0.675	correct	2back	Block2	2back/STIM_018.jpg
894.678	0.479	correct	2back	Block2	2back/STIM_019.jpg
899.079	0.751	correct	2back	Block2	2back/STIM_019.jpg
902.23	0.678	correct	2back	Block2	2back/STIM_019.jpg
906.567	0.976	correct	2back	Block2	2back/STIM_020.jpg
910.593	0.547	correct	2back	Block2	2back/STIM_020.jpg
914.5	0.805	correct	2back	Block2	2back/STIM_020.jpg
918.726	0.607	correct	2back	Block2	2back/STIM_021.jpg
921.528	0.625	correct	2back	Block2	2back/STIM_021.jpg
924.647	0.616	correct	2back	Block2	2back/STIM_021.jpg
928.854	0.69	correct	2back	Block2	2back/STIM_022.jpg
933.194	0.469	correct	2back	Block2	2back/STIM_022.jpg
935.899	0.534	correct	2back	Block2	2back/STIM_022.jpg
940.144	0.492	correct	2back	Block2	2back/STIM_023.jpg
943.486	0.722	correct	2back	Block2	2back/STIM_023.jpg
947.402	0.9	correct	2back	Block2	2back/STIM_023.jpg
952.211	0.894	correct	2back	Block2	2back/STIM_024.jpg
956.634	0.757	correct	2back	Block2	2back/STIM_024.jpg
961.373	0.463	correct	2back	Block2	2back/STIM_024.jpg
964.319	0.618	correct	2back	Block2	2back/STIM_025.jpg
968.179	0.935	correct	2back	Block2	2back/STIM_025.jpg
972.15	0.451	correct	2back	Block2	2back/STIM_025.jpg
975.382	0.849	correct	2back	Block2	2back/STIM_026.jpg
978.798	0.919	correct	2back	Block2	2back/STIM_026.jpg
981.885	0.517	correct	2back	Block2	2back/STIM_026.jpg
984.689	0.609	correct	2back	Block2	2back/STIM_027.jpg
987.834	0.539	correct	2back	Block2	2back/STIM_027.jpg
992.087	0.814	correct	2back	Block2	2back/STIM_027.jpg
996.639	0.528	correct	2back	Block2	2back/STIM_028.jpg
999.322	0.808	correct	2back	Block2	2back/STIM_028.jpg
1003.928	0.873	correct	2back	Block2	2back/STIM_028.jpg
1007.805	0.555	correct	2back	Block2	2back/STIM_029.jpg
1011.592	0.648	incorrect	2back	Block2	2back/STIM_029.jpg
1015.366	0.787	correct	2back	Block2	2back/STIM_029.jpg
1019.812	1.064	correct	2back	Block2	2back/STIM_030.jpg
1024.604	0.676	correct	2back	Block2	2back/STIM_030.jpg
1027.587	0.612	correct	2back	Block2	2back/STIM_030.jpg
1031.766	0.938	correct	2back	Block2	2back/STIM_031.jpg
1034.765	0.624	correct	2back	Block2	2back/STIM_031.jpg
1038.323	0.847	correct	2back	Block2	2back/STIM_031.jpg
1041.736	0.804	correct	2back	Block2	2back/STIM_032.jpg
1046.32	0.57	correct	2back	Block2	2back/STIM_032.jpg
1048.931	0.481	correct	2back	Block2	2back/STIM_032.jpg
1052.144	0.901	correct	2back	Block2	2back/STIM_033.jpg
1056.739	0.515	correct	2back	Block2	2back/STIM_033.jpg
1060.671	0.585	correct	2back	Block2	2back/STIM_033.jpg
1065.158	0.717	correct	2back	Block2	2back/STIM_034.jpg
1069.615	0.447	correct	2back	Block2	2back/STIM_034.jpg
1072.464	0.416	correct	2back	Block2	2back/STIM_034.jpg
1075.431	0.518	correct	2back	Block2	2back/STIM_035.jpg
1079.682	0.666	correct	2back	Block2	2back/STIM_035.jpg
1083.21	0.603	correct	2back	Block2	2back/STIM_035.jpg
1086.225	0.551	correct	2back	Block2	2back/STIM_036.jpg
1089.141	0.911	correct	2back	Block2	2back/STIM_036.jpg
1092.077	0.833	correct	2back	Block2	2back/STIM_036.jpg
1096.555	0.656	correct	2back	Block2	2back/STIM_037.jpg
1099.215	1.004	correct	2back	Block2	2back/STIM_037.jpg
1102.639	0.769	correct	2back	Block2	2back/STIM_037.jpg
1105.474	1.041	correct	2back	Block2	2back/STIM_038.jpg
1109.309	0.724	correct	2back	Block2	2back/STIM_038.jpg
1112.048	0.868	correct	2back	Block2	2back/STIM_038.jpg
1115.506	0.802	correct	2back	Block2	2back/STIM_039.jpg
1119.92	0.529	incorrect	2back	Block2	2back/STIM_039.jpg
1122.98	0.856	correct	2back	Block2	2back/STIM_039.jpg
1127.579	0.549	correct	0back	Block2	0back/STIM_000.jpg
1130.79	0.38	correct	0back	Block2	0back/STIM_000.jpg
1133.65	0.524	correct	0back	Block2	0back/STIM_000.jpg
1137.91	0.7	correct	0back	Block2	0back/STIM_001.jpg
1141.548	0.563	correct	0back	Block2	0back/STIM_001.jpg
1145.497	0.697	correct	0back	Block2	0back/STIM_001.jpg
1149.221	0.434	correct	0back	Block2	0back/STIM_002.jpg
1152.947	0.59	correct	0back	Block2	0back/STIM_002.jpg
1157.043	0.626	correct	0back	Block2	0back/STIM_002.jpg
1159.697	0.72	correct	0back	Block2	0back/STIM_003.jpg
1162.443	0.598	correct	0back	Block2	0back/STIM_003.jpg
1166.511	0.589	correct	0back	Block2	0back/STIM_003.jpg
1170.721	0.652	correct	0back	Block2	0back/STIM_004.jpg
1175.228	0.364	correct	0back	Block2	0back/STIM_004.jpg
1178.043	0.656	correct	0back	Block2	0back/STIM_004.jpg
1182.687	0.521	correct	0back	Block2	0back/STIM_005.jpg
1187.095	0.418	correct	0back	Block2	0back/STIM_005.jpg
1190.816	0.523	correct	0back	Block2	0back/STIM_005.jpg
1194.44	0.559	correct	0back	Block2	0back/STIM_006.jpg
1197.179	0.697	correct	0back	Block2	0back/STIM_006.jpg
1199.992	0.646	correct	0back	Block2	0back/STIM_006.jpg
1203.219	0.515	correct	0back	Block2	0back/STIM_007.jpg
1206.155	0.654	correct	0back	Block2	0back/STIM_007.jpg
1209.447	0.622	correct	0back	Block2	0back/STIM_007.jpg
1214.038	0.562	correct	0back	Block2	0back/STIM_008.jpg
1217.056	0.458	correct	0back	Block2	0back/STIM_008.jpg
1219.842	0.544	correct	0back	Block2	0back/STIM_008.jpg
1222.503	0.689	correct	0back	Block2	0back/STIM_009.jpg
1226.972	0.547	incorrect	0back	Block2	0back/STIM_009.jpg
1230.066	0.494	correct	0back	Block2	0back/STIM_009.jpg
1233.87	0.7	correct	0back	Block2	0back/STIM_010.jpg
1238.234	0.415	correct	0back	Block2	0back/STIM_010.jpg
1241.331	0.486	correct	0back	Block2	0back/STIM_010.jpg
1245.709	0.385	correct	0back	Block2	0back/STIM_011.jpg
1249.245	0.611	correct	0back	Block2	0back/STIM_011.jpg
1252.774	0.482	correct	0back	Block2	0back/STIM_011.jpg
1256.25	0.517	correct	0back	Block2	0back/STIM_012.jpg
1258.901	0.398	correct	0back	Block2	0back/STIM_012.jpg
1262.599	0.591	correct	0back	Block2	0back/STIM_012.jpg
1265.354	0.458	correct	0back	Block2	0back/STIM_013.jpg
1268.909	0.704	correct	0back	Block2	0back/STIM_013.jpg
1273.123	0.499	correct	0back	Block2	0back/STIM_013.jpg
1276.423	0.665	correct	0back	Block2	0back/STIM_014.jpg
1280.079	0.643	correct	0back	Block2	0back/STIM_014.jpg
1283.477	0.362	correct	0back	Block2	0back/STIM_014.jpg
1286.749	0.39	correct	0back	Block2	0back/STIM_015.jpg
1289.373	0.529	correct	0back	Block2	0back/STIM_015.jpg
1293.374	0.43	correct	0back	Block2	0back/STIM_015.jpg
1296.214	0.564	correct	0back	Block2	0back/STIM_016.jpg
1299.53	0.376	correct	0back	Block2	0back/STIM_016.jpg
1303.003	0.569	correct	0back	Block2	0back/STIM_016.jpg
1307.569	0.513	correct	0back	Block2	0back/STIM_017.jpg
1311.276	0.704	correct	0back	Block2	0back/STIM_017.jpg
1315.009	0.507	correct	0back	Block2	0back/STIM_017.jpg
1318.166	0.42	correct	0back	Block2	0back/STIM_018.jpg
1322.335	0.492	correct	0back	Block2	0back/STIM_018.jpg
1325.703	0.416	correct	0back	Block2	0back/STIM_018.jpg
1328.32	0.579	correct	0back	Block2	0back/STIM_019.jpg
1331.066	0.706	correct	0back	Block2	0back/STIM_019.jpg
1335.539	0.505	correct	0back	Block2	0back/STIM_019.jpg
1339.474	0.636	correct	2back	Block3	2back/STIM_000.jpg
1344.032	0.5	correct	2back	Block3	2back/STIM_000.jpg
1348.453	0.564	correct	2back	Block3	2back/STIM_000.jpg
1351.132	0.382	correct	2back	Block3	2back/STIM_001.jpg
1353.85	0.626	correct	2back	Block3	2back/STIM_001.jpg
1357.243	0.822	correct	2back	Block3	2back/STIM_001.jpg
1360.269	0.641	correct	2back	Block3	2back/STIM_002.jpg
1364.844	0.505	correct	2back	Block3	2back/STIM_002.jpg
1367.35	0.577	correct	2back	Block3	2back/STIM_002.jpg
1371.416	0.611	correct	2back	Block3	2back/STIM_003.jpg
1374.522	0.487	correct	2back	Block3	2back/STIM_003.jpg
1378.822	0.715	correct	2back	Block3	2back/STIM_003.jpg
1383.395	0.446	correct	2back	Block3	2back/STIM_004.jpg
1386.545	0.781	incorrect	2back	Block3	2back/STIM_004.jpg
1390.001	0.727	correct	2back	Block3	2back/STIM_004.jpg
1394.09	0.439	correct	2back	Block3	2back/STIM_005.jpg
1398.207	0.414	incorrect	2back	Block3	2back/STIM_005.jpg
1401.137	0.462	incorrect	2back	Block3	2back/STIM_005.jpg
1404.563	0.719	correct	2back	Block3	2back/STIM_006.jpg
1408.113	0.741	correct	2back	Block3	2back/STIM_006.jpg
1412.842	0.38	correct	2back	Block3	2back/STIM_006.jpg
1415.319	0.445	correct	2back	Block3	2back/STIM_007.jpg
1418.905	0.58	correct	2back	Block3	2back/STIM_007.jpg
1422.66	0.533	correct	2back	Block3	2back/STIM_007.jpg
1426.926	0.623	correct	2back	Block3	2back/STIM_008.jpg
1431.051	0.861	correct	2back	Block3	2back/STIM_008.jpg
1435.842	0.772	correct	2back	Block3	2back/STIM_008.jpg
1440.227	0.505	correct	2back	Block3	2back/STIM_009.jpg
1443.028	0.687	correct	2back	Block3	2back/STIM_009.jpg
1447.216	0.525	correct	2back	Block3	2back/STIM_009.jpg
1450.922	0.435	correct	2back	Block3	2back/STIM_010.jpg
1454.863	0.626	correct	2back	Block3	2back/STIM_010.jpg
1459.316	0.38	correct	2back	Block3	2back/STIM_010.jpg
1463.257	0.548	correct	2back	Block3	2back/STIM_011.jpg
1466.71	0.561	correct	2back	Block3	2back/STIM_011.jpg
1470.859	0.755	correct	2back	Block3	2back/STIM_011.jpg
1474.179	0.773	correct	2back	Block3	2back/STIM_012.jpg
1477.153	0.876	correct	2back	Block3	2back/STIM_012.jpg
1481.448	0.671	correct	2back	Block3	2back/STIM_012.jpg
1484.729	0.56	correct	2back	Block3	2back/STIM_013.jpg
1487.977	0.689	correct	2back	Block3	2back/STIM_013.jpg
1492.296	0.479	correct	2back	Block3	2back/STIM_013.jpg
1495.618	0.682	correct	2back	Block3	2back/STIM_014.jpg
1499.264	0.402	correct	2back	Block3	2back/STIM_014.jpg
1503.264	0.569	incorrect	2back	Block3	2back/STIM_014.jpg
1506.276	0.633	correct	2back	Block3	2back/STIM_015.jpg
1510.369	0.717	correct	2back	Block3	2back/STIM_015.jpg
1513.697	0.411	correct	2back	Block3	2back/STIM_015.jpg
1516.384	0.526	correct	2back	Block3	2back/STIM_016.jpg
1519.812	0.63	correct	2back	Block3	2back/STIM_016.jpg
1524.041	0.835	correct	2back	Block3	2back/STIM_016.jpg
1527.844	0.644	correct	2back	Block3	2back/STIM_017.jpg
1530.789	0.706	correct	2back	Block3	2back/STIM_017.jpg
1534.198	0.57	correct	2back	Block3	2back/STIM_017.jpg
1537.031	0.543	correct	2back	Block3	2back/STIM_018.jpg
1540.338	0.768	correct	2back	Block3	2back/STIM_018.jpg
1543.984	0.788	correct	2back	Block3	2back/STIM_018.jpg
1547.936	0.48	correct	2back	Block3	2back/STIM_019.jpg
1551.379	0.622	correct	2back	Block3	2back/STIM_019.jpg
1555.652	0.717	correct	2back	Block3	2back/STIM_019.jpg
1559.607	0.724	correct	2back	Block3	2back/STIM_020.jpg
1563.16	0.402	correct	2back	Block3	2back/STIM_020.jpg
1567.47	0.477	correct	2back	Block3	2back/STIM_020.jpg
1571.796	0.816	correct	2back	Block3	2back/STIM_021.jpg
1576.262	0.796	correct	2back	Block3	2back/STIM_021.jpg
1580.111	0.808	correct	2back	Block3	2back/STIM_021.jpg
1583.205	0.852	correct	2back	Block3	2back/STIM_022.jpg
1586.09	0.856	correct	2back	Block3	2back/STIM_022.jpg
1589.218	0.669	correct	2back	Block3	2back/STIM_022.jpg
1592.796	0.574	correct	2back	Block3	2back/STIM_023.jpg
1596.274	0.629	correct	2back	Block3	2back/STIM_023.jpg
1600.436	0.7	correct	2back	Block3	2back/STIM_023.jpg
1603.201	0.87	correct	2back	Block3	2back/STIM_024.jpg
1607.142	0.744	correct	2back	Block3	2back/STIM_024.jpg
1611.149	0.415	correct	2back	Block3	2back/STIM_024.jpg
1613.766	0.536	correct	2back	Block3	2back/STIM_025.jpg
1617.34	0.783	correct	2back	Block3	2back/STIM_025.jpg
1621.379	0.405	correct	2back	Block3	2back/STIM_025.jpg
1624.357	0.629	correct	2back	Block3	2back/STIM_026.jpg
1627.143	0.494	correct	2back	Block3	2back/STIM_026.jpg
1629.815	0.739	correct	2back	Block3	2back/STIM_026.jpg
1632.987	0.379	correct	2back	Block3	2back/STIM_027.jpg
1636.779	0.531	correct	2back	Block3	2back/STIM_027.jpg
1640.411	0.522	correct	2back	Block3	2back/STIM_027.jpg
1643.502	0.454	correct	2back	Block3	2back/STIM_028.jpg
1647.702	0.855	correct	2back	Block3	2back/STIM_028.jpg
1652.41	0.568	correct	2back	Block3	2back/STIM_028.jpg
1656.125	0.84	correct	2back	Block3	2back/STIM_029.jpg
1659.357	0.504	correct	2back	Block3	2back/STIM_029.jpg
1663.246	0.714	correct	2back	Block3	2back/STIM_029.jpg
1666.406	0.608	incorrect	2back	Block3	2back/STIM_030.jpg
1670.09	0.379	correct	2back	Block3	2back/STIM_030.jpg
1673.452	0.559	correct	2back	Block3	2back/STIM_030.jpg
1676.449	0.862	correct	2back	Block3	2back/STIM_031.jpg
1679.536	0.7	correct	2back	Block3	2back/STIM_031.jpg
1684.028	0.562	correct	2back	Block3	2back/STIM_031.jpg
1686.691	0.445	correct	2back	Block3	2back/STIM_032.jpg
1690.639	0.701	correct	2back	Block3	2back/STIM_032.jpg
1694.62	0.854	correct	2back	Block3	2back/STIM_032.jpg
1699.225	0.509	correct	2back	Block3	2back/STIM_033.jpg
1702.652	0.674	correct	2back	Block3	2back/STIM_033.jpg
1705.351	0.618	correct	2back	Block3	2back/STIM_033.jpg
1709.309	0.852	correct	2back	Block3	2back/STIM_034.jpg
1713.862	0.776	correct	2back	Block3	2back/STIM_034.jpg
1718.288	0.873	correct	2back	Block3	2back/STIM_034.jpg
1721.483	0.483	incorrect	2back	Block3	2back/STIM_035.jpg
1724.535	0.593	correct	2back	Block3	2back/STIM_035.jpg
1727.888	0.537	correct	2back	Block3	2back/STIM_035.jpg
1731.102	0.857	correct	2back	Block3	2back/STIM_036.jpg
1734.733	0.393	correct	2back	Block3	2back/STIM_036.jpg
1738.53	0.665	correct	2back	Block3	2back/STIM_036.jpg
1741.782	0.728	correct	2back	Block3	2back/STIM_037.jpg
1745.787	0.657	correct	2back	Block3	2back/STIM_037.jpg
1748.595	0.497	correct	2back	Block3	2back/STIM_037.jpg
1752.907	0.791	correct	2back	Block3	2back/STIM_038.jpg
1755.805	0.747	correct	2back	Block3	2back/STIM_038.jpg
1758.758	0.692	correct	2back	Block3	2back/STIM_038.jpg
1761.488	0.673	correct	2back	Block3	2back/STIM_039.jpg
1764.486	0.47	correct	2back	Block3	2back/STIM_039.jpg
1768.591	0.612	incorrect	2back	Block3	2back/STIM_039.jpg
1771.387	0.648	correct	0back	Block3	0back/STIM_000.jpg
1774.903	0.617	correct	0back	Block3	0back/STIM_000.jpg
1778.286	0.361	correct	0back	Block3	0back/STIM_000.jpg
1782.613	0.64	correct	0back	Block3	0back/STIM_001.jpg
1786.814	0.683	correct	0back	Block3	0back/STIM_001.jpg
1790.808	0.6	correct	0back	Block3	0back/STIM_001.jpg
1794.614	0.663	correct	0back	Block3	0back/STIM_002.jpg
1797.671	0.65	correct	0back	Block3	0back/STIM_002.jpg
1801.764	0.46	correct	0back	Block3	0back/STIM_002.jpg
1804.358	0.514	correct	0back	Block3	0back/STIM_003.jpg
1808.723	0.54	correct	0back	Block3	0back/STIM_003.jpg
1811.767	0.605	correct	0back	Block3	0back/STIM_003.jpg
1815.14	0.446	correct	0back	Block3	0back/STIM_004.jpg
1817.868	0.371	correct	0back	Block3	0back/STIM_004.jpg
1821.247	0.71	correct	0back	Block3	0back/STIM_004.jpg
1824.159	0.478	correct	0back	Block3	0back/STIM_005.jpg
1827.747	0.698	correct	0back	Block3	0back/STIM_005.jpg
1830.54	0.581	correct	0back	Block3	0back/STIM_005.jpg
1833.867	0.508	correct	0back	Block3	0back/STIM_006.jpg
1837.734	0.673	correct	0back	Block3	0back/STIM_006.jpg
1841.412	0.614	correct	0back	Block3	0back/STIM_006.jpg
1844.673	0.588	correct	0back	Block3	0back/STIM_007.jpg
1847.438	0.704	correct	0back	Block3	0back/STIM_007.jpg
1851.899	0.658	correct	0back	Block3	0back/STIM_007.jpg
1856.094	0.393	correct	0back	Block3	0back/STIM_008.jpg
1858.996	0.455	correct	0back	Block3	0back/STIM_008.jpg
1863.341	0.431	correct	0back	Block3	0back/STIM_008.jpg
1867.057	0.626	correct	0back	Block3	0back/STIM_009.jpg
1870.757	0.668	correct	0back	Block3	0back/STIM_009.jpg
1873.631	0.57	correct	0back	Block3	0back/STIM_009.jpg
1876.852	0.526	correct	0back	Block3	0back/STIM_010.jpg
1879.953	0.398	correct	0back	Block3	0back/STIM_010.jpg
1883.607	0.549	correct	0back	Block3	0back/STIM_010.jpg
1887.144	0.501	correct	0back	Block3	0back/STIM_011.jpg
1890.6	0.603	correct	0back	Block3	0back/STIM_011.jpg
1894.402	0.362	correct	0back	Block3	0back/STIM_011.jpg
1897.352	0.456	correct	0back	Block3	0back/STIM_012.jpg
1900.117	0.611	correct	0back	Block3	0back/STIM_012.jpg
1903.042	0.616	correct	0back	Block3	0back/STIM_012.jpg
1906.626	0.373	correct	0back	Block3	0back/STIM_013.jpg
1910.063	0.404	correct	0back	Block3	0back/STIM_013.jpg
1912.938	0.423	correct	0back	Block3	0back/STIM_013.jpg
1917.231	0.423	correct	0back	Block3	0back/STIM_014.jpg
1919.984	0.684	correct	0back	Block3	0back/STIM_014.jpg
1923.733	0.526	correct	0back	Block3	0back/STIM_014.jpg
1927.349	0.458	correct	0back	Block3	0back/STIM_015.jpg
1930.927	0.409	correct	0back	Block3	0back/STIM_015.jpg
1934.32	0.45	correct	0back	Block3	0back/STIM_015.jpg
1938.573	0.366	correct	0back	Block3	0back/STIM_016.jpg
1941.969	0.625	correct	0back	Block3	0back/STIM_016.jpg
1946.301	0.586	correct	0back	Block3	0back/STIM_016.jpg
1949.031	0.694	correct	0back	Block3	0back/STIM_017.jpg
1953.18	0.718	correct	0back	Block3	0back/STIM_017.jpg
1957.094	0.593	correct	0back	Block3	0back/STIM_017.jpg
1960.586	0.67	correct	0back	Block3	0back/STIM_018.jpg
1964.475	0.362	correct	0back	Block3	0back/STIM_018.jpg
1967.22	0.578	correct	0back	Block3	0back/STIM_018.jpg
1971.214	0.51	correct	0back	Block3	0back/STIM_019.jpg
1974.901	0.367	incorrect	0back	Block3	0back/STIM_019.jpg
1977.349	0.679	correct	0back	Block3	0back/STIM_019.jpg
1981.287	0.854	correct	2back	Block4	2back/STIM_000.jpg
1986.05	0.449	correct	2back	Block4	2back/STIM_000.jpg
1988.568	0.854	correct	2back	Block4	2back/STIM_000.jpg
1991.514	0.419	correct	2back	Block4	2back/STIM_001.jpg
1995.886	0.547	correct	2back	Block4	2back/STIM_001.jpg
1999.455	0.816	correct	2back	Block4	2back/STIM_001.jpg
2002.411	0.58	correct	2back	Block4	2back/STIM_002.jpg
2006.715	0.483	correct	2back	Block4	2back/STIM_002.jpg
2010.498	0.562	correct	2back	Block4	2back/STIM_002.jpg
2014.229	0.469	correct	2back	Block4	2back/STIM_003.jpg
2018.6	0.591	correct	2back	Block4	2back/STIM_003.jpg
2022.356	0.403	correct	2back	Block4	2back/STIM_003.jpg
2025.993	0.653	incorrect	2back	Block4	2back/STIM_004.jpg
2029.453	0.542	correct	2back	Block4	2back/STIM_004.jpg
2032.045	0.837	correct	2back	Block4	2back/STIM_004.jpg
2036.246	0.602	correct	2back	Block4	2back/STIM_005.jpg
2040.485	0.448	correct	2back	Block4	2back/STIM_005.jpg
2044.925	0.586	correct	2back	Block4	2back/STIM_005.jpg
2049.411	0.881	correct	2back	Block4	2back/STIM_006.jpg
2053.822	0.702	correct	2back	Block4	2back/STIM_006.jpg
2058.327	0.524	correct	2back	Block4	2back/STIM_006.jpg
2061.277	0.567	correct	2back	Block4	2back/STIM_007.jpg
2064.375	0.474	correct	2back	Block4	2back/STIM_007.jpg
2067.383	0.534	correct	2back	Block4	2back/STIM_007.jpg
2070.38	0.856	correct	2back	Block4	2back/STIM_008.jpg
2074.782	0.446	correct	2back	Block4	2back/STIM_008.jpg
2077.914	0.814	correct	2back	Block4	2back/STIM_008.jpg
2081.855	0.848	correct	2back	Block4	2back/STIM_009.jpg
2085.795	0.453	correct	2back	Block4	2back/STIM_009.jpg
2088.593	0.616	correct	2back	Block4	2back/STIM_009.jpg
2092.386	0.604	correct	2back	Block4	2back/STIM_010.jpg
2095.341	0.576	correct	2back	Block4	2back/STIM_010.jpg
2099.147	0.629	correct	2back	Block4	2back/STIM_010.jpg
2102.226	0.447	correct	2back	Block4	2back/STIM_011.jpg
2105.019	0.583	correct	2back	Block4	2back/STIM_011.jpg
2108.874	0.386	correct	2back	Block4	2back/STIM_011.jpg
2112.315	0.724	correct	2back	Block4	2back/STIM_012.jpg
2115.358	0.734	correct	2back	Block4	2back/STIM_012.jpg
2119.776	0.49	correct	2back	Block4	2back/STIM_012.jpg
2124.181	0.417	correct	2back	Block4	2back/STIM_013.jpg
2128.017	0.744	correct	2back	Block4	2back/STIM_013.jpg
2132.003	0.762	correct	2back	Block4	2back/STIM_013.jpg
2135.577	0.659	correct	2back	Block4	2back/STIM_014.jpg
2138.781	0.49	correct	2back	Block4	2back/STIM_014.jpg
2141.682	0.858	correct	2back	Block4	2back/STIM_014.jpg
2145.223	0.4	correct	2back	Block4	2back/STIM_015.jpg
2148.022	0.385	correct	2back	Block4	2back/STIM_015.jpg
2152.131	0.84	correct	2back	Block4	2back/STIM_015.jpg
2156.211	0.719	correct	2back	Block4	2back/STIM_016.jpg
2160.269	0.654	correct	2back	Block4	2back/STIM_016.jpg
2163.514	0.4	correct	2back	Block4	2back/STIM_016.jpg
2166.408	0.777	correct	2back	Block4	2back/STIM_017.jpg
2170.397	0.482	correct	2back	Block4	2back/STIM_017.jpg
2173.261	0.54	correct	2back	Block4	2back/STIM_017.jpg
2176.25	0.502	correct	2back	Block4	2back/STIM_018.jpg
2179.456	0.718	correct	2back	Block4	2back/STIM_018.jpg
2183.218	0.726	correct	2back	Block4	2back/STIM_018.jpg
2186.993	0.779	correct	2back	Block4	2back/STIM_019.jpg
2189.945	0.598	correct	2back	Block4	2back/STIM_019.jpg
2192.977	0.556	correct	2back	Block4	2back/STIM_019.jpg
2195.699	0.779	correct	2back	Block4	2back/STIM_020.jpg
2199.536	0.462	correct	2back	Block4	2back/STIM_020.jpg
2203.371	0.635	correct	2back	Block4	2back/STIM_020.jpg
2207.292	0.713	correct	2back	Block4	2back/STIM_021.jpg
2210.048	0.474	correct	2back	Block4	2back/STIM_021.jpg
2214.298	0.611	correct	2back	Block4	2back/STIM_021.jpg
2217.762	0.53	correct	2back	Block4	2back/STIM_022.jpg
2220.301	0.392	correct	2back	Block4	2back/STIM_022.jpg
2223.955	0.773	correct	2back	Block4	2back/STIM_022.jpg
2227.497	0.751	correct	2back	Block4	2back/STIM_023.jpg
2230.344	0.696	correct	2back	Block4	2back/STIM_023.jpg
2234.995	0.712	correct	2back	Block4	2back/STIM_023.jpg
2239.574	0.458	correct	2back	Block4	2back/STIM_024.jpg
2242.904	0.54	correct	2back	Block4	2back/STIM_024.jpg
2245.541	0.501	correct	2back	Block4	2back/STIM_024.jpg
2249.016	0.716	correct	2back	Block4	2back/STIM_025.jpg
2251.766	0.706	correct	2back	Block4	2back/STIM_025.jpg
2256.346	0.43	correct	2back	Block4	2back/STIM_025.jpg
2260.146	0.74	correct	2back	Block4	2back/STIM_026.jpg
2263.166	0.483	correct	2back	Block4	2back/STIM_026.jpg
2266.746	0.782	correct	2back	Block4	2back/STIM_026.jpg
2271.082	0.86	correct	2back	Block4	2back/STIM_027.jpg
2274.26	0.593	correct	2back	Block4	2back/STIM_027.jpg
2277.904	0.805	correct	2back	Block4	2back/STIM_027.jpg
2281.449	0.697	correct	2back	Block4	2back/STIM_028.jpg
2284.943	0.866	correct	2back	Block4	2back/STIM_028.jpg
2288.861	0.544	correct	2back	Block4	2back/STIM_028.jpg
2291.955	0.399	correct	2back	Block4	2back/STIM_029.jpg
2296.012	0.64	correct	2back	Block4	2back/STIM_029.jpg
2300.172	0.516	correct	2back	Block4	2back/STIM_029.jpg
2303.46	0.651	correct	2back	Block4	2back/STIM_030.jpg
2307.523	0.394	correct	2back	Block4	2back/STIM_030.jpg
2310.889	0.612	correct	2back	Block4	2back/STIM_030.jpg
2314.376	0.692	correct	2back	Block4	2back/STIM_031.jpg
2318.614	0.739	correct	2back	Block4	2back/STIM_031.jpg
2323.201	0.806	incorrect	2back	Block4	2back/STIM_031.jpg
2326.506	0.754	correct	2back	Block4	2back/STIM_032.jpg
2329.419	0.806	correct	2back	Block4	2back/STIM_032.jpg
2333.059	0.506	correct	2back	Block4	2back/STIM_032.jpg
2336.613	0.564	correct	2back	Block4	2back/STIM_033.jpg
2340.745	0.658	correct	2back	Block4	2back/STIM_033.jpg
2344.181	0.679	correct	2back	Block4	2back/STIM_033.jpg
2348.409	0.541	correct	2back	Block4	2back/STIM_034.jpg
2352.697	0.484	correct	2back	Block4	2back/STIM_034.jpg
2356.226	0.389	correct	2back	Block4	2back/STIM_034.jpg
2359.615	0.398	correct	2back	Block4	2back/STIM_035.jpg
2363.607	0.486	correct	2back	Block4	2back/STIM_035.jpg
2367.756	0.682	correct	2back	Block4	2back/STIM_035.jpg
2370.535	0.605	correct	2back	Block4	2back/STIM_036.jpg
2373.186	0.873	correct	2back	Block4	2back/STIM_036.jpg
2376.411	0.626	correct	2back	Block4	2back/STIM_036.jpg
2379.135	0.45	correct	2back	Block4	2back/STIM_037.jpg
2382.27	0.717	correct	2back	Block4	2back/STIM_037.jpg
2385.642	0.43	correct	2back	Block4	2back/STIM_037.jpg
2389.45	0.61	correct	2back	Block4	2back/STIM_038.jpg
2392.428	0.776	correct	2back	Block4	2back/STIM_038.jpg
2395.903	0.88	correct	2back	Block4	2back/STIM_038.jpg
2400.777	0.382	correct	2back	Block4	2back/STIM_039.jpg
2403.38	0.45	correct	2back	Block4	2back/STIM_039.jpg
2407.271	0.714	correct	2back	Block4	2back/STIM_039.jpg
2410.088	0.593	correct	0back	Block4	0back/STIM_000.jpg
2414.398	0.389	incorrect	0back	Block4	0back/STIM_000.jpg
2418.467	0.497	correct	0back	Block4	0back/STIM_000.jpg
2421.694	0.464	correct	0back	Block4	0back/STIM_001.jpg
2424.839	0.52	correct	0back	Block4	0back/STIM_001.jpg
2427.951	0.371	correct	0back	Block4	0back/STIM_001.jpg
2430.842	0.414	correct	0back	Block4	0back/STIM_002.jpg
2434.963	0.371	correct	0back	Block4	0back/STIM_002.jpg
2437.373	0.428	correct	0back	Block4	0back/STIM_002.jpg
2441.399	0.591	correct	0back	Block4	0back/STIM_003.jpg
2445.333	0.501	correct	0back	Block4	0back/STIM_003.jpg
2448.979	0.497	correct	0back	Block4	0back/STIM_003.jpg
2453.262	0.503	correct	0back	Block4	0back/STIM_004.jpg
2456.607	0.576	correct	0back	Block4	0back/STIM_004.jpg
2459.266	0.654	correct	0back	Block4	0back/STIM_004.jpg
2462.041	0.41	correct	0back	Block4	0back/STIM_005.jpg
2466.171	0.653	correct	0back	Block4	0back/STIM_005.jpg
2470.341	0.368	correct	0back	Block4	0back/STIM_005.jpg
2473.047	0.693	correct	0back	Block4	0back/STIM_006.jpg
2476.391	0.706	correct	0back	Block4	0back/STIM_006.jpg
2480.127	0.516	correct	0back	Block4	0back/STIM_006.jpg
2483.181	0.478	correct	0back	Block4	0back/STIM_007.jpg
2487.533	0.625	correct	0back	Block4	0back/STIM_007.jpg
2492.014	0.71	correct	0back	Block4	0back/STIM_007.jpg
2495.155	0.444	correct	0back	Block4	0back/STIM_008.jpg
2498.664	0.52	correct	0back	Block4	0back/STIM_008.jpg
2503.161	0.577	correct	0back	Block4	0back/STIM_008.jpg
2507.102	0.509	correct	0back	Block4	0back/STIM_009.jpg
2509.619	0.714	correct	0back	Block4	0back/STIM_009.jpg
2513.295	0.686	incorrect	0back	Block4	0back/STIM_009.jpg
2517.258	0.621	correct	0back	Block4	0back/STIM_010.jpg
2521.581	0.611	correct	0back	Block4	0back/STIM_010.jpg
2524.371	0.63	correct	0back	Block4	0back/STIM_010.jpg
2527.406	0.611	correct	0back	Block4	0back/STIM_011.jpg
2531.643	0.657	incorrect	0back	Block4	0back/STIM_011.jpg
2535.379	0.384	correct	0back	Block4	0back/STIM_011.jpg
2539.687	0.436	correct	0back	Block4	0back/STIM_012.jpg
2543.237	0.402	correct	0back	Block4	0back/STIM_012.jpg
2546.779	0.627	correct	0back	Block4	0back/STIM_012.jpg
2549.437	0.692	correct	0back	Block4	0back/STIM_013.jpg
2553.095	0.471	correct	0back	Block4	0back/STIM_013.jpg
2557.226	0.673	correct	0back	Block4	0back/STIM_013.jpg
2560.944	0.434	correct	0back	Block4	0back/STIM_014.jpg
2564.672	0.644	correct	0back	Block4	0back/STIM_014.jpg
2567.917	0.642	correct	0back	Block4	0back/STIM_014.jpg
2571.504	0.647	correct	0back	Block4	0back/STIM_015.jpg
2575.244	0.447	correct	0back	Block4	0back/STIM_015.jpg
2577.955	0.706	correct	0back	Block4	0back/STIM_015.jpg
2582.29	0.582	correct	0back	Block4	0back/STIM_016.jpg
2586.56	0.461	correct	0back	Block4	0back/STIM_016.jpg
2590.7	0.643	correct	0back	Block4	0back/STIM_016.jpg
2593.898	0.678	correct	0back	Block4	0back/STIM_017.jpg
2598.089	0.591	correct	0back	Block4	0back/STIM_017.jpg
2601.904	0.558	correct	0back	Block4	0back/STIM_017.jpg
2605.639	0.455	correct	0back	Block4	0back/STIM_018.jpg
2608.444	0.452	correct	0back	Block4	0back/STIM_018.jpg
2611.56	0.547	correct	0back	Block4	0back/STIM_018.jpg
2615.534	0.599	correct	0back	Block4	0back/STIM_019.jpg
2618.36	0.604	correct	0back	Block4	0back/STIM_019.jpg
2622.443	0.49	correct	0back	Block4	0back/STIM_019.jpg
