onset	duration	response_time_ms	trial_type	learning_stage	stimulus	response_port
0.0	1.102	1102.5	2back	Block1	2back/STIM_000.jpg	100
3.957	0.718	717.6	2back	Block1	2back/STIM_000.jpg	99
7.029	0.707	707.4	2back	Block1	2back/STIM_000.jpg	100
11.446	0.542	541.8	2back	Block1	2back/STIM_001.jpg	99
14.478	0.701	701.2	2back	Block1	2back/STIM_001.jpg	100
17.784	0.842	842.5	2back	Block1	2back/STIM_001.jpg	99
21.25	0.568	567.9	2back	Block1	2back/STIM_002.jpg	99
24.325	0.8	799.6	2back	Block1	2back/STIM_002.jpg	99
29.048	0.876	875.5	2back	Block1	2back/STIM_002.jpg	100
33.822	0.905	904.8	2back	Block1	2back/STIM_003.jpg	99
37.937	1.163	1162.6	2back	Block1	2back/STIM_003.jpg	100
42.934	0.921	921.1	2back	Block1	2back/STIM_003.jpg	99
47.396	0.57	569.9	2back	Block1	2back/STIM_004.jpg	99
51.94	0.698	698.4	2back	Block1	2back/STIM_004.jpg	100
56.067	0.962	961.6	2back	Block1	2back/STIM_004.jpg	100
60.9	0.914	913.9	2back	Block1	2back/STIM_005.jpg	100
64.565	0.561	560.8	2back	Block1	2back/STIM_005.jpg	99
67.428	1.014	1013.5	2back	Block1	2back/STIM_005.jpg	100
72.365	1.054	1053.9	2back	Block1	2back/STIM_006.jpg	100
76.419	0.623	623.1	2back	Block1	2back/STIM_006.jpg	99
79.493	1.117	1117.0	2back	Block1	2back/STIM_006.jpg	99
84.162	0.903	903.0	2back	Block1	2back/STIM_007.jpg	99
88.854	0.955	955.2	2back	Block1	2back/STIM_007.jpg	100
93.685	1.054	1053.7	2back	Block1	2back/STIM_007.jpg	100
98.504	0.557	557.1	2back	Block1	2back/STIM_008.jpg	99
102.044	1.147	1146.9	2back	Block1	2back/STIM_008.jpg	99
106.646	0.642	641.9	2back	Block1	2back/STIM_008.jpg	100
110.995	1.224	1224.1	2back	Block1	2back/STIM_009.jpg	100
116.169	0.526	526.3	2back	Block1	2back/STIM_009.jpg	99
120.292	1.091	1091.2	2back	Block1	2back/STIM_009.jpg	100
124.34	0.972	971.5	2back	Block1	2back/STIM_010.jpg	100
129.05	0.55	550.3	2back	Block1	2back/STIM_010.jpg	100
132.739	1.076	1075.5	2back	Block1	2back/STIM_010.jpg	100
135.973	0.547	546.7	2back	Block1	2back/STIM_011.jpg	100
139.139	1.004	1004.0	2back	Block1	2back/STIM_011.jpg	100
143.636	0.902	902.2	2back	Block1	2back/STIM_011.jpg	100
147.687	1.191	1191.3	2back	Block1	2back/STIM_012.jpg	100
152.246	1.042	1042.1	2back	Block1	2back/STIM_012.jpg	99
156.063	0.61	610.1	2back	Block1	2back/STIM_012.jpg	100
160.342	0.987	987.4	2back	Block1	2back/STIM_013.jpg	100
165.084	1.133	1133.0	2back	Block1	2back/STIM_013.jpg	99
169.211	0.959	958.6	2back	Block1	2back/STIM_013.jpg	100
172.986	1.256	1255.9	2back	Block1	2back/STIM_014.jpg	99
177.903	0.717	717.2	2back	Block1	2back/STIM_014.jpg	99
181.706	0.509	509.1	2back	Block1	2back/STIM_014.jpg	99
185.03	0.731	730.7	2back	Block1	2back/STIM_015.jpg	99
189.643	1.065	1064.9	2back	Block1	2back/STIM_015.jpg	99
194.232	0.842	842.5	2back	Block1	2back/STIM_015.jpg	99
197.479	0.635	635.4	2back	Block1	2back/STIM_016.jpg	99
202.003	0.729	729.2	2back	Block1	2back/STIM_016.jpg	99
205.225	1.055	1055.0	2back	Block1	2back/STIM_016.jpg	99
209.407	0.893	893.2	2back	Block1	2back/STIM_017.jpg	100
212.934	0.842	841.8	2back	Block1	2back/STIM_017.jpg	99
215.97	1.051	1051.4	2back	Block1	2back/STIM_017.jpg	99
220.407	0.822	822.4	2back	Block1	2back/STIM_018.jpg	100
223.917	0.96	960.1	2back	Block1	2back/STIM_018.jpg	99
228.678	0.495	494.8	2back	Block1	2back/STIM_018.jpg	99
231.619	0.813	813.4	2back	Block1	2back/STIM_019.jpg	99
236.072	0.673	672.7	2back	Block1	2back/STIM_019.jpg	100
239.332	1.13	1129.5	2back	Block1	2back/STIM_019.jpg	100
244.102	0.55	550.1	2back	Block1	2back/STIM_020.jpg	99
247.851	0.721	721.4	2back	Block1	2back/STIM_020.jpg	99
252.567	0.563	563.0	2back	Block1	2back/STIM_020.jpg	100
255.775	1.053	1053.0	2back	Block1	2back/STIM_021.jpg	99
259.194	0.948	948.4	2back	Block1	2back/STIM_021.jpg	100
263.778	0.61	610.0	2back	Block1	2back/STIM_021.jpg	100
266.619	0.656	656.2	2back	Block1	2back/STIM_022.jpg	100
270.079	0.562	561.8	2back	Block1	2back/STIM_022.jpg	99
272.763	0.871	870.7	2back	Block1	2back/STIM_022.jpg	99
277.472	0.719	719.2	2back	Block1	2back/STIM_023.jpg	100
280.74	0.769	769.1	2back	Block1	2back/STIM_023.jpg	100
284.89	1.032	1031.6	2back	Block1	2back/STIM_023.jpg	100
288.726	0.806	806.2	2back	Block1	2back/STIM_024.jpg	100
291.607	0.792	791.8	2back	Block1	2back/STIM_024.jpg	100
295.831	1.132	1132.4	2back	Block1	2back/STIM_024.jpg	100
300.605	0.856	855.6	2back	Block1	2back/STIM_025.jpg	100
304.776	0.906	905.9	2back	Block1	2back/STIM_025.jpg	100
309.421	0.751	751.1	2back	Block1	2back/STIM_025.jpg	100
312.978	0.961	961.2	2back	Block1	2back/STIM_026.jpg	99
317.17	0.614	614.5	2back	Block1	2back/STIM_026.jpg	100
321.422	0.501	500.6	2back	Block1	2back/STIM_026.jpg	99
325.897	1.035	1035.1	2back	Block1	2back/STIM_027.jpg	100
330.903	0.63	629.9	2back	Block1	2back/STIM_027.jpg	100
334.816	0.639	639.0	2back	Block1	2back/STIM_027.jpg	99
339.059	0.686	686.2	2back	Block1	2back/STIM_028.jpg	100
341.894	0.677	676.9	2back	Block1	2back/STIM_028.jpg	99
344.587	1.01	1010.4	2back	Block1	2back/STIM_028.jpg	100
348.146	1.158	1158.0	2back	Block1	2back/STIM_029.jpg	99
351.548	0.751	750.9	2back	Block1	2back/STIM_029.jpg	99
354.653	0.98	980.1	2back	Block1	2back/STIM_029.jpg	100
359.546	0.933	933.1	2back	Block1	2back/STIM_030.jpg	100
364.348	0.573	573.4	2back	Block1	2back/STIM_030.jpg	99
368.579	0.751	751.2	2back	Block1	2back/STIM_030.jpg	99
372.98	1.062	1061.9	2back	Block1	2back/STIM_031.jpg	99
377.902	1.17	1169.6	2back	Block1	2back/STIM_031.jpg	99
382.948	0.904	903.7	2back	Block1	2back/STIM_031.jpg	99
387.41	0.911	910.7	2back	Block1	2back/STIM_032.jpg	100
391.341	0.801	801.1	2back	Block1	2back/STIM_032.jpg	100
394.228	0.638	638.0	2back	Block1	2back/STIM_032.jpg	100
396.903	0.977	977.0	2back	Block1	2back/STIM_033.jpg	100
401.662	1.124	1124.2	2back	Block1	2back/STIM_033.jpg	99
406.148	0.895	895.0	2back	Block1	2back/STIM_033.jpg	100
409.818	1.103	1102.6	2back	Block1	2back/STIM_034.jpg	100
413.291	0.553	552.9	2back	Block1	2back/STIM_034.jpg	100
416.754	0.504	504.1	2back	Block1	2back/STIM_034.jpg	100
419.311	0.818	817.5	2back	Block1	2back/STIM_035.jpg	99
422.173	0.907	906.7	2back	Block1	2back/STIM_035.jpg	100
425.379	1.057	1056.6	2back	Block1	2back/STIM_035.jpg	100
430.126	1.02	1020.5	2back	Block1	2back/STIM_036.jpg	99
433.225	1.18	1180.5	2back	Block1	2back/STIM_036.jpg	100
437.896	0.806	806.3	2back	Block1	2back/STIM_036.jpg	99
442.385	0.723	723.1	2back	Block1	2back/STIM_037.jpg	100
445.483	1.011	1010.8	2back	Block1	2back/STIM_037.jpg	100
449.582	0.98	980.4	2back	Block1	2back/STIM_037.jpg	99
453.614	0.856	856.3	2back	Block1	2back/STIM_038.jpg	100
456.637	0.576	575.8	2back	Block1	2back/STIM_038.jpg	100
459.459	0.524	523.6	2back	Block1	2back/STIM_038.jpg	100
462.601	1.125	1125.0	2back	Block1	2back/STIM_039.jpg	99
465.984	0.7	699.7	2back	Block1	2back/STIM_039.jpg	100
470.232	0.564	563.8	2back	Block1	2back/STIM_039.jpg	100
473.146	0.654	654.4	0back	Block1	0back/STIM_000.jpg	100
476.635	0.376	376.2	0back	Block1	0back/STIM_000.jpg	99
479.014	0.483	482.8	0back	Block1	0back/STIM_000.jpg	99
482.242	0.432	432.5	0back	Block1	0back/STIM_001.jpg	99
484.932	0.68	680.3	0back	Block1	0back/STIM_001.jpg	99
487.889	0.643	643.0	0back	Block1	0back/STIM_001.jpg	100
491.991	0.673	672.9	0back	Block1	0back/STIM_002.jpg	99
495.242	0.625	625.2	0back	Block1	0back/STIM_002.jpg	100
498.636	0.695	695.3	0back	Block1	0back/STIM_002.jpg	99
502.118	0.412	412.0	0back	Block1	0back/STIM_003.jpg	99
505.298	0.456	456.5	0back	Block1	0back/STIM_003.jpg	99
508.872	0.708	708.4	0back	Block1	0back/STIM_003.jpg	99
513.581	0.367	366.8	0back	Block1	0back/STIM_004.jpg	100
517.004	0.541	541.1	0back	Block1	0back/STIM_004.jpg	100
519.803	0.536	535.9	0back	Block1	0back/STIM_004.jpg	99
524.275	0.442	441.5	0back	Block1	0back/STIM_005.jpg	100
528.304	0.681	681.0	0back	Block1	0back/STIM_005.jpg	100
531.274	0.394	393.6	0back	Block1	0back/STIM_005.jpg	100
533.983	0.494	494.5	0back	Block1	0back/STIM_006.jpg	100
536.657	0.682	682.0	0back	Block1	0back/STIM_006.jpg	100
539.519	0.717	717.3	0back	Block1	0back/STIM_006.jpg	100
543.862	0.389	389.4	0back	Block1	0back/STIM_007.jpg	99
546.545	0.594	594.5	0back	Block1	0back/STIM_007.jpg	100
550.206	0.488	488.4	0back	Block1	0back/STIM_007.jpg	99
553.148	0.524	523.5	0back	Block1	0back/STIM_008.jpg	99
557.003	0.658	658.0	0back	Block1	0back/STIM_008.jpg	99
560.511	0.691	691.0	0back	Block1	0back/STIM_008.jpg	100
564.373	0.414	414.3	0back	Block1	0back/STIM_009.jpg	100
568.51	0.424	424.0	0back	Block1	0back/STIM_009.jpg	99
572.271	0.685	685.4	0back	Block1	0back/STIM_009.jpg	99
576.714	0.57	569.8	0back	Block1	0back/STIM_010.jpg	99
580.333	0.711	711.3	0back	Block1	0back/STIM_010.jpg	100
584.34	0.52	520.1	0back	Block1	0back/STIM_010.jpg	100
588.816	0.692	692.2	0back	Block1	0back/STIM_011.jpg	100
591.776	0.648	648.2	0back	Block1	0back/STIM_011.jpg	100
595.622	0.492	491.7	0back	Block1	0back/STIM_011.jpg	99
600.051	0.369	368.8	0back	Block1	0back/STIM_012.jpg	99
602.478	0.606	606.2	0back	Block1	0back/STIM_012.jpg	99
605.407	0.688	687.5	0back	Block1	0back/STIM_012.jpg	99
609.07	0.505	504.7	0back	Block1	0back/STIM_013.jpg	99
613.177	0.643	643.3	0back	Block1	0back/STIM_013.jpg	100
617.458	0.365	365.4	0back	Block1	0back/STIM_013.jpg	99
621.612	0.65	650.2	0back	Block1	0back/STIM_014.jpg	99
625.888	0.711	711.4	0back	Block1	0back/STIM_014.jpg	100
629.291	0.425	425.1	0back	Block1	0back/STIM_014.jpg	99
632.562	0.578	577.6	0back	Block1	0back/STIM_015.jpg	99
636.83	0.573	573.0	0back	Block1	0back/STIM_015.jpg	100
640.033	0.478	477.5	0back	Block1	0back/STIM_015.jpg	99
642.989	0.482	482.0	0back	Block1	0back/STIM_016.jpg	100
647.153	0.459	459.1	0back	Block1	0back/STIM_016.jpg	100
649.95	0.5	499.6	0back	Block1	0back/STIM_016.jpg	100
653.008	0.48	479.8	0back	Block1	0back/STIM_017.jpg	99
656.976	0.493	493.1	0back	Block1	0back/STIM_017.jpg	100
660.409	0.54	539.7	0back	Block1	0back/STIM_017.jpg	100
663.872	0.705	704.7	0back	Block1	0back/STIM_018.jpg	100
667.725	0.682	681.9	0back	Block1	0back/STIM_018.jpg	99
670.68	0.517	517.1	0back	Block1	0back/STIM_018.jpg	99
673.861	0.405	405.3	0back	Block1	0back/STIM_019.jpg	99
677.399	0.385	384.8	0back	Block1	0back/STIM_019.jpg	100
679.837	0.425	425.2	0back	Block1	0back/STIM_019.jpg	99
683.256	0.548	547.8	2back	Block2	2back/STIM_000.jpg	100
686.712	0.579	578.7	2back	Block2	2back/STIM_000.jpg	100
689.404	0.698	697.7	2back	Block2	2back/STIM_000.jpg	99
692.772	0.658	657.5	2back	Block2	2back/STIM_001.jpg	100
697.417	0.542	541.8	2back	Block2	2back/STIM_001.jpg	99
701.209	0.801	801.3	2back	Block2	2back/STIM_001.jpg	100
704.375	0.501	500.6	2back	Block2	2back/STIM_002.jpg	100
707.011	0.526	526.2	2back	Block2	2back/STIM_002.jpg	99
711.031	0.918	917.8	2back	Block2	2back/STIM_002.jpg	99
715.109	0.644	643.5	2back	Block2	2back/STIM_003.jpg	99
719.695	0.703	702.6	2back	Block2	2back/STIM_003.jpg	99
723.42	0.576	576.5	2back	Block2	2back/STIM_003.jpg	99
726.643	0.626	625.5	2back	Block2	2back/STIM_004.jpg	100
731.092	0.52	520.4	2back	Block2	2back/STIM_004.jpg	100
734.777	0.53	529.7	2back	Block2	2back/STIM_004.jpg	99
738.753	0.663	662.8	2back	Block2	2back/STIM_005.jpg	100
743.094	0.654	653.8	2back	Block2	2back/STIM_005.jpg	99
747.581	0.674	673.9	2back	Block2	2back/STIM_005.jpg	99
750.613	0.634	634.0	2back	Block2	2back/STIM_006.jpg	100
753.593	0.591	590.8	2back	Block2	2back/STIM_006.jpg	100
757.512	0.912	912.0	2back	Block2	2back/STIM_006.jpg	100
761.462	0.67	670.1	2back	Block2	2back/STIM_007.jpg	100
764.977	0.779	779.0	2back	Block2	2back/STIM_007.jpg	100
769.178	0.736	735.5	2back	Block2	2back/STIM_007.jpg	99
773.438	0.731	731.1	2back	Block2	2back/STIM_008.jpg	100
776.713	0.746	746.4	2back	Block2	2back/STIM_008.jpg	99
781.208	0.778	778.0	2back	Block2	2back/STIM_008.jpg	100
784.635	0.634	634.5	2back	Block2	2back/STIM_009.jpg	99
788.097	0.978	978.1	2back	Block2	2back/STIM_009.jpg	99
791.784	0.843	843.1	2back	Block2	2back/STIM_009.jpg	100
796.216	0.486	485.8	2back	Block2	2back/STIM_010.jpg	99
800.524	0.75	749.9	2back	Block2	2back/STIM_010.jpg	100
803.823	0.734	734.0	2back	Block2	2back/STIM_010.jpg	100
807.762	0.883	883.1	2back	Block2	2back/STIM_011.jpg	100
811.163	0.745	745.1	2back	Block2	2back/STIM_011.jpg	99
815.057	0.943	942.7	2back	Block2	2back/STIM_011.jpg	100
819.942	1.026	1025.7	2back	Block2	2back/STIM_012.jpg	100
823.407	0.603	603.3	2back	Block2	2back/STIM_012.jpg	99
827.829	0.719	719.0	2back	Block2	2back/STIM_012.jpg	99
831.424	0.588	587.9	2back	Block2	2back/STIM_013.jpg	100
834.389	0.747	747.4	2back	Block2	2back/STIM_013.jpg	100
837.541	0.612	611.9	2back	Block2	2back/STIM_013.jpg	99
841.296	0.918	918.2	2back	Block2	2back/STIM_014.jpg	99
844.747	0.556	556.2	2back	Block2	2back/STIM_014.jpg	99
847.917	0.646	645.6	2back	Block2	2back/STIM_014.jpg	99
852.396	0.975	974.6	2back	Block2	2back/STIM_015.jpg	99
856.02	0.591	590.8	2back	Block2	2back/STIM_015.jpg	99
860.038	0.594	593.7	2back	Block2	2back/STIM_015.jpg	100
863.152	0.622	621.7	2back	Block2	2back/STIM_016.jpg	100
867.025	0.696	696.5	2back	Block2	2back/STIM_016.jpg	100
870.763	0.933	932.8	2back	Block2	2back/STIM_016.jpg	99
874.695	0.676	675.7	2back	Block2	2back/STIM_017.jpg	100
878.482	0.605	604.8	2back	Block2	2back/STIM_017.jpg	100
883.024	0.544	544.0	2back	Block2	2back/STIM_017.jpg	99
885.801	0.483	482.9	2back	Block2	2back/STIM_018.jpg	100
888.46	0.946	946.2	2back	Block2	2back/STIM_018.jpg	100
891.425	0.675	675.2	2back	Block2	2back/STIM_018.jpg	99
894.678	0.479	479.0	2back	Block2	2back/STIM_019.jpg	100
899.079	0.751	750.9	2back	Block2	2back/STIM_019.jpg	100
902.23	0.678	677.6	2back	Block2	2back/STIM_019.jpg	100
906.567	0.976	976.4	2back	Block2	2back/STIM_020.jpg	100
910.593	0.547	547.3	2back	Block2	2back/STIM_020.jpg	100
914.5	0.805	804.7	2back	Block2	2back/STIM_020.jpg	99
918.726	0.607	607.0	2back	Block2	2back/STIM_021.jpg	100
921.528	0.625	625.2	2back	Block2	2back/STIM_021.jpg	100
924.647	0.616	616.0	2back	Block2	2back/STIM_021.jpg	99
928.854	0.69	689.6	2back	Block2	2back/STIM_022.jpg	100
933.194	0.469	469.4	2back	Block2	2back/STIM_022.jpg	99
935.899	0.534	534.2	2back	Block2	2back/STIM_022.jpg	100
940.144	0.492	492.3	2back	Block2	2back/STIM_023.jpg	99
943.486	0.722	722.4	2back	Block2	2back/STIM_023.jpg	99
947.402	0.9	899.9	2back	Block2	2back/STIM_023.jpg	99
952.211	0.894	893.5	2back	Block2	2back/STIM_024.jpg	100
956.634	0.757	756.8	2back	Block2	2back/STIM_024.jpg	99
961.373	0.463	463.3	2back	Block2	2back/STIM_024.jpg	100
964.319	0.618	618.4	2back	Block2	2back/STIM_025.jpg	100
968.179	0.935	935.1	2back	Block2	2back/STIM_025.jpg	99
972.15	0.451	450.8	2back	Block2	2back/STIM_025.jpg	100
975.382	0.849	849.0	2back	Block2	2back/STIM_026.jpg	100
978.798	0.919	919.2	2back	Block2	2back/STIM_026.jpg	100
981.885	0.517	517.2	2back	Block2	2back/STIM_026.jpg	99
984.689	0.609	609.0	2back	Block2	2back/STIM_027.jpg	99
987.834	0.539	539.1	2back	Block2	2back/STIM_027.jpg	100
992.087	0.814	814.4	2back	Block2	2back/STIM_027.jpg	100
996.639	0.528	528.3	2back	Block2	2back/STIM_028.jpg	100
999.322	0.808	807.6	2back	Block2	2back/STIM_028.jpg	99
1003.928	0.873	872.7	2back	Block2	2back/STIM_028.jpg	100
1007.805	0.555	554.6	2back	Block2	2back/STIM_029.jpg	99
1011.592	0.648	648.0	2back	Block2	2back/STIM_029.jpg	99
1015.366	0.787	787.0	2back	Block2	2back/STIM_029.jpg	99
1019.812	1.064	1063.7	2back	Block2	2back/STIM_030.jpg	100
1024.604	0.676	675.8	2back	Block2	2back/STIM_030.jpg	100
1027.587	0.612	611.9	2back	Block2	2back/STIM_030.jpg	100
1031.766	0.938	937.5	2back	Block2	2back/STIM_031.jpg	99
1034.765	0.624	624.0	2back	Block2	2back/STIM_031.jpg	99
1038.323	0.847	847.2	2back	Block2	2back/STIM_031.jpg	100
1041.736	0.804	804.3	2back	Block2	2back/STIM_032.jpg	100
1046.32	0.57	570.0	2back	Block2	2back/STIM_032.jpg	100
1048.931	0.481	481.0	2back	Block2	2back/STIM_032.jpg	99
1052.144	0.901	900.8	2back	Block2	2back/STIM_033.jpg	100
1056.739	0.515	515.0	2back	Block2	2back/STIM_033.jpg	99
1060.671	0.585	584.7	2back	Block2	2back/STIM_033.jpg	99
1065.158	0.717	716.8	2back	Block2	2back/STIM_034.jpg	100
1069.615	0.447	446.6	2back	Block2	2back/STIM_034.jpg	99
1072.464	0.416	416.0	2back	Block2	2back/STIM_034.jpg	99
1075.431	0.518	518.1	2back	Block2	2back/STIM_035.jpg	99
1079.682	0.666	665.6	2back	Block2	2back/STIM_035.jpg	99
1083.21	0.603	602.6	2back	Block2	2back/STIM_035.jpg	100
1086.225	0.551	550.9	2back	Block2	2back/STIM_036.jpg	100
1089.141	0.911	910.8	2back	Block2	2back/STIM_036.jpg	100
1092.077	0.833	832.9	2back	Block2	2back/STIM_036.jpg	99
1096.555	0.656	656.0	2back	Block2	2back/STIM_037.jpg	100
1099.215	1.004	1003.8	2back	Block2	2back/STIM_037.jpg	99
1102.639	0.769	769.3	2back	Block2	2back/STIM_037.jpg	99
1105.474	1.041	1040.6	2back	Block2	2back/STIM_038.jpg	99
1109.309	0.724	724.0	2back	Block2	2back/STIM_038.jpg	100
1112.048	0.868	867.9	2back	Block2	2back/STIM_038.jpg	100
1115.506	0.802	802.3	2back	Block2	2back/STIM_039.jpg	99
1119.92	0.529	529.4	2back	Block2	2back/STIM_039.jpg	99
1122.98	0.856	856.1	2back	Block2	2back/STIM_039.jpg	99
1127.579	0.549	549.4	0back	Block2	0back/STIM_000.jpg	99
1130.79	0.38	379.5	0back	Block2	0back/STIM_000.jpg	100
1133.65	0.524	524.5	0back	Block2	0back/STIM_000.jpg	99
1137.91	0.7	700.5	0back	Block2	0back/STIM_001.jpg	100
1141.548	0.563	563.2	0back	Block2	0back/STIM_001.jpg	100
1145.497	0.697	696.7	0back	Block2	0back/STIM_001.jpg	100
1149.221	0.434	434.0	0back	Block2	0back/STIM_002.jpg	99
1152.947	0.59	589.6	0back	Block2	0back/STIM_002.jpg	99
1157.043	0.626	626.0	0back	Block2	0back/STIM_002.jpg	99
1159.697	0.72	719.6	0back	Block2	0back/STIM_003.jpg	100
1162.443	0.598	597.6	0back	Block2	0back/STIM_003.jpg	100
1166.511	0.589	589.4	0back	Block2	0back/STIM_003.jpg	100
1170.721	0.652	652.5	0back	Block2	0back/STIM_004.jpg	99
1175.228	0.364	363.5	0back	Block2	0back/STIM_004.jpg	99
1178.043	0.656	655.8	0back	Block2	0back/STIM_004.jpg	99
1182.687	0.521	520.9	0back	Block2	0back/STIM_005.jpg	100
1187.095	0.418	417.9	0back	Block2	0back/STIM_005.jpg	100
1190.816	0.523	523.1	0back	Block2	0back/STIM_005.jpg	100
1194.44	0.559	559.1	0back	Block2	0back/STIM_006.jpg	99
1197.179	0.697	697.0	0back	Block2	0back/STIM_006.jpg	99
1199.992	0.646	646.3	0back	Block2	0back/STIM_006.jpg	99
1203.219	0.515	514.6	0back	Block2	0back/STIM_007.jpg	99
1206.155	0.654	653.6	0back	Block2	0back/STIM_007.jpg	99
1209.447	0.622	622.0	0back	Block2	0back/STIM_007.jpg	100
1214.038	0.562	562.5	0back	Block2	0back/STIM_008.jpg	100
1217.056	0.458	458.4	0back	Block2	0back/STIM_008.jpg	99
1219.842	0.544	543.5	0back	Block2	0back/STIM_008.jpg	100
1222.503	0.689	688.8	0back	Block2	0back/STIM_009.jpg	100
1226.972	0.547	546.9	0back	Block2	0back/STIM_009.jpg	100
1230.066	0.494	493.6	0back	Block2	0back/STIM_009.jpg	100
1233.87	0.7	700.1	0back	Block2	0back/STIM_010.jpg	100
1238.234	0.415	415.2	0back	Block2	0back/STIM_010.jpg	100
1241.331	0.486	486.2	0back	Block2	0back/STIM_010.jpg	100
1245.709	0.385	384.6	0back	Block2	0back/STIM_011.jpg	99
1249.245	0.611	610.7	0back	Block2	0back/STIM_011.jpg	99
1252.774	0.482	482.2	0back	Block2	0back/STIM_011.jpg	99
1256.25	0.517	517.4	0back	Block2	0back/STIM_012.jpg	100
1258.901	0.398	398.2	0back	Block2	0back/STIM_012.jpg	100
1262.599	0.591	590.9	0back	Block2	0back/STIM_012.jpg	100
1265.354	0.458	458.0	0back	Block2	0back/STIM_013.jpg	100
1268.909	0.704	704.2	0back	Block2	0back/STIM_013.jpg	100
1273.123	0.499	499.2	0back	Block2	0back/STIM_013.jpg	99
1276.423	0.665	664.8	0back	Block2	0back/STIM_014.jpg	100
1280.079	0.643	643.0	0back	Block2	0back/STIM_014.jpg	100
1283.477	0.362	362.2	0back	Block2	0back/STIM_014.jpg	99
1286.749	0.39	389.7	0back	Block2	0back/STIM_015.jpg	100
1289.373	0.529	529.3	0back	Block2	0back/STIM_015.jpg	99
1293.374	0.43	430.1	0back	Block2	0back/STIM_015.jpg	99
1296.214	0.564	563.6	0back	Block2	0back/STIM_016.jpg	99
1299.53	0.376	375.7	0back	Block2	0back/STIM_016.jpg	100
1303.003	0.569	569.4	0back	Block2	0back/STIM_016.jpg	99
1307.569	0.513	513.1	0back	Block2	0back/STIM_017.jpg	99
1311.276	0.704	703.7	0back	Block2	0back/STIM_017.jpg	99
1315.009	0.507	507.0	0back	Block2	0back/STIM_017.jpg	99
1318.166	0.42	419.6	0back	Block2	0back/STIM_018.jpg	100
1322.335	0.492	492.1	0back	Block2	0back/STIM_018.jpg	100
1325.703	0.416	415.8	0back	Block2	0back/STIM_018.jpg	100
1328.32	0.579	579.3	0back	Block2	0back/STIM_019.jpg	100
1331.066	0.706	706.3	0back	Block2	0back/STIM_019.jpg	99
1335.539	0.505	504.6	0back	Block2	0back/STIM_019.jpg	99
1339.474	0.636	635.8	2back	Block3	2back/STIM_000.jpg	100
1344.032	0.5	500.1	2back	Block3	2back/STIM_000.jpg	99
1348.453	0.564	564.2	2back	Block3	2back/STIM_000.jpg	100
1351.132	0.382	382.1	2back	Block3	2back/STIM_001.jpg	100
1353.85	0.626	625.8	2back	Block3	2back/STIM_001.jpg	100
1357.243	0.822	822.1	2back	Block3	2back/STIM_001.jpg	99
1360.269	0.641	640.8	2back	Block3	2back/STIM_002.jpg	99
1364.844	0.505	504.9	2back	Block3	2back/STIM_002.jpg	100
1367.35	0.577	576.9	2back	Block3	2back/STIM_002.jpg	100
1371.416	0.611	611.1	2back	Block3	2back/STIM_003.jpg	100
1374.522	0.487	487.4	2back	Block3	2back/STIM_003.jpg	100
1378.822	0.715	715.2	2back	Block3	2back/STIM_003.jpg	100
1383.395	0.446	445.9	2back	Block3	2back/STIM_004.jpg	100
1386.545	0.781	781.2	2back	Block3	2back/STIM_004.jpg	99
1390.001	0.727	726.8	2back	Block3	2back/STIM_004.jpg	100
1394.09	0.439	438.8	2back	Block3	2back/STIM_005.jpg	99
1398.207	0.414	413.7	2back	Block3	2back/STIM_005.jpg	99
1401.137	0.462	461.9	2back	Block3	2back/STIM_005.jpg	99
1404.563	0.719	719.2	2back	Block3	2back/STIM_006.jpg	99
1408.113	0.741	740.8	2back	Block3	2back/STIM_006.jpg	100
1412.842	0.38	379.9	2back	Block3	2back/STIM_006.jpg	100
1415.319	0.445	444.7	2back	Block3	2back/STIM_007.jpg	100
1418.905	0.58	579.7	2back	Block3	2back/STIM_007.jpg	100
1422.66	0.533	532.9	2back	Block3	2back/STIM_007.jpg	99
1426.926	0.623	623.0	2back	Block3	2back/STIM_008.jpg	100
1431.051	0.861	861.1	2back	Block3	2back/STIM_008.jpg	100
1435.842	0.772	771.5	2back	Block3	2back/STIM_008.jpg	99
1440.227	0.505	504.9	2back	Block3	2back/STIM_009.jpg	100
1443.028	0.687	686.7	2back	Block3	2back/STIM_009.jpg	100
1447.216	0.525	524.6	2back	Block3	2back/STIM_009.jpg	99
1450.922	0.435	434.9	2back	Block3	2back/STIM_010.jpg	99
1454.863	0.626	626.1	2back	Block3	2back/STIM_010.jpg	99
1459.316	0.38	379.6	2back	Block3	2back/STIM_010.jpg	99
1463.257	0.548	547.6	2back	Block3	2back/STIM_011.jpg	99
1466.71	0.561	561.0	2back	Block3	2back/STIM_011.jpg	100
1470.859	0.755	754.9	2back	Block3	2back/STIM_011.jpg	100
1474.179	0.773	773.1	2back	Block3	2back/STIM_012.jpg	100
1477.153	0.876	876.0	2back	Block3	2back/STIM_012.jpg	100
1481.448	0.671	671.1	2back	Block3	2back/STIM_012.jpg	99
1484.729	0.56	559.6	2back	Block3	2back/STIM_013.jpg	99
1487.977	0.689	689.0	2back	Block3	2back/STIM_013.jpg	99
1492.296	0.479	478.9	2back	Block3	2back/STIM_013.jpg	99
1495.618	0.682	682.0	2back	Block3	2back/STIM_014.jpg	100
1499.264	0.402	401.7	2back	Block3	2back/STIM_014.jpg	99
1503.264	0.569	569.1	2back	Block3	2back/STIM_014.jpg	100
1506.276	0.633	633.2	2back	Block3	2back/STIM_015.jpg	100
1510.369	0.717	716.9	2back	Block3	2back/STIM_015.jpg	100
1513.697	0.411	410.6	2back	Block3	2back/STIM_015.jpg	99
1516.384	0.526	526.2	2back	Block3	2back/STIM_016.jpg	100
1519.812	0.63	629.5	2back	Block3	2back/STIM_016.jpg	99
1524.041	0.835	834.9	2back	Block3	2back/STIM_016.jpg	99
1527.844	0.644	643.5	2back	Block3	2back/STIM_017.jpg	100
1530.789	0.706	705.7	2back	Block3	2back/STIM_017.jpg	99
1534.198	0.57	569.8	2back	Block3	2back/STIM_017.jpg	99
1537.031	0.543	542.6	2back	Block3	2back/STIM_018.jpg	99
1540.338	0.768	767.7	2back	Block3	2back/STIM_018.jpg	99
1543.984	0.788	788.0	2back	Block3	2back/STIM_018.jpg	99
1547.936	0.48	480.5	2back	Block3	2back/STIM_019.jpg	99
1551.379	0.622	622.2	2back	Block3	2back/STIM_019.jpg	99
1555.652	0.717	717.4	2back	Block3	2back/STIM_019.jpg	99
1559.607	0.724	724.1	2back	Block3	2back/STIM_020.jpg	99
1563.16	0.402	402.4	2back	Block3	2back/STIM_020.jpg	99
1567.47	0.477	477.4	2back	Block3	2back/STIM_020.jpg	99
1571.796	0.816	816.5	2back	Block3	2back/STIM_021.jpg	99
1576.262	0.796	796.3	2back	Block3	2back/STIM_021.jpg	99
1580.111	0.808	807.9	2back	Block3	2back/STIM_021.jpg	99
1583.205	0.852	852.1	2back	Block3	2back/STIM_022.jpg	100
1586.09	0.856	855.5	2back	Block3	2back/STIM_022.jpg	100
1589.218	0.669	669.4	2back	Block3	2back/STIM_022.jpg	99
1592.796	0.574	574.4	2back	Block3	2back/STIM_023.jpg	100
1596.274	0.629	629.3	2back	Block3	2back/STIM_023.jpg	100
1600.436	0.7	700.5	2back	Block3	2back/STIM_023.jpg	100
1603.201	0.87	869.8	2back	Block3	2back/STIM_024.jpg	99
1607.142	0.744	743.5	2back	Block3	2back/STIM_024.jpg	100
1611.149	0.415	415.0	2back	Block3	2back/STIM_024.jpg	99
1613.766	0.536	535.8	2back	Block3	2back/STIM_025.jpg	99
1617.34	0.783	783.4	2back	Block3	2back/STIM_025.jpg	100
1621.379	0.405	405.0	2back	Block3	2back/STIM_025.jpg	100
1624.357	0.629	628.7	2back	Block3	2back/STIM_026.jpg	100
1627.143	0.494	493.5	2back	Block3	2back/STIM_026.jpg	99
1629.815	0.739	738.9	2back	Block3	2back/STIM_026.jpg	100
1632.987	0.379	378.7	2back	Block3	2back/STIM_027.jpg	100
1636.779	0.531	530.6	2back	Block3	2back/STIM_027.jpg	100
1640.411	0.522	521.9	2back	Block3	2back/STIM_027.jpg	99
1643.502	0.454	454.1	2back	Block3	2back/STIM_028.jpg	99
1647.702	0.855	854.6	2back	Block3	2back/STIM_028.jpg	100
1652.41	0.568	567.5	2back	Block3	2back/STIM_028.jpg	100
1656.125	0.84	840.3	2back	Block3	2back/STIM_029.jpg	100
1659.357	0.504	503.7	2back	Block3	2back/STIM_029.jpg	100
1663.246	0.714	714.2	2back	Block3	2back/STIM_029.jpg	99
1666.406	0.608	608.0	2back	Block3	2back/STIM_030.jpg	100
1670.09	0.379	379.4	2back	Block3	2back/STIM_030.jpg	100
1673.452	0.559	559.4	2back	Block3	2back/STIM_030.jpg	100
1676.449	0.862	861.5	2back	Block3	2back/STIM_031.jpg	100
1679.536	0.7	700.3	2back	Block3	2back/STIM_031.jpg	100
1684.028	0.562	562.0	2back	Block3	2back/STIM_031.jpg	100
1686.691	0.445	444.7	2back	Block3	2back/STIM_032.jpg	99
1690.639	0.701	701.4	2back	Block3	2back/STIM_032.jpg	100
1694.62	0.854	854.1	2back	Block3	2back/STIM_032.jpg	100
1699.225	0.509	508.9	2back	Block3	2back/STIM_033.jpg	100
1702.652	0.674	674.4	2back	Block3	2back/STIM_033.jpg	99
1705.351	0.618	618.4	2back	Block3	2back/STIM_033.jpg	100
1709.309	0.852	851.9	2back	Block3	2back/STIM_034.jpg	100
1713.862	0.776	776.4	2back	Block3	2back/STIM_034.jpg	99
1718.288	0.873	873.1	2back	Block3	2back/STIM_034.jpg	100
1721.483	0.483	483.4	2back	Block3	2back/STIM_035.jpg	99
1724.535	0.593	593.3	2back	Block3	2back/STIM_035.jpg	99
1727.888	0.537	537.2	2back	Block3	2back/STIM_035.jpg	99
1731.102	0.857	857.2	2back	Block3	2back/STIM_036.jpg	100
1734.733	0.393	392.7	2back	Block3	2back/STIM_036.jpg	100
1738.53	0.665	665.2	2back	Block3	2back/STIM_036.jpg	100
1741.782	0.728	728.5	2back	Block3	2back/STIM_037.jpg	99
1745.787	0.657	657.4	2back	Block3	2back/STIM_037.jpg	99
1748.595	0.497	497.2	2back	Block3	2back/STIM_037.jpg	100
1752.907	0.791	790.8	2back	Block3	2back/STIM_038.jpg	99
1755.805	0.747	747.3	2back	Block3	2back/STIM_038.jpg	99
1758.758	0.692	692.1	2back	Block3	2back/STIM_038.jpg	99
1761.488	0.673	673.0	2back	Block3	2back/STIM_039.jpg	99
1764.486	0.47	469.9	2back	Block3	2back/STIM_039.jpg	99
1768.591	0.612	611.5	2back	Block3	2back/STIM_039.jpg	100
1771.387	0.648	648.2	0back	Block3	0back/STIM_000.jpg	100
1774.903	0.617	616.7	0back	Block3	0back/STIM_000.jpg	99
1778.286	0.361	360.7	0back	Block3	0back/STIM_000.jpg	100
1782.613	0.64	639.5	0back	Block3	0back/STIM_001.jpg	100
1786.814	0.683	682.8	0back	Block3	0back/STIM_001.jpg	100
1790.808	0.6	600.4	0back	Block3	0back/STIM_001.jpg	99
1794.614	0.663	662.6	0back	Block3	0back/STIM_002.jpg	99
1797.671	0.65	650.0	0back	Block3	0back/STIM_002.jpg	100
1801.764	0.46	460.5	0back	Block3	0back/STIM_002.jpg	99
1804.358	0.514	513.5	0back	Block3	0back/STIM_003.jpg	99
1808.723	0.54	540.3	0back	Block3	0back/STIM_003.jpg	99
1811.767	0.605	605.0	0back	Block3	0back/STIM_003.jpg	100
1815.14	0.446	446.4	0back	Block3	0back/STIM_004.jpg	100
1817.868	0.371	371.3	0back	Block3	0back/STIM_004.jpg	99
1821.247	0.71	709.9	0back	Block3	0back/STIM_004.jpg	99
1824.159	0.478	478.0	0back	Block3	0back/STIM_005.jpg	100
1827.747	0.698	697.9	0back	Block3	0back/STIM_005.jpg	99
1830.54	0.581	580.7	0back	Block3	0back/STIM_005.jpg	99
1833.867	0.508	508.2	0back	Block3	0back/STIM_006.jpg	99
1837.734	0.673	673.2	0back	Block3	0back/STIM_006.jpg	100
1841.412	0.614	614.4	0back	Block3	0back/STIM_006.jpg	99
1844.673	0.588	588.0	0back	Block3	0back/STIM_007.jpg	100
1847.438	0.704	704.0	0back	Block3	0back/STIM_007.jpg	99
1851.899	0.658	658.2	0back	Block3	0back/STIM_007.jpg	99
1856.094	0.393	393.0	0back	Block3	0back/STIM_008.jpg	99
1858.996	0.455	455.0	0back	Block3	0back/STIM_008.jpg	99
1863.341	0.431	431.4	0back	Block3	0back/STIM_008.jpg	99
1867.057	0.626	626.2	0back	Block3	0back/STIM_009.jpg	99
1870.757	0.668	667.7	0back	Block3	0back/STIM_009.jpg	99
1873.631	0.57	570.5	0back	Block3	0back/STIM_009.jpg	99
1876.852	0.526	526.0	0back	Block3	0back/STIM_010.jpg	99
1879.953	0.398	398.1	0back	Block3	0back/STIM_010.jpg	100
1883.607	0.549	549.3	0back	Block3	0back/STIM_010.jpg	99
1887.144	0.501	501.2	0back	Block3	0back/STIM_011.jpg	100
1890.6	0.603	603.4	0back	Block3	0back/STIM_011.jpg	100
1894.402	0.362	362.1	0back	Block3	0back/STIM_011.jpg	100
1897.352	0.456	455.5	0back	Block3	0back/STIM_012.jpg	99
1900.117	0.611	610.8	0back	Block3	0back/STIM_012.jpg	100
1903.042	0.616	615.8	0back	Block3	0back/STIM_012.jpg	99
1906.626	0.373	373.1	0back	Block3	0back/STIM_013.jpg	99
1910.063	0.404	404.3	0back	Block3	0back/STIM_013.jpg	100
1912.938	0.423	422.7	0back	Block3	0back/STIM_013.jpg	99
1917.231	0.423	422.6	0back	Block3	0back/STIM_014.jpg	100
1919.984	0.684	684.5	0back	Block3	0back/STIM_014.jpg	100
1923.733	0.526	526.2	0back	Block3	0back/STIM_014.jpg	99
1927.349	0.458	458.4	0back	Block3	0back/STIM_015.jpg	99
1930.927	0.409	409.2	0back	Block3	0back/STIM_015.jpg	99
1934.32	0.45	449.8	0back	Block3	0back/STIM_015.jpg	100
1938.573	0.366	366.1	0back	Block3	0back/STIM_016.jpg	100
1941.969	0.625	624.8	0back	Block3	0back/STIM_016.jpg	99
1946.301	0.586	586.4	0back	Block3	0back/STIM_016.jpg	100
1949.031	0.694	693.7	0back	Block3	0back/STIM_017.jpg	100
1953.18	0.718	717.6	0back	Block3	0back/STIM_017.jpg	100
1957.094	0.593	593.1	0back	Block3	0back/STIM_017.jpg	99
1960.586	0.67	669.8	0back	Block3	0back/STIM_018.jpg	99
1964.475	0.362	361.7	0back	Block3	0back/STIM_018.jpg	99
1967.22	0.578	578.1	0back	Block3	0back/STIM_018.jpg	100
1971.214	0.51	510.2	0back	Block3	0back/STIM_019.jpg	99
1974.901	0.367	366.9	0back	Block3	0back/STIM_019.jpg	99
1977.349	0.679	679.1	0back	Block3	0back/STIM_019.jpg	100
1981.287	0.854	854.0	2back	Block4	2back/STIM_000.jpg	99
1986.05	0.449	449.3	2back	Block4	2back/STIM_000.jpg	99
1988.568	0.854	853.6	2back	Block4	2back/STIM_000.jpg	99
1991.514	0.419	418.6	2back	Block4	2back/STIM_001.jpg	100
1995.886	0.547	546.9	2back	Block4	2back/STIM_001.jpg	100
1999.455	0.816	815.5	2back	Block4	2back/STIM_001.jpg	99
2002.411	0.58	579.7	2back	Block4	2back/STIM_002.jpg	99
2006.715	0.483	482.8	2back	Block4	2back/STIM_002.jpg	99
2010.498	0.562	561.9	2back	Block4	2back/STIM_002.jpg	99
2014.229	0.469	469.4	2back	Block4	2back/STIM_003.jpg	99
2018.6	0.591	591.0	2back	Block4	2back/STIM_003.jpg	99
2022.356	0.403	403.0	2back	Block4	2back/STIM_003.jpg	100
2025.993	0.653	652.6	2back	Block4	2back/STIM_004.jpg	100
2029.453	0.542	542.5	2back	Block4	2back/STIM_004.jpg	100
2032.045	0.837	836.8	2back	Block4	2back/STIM_004.jpg	99
2036.246	0.602	602.0	2back	Block4	2back/STIM_005.jpg	100
2040.485	0.448	447.8	2back	Block4	2back/STIM_005.jpg	100
2044.925	0.586	586.4	2back	Block4	2back/STIM_005.jpg	99
2049.411	0.881	881.1	2back	Block4	2back/STIM_006.jpg	99
2053.822	0.702	701.7	2back	Block4	2back/STIM_006.jpg	100
2058.327	0.524	523.7	2back	Block4	2back/STIM_006.jpg	100
2061.277	0.567	566.8	2back	Block4	2back/STIM_007.jpg	100
2064.375	0.474	474.2	2back	Block4	2back/STIM_007.jpg	100
2067.383	0.534	534.4	2back	Block4	2back/STIM_007.jpg	100
2070.38	0.856	855.5	2back	Block4	2back/STIM_008.jpg	100
2074.782	0.446	446.0	2back	Block4	2back/STIM_008.jpg	99
2077.914	0.814	813.8	2back	Block4	2back/STIM_008.jpg	99
2081.855	0.848	848.5	2back	Block4	2back/STIM_009.jpg	100
2085.795	0.453	453.4	2back	Block4	2back/STIM_009.jpg	100
2088.593	0.616	615.6	2back	Block4	2back/STIM_009.jpg	100
2092.386	0.604	604.5	2back	Block4	2back/STIM_010.jpg	99
2095.341	0.576	575.8	2back	Block4	2back/STIM_010.jpg	100
2099.147	0.629	628.7	2back	Block4	2back/STIM_010.jpg	99
2102.226	0.447	446.9	2back	Block4	2back/STIM_011.jpg	100
2105.019	0.583	582.6	2back	Block4	2back/STIM_011.jpg	99
2108.874	0.386	386.4	2back	Block4	2back/STIM_011.jpg	99
2112.315	0.724	723.6	2back	Block4	2back/STIM_012.jpg	100
2115.358	0.734	733.5	2back	Block4	2back/STIM_012.jpg	99
2119.776	0.49	489.8	2back	Block4	2back/STIM_012.jpg	100
2124.181	0.417	417.0	2back	Block4	2back/STIM_013.jpg	99
2128.017	0.744	744.4	2back	Block4	2back/STIM_013.jpg	99
2132.003	0.762	762.2	2back	Block4	2back/STIM_013.jpg	100
2135.577	0.659	659.2	2back	Block4	2back/STIM_014.jpg	100
2138.781	0.49	490.4	2back	Block4	2back/STIM_014.jpg	100
2141.682	0.858	858.3	2back	Block4	2back/STIM_014.jpg	99
2145.223	0.4	400.1	2back	Block4	2back/STIM_015.jpg	99
2148.022	0.385	384.6	2back	Block4	2back/STIM_015.jpg	100
2152.131	0.84	839.8	2back	Block4	2back/STIM_015.jpg	99
2156.211	0.719	719.2	2back	Block4	2back/STIM_016.jpg	100
2160.269	0.654	653.9	2back	Block4	2back/STIM_016.jpg	99
2163.514	0.4	400.4	2back	Block4	2back/STIM_016.jpg	100
2166.408	0.777	776.7	2back	Block4	2back/STIM_017.jpg	99
2170.397	0.482	481.7	2back	Block4	2back/STIM_017.jpg	99
2173.261	0.54	539.8	2back	Block4	2back/STIM_017.jpg	100
2176.25	0.502	501.8	2back	Block4	2back/STIM_018.jpg	100
2179.456	0.718	718.2	2back	Block4	2back/STIM_018.jpg	100
2183.218	0.726	725.7	2back	Block4	2back/STIM_018.jpg	100
2186.993	0.779	778.7	2back	Block4	2back/STIM_019.jpg	99
2189.945	0.598	598.0	2back	Block4	2back/STIM_019.jpg	100
2192.977	0.556	556.4	2back	Block4	2back/STIM_019.jpg	100
2195.699	0.779	778.9	2back	Block4	2back/STIM_020.jpg	100
2199.536	0.462	462.4	2back	Block4	2back/STIM_020.jpg	100
2203.371	0.635	634.9	2back	Block4	2back/STIM_020.jpg	99
2207.292	0.713	713.3	2back	Block4	2back/STIM_021.jpg	100
2210.048	0.474	474.3	2back	Block4	2back/STIM_021.jpg	99
2214.298	0.611	611.1	2back	Block4	2back/STIM_021.jpg	100
2217.762	0.53	530.0	2back	Block4	2back/STIM_022.jpg	99
2220.301	0.392	392.2	2back	Block4	2back/STIM_022.jpg	100
2223.955	0.773	773.4	2back	Block4	2back/STIM_022.jpg	100
2227.497	0.751	751.1	2back	Block4	2back/STIM_023.jpg	100
2230.344	0.696	696.1	2back	Block4	2back/STIM_023.jpg	99
2234.995	0.712	712.0	2back	Block4	2back/STIM_023.jpg	99
2239.574	0.458	458.0	2back	Block4	2back/STIM_024.jpg	99
2242.904	0.54	540.0	2back	Block4	2back/STIM_024.jpg	99
2245.541	0.501	501.1	2back	Block4	2back/STIM_024.jpg	99
2249.016	0.716	715.8	2back	Block4	2back/STIM_025.jpg	99
2251.766	0.706	705.8	2back	Block4	2back/STIM_025.jpg	99
2256.346	0.43	429.5	2back	Block4	2back/STIM_025.jpg	99
2260.146	0.74	740.0	2back	Block4	2back/STIM_026.jpg	99
2263.166	0.483	482.9	2back	Block4	2back/STIM_026.jpg	99
2266.746	0.782	782.1	2back	Block4	2back/STIM_026.jpg	100
2271.082	0.86	859.7	2back	Block4	2back/STIM_027.jpg	100
2274.26	0.593	593.3	2back	Block4	2back/STIM_027.jpg	99
2277.904	0.805	805.3	2back	Block4	2back/STIM_027.jpg	100
2281.449	0.697	697.2	2back	Block4	2back/STIM_028.jpg	100
2284.943	0.866	866.1	2back	Block4	2back/STIM_028.jpg	99
2288.861	0.544	544.4	2back	Block4	2back/STIM_028.jpg	100
2291.955	0.399	399.0	2back	Block4	2back/STIM_029.jpg	100
2296.012	0.64	639.8	2back	Block4	2back/STIM_029.jpg	100
2300.172	0.516	515.9	2back	Block4	2back/STIM_029.jpg	100
2303.46	0.651	650.9	2back	Block4	2back/STIM_030.jpg	100
2307.523	0.394	394.1	2back	Block4	2back/STIM_030.jpg	100
2310.889	0.612	611.8	2back	Block4	2back/STIM_030.jpg	100
2314.376	0.692	692.0	2back	Block4	2back/STIM_031.jpg	99
2318.614	0.739	739.2	2back	Block4	2back/STIM_031.jpg	99
2323.201	0.806	806.0	2back	Block4	2back/STIM_031.jpg	99
2326.506	0.754	753.8	2back	Block4	2back/STIM_032.jpg	99
2329.419	0.806	806.1	2back	Block4	2back/STIM_032.jpg	100
2333.059	0.506	505.8	2back	Block4	2back/STIM_032.jpg	99
2336.613	0.564	563.7	2back	Block4	2back/STIM_033.jpg	100
2340.745	0.658	658.4	2back	Block4	2back/STIM_033.jpg	99
2344.181	0.679	678.8	2back	Block4	2back/STIM_033.jpg	99
2348.409	0.541	541.3	2back	Block4	2back/STIM_034.jpg	99
2352.697	0.484	484.5	2back	Block4	2back/STIM_034.jpg	99
2356.226	0.389	389.1	2back	Block4	2back/STIM_034.jpg	100
2359.615	0.398	398.3	2back	Block4	2back/STIM_035.jpg	99
2363.607	0.486	486.3	2back	Block4	2back/STIM_035.jpg	100
2367.756	0.682	682.0	2back	Block4	2back/STIM_035.jpg	99
2370.535	0.605	604.6	2back	Block4	2back/STIM_036.jpg	100
2373.186	0.873	873.4	2back	Block4	2back/STIM_036.jpg	99
2376.411	0.626	625.7	2back	Block4	2back/STIM_036.jpg	100
2379.135	0.45	449.5	2back	Block4	2back/STIM_037.jpg	100
2382.27	0.717	717.3	2back	Block4	2back/STIM_037.jpg	100
2385.642	0.43	429.7	2back	Block4	2back/STIM_037.jpg	100
2389.45	0.61	609.5	2back	Block4	2back/STIM_038.jpg	100
2392.428	0.776	775.7	2back	Block4	2back/STIM_038.jpg	99
2395.903	0.88	880.5	2back	Block4	2back/STIM_038.jpg	100
2400.777	0.382	381.5	2back	Block4	2back/STIM_039.jpg	99
2403.38	0.45	450.0	2back	Block4	2back/STIM_039.jpg	100
2407.271	0.714	714.4	2back	Block4	2back/STIM_039.jpg	100
2410.088	0.593	593.2	0back	Block4	0back/STIM_000.jpg	100
2414.398	0.389	388.8	0back	Block4	0back/STIM_000.jpg	100
2418.467	0.497	496.9	0back	Block4	0back/STIM_000.jpg	100
2421.694	0.464	464.0	0back	Block4	0back/STIM_001.jpg	99
2424.839	0.52	519.9	0back	Block4	0back/STIM_001.jpg	100
2427.951	0.371	371.2	0back	Block4	0back/STIM_001.jpg	99
2430.842	0.414	414.4	0back	Block4	0back/STIM_002.jpg	99
2434.963	0.371	370.7	0back	Block4	0back/STIM_002.jpg	99
2437.373	0.428	427.8	0back	Block4	0back/STIM_002.jpg	100
2441.399	0.591	591.3	0back	Block4	0back/STIM_003.jpg	99
2445.333	0.501	501.2	0back	Block4	0back/STIM_003.jpg	100
2448.979	0.497	497.3	0back	Block4	0back/STIM_003.jpg	99
2453.262	0.503	503.2	0back	Block4	0back/STIM_004.jpg	99
2456.607	0.576	576.2	0back	Block4	0back/STIM_004.jpg	100
2459.266	0.654	653.8	0back	Block4	0back/STIM_004.jpg	99
2462.041	0.41	409.9	0back	Block4	0back/STIM_005.jpg	100
2466.171	0.653	652.8	0back	Block4	0back/STIM_005.jpg	100
2470.341	0.368	368.5	0back	Block4	0back/STIM_005.jpg	99
2473.047	0.693	693.1	0back	Block4	0back/STIM_006.jpg	100
2476.391	0.706	705.5	0back	Block4	0back/STIM_006.jpg	99
2480.127	0.516	516.5	0back	Block4	0back/STIM_006.jpg	99
2483.181	0.478	478.5	0back	Block4	0back/STIM_007.jpg	99
2487.533	0.625	624.9	0back	Block4	0back/STIM_007.jpg	100
2492.014	0.71	710.4	0back	Block4	0back/STIM_007.jpg	99
2495.155	0.444	444.0	0back	Block4	0back/STIM_008.jpg	99
2498.664	0.52	520.3	0back	Block4	0back/STIM_008.jpg	99
2503.161	0.577	577.4	0back	Block4	0back/STIM_008.jpg	99
2507.102	0.509	509.2	0back	Block4	0back/STIM_009.jpg	99
2509.619	0.714	714.0	0back	Block4	0back/STIM_009.jpg	99
2513.295	0.686	686.1	0back	Block4	0back/STIM_009.jpg	100
2517.258	0.621	621.4	0back	Block4	0back/STIM_010.jpg	100
2521.581	0.611	611.0	0back	Block4	0back/STIM_010.jpg	99
2524.371	0.63	630.5	0back	Block4	0back/STIM_010.jpg	100
2527.406	0.611	610.6	0back	Block4	0back/STIM_011.jpg	99
2531.643	0.657	656.7	0back	Block4	0back/STIM_011.jpg	100
2535.379	0.384	383.5	0back	Block4	0back/STIM_011.jpg	100
2539.687	0.436	435.6	0back	Block4	0back/STIM_012.jpg	100
2543.237	0.402	401.9	0back	Block4	0back/STIM_012.jpg	99
2546.779	0.627	626.7	0back	Block4	0back/STIM_012.jpg	99
2549.437	0.692	692.3	0back	Block4	0back/STIM_013.jpg	99
2553.095	0.471	471.0	0back	Block4	0back/STIM_013.jpg	99
2557.226	0.673	673.4	0back	Block4	0back/STIM_013.jpg	99
2560.944	0.434	434.0	0back	Block4	0back/STIM_014.jpg	99
2564.672	0.644	644.4	0back	Block4	0back/STIM_014.jpg	100
2567.917	0.642	642.2	0back	Block4	0back/STIM_014.jpg	99
2571.504	0.647	646.7	0back	Block4	0back/STIM_015.jpg	99
2575.244	0.447	447.0	0back	Block4	0back/STIM_015.jpg	99
2577.955	0.706	706.4	0back	Block4	0back/STIM_015.jpg	100
2582.29	0.582	582.4	0back	Block4	0back/STIM_016.jpg	100
2586.56	0.461	461.2	0back	Block4	0back/STIM_016.jpg	99
2590.7	0.643	642.6	0back	Block4	0back/STIM_016.jpg	100
2593.898	0.678	677.6	0back	Block4	0back/STIM_017.jpg	99
2598.089	0.591	591.3	0back	Block4	0back/STIM_017.jpg	100
2601.904	0.558	558.3	0back	Block4	0back/STIM_017.jpg	100
2605.639	0.455	455.1	0back	Block4	0back/STIM_018.jpg	99
2608.444	0.452	451.9	0back	Block4	0back/STIM_018.jpg	99
2611.56	0.547	546.7	0back	Block4	0back/STIM_018.jpg	99
2615.534	0.599	599.3	0back	Block4	0back/STIM_019.jpg	99
2618.36	0.604	604.2	0back	Block4	0back/STIM_019.jpg	99
2622.443	0.49	490.4	0back	Block4	0back/STIM_019.jpg	99
