onset	duration	response_time_ms	trial_type	learning_stage	stimulus	response_port
0.0	1.038	1038.3	incongruent	Block1	incongruent/STIM_000.jpg	99
5.005	0.594	594.1	incongruent	Block1	incongruent/STIM_000.jpg	100
8.48	0.54	540.5	incongruent	Block1	incongruent/STIM_000.jpg	99
11.504	0.599	598.7	incongruent	Block1	incongruent/STIM_000.jpg	99
15.602	0.98	979.9	incongruent	Block1	incongruent/STIM_000.jpg	100
19.218	1.183	1182.8	incongruent	Block1	incongruent/STIM_001.jpg	100
23.853	0.6	599.8	incongruent	Block1	incongruent/STIM_001.jpg	99
27.035	0.73	729.5	incongruent	Block1	incongruent/STIM_001.jpg	100
29.823	0.552	552.4	incongruent	Block1	incongruent/STIM_001.jpg	99
33.865	0.916	916.0	incongruent	Block1	incongruent/STIM_001.jpg	99
37.994	0.61	609.6	incongruent	Block1	incongruent/STIM_002.jpg	99
42.191	0.808	807.9	incongruent	Block1	incongruent/STIM_002.jpg	100
46.655	0.837	836.6	incongruent	Block1	incongruent/STIM_002.jpg	99
50.703	0.879	878.8	incongruent	Block1	incongruent/STIM_002.jpg	99
54.436	0.742	742.5	incongruent	Block1	incongruent/STIM_002.jpg	100
58.887	1.179	1178.7	incongruent	Block1	incongruent/STIM_003.jpg	100
63.812	0.788	788.1	incongruent	Block1	incongruent/STIM_003.jpg	99
66.836	0.866	866.5	incongruent	Block1	incongruent/STIM_003.jpg	99
69.793	0.937	937.2	incongruent	Block1	incongruent/STIM_003.jpg	100
73.961	0.627	627.4	incongruent	Block1	incongruent/STIM_003.jpg	99
78.253	1.042	1041.6	incongruent	Block1	incongruent/STIM_004.jpg	99
81.587	1.062	1061.5	incongruent	Block1	incongruent/STIM_004.jpg	100
85.433	0.937	937.4	incongruent	Block1	incongruent/STIM_004.jpg	100
88.714	0.828	828.3	incongruent	Block1	incongruent/STIM_004.jpg	100
91.757	0.912	911.6	incongruent	Block1	incongruent/STIM_004.jpg	99
94.898	0.708	708.4	incongruent	Block1	incongruent/STIM_005.jpg	100
97.944	0.728	727.6	incongruent	Block1	incongruent/STIM_005.jpg	99
101.199	1.079	1079.0	incongruent	Block1	incongruent/STIM_005.jpg	100
106.215	0.57	569.6	incongruent	Block1	incongruent/STIM_005.jpg	100
109.577	0.501	500.9	incongruent	Block1	incongruent/STIM_005.jpg	99
113.487	1.026	1026.1	incongruent	Block1	incongruent/STIM_006.jpg	100
117.716	0.55	550.5	incongruent	Block1	incongruent/STIM_006.jpg	99
121.805	0.579	579.1	incongruent	Block1	incongruent/STIM_006.jpg	100
124.45	0.651	650.6	incongruent	Block1	incongruent/STIM_006.jpg	100
127.321	0.481	481.4	incongruent	Block1	incongruent/STIM_006.jpg	100
131.291	0.83	830.5	incongruent	Block1	incongruent/STIM_007.jpg	100
135.19	0.868	867.9	incongruent	Block1	incongruent/STIM_007.jpg	99
139.31	0.711	711.3	incongruent	Block1	incongruent/STIM_007.jpg	100
142.272	0.54	540.3	incongruent	Block1	incongruent/STIM_007.jpg	100
146.515	0.542	542.1	incongruent	Block1	incongruent/STIM_007.jpg	99
150.524	1.208	1207.6	incongruent	Block1	incongruent/STIM_008.jpg	99
154.72	0.585	585.0	incongruent	Block1	incongruent/STIM_008.jpg	99
158.059	1.036	1036.0	incongruent	Block1	incongruent/STIM_008.jpg	99
162.546	0.956	955.6	incongruent	Block1	incongruent/STIM_008.jpg	100
165.625	0.501	500.6	incongruent	Block1	incongruent/STIM_008.jpg	100
168.852	0.892	892.1	incongruent	Block1	incongruent/STIM_009.jpg	99
172.114	1.029	1028.8	incongruent	Block1	incongruent/STIM_009.jpg	99
176.474	0.728	728.2	incongruent	Block1	incongruent/STIM_009.jpg	100
180.197	0.695	695.4	incongruent	Block1	incongruent/STIM_009.jpg	100
184.048	0.807	807.3	incongruent	Block1	incongruent/STIM_009.jpg	100
187.301	1.208	1208.3	incongruent	Block1	incongruent/STIM_010.jpg	99
191.11	1.082	1082.0	incongruent	Block1	incongruent/STIM_010.jpg	99
194.708	1.057	1057.2	incongruent	Block1	incongruent/STIM_010.jpg	99
198.303	0.746	746.4	incongruent	Block1	incongruent/STIM_010.jpg	99
201.799	0.877	877.0	incongruent	Block1	incongruent/STIM_010.jpg	100
205.431	0.964	963.5	incongruent	Block1	incongruent/STIM_011.jpg	99
209.688	1.11	1110.1	incongruent	Block1	incongruent/STIM_011.jpg	100
214.126	0.934	933.6	incongruent	Block1	incongruent/STIM_011.jpg	100
218.303	0.528	528.4	incongruent	Block1	incongruent/STIM_011.jpg	99
221.87	0.601	601.4	incongruent	Block1	incongruent/STIM_011.jpg	99
226.018	0.949	949.3	incongruent	Block1	incongruent/STIM_012.jpg	100
229.212	0.904	903.9	incongruent	Block1	incongruent/STIM_012.jpg	99
232.225	0.788	788.2	incongruent	Block1	incongruent/STIM_012.jpg	100
236.141	0.698	698.5	incongruent	Block1	incongruent/STIM_012.jpg	100
240.826	0.76	760.3	incongruent	Block1	incongruent/STIM_012.jpg	100
245.557	0.749	748.9	incongruent	Block1	incongruent/STIM_013.jpg	99
250.191	0.734	733.7	incongruent	Block1	incongruent/STIM_013.jpg	100
254.18	0.65	649.6	incongruent	Block1	incongruent/STIM_013.jpg	100
257.768	0.802	802.4	incongruent	Block1	incongruent/STIM_013.jpg	100
262.284	0.935	935.3	incongruent	Block1	incongruent/STIM_013.jpg	99
265.284	0.837	836.7	incongruent	Block1	incongruent/STIM_014.jpg	99
269.182	1.107	1106.8	incongruent	Block1	incongruent/STIM_014.jpg	99
272.499	0.703	702.8	incongruent	Block1	incongruent/STIM_014.jpg	99
276.25	0.616	616.4	incongruent	Block1	incongruent/STIM_014.jpg	100
279.35	0.812	811.8	incongruent	Block1	incongruent/STIM_014.jpg	100
282.879	1.168	1168.0	incongruent	Block1	incongruent/STIM_015.jpg	100
286.678	1.05	1050.4	incongruent	Block1	incongruent/STIM_015.jpg	100
291.386	0.545	545.1	incongruent	Block1	incongruent/STIM_015.jpg	99
295.22	0.942	941.8	incongruent	Block1	incongruent/STIM_015.jpg	100
299.301	0.744	744.5	incongruent	Block1	incongruent/STIM_015.jpg	99
303.041	0.685	685.0	incongruent	Block1	incongruent/STIM_016.jpg	99
306.691	1.019	1018.9	incongruent	Block1	incongruent/STIM_016.jpg	100
310.462	1.052	1052.4	incongruent	Block1	incongruent/STIM_016.jpg	99
314.903	0.934	934.4	incongruent	Block1	incongruent/STIM_016.jpg	100
318.537	0.748	747.6	incongruent	Block1	incongruent/STIM_016.jpg	100
321.607	0.774	773.6	incongruent	Block1	incongruent/STIM_017.jpg	99
324.658	0.618	618.1	incongruent	Block1	incongruent/STIM_017.jpg	99
327.906	0.886	886.0	incongruent	Block1	incongruent/STIM_017.jpg	100
332.61	1.011	1010.6	incongruent	Block1	incongruent/STIM_017.jpg	99
337.047	0.695	694.8	incongruent	Block1	incongruent/STIM_017.jpg	99
340.578	0.68	680.5	incongruent	Block1	incongruent/STIM_018.jpg	99
343.574	0.895	894.7	incongruent	Block1	incongruent/STIM_018.jpg	99
347.945	0.61	609.7	incongruent	Block1	incongruent/STIM_018.jpg	99
352.34	0.995	995.2	incongruent	Block1	incongruent/STIM_018.jpg	100
356.304	0.819	818.6	incongruent	Block1	incongruent/STIM_018.jpg	99
360.423	1.0	1000.0	incongruent	Block1	incongruent/STIM_019.jpg	99
364.943	0.605	605.2	incongruent	Block1	incongruent/STIM_019.jpg	99
367.814	0.547	546.7	incongruent	Block1	incongruent/STIM_019.jpg	99
372.121	0.802	802.4	incongruent	Block1	incongruent/STIM_019.jpg	100
376.177	0.865	865.2	incongruent	Block1	incongruent/STIM_019.jpg	100
379.802	1.0	1000.1	incongruent	Block1	incongruent/STIM_020.jpg	99
383.969	0.645	644.8	incongruent	Block1	incongruent/STIM_020.jpg	100
386.771	0.931	931.2	incongruent	Block1	incongruent/STIM_020.jpg	99
390.26	0.87	869.7	incongruent	Block1	incongruent/STIM_020.jpg	100
394.665	0.736	736.3	incongruent	Block1	incongruent/STIM_020.jpg	100
398.142	1.165	1164.8	incongruent	Block1	incongruent/STIM_021.jpg	99
402.859	0.571	570.7	incongruent	Block1	incongruent/STIM_021.jpg	99
407.099	0.77	770.2	incongruent	Block1	incongruent/STIM_021.jpg	99
409.927	0.814	814.1	incongruent	Block1	incongruent/STIM_021.jpg	99
414.082	0.716	716.0	incongruent	Block1	incongruent/STIM_021.jpg	99
418.539	0.768	768.5	incongruent	Block1	incongruent/STIM_022.jpg	99
423.017	0.982	982.5	incongruent	Block1	incongruent/STIM_022.jpg	100
426.391	0.652	651.8	incongruent	Block1	incongruent/STIM_022.jpg	99
430.52	0.777	777.0	incongruent	Block1	incongruent/STIM_022.jpg	99
433.631	0.5	499.6	incongruent	Block1	incongruent/STIM_022.jpg	100
437.899	1.109	1109.2	incongruent	Block1	incongruent/STIM_023.jpg	99
442.197	0.688	688.5	incongruent	Block1	incongruent/STIM_023.jpg	100
445.192	0.781	780.6	incongruent	Block1	incongruent/STIM_023.jpg	100
448.462	0.562	562.0	incongruent	Block1	incongruent/STIM_023.jpg	99
452.061	0.838	838.4	incongruent	Block1	incongruent/STIM_023.jpg	100
455.285	1.228	1227.8	incongruent	Block1	incongruent/STIM_024.jpg	99
460.096	1.133	1133.1	incongruent	Block1	incongruent/STIM_024.jpg	99
464.299	0.601	600.7	incongruent	Block1	incongruent/STIM_024.jpg	100
467.199	0.946	946.5	incongruent	Block1	incongruent/STIM_024.jpg	99
471.659	0.857	857.0	incongruent	Block1	incongruent/STIM_024.jpg	100
475.034	1.226	1225.6	incongruent	Block1	incongruent/STIM_025.jpg	99
478.613	0.986	986.2	incongruent	Block1	incongruent/STIM_025.jpg	100
481.991	0.75	749.5	incongruent	Block1	incongruent/STIM_025.jpg	99
485.186	0.709	709.0	incongruent	Block1	incongruent/STIM_025.jpg	100
489.59	0.499	499.0	incongruent	Block1	incongruent/STIM_025.jpg	100
493.533	1.044	1043.5	incongruent	Block1	incongruent/STIM_026.jpg	100
496.647	0.89	890.2	incongruent	Block1	incongruent/STIM_026.jpg	100
501.453	0.88	880.1	incongruent	Block1	incongruent/STIM_026.jpg	99
504.985	0.884	883.9	incongruent	Block1	incongruent/STIM_026.jpg	100
509.03	0.774	773.7	incongruent	Block1	incongruent/STIM_026.jpg	100
512.575	0.687	687.4	incongruent	Block1	incongruent/STIM_027.jpg	100
515.847	0.579	579.2	incongruent	Block1	incongruent/STIM_027.jpg	100
519.893	0.813	812.6	incongruent	Block1	incongruent/STIM_027.jpg	99
523.354	0.774	773.9	incongruent	Block1	incongruent/STIM_027.jpg	99
526.581	0.628	627.6	incongruent	Block1	incongruent/STIM_027.jpg	99
530.875	1.186	1185.9	incongruent	Block1	incongruent/STIM_028.jpg	99
534.831	0.626	626.0	incongruent	Block1	incongruent/STIM_028.jpg	100
539.296	0.688	688.2	incongruent	Block1	incongruent/STIM_028.jpg	99
542.062	0.594	594.5	incongruent	Block1	incongruent/STIM_028.jpg	99
546.074	0.889	889.1	incongruent	Block1	incongruent/STIM_028.jpg	100
549.096	0.857	857.1	incongruent	Block1	incongruent/STIM_029.jpg	100
553.567	1.101	1100.7	incongruent	Block1	incongruent/STIM_029.jpg	99
558.201	1.045	1045.1	incongruent	Block1	incongruent/STIM_029.jpg	100
561.528	0.986	985.9	incongruent	Block1	incongruent/STIM_029.jpg	100
566.143	0.529	528.9	incongruent	Block1	incongruent/STIM_029.jpg	100
570.388	0.725	724.7	congruent	Block1	congruent/STIM_000.jpg	99
573.166	0.609	609.4	congruent	Block1	congruent/STIM_000.jpg	100
576.718	0.686	685.5	congruent	Block1	congruent/STIM_000.jpg	99
580.073	0.714	714.4	congruent	Block1	congruent/STIM_000.jpg	99
584.013	0.499	499.3	congruent	Block1	congruent/STIM_000.jpg	100
586.874	0.566	566.5	congruent	Block1	congruent/STIM_001.jpg	99
589.91	0.429	428.8	congruent	Block1	congruent/STIM_001.jpg	99
592.84	0.427	426.6	congruent	Block1	congruent/STIM_001.jpg	100
597.182	0.414	414.3	congruent	Block1	congruent/STIM_001.jpg	99
601.149	0.479	479.4	congruent	Block1	congruent/STIM_001.jpg	100
605.439	0.642	641.6	congruent	Block1	congruent/STIM_002.jpg	100
608.571	0.72	720.0	congruent	Block1	congruent/STIM_002.jpg	100
611.698	0.522	522.3	congruent	Block1	congruent/STIM_002.jpg	99
615.629	0.468	468.2	congruent	Block1	congruent/STIM_002.jpg	99
618.94	0.523	523.1	congruent	Block1	congruent/STIM_002.jpg	100
623.216	0.655	655.3	congruent	Block1	congruent/STIM_003.jpg	100
627.867	0.692	692.3	congruent	Block1	congruent/STIM_003.jpg	100
631.993	0.716	716.3	congruent	Block1	congruent/STIM_003.jpg	100
635.454	0.423	423.1	congruent	Block1	congruent/STIM_003.jpg	100
639.601	0.444	443.6	congruent	Block1	congruent/STIM_003.jpg	99
642.481	0.683	682.6	congruent	Block1	congruent/STIM_004.jpg	100
645.754	0.643	642.9	congruent	Block1	congruent/STIM_004.jpg	100
649.259	0.53	529.9	congruent	Block1	congruent/STIM_004.jpg	99
653.035	0.651	651.1	congruent	Block1	congruent/STIM_004.jpg	100
656.794	0.486	485.9	congruent	Block1	congruent/STIM_004.jpg	100
660.516	0.659	659.0	congruent	Block1	congruent/STIM_005.jpg	100
663.568	0.671	670.7	congruent	Block1	congruent/STIM_005.jpg	100
667.14	0.481	480.6	congruent	Block1	congruent/STIM_005.jpg	100
671.232	0.522	521.9	congruent	Block1	congruent/STIM_005.jpg	99
675.449	0.736	736.0	congruent	Block1	congruent/STIM_005.jpg	100
679.941	0.663	663.1	congruent	Block1	congruent/STIM_006.jpg	100
683.189	0.421	420.9	congruent	Block1	congruent/STIM_006.jpg	100
687.203	0.427	426.8	congruent	Block1	congruent/STIM_006.jpg	99
691.209	0.512	512.1	congruent	Block1	congruent/STIM_006.jpg	99
694.415	0.678	678.4	congruent	Block1	congruent/STIM_006.jpg	100
698.008	0.734	734.0	congruent	Block1	congruent/STIM_007.jpg	99
701.182	0.581	581.0	congruent	Block1	congruent/STIM_007.jpg	99
704.927	0.56	560.0	congruent	Block1	congruent/STIM_007.jpg	99
708.819	0.69	690.0	congruent	Block1	congruent/STIM_007.jpg	99
713.491	0.704	704.2	congruent	Block1	congruent/STIM_007.jpg	100
717.148	0.628	628.0	congruent	Block1	congruent/STIM_008.jpg	99
720.483	0.607	606.7	congruent	Block1	congruent/STIM_008.jpg	100
724.488	0.466	465.9	congruent	Block1	congruent/STIM_008.jpg	99
728.471	0.599	599.0	congruent	Block1	congruent/STIM_008.jpg	100
732.944	0.59	590.3	congruent	Block1	congruent/STIM_008.jpg	99
736.033	0.423	423.2	congruent	Block1	congruent/STIM_009.jpg	99
740.169	0.555	555.3	congruent	Block1	congruent/STIM_009.jpg	100
742.929	0.567	567.2	congruent	Block1	congruent/STIM_009.jpg	100
746.286	0.626	626.1	congruent	Block1	congruent/STIM_009.jpg	99
749.344	0.477	477.4	congruent	Block1	congruent/STIM_009.jpg	99
753.648	0.437	436.9	congruent	Block1	congruent/STIM_010.jpg	99
757.7	0.497	497.0	congruent	Block1	congruent/STIM_010.jpg	99
761.86	0.677	676.7	congruent	Block1	congruent/STIM_010.jpg	99
764.802	0.726	725.9	congruent	Block1	congruent/STIM_010.jpg	100
767.679	0.725	724.9	congruent	Block1	congruent/STIM_010.jpg	99
772.305	0.618	617.9	congruent	Block1	congruent/STIM_011.jpg	100
775.585	0.479	479.1	congruent	Block1	congruent/STIM_011.jpg	99
779.124	0.442	442.2	congruent	Block1	congruent/STIM_011.jpg	100
781.868	0.507	507.2	congruent	Block1	congruent/STIM_011.jpg	99
785.659	0.447	447.3	congruent	Block1	congruent/STIM_011.jpg	99
788.688	0.553	553.0	congruent	Block1	congruent/STIM_012.jpg	99
791.44	0.536	536.2	congruent	Block1	congruent/STIM_012.jpg	100
795.065	0.735	735.1	congruent	Block1	congruent/STIM_012.jpg	99
799.719	0.419	418.8	congruent	Block1	congruent/STIM_012.jpg	99
802.644	0.65	650.3	congruent	Block1	congruent/STIM_012.jpg	100
806.533	0.66	659.9	congruent	Block1	congruent/STIM_013.jpg	100
810.738	0.626	626.4	congruent	Block1	congruent/STIM_013.jpg	99
814.606	0.57	569.8	congruent	Block1	congruent/STIM_013.jpg	100
817.707	0.493	492.6	congruent	Block1	congruent/STIM_013.jpg	100
820.416	0.641	641.4	congruent	Block1	congruent/STIM_013.jpg	100
823.314	0.518	517.7	congruent	Block1	congruent/STIM_014.jpg	100
826.562	0.498	498.3	congruent	Block1	congruent/STIM_014.jpg	100
830.45	0.464	464.2	congruent	Block1	congruent/STIM_014.jpg	99
833.754	0.641	640.9	congruent	Block1	congruent/STIM_014.jpg	100
836.754	0.503	502.9	congruent	Block1	congruent/STIM_014.jpg	99
840.08	0.616	615.5	congruent	Block1	congruent/STIM_015.jpg	100
843.136	0.724	723.9	congruent	Block1	congruent/STIM_015.jpg	100
846.143	0.476	476.3	congruent	Block1	congruent/STIM_015.jpg	100
849.072	0.558	558.3	congruent	Block1	congruent/STIM_015.jpg	100
853.015	0.627	626.6	congruent	Block1	congruent/STIM_015.jpg	99
856.498	0.451	451.2	congruent	Block1	congruent/STIM_016.jpg	99
859.278	0.563	562.9	congruent	Block1	congruent/STIM_016.jpg	100
861.901	0.452	452.4	congruent	Block1	congruent/STIM_016.jpg	99
865.711	0.605	605.3	congruent	Block1	congruent/STIM_016.jpg	99
868.988	0.606	606.5	congruent	Block1	congruent/STIM_016.jpg	100
872.783	0.68	680.3	congruent	Block1	congruent/STIM_017.jpg	99
875.99	0.729	728.7	congruent	Block1	congruent/STIM_017.jpg	100
880.324	0.537	536.6	congruent	Block1	congruent/STIM_017.jpg	100
883.919	0.688	688.3	congruent	Block1	congruent/STIM_017.jpg	100
887.958	0.725	725.2	congruent	Block1	congruent/STIM_017.jpg	99
890.84	0.608	607.9	congruent	Block1	congruent/STIM_018.jpg	100
893.497	0.677	677.4	congruent	Block1	congruent/STIM_018.jpg	100
896.724	0.607	607.2	congruent	Block1	congruent/STIM_018.jpg	100
899.331	0.738	738.5	congruent	Block1	congruent/STIM_018.jpg	100
902.48	0.493	493.3	congruent	Block1	congruent/STIM_018.jpg	99
906.657	0.487	486.7	congruent	Block1	congruent/STIM_019.jpg	100
910.048	0.655	654.7	congruent	Block1	congruent/STIM_019.jpg	99
913.176	0.62	619.8	congruent	Block1	congruent/STIM_019.jpg	100
915.842	0.682	681.9	congruent	Block1	congruent/STIM_019.jpg	100
919.495	0.539	538.6	congruent	Block1	congruent/STIM_019.jpg	99
922.63	0.542	542.4	congruent	Block1	congruent/STIM_020.jpg	100
926.773	0.554	553.8	congruent	Block1	congruent/STIM_020.jpg	100
929.445	0.478	477.6	congruent	Block1	congruent/STIM_020.jpg	100
932.7	0.543	543.2	congruent	Block1	congruent/STIM_020.jpg	99
936.251	0.617	616.8	congruent	Block1	congruent/STIM_020.jpg	99
939.358	0.593	593.2	congruent	Block1	congruent/STIM_021.jpg	100
942.23	0.643	643.0	congruent	Block1	congruent/STIM_021.jpg	100
946.699	0.446	446.2	congruent	Block1	congruent/STIM_021.jpg	100
949.919	0.479	479.3	congruent	Block1	congruent/STIM_021.jpg	99
953.261	0.709	709.2	congruent	Block1	congruent/STIM_021.jpg	100
956.774	0.628	628.0	congruent	Block1	congruent/STIM_022.jpg	99
960.045	0.694	693.6	congruent	Block1	congruent/STIM_022.jpg	99
963.956	0.646	645.5	congruent	Block1	congruent/STIM_022.jpg	99
968.355	0.612	612.0	congruent	Block1	congruent/STIM_022.jpg	99
972.829	0.553	552.8	congruent	Block1	congruent/STIM_022.jpg	99
976.361	0.65	649.7	congruent	Block1	congruent/STIM_023.jpg	99
979.118	0.668	667.9	congruent	Block1	congruent/STIM_023.jpg	99
981.909	0.412	411.9	congruent	Block1	congruent/STIM_023.jpg	100
985.404	0.509	509.2	congruent	Block1	congruent/STIM_023.jpg	100
989.391	0.704	704.2	congruent	Block1	congruent/STIM_023.jpg	99
993.494	0.545	545.2	congruent	Block1	congruent/STIM_024.jpg	99
996.951	0.423	423.1	congruent	Block1	congruent/STIM_024.jpg	100
1000.433	0.565	565.1	congruent	Block1	congruent/STIM_024.jpg	99
1003.089	0.689	689.4	congruent	Block1	congruent/STIM_024.jpg	99
1007.039	0.701	700.9	congruent	Block1	congruent/STIM_024.jpg	99
1010.759	0.413	412.8	congruent	Block1	congruent/STIM_025.jpg	100
1013.839	0.47	469.6	congruent	Block1	congruent/STIM_025.jpg	100
1016.343	0.462	462.2	congruent	Block1	congruent/STIM_025.jpg	100
1019.548	0.424	423.5	congruent	Block1	congruent/STIM_025.jpg	99
1022.448	0.531	530.8	congruent	Block1	congruent/STIM_025.jpg	99
1025.447	0.525	525.2	congruent	Block1	congruent/STIM_026.jpg	100
1027.979	0.622	622.2	congruent	Block1	congruent/STIM_026.jpg	99
1031.549	0.69	690.4	congruent	Block1	congruent/STIM_026.jpg	99
1035.249	0.608	608.0	congruent	Block1	congruent/STIM_026.jpg	100
1038.026	0.455	455.3	congruent	Block1	congruent/STIM_026.jpg	99
1042.193	0.546	545.8	congruent	Block1	congruent/STIM_027.jpg	100
1046.703	0.484	484.5	congruent	Block1	congruent/STIM_027.jpg	99
1050.612	0.635	634.9	congruent	Block1	congruent/STIM_027.jpg	99
1054.098	0.453	453.0	congruent	Block1	congruent/STIM_027.jpg	100
1056.683	0.436	436.5	congruent	Block1	congruent/STIM_027.jpg	100
1060.825	0.478	477.6	congruent	Block1	congruent/STIM_028.jpg	100
1063.717	0.434	434.2	congruent	Block1	congruent/STIM_028.jpg	100
1067.154	0.439	438.9	congruent	Block1	congruent/STIM_028.jpg	100
1069.847	0.659	658.8	congruent	Block1	congruent/STIM_028.jpg	99
1072.951	0.496	496.0	congruent	Block1	congruent/STIM_028.jpg	100
1077.285	0.507	507.2	congruent	Block1	congruent/STIM_029.jpg	100
1081.479	0.676	675.8	congruent	Block1	congruent/STIM_029.jpg	100
1084.987	0.524	523.9	congruent	Block1	congruent/STIM_029.jpg	99
1088.528	0.505	505.5	congruent	Block1	congruent/STIM_029.jpg	100
1091.766	0.448	447.7	congruent	Block1	congruent/STIM_029.jpg	100
1095.295	0.905	904.7	incongruent	Block2	incongruent/STIM_000.jpg	100
1098.741	0.503	503.1	incongruent	Block2	incongruent/STIM_000.jpg	100
1102.66	0.642	642.3	incongruent	Block2	incongruent/STIM_000.jpg	99
1107.141	0.665	665.1	incongruent	Block2	incongruent/STIM_000.jpg	100
1111.079	0.462	462.5	incongruent	Block2	incongruent/STIM_000.jpg	100
1114.39	0.792	792.2	incongruent	Block2	incongruent/STIM_001.jpg	100
1118.658	0.768	767.8	incongruent	Block2	incongruent/STIM_001.jpg	100
1122.517	0.487	486.7	incongruent	Block2	incongruent/STIM_001.jpg	99
1126.296	0.407	407.4	incongruent	Block2	incongruent/STIM_001.jpg	100
1129.924	0.708	707.9	incongruent	Block2	incongruent/STIM_001.jpg	99
1133.591	0.686	686.4	incongruent	Block2	incongruent/STIM_002.jpg	99
1136.747	0.965	964.9	incongruent	Block2	incongruent/STIM_002.jpg	100
1141.18	0.748	747.8	incongruent	Block2	incongruent/STIM_002.jpg	100
1144.865	0.647	647.3	incongruent	Block2	incongruent/STIM_002.jpg	100
1148.865	0.5	499.9	incongruent	Block2	incongruent/STIM_002.jpg	100
1152.223	0.966	965.5	incongruent	Block2	incongruent/STIM_003.jpg	99
1156.141	0.974	973.8	incongruent	Block2	incongruent/STIM_003.jpg	99
1159.367	0.507	507.3	incongruent	Block2	incongruent/STIM_003.jpg	100
1163.756	0.477	477.3	incongruent	Block2	incongruent/STIM_003.jpg	99
1167.28	0.532	531.5	incongruent	Block2	incongruent/STIM_003.jpg	100
1170.287	0.501	500.8	incongruent	Block2	incongruent/STIM_004.jpg	99
1174.149	0.792	792.4	incongruent	Block2	incongruent/STIM_004.jpg	99
1176.98	0.462	461.7	incongruent	Block2	incongruent/STIM_004.jpg	100
1180.838	0.55	550.0	incongruent	Block2	incongruent/STIM_004.jpg	99
1184.918	0.715	714.9	incongruent	Block2	incongruent/STIM_004.jpg	99
1189.403	0.795	795.0	incongruent	Block2	incongruent/STIM_005.jpg	100
1194.025	0.634	633.7	incongruent	Block2	incongruent/STIM_005.jpg	99
1197.436	0.735	734.8	incongruent	Block2	incongruent/STIM_005.jpg	99
1201.283	0.427	426.8	incongruent	Block2	incongruent/STIM_005.jpg	100
1205.557	0.606	605.7	incongruent	Block2	incongruent/STIM_005.jpg	99
1209.58	0.978	978.3	incongruent	Block2	incongruent/STIM_006.jpg	99
1213.39	0.806	805.5	incongruent	Block2	incongruent/STIM_006.jpg	99
1216.522	0.433	432.9	incongruent	Block2	incongruent/STIM_006.jpg	99
1220.152	0.833	833.4	incongruent	Block2	incongruent/STIM_006.jpg	99
1224.432	0.527	526.6	incongruent	Block2	incongruent/STIM_006.jpg	99
1227.8	0.932	931.9	incongruent	Block2	incongruent/STIM_007.jpg	99
1231.433	0.687	686.7	incongruent	Block2	incongruent/STIM_007.jpg	100
1236.002	0.458	457.8	incongruent	Block2	incongruent/STIM_007.jpg	99
1240.331	0.764	763.6	incongruent	Block2	incongruent/STIM_007.jpg	100
1244.397	0.794	794.3	incongruent	Block2	incongruent/STIM_007.jpg	99
1248.332	0.807	806.6	incongruent	Block2	incongruent/STIM_008.jpg	99
1251.213	0.791	791.4	incongruent	Block2	incongruent/STIM_008.jpg	100
1254.966	0.438	438.3	incongruent	Block2	incongruent/STIM_008.jpg	100
1259.044	0.585	585.3	incongruent	Block2	incongruent/STIM_008.jpg	100
1263.027	0.473	472.7	incongruent	Block2	incongruent/STIM_008.jpg	99
1267.396	0.971	970.8	incongruent	Block2	incongruent/STIM_009.jpg	99
1271.852	0.813	813.1	incongruent	Block2	incongruent/STIM_009.jpg	99
1274.842	0.844	843.6	incongruent	Block2	incongruent/STIM_009.jpg	99
1278.851	0.593	592.7	incongruent	Block2	incongruent/STIM_009.jpg	100
1282.922	0.428	427.8	incongruent	Block2	incongruent/STIM_009.jpg	100
1286.309	0.79	790.1	incongruent	Block2	incongruent/STIM_010.jpg	100
1290.785	0.478	478.4	incongruent	Block2	incongruent/STIM_010.jpg	100
1294.657	0.554	553.7	incongruent	Block2	incongruent/STIM_010.jpg	100
1297.87	0.536	536.4	incongruent	Block2	incongruent/STIM_010.jpg	99
1300.735	0.745	745.2	incongruent	Block2	incongruent/STIM_010.jpg	99
1304.274	0.847	846.7	incongruent	Block2	incongruent/STIM_011.jpg	100
1308.278	0.851	851.4	incongruent	Block2	incongruent/STIM_011.jpg	100
1311.392	0.567	567.4	incongruent	Block2	incongruent/STIM_011.jpg	100
1314.037	0.782	782.3	incongruent	Block2	incongruent/STIM_011.jpg	99
1318.66	0.792	791.9	incongruent	Block2	incongruent/STIM_011.jpg	99
1322.258	0.622	622.1	incongruent	Block2	incongruent/STIM_012.jpg	100
1326.507	0.841	841.4	incongruent	Block2	incongruent/STIM_012.jpg	99
1330.285	0.799	799.2	incongruent	Block2	incongruent/STIM_012.jpg	100
1334.997	0.52	519.5	incongruent	Block2	incongruent/STIM_012.jpg	100
1338.188	0.559	559.2	incongruent	Block2	incongruent/STIM_012.jpg	99
1340.955	0.957	957.2	incongruent	Block2	incongruent/STIM_013.jpg	99
1345.504	0.462	462.1	incongruent	Block2	incongruent/STIM_013.jpg	100
1348.796	0.738	737.5	incongruent	Block2	incongruent/STIM_013.jpg	99
1351.833	0.742	742.1	incongruent	Block2	incongruent/STIM_013.jpg	99
1356.438	0.457	457.0	incongruent	Block2	incongruent/STIM_013.jpg	99
1360.52	0.604	604.5	incongruent	Block2	incongruent/STIM_014.jpg	100
1363.524	0.721	720.9	incongruent	Block2	incongruent/STIM_014.jpg	99
1367.711	0.566	566.3	incongruent	Block2	incongruent/STIM_014.jpg	100
1370.433	0.47	470.0	incongruent	Block2	incongruent/STIM_014.jpg	99
1374.484	0.764	764.4	incongruent	Block2	incongruent/STIM_014.jpg	100
1379.126	0.862	861.8	incongruent	Block2	incongruent/STIM_015.jpg	99
1382.418	0.802	801.8	incongruent	Block2	incongruent/STIM_015.jpg	100
1386.403	0.455	455.4	incongruent	Block2	incongruent/STIM_015.jpg	100
1390.675	0.678	677.9	incongruent	Block2	incongruent/STIM_015.jpg	99
1394.054	0.462	462.5	incongruent	Block2	incongruent/STIM_015.jpg	100
1398.476	0.959	959.2	incongruent	Block2	incongruent/STIM_016.jpg	100
1403.128	0.804	803.6	incongruent	Block2	incongruent/STIM_016.jpg	100
1407.521	0.492	492.0	incongruent	Block2	incongruent/STIM_016.jpg	100
1411.415	0.456	455.5	incongruent	Block2	incongruent/STIM_016.jpg	99
1414.783	0.661	661.0	incongruent	Block2	incongruent/STIM_016.jpg	99
1418.994	0.55	550.1	incongruent	Block2	incongruent/STIM_017.jpg	99
1422.517	0.845	845.1	incongruent	Block2	incongruent/STIM_017.jpg	99
1427.252	0.497	496.7	incongruent	Block2	incongruent/STIM_017.jpg	100
1429.979	0.67	670.0	incongruent	Block2	incongruent/STIM_017.jpg	99
1433.744	0.513	512.7	incongruent	Block2	incongruent/STIM_017.jpg	99
1436.594	0.951	951.2	incongruent	Block2	incongruent/STIM_018.jpg	100
1441.284	0.958	958.4	incongruent	Block2	incongruent/STIM_018.jpg	99
1445.799	0.804	803.7	incongruent	Block2	incongruent/STIM_018.jpg	99
1450.131	0.838	838.0	incongruent	Block2	incongruent/STIM_018.jpg	99
1453.891	0.764	763.5	incongruent	Block2	incongruent/STIM_018.jpg	100
1457.494	0.996	996.4	incongruent	Block2	incongruent/STIM_019.jpg	99
1462.427	0.985	984.8	incongruent	Block2	incongruent/STIM_019.jpg	99
1466.21	0.888	888.3	incongruent	Block2	incongruent/STIM_019.jpg	100
1469.947	0.638	637.7	incongruent	Block2	incongruent/STIM_019.jpg	99
1474.333	0.755	754.7	incongruent	Block2	incongruent/STIM_019.jpg	99
1478.562	0.75	749.7	incongruent	Block2	incongruent/STIM_020.jpg	100
1481.457	0.964	963.8	incongruent	Block2	incongruent/STIM_020.jpg	99
1485.883	0.848	848.2	incongruent	Block2	incongruent/STIM_020.jpg	99
1489.508	0.808	807.6	incongruent	Block2	incongruent/STIM_020.jpg	100
1493.826	0.61	609.9	incongruent	Block2	incongruent/STIM_020.jpg	99
1497.784	0.863	862.8	incongruent	Block2	incongruent/STIM_021.jpg	100
1501.925	0.553	552.8	incongruent	Block2	incongruent/STIM_021.jpg	100
1506.412	0.47	470.1	incongruent	Block2	incongruent/STIM_021.jpg	99
1510.412	0.74	740.2	incongruent	Block2	incongruent/STIM_021.jpg	99
1513.248	0.496	495.5	incongruent	Block2	incongruent/STIM_021.jpg	99
1517.68	0.861	860.6	incongruent	Block2	incongruent/STIM_022.jpg	100
1521.861	0.762	762.3	incongruent	Block2	incongruent/STIM_022.jpg	99
1525.644	0.872	872.4	incongruent	Block2	incongruent/STIM_022.jpg	100
1529.242	0.518	518.2	incongruent	Block2	incongruent/STIM_022.jpg	99
1533.666	0.711	710.8	incongruent	Block2	incongruent/STIM_022.jpg	100
1537.561	0.821	820.6	incongruent	Block2	incongruent/STIM_023.jpg	99
1541.337	0.751	750.6	incongruent	Block2	incongruent/STIM_023.jpg	100
1544.635	0.666	665.6	incongruent	Block2	incongruent/STIM_023.jpg	99
1548.579	0.559	558.8	incongruent	Block2	incongruent/STIM_023.jpg	100
1553.037	0.41	410.4	incongruent	Block2	incongruent/STIM_023.jpg	100
1557.441	0.969	968.8	incongruent	Block2	incongruent/STIM_024.jpg	100
1562.381	0.892	891.9	incongruent	Block2	incongruent/STIM_024.jpg	100
1565.906	0.65	650.4	incongruent	Block2	incongruent/STIM_024.jpg	99
1569.294	0.748	747.5	incongruent	Block2	incongruent/STIM_024.jpg	100
1573.958	0.757	757.3	incongruent	Block2	incongruent/STIM_024.jpg	100
1577.071	0.761	760.9	incongruent	Block2	incongruent/STIM_025.jpg	99
1580.712	0.475	475.1	incongruent	Block2	incongruent/STIM_025.jpg	99
1584.201	0.806	805.9	incongruent	Block2	incongruent/STIM_025.jpg	100
1588.633	0.598	598.3	incongruent	Block2	incongruent/STIM_025.jpg	99
1593.063	0.556	555.9	incongruent	Block2	incongruent/STIM_025.jpg	100
1596.392	0.857	857.4	incongruent	Block2	incongruent/STIM_026.jpg	100
1600.514	0.873	873.4	incongruent	Block2	incongruent/STIM_026.jpg	100
1605.237	0.766	765.6	incongruent	Block2	incongruent/STIM_026.jpg	100
1609.48	0.552	551.6	incongruent	Block2	incongruent/STIM_026.jpg	100
1613.56	0.446	446.0	incongruent	Block2	incongruent/STIM_026.jpg	100
1616.115	0.644	644.0	incongruent	Block2	incongruent/STIM_027.jpg	99
1619.267	0.876	875.6	incongruent	Block2	incongruent/STIM_027.jpg	99
1624.141	0.463	462.9	incongruent	Block2	incongruent/STIM_027.jpg	99
1626.622	0.729	729.3	incongruent	Block2	incongruent/STIM_027.jpg	100
1630.532	0.442	442.2	incongruent	Block2	incongruent/STIM_027.jpg	99
1634.679	0.706	706.4	incongruent	Block2	incongruent/STIM_028.jpg	100
1639.22	0.574	573.5	incongruent	Block2	incongruent/STIM_028.jpg	100
1642.776	0.678	677.8	incongruent	Block2	incongruent/STIM_028.jpg	100
1646.734	0.817	817.4	incongruent	Block2	incongruent/STIM_028.jpg	99
1649.872	0.782	781.7	incongruent	Block2	incongruent/STIM_028.jpg	100
1654.345	0.963	963.2	incongruent	Block2	incongruent/STIM_029.jpg	100
1657.739	0.928	928.2	incongruent	Block2	incongruent/STIM_029.jpg	99
1660.832	0.446	446.3	incongruent	Block2	incongruent/STIM_029.jpg	99
1665.245	0.771	771.2	incongruent	Block2	incongruent/STIM_029.jpg	100
1669.009	0.459	459.2	incongruent	Block2	incongruent/STIM_029.jpg	100
1671.847	0.446	446.2	congruent	Block2	congruent/STIM_000.jpg	100
1675.536	0.45	449.5	congruent	Block2	congruent/STIM_000.jpg	99
1679.418	0.518	517.8	congruent	Block2	congruent/STIM_000.jpg	99
1682.544	0.496	496.3	congruent	Block2	congruent/STIM_000.jpg	100
1686.962	0.66	659.7	congruent	Block2	congruent/STIM_000.jpg	100
1690.794	0.637	636.6	congruent	Block2	congruent/STIM_001.jpg	100
1694.363	0.551	551.4	congruent	Block2	congruent/STIM_001.jpg	100
1697.814	0.645	645.0	congruent	Block2	congruent/STIM_001.jpg	100
1701.583	0.64	640.0	congruent	Block2	congruent/STIM_001.jpg	99
1704.779	0.559	558.8	congruent	Block2	congruent/STIM_001.jpg	99
1708.194	0.612	611.6	congruent	Block2	congruent/STIM_002.jpg	100
1711.393	0.683	683.0	congruent	Block2	congruent/STIM_002.jpg	99
1715.386	0.69	690.2	congruent	Block2	congruent/STIM_002.jpg	100
1719.984	0.588	588.1	congruent	Block2	congruent/STIM_002.jpg	99
1723.6	0.509	509.3	congruent	Block2	congruent/STIM_002.jpg	100
1726.15	0.679	678.8	congruent	Block2	congruent/STIM_003.jpg	100
1729.046	0.678	677.7	congruent	Block2	congruent/STIM_003.jpg	99
1731.834	0.575	574.8	congruent	Block2	congruent/STIM_003.jpg	99
1736.091	0.504	503.6	congruent	Block2	congruent/STIM_003.jpg	100
1739.423	0.508	508.0	congruent	Block2	congruent/STIM_003.jpg	99
1743.049	0.528	528.3	congruent	Block2	congruent/STIM_004.jpg	99
1747.161	0.68	680.5	congruent	Block2	congruent/STIM_004.jpg	99
1749.961	0.657	657.0	congruent	Block2	congruent/STIM_004.jpg	99
1753.541	0.562	561.7	congruent	Block2	congruent/STIM_004.jpg	100
1758.095	0.723	722.7	congruent	Block2	congruent/STIM_004.jpg	99
1761.679	0.561	561.3	congruent	Block2	congruent/STIM_005.jpg	99
1764.802	0.42	420.3	congruent	Block2	congruent/STIM_005.jpg	100
1768.56	0.511	510.9	congruent	Block2	congruent/STIM_005.jpg	100
1771.389	0.598	597.6	congruent	Block2	congruent/STIM_005.jpg	100
1774.051	0.572	572.5	congruent	Block2	congruent/STIM_005.jpg	100
1777.351	0.467	466.6	congruent	Block2	congruent/STIM_006.jpg	100
1781.356	0.454	454.3	congruent	Block2	congruent/STIM_006.jpg	99
1784.491	0.503	503.3	congruent	Block2	congruent/STIM_006.jpg	100
1788.242	0.451	450.9	congruent	Block2	congruent/STIM_006.jpg	100
1792.582	0.608	607.8	congruent	Block2	congruent/STIM_006.jpg	100
1796.72	0.723	723.1	congruent	Block2	congruent/STIM_007.jpg	99
1799.608	0.716	716.5	congruent	Block2	congruent/STIM_007.jpg	99
1802.975	0.426	425.7	congruent	Block2	congruent/STIM_007.jpg	99
1806.417	0.563	562.6	congruent	Block2	congruent/STIM_007.jpg	99
1809.746	0.569	569.1	congruent	Block2	congruent/STIM_007.jpg	99
1814.296	0.659	658.9	congruent	Block2	congruent/STIM_008.jpg	99
1818.789	0.576	576.1	congruent	Block2	congruent/STIM_008.jpg	99
1823.296	0.682	682.1	congruent	Block2	congruent/STIM_008.jpg	100
1827.577	0.727	726.8	congruent	Block2	congruent/STIM_008.jpg	99
1830.749	0.712	712.5	congruent	Block2	congruent/STIM_008.jpg	100
1833.531	0.567	567.1	congruent	Block2	congruent/STIM_009.jpg	99
1837.683	0.7	700.1	congruent	Block2	congruent/STIM_009.jpg	99
1841.074	0.688	687.8	congruent	Block2	congruent/STIM_009.jpg	99
1845.302	0.628	628.4	congruent	Block2	congruent/STIM_009.jpg	100
1848.839	0.445	444.6	congruent	Block2	congruent/STIM_009.jpg	99
1852.426	0.426	426.1	congruent	Block2	congruent/STIM_010.jpg	100
1855.393	0.47	469.5	congruent	Block2	congruent/STIM_010.jpg	99
1858.253	0.414	414.1	congruent	Block2	congruent/STIM_010.jpg	100
1861.775	0.616	615.7	congruent	Block2	congruent/STIM_010.jpg	100
1866.002	0.54	540.0	congruent	Block2	congruent/STIM_010.jpg	99
1870.007	0.573	572.8	congruent	Block2	congruent/STIM_011.jpg	100
1873.186	0.484	483.6	congruent	Block2	congruent/STIM_011.jpg	100
1876.519	0.686	685.8	congruent	Block2	congruent/STIM_011.jpg	99
1879.566	0.616	615.9	congruent	Block2	congruent/STIM_011.jpg	99
1883.254	0.544	544.2	congruent	Block2	congruent/STIM_011.jpg	100
1887.53	0.707	707.3	congruent	Block2	congruent/STIM_012.jpg	100
1890.421	0.604	603.8	congruent	Block2	congruent/STIM_012.jpg	100
1893.914	0.437	436.9	congruent	Block2	congruent/STIM_012.jpg	100
1897.315	0.61	609.8	congruent	Block2	congruent/STIM_012.jpg	100
1901.465	0.624	623.8	congruent	Block2	congruent/STIM_012.jpg	99
1905.244	0.695	694.8	congruent	Block2	congruent/STIM_013.jpg	99
1907.939	0.505	505.5	congruent	Block2	congruent/STIM_013.jpg	100
1912.44	0.49	490.1	congruent	Block2	congruent/STIM_013.jpg	99
1915.53	0.739	738.7	congruent	Block2	congruent/STIM_013.jpg	100
1918.432	0.463	462.9	congruent	Block2	congruent/STIM_013.jpg	99
1922.394	0.668	667.8	congruent	Block2	congruent/STIM_014.jpg	100
1925.995	0.671	671.0	congruent	Block2	congruent/STIM_014.jpg	100
1929.1	0.727	727.1	congruent	Block2	congruent/STIM_014.jpg	100
1932.465	0.431	430.8	congruent	Block2	congruent/STIM_014.jpg	100
1936.132	0.619	619.1	congruent	Block2	congruent/STIM_014.jpg	100
1940.456	0.666	666.0	congruent	Block2	congruent/STIM_015.jpg	99
1943.603	0.493	493.0	congruent	Block2	congruent/STIM_015.jpg	100
1946.469	0.576	576.1	congruent	Block2	congruent/STIM_015.jpg	100
1949.325	0.561	560.8	congruent	Block2	congruent/STIM_015.jpg	99
1951.921	0.738	738.5	congruent	Block2	congruent/STIM_015.jpg	100
1955.063	0.418	418.4	congruent	Block2	congruent/STIM_016.jpg	100
1958.672	0.512	511.9	congruent	Block2	congruent/STIM_016.jpg	99
1962.022	0.548	547.6	congruent	Block2	congruent/STIM_016.jpg	100
1965.696	0.678	677.5	congruent	Block2	congruent/STIM_016.jpg	100
1969.889	0.531	531.4	congruent	Block2	congruent/STIM_016.jpg	100
1974.262	0.542	542.5	congruent	Block2	congruent/STIM_017.jpg	99
1977.861	0.674	674.0	congruent	Block2	congruent/STIM_017.jpg	100
1982.418	0.686	685.8	congruent	Block2	congruent/STIM_017.jpg	99
1986.844	0.699	699.0	congruent	Block2	congruent/STIM_017.jpg	100
1989.681	0.472	471.8	congruent	Block2	congruent/STIM_017.jpg	99
1993.483	0.458	458.5	congruent	Block2	congruent/STIM_018.jpg	100
1997.447	0.662	661.5	congruent	Block2	congruent/STIM_018.jpg	100
2000.61	0.714	714.3	congruent	Block2	congruent/STIM_018.jpg	100
2003.582	0.598	598.3	congruent	Block2	congruent/STIM_018.jpg	99
2007.136	0.688	687.9	congruent	Block2	congruent/STIM_018.jpg	99
2010.942	0.5	500.5	congruent	Block2	congruent/STIM_019.jpg	99
2014.109	0.411	411.3	congruent	Block2	congruent/STIM_019.jpg	100
2017.422	0.667	666.8	congruent	Block2	congruent/STIM_019.jpg	99
2020.78	0.728	728.2	congruent	Block2	congruent/STIM_019.jpg	100
2025.274	0.666	665.7	congruent	Block2	congruent/STIM_019.jpg	99
2029.054	0.509	508.9	congruent	Block2	congruent/STIM_020.jpg	99
2032.75	0.458	458.3	congruent	Block2	congruent/STIM_020.jpg	100
2035.637	0.639	639.3	congruent	Block2	congruent/STIM_020.jpg	99
2039.225	0.509	508.8	congruent	Block2	congruent/STIM_020.jpg	99
2043.282	0.454	454.2	congruent	Block2	congruent/STIM_020.jpg	99
2046.909	0.572	571.8	congruent	Block2	congruent/STIM_021.jpg	99
2050.789	0.605	605.3	congruent	Block2	congruent/STIM_021.jpg	99
2054.637	0.514	513.7	congruent	Block2	congruent/STIM_021.jpg	99
2059.063	0.569	569.1	congruent	Block2	congruent/STIM_021.jpg	99
2063.188	0.497	496.9	congruent	Block2	congruent/STIM_021.jpg	99
2065.935	0.627	626.7	congruent	Block2	congruent/STIM_022.jpg	99
2070.152	0.664	664.4	congruent	Block2	congruent/STIM_022.jpg	100
2072.841	0.73	729.5	congruent	Block2	congruent/STIM_022.jpg	100
2076.054	0.516	516.0	congruent	Block2	congruent/STIM_022.jpg	100
2080.569	0.413	412.8	congruent	Block2	congruent/STIM_022.jpg	99
2083.97	0.496	496.5	congruent	Block2	congruent/STIM_023.jpg	99
2087.086	0.622	622.2	congruent	Block2	congruent/STIM_023.jpg	99
2091.508	0.582	582.3	congruent	Block2	congruent/STIM_023.jpg	99
2094.751	0.719	719.1	congruent	Block2	congruent/STIM_023.jpg	99
2098.794	0.621	621.4	congruent	Block2	congruent/STIM_023.jpg	99
2102.256	0.592	591.6	congruent	Block2	congruent/STIM_024.jpg	100
2106.252	0.531	530.6	congruent	Block2	congruent/STIM_024.jpg	100
2110.739	0.451	450.8	congruent	Block2	congruent/STIM_024.jpg	100
2113.206	0.502	502.3	congruent	Block2	congruent/STIM_024.jpg	99
2116.75	0.727	727.3	congruent	Block2	congruent/STIM_024.jpg	99
2120.638	0.412	411.9	congruent	Block2	congruent/STIM_025.jpg	99
2123.958	0.643	642.9	congruent	Block2	congruent/STIM_025.jpg	99
2128.089	0.438	438.1	congruent	Block2	congruent/STIM_025.jpg	100
2131.781	0.62	620.1	congruent	Block2	congruent/STIM_025.jpg	100
2134.493	0.684	683.6	congruent	Block2	congruent/STIM_025.jpg	99
2137.942	0.578	578.5	congruent	Block2	congruent/STIM_026.jpg	99
2141.878	0.624	623.5	congruent	Block2	congruent/STIM_026.jpg	100
2146.432	0.585	585.3	congruent	Block2	congruent/STIM_026.jpg	100
2150.087	0.5	499.8	congruent	Block2	congruent/STIM_026.jpg	99
2153.937	0.551	550.9	congruent	Block2	congruent/STIM_026.jpg	99
2157.914	0.602	602.1	congruent	Block2	congruent/STIM_027.jpg	100
2161.004	0.672	672.0	congruent	Block2	congruent/STIM_027.jpg	100
2163.913	0.522	522.4	congruent	Block2	congruent/STIM_027.jpg	100
2167.105	0.495	494.7	congruent	Block2	congruent/STIM_027.jpg	100
2171.442	0.673	673.2	congruent	Block2	congruent/STIM_027.jpg	100
2175.954	0.486	485.6	congruent	Block2	congruent/STIM_028.jpg	99
2179.624	0.64	640.4	congruent	Block2	congruent/STIM_028.jpg	100
2182.314	0.441	441.2	congruent	Block2	congruent/STIM_028.jpg	99
2185.285	0.674	673.5	congruent	Block2	congruent/STIM_028.jpg	100
2188.882	0.586	586.3	congruent	Block2	congruent/STIM_028.jpg	100
2192.725	0.609	609.2	congruent	Block2	congruent/STIM_029.jpg	100
2195.482	0.683	682.7	congruent	Block2	congruent/STIM_029.jpg	100
2199.704	0.514	514.5	congruent	Block2	congruent/STIM_029.jpg	100
2202.219	0.485	485.1	congruent	Block2	congruent/STIM_029.jpg	100
2206.429	0.489	488.7	congruent	Block2	congruent/STIM_029.jpg	99
2210.208	0.44	439.6	incongruent	Block3	incongruent/STIM_000.jpg	99
2212.952	0.827	827.2	incongruent	Block3	incongruent/STIM_000.jpg	100
2217.566	0.791	791.0	incongruent	Block3	incongruent/STIM_000.jpg	100
2221.994	0.591	591.3	incongruent	Block3	incongruent/STIM_000.jpg	99
2225.87	0.683	683.4	incongruent	Block3	incongruent/STIM_000.jpg	100
2229.495	0.516	515.7	incongruent	Block3	incongruent/STIM_001.jpg	99
2232.935	0.532	532.5	incongruent	Block3	incongruent/STIM_001.jpg	100
2236.588	0.802	802.1	incongruent	Block3	incongruent/STIM_001.jpg	100
2240.527	0.45	450.0	incongruent	Block3	incongruent/STIM_001.jpg	100
2243.211	0.849	849.3	incongruent	Block3	incongruent/STIM_001.jpg	99
2246.921	0.412	411.5	incongruent	Block3	incongruent/STIM_002.jpg	99
2249.545	0.812	812.5	incongruent	Block3	incongruent/STIM_002.jpg	99
2252.514	0.497	496.9	incongruent	Block3	incongruent/STIM_002.jpg	100
2256.306	0.518	518.4	incongruent	Block3	incongruent/STIM_002.jpg	99
2260.801	0.689	689.0	incongruent	Block3	incongruent/STIM_002.jpg	99
2264.627	0.717	717.2	incongruent	Block3	incongruent/STIM_003.jpg	99
2269.204	0.415	415.0	incongruent	Block3	incongruent/STIM_003.jpg	99
2272.118	0.704	703.8	incongruent	Block3	incongruent/STIM_003.jpg	99
2275.271	0.63	630.3	incongruent	Block3	incongruent/STIM_003.jpg	100
2278.496	0.729	729.4	incongruent	Block3	incongruent/STIM_003.jpg	100
2282.86	0.767	766.8	incongruent	Block3	incongruent/STIM_004.jpg	100
2286.612	0.675	674.8	incongruent	Block3	incongruent/STIM_004.jpg	99
2291.098	0.839	838.6	incongruent	Block3	incongruent/STIM_004.jpg	99
2294.39	0.56	559.7	incongruent	Block3	incongruent/STIM_004.jpg	99
2297.313	0.497	496.7	incongruent	Block3	incongruent/STIM_004.jpg	100
2300.052	0.6	599.5	incongruent	Block3	incongruent/STIM_005.jpg	100
2303.248	0.741	740.7	incongruent	Block3	incongruent/STIM_005.jpg	99
2306.504	0.825	825.1	incongruent	Block3	incongruent/STIM_005.jpg	100
2310.091	0.721	721.4	incongruent	Block3	incongruent/STIM_005.jpg	100
2314.301	0.714	714.4	incongruent	Block3	incongruent/STIM_005.jpg	99
2318.469	0.804	804.4	incongruent	Block3	incongruent/STIM_006.jpg	99
2321.323	0.412	411.5	incongruent	Block3	incongruent/STIM_006.jpg	99
2324.592	0.499	498.6	incongruent	Block3	incongruent/STIM_006.jpg	99
2328.871	0.469	469.0	incongruent	Block3	incongruent/STIM_006.jpg	99
2332.862	0.764	764.1	incongruent	Block3	incongruent/STIM_006.jpg	100
2337.059	0.607	606.6	incongruent	Block3	incongruent/STIM_007.jpg	99
2340.508	0.8	800.1	incongruent	Block3	incongruent/STIM_007.jpg	99
2344.856	0.84	839.7	incongruent	Block3	incongruent/STIM_007.jpg	99
2348.381	0.611	611.3	incongruent	Block3	incongruent/STIM_007.jpg	100
2351.09	0.446	445.7	incongruent	Block3	incongruent/STIM_007.jpg	99
2355.117	0.8	800.3	incongruent	Block3	incongruent/STIM_008.jpg	99
2358.37	0.425	424.9	incongruent	Block3	incongruent/STIM_008.jpg	100
2362.515	0.559	558.9	incongruent	Block3	incongruent/STIM_008.jpg	100
2366.126	0.696	695.8	incongruent	Block3	incongruent/STIM_008.jpg	99
2370.703	0.561	560.6	incongruent	Block3	incongruent/STIM_008.jpg	99
2374.474	0.478	477.6	incongruent	Block3	incongruent/STIM_009.jpg	99
2377.55	0.549	549.4	incongruent	Block3	incongruent/STIM_009.jpg	100
2381.936	0.471	471.3	incongruent	Block3	incongruent/STIM_009.jpg	99
2385.09	0.428	428.1	incongruent	Block3	incongruent/STIM_009.jpg	99
2387.587	0.598	598.0	incongruent	Block3	incongruent/STIM_009.jpg	99
2391.654	0.801	800.9	incongruent	Block3	incongruent/STIM_010.jpg	100
2396.3	0.828	827.5	incongruent	Block3	incongruent/STIM_010.jpg	99
2400.248	0.533	532.7	incongruent	Block3	incongruent/STIM_010.jpg	100
2404.185	0.551	551.1	incongruent	Block3	incongruent/STIM_010.jpg	99
2407.814	0.632	632.0	incongruent	Block3	incongruent/STIM_010.jpg	100
2410.468	0.8	799.7	incongruent	Block3	incongruent/STIM_011.jpg	99
2413.709	0.546	545.6	incongruent	Block3	incongruent/STIM_011.jpg	99
2416.389	0.534	534.5	incongruent	Block3	incongruent/STIM_011.jpg	100
2420.22	0.675	674.7	incongruent	Block3	incongruent/STIM_011.jpg	99
2423.728	0.805	805.3	incongruent	Block3	incongruent/STIM_011.jpg	100
2428.122	0.654	653.8	incongruent	Block3	incongruent/STIM_012.jpg	100
2431.84	0.761	761.2	incongruent	Block3	incongruent/STIM_012.jpg	100
2434.704	0.611	610.9	incongruent	Block3	incongruent/STIM_012.jpg	100
2438.836	0.708	708.1	incongruent	Block3	incongruent/STIM_012.jpg	100
2443.443	0.741	741.3	incongruent	Block3	incongruent/STIM_012.jpg	99
2446.822	0.754	754.2	incongruent	Block3	incongruent/STIM_013.jpg	99
2450.437	0.48	480.3	incongruent	Block3	incongruent/STIM_013.jpg	99
2454.432	0.654	654.2	incongruent	Block3	incongruent/STIM_013.jpg	99
2457.401	0.507	506.7	incongruent	Block3	incongruent/STIM_013.jpg	99
2460.894	0.468	467.6	incongruent	Block3	incongruent/STIM_013.jpg	100
2464.1	0.617	616.9	incongruent	Block3	incongruent/STIM_014.jpg	100
2467.661	0.656	655.6	incongruent	Block3	incongruent/STIM_014.jpg	100
2471.94	0.613	613.0	incongruent	Block3	incongruent/STIM_014.jpg	100
2475.119	0.5	499.8	incongruent	Block3	incongruent/STIM_014.jpg	100
2478.41	0.532	532.1	incongruent	Block3	incongruent/STIM_014.jpg	100
2481.604	0.564	564.0	incongruent	Block3	incongruent/STIM_015.jpg	99
2485.784	0.628	627.9	incongruent	Block3	incongruent/STIM_015.jpg	100
2488.699	0.539	539.1	incongruent	Block3	incongruent/STIM_015.jpg	100
2492.612	0.796	796.2	incongruent	Block3	incongruent/STIM_015.jpg	99
2495.787	0.59	590.0	incongruent	Block3	incongruent/STIM_015.jpg	99
2498.683	0.544	544.3	incongruent	Block3	incongruent/STIM_016.jpg	100
2502.433	0.576	575.6	incongruent	Block3	incongruent/STIM_016.jpg	100
2505.849	0.408	408.1	incongruent	Block3	incongruent/STIM_016.jpg	99
2509.332	0.538	538.5	incongruent	Block3	incongruent/STIM_016.jpg	100
2512.809	0.657	656.7	incongruent	Block3	incongruent/STIM_016.jpg	100
2516.491	0.63	630.2	incongruent	Block3	incongruent/STIM_017.jpg	99
2520.325	0.605	604.6	incongruent	Block3	incongruent/STIM_017.jpg	100
2524.912	0.695	695.4	incongruent	Block3	incongruent/STIM_017.jpg	99
2529.094	0.511	510.8	incongruent	Block3	incongruent/STIM_017.jpg	99
2533.326	0.609	608.6	incongruent	Block3	incongruent/STIM_017.jpg	100
2537.259	0.515	514.7	incongruent	Block3	incongruent/STIM_018.jpg	99
2541.732	0.553	553.2	incongruent	Block3	incongruent/STIM_018.jpg	99
2545.343	0.457	457.4	incongruent	Block3	incongruent/STIM_018.jpg	99
2548.903	0.629	629.0	incongruent	Block3	incongruent/STIM_018.jpg	100
2553.49	0.789	788.6	incongruent	Block3	incongruent/STIM_018.jpg	100
2557.117	0.71	709.8	incongruent	Block3	incongruent/STIM_019.jpg	100
2560.676	0.517	516.7	incongruent	Block3	incongruent/STIM_019.jpg	99
2563.42	0.691	691.1	incongruent	Block3	incongruent/STIM_019.jpg	99
2566.354	0.694	694.1	incongruent	Block3	incongruent/STIM_019.jpg	99
2569.238	0.601	600.8	incongruent	Block3	incongruent/STIM_019.jpg	100
2573.634	0.523	523.3	incongruent	Block3	incongruent/STIM_020.jpg	99
2576.397	0.821	821.2	incongruent	Block3	incongruent/STIM_020.jpg	99
2579.242	0.489	489.2	incongruent	Block3	incongruent/STIM_020.jpg	100
2582.134	0.612	611.9	incongruent	Block3	incongruent/STIM_020.jpg	99
2585.185	0.732	732.4	incongruent	Block3	incongruent/STIM_020.jpg	99
2589.696	0.442	442.5	incongruent	Block3	incongruent/STIM_021.jpg	100
2593.92	0.728	728.1	incongruent	Block3	incongruent/STIM_021.jpg	99
2598.588	0.729	729.3	incongruent	Block3	incongruent/STIM_021.jpg	100
2602.845	0.654	654.4	incongruent	Block3	incongruent/STIM_021.jpg	99
2606.023	0.694	693.5	incongruent	Block3	incongruent/STIM_021.jpg	99
2610.67	0.857	857.4	incongruent	Block3	incongruent/STIM_022.jpg	99
2614.087	0.595	594.7	incongruent	Block3	incongruent/STIM_022.jpg	99
2618.437	0.566	566.4	incongruent	Block3	incongruent/STIM_022.jpg	99
2621.482	0.651	651.3	incongruent	Block3	incongruent/STIM_022.jpg	100
2625.069	0.861	861.3	incongruent	Block3	incongruent/STIM_022.jpg	99
2629.459	0.741	741.1	incongruent	Block3	incongruent/STIM_023.jpg	99
2633.862	0.607	607.1	incongruent	Block3	incongruent/STIM_023.jpg	99
2636.647	0.423	423.3	incongruent	Block3	incongruent/STIM_023.jpg	100
2639.128	0.506	506.4	incongruent	Block3	incongruent/STIM_023.jpg	100
2641.846	0.602	602.5	incongruent	Block3	incongruent/STIM_023.jpg	100
2646.432	0.764	764.0	incongruent	Block3	incongruent/STIM_024.jpg	99
2650.95	0.591	591.4	incongruent	Block3	incongruent/STIM_024.jpg	100
2654.838	0.823	823.4	incongruent	Block3	incongruent/STIM_024.jpg	100
2659.648	0.672	671.5	incongruent	Block3	incongruent/STIM_024.jpg	100
2664.062	0.541	540.8	incongruent	Block3	incongruent/STIM_024.jpg	99
2666.609	0.853	853.0	incongruent	Block3	incongruent/STIM_025.jpg	100
2671.163	0.618	618.3	incongruent	Block3	incongruent/STIM_025.jpg	100
2675.618	0.456	455.8	incongruent	Block3	incongruent/STIM_025.jpg	99
2678.226	0.656	655.8	incongruent	Block3	incongruent/STIM_025.jpg	99
2682.343	0.745	745.3	incongruent	Block3	incongruent/STIM_025.jpg	100
2687.019	0.428	428.3	incongruent	Block3	incongruent/STIM_026.jpg	99
2691.268	0.854	854.1	incongruent	Block3	incongruent/STIM_026.jpg	100
2694.274	0.505	504.8	incongruent	Block3	incongruent/STIM_026.jpg	99
2697.603	0.823	823.2	incongruent	Block3	incongruent/STIM_026.jpg	100
2702.337	0.771	770.6	incongruent	Block3	incongruent/STIM_026.jpg	100
2706.072	0.467	466.8	incongruent	Block3	incongruent/STIM_027.jpg	99
2709.864	0.744	744.5	incongruent	Block3	incongruent/STIM_027.jpg	100
2713.623	0.595	595.4	incongruent	Block3	incongruent/STIM_027.jpg	99
2717.856	0.793	793.4	incongruent	Block3	incongruent/STIM_027.jpg	100
2722.408	0.676	676.4	incongruent	Block3	incongruent/STIM_027.jpg	99
2726.622	0.795	795.0	incongruent	Block3	incongruent/STIM_028.jpg	99
2730.306	0.696	696.0	incongruent	Block3	incongruent/STIM_028.jpg	99
2734.559	0.833	832.7	incongruent	Block3	incongruent/STIM_028.jpg	99
2739.148	0.844	843.9	incongruent	Block3	incongruent/STIM_028.jpg	99
2742.883	0.702	701.6	incongruent	Block3	incongruent/STIM_028.jpg	100
2747.507	0.651	650.6	incongruent	Block3	incongruent/STIM_029.jpg	99
2750.203	0.473	472.9	incongruent	Block3	incongruent/STIM_029.jpg	99
2753.588	0.59	590.2	incongruent	Block3	incongruent/STIM_029.jpg	99
2757.61	0.596	595.9	incongruent	Block3	incongruent/STIM_029.jpg	99
2761.181	0.693	693.0	incongruent	Block3	incongruent/STIM_029.jpg	99
2764.869	0.634	633.7	congruent	Block3	congruent/STIM_000.jpg	100
2767.939	0.627	626.6	congruent	Block3	congruent/STIM_000.jpg	99
2770.805	0.554	554.4	congruent	Block3	congruent/STIM_000.jpg	100
2773.923	0.412	411.9	congruent	Block3	congruent/STIM_000.jpg	100
2777.223	0.553	553.4	congruent	Block3	congruent/STIM_000.jpg	99
2780.078	0.699	699.2	congruent	Block3	congruent/STIM_001.jpg	99
2784.286	0.734	733.7	congruent	Block3	congruent/STIM_001.jpg	100
2788.703	0.494	494.0	congruent	Block3	congruent/STIM_001.jpg	99
2792.666	0.713	713.4	congruent	Block3	congruent/STIM_001.jpg	100
2797.08	0.596	595.6	congruent	Block3	congruent/STIM_001.jpg	99
2801.408	0.424	424.2	congruent	Block3	congruent/STIM_002.jpg	99
2805.211	0.583	583.4	congruent	Block3	congruent/STIM_002.jpg	99
2809.385	0.544	544.2	congruent	Block3	congruent/STIM_002.jpg	99
2813.902	0.458	457.6	congruent	Block3	congruent/STIM_002.jpg	99
2818.339	0.696	696.4	congruent	Block3	congruent/STIM_002.jpg	100
2822.207	0.631	630.6	congruent	Block3	congruent/STIM_003.jpg	99
2825.24	0.733	733.2	congruent	Block3	congruent/STIM_003.jpg	100
2829.936	0.429	428.7	congruent	Block3	congruent/STIM_003.jpg	99
2834.351	0.698	698.4	congruent	Block3	congruent/STIM_003.jpg	99
2837.696	0.417	416.9	congruent	Block3	congruent/STIM_003.jpg	99
2840.386	0.417	416.6	congruent	Block3	congruent/STIM_004.jpg	100
2843.439	0.569	569.3	congruent	Block3	congruent/STIM_004.jpg	100
2847.104	0.686	685.7	congruent	Block3	congruent/STIM_004.jpg	99
2851.262	0.646	646.0	congruent	Block3	congruent/STIM_004.jpg	100
2854.824	0.506	506.0	congruent	Block3	congruent/STIM_004.jpg	99
2858.679	0.613	612.8	congruent	Block3	congruent/STIM_005.jpg	100
2862.281	0.564	563.9	congruent	Block3	congruent/STIM_005.jpg	99
2866.822	0.672	671.5	congruent	Block3	congruent/STIM_005.jpg	100
2871.117	0.587	587.1	congruent	Block3	congruent/STIM_005.jpg	100
2875.203	0.695	694.8	congruent	Block3	congruent/STIM_005.jpg	100
2877.991	0.705	704.9	congruent	Block3	congruent/STIM_006.jpg	100
2881.104	0.712	712.3	congruent	Block3	congruent/STIM_006.jpg	100
2884.709	0.673	673.2	congruent	Block3	congruent/STIM_006.jpg	99
2888.221	0.694	693.6	congruent	Block3	congruent/STIM_006.jpg	100
2892.139	0.667	667.1	congruent	Block3	congruent/STIM_006.jpg	100
2895.578	0.719	718.8	congruent	Block3	congruent/STIM_007.jpg	99
2899.722	0.639	639.3	congruent	Block3	congruent/STIM_007.jpg	100
2904.34	0.474	474.0	congruent	Block3	congruent/STIM_007.jpg	99
2908.291	0.547	546.8	congruent	Block3	congruent/STIM_007.jpg	99
2912.281	0.697	697.2	congruent	Block3	congruent/STIM_007.jpg	100
2916.172	0.673	672.8	congruent	Block3	congruent/STIM_008.jpg	99
2919.322	0.598	597.8	congruent	Block3	congruent/STIM_008.jpg	99
2922.263	0.499	499.3	congruent	Block3	congruent/STIM_008.jpg	99
2925.647	0.424	424.2	congruent	Block3	congruent/STIM_008.jpg	99
2928.63	0.522	522.4	congruent	Block3	congruent/STIM_008.jpg	100
2931.737	0.73	729.9	congruent	Block3	congruent/STIM_009.jpg	99
2934.569	0.687	686.9	congruent	Block3	congruent/STIM_009.jpg	99
2938.209	0.514	514.1	congruent	Block3	congruent/STIM_009.jpg	100
2942.67	0.504	504.4	congruent	Block3	congruent/STIM_009.jpg	99
2946.042	0.725	725.1	congruent	Block3	congruent/STIM_009.jpg	100
2949.658	0.639	639.3	congruent	Block3	congruent/STIM_010.jpg	99
2953.607	0.557	556.9	congruent	Block3	congruent/STIM_010.jpg	99
2958.156	0.625	625.3	congruent	Block3	congruent/STIM_010.jpg	100
2962.26	0.72	719.8	congruent	Block3	congruent/STIM_010.jpg	99
2966.204	0.472	472.1	congruent	Block3	congruent/STIM_010.jpg	100
2970.377	0.625	624.6	congruent	Block3	congruent/STIM_011.jpg	100
2973.746	0.576	576.2	congruent	Block3	congruent/STIM_011.jpg	99
2977.871	0.731	731.1	congruent	Block3	congruent/STIM_011.jpg	100
2982.555	0.48	480.1	congruent	Block3	congruent/STIM_011.jpg	100
2985.412	0.685	685.3	congruent	Block3	congruent/STIM_011.jpg	100
2990.003	0.701	701.2	congruent	Block3	congruent/STIM_012.jpg	99
2993.293	0.507	506.9	congruent	Block3	congruent/STIM_012.jpg	99
2997.736	0.595	594.6	congruent	Block3	congruent/STIM_012.jpg	100
3001.879	0.446	445.6	congruent	Block3	congruent/STIM_012.jpg	99
3005.001	0.61	609.7	congruent	Block3	congruent/STIM_012.jpg	100
3008.278	0.646	646.3	congruent	Block3	congruent/STIM_013.jpg	100
3011.924	0.558	557.5	congruent	Block3	congruent/STIM_013.jpg	99
3014.812	0.727	726.6	congruent	Block3	congruent/STIM_013.jpg	100
3019.461	0.588	587.5	congruent	Block3	congruent/STIM_013.jpg	99
3023.16	0.7	699.8	congruent	Block3	congruent/STIM_013.jpg	100
3026.356	0.419	419.1	congruent	Block3	congruent/STIM_014.jpg	100
3030.308	0.484	484.2	congruent	Block3	congruent/STIM_014.jpg	99
3033.285	0.622	622.1	congruent	Block3	congruent/STIM_014.jpg	100
3037.311	0.668	668.0	congruent	Block3	congruent/STIM_014.jpg	99
3041.644	0.488	488.2	congruent	Block3	congruent/STIM_014.jpg	99
3044.595	0.698	698.3	congruent	Block3	congruent/STIM_015.jpg	100
3048.663	0.524	523.9	congruent	Block3	congruent/STIM_015.jpg	99
3052.637	0.591	590.8	congruent	Block3	congruent/STIM_015.jpg	99
3055.434	0.673	673.4	congruent	Block3	congruent/STIM_015.jpg	99
3059.061	0.434	433.5	congruent	Block3	congruent/STIM_015.jpg	100
3062.435	0.554	553.9	congruent	Block3	congruent/STIM_016.jpg	100
3065.576	0.42	419.5	congruent	Block3	congruent/STIM_016.jpg	99
3069.066	0.421	420.6	congruent	Block3	congruent/STIM_016.jpg	100
3073.19	0.423	422.9	congruent	Block3	congruent/STIM_016.jpg	99
3077.032	0.419	419.1	congruent	Block3	congruent/STIM_016.jpg	99
3080.838	0.504	504.4	congruent	Block3	congruent/STIM_017.jpg	100
3085.135	0.646	645.7	congruent	Block3	congruent/STIM_017.jpg	99
3088.674	0.522	522.2	congruent	Block3	congruent/STIM_017.jpg	99
3091.41	0.499	499.3	congruent	Block3	congruent/STIM_017.jpg	99
3094.713	0.707	707.4	congruent	Block3	congruent/STIM_017.jpg	100
3098.778	0.456	455.8	congruent	Block3	congruent/STIM_018.jpg	99
3101.473	0.647	647.3	congruent	Block3	congruent/STIM_018.jpg	99
3106.059	0.659	659.3	congruent	Block3	congruent/STIM_018.jpg	99
3110.486	0.722	721.9	congruent	Block3	congruent/STIM_018.jpg	100
3113.519	0.466	465.7	congruent	Block3	congruent/STIM_018.jpg	100
3116.134	0.691	690.7	congruent	Block3	congruent/STIM_019.jpg	100
3118.853	0.658	658.2	congruent	Block3	congruent/STIM_019.jpg	100
3122.797	0.598	598.2	congruent	Block3	congruent/STIM_019.jpg	99
3126.941	0.533	533.3	congruent	Block3	congruent/STIM_019.jpg	100
3130.391	0.466	465.7	congruent	Block3	congruent/STIM_019.jpg	99
3134.441	0.632	631.5	congruent	Block3	congruent/STIM_020.jpg	99
3138.469	0.602	601.7	congruent	Block3	congruent/STIM_020.jpg	99
3141.261	0.427	427.1	congruent	Block3	congruent/STIM_020.jpg	100
3145.659	0.591	590.9	congruent	Block3	congruent/STIM_020.jpg	99
3150.122	0.59	589.7	congruent	Block3	congruent/STIM_020.jpg	99
3154.22	0.514	514.1	congruent	Block3	congruent/STIM_021.jpg	100
3157.048	0.652	652.5	congruent	Block3	congruent/STIM_021.jpg	100
3159.963	0.454	453.9	congruent	Block3	congruent/STIM_021.jpg	99
3164.142	0.546	546.1	congruent	Block3	congruent/STIM_021.jpg	100
3167.237	0.649	649.0	congruent	Block3	congruent/STIM_021.jpg	99
3170.498	0.437	436.7	congruent	Block3	congruent/STIM_022.jpg	99
3174.202	0.43	430.0	congruent	Block3	congruent/STIM_022.jpg	99
3177.521	0.694	693.6	congruent	Block3	congruent/STIM_022.jpg	99
3181.366	0.425	425.3	congruent	Block3	congruent/STIM_022.jpg	100
3185.695	0.597	596.7	congruent	Block3	congruent/STIM_022.jpg	100
3190.073	0.443	443.4	congruent	Block3	congruent/STIM_023.jpg	100
3193.281	0.488	488.0	congruent	Block3	congruent/STIM_023.jpg	100
3196.343	0.601	601.0	congruent	Block3	congruent/STIM_023.jpg	100
3200.877	0.675	675.0	congruent	Block3	congruent/STIM_023.jpg	100
3203.927	0.411	411.0	congruent	Block3	congruent/STIM_023.jpg	100
3207.083	0.444	443.9	congruent	Block3	congruent/STIM_024.jpg	100
3211.17	0.701	701.4	congruent	Block3	congruent/STIM_024.jpg	100
3214.015	0.464	463.9	congruent	Block3	congruent/STIM_024.jpg	100
3217.661	0.715	714.8	congruent	Block3	congruent/STIM_024.jpg	99
3220.979	0.55	550.4	congruent	Block3	congruent/STIM_024.jpg	99
3225.015	0.692	692.1	congruent	Block3	congruent/STIM_025.jpg	99
3228.864	0.672	671.6	congruent	Block3	congruent/STIM_025.jpg	100
3233.241	0.424	424.1	congruent	Block3	congruent/STIM_025.jpg	100
3237.408	0.52	520.4	congruent	Block3	congruent/STIM_025.jpg	99
3241.036	0.629	629.3	congruent	Block3	congruent/STIM_025.jpg	99
3244.624	0.456	456.5	congruent	Block3	congruent/STIM_026.jpg	100
3248.164	0.706	705.9	congruent	Block3	congruent/STIM_026.jpg	100
3251.061	0.627	626.6	congruent	Block3	congruent/STIM_026.jpg	100
3254.611	0.531	531.2	congruent	Block3	congruent/STIM_026.jpg	99
3257.616	0.49	489.8	congruent	Block3	congruent/STIM_026.jpg	99
3261.702	0.606	605.9	congruent	Block3	congruent/STIM_027.jpg	99
3264.442	0.657	657.3	congruent	Block3	congruent/STIM_027.jpg	100
3268.912	0.653	652.6	congruent	Block3	congruent/STIM_027.jpg	100
3272.829	0.613	612.7	congruent	Block3	congruent/STIM_027.jpg	100
3277.23	0.661	660.6	congruent	Block3	congruent/STIM_027.jpg	100
3280.061	0.526	526.3	congruent	Block3	congruent/STIM_028.jpg	99
3284.36	0.613	613.2	congruent	Block3	congruent/STIM_028.jpg	99
3287.516	0.624	623.8	congruent	Block3	congruent/STIM_028.jpg	99
3290.445	0.463	463.2	congruent	Block3	congruent/STIM_028.jpg	99
3293.204	0.597	596.7	congruent	Block3	congruent/STIM_028.jpg	100
3295.815	0.576	575.8	congruent	Block3	congruent/STIM_029.jpg	100
3299.129	0.482	481.9	congruent	Block3	congruent/STIM_029.jpg	99
3303.589	0.478	478.0	congruent	Block3	congruent/STIM_029.jpg	100
3307.158	0.6	600.3	congruent	Block3	congruent/STIM_029.jpg	100
3310.174	0.5	500.2	congruent	Block3	congruent/STIM_029.jpg	99
