onset	duration	accuracy	trial_type	learning_stage	stimulus
0.0	1.038	correct	incongruent	Block1	incongruent/STIM_000.jpg
5.005	0.594	incorrect	incongruent	Block1	incongruent/STIM_000.jpg
8.48	0.54	correct	incongruent	Block1	incongruent/STIM_000.jpg
11.504	0.599	correct	incongruent	Block1	incongruent/STIM_000.jpg
15.602	0.98	correct	incongruent	Block1	incongruent/STIM_000.jpg
19.218	1.183	correct	incongruent	Block1	incongruent/STIM_001.jpg
23.853	0.6	correct	incongruent	Block1	incongruent/STIM_001.jpg
27.035	0.73	correct	incongruent	Block1	incongruent/STIM_001.jpg
29.823	0.552	correct	incongruent	Block1	incongruent/STIM_001.jpg
33.865	0.916	correct	incongruent	Block1	incongruent/STIM_001.jpg
37.994	0.61	correct	incongruent	Block1	incongruent/STIM_002.jpg
42.191	0.808	correct	incongruent	Block1	incongruent/STIM_002.jpg
46.655	0.837	incorrect	incongruent	Block1	incongruent/STIM_002.jpg
50.703	0.879	correct	incongruent	Block1	incongruent/STIM_002.jpg
54.436	0.742	correct	incongruent	Block1	incongruent/STIM_002.jpg
58.887	1.179	correct	incongruent	Block1	incongruent/STIM_003.jpg
63.812	0.788	correct	incongruent	Block1	incongruent/STIM_003.jpg
66.836	0.866	correct	incongruent	Block1	incongruent/STIM_003.jpg
69.793	0.937	correct	incongruent	Block1	incongruent/STIM_003.jpg
73.961	0.627	correct	incongruent	Block1	incongruent/STIM_003.jpg
78.253	1.042	correct	incongruent	Block1	incongruent/STIM_004.jpg
81.587	1.062	correct	incongruent	Block1	incongruent/STIM_004.jpg
85.433	0.937	correct	incongruent	Block1	incongruent/STIM_004.jpg
88.714	0.828	correct	incongruent	Block1	incongruent/STIM_004.jpg
91.757	0.912	correct	incongruent	Block1	incongruent/STIM_004.jpg
94.898	0.708	incorrect	incongruent	Block1	incongruent/STIM_005.jpg
97.944	0.728	correct	incongruent	Block1	incongruent/STIM_005.jpg
101.199	1.079	correct	incongruent	Block1	incongruent/STIM_005.jpg
106.215	0.57	incorrect	incongruent	Block1	incongruent/STIM_005.jpg
109.577	0.501	correct	incongruent	Block1	incongruent/STIM_005.jpg
113.487	1.026	incorrect	incongruent	Block1	incongruent/STIM_006.jpg
117.716	0.55	correct	incongruent	Block1	incongruent/STIM_006.jpg
121.805	0.579	correct	incongruent	Block1	incongruent/STIM_006.jpg
124.45	0.651	correct	incongruent	Block1	incongruent/STIM_006.jpg
127.321	0.481	correct	incongruent	Block1	incongruent/STIM_006.jpg
131.291	0.83	correct	incongruent	Block1	incongruent/STIM_007.jpg
135.19	0.868	correct	incongruent	Block1	incongruent/STIM_007.jpg
139.31	0.711	correct	incongruent	Block1	incongruent/STIM_007.jpg
142.272	0.54	correct	incongruent	Block1	incongruent/STIM_007.jpg
146.515	0.542	correct	incongruent	Block1	incongruent/STIM_007.jpg
150.524	1.208	correct	incongruent	Block1	incongruent/STIM_008.jpg
154.72	0.585	correct	incongruent	Block1	incongruent/STIM_008.jpg
158.059	1.036	correct	incongruent	Block1	incongruent/STIM_008.jpg
162.546	0.956	incorrect	incongruent	Block1	incongruent/STIM_008.jpg
165.625	0.501	correct	incongruent	Block1	incongruent/STIM_008.jpg
168.852	0.892	correct	incongruent	Block1	incongruent/STIM_009.jpg
172.114	1.029	correct	incongruent	Block1	incongruent/STIM_009.jpg
176.474	0.728	incorrect	incongruent	Block1	incongruent/STIM_009.jpg
180.197	0.695	incorrect	incongruent	Block1	incongruent/STIM_009.jpg
184.048	0.807	incorrect	incongruent	Block1	incongruent/STIM_009.jpg
187.301	1.208	correct	incongruent	Block1	incongruent/STIM_010.jpg
191.11	1.082	correct	incongruent	Block1	incongruent/STIM_010.jpg
194.708	1.057	correct	incongruent	Block1	incongruent/STIM_010.jpg
198.303	0.746	incorrect	incongruent	Block1	incongruent/STIM_010.jpg
201.799	0.877	correct	incongruent	Block1	incongruent/STIM_010.jpg
205.431	0.964	incorrect	incongruent	Block1	incongruent/STIM_011.jpg
209.688	1.11	correct	incongruent	Block1	incongruent/STIM_011.jpg
214.126	0.934	correct	incongruent	Block1	incongruent/STIM_011.jpg
218.303	0.528	correct	incongruent	Block1	incongruent/STIM_011.jpg
221.87	0.601	correct	incongruent	Block1	incongruent/STIM_011.jpg
226.018	0.949	correct	incongruent	Block1	incongruent/STIM_012.jpg
229.212	0.904	incorrect	incongruent	Block1	incongruent/STIM_012.jpg
232.225	0.788	correct	incongruent	Block1	incongruent/STIM_012.jpg
236.141	0.698	correct	incongruent	Block1	incongruent/STIM_012.jpg
240.826	0.76	correct	incongruent	Block1	incongruent/STIM_012.jpg
245.557	0.749	incorrect	incongruent	Block1	incongruent/STIM_013.jpg
250.191	0.734	correct	incongruent	Block1	incongruent/STIM_013.jpg
254.18	0.65	correct	incongruent	Block1	incongruent/STIM_013.jpg
257.768	0.802	correct	incongruent	Block1	incongruent/STIM_013.jpg
262.284	0.935	incorrect	incongruent	Block1	incongruent/STIM_013.jpg
265.284	0.837	correct	incongruent	Block1	incongruent/STIM_014.jpg
269.182	1.107	incorrect	incongruent	Block1	incongruent/STIM_014.jpg
272.499	0.703	incorrect	incongruent	Block1	incongruent/STIM_014.jpg
276.25	0.616	correct	incongruent	Block1	incongruent/STIM_014.jpg
279.35	0.812	correct	incongruent	Block1	incongruent/STIM_014.jpg
282.879	1.168	correct	incongruent	Block1	incongruent/STIM_015.jpg
286.678	1.05	correct	incongruent	Block1	incongruent/STIM_015.jpg
291.386	0.545	correct	incongruent	Block1	incongruent/STIM_015.jpg
295.22	0.942	correct	incongruent	Block1	incongruent/STIM_015.jpg
299.301	0.744	incorrect	incongruent	Block1	incongruent/STIM_015.jpg
303.041	0.685	incorrect	incongruent	Block1	incongruent/STIM_016.jpg
306.691	1.019	correct	incongruent	Block1	incongruent/STIM_016.jpg
310.462	1.052	correct	incongruent	Block1	incongruent/STIM_016.jpg
314.903	0.934	correct	incongruent	Block1	incongruent/STIM_016.jpg
318.537	0.748	correct	incongruent	Block1	incongruent/STIM_016.jpg
321.607	0.774	correct	incongruent	Block1	incongruent/STIM_017.jpg
324.658	0.618	correct	incongruent	Block1	incongruent/STIM_017.jpg
327.906	0.886	correct	incongruent	Block1	incongruent/STIM_017.jpg
332.61	1.011	correct	incongruent	Block1	incongruent/STIM_017.jpg
337.047	0.695	incorrect	incongruent	Block1	incongruent/STIM_017.jpg
340.578	0.68	correct	incongruent	Block1	incongruent/STIM_018.jpg
343.574	0.895	correct	incongruent	Block1	incongruent/STIM_018.jpg
347.945	0.61	incorrect	incongruent	Block1	incongruent/STIM_018.jpg
352.34	0.995	correct	incongruent	Block1	incongruent/STIM_018.jpg
356.304	0.819	correct	incongruent	Block1	incongruent/STIM_018.jpg
360.423	1.0	correct	incongruent	Block1	incongruent/STIM_019.jpg
364.943	0.605	incorrect	incongruent	Block1	incongruent/STIM_019.jpg
367.814	0.547	incorrect	incongruent	Block1	incongruent/STIM_019.jpg
372.121	0.802	incorrect	incongruent	Block1	incongruent/STIM_019.jpg
376.177	0.865	correct	incongruent	Block1	incongruent/STIM_019.jpg
379.802	1.0	correct	incongruent	Block1	incongruent/STIM_020.jpg
383.969	0.645	correct	incongruent	Block1	incongruent/STIM_020.jpg
386.771	0.931	correct	incongruent	Block1	incongruent/STIM_020.jpg
390.26	0.87	correct	incongruent	Block1	incongruent/STIM_020.jpg
394.665	0.736	correct	incongruent	Block1	incongruent/STIM_020.jpg
398.142	1.165	correct	incongruent	Block1	incongruent/STIM_021.jpg
402.859	0.571	correct	incongruent	Block1	incongruent/STIM_021.jpg
407.099	0.77	correct	incongruent	Block1	incongruent/STIM_021.jpg
409.927	0.814	correct	incongruent	Block1	incongruent/STIM_021.jpg
414.082	0.716	incorrect	incongruent	Block1	incongruent/STIM_021.jpg
418.539	0.768	incorrect	incongruent	Block1	incongruent/STIM_022.jpg
423.017	0.982	correct	incongruent	Block1	incongruent/STIM_022.jpg
426.391	0.652	correct	incongruent	Block1	incongruent/STIM_022.jpg
430.52	0.777	correct	incongruent	Block1	incongruent/STIM_022.jpg
433.631	0.5	incorrect	incongruent	Block1	incongruent/STIM_022.jpg
437.899	1.109	correct	incongruent	Block1	incongruent/STIM_023.jpg
442.197	0.688	correct	incongruent	Block1	incongruent/STIM_023.jpg
445.192	0.781	correct	incongruent	Block1	incongruent/STIM_023.jpg
448.462	0.562	correct	incongruent	Block1	incongruent/STIM_023.jpg
452.061	0.838	incorrect	incongruent	Block1	incongruent/STIM_023.jpg
455.285	1.228	correct	incongruent	Block1	incongruent/STIM_024.jpg
460.096	1.133	correct	incongruent	Block1	incongruent/STIM_024.jpg
464.299	0.601	incorrect	incongruent	Block1	incongruent/STIM_024.jpg
467.199	0.946	correct	incongruent	Block1	incongruent/STIM_024.jpg
471.659	0.857	correct	incongruent	Block1	incongruent/STIM_024.jpg
475.034	1.226	correct	incongruent	Block1	incongruent/STIM_025.jpg
478.613	0.986	correct	incongruent	Block1	incongruent/STIM_025.jpg
481.991	0.75	correct	incongruent	Block1	incongruent/STIM_025.jpg
485.186	0.709	correct	incongruent	Block1	incongruent/STIM_025.jpg
489.59	0.499	incorrect	incongruent	Block1	incongruent/STIM_025.jpg
493.533	1.044	correct	incongruent	Block1	incongruent/STIM_026.jpg
496.647	0.89	correct	incongruent	Block1	incongruent/STIM_026.jpg
501.453	0.88	correct	incongruent	Block1	incongruent/STIM_026.jpg
504.985	0.884	correct	incongruent	Block1	incongruent/STIM_026.jpg
509.03	0.774	correct	incongruent	Block1	incongruent/STIM_026.jpg
512.575	0.687	correct	incongruent	Block1	incongruent/STIM_027.jpg
515.847	0.579	incorrect	incongruent	Block1	incongruent/STIM_027.jpg
519.893	0.813	correct	incongruent	Block1	incongruent/STIM_027.jpg
523.354	0.774	correct	incongruent	Block1	incongruent/STIM_027.jpg
526.581	0.628	correct	incongruent	Block1	incongruent/STIM_027.jpg
530.875	1.186	incorrect	incongruent	Block1	incongruent/STIM_028.jpg
534.831	0.626	incorrect	incongruent	Block1	incongruent/STIM_028.jpg
539.296	0.688	correct	incongruent	Block1	incongruent/STIM_028.jpg
542.062	0.594	correct	incongruent	Block1	incongruent/STIM_028.jpg
546.074	0.889	correct	incongruent	Block1	incongruent/STIM_028.jpg
549.096	0.857	correct	incongruent	Block1	incongruent/STIM_029.jpg
553.567	1.101	correct	incongruent	Block1	incongruent/STIM_029.jpg
558.201	1.045	correct	incongruent	Block1	incongruent/STIM_029.jpg
561.528	0.986	incorrect	incongruent	Block1	incongruent/STIM_029.jpg
566.143	0.529	incorrect	incongruent	Block1	incongruent/STIM_029.jpg
570.388	0.725	correct	congruent	Block1	congruent/STIM_000.jpg
573.166	0.609	correct	congruent	Block1	congruent/STIM_000.jpg
576.718	0.686	correct	congruent	Block1	congruent/STIM_000.jpg
580.073	0.714	correct	congruent	Block1	congruent/STIM_000.jpg
584.013	0.499	correct	congruent	Block1	congruent/STIM_000.jpg
586.874	0.566	correct	congruent	Block1	congruent/STIM_001.jpg
589.91	0.429	correct	congruent	Block1	congruent/STIM_001.jpg
592.84	0.427	correct	congruent	Block1	congruent/STIM_001.jpg
597.182	0.414	correct	congruent	Block1	congruent/STIM_001.jpg
601.149	0.479	correct	congruent	Block1	congruent/STIM_001.jpg
605.439	0.642	correct	congruent	Block1	congruent/STIM_002.jpg
608.571	0.72	incorrect	congruent	Block1	congruent/STIM_002.jpg
611.698	0.522	correct	congruent	Block1	congruent/STIM_002.jpg
615.629	0.468	correct	congruent	Block1	congruent/STIM_002.jpg
618.94	0.523	correct	congruent	Block1	congruent/STIM_002.jpg
623.216	0.655	correct	congruent	Block1	congruent/STIM_003.jpg
627.867	0.692	correct	congruent	Block1	congruent/STIM_003.jpg
631.993	0.716	correct	congruent	Block1	congruent/STIM_003.jpg
635.454	0.423	correct	congruent	Block1	congruent/STIM_003.jpg
639.601	0.444	correct	congruent	Block1	congruent/STIM_003.jpg
642.481	0.683	incorrect	congruent	Block1	congruent/STIM_004.jpg
645.754	0.643	correct	congruent	Block1	congruent/STIM_004.jpg
649.259	0.53	correct	congruent	Block1	congruent/STIM_004.jpg
653.035	0.651	correct	congruent	Block1	congruent/STIM_004.jpg
656.794	0.486	correct	congruent	Block1	congruent/STIM_004.jpg
660.516	0.659	correct	congruent	Block1	congruent/STIM_005.jpg
663.568	0.671	correct	congruent	Block1	congruent/STIM_005.jpg
667.14	0.481	correct	congruent	Block1	congruent/STIM_005.jpg
671.232	0.522	correct	congruent	Block1	congruent/STIM_005.jpg
675.449	0.736	correct	congruent	Block1	congruent/STIM_005.jpg
679.941	0.663	correct	congruent	Block1	congruent/STIM_006.jpg
683.189	0.421	correct	congruent	Block1	congruent/STIM_006.jpg
687.203	0.427	correct	congruent	Block1	congruent/STIM_006.jpg
691.209	0.512	correct	congruent	Block1	congruent/STIM_006.jpg
694.415	0.678	correct	congruent	Block1	congruent/STIM_006.jpg
698.008	0.734	incorrect	congruent	Block1	congruent/STIM_007.jpg
701.182	0.581	correct	congruent	Block1	congruent/STIM_007.jpg
704.927	0.56	correct	congruent	Block1	congruent/STIM_007.jpg
708.819	0.69	correct	congruent	Block1	congruent/STIM_007.jpg
713.491	0.704	correct	congruent	Block1	congruent/STIM_007.jpg
717.148	0.628	correct	congruent	Block1	congruent/STIM_008.jpg
720.483	0.607	correct	congruent	Block1	congruent/STIM_008.jpg
724.488	0.466	correct	congruent	Block1	congruent/STIM_008.jpg
728.471	0.599	correct	congruent	Block1	congruent/STIM_008.jpg
732.944	0.59	incorrect	congruent	Block1	congruent/STIM_008.jpg
736.033	0.423	correct	congruent	Block1	congruent/STIM_009.jpg
740.169	0.555	correct	congruent	Block1	congruent/STIM_009.jpg
742.929	0.567	correct	congruent	Block1	congruent/STIM_009.jpg
746.286	0.626	correct	congruent	Block1	congruent/STIM_009.jpg
749.344	0.477	correct	congruent	Block1	congruent/STIM_009.jpg
753.648	0.437	correct	congruent	Block1	congruent/STIM_010.jpg
757.7	0.497	correct	congruent	Block1	congruent/STIM_010.jpg
761.86	0.677	correct	congruent	Block1	congruent/STIM_010.jpg
764.802	0.726	correct	congruent	Block1	congruent/STIM_010.jpg
767.679	0.725	correct	congruent	Block1	congruent/STIM_010.jpg
772.305	0.618	correct	congruent	Block1	congruent/STIM_011.jpg
775.585	0.479	correct	congruent	Block1	congruent/STIM_011.jpg
779.124	0.442	correct	congruent	Block1	congruent/STIM_011.jpg
781.868	0.507	correct	congruent	Block1	congruent/STIM_011.jpg
785.659	0.447	correct	congruent	Block1	congruent/STIM_011.jpg
788.688	0.553	correct	congruent	Block1	congruent/STIM_012.jpg
791.44	0.536	correct	congruent	Block1	congruent/STIM_012.jpg
795.065	0.735	correct	congruent	Block1	congruent/STIM_012.jpg
799.719	0.419	incorrect	congruent	Block1	congruent/STIM_012.jpg
802.644	0.65	correct	congruent	Block1	congruent/STIM_012.jpg
806.533	0.66	incorrect	congruent	Block1	congruent/STIM_013.jpg
810.738	0.626	correct	congruent	Block1	congruent/STIM_013.jpg
814.606	0.57	correct	congruent	Block1	congruent/STIM_013.jpg
817.707	0.493	correct	congruent	Block1	congruent/STIM_013.jpg
820.416	0.641	correct	congruent	Block1	congruent/STIM_013.jpg
823.314	0.518	correct	congruent	Block1	congruent/STIM_014.jpg
826.562	0.498	correct	congruent	Block1	congruent/STIM_014.jpg
830.45	0.464	correct	congruent	Block1	congruent/STIM_014.jpg
833.754	0.641	correct	congruent	Block1	congruent/STIM_014.jpg
836.754	0.503	correct	congruent	Block1	congruent/STIM_014.jpg
840.08	0.616	incorrect	congruent	Block1	congruent/STIM_015.jpg
843.136	0.724	correct	congruent	Block1	congruent/STIM_015.jpg
846.143	0.476	correct	congruent	Block1	congruent/STIM_015.jpg
849.072	0.558	correct	congruent	Block1	congruent/STIM_015.jpg
853.015	0.627	correct	congruent	Block1	congruent/STIM_015.jpg
856.498	0.451	correct	congruent	Block1	congruent/STIM_016.jpg
859.278	0.563	correct	congruent	Block1	congruent/STIM_016.jpg
861.901	0.452	correct	congruent	Block1	congruent/STIM_016.jpg
865.711	0.605	correct	congruent	Block1	congruent/STIM_016.jpg
868.988	0.606	correct	congruent	Block1	congruent/STIM_016.jpg
872.783	0.68	correct	congruent	Block1	congruent/STIM_017.jpg
875.99	0.729	correct	congruent	Block1	congruent/STIM_017.jpg
880.324	0.537	correct	congruent	Block1	congruent/STIM_017.jpg
883.919	0.688	correct	congruent	Block1	congruent/STIM_017.jpg
887.958	0.725	correct	congruent	Block1	congruent/STIM_017.jpg
890.84	0.608	incorrect	congruent	Block1	congruent/STIM_018.jpg
893.497	0.677	correct	congruent	Block1	congruent/STIM_018.jpg
896.724	0.607	correct	congruent	Block1	congruent/STIM_018.jpg
899.331	0.738	correct	congruent	Block1	congruent/STIM_018.jpg
902.48	0.493	correct	congruent	Block1	congruent/STIM_018.jpg
906.657	0.487	correct	congruent	Block1	congruent/STIM_019.jpg
910.048	0.655	correct	congruent	Block1	congruent/STIM_019.jpg
913.176	0.62	correct	congruent	Block1	congruent/STIM_019.jpg
915.842	0.682	correct	congruent	Block1	congruent/STIM_019.jpg
919.495	0.539	correct	congruent	Block1	congruent/STIM_019.jpg
922.63	0.542	correct	congruent	Block1	congruent/STIM_020.jpg
926.773	0.554	correct	congruent	Block1	congruent/STIM_020.jpg
929.445	0.478	correct	congruent	Block1	congruent/STIM_020.jpg
932.7	0.543	correct	congruent	Block1	congruent/STIM_020.jpg
936.251	0.617	incorrect	congruent	Block1	congruent/STIM_020.jpg
939.358	0.593	correct	congruent	Block1	congruent/STIM_021.jpg
942.23	0.643	incorrect	congruent	Block1	congruent/STIM_021.jpg
946.699	0.446	correct	congruent	Block1	congruent/STIM_021.jpg
949.919	0.479	correct	congruent	Block1	congruent/STIM_021.jpg
953.261	0.709	correct	congruent	Block1	congruent/STIM_021.jpg
956.774	0.628	correct	congruent	Block1	congruent/STIM_022.jpg
960.045	0.694	correct	congruent	Block1	congruent/STIM_022.jpg
963.956	0.646	correct	congruent	Block1	congruent/STIM_022.jpg
968.355	0.612	correct	congruent	Block1	congruent/STIM_022.jpg
972.829	0.553	correct	congruent	Block1	congruent/STIM_022.jpg
976.361	0.65	correct	congruent	Block1	congruent/STIM_023.jpg
979.118	0.668	correct	congruent	Block1	congruent/STIM_023.jpg
981.909	0.412	correct	congruent	Block1	congruent/STIM_023.jpg
985.404	0.509	correct	congruent	Block1	congruent/STIM_023.jpg
989.391	0.704	correct	congruent	Block1	congruent/STIM_023.jpg
993.494	0.545	correct	congruent	Block1	congruent/STIM_024.jpg
996.951	0.423	correct	congruent	Block1	congruent/STIM_024.jpg
1000.433	0.565	correct	congruent	Block1	congruent/STIM_024.jpg
1003.089	0.689	correct	congruent	Block1	congruent/STIM_024.jpg
1007.039	0.701	correct	congruent	Block1	congruent/STIM_024.jpg
1010.759	0.413	correct	congruent	Block1	congruent/STIM_025.jpg
1013.839	0.47	correct	congruent	Block1	congruent/STIM_025.jpg
1016.343	0.462	correct	congruent	Block1	congruent/STIM_025.jpg
1019.548	0.424	correct	congruent	Block1	congruent/STIM_025.jpg
1022.448	0.531	correct	congruent	Block1	congruent/STIM_025.jpg
1025.447	0.525	correct	congruent	Block1	congruent/STIM_026.jpg
1027.979	0.622	correct	congruent	Block1	congruent/STIM_026.jpg
1031.549	0.69	correct	congruent	Block1	congruent/STIM_026.jpg
1035.249	0.608	correct	congruent	Block1	congruent/STIM_026.jpg
1038.026	0.455	correct	congruent	Block1	congruent/STIM_026.jpg
1042.193	0.546	correct	congruent	Block1	congruent/STIM_027.jpg
1046.703	0.484	incorrect	congruent	Block1	congruent/STIM_027.jpg
1050.612	0.635	correct	congruent	Block1	congruent/STIM_027.jpg
1054.098	0.453	correct	congruent	Block1	congruent/STIM_027.jpg
1056.683	0.436	correct	congruent	Block1	congruent/STIM_027.jpg
1060.825	0.478	correct	congruent	Block1	congruent/STIM_028.jpg
1063.717	0.434	correct	congruent	Block1	congruent/STIM_028.jpg
1067.154	0.439	correct	congruent	Block1	congruent/STIM_028.jpg
1069.847	0.659	correct	congruent	Block1	congruent/STIM_028.jpg
1072.951	0.496	correct	congruent	Block1	congruent/STIM_028.jpg
1077.285	0.507	correct	congruent	Block1	congruent/STIM_029.jpg
1081.479	0.676	incorrect	congruent	Block1	congruent/STIM_029.jpg
1084.987	0.524	correct	congruent	Block1	congruent/STIM_029.jpg
1088.528	0.505	correct	congruent	Block1	congruent/STIM_029.jpg
1091.766	0.448	correct	congruent	Block1	congruent/STIM_029.jpg
1095.295	0.905	correct	incongruent	Block2	incongruent/STIM_000.jpg
1098.741	0.503	correct	incongruent	Block2	incongruent/STIM_000.jpg
1102.66	0.642	correct	incongruent	Block2	incongruent/STIM_000.jpg
1107.141	0.665	correct	incongruent	Block2	incongruent/STIM_000.jpg
1111.079	0.462	correct	incongruent	Block2	incongruent/STIM_000.jpg
1114.39	0.792	correct	incongruent	Block2	incongruent/STIM_001.jpg
1118.658	0.768	correct	incongruent	Block2	incongruent/STIM_001.jpg
1122.517	0.487	correct	incongruent	Block2	incongruent/STIM_001.jpg
1126.296	0.407	correct	incongruent	Block2	incongruent/STIM_001.jpg
1129.924	0.708	correct	incongruent	Block2	incongruent/STIM_001.jpg
1133.591	0.686	correct	incongruent	Block2	incongruent/STIM_002.jpg
1136.747	0.965	correct	incongruent	Block2	incongruent/STIM_002.jpg
1141.18	0.748	incorrect	incongruent	Block2	incongruent/STIM_002.jpg
1144.865	0.647	correct	incongruent	Block2	incongruent/STIM_002.jpg
1148.865	0.5	correct	incongruent	Block2	incongruent/STIM_002.jpg
1152.223	0.966	correct	incongruent	Block2	incongruent/STIM_003.jpg
1156.141	0.974	correct	incongruent	Block2	incongruent/STIM_003.jpg
1159.367	0.507	correct	incongruent	Block2	incongruent/STIM_003.jpg
1163.756	0.477	correct	incongruent	Block2	incongruent/STIM_003.jpg
1167.28	0.532	correct	incongruent	Block2	incongruent/STIM_003.jpg
1170.287	0.501	correct	incongruent	Block2	incongruent/STIM_004.jpg
1174.149	0.792	correct	incongruent	Block2	incongruent/STIM_004.jpg
1176.98	0.462	correct	incongruent	Block2	incongruent/STIM_004.jpg
1180.838	0.55	correct	incongruent	Block2	incongruent/STIM_004.jpg
1184.918	0.715	correct	incongruent	Block2	incongruent/STIM_004.jpg
1189.403	0.795	correct	incongruent	Block2	incongruent/STIM_005.jpg
1194.025	0.634	correct	incongruent	Block2	incongruent/STIM_005.jpg
1197.436	0.735	correct	incongruent	Block2	incongruent/STIM_005.jpg
1201.283	0.427	correct	incongruent	Block2	incongruent/STIM_005.jpg
1205.557	0.606	correct	incongruent	Block2	incongruent/STIM_005.jpg
1209.58	0.978	correct	incongruent	Block2	incongruent/STIM_006.jpg
1213.39	0.806	incorrect	incongruent	Block2	incongruent/STIM_006.jpg
1216.522	0.433	correct	incongruent	Block2	incongruent/STIM_006.jpg
1220.152	0.833	correct	incongruent	Block2	incongruent/STIM_006.jpg
1224.432	0.527	correct	incongruent	Block2	incongruent/STIM_006.jpg
1227.8	0.932	correct	incongruent	Block2	incongruent/STIM_007.jpg
1231.433	0.687	correct	incongruent	Block2	incongruent/STIM_007.jpg
1236.002	0.458	correct	incongruent	Block2	incongruent/STIM_007.jpg
1240.331	0.764	correct	incongruent	Block2	incongruent/STIM_007.jpg
1244.397	0.794	correct	incongruent	Block2	incongruent/STIM_007.jpg
1248.332	0.807	correct	incongruent	Block2	incongruent/STIM_008.jpg
1251.213	0.791	correct	incongruent	Block2	incongruent/STIM_008.jpg
1254.966	0.438	correct	incongruent	Block2	incongruent/STIM_008.jpg
1259.044	0.585	correct	incongruent	Block2	incongruent/STIM_008.jpg
1263.027	0.473	correct	incongruent	Block2	incongruent/STIM_008.jpg
1267.396	0.971	correct	incongruent	Block2	incongruent/STIM_009.jpg
1271.852	0.813	correct	incongruent	Block2	incongruent/STIM_009.jpg
1274.842	0.844	correct	incongruent	Block2	incongruent/STIM_009.jpg
1278.851	0.593	correct	incongruent	Block2	incongruent/STIM_009.jpg
1282.922	0.428	correct	incongruent	Block2	incongruent/STIM_009.jpg
1286.309	0.79	correct	incongruent	Block2	incongruent/STIM_010.jpg
1290.785	0.478	correct	incongruent	Block2	incongruent/STIM_010.jpg
1294.657	0.554	correct	incongruent	Block2	incongruent/STIM_010.jpg
1297.87	0.536	correct	incongruent	Block2	incongruent/STIM_010.jpg
1300.735	0.745	incorrect	incongruent	Block2	incongruent/STIM_010.jpg
1304.274	0.847	correct	incongruent	Block2	incongruent/STIM_011.jpg
1308.278	0.851	correct	incongruent	Block2	incongruent/STIM_011.jpg
1311.392	0.567	correct	incongruent	Block2	incongruent/STIM_011.jpg
1314.037	0.782	correct	incongruent	Block2	incongruent/STIM_011.jpg
1318.66	0.792	correct	incongruent	Block2	incongruent/STIM_011.jpg
1322.258	0.622	correct	incongruent	Block2	incongruent/STIM_012.jpg
1326.507	0.841	correct	incongruent	Block2	incongruent/STIM_012.jpg
1330.285	0.799	correct	incongruent	Block2	incongruent/STIM_012.jpg
1334.997	0.52	correct	incongruent	Block2	incongruent/STIM_012.jpg
1338.188	0.559	correct	incongruent	Block2	incongruent/STIM_012.jpg
1340.955	0.957	incorrect	incongruent	Block2	incongruent/STIM_013.jpg
1345.504	0.462	correct	incongruent	Block2	incongruent/STIM_013.jpg
1348.796	0.738	correct	incongruent	Block2	incongruent/STIM_013.jpg
1351.833	0.742	correct	incongruent	Block2	incongruent/STIM_013.jpg
1356.438	0.457	correct	incongruent	Block2	incongruent/STIM_013.jpg
1360.52	0.604	incorrect	incongruent	Block2	incongruent/STIM_014.jpg
1363.524	0.721	correct	incongruent	Block2	incongruent/STIM_014.jpg
1367.711	0.566	correct	incongruent	Block2	incongruent/STIM_014.jpg
1370.433	0.47	correct	incongruent	Block2	incongruent/STIM_014.jpg
1374.484	0.764	correct	incongruent	Block2	incongruent/STIM_014.jpg
1379.126	0.862	correct	incongruent	Block2	incongruent/STIM_015.jpg
1382.418	0.802	correct	incongruent	Block2	incongruent/STIM_015.jpg
1386.403	0.455	correct	incongruent	Block2	incongruent/STIM_015.jpg
1390.675	0.678	correct	incongruent	Block2	incongruent/STIM_015.jpg
1394.054	0.462	correct	incongruent	Block2	incongruent/STIM_015.jpg
1398.476	0.959	correct	incongruent	Block2	incongruent/STIM_016.jpg
1403.128	0.804	correct	incongruent	Block2	incongruent/STIM_016.jpg
1407.521	0.492	correct	incongruent	Block2	incongruent/STIM_016.jpg
1411.415	0.456	correct	incongruent	Block2	incongruent/STIM_016.jpg
1414.783	0.661	correct	incongruent	Block2	incongruent/STIM_016.jpg
1418.994	0.55	correct	incongruent	Block2	incongruent/STIM_017.jpg
1422.517	0.845	incorrect	incongruent	Block2	incongruent/STIM_017.jpg
1427.252	0.497	correct	incongruent	Block2	incongruent/STIM_017.jpg
1429.979	0.67	correct	incongruent	Block2	incongruent/STIM_017.jpg
1433.744	0.513	correct	incongruent	Block2	incongruent/STIM_017.jpg
1436.594	0.951	correct	incongruent	Block2	incongruent/STIM_018.jpg
1441.284	0.958	correct	incongruent	Block2	incongruent/STIM_018.jpg
1445.799	0.804	correct	incongruent	Block2	incongruent/STIM_018.jpg
1450.131	0.838	correct	incongruent	Block2	incongruent/STIM_018.jpg
1453.891	0.764	correct	incongruent	Block2	incongruent/STIM_018.jpg
1457.494	0.996	correct	incongruent	Block2	incongruent/STIM_019.jpg
1462.427	0.985	correct	incongruent	Block2	incongruent/STIM_019.jpg
1466.21	0.888	correct	incongruent	Block2	incongruent/STIM_019.jpg
1469.947	0.638	correct	incongruent	Block2	incongruent/STIM_019.jpg
1474.333	0.755	correct	incongruent	Block2	incongruent/STIM_019.jpg
1478.562	0.75	correct	incongruent	Block2	incongruent/STIM_020.jpg
1481.457	0.964	correct	incongruent	Block2	incongruent/STIM_020.jpg
1485.883	0.848	correct	incongruent	Block2	incongruent/STIM_020.jpg
1489.508	0.808	incorrect	incongruent	Block2	incongruent/STIM_020.jpg
1493.826	0.61	correct	incongruent	Block2	incongruent/STIM_020.jpg
1497.784	0.863	correct	incongruent	Block2	incongruent/STIM_021.jpg
1501.925	0.553	incorrect	incongruent	Block2	incongruent/STIM_021.jpg
1506.412	0.47	correct	incongruent	Block2	incongruent/STIM_021.jpg
1510.412	0.74	correct	incongruent	Block2	incongruent/STIM_021.jpg
1513.248	0.496	correct	incongruent	Block2	incongruent/STIM_021.jpg
1517.68	0.861	correct	incongruent	Block2	incongruent/STIM_022.jpg
1521.861	0.762	correct	incongruent	Block2	incongruent/STIM_022.jpg
1525.644	0.872	correct	incongruent	Block2	incongruent/STIM_022.jpg
1529.242	0.518	correct	incongruent	Block2	incongruent/STIM_022.jpg
1533.666	0.711	correct	incongruent	Block2	incongruent/STIM_022.jpg
1537.561	0.821	correct	incongruent	Block2	incongruent/STIM_023.jpg
1541.337	0.751	correct	incongruent	Block2	incongruent/STIM_023.jpg
1544.635	0.666	correct	incongruent	Block2	incongruent/STIM_023.jpg
1548.579	0.559	correct	incongruent	Block2	incongruent/STIM_023.jpg
1553.037	0.41	correct	incongruent	Block2	incongruent/STIM_023.jpg
1557.441	0.969	correct	incongruent	Block2	incongruent/STIM_024.jpg
1562.381	0.892	correct	incongruent	Block2	incongruent/STIM_024.jpg
1565.906	0.65	correct	incongruent	Block2	incongruent/STIM_024.jpg
1569.294	0.748	correct	incongruent	Block2	incongruent/STIM_024.jpg
1573.958	0.757	correct	incongruent	Block2	incongruent/STIM_024.jpg
1577.071	0.761	correct	incongruent	Block2	incongruent/STIM_025.jpg
1580.712	0.475	correct	incongruent	Block2	incongruent/STIM_025.jpg
1584.201	0.806	incorrect	incongruent	Block2	incongruent/STIM_025.jpg
1588.633	0.598	correct	incongruent	Block2	incongruent/STIM_025.jpg
1593.063	0.556	correct	incongruent	Block2	incongruent/STIM_025.jpg
1596.392	0.857	correct	incongruent	Block2	incongruent/STIM_026.jpg
1600.514	0.873	correct	incongruent	Block2	incongruent/STIM_026.jpg
1605.237	0.766	correct	incongruent	Block2	incongruent/STIM_026.jpg
1609.48	0.552	correct	incongruent	Block2	incongruent/STIM_026.jpg
1613.56	0.446	correct	incongruent	Block2	incongruent/STIM_026.jpg
1616.115	0.644	correct	incongruent	Block2	incongruent/STIM_027.jpg
1619.267	0.876	correct	incongruent	Block2	incongruent/STIM_027.jpg
1624.141	0.463	correct	incongruent	Block2	incongruent/STIM_027.jpg
1626.622	0.729	correct	incongruent	Block2	incongruent/STIM_027.jpg
1630.532	0.442	correct	incongruent	Block2	incongruent/STIM_027.jpg
1634.679	0.706	correct	incongruent	Block2	incongruent/STIM_028.jpg
1639.22	0.574	incorrect	incongruent	Block2	incongruent/STIM_028.jpg
1642.776	0.678	correct	incongruent	Block2	incongruent/STIM_028.jpg
1646.734	0.817	correct	incongruent	Block2	incongruent/STIM_028.jpg
1649.872	0.782	correct	incongruent	Block2	incongruent/STIM_028.jpg
1654.345	0.963	correct	incongruent	Block2	incongruent/STIM_029.jpg
1657.739	0.928	correct	incongruent	Block2	incongruent/STIM_029.jpg
1660.832	0.446	correct	incongruent	Block2	incongruent/STIM_029.jpg
1665.245	0.771	correct	incongruent	Block2	incongruent/STIM_029.jpg
1669.009	0.459	correct	incongruent	Block2	incongruent/STIM_029.jpg
1671.847	0.446	incorrect	congruent	Block2	congruent/STIM_000.jpg
1675.536	0.45	correct	congruent	Block2	congruent/STIM_000.jpg
1679.418	0.518	correct	congruent	Block2	congruent/STIM_000.jpg
1682.544	0.496	correct	congruent	Block2	congruent/STIM_000.jpg
1686.962	0.66	correct	congruent	Block2	congruent/STIM_000.jpg
1690.794	0.637	correct	congruent	Block2	congruent/STIM_001.jpg
1694.363	0.551	correct	congruent	Block2	congruent/STIM_001.jpg
1697.814	0.645	correct	congruent	Block2	congruent/STIM_001.jpg
1701.583	0.64	incorrect	congruent	Block2	congruent/STIM_001.jpg
1704.779	0.559	incorrect	congruent	Block2	congruent/STIM_001.jpg
1708.194	0.612	correct	congruent	Block2	congruent/STIM_002.jpg
1711.393	0.683	correct	congruent	Block2	congruent/STIM_002.jpg
1715.386	0.69	correct	congruent	Block2	congruent/STIM_002.jpg
1719.984	0.588	correct	congruent	Block2	congruent/STIM_002.jpg
1723.6	0.509	correct	congruent	Block2	congruent/STIM_002.jpg
1726.15	0.679	correct	congruent	Block2	congruent/STIM_003.jpg
1729.046	0.678	correct	congruent	Block2	congruent/STIM_003.jpg
1731.834	0.575	correct	congruent	Block2	congruent/STIM_003.jpg
1736.091	0.504	correct	congruent	Block2	congruent/STIM_003.jpg
1739.423	0.508	correct	congruent	Block2	congruent/STIM_003.jpg
1743.049	0.528	incorrect	congruent	Block2	congruent/STIM_004.jpg
1747.161	0.68	incorrect	congruent	Block2	congruent/STIM_004.jpg
1749.961	0.657	correct	congruent	Block2	congruent/STIM_004.jpg
1753.541	0.562	correct	congruent	Block2	congruent/STIM_004.jpg
1758.095	0.723	correct	congruent	Block2	congruent/STIM_004.jpg
1761.679	0.561	correct	congruent	Block2	congruent/STIM_005.jpg
1764.802	0.42	correct	congruent	Block2	congruent/STIM_005.jpg
1768.56	0.511	correct	congruent	Block2	congruent/STIM_005.jpg
1771.389	0.598	correct	congruent	Block2	congruent/STIM_005.jpg
1774.051	0.572	correct	congruent	Block2	congruent/STIM_005.jpg
1777.351	0.467	correct	congruent	Block2	congruent/STIM_006.jpg
1781.356	0.454	correct	congruent	Block2	congruent/STIM_006.jpg
1784.491	0.503	correct	congruent	Block2	congruent/STIM_006.jpg
1788.242	0.451	correct	congruent	Block2	congruent/STIM_006.jpg
1792.582	0.608	correct	congruent	Block2	congruent/STIM_006.jpg
1796.72	0.723	correct	congruent	Block2	congruent/STIM_007.jpg
1799.608	0.716	correct	congruent	Block2	congruent/STIM_007.jpg
1802.975	0.426	incorrect	congruent	Block2	congruent/STIM_007.jpg
1806.417	0.563	correct	congruent	Block2	congruent/STIM_007.jpg
1809.746	0.569	correct	congruent	Block2	congruent/STIM_007.jpg
1814.296	0.659	correct	congruent	Block2	congruent/STIM_008.jpg
1818.789	0.576	correct	congruent	Block2	congruent/STIM_008.jpg
1823.296	0.682	correct	congruent	Block2	congruent/STIM_008.jpg
1827.577	0.727	correct	congruent	Block2	congruent/STIM_008.jpg
1830.749	0.712	correct	congruent	Block2	congruent/STIM_008.jpg
1833.531	0.567	correct	congruent	Block2	congruent/STIM_009.jpg
1837.683	0.7	correct	congruent	Block2	congruent/STIM_009.jpg
1841.074	0.688	correct	congruent	Block2	congruent/STIM_009.jpg
1845.302	0.628	correct	congruent	Block2	congruent/STIM_009.jpg
1848.839	0.445	correct	congruent	Block2	congruent/STIM_009.jpg
1852.426	0.426	correct	congruent	Block2	congruent/STIM_010.jpg
1855.393	0.47	correct	congruent	Block2	congruent/STIM_010.jpg
1858.253	0.414	correct	congruent	Block2	congruent/STIM_010.jpg
1861.775	0.616	correct	congruent	Block2	congruent/STIM_010.jpg
1866.002	0.54	correct	congruent	Block2	congruent/STIM_010.jpg
1870.007	0.573	correct	congruent	Block2	congruent/STIM_011.jpg
1873.186	0.484	incorrect	congruent	Block2	congruent/STIM_011.jpg
1876.519	0.686	correct	congruent	Block2	congruent/STIM_011.jpg
1879.566	0.616	correct	congruent	Block2	congruent/STIM_011.jpg
1883.254	0.544	correct	congruent	Block2	congruent/STIM_011.jpg
1887.53	0.707	correct	congruent	Block2	congruent/STIM_012.jpg
1890.421	0.604	correct	congruent	Block2	congruent/STIM_012.jpg
1893.914	0.437	correct	congruent	Block2	congruent/STIM_012.jpg
1897.315	0.61	correct	congruent	Block2	congruent/STIM_012.jpg
1901.465	0.624	correct	congruent	Block2	congruent/STIM_012.jpg
1905.244	0.695	correct	congruent	Block2	congruent/STIM_013.jpg
1907.939	0.505	correct	congruent	Block2	congruent/STIM_013.jpg
1912.44	0.49	correct	congruent	Block2	congruent/STIM_013.jpg
1915.53	0.739	correct	congruent	Block2	congruent/STIM_013.jpg
1918.432	0.463	correct	congruent	Block2	congruent/STIM_013.jpg
1922.394	0.668	correct	congruent	Block2	congruent/STIM_014.jpg
1925.995	0.671	correct	congruent	Block2	congruent/STIM_014.jpg
1929.1	0.727	incorrect	congruent	Block2	congruent/STIM_014.jpg
1932.465	0.431	correct	congruent	Block2	congruent/STIM_014.jpg
1936.132	0.619	correct	congruent	Block2	congruent/STIM_014.jpg
1940.456	0.666	correct	congruent	Block2	congruent/STIM_015.jpg
1943.603	0.493	correct	congruent	Block2	congruent/STIM_015.jpg
1946.469	0.576	correct	congruent	Block2	congruent/STIM_015.jpg
1949.325	0.561	correct	congruent	Block2	congruent/STIM_015.jpg
1951.921	0.738	incorrect	congruent	Block2	congruent/STIM_015.jpg
1955.063	0.418	correct	congruent	Block2	congruent/STIM_016.jpg
1958.672	0.512	correct	congruent	Block2	congruent/STIM_016.jpg
1962.022	0.548	correct	congruent	Block2	congruent/STIM_016.jpg
1965.696	0.678	correct	congruent	Block2	congruent/STIM_016.jpg
1969.889	0.531	correct	congruent	Block2	congruent/STIM_016.jpg
1974.262	0.542	correct	congruent	Block2	congruent/STIM_017.jpg
1977.861	0.674	correct	congruent	Block2	congruent/STIM_017.jpg
1982.418	0.686	correct	congruent	Block2	congruent/STIM_017.jpg
1986.844	0.699	incorrect	congruent	Block2	congruent/STIM_017.jpg
1989.681	0.472	correct	congruent	Block2	congruent/STIM_017.jpg
1993.483	0.458	correct	congruent	Block2	congruent/STIM_018.jpg
1997.447	0.662	correct	congruent	Block2	congruent/STIM_018.jpg
2000.61	0.714	incorrect	congruent	Block2	congruent/STIM_018.jpg
2003.582	0.598	correct	congruent	Block2	congruent/STIM_018.jpg
2007.136	0.688	correct	congruent	Block2	congruent/STIM_018.jpg
2010.942	0.5	correct	congruent	Block2	congruent/STIM_019.jpg
2014.109	0.411	correct	congruent	Block2	congruent/STIM_019.jpg
2017.422	0.667	correct	congruent	Block2	congruent/STIM_019.jpg
2020.78	0.728	correct	congruent	Block2	congruent/STIM_019.jpg
2025.274	0.666	correct	congruent	Block2	congruent/STIM_019.jpg
2029.054	0.509	correct	congruent	Block2	congruent/STIM_020.jpg
2032.75	0.458	correct	congruent	Block2	congruent/STIM_020.jpg
2035.637	0.639	incorrect	congruent	Block2	congruent/STIM_020.jpg
2039.225	0.509	correct	congruent	Block2	congruent/STIM_020.jpg
2043.282	0.454	correct	congruent	Block2	congruent/STIM_020.jpg
2046.909	0.572	correct	congruent	Block2	congruent/STIM_021.jpg
2050.789	0.605	correct	congruent	Block2	congruent/STIM_021.jpg
2054.637	0.514	correct	congruent	Block2	congruent/STIM_021.jpg
2059.063	0.569	correct	congruent	Block2	congruent/STIM_021.jpg
2063.188	0.497	correct	congruent	Block2	congruent/STIM_021.jpg
2065.935	0.627	incorrect	congruent	Block2	congruent/STIM_022.jpg
2070.152	0.664	incorrect	congruent	Block2	congruent/STIM_022.jpg
2072.841	0.73	correct	congruent	Block2	congruent/STIM_022.jpg
2076.054	0.516	correct	congruent	Block2	congruent/STIM_022.jpg
2080.569	0.413	correct	congruent	Block2	congruent/STIM_022.jpg
2083.97	0.496	incorrect	congruent	Block2	congruent/STIM_023.jpg
2087.086	0.622	correct	congruent	Block2	congruent/STIM_023.jpg
2091.508	0.582	correct	congruent	Block2	congruent/STIM_023.jpg
2094.751	0.719	correct	congruent	Block2	congruent/STIM_023.jpg
2098.794	0.621	correct	congruent	Block2	congruent/STIM_023.jpg
2102.256	0.592	correct	congruent	Block2	congruent/STIM_024.jpg
2106.252	0.531	incorrect	congruent	Block2	congruent/STIM_024.jpg
2110.739	0.451	correct	congruent	Block2	congruent/STIM_024.jpg
2113.206	0.502	correct	congruent	Block2	congruent/STIM_024.jpg
2116.75	0.727	incorrect	congruent	Block2	congruent/STIM_024.jpg
2120.638	0.412	correct	congruent	Block2	congruent/STIM_025.jpg
2123.958	0.643	correct	congruent	Block2	congruent/STIM_025.jpg
2128.089	0.438	correct	congruent	Block2	congruent/STIM_025.jpg
2131.781	0.62	correct	congruent	Block2	congruent/STIM_025.jpg
2134.493	0.684	correct	congruent	Block2	congruent/STIM_025.jpg
2137.942	0.578	correct	congruent	Block2	congruent/STIM_026.jpg
2141.878	0.624	correct	congruent	Block2	congruent/STIM_026.jpg
2146.432	0.585	correct	congruent	Block2	congruent/STIM_026.jpg
2150.087	0.5	correct	congruent	Block2	congruent/STIM_026.jpg
2153.937	0.551	incorrect	congruent	Block2	congruent/STIM_026.jpg
2157.914	0.602	correct	congruent	Block2	congruent/STIM_027.jpg
2161.004	0.672	correct	congruent	Block2	congruent/STIM_027.jpg
2163.913	0.522	correct	congruent	Block2	congruent/STIM_027.jpg
2167.105	0.495	correct	congruent	Block2	congruent/STIM_027.jpg
2171.442	0.673	correct	congruent	Block2	congruent/STIM_027.jpg
2175.954	0.486	correct	congruent	Block2	congruent/STIM_028.jpg
2179.624	0.64	correct	congruent	Block2	congruent/STIM_028.jpg
2182.314	0.441	correct	congruent	Block2	congruent/STIM_028.jpg
2185.285	0.674	correct	congruent	Block2	congruent/STIM_028.jpg
2188.882	0.586	correct	congruent	Block2	congruent/STIM_028.jpg
2192.725	0.609	correct	congruent	Block2	congruent/STIM_029.jpg
2195.482	0.683	correct	congruent	Block2	congruent/STIM_029.jpg
2199.704	0.514	correct	congruent	Block2	congruent/STIM_029.jpg
2202.219	0.485	correct	congruent	Block2	congruent/STIM_029.jpg
2206.429	0.489	correct	congruent	Block2	congruent/STIM_029.jpg
2210.208	0.44	correct	incongruent	Block3	incongruent/STIM_000.jpg
2212.952	0.827	correct	incongruent	Block3	incongruent/STIM_000.jpg
2217.566	0.791	correct	incongruent	Block3	incongruent/STIM_000.jpg
2221.994	0.591	correct	incongruent	Block3	incongruent/STIM_000.jpg
2225.87	0.683	correct	incongruent	Block3	incongruent/STIM_000.jpg
2229.495	0.516	correct	incongruent	Block3	incongruent/STIM_001.jpg
2232.935	0.532	correct	incongruent	Block3	incongruent/STIM_001.jpg
2236.588	0.802	correct	incongruent	Block3	incongruent/STIM_001.jpg
2240.527	0.45	correct	incongruent	Block3	incongruent/STIM_001.jpg
2243.211	0.849	correct	incongruent	Block3	incongruent/STIM_001.jpg
2246.921	0.412	correct	incongruent	Block3	incongruent/STIM_002.jpg
2249.545	0.812	correct	incongruent	Block3	incongruent/STIM_002.jpg
2252.514	0.497	incorrect	incongruent	Block3	incongruent/STIM_002.jpg
2256.306	0.518	correct	incongruent	Block3	incongruent/STIM_002.jpg
2260.801	0.689	correct	incongruent	Block3	incongruent/STIM_002.jpg
2264.627	0.717	correct	incongruent	Block3	incongruent/STIM_003.jpg
2269.204	0.415	correct	incongruent	Block3	incongruent/STIM_003.jpg
2272.118	0.704	incorrect	incongruent	Block3	incongruent/STIM_003.jpg
2275.271	0.63	correct	incongruent	Block3	incongruent/STIM_003.jpg
2278.496	0.729	correct	incongruent	Block3	incongruent/STIM_003.jpg
2282.86	0.767	correct	incongruent	Block3	incongruent/STIM_004.jpg
2286.612	0.675	correct	incongruent	Block3	incongruent/STIM_004.jpg
2291.098	0.839	correct	incongruent	Block3	incongruent/STIM_004.jpg
2294.39	0.56	correct	incongruent	Block3	incongruent/STIM_004.jpg
2297.313	0.497	correct	incongruent	Block3	incongruent/STIM_004.jpg
2300.052	0.6	correct	incongruent	Block3	incongruent/STIM_005.jpg
2303.248	0.741	correct	incongruent	Block3	incongruent/STIM_005.jpg
2306.504	0.825	correct	incongruent	Block3	incongruent/STIM_005.jpg
2310.091	0.721	correct	incongruent	Block3	incongruent/STIM_005.jpg
2314.301	0.714	correct	incongruent	Block3	incongruent/STIM_005.jpg
2318.469	0.804	correct	incongruent	Block3	incongruent/STIM_006.jpg
2321.323	0.412	correct	incongruent	Block3	incongruent/STIM_006.jpg
2324.592	0.499	correct	incongruent	Block3	incongruent/STIM_006.jpg
2328.871	0.469	correct	incongruent	Block3	incongruent/STIM_006.jpg
2332.862	0.764	correct	incongruent	Block3	incongruent/STIM_006.jpg
2337.059	0.607	correct	incongruent	Block3	incongruent/STIM_007.jpg
2340.508	0.8	correct	incongruent	Block3	incongruent/STIM_007.jpg
2344.856	0.84	correct	incongruent	Block3	incongruent/STIM_007.jpg
2348.381	0.611	correct	incongruent	Block3	incongruent/STIM_007.jpg
2351.09	0.446	correct	incongruent	Block3	incongruent/STIM_007.jpg
2355.117	0.8	correct	incongruent	Block3	incongruent/STIM_008.jpg
2358.37	0.425	correct	incongruent	Block3	incongruent/STIM_008.jpg
2362.515	0.559	correct	incongruent	Block3	incongruent/STIM_008.jpg
2366.126	0.696	correct	incongruent	Block3	incongruent/STIM_008.jpg
2370.703	0.561	correct	incongruent	Block3	incongruent/STIM_008.jpg
2374.474	0.478	correct	incongruent	Block3	incongruent/STIM_009.jpg
2377.55	0.549	correct	incongruent	Block3	incongruent/STIM_009.jpg
2381.936	0.471	correct	incongruent	Block3	incongruent/STIM_009.jpg
2385.09	0.428	correct	incongruent	Block3	incongruent/STIM_009.jpg
2387.587	0.598	correct	incongruent	Block3	incongruent/STIM_009.jpg
2391.654	0.801	correct	incongruent	Block3	incongruent/STIM_010.jpg
2396.3	0.828	correct	incongruent	Block3	incongruent/STIM_010.jpg
2400.248	0.533	correct	incongruent	Block3	incongruent/STIM_010.jpg
2404.185	0.551	correct	incongruent	Block3	incongruent/STIM_010.jpg
2407.814	0.632	correct	incongruent	Block3	incongruent/STIM_010.jpg
2410.468	0.8	correct	incongruent	Block3	incongruent/STIM_011.jpg
2413.709	0.546	correct	incongruent	Block3	incongruent/STIM_011.jpg
2416.389	0.534	correct	incongruent	Block3	incongruent/STIM_011.jpg
2420.22	0.675	correct	incongruent	Block3	incongruent/STIM_011.jpg
2423.728	0.805	correct	incongruent	Block3	incongruent/STIM_011.jpg
2428.122	0.654	incorrect	incongruent	Block3	incongruent/STIM_012.jpg
2431.84	0.761	correct	incongruent	Block3	incongruent/STIM_012.jpg
2434.704	0.611	correct	incongruent	Block3	incongruent/STIM_012.jpg
2438.836	0.708	correct	incongruent	Block3	incongruent/STIM_012.jpg
2443.443	0.741	correct	incongruent	Block3	incongruent/STIM_012.jpg
2446.822	0.754	correct	incongruent	Block3	incongruent/STIM_013.jpg
2450.437	0.48	correct	incongruent	Block3	incongruent/STIM_013.jpg
2454.432	0.654	correct	incongruent	Block3	incongruent/STIM_013.jpg
2457.401	0.507	correct	incongruent	Block3	incongruent/STIM_013.jpg
2460.894	0.468	correct	incongruent	Block3	incongruent/STIM_013.jpg
2464.1	0.617	correct	incongruent	Block3	incongruent/STIM_014.jpg
2467.661	0.656	correct	incongruent	Block3	incongruent/STIM_014.jpg
2471.94	0.613	correct	incongruent	Block3	incongruent/STIM_014.jpg
2475.119	0.5	correct	incongruent	Block3	incongruent/STIM_014.jpg
2478.41	0.532	correct	incongruent	Block3	incongruent/STIM_014.jpg
2481.604	0.564	correct	incongruent	Block3	incongruent/STIM_015.jpg
2485.784	0.628	correct	incongruent	Block3	incongruent/STIM_015.jpg
2488.699	0.539	correct	incongruent	Block3	incongruent/STIM_015.jpg
2492.612	0.796	correct	incongruent	Block3	incongruent/STIM_015.jpg
2495.787	0.59	correct	incongruent	Block3	incongruent/STIM_015.jpg
2498.683	0.544	correct	incongruent	Block3	incongruent/STIM_016.jpg
2502.433	0.576	correct	incongruent	Block3	incongruent/STIM_016.jpg
2505.849	0.408	correct	incongruent	Block3	incongruent/STIM_016.jpg
2509.332	0.538	correct	incongruent	Block3	incongruent/STIM_016.jpg
2512.809	0.657	correct	incongruent	Block3	incongruent/STIM_016.jpg
2516.491	0.63	correct	incongruent	Block3	incongruent/STIM_017.jpg
2520.325	0.605	correct	incongruent	Block3	incongruent/STIM_017.jpg
2524.912	0.695	correct	incongruent	Block3	incongruent/STIM_017.jpg
2529.094	0.511	correct	incongruent	Block3	incongruent/STIM_017.jpg
2533.326	0.609	correct	incongruent	Block3	incongruent/STIM_017.jpg
2537.259	0.515	correct	incongruent	Block3	incongruent/STIM_018.jpg
2541.732	0.553	correct	incongruent	Block3	incongruent/STIM_018.jpg
2545.343	0.457	correct	incongruent	Block3	incongruent/STIM_018.jpg
2548.903	0.629	correct	incongruent	Block3	incongruent/STIM_018.jpg
2553.49	0.789	correct	incongruent	Block3	incongruent/STIM_018.jpg
2557.117	0.71	correct	incongruent	Block3	incongruent/STIM_019.jpg
2560.676	0.517	correct	incongruent	Block3	incongruent/STIM_019.jpg
2563.42	0.691	correct	incongruent	Block3	incongruent/STIM_019.jpg
2566.354	0.694	correct	incongruent	Block3	incongruent/STIM_019.jpg
2569.238	0.601	correct	incongruent	Block3	incongruent/STIM_019.jpg
2573.634	0.523	correct	incongruent	Block3	incongruent/STIM_020.jpg
2576.397	0.821	correct	incongruent	Block3	incongruent/STIM_020.jpg
2579.242	0.489	correct	incongruent	Block3	incongruent/STIM_020.jpg
2582.134	0.612	correct	incongruent	Block3	incongruent/STIM_020.jpg
2585.185	0.732	correct	incongruent	Block3	incongruent/STIM_020.jpg
2589.696	0.442	correct	incongruent	Block3	incongruent/STIM_021.jpg
2593.92	0.728	correct	incongruent	Block3	incongruent/STIM_021.jpg
2598.588	0.729	correct	incongruent	Block3	incongruent/STIM_021.jpg
2602.845	0.654	correct	incongruent	Block3	incongruent/STIM_021.jpg
2606.023	0.694	correct	incongruent	Block3	incongruent/STIM_021.jpg
2610.67	0.857	correct	incongruent	Block3	incongruent/STIM_022.jpg
2614.087	0.595	correct	incongruent	Block3	incongruent/STIM_022.jpg
2618.437	0.566	correct	incongruent	Block3	incongruent/STIM_022.jpg
2621.482	0.651	correct	incongruent	Block3	incongruent/STIM_022.jpg
2625.069	0.861	correct	incongruent	Block3	incongruent/STIM_022.jpg
2629.459	0.741	correct	incongruent	Block3	incongruent/STIM_023.jpg
2633.862	0.607	correct	incongruent	Block3	incongruent/STIM_023.jpg
2636.647	0.423	correct	incongruent	Block3	incongruent/STIM_023.jpg
2639.128	0.506	correct	incongruent	Block3	incongruent/STIM_023.jpg
2641.846	0.602	correct	incongruent	Block3	incongruent/STIM_023.jpg
2646.432	0.764	correct	incongruent	Block3	incongruent/STIM_024.jpg
2650.95	0.591	correct	incongruent	Block3	incongruent/STIM_024.jpg
2654.838	0.823	correct	incongruent	Block3	incongruent/STIM_024.jpg
2659.648	0.672	correct	incongruent	Block3	incongruent/STIM_024.jpg
2664.062	0.541	correct	incongruent	Block3	incongruent/STIM_024.jpg
2666.609	0.853	correct	incongruent	Block3	incongruent/STIM_025.jpg
2671.163	0.618	correct	incongruent	Block3	incongruent/STIM_025.jpg
2675.618	0.456	correct	incongruent	Block3	incongruent/STIM_025.jpg
2678.226	0.656	correct	incongruent	Block3	incongruent/STIM_025.jpg
2682.343	0.745	correct	incongruent	Block3	incongruent/STIM_025.jpg
2687.019	0.428	correct	incongruent	Block3	incongruent/STIM_026.jpg
2691.268	0.854	correct	incongruent	Block3	incongruent/STIM_026.jpg
2694.274	0.505	correct	incongruent	Block3	incongruent/STIM_026.jpg
2697.603	0.823	correct	incongruent	Block3	incongruent/STIM_026.jpg
2702.337	0.771	correct	incongruent	Block3	incongruent/STIM_026.jpg
2706.072	0.467	correct	incongruent	Block3	incongruent/STIM_027.jpg
2709.864	0.744	correct	incongruent	Block3	incongruent/STIM_027.jpg
2713.623	0.595	incorrect	incongruent	Block3	incongruent/STIM_027.jpg
2717.856	0.793	correct	incongruent	Block3	incongruent/STIM_027.jpg
2722.408	0.676	correct	incongruent	Block3	incongruent/STIM_027.jpg
2726.622	0.795	incorrect	incongruent	Block3	incongruent/STIM_028.jpg
2730.306	0.696	correct	incongruent	Block3	incongruent/STIM_028.jpg
2734.559	0.833	correct	incongruent	Block3	incongruent/STIM_028.jpg
2739.148	0.844	correct	incongruent	Block3	incongruent/STIM_028.jpg
2742.883	0.702	correct	incongruent	Block3	incongruent/STIM_028.jpg
2747.507	0.651	correct	incongruent	Block3	incongruent/STIM_029.jpg
2750.203	0.473	correct	incongruent	Block3	incongruent/STIM_029.jpg
2753.588	0.59	correct	incongruent	Block3	incongruent/STIM_029.jpg
2757.61	0.596	correct	incongruent	Block3	incongruent/STIM_029.jpg
2761.181	0.693	correct	incongruent	Block3	incongruent/STIM_029.jpg
2764.869	0.634	correct	congruent	Block3	congruent/STIM_000.jpg
2767.939	0.627	correct	congruent	Block3	congruent/STIM_000.jpg
2770.805	0.554	correct	congruent	Block3	congruent/STIM_000.jpg
2773.923	0.412	correct	congruent	Block3	congruent/STIM_000.jpg
2777.223	0.553	correct	congruent	Block3	congruent/STIM_000.jpg
2780.078	0.699	correct	congruent	Block3	congruent/STIM_001.jpg
2784.286	0.734	incorrect	congruent	Block3	congruent/STIM_001.jpg
2788.703	0.494	correct	congruent	Block3	congruent/STIM_001.jpg
2792.666	0.713	correct	congruent	Block3	congruent/STIM_001.jpg
2797.08	0.596	correct	congruent	Block3	congruent/STIM_001.jpg
2801.408	0.424	incorrect	congruent	Block3	congruent/STIM_002.jpg
2805.211	0.583	correct	congruent	Block3	congruent/STIM_002.jpg
2809.385	0.544	incorrect	congruent	Block3	congruent/STIM_002.jpg
2813.902	0.458	incorrect	congruent	Block3	congruent/STIM_002.jpg
2818.339	0.696	correct	congruent	Block3	congruent/STIM_002.jpg
2822.207	0.631	correct	congruent	Block3	congruent/STIM_003.jpg
2825.24	0.733	correct	congruent	Block3	congruent/STIM_003.jpg
2829.936	0.429	correct	congruent	Block3	congruent/STIM_003.jpg
2834.351	0.698	correct	congruent	Block3	congruent/STIM_003.jpg
2837.696	0.417	correct	congruent	Block3	congruent/STIM_003.jpg
2840.386	0.417	correct	congruent	Block3	congruent/STIM_004.jpg
2843.439	0.569	correct	congruent	Block3	congruent/STIM_004.jpg
2847.104	0.686	correct	congruent	Block3	congruent/STIM_004.jpg
2851.262	0.646	correct	congruent	Block3	congruent/STIM_004.jpg
2854.824	0.506	correct	congruent	Block3	congruent/STIM_004.jpg
2858.679	0.613	incorrect	congruent	Block3	congruent/STIM_005.jpg
2862.281	0.564	correct	congruent	Block3	congruent/STIM_005.jpg
2866.822	0.672	correct	congruent	Block3	congruent/STIM_005.jpg
2871.117	0.587	correct	congruent	Block3	congruent/STIM_005.jpg
2875.203	0.695	correct	congruent	Block3	congruent/STIM_005.jpg
2877.991	0.705	incorrect	congruent	Block3	congruent/STIM_006.jpg
2881.104	0.712	correct	congruent	Block3	congruent/STIM_006.jpg
2884.709	0.673	correct	congruent	Block3	congruent/STIM_006.jpg
2888.221	0.694	correct	congruent	Block3	congruent/STIM_006.jpg
2892.139	0.667	correct	congruent	Block3	congruent/STIM_006.jpg
2895.578	0.719	incorrect	congruent	Block3	congruent/STIM_007.jpg
2899.722	0.639	correct	congruent	Block3	congruent/STIM_007.jpg
2904.34	0.474	incorrect	congruent	Block3	congruent/STIM_007.jpg
2908.291	0.547	correct	congruent	Block3	congruent/STIM_007.jpg
2912.281	0.697	correct	congruent	Block3	congruent/STIM_007.jpg
2916.172	0.673	correct	congruent	Block3	congruent/STIM_008.jpg
2919.322	0.598	correct	congruent	Block3	congruent/STIM_008.jpg
2922.263	0.499	correct	congruent	Block3	congruent/STIM_008.jpg
2925.647	0.424	correct	congruent	Block3	congruent/STIM_008.jpg
2928.63	0.522	correct	congruent	Block3	congruent/STIM_008.jpg
2931.737	0.73	correct	congruent	Block3	congruent/STIM_009.jpg
2934.569	0.687	correct	congruent	Block3	congruent/STIM_009.jpg
2938.209	0.514	correct	congruent	Block3	congruent/STIM_009.jpg
2942.67	0.504	correct	congruent	Block3	congruent/STIM_009.jpg
2946.042	0.725	correct	congruent	Block3	congruent/STIM_009.jpg
2949.658	0.639	correct	congruent	Block3	congruent/STIM_010.jpg
2953.607	0.557	correct	congruent	Block3	congruent/STIM_010.jpg
2958.156	0.625	incorrect	congruent	Block3	congruent/STIM_010.jpg
2962.26	0.72	correct	congruent	Block3	congruent/STIM_010.jpg
2966.204	0.472	correct	congruent	Block3	congruent/STIM_010.jpg
2970.377	0.625	correct	congruent	Block3	congruent/STIM_011.jpg
2973.746	0.576	incorrect	congruent	Block3	congruent/STIM_011.jpg
2977.871	0.731	correct	congruent	Block3	congruent/STIM_011.jpg
2982.555	0.48	correct	congruent	Block3	congruent/STIM_011.jpg
2985.412	0.685	correct	congruent	Block3	congruent/STIM_011.jpg
2990.003	0.701	correct	congruent	Block3	congruent/STIM_012.jpg
2993.293	0.507	correct	congruent	Block3	congruent/STIM_012.jpg
2997.736	0.595	correct	congruent	Block3	congruent/STIM_012.jpg
3001.879	0.446	correct	congruent	Block3	congruent/STIM_012.jpg
3005.001	0.61	incorrect	congruent	Block3	congruent/STIM_012.jpg
3008.278	0.646	incorrect	congruent	Block3	congruent/STIM_013.jpg
3011.924	0.558	correct	congruent	Block3	congruent/STIM_013.jpg
3014.812	0.727	correct	congruent	Block3	congruent/STIM_013.jpg
3019.461	0.588	correct	congruent	Block3	congruent/STIM_013.jpg
3023.16	0.7	correct	congruent	Block3	congruent/STIM_013.jpg
3026.356	0.419	correct	congruent	Block3	congruent/STIM_014.jpg
3030.308	0.484	correct	congruent	Block3	congruent/STIM_014.jpg
3033.285	0.622	correct	congruent	Block3	congruent/STIM_014.jpg
3037.311	0.668	correct	congruent	Block3	congruent/STIM_014.jpg
3041.644	0.488	correct	congruent	Block3	congruent/STIM_014.jpg
3044.595	0.698	correct	congruent	Block3	congruent/STIM_015.jpg
3048.663	0.524	correct	congruent	Block3	congruent/STIM_015.jpg
3052.637	0.591	correct	congruent	Block3	congruent/STIM_015.jpg
3055.434	0.673	correct	congruent	Block3	congruent/STIM_015.jpg
3059.061	0.434	correct	congruent	Block3	congruent/STIM_015.jpg
3062.435	0.554	correct	congruent	Block3	congruent/STIM_016.jpg
3065.576	0.42	correct	congruent	Block3	congruent/STIM_016.jpg
3069.066	0.421	correct	congruent	Block3	congruent/STIM_016.jpg
3073.19	0.423	correct	congruent	Block3	congruent/STIM_016.jpg
3077.032	0.419	correct	congruent	Block3	congruent/STIM_016.jpg
3080.838	0.504	incorrect	congruent	Block3	congruent/STIM_017.jpg
3085.135	0.646	correct	congruent	Block3	congruent/STIM_017.jpg
3088.674	0.522	correct	congruent	Block3	congruent/STIM_017.jpg
3091.41	0.499	correct	congruent	Block3	congruent/STIM_017.jpg
3094.713	0.707	correct	congruent	Block3	congruent/STIM_017.jpg
3098.778	0.456	correct	congruent	Block3	congruent/STIM_018.jpg
3101.473	0.647	correct	congruent	Block3	congruent/STIM_018.jpg
3106.059	0.659	correct	congruent	Block3	congruent/STIM_018.jpg
3110.486	0.722	incorrect	congruent	Block3	congruent/STIM_018.jpg
3113.519	0.466	correct	congruent	Block3	congruent/STIM_018.jpg
3116.134	0.691	incorrect	congruent	Block3	congruent/STIM_019.jpg
3118.853	0.658	correct	congruent	Block3	congruent/STIM_019.jpg
3122.797	0.598	incorrect	congruent	Block3	congruent/STIM_019.jpg
3126.941	0.533	correct	congruent	Block3	congruent/STIM_019.jpg
3130.391	0.466	correct	congruent	Block3	congruent/STIM_019.jpg
3134.441	0.632	correct	congruent	Block3	congruent/STIM_020.jpg
3138.469	0.602	correct	congruent	Block3	congruent/STIM_020.jpg
3141.261	0.427	correct	congruent	Block3	congruent/STIM_020.jpg
3145.659	0.591	incorrect	congruent	Block3	congruent/STIM_020.jpg
3150.122	0.59	correct	congruent	Block3	congruent/STIM_020.jpg
3154.22	0.514	correct	congruent	Block3	congruent/STIM_021.jpg
3157.048	0.652	correct	congruent	Block3	congruent/STIM_021.jpg
3159.963	0.454	correct	congruent	Block3	congruent/STIM_021.jpg
3164.142	0.546	correct	congruent	Block3	congruent/STIM_021.jpg
3167.237	0.649	correct	congruent	Block3	congruent/STIM_021.jpg
3170.498	0.437	correct	congruent	Block3	congruent/STIM_022.jpg
3174.202	0.43	correct	congruent	Block3	congruent/STIM_022.jpg
3177.521	0.694	incorrect	congruent	Block3	congruent/STIM_022.jpg
3181.366	0.425	correct	congruent	Block3	congruent/STIM_022.jpg
3185.695	0.597	correct	congruent	Block3	congruent/STIM_022.jpg
3190.073	0.443	correct	congruent	Block3	congruent/STIM_023.jpg
3193.281	0.488	correct	congruent	Block3	congruent/STIM_023.jpg
3196.343	0.601	correct	congruent	Block3	congruent/STIM_023.jpg
3200.877	0.675	correct	congruent	Block3	congruent/STIM_023.jpg
3203.927	0.411	correct	congruent	Block3	congruent/STIM_023.jpg
3207.083	0.444	correct	congruent	Block3	congruent/STIM_024.jpg
3211.17	0.701	correct	congruent	Block3	congruent/STIM_024.jpg
3214.015	0.464	correct	congruent	Block3	congruent/STIM_024.jpg
3217.661	0.715	correct	congruent	Block3	congruent/STIM_024.jpg
3220.979	0.55	incorrect	congruent	Block3	congruent/STIM_024.jpg
3225.015	0.692	correct	congruent	Block3	congruent/STIM_025.jpg
3228.864	0.672	correct	congruent	Block3	congruent/STIM_025.jpg
3233.241	0.424	correct	congruent	Block3	congruent/STIM_025.jpg
3237.408	0.52	correct	congruent	Block3	congruent/STIM_025.jpg
3241.036	0.629	correct	congruent	Block3	congruent/STIM_025.jpg
3244.624	0.456	correct	congruent	Block3	congruent/STIM_026.jpg
3248.164	0.706	incorrect	congruent	Block3	congruent/STIM_026.jpg
3251.061	0.627	correct	congruent	Block3	congruent/STIM_026.jpg
3254.611	0.531	correct	congruent	Block3	congruent/STIM_026.jpg
3257.616	0.49	correct	congruent	Block3	congruent/STIM_026.jpg
3261.702	0.606	correct	congruent	Block3	congruent/STIM_027.jpg
3264.442	0.657	correct	congruent	Block3	congruent/STIM_027.jpg
3268.912	0.653	correct	congruent	Block3	congruent/STIM_027.jpg
3272.829	0.613	correct	congruent	Block3	congruent/STIM_027.jpg
3277.23	0.661	correct	congruent	Block3	congruent/STIM_027.jpg
3280.061	0.526	correct	congruent	Block3	congruent/STIM_028.jpg
3284.36	0.613	correct	congruent	Block3	congruent/STIM_028.jpg
3287.516	0.624	incorrect	congruent	Block3	congruent/STIM_028.jpg
3290.445	0.463	correct	congruent	Block3	congruent/STIM_028.jpg
3293.204	0.597	correct	congruent	Block3	congruent/STIM_028.jpg
3295.815	0.576	correct	congruent	Block3	congruent/STIM_029.jpg
3299.129	0.482	correct	congruent	Block3	congruent/STIM_029.jpg
3303.589	0.478	correct	congruent	Block3	congruent/STIM_029.jpg
3307.158	0.6	correct	congruent	Block3	congruent/STIM_029.jpg
3310.174	0.5	correct	congruent	Block3	congruent/STIM_029.jpg
