onset	duration	accuracy_binary	trial_type	learning_stage	stimulus
0.0	1.186	0	2back	Block1	2back/STIM_000.jpg
4.493	0.579	1	2back	Block1	2back/STIM_000.jpg
8.934	1.112	1	2back	Block1	2back/STIM_000.jpg
12.241	0.712	1	2back	Block1	2back/STIM_001.jpg
16.879	0.598	1	2back	Block1	2back/STIM_001.jpg
19.955	0.837	0	2back	Block1	2back/STIM_001.jpg
22.955	1.106	1	2back	Block1	2back/STIM_002.jpg
27.931	0.971	1	2back	Block1	2back/STIM_002.jpg
32.554	0.794	1	2back	Block1	2back/STIM_002.jpg
37.238	0.762	0	2back	Block1	2back/STIM_003.jpg
40.22	0.993	1	2back	Block1	2back/STIM_003.jpg
45.077	0.942	1	2back	Block1	2back/STIM_003.jpg
48.482	0.537	1	2back	Block1	2back/STIM_004.jpg
52.512	0.567	1	2back	Block1	2back/STIM_004.jpg
55.78	0.794	0	2back	Block1	2back/STIM_004.jpg
60.385	1.236	1	2back	Block1	2back/STIM_005.jpg
64.127	1.045	1	2back	Block1	2back/STIM_005.jpg
68.455	0.624	1	2back	Block1	2back/STIM_005.jpg
73.018	1.133	0	2back	Block1	2back/STIM_006.jpg
76.471	0.839	1	2back	Block1	2back/STIM_006.jpg
81.167	0.716	1	2back	Block1	2back/STIM_006.jpg
84.253	0.945	1	2back	Block1	2back/STIM_007.jpg
87.448	0.669	1	2back	Block1	2back/STIM_007.jpg
91.109	1.047	1	2back	Block1	2back/STIM_007.jpg
94.987	0.711	1	2back	Block1	2back/STIM_008.jpg
99.39	1.004	1	2back	Block1	2back/STIM_008.jpg
102.95	0.954	1	2back	Block1	2back/STIM_008.jpg
106.03	1.098	1	2back	Block1	2back/STIM_009.jpg
110.696	0.752	1	2back	Block1	2back/STIM_009.jpg
113.979	0.516	1	2back	Block1	2back/STIM_009.jpg
117.605	0.839	1	2back	Block1	2back/STIM_010.jpg
121.774	1.102	1	2back	Block1	2back/STIM_010.jpg
126.872	0.501	1	2back	Block1	2back/STIM_010.jpg
130.908	0.834	1	2back	Block1	2back/STIM_011.jpg
134.171	0.961	1	2back	Block1	2back/STIM_011.jpg
138.061	0.862	1	2back	Block1	2back/STIM_011.jpg
142.328	1.149	0	2back	Block1	2back/STIM_012.jpg
146.07	0.754	1	2back	Block1	2back/STIM_012.jpg
150.469	0.696	1	2back	Block1	2back/STIM_012.jpg
154.776	1.061	0	2back	Block1	2back/STIM_013.jpg
159.599	1.094	1	2back	Block1	2back/STIM_013.jpg
163.779	0.555	0	2back	Block1	2back/STIM_013.jpg
166.423	0.697	1	2back	Block1	2back/STIM_014.jpg
169.932	1.126	1	2back	Block1	2back/STIM_014.jpg
173.374	0.954	1	2back	Block1	2back/STIM_014.jpg
176.64	0.722	1	2back	Block1	2back/STIM_015.jpg
180.128	0.579	1	2back	Block1	2back/STIM_015.jpg
182.865	0.907	1	2back	Block1	2back/STIM_015.jpg
187.282	0.97	0	2back	Block1	2back/STIM_016.jpg
191.282	1.059	1	2back	Block1	2back/STIM_016.jpg
194.867	1.004	1	2back	Block1	2back/STIM_016.jpg
198.181	1.143	1	2back	Block1	2back/STIM_017.jpg
202.067	1.075	1	2back	Block1	2back/STIM_017.jpg
206.611	1.089	1	2back	Block1	2back/STIM_017.jpg
210.128	0.588	1	2back	Block1	2back/STIM_018.jpg
214.533	0.518	1	2back	Block1	2back/STIM_018.jpg
217.944	0.543	1	2back	Block1	2back/STIM_018.jpg
221.643	0.81	1	2back	Block1	2back/STIM_019.jpg
225.102	0.588	1	2back	Block1	2back/STIM_019.jpg
227.797	0.538	1	2back	Block1	2back/STIM_019.jpg
231.877	0.971	1	2back	Block1	2back/STIM_020.jpg
235.347	1.117	1	2back	Block1	2back/STIM_020.jpg
239.763	0.931	1	2back	Block1	2back/STIM_020.jpg
244.414	1.072	1	2back	Block1	2back/STIM_021.jpg
249.301	0.603	1	2back	Block1	2back/STIM_021.jpg
251.992	0.647	1	2back	Block1	2back/STIM_021.jpg
255.094	1.17	1	2back	Block1	2back/STIM_022.jpg
258.874	1.136	1	2back	Block1	2back/STIM_022.jpg
262.392	0.889	1	2back	Block1	2back/STIM_022.jpg
266.096	1.23	1	2back	Block1	2back/STIM_023.jpg
269.6	0.607	1	2back	Block1	2back/STIM_023.jpg
272.914	0.748	1	2back	Block1	2back/STIM_023.jpg
275.767	1.163	1	2back	Block1	2back/STIM_024.jpg
278.964	1.04	1	2back	Block1	2back/STIM_024.jpg
282.863	0.678	0	2back	Block1	2back/STIM_024.jpg
285.976	0.823	1	2back	Block1	2back/STIM_025.jpg
290.595	0.721	1	2back	Block1	2back/STIM_025.jpg
293.615	1.049	1	2back	Block1	2back/STIM_025.jpg
297.426	0.95	1	2back	Block1	2back/STIM_026.jpg
300.79	0.521	1	2back	Block1	2back/STIM_026.jpg
303.678	1.08	1	2back	Block1	2back/STIM_026.jpg
307.708	0.772	1	2back	Block1	2back/STIM_027.jpg
311.018	1.007	1	2back	Block1	2back/STIM_027.jpg
315.688	0.495	1	2back	Block1	2back/STIM_027.jpg
320.023	1.219	1	2back	Block1	2back/STIM_028.jpg
323.843	0.93	1	2back	Block1	2back/STIM_028.jpg
328.555	0.786	1	2back	Block1	2back/STIM_028.jpg
333.119	0.955	1	2back	Block1	2back/STIM_029.jpg
337.883	0.505	1	2back	Block1	2back/STIM_029.jpg
341.689	0.728	1	2back	Block1	2back/STIM_029.jpg
345.802	0.93	0	2back	Block1	2back/STIM_030.jpg
350.07	0.938	0	2back	Block1	2back/STIM_030.jpg
354.463	0.704	1	2back	Block1	2back/STIM_030.jpg
358.665	1.034	0	2back	Block1	2back/STIM_031.jpg
363.66	1.027	1	2back	Block1	2back/STIM_031.jpg
367.28	1.062	1	2back	Block1	2back/STIM_031.jpg
371.611	0.724	1	2back	Block1	2back/STIM_032.jpg
374.758	0.517	1	2back	Block1	2back/STIM_032.jpg
377.694	0.638	1	2back	Block1	2back/STIM_032.jpg
381.24	0.862	1	2back	Block1	2back/STIM_033.jpg
384.542	0.582	1	2back	Block1	2back/STIM_033.jpg
387.612	0.988	1	2back	Block1	2back/STIM_033.jpg
390.794	1.097	1	2back	Block1	2back/STIM_034.jpg
395.359	0.773	1	2back	Block1	2back/STIM_034.jpg
398.793	1.06	1	2back	Block1	2back/STIM_034.jpg
403.818	0.72	1	2back	Block1	2back/STIM_035.jpg
406.941	1.049	1	2back	Block1	2back/STIM_035.jpg
411.937	0.896	1	2back	Block1	2back/STIM_035.jpg
416.127	1.215	1	2back	Block1	2back/STIM_036.jpg
420.928	0.924	1	2back	Block1	2back/STIM_036.jpg
424.568	0.678	1	2back	Block1	2back/STIM_036.jpg
428.732	0.83	1	2back	Block1	2back/STIM_037.jpg
432.234	0.804	1	2back	Block1	2back/STIM_037.jpg
436.003	0.933	1	2back	Block1	2back/STIM_037.jpg
438.949	1.218	1	2back	Block1	2back/STIM_038.jpg
442.357	0.605	1	2back	Block1	2back/STIM_038.jpg
446.027	0.66	1	2back	Block1	2back/STIM_038.jpg
450.037	0.823	1	2back	Block1	2back/STIM_039.jpg
454.229	0.705	1	2back	Block1	2back/STIM_039.jpg
457.054	0.759	1	2back	Block1	2back/STIM_039.jpg
460.057	0.441	1	0back	Block1	0back/STIM_000.jpg
463.755	0.376	1	0back	Block1	0back/STIM_000.jpg
467.61	0.566	1	0back	Block1	0back/STIM_000.jpg
470.283	0.386	1	0back	Block1	0back/STIM_001.jpg
474.213	0.509	1	0back	Block1	0back/STIM_001.jpg
478.464	0.689	1	0back	Block1	0back/STIM_001.jpg
482.554	0.511	1	0back	Block1	0back/STIM_002.jpg
485.992	0.563	1	0back	Block1	0back/STIM_002.jpg
490.464	0.378	1	0back	Block1	0back/STIM_002.jpg
493.254	0.409	1	0back	Block1	0back/STIM_003.jpg
497.132	0.572	1	0back	Block1	0back/STIM_003.jpg
500.055	0.396	1	0back	Block1	0back/STIM_003.jpg
503.334	0.66	1	0back	Block1	0back/STIM_004.jpg
507.146	0.404	1	0back	Block1	0back/STIM_004.jpg
510.623	0.391	1	0back	Block1	0back/STIM_004.jpg
514.512	0.601	1	0back	Block1	0back/STIM_005.jpg
517.687	0.362	1	0back	Block1	0back/STIM_005.jpg
520.757	0.624	1	0back	Block1	0back/STIM_005.jpg
523.787	0.419	1	0back	Block1	0back/STIM_006.jpg
527.144	0.393	1	0back	Block1	0back/STIM_006.jpg
531.338	0.615	1	0back	Block1	0back/STIM_006.jpg
535.934	0.41	1	0back	Block1	0back/STIM_007.jpg
539.267	0.519	1	0back	Block1	0back/STIM_007.jpg
543.269	0.651	1	0back	Block1	0back/STIM_007.jpg
547.908	0.498	1	0back	Block1	0back/STIM_008.jpg
550.782	0.467	1	0back	Block1	0back/STIM_008.jpg
554.895	0.611	1	0back	Block1	0back/STIM_008.jpg
559.003	0.558	1	0back	Block1	0back/STIM_009.jpg
562.098	0.611	1	0back	Block1	0back/STIM_009.jpg
565.393	0.523	1	0back	Block1	0back/STIM_009.jpg
569.625	0.631	1	0back	Block1	0back/STIM_010.jpg
572.33	0.648	1	0back	Block1	0back/STIM_010.jpg
576.018	0.447	0	0back	Block1	0back/STIM_010.jpg
579.071	0.596	1	0back	Block1	0back/STIM_011.jpg
581.843	0.608	1	0back	Block1	0back/STIM_011.jpg
585.278	0.504	1	0back	Block1	0back/STIM_011.jpg
588.574	0.443	1	0back	Block1	0back/STIM_012.jpg
591.08	0.595	1	0back	Block1	0back/STIM_012.jpg
594.573	0.589	1	0back	Block1	0back/STIM_012.jpg
597.431	0.399	1	0back	Block1	0back/STIM_013.jpg
600.639	0.497	1	0back	Block1	0back/STIM_013.jpg
604.778	0.542	1	0back	Block1	0back/STIM_013.jpg
608.976	0.573	1	0back	Block1	0back/STIM_014.jpg
612.673	0.364	1	0back	Block1	0back/STIM_014.jpg
616.798	0.478	1	0back	Block1	0back/STIM_014.jpg
620.511	0.474	1	0back	Block1	0back/STIM_015.jpg
624.528	0.52	1	0back	Block1	0back/STIM_015.jpg
628.346	0.495	1	0back	Block1	0back/STIM_015.jpg
632.78	0.682	1	0back	Block1	0back/STIM_016.jpg
635.489	0.703	1	0back	Block1	0back/STIM_016.jpg
638.37	0.486	1	0back	Block1	0back/STIM_016.jpg
641.556	0.491	1	0back	Block1	0back/STIM_017.jpg
644.824	0.427	1	0back	Block1	0back/STIM_017.jpg
647.505	0.563	1	0back	Block1	0back/STIM_017.jpg
652.004	0.673	1	0back	Block1	0back/STIM_018.jpg
654.998	0.526	1	0back	Block1	0back/STIM_018.jpg
657.798	0.574	1	0back	Block1	0back/STIM_018.jpg
662.365	0.393	1	0back	Block1	0back/STIM_019.jpg
666.412	0.474	1	0back	Block1	0back/STIM_019.jpg
670.752	0.684	1	0back	Block1	0back/STIM_019.jpg
674.228	0.582	1	2back	Block2	2back/STIM_000.jpg
677.187	0.462	1	2back	Block2	2back/STIM_000.jpg
680.35	0.748	1	2back	Block2	2back/STIM_000.jpg
684.667	0.474	1	2back	Block2	2back/STIM_001.jpg
687.691	0.589	0	2back	Block2	2back/STIM_001.jpg
690.802	0.569	1	2back	Block2	2back/STIM_001.jpg
694.506	0.472	1	2back	Block2	2back/STIM_002.jpg
697.722	0.52	1	2back	Block2	2back/STIM_002.jpg
701.865	0.517	1	2back	Block2	2back/STIM_002.jpg
705.408	0.985	1	2back	Block2	2back/STIM_003.jpg
710.071	0.47	1	2back	Block2	2back/STIM_003.jpg
712.887	0.417	0	2back	Block2	2back/STIM_003.jpg
716.696	0.505	1	2back	Block2	2back/STIM_004.jpg
720.523	0.863	1	2back	Block2	2back/STIM_004.jpg
724.539	0.823	1	2back	Block2	2back/STIM_004.jpg
727.908	0.596	1	2back	Block2	2back/STIM_005.jpg
731.535	0.657	1	2back	Block2	2back/STIM_005.jpg
734.413	0.416	1	2back	Block2	2back/STIM_005.jpg
737.06	0.863	1	2back	Block2	2back/STIM_006.jpg
740.022	0.929	1	2back	Block2	2back/STIM_006.jpg
743.767	0.649	1	2back	Block2	2back/STIM_006.jpg
747.063	0.895	1	2back	Block2	2back/STIM_007.jpg
750.163	0.757	1	2back	Block2	2back/STIM_007.jpg
753.241	0.828	1	2back	Block2	2back/STIM_007.jpg
756.577	0.72	0	2back	Block2	2back/STIM_008.jpg
759.752	0.662	1	2back	Block2	2back/STIM_008.jpg
762.473	0.777	1	2back	Block2	2back/STIM_008.jpg
766.557	1.034	1	2back	Block2	2back/STIM_009.jpg
770.677	0.554	1	2back	Block2	2back/STIM_009.jpg
774.478	0.422	1	2back	Block2	2back/STIM_009.jpg
777.947	1.007	1	2back	Block2	2back/STIM_010.jpg
781.585	0.576	0	2back	Block2	2back/STIM_010.jpg
785.424	0.703	1	2back	Block2	2back/STIM_010.jpg
788.573	0.931	1	2back	Block2	2back/STIM_011.jpg
792.341	0.808	1	2back	Block2	2back/STIM_011.jpg
795.681	0.69	1	2back	Block2	2back/STIM_011.jpg
799.158	0.72	1	2back	Block2	2back/STIM_012.jpg
803.794	0.952	1	2back	Block2	2back/STIM_012.jpg
808.623	0.67	1	2back	Block2	2back/STIM_012.jpg
813.11	0.541	1	2back	Block2	2back/STIM_013.jpg
816.922	0.807	1	2back	Block2	2back/STIM_013.jpg
821.707	0.789	1	2back	Block2	2back/STIM_013.jpg
826.269	0.48	1	2back	Block2	2back/STIM_014.jpg
830.042	0.494	1	2back	Block2	2back/STIM_014.jpg
833.022	0.558	1	2back	Block2	2back/STIM_014.jpg
836.729	0.577	1	2back	Block2	2back/STIM_015.jpg
839.708	0.627	1	2back	Block2	2back/STIM_015.jpg
843.631	0.706	1	2back	Block2	2back/STIM_015.jpg
848.047	0.466	1	2back	Block2	2back/STIM_016.jpg
851.782	0.843	1	2back	Block2	2back/STIM_016.jpg
854.958	0.838	1	2back	Block2	2back/STIM_016.jpg
858.748	0.735	1	2back	Block2	2back/STIM_017.jpg
863.056	0.654	1	2back	Block2	2back/STIM_017.jpg
866.918	0.647	1	2back	Block2	2back/STIM_017.jpg
869.6	0.754	1	2back	Block2	2back/STIM_018.jpg
873.209	0.65	1	2back	Block2	2back/STIM_018.jpg
877.663	0.545	1	2back	Block2	2back/STIM_018.jpg
880.55	0.677	1	2back	Block2	2back/STIM_019.jpg
884.016	0.874	1	2back	Block2	2back/STIM_019.jpg
888.792	0.767	1	2back	Block2	2back/STIM_019.jpg
892.395	0.678	1	2back	Block2	2back/STIM_020.jpg
896.661	0.939	1	2back	Block2	2back/STIM_020.jpg
900.299	0.473	1	2back	Block2	2back/STIM_020.jpg
903.975	0.527	1	2back	Block2	2back/STIM_021.jpg
907.057	0.493	1	2back	Block2	2back/STIM_021.jpg
911.235	0.672	1	2back	Block2	2back/STIM_021.jpg
915.818	0.587	1	2back	Block2	2back/STIM_022.jpg
918.549	0.832	0	2back	Block2	2back/STIM_022.jpg
923.326	0.694	1	2back	Block2	2back/STIM_022.jpg
927.256	0.713	1	2back	Block2	2back/STIM_023.jpg
930.67	0.941	1	2back	Block2	2back/STIM_023.jpg
935.461	0.882	1	2back	Block2	2back/STIM_023.jpg
938.805	0.82	1	2back	Block2	2back/STIM_024.jpg
942.714	0.915	1	2back	Block2	2back/STIM_024.jpg
946.659	0.879	1	2back	Block2	2back/STIM_024.jpg
951.268	0.944	1	2back	Block2	2back/STIM_025.jpg
956.038	0.69	1	2back	Block2	2back/STIM_025.jpg
959.327	0.921	1	2back	Block2	2back/STIM_025.jpg
962.517	0.687	1	2back	Block2	2back/STIM_026.jpg
966.532	0.833	1	2back	Block2	2back/STIM_026.jpg
970.914	0.668	1	2back	Block2	2back/STIM_026.jpg
973.671	0.617	1	2back	Block2	2back/STIM_027.jpg
977.336	0.691	1	2back	Block2	2back/STIM_027.jpg
980.825	0.82	0	2back	Block2	2back/STIM_027.jpg
985.134	0.661	1	2back	Block2	2back/STIM_028.jpg
987.931	0.882	1	2back	Block2	2back/STIM_028.jpg
991.795	0.658	1	2back	Block2	2back/STIM_028.jpg
995.635	0.615	1	2back	Block2	2back/STIM_029.jpg
999.912	0.846	1	2back	Block2	2back/STIM_029.jpg
1002.761	0.446	1	2back	Block2	2back/STIM_029.jpg
1006.055	0.593	1	2back	Block2	2back/STIM_030.jpg
1008.689	0.676	1	2back	Block2	2back/STIM_030.jpg
1013.203	0.519	1	2back	Block2	2back/STIM_030.jpg
1017.111	0.737	1	2back	Block2	2back/STIM_031.jpg
1020.708	0.841	1	2back	Block2	2back/STIM_031.jpg
1025.424	0.822	1	2back	Block2	2back/STIM_031.jpg
1030.037	0.939	1	2back	Block2	2back/STIM_032.jpg
1033.914	0.9	1	2back	Block2	2back/STIM_032.jpg
1037.34	0.783	1	2back	Block2	2back/STIM_032.jpg
1040.975	0.612	0	2back	Block2	2back/STIM_033.jpg
1044.436	0.761	1	2back	Block2	2back/STIM_033.jpg
1048.529	0.88	1	2back	Block2	2back/STIM_033.jpg
1052.825	0.67	1	2back	Block2	2back/STIM_034.jpg
1056.991	0.448	1	2back	Block2	2back/STIM_034.jpg
1060.971	0.738	1	2back	Block2	2back/STIM_034.jpg
1065.606	1.0	1	2back	Block2	2back/STIM_035.jpg
1069.051	0.926	1	2back	Block2	2back/STIM_035.jpg
1072.413	0.866	1	2back	Block2	2back/STIM_035.jpg
1076.416	0.961	0	2back	Block2	2back/STIM_036.jpg
1080.993	0.464	1	2back	Block2	2back/STIM_036.jpg
1085.342	0.808	1	2back	Block2	2back/STIM_036.jpg
1088.932	0.99	1	2back	Block2	2back/STIM_037.jpg
1093.919	0.884	1	2back	Block2	2back/STIM_037.jpg
1098.282	0.852	1	2back	Block2	2back/STIM_037.jpg
1102.195	0.511	1	2back	Block2	2back/STIM_038.jpg
1106.653	0.568	1	2back	Block2	2back/STIM_038.jpg
1110.407	0.733	1	2back	Block2	2back/STIM_038.jpg
1113.998	0.847	1	2back	Block2	2back/STIM_039.jpg
1117.312	0.725	0	2back	Block2	2back/STIM_039.jpg
1120.296	0.398	1	2back	Block2	2back/STIM_039.jpg
1122.846	0.568	1	0back	Block2	0back/STIM_000.jpg
1126.897	0.493	1	0back	Block2	0back/STIM_000.jpg
1131.001	0.447	1	0back	Block2	0back/STIM_000.jpg
1133.618	0.418	1	0back	Block2	0back/STIM_001.jpg
1137.357	0.363	1	0back	Block2	0back/STIM_001.jpg
1141.669	0.388	1	0back	Block2	0back/STIM_001.jpg
1144.658	0.589	0	0back	Block2	0back/STIM_002.jpg
1148.332	0.589	1	0back	Block2	0back/STIM_002.jpg
1150.983	0.36	1	0back	Block2	0back/STIM_002.jpg
1154.288	0.663	1	0back	Block2	0back/STIM_003.jpg
1157.06	0.607	0	0back	Block2	0back/STIM_003.jpg
1161.329	0.566	1	0back	Block2	0back/STIM_003.jpg
1164.855	0.552	0	0back	Block2	0back/STIM_004.jpg
1168.543	0.614	1	0back	Block2	0back/STIM_004.jpg
1172.941	0.442	1	0back	Block2	0back/STIM_004.jpg
1175.726	0.418	1	0back	Block2	0back/STIM_005.jpg
1178.951	0.356	1	0back	Block2	0back/STIM_005.jpg
1183.12	0.402	1	0back	Block2	0back/STIM_005.jpg
1185.927	0.542	1	0back	Block2	0back/STIM_006.jpg
1188.853	0.526	1	0back	Block2	0back/STIM_006.jpg
1193.311	0.598	1	0back	Block2	0back/STIM_006.jpg
1196.108	0.478	1	0back	Block2	0back/STIM_007.jpg
1200.478	0.663	1	0back	Block2	0back/STIM_007.jpg
1203.317	0.404	1	0back	Block2	0back/STIM_007.jpg
1206.271	0.578	0	0back	Block2	0back/STIM_008.jpg
1209.51	0.547	1	0back	Block2	0back/STIM_008.jpg
1212.267	0.405	1	0back	Block2	0back/STIM_008.jpg
1215.445	0.568	1	0back	Block2	0back/STIM_009.jpg
1219.542	0.506	1	0back	Block2	0back/STIM_009.jpg
1223.129	0.428	1	0back	Block2	0back/STIM_009.jpg
1225.673	0.571	1	0back	Block2	0back/STIM_010.jpg
1229.312	0.368	0	0back	Block2	0back/STIM_010.jpg
1232.639	0.659	1	0back	Block2	0back/STIM_010.jpg
1236.914	0.401	1	0back	Block2	0back/STIM_011.jpg
1239.329	0.525	1	0back	Block2	0back/STIM_011.jpg
1242.796	0.576	1	0back	Block2	0back/STIM_011.jpg
1246.085	0.687	1	0back	Block2	0back/STIM_012.jpg
1249.185	0.497	1	0back	Block2	0back/STIM_012.jpg
1252.835	0.592	1	0back	Block2	0back/STIM_012.jpg
1256.901	0.639	1	0back	Block2	0back/STIM_013.jpg
1261.272	0.677	1	0back	Block2	0back/STIM_013.jpg
1264.664	0.641	1	0back	Block2	0back/STIM_013.jpg
1268.098	0.529	1	0back	Block2	0back/STIM_014.jpg
1272.53	0.62	1	0back	Block2	0back/STIM_014.jpg
1276.014	0.575	1	0back	Block2	0back/STIM_014.jpg
1279.819	0.585	1	0back	Block2	0back/STIM_015.jpg
1284.282	0.696	1	0back	Block2	0back/STIM_015.jpg
1288.912	0.666	1	0back	Block2	0back/STIM_015.jpg
1291.926	0.605	1	0back	Block2	0back/STIM_016.jpg
1294.563	0.529	1	0back	Block2	0back/STIM_016.jpg
1297.576	0.533	1	0back	Block2	0back/STIM_016.jpg
1301.198	0.508	1	0back	Block2	0back/STIM_017.jpg
1304.23	0.372	1	0back	Block2	0back/STIM_017.jpg
1308.425	0.657	1	0back	Block2	0back/STIM_017.jpg
1312.145	0.438	1	0back	Block2	0back/STIM_018.jpg
1316.44	0.525	1	0back	Block2	0back/STIM_018.jpg
1319.992	0.366	0	0back	Block2	0back/STIM_018.jpg
1322.662	0.523	1	0back	Block2	0back/STIM_019.jpg
1325.811	0.52	1	0back	Block2	0back/STIM_019.jpg
1329.196	0.539	1	0back	Block2	0back/STIM_019.jpg
1333.5	0.783	1	2back	Block3	2back/STIM_000.jpg
1336.894	0.495	1	2back	Block3	2back/STIM_000.jpg
1340.223	0.652	1	2back	Block3	2back/STIM_000.jpg
1343.631	0.76	1	2back	Block3	2back/STIM_001.jpg
1347.829	0.847	1	2back	Block3	2back/STIM_001.jpg
1351.097	0.388	1	2back	Block3	2back/STIM_001.jpg
1354.661	0.667	1	2back	Block3	2back/STIM_002.jpg
1359.315	0.452	1	2back	Block3	2back/STIM_002.jpg
1361.848	0.597	1	2back	Block3	2back/STIM_002.jpg
1366.147	0.824	1	2back	Block3	2back/STIM_003.jpg
1369.443	0.843	1	2back	Block3	2back/STIM_003.jpg
1372.715	0.65	1	2back	Block3	2back/STIM_003.jpg
1377.335	0.627	1	2back	Block3	2back/STIM_004.jpg
1380.586	0.441	1	2back	Block3	2back/STIM_004.jpg
1384.133	0.509	1	2back	Block3	2back/STIM_004.jpg
1388.213	0.856	1	2back	Block3	2back/STIM_005.jpg
1391.691	0.575	1	2back	Block3	2back/STIM_005.jpg
1395.616	0.458	1	2back	Block3	2back/STIM_005.jpg
1398.955	0.442	1	2back	Block3	2back/STIM_006.jpg
1403.081	0.769	1	2back	Block3	2back/STIM_006.jpg
1406.416	0.789	1	2back	Block3	2back/STIM_006.jpg
1411.07	0.746	1	2back	Block3	2back/STIM_007.jpg
1413.953	0.612	1	2back	Block3	2back/STIM_007.jpg
1418.51	0.544	1	2back	Block3	2back/STIM_007.jpg
1422.58	0.619	1	2back	Block3	2back/STIM_008.jpg
1425.241	0.593	1	2back	Block3	2back/STIM_008.jpg
1428.402	0.636	1	2back	Block3	2back/STIM_008.jpg
1432.814	0.676	1	2back	Block3	2back/STIM_009.jpg
1435.735	0.663	1	2back	Block3	2back/STIM_009.jpg
1439.741	0.478	1	2back	Block3	2back/STIM_009.jpg
1442.806	0.432	1	2back	Block3	2back/STIM_010.jpg
1447.122	0.584	1	2back	Block3	2back/STIM_010.jpg
1450.871	0.576	1	2back	Block3	2back/STIM_010.jpg
1455.184	0.605	1	2back	Block3	2back/STIM_011.jpg
1459.609	0.649	1	2back	Block3	2back/STIM_011.jpg
1463.89	0.779	1	2back	Block3	2back/STIM_011.jpg
1467.604	0.464	1	2back	Block3	2back/STIM_012.jpg
1471.013	0.599	1	2back	Block3	2back/STIM_012.jpg
1475.574	0.632	1	2back	Block3	2back/STIM_012.jpg
1479.119	0.648	1	2back	Block3	2back/STIM_013.jpg
1482.266	0.826	1	2back	Block3	2back/STIM_013.jpg
1486.508	0.751	1	2back	Block3	2back/STIM_013.jpg
1490.273	0.573	1	2back	Block3	2back/STIM_014.jpg
1493.017	0.835	1	2back	Block3	2back/STIM_014.jpg
1497.518	0.671	1	2back	Block3	2back/STIM_014.jpg
1501.359	0.81	1	2back	Block3	2back/STIM_015.jpg
1504.399	0.383	1	2back	Block3	2back/STIM_015.jpg
1508.203	0.606	1	2back	Block3	2back/STIM_015.jpg
1512.23	0.63	1	2back	Block3	2back/STIM_016.jpg
1516.511	0.73	1	2back	Block3	2back/STIM_016.jpg
1519.355	0.42	1	2back	Block3	2back/STIM_016.jpg
1522.262	0.498	1	2back	Block3	2back/STIM_017.jpg
1525.772	0.655	1	2back	Block3	2back/STIM_017.jpg
1528.669	0.615	1	2back	Block3	2back/STIM_017.jpg
1531.575	0.715	1	2back	Block3	2back/STIM_018.jpg
1535.668	0.804	1	2back	Block3	2back/STIM_018.jpg
1539.547	0.664	1	2back	Block3	2back/STIM_018.jpg
1543.312	0.84	1	2back	Block3	2back/STIM_019.jpg
1547.109	0.436	1	2back	Block3	2back/STIM_019.jpg
1550.245	0.395	1	2back	Block3	2back/STIM_019.jpg
1552.76	0.573	1	2back	Block3	2back/STIM_020.jpg
1556.443	0.618	1	2back	Block3	2back/STIM_020.jpg
1560.678	0.757	1	2back	Block3	2back/STIM_020.jpg
1563.706	0.412	1	2back	Block3	2back/STIM_021.jpg
1566.314	0.776	1	2back	Block3	2back/STIM_021.jpg
1569.194	0.398	0	2back	Block3	2back/STIM_021.jpg
1572.612	0.491	1	2back	Block3	2back/STIM_022.jpg
1576.457	0.475	1	2back	Block3	2back/STIM_022.jpg
1579.214	0.786	1	2back	Block3	2back/STIM_022.jpg
1583.447	0.435	1	2back	Block3	2back/STIM_023.jpg
1587.783	0.642	1	2back	Block3	2back/STIM_023.jpg
1592.189	0.39	1	2back	Block3	2back/STIM_023.jpg
1595.567	0.776	1	2back	Block3	2back/STIM_024.jpg
1599.514	0.549	1	2back	Block3	2back/STIM_024.jpg
1603.397	0.842	1	2back	Block3	2back/STIM_024.jpg
1606.892	0.752	1	2back	Block3	2back/STIM_025.jpg
1609.7	0.525	1	2back	Block3	2back/STIM_025.jpg
1613.724	0.41	1	2back	Block3	2back/STIM_025.jpg
1616.268	0.455	1	2back	Block3	2back/STIM_026.jpg
1619.998	0.57	1	2back	Block3	2back/STIM_026.jpg
1624.446	0.761	1	2back	Block3	2back/STIM_026.jpg
1627.827	0.586	0	2back	Block3	2back/STIM_027.jpg
1630.518	0.661	1	2back	Block3	2back/STIM_027.jpg
1633.181	0.612	1	2back	Block3	2back/STIM_027.jpg
1637.269	0.638	1	2back	Block3	2back/STIM_028.jpg
1641.017	0.61	1	2back	Block3	2back/STIM_028.jpg
1644.156	0.736	1	2back	Block3	2back/STIM_028.jpg
1647.011	0.767	1	2back	Block3	2back/STIM_029.jpg
1651.214	0.444	1	2back	Block3	2back/STIM_029.jpg
1655.09	0.573	1	2back	Block3	2back/STIM_029.jpg
1657.765	0.586	1	2back	Block3	2back/STIM_030.jpg
1660.63	0.609	1	2back	Block3	2back/STIM_030.jpg
1663.446	0.556	1	2back	Block3	2back/STIM_030.jpg
1667.752	0.565	1	2back	Block3	2back/STIM_031.jpg
1672.164	0.79	1	2back	Block3	2back/STIM_031.jpg
1676.362	0.507	0	2back	Block3	2back/STIM_031.jpg
1679.603	0.664	1	2back	Block3	2back/STIM_032.jpg
1683.183	0.457	1	2back	Block3	2back/STIM_032.jpg
1687.311	0.503	1	2back	Block3	2back/STIM_032.jpg
1691.813	0.496	1	2back	Block3	2back/STIM_033.jpg
1695.728	0.65	1	2back	Block3	2back/STIM_033.jpg
1699.172	0.653	1	2back	Block3	2back/STIM_033.jpg
1703.498	0.418	0	2back	Block3	2back/STIM_034.jpg
1706.032	0.438	1	2back	Block3	2back/STIM_034.jpg
1709.69	0.375	1	2back	Block3	2back/STIM_034.jpg
1712.637	0.828	1	2back	Block3	2back/STIM_035.jpg
1715.524	0.524	1	2back	Block3	2back/STIM_035.jpg
1718.851	0.733	1	2back	Block3	2back/STIM_035.jpg
1722.632	0.803	1	2back	Block3	2back/STIM_036.jpg
1727.212	0.652	1	2back	Block3	2back/STIM_036.jpg
1731.482	0.431	1	2back	Block3	2back/STIM_036.jpg
1734.236	0.55	1	2back	Block3	2back/STIM_037.jpg
1737.049	0.502	1	2back	Block3	2back/STIM_037.jpg
1741.472	0.419	1	2back	Block3	2back/STIM_037.jpg
1744.006	0.575	1	2back	Block3	2back/STIM_038.jpg
1747.631	0.386	0	2back	Block3	2back/STIM_038.jpg
1750.2	0.764	1	2back	Block3	2back/STIM_038.jpg
1753.51	0.376	1	2back	Block3	2back/STIM_039.jpg
1757.188	0.84	1	2back	Block3	2back/STIM_039.jpg
1761.984	0.418	1	2back	Block3	2back/STIM_039.jpg
1766.137	0.401	1	0back	Block3	0back/STIM_000.jpg
1770.257	0.38	1	0back	Block3	0back/STIM_000.jpg
1773.277	0.465	1	0back	Block3	0back/STIM_000.jpg
1776.986	0.569	1	0back	Block3	0back/STIM_001.jpg
1781.149	0.366	1	0back	Block3	0back/STIM_001.jpg
1784.817	0.598	1	0back	Block3	0back/STIM_001.jpg
1788.472	0.53	1	0back	Block3	0back/STIM_002.jpg
1791.258	0.603	1	0back	Block3	0back/STIM_002.jpg
1794.609	0.643	1	0back	Block3	0back/STIM_002.jpg
1798.685	0.517	1	0back	Block3	0back/STIM_003.jpg
1801.723	0.379	1	0back	Block3	0back/STIM_003.jpg
1805.073	0.381	1	0back	Block3	0back/STIM_003.jpg
1809.369	0.686	1	0back	Block3	0back/STIM_004.jpg
1813.832	0.571	1	0back	Block3	0back/STIM_004.jpg
1818.16	0.474	1	0back	Block3	0back/STIM_004.jpg
1821.601	0.696	1	0back	Block3	0back/STIM_005.jpg
1824.72	0.604	1	0back	Block3	0back/STIM_005.jpg
1829.037	0.411	1	0back	Block3	0back/STIM_005.jpg
1832.905	0.402	1	0back	Block3	0back/STIM_006.jpg
1836.183	0.623	1	0back	Block3	0back/STIM_006.jpg
1839.537	0.473	1	0back	Block3	0back/STIM_006.jpg
1843.444	0.434	1	0back	Block3	0back/STIM_007.jpg
1846.615	0.627	1	0back	Block3	0back/STIM_007.jpg
1850.641	0.481	1	0back	Block3	0back/STIM_007.jpg
1854.871	0.665	1	0back	Block3	0back/STIM_008.jpg
1858.369	0.448	1	0back	Block3	0back/STIM_008.jpg
1861.079	0.422	1	0back	Block3	0back/STIM_008.jpg
1863.576	0.398	1	0back	Block3	0back/STIM_009.jpg
1866.925	0.422	1	0back	Block3	0back/STIM_009.jpg
1871.287	0.478	1	0back	Block3	0back/STIM_009.jpg
1875.412	0.706	1	0back	Block3	0back/STIM_010.jpg
1879.256	0.394	1	0back	Block3	0back/STIM_010.jpg
1882.062	0.512	1	0back	Block3	0back/STIM_010.jpg
1884.939	0.452	1	0back	Block3	0back/STIM_011.jpg
1888.711	0.483	1	0back	Block3	0back/STIM_011.jpg
1892.115	0.612	1	0back	Block3	0back/STIM_011.jpg
1895.968	0.444	1	0back	Block3	0back/STIM_012.jpg
1898.948	0.686	1	0back	Block3	0back/STIM_012.jpg
1902.883	0.655	1	0back	Block3	0back/STIM_012.jpg
1906.45	0.53	1	0back	Block3	0back/STIM_013.jpg
1910.752	0.51	1	0back	Block3	0back/STIM_013.jpg
1914.306	0.546	1	0back	Block3	0back/STIM_013.jpg
1918.851	0.497	1	0back	Block3	0back/STIM_014.jpg
1923.093	0.56	1	0back	Block3	0back/STIM_014.jpg
1927.409	0.422	1	0back	Block3	0back/STIM_014.jpg
1931.558	0.413	1	0back	Block3	0back/STIM_015.jpg
1935.513	0.611	1	0back	Block3	0back/STIM_015.jpg
1939.594	0.532	1	0back	Block3	0back/STIM_015.jpg
1942.671	0.641	1	0back	Block3	0back/STIM_016.jpg
1945.837	0.434	1	0back	Block3	0back/STIM_016.jpg
1949.55	0.444	1	0back	Block3	0back/STIM_016.jpg
1953.518	0.498	1	0back	Block3	0back/STIM_017.jpg
1956.176	0.644	1	0back	Block3	0back/STIM_017.jpg
1960.318	0.704	1	0back	Block3	0back/STIM_017.jpg
1964.196	0.553	0	0back	Block3	0back/STIM_018.jpg
1968.406	0.396	1	0back	Block3	0back/STIM_018.jpg
1971.551	0.429	1	0back	Block3	0back/STIM_018.jpg
1974.115	0.599	1	0back	Block3	0back/STIM_019.jpg
1977.884	0.571	1	0back	Block3	0back/STIM_019.jpg
1981.769	0.408	1	0back	Block3	0back/STIM_019.jpg
1984.402	0.819	1	2back	Block4	2back/STIM_000.jpg
1988.903	0.539	1	2back	Block4	2back/STIM_000.jpg
1993.072	0.731	1	2back	Block4	2back/STIM_000.jpg
1996.28	0.432	1	2back	Block4	2back/STIM_001.jpg
1998.719	0.442	1	2back	Block4	2back/STIM_001.jpg
2001.542	0.561	1	2back	Block4	2back/STIM_001.jpg
2004.23	0.529	1	2back	Block4	2back/STIM_002.jpg
2007.567	0.514	1	2back	Block4	2back/STIM_002.jpg
2010.496	0.554	1	2back	Block4	2back/STIM_002.jpg
2013.536	0.414	1	2back	Block4	2back/STIM_003.jpg
2017.472	0.717	1	2back	Block4	2back/STIM_003.jpg
2021.616	0.593	1	2back	Block4	2back/STIM_003.jpg
2025.134	0.498	1	2back	Block4	2back/STIM_004.jpg
2028.78	0.664	1	2back	Block4	2back/STIM_004.jpg
2032.045	0.82	1	2back	Block4	2back/STIM_004.jpg
2035.195	0.492	1	2back	Block4	2back/STIM_005.jpg
2038.445	0.609	1	2back	Block4	2back/STIM_005.jpg
2041.25	0.798	1	2back	Block4	2back/STIM_005.jpg
2044.191	0.747	1	2back	Block4	2back/STIM_006.jpg
2047.501	0.469	1	2back	Block4	2back/STIM_006.jpg
2051.683	0.521	1	2back	Block4	2back/STIM_006.jpg
2054.362	0.742	1	2back	Block4	2back/STIM_007.jpg
2058.346	0.82	1	2back	Block4	2back/STIM_007.jpg
2062.342	0.395	1	2back	Block4	2back/STIM_007.jpg
2066.286	0.617	1	2back	Block4	2back/STIM_008.jpg
2070.606	0.419	1	2back	Block4	2back/STIM_008.jpg
2074.189	0.776	1	2back	Block4	2back/STIM_008.jpg
2078.941	0.692	1	2back	Block4	2back/STIM_009.jpg
2083.083	0.809	1	2back	Block4	2back/STIM_009.jpg
2086.261	0.82	1	2back	Block4	2back/STIM_009.jpg
2089.085	0.624	1	2back	Block4	2back/STIM_010.jpg
2093.667	0.789	1	2back	Block4	2back/STIM_010.jpg
2097.948	0.815	1	2back	Block4	2back/STIM_010.jpg
2102.36	0.444	1	2back	Block4	2back/STIM_011.jpg
2105.687	0.564	1	2back	Block4	2back/STIM_011.jpg
2109.582	0.516	1	2back	Block4	2back/STIM_011.jpg
2113.607	0.524	1	2back	Block4	2back/STIM_012.jpg
2117.601	0.749	1	2back	Block4	2back/STIM_012.jpg
2120.994	0.594	0	2back	Block4	2back/STIM_012.jpg
2124.255	0.698	1	2back	Block4	2back/STIM_013.jpg
2127.058	0.753	1	2back	Block4	2back/STIM_013.jpg
2130.935	0.736	1	2back	Block4	2back/STIM_013.jpg
2134.197	0.606	1	2back	Block4	2back/STIM_014.jpg
2137.938	0.572	1	2back	Block4	2back/STIM_014.jpg
2142.383	0.457	1	2back	Block4	2back/STIM_014.jpg
2145.099	0.425	1	2back	Block4	2back/STIM_015.jpg
2148.489	0.76	1	2back	Block4	2back/STIM_015.jpg
2151.673	0.404	1	2back	Block4	2back/STIM_015.jpg
2156.022	0.49	1	2back	Block4	2back/STIM_016.jpg
2159.446	0.683	1	2back	Block4	2back/STIM_016.jpg
2163.87	0.474	1	2back	Block4	2back/STIM_016.jpg
2166.626	0.847	1	2back	Block4	2back/STIM_017.jpg
2169.572	0.653	1	2back	Block4	2back/STIM_017.jpg
2172.664	0.707	1	2back	Block4	2back/STIM_017.jpg
2176.23	0.678	1	2back	Block4	2back/STIM_018.jpg
2179.492	0.677	1	2back	Block4	2back/STIM_018.jpg
2182.935	0.565	1	2back	Block4	2back/STIM_018.jpg
2186.146	0.394	1	2back	Block4	2back/STIM_019.jpg
2190.156	0.497	1	2back	Block4	2back/STIM_019.jpg
2192.758	0.435	1	2back	Block4	2back/STIM_019.jpg
2196.761	0.422	0	2back	Block4	2back/STIM_020.jpg
2200.72	0.765	1	2back	Block4	2back/STIM_020.jpg
2204.717	0.569	0	2back	Block4	2back/STIM_020.jpg
2207.324	0.485	1	2back	Block4	2back/STIM_021.jpg
2210.231	0.392	1	2back	Block4	2back/STIM_021.jpg
2212.892	0.49	1	2back	Block4	2back/STIM_021.jpg
2216.147	0.549	1	2back	Block4	2back/STIM_022.jpg
2220.207	0.828	1	2back	Block4	2back/STIM_022.jpg
2223.956	0.395	1	2back	Block4	2back/STIM_022.jpg
2227.672	0.602	1	2back	Block4	2back/STIM_023.jpg
2230.757	0.664	1	2back	Block4	2back/STIM_023.jpg
2234.889	0.598	1	2back	Block4	2back/STIM_023.jpg
2239.455	0.762	1	2back	Block4	2back/STIM_024.jpg
2243.029	0.441	1	2back	Block4	2back/STIM_024.jpg
2246.388	0.533	1	2back	Block4	2back/STIM_024.jpg
2249.025	0.742	1	2back	Block4	2back/STIM_025.jpg
2253.21	0.738	1	2back	Block4	2back/STIM_025.jpg
2257.035	0.459	1	2back	Block4	2back/STIM_025.jpg
2259.833	0.61	1	2back	Block4	2back/STIM_026.jpg
2264.153	0.821	1	2back	Block4	2back/STIM_026.jpg
2268.505	0.788	1	2back	Block4	2back/STIM_026.jpg
2273.176	0.607	1	2back	Block4	2back/STIM_027.jpg
2276.72	0.622	1	2back	Block4	2back/STIM_027.jpg
2279.726	0.463	1	2back	Block4	2back/STIM_027.jpg
2283.77	0.735	1	2back	Block4	2back/STIM_028.jpg
2286.554	0.644	1	2back	Block4	2back/STIM_028.jpg
2290.441	0.683	1	2back	Block4	2back/STIM_028.jpg
2293.969	0.84	1	2back	Block4	2back/STIM_029.jpg
2298.457	0.659	1	2back	Block4	2back/STIM_029.jpg
2301.27	0.741	1	2back	Block4	2back/STIM_029.jpg
2305.134	0.697	1	2back	Block4	2back/STIM_030.jpg
2307.987	0.725	1	2back	Block4	2back/STIM_030.jpg
2311.352	0.822	1	2back	Block4	2back/STIM_030.jpg
2314.616	0.677	1	2back	Block4	2back/STIM_031.jpg
2318.527	0.842	1	2back	Block4	2back/STIM_031.jpg
2321.964	0.78	1	2back	Block4	2back/STIM_031.jpg
2324.883	0.457	1	2back	Block4	2back/STIM_032.jpg
2327.587	0.559	1	2back	Block4	2back/STIM_032.jpg
2330.325	0.59	1	2back	Block4	2back/STIM_032.jpg
2334.836	0.397	1	2back	Block4	2back/STIM_033.jpg
2338.035	0.435	1	2back	Block4	2back/STIM_033.jpg
2342.308	0.817	1	2back	Block4	2back/STIM_033.jpg
2346.248	0.665	1	2back	Block4	2back/STIM_034.jpg
2349.694	0.72	1	2back	Block4	2back/STIM_034.jpg
2353.195	0.717	1	2back	Block4	2back/STIM_034.jpg
2356.998	0.605	1	2back	Block4	2back/STIM_035.jpg
2360.612	0.794	1	2back	Block4	2back/STIM_035.jpg
2365.401	0.416	1	2back	Block4	2back/STIM_035.jpg
2369.247	0.596	1	2back	Block4	2back/STIM_036.jpg
2372.656	0.789	0	2back	Block4	2back/STIM_036.jpg
2376.213	0.78	1	2back	Block4	2back/STIM_036.jpg
2379.486	0.832	1	2back	Block4	2back/STIM_037.jpg
2383.53	0.525	1	2back	Block4	2back/STIM_037.jpg
2387.524	0.692	1	2back	Block4	2back/STIM_037.jpg
2390.591	0.383	1	2back	Block4	2back/STIM_038.jpg
2394.498	0.721	1	2back	Block4	2back/STIM_038.jpg
2399.131	0.494	1	2back	Block4	2back/STIM_038.jpg
2403.595	0.638	1	2back	Block4	2back/STIM_039.jpg
2407.675	0.417	1	2back	Block4	2back/STIM_039.jpg
2410.539	0.431	1	2back	Block4	2back/STIM_039.jpg
2413.988	0.464	0	0back	Block4	0back/STIM_000.jpg
2417.355	0.444	1	0back	Block4	0back/STIM_000.jpg
2420.39	0.46	1	0back	Block4	0back/STIM_000.jpg
2424.303	0.452	1	0back	Block4	0back/STIM_001.jpg
2427.77	0.55	1	0back	Block4	0back/STIM_001.jpg
2431.079	0.437	1	0back	Block4	0back/STIM_001.jpg
2433.891	0.696	1	0back	Block4	0back/STIM_002.jpg
2437.823	0.521	1	0back	Block4	0back/STIM_002.jpg
2441.574	0.683	1	0back	Block4	0back/STIM_002.jpg
2445.95	0.603	1	0back	Block4	0back/STIM_003.jpg
2450.484	0.425	1	0back	Block4	0back/STIM_003.jpg
2454.256	0.664	1	0back	Block4	0back/STIM_003.jpg
2457.238	0.42	1	0back	Block4	0back/STIM_004.jpg
2461.61	0.392	1	0back	Block4	0back/STIM_004.jpg
2465.317	0.452	1	0back	Block4	0back/STIM_004.jpg
2469.765	0.433	1	0back	Block4	0back/STIM_005.jpg
2474.016	0.604	1	0back	Block4	0back/STIM_005.jpg
2478.289	0.585	0	0back	Block4	0back/STIM_005.jpg
2481.353	0.631	1	0back	Block4	0back/STIM_006.jpg
2484.481	0.571	1	0back	Block4	0back/STIM_006.jpg
2487.088	0.692	0	0back	Block4	0back/STIM_006.jpg
2490.397	0.432	1	0back	Block4	0back/STIM_007.jpg
2494.621	0.655	1	0back	Block4	0back/STIM_007.jpg
2498.52	0.476	1	0back	Block4	0back/STIM_007.jpg
2501.002	0.504	0	0back	Block4	0back/STIM_008.jpg
2504.027	0.601	1	0back	Block4	0back/STIM_008.jpg
2508.587	0.515	1	0back	Block4	0back/STIM_008.jpg
2511.379	0.706	1	0back	Block4	0back/STIM_009.jpg
2516.017	0.521	1	0back	Block4	0back/STIM_009.jpg
2519.144	0.552	1	0back	Block4	0back/STIM_009.jpg
2523.242	0.622	1	0back	Block4	0back/STIM_010.jpg
2527.39	0.437	1	0back	Block4	0back/STIM_010.jpg
2531.192	0.584	1	0back	Block4	0back/STIM_010.jpg
2534.336	0.628	1	0back	Block4	0back/STIM_011.jpg
2537.694	0.443	1	0back	Block4	0back/STIM_011.jpg
2542.105	0.507	1	0back	Block4	0back/STIM_011.jpg
2546.415	0.684	1	0back	Block4	0back/STIM_012.jpg
2550.721	0.392	1	0back	Block4	0back/STIM_012.jpg
2554.281	0.503	1	0back	Block4	0back/STIM_012.jpg
2556.957	0.564	1	0back	Block4	0back/STIM_013.jpg
2559.604	0.374	1	0back	Block4	0back/STIM_013.jpg
2562.596	0.372	1	0back	Block4	0back/STIM_013.jpg
2565.092	0.507	1	0back	Block4	0back/STIM_014.jpg
2568.822	0.479	1	0back	Block4	0back/STIM_014.jpg
2571.981	0.371	1	0back	Block4	0back/STIM_014.jpg
2575.577	0.617	1	0back	Block4	0back/STIM_015.jpg
2578.331	0.467	1	0back	Block4	0back/STIM_015.jpg
2582.779	0.512	1	0back	Block4	0back/STIM_015.jpg
2585.702	0.396	1	0back	Block4	0back/STIM_016.jpg
2590.014	0.47	1	0back	Block4	0back/STIM_016.jpg
2593.932	0.523	1	0back	Block4	0back/STIM_016.jpg
2598.022	0.623	1	0back	Block4	0back/STIM_017.jpg
2601.992	0.57	1	0back	Block4	0back/STIM_017.jpg
2605.347	0.62	1	0back	Block4	0back/STIM_017.jpg
2608.532	0.579	1	0back	Block4	0back/STIM_018.jpg
2611.418	0.38	1	0back	Block4	0back/STIM_018.jpg
2614.481	0.36	1	0back	Block4	0back/STIM_018.jpg
2617.701	0.516	1	0back	Block4	0back/STIM_019.jpg
2620.748	0.37	1	0back	Block4	0back/STIM_019.jpg
2623.302	0.52	0	0back	Block4	0back/STIM_019.jpg
