onset	duration	response_time_ms	trial_type	learning_stage	stimulus	response_port
0.0	0.879	878.8	2back	Block1	2back/STIM_000.jpg	99
3.799	0.714	714.0	2back	Block1	2back/STIM_000.jpg	100
7.692	1.381	1380.6	2back	Block1	2back/STIM_000.jpg	100
11.315	1.302	1301.9	2back	Block1	2back/STIM_001.jpg	99
15.483	0.726	726.3	2back	Block1	2back/STIM_001.jpg	99
19.17	1.018	1018.1	2back	Block1	2back/STIM_001.jpg	99
22.928	1.019	1019.1	2back	Block1	2back/STIM_002.jpg	99
26.11	1.428	1427.9	2back	Block1	2back/STIM_002.jpg	99
29.817	1.029	1029.2	2back	Block1	2back/STIM_002.jpg	99
33.335	0.988	987.7	2back	Block1	2back/STIM_003.jpg	100
36.398	1.469	1469.1	2back	Block1	2back/STIM_003.jpg	100
39.826	1.154	1154.1	2back	Block1	2back/STIM_003.jpg	100
44.006	1.002	1001.6	2back	Block1	2back/STIM_004.jpg	99
48.016	1.032	1032.2	2back	Block1	2back/STIM_004.jpg	100
51.495	1.406	1406.0	2back	Block1	2back/STIM_004.jpg	100
54.96	1.174	1173.7	2back	Block1	2back/STIM_005.jpg	100
58.577	1.382	1381.8	2back	Block1	2back/STIM_005.jpg	100
62.474	1.323	1322.6	2back	Block1	2back/STIM_005.jpg	100
66.226	0.973	973.1	2back	Block1	2back/STIM_006.jpg	99
69.126	1.179	1178.9	2back	Block1	2back/STIM_006.jpg	100
72.634	0.899	899.1	2back	Block1	2back/STIM_006.jpg	99
76.088	1.239	1239.1	2back	Block1	2back/STIM_007.jpg	100
80.355	1.124	1124.0	2back	Block1	2back/STIM_007.jpg	99
83.338	1.232	1232.0	2back	Block1	2back/STIM_007.jpg	100
87.881	0.846	845.7	2back	Block1	2back/STIM_008.jpg	99
91.31	0.8	800.1	2back	Block1	2back/STIM_008.jpg	100
94.908	0.815	815.4	2back	Block1	2back/STIM_008.jpg	99
99.563	1.235	1235.2	2back	Block1	2back/STIM_009.jpg	100
104.45	0.964	964.0	2back	Block1	2back/STIM_009.jpg	100
108.325	1.214	1214.3	2back	Block1	2back/STIM_009.jpg	100
112.179	1.677	1676.9	2back	Block1	2back/STIM_010.jpg	99
116.696	1.212	1211.5	2back	Block1	2back/STIM_010.jpg	99
121.44	0.726	726.1	2back	Block1	2back/STIM_010.jpg	99
125.623	0.713	713.0	2back	Block1	2back/STIM_011.jpg	100
128.916	1.165	1165.4	2back	Block1	2back/STIM_011.jpg	99
132.602	1.106	1105.6	2back	Block1	2back/STIM_011.jpg	99
135.915	0.636	635.9	2back	Block1	2back/STIM_012.jpg	100
138.829	1.261	1261.2	2back	Block1	2back/STIM_012.jpg	99
142.484	0.996	996.5	2back	Block1	2back/STIM_012.jpg	99
145.519	1.679	1679.4	2back	Block1	2back/STIM_013.jpg	100
149.605	1.283	1282.8	2back	Block1	2back/STIM_013.jpg	99
153.735	0.824	824.2	2back	Block1	2back/STIM_013.jpg	100
156.585	1.372	1371.5	2back	Block1	2back/STIM_014.jpg	100
160.249	1.4	1400.3	2back	Block1	2back/STIM_014.jpg	100
165.122	0.578	578.5	2back	Block1	2back/STIM_014.jpg	99
168.869	1.15	1150.1	2back	Block1	2back/STIM_015.jpg	99
172.505	0.875	874.6	2back	Block1	2back/STIM_015.jpg	100
175.789	0.86	860.3	2back	Block1	2back/STIM_015.jpg	100
178.872	1.032	1032.2	2back	Block1	2back/STIM_016.jpg	99
183.367	1.521	1520.9	2back	Block1	2back/STIM_016.jpg	99
186.796	1.402	1401.7	2back	Block1	2back/STIM_016.jpg	100
190.064	1.471	1470.6	2back	Block1	2back/STIM_017.jpg	99
193.971	1.009	1008.8	2back	Block1	2back/STIM_017.jpg	100
198.71	0.974	974.2	2back	Block1	2back/STIM_017.jpg	100
202.763	1.015	1015.1	2back	Block1	2back/STIM_018.jpg	100
205.974	1.21	1210.5	2back	Block1	2back/STIM_018.jpg	100
210.233	1.472	1471.7	2back	Block1	2back/STIM_018.jpg	99
215.443	1.248	1247.8	2back	Block1	2back/STIM_019.jpg	99
219.819	1.357	1356.8	2back	Block1	2back/STIM_019.jpg	99
223.434	1.089	1088.7	2back	Block1	2back/STIM_019.jpg	100
226.854	1.46	1459.6	2back	Block1	2back/STIM_020.jpg	100
230.617	0.697	697.3	2back	Block1	2back/STIM_020.jpg	100
234.052	1.085	1084.9	2back	Block1	2back/STIM_020.jpg	99
237.754	0.633	632.7	2back	Block1	2back/STIM_021.jpg	99
241.943	1.226	1226.0	2back	Block1	2back/STIM_021.jpg	100
246.297	1.093	1092.9	2back	Block1	2back/STIM_021.jpg	100
249.556	1.072	1071.7	2back	Block1	2back/STIM_022.jpg	99
252.587	1.519	1518.9	2back	Block1	2back/STIM_022.jpg	100
256.275	0.854	853.9	2back	Block1	2back/STIM_022.jpg	99
260.005	1.35	1349.6	2back	Block1	2back/STIM_023.jpg	100
263.429	0.951	951.0	2back	Block1	2back/STIM_023.jpg	100
267.768	0.892	891.9	2back	Block1	2back/STIM_023.jpg	100
272.508	1.622	1621.6	2back	Block1	2back/STIM_024.jpg	99
276.007	1.448	1447.5	2back	Block1	2back/STIM_024.jpg	100
281.141	0.555	554.8	2back	Block1	2back/STIM_024.jpg	100
285.195	0.958	957.9	2back	Block1	2back/STIM_025.jpg	99
288.318	1.362	1362.5	2back	Block1	2back/STIM_025.jpg	99
291.973	0.906	905.9	2back	Block1	2back/STIM_025.jpg	99
295.808	1.175	1175.4	2back	Block1	2back/STIM_026.jpg	99
300.611	1.191	1190.6	2back	Block1	2back/STIM_026.jpg	100
305.632	1.133	1133.3	2back	Block1	2back/STIM_026.jpg	100
310.594	0.888	887.7	2back	Block1	2back/STIM_027.jpg	99
314.274	1.057	1056.7	2back	Block1	2back/STIM_027.jpg	99
319.113	0.791	791.4	2back	Block1	2back/STIM_027.jpg	99
322.487	0.924	923.8	2back	Block1	2back/STIM_028.jpg	99
327.096	1.384	1383.9	2back	Block1	2back/STIM_028.jpg	100
332.249	1.305	1305.3	2back	Block1	2back/STIM_028.jpg	99
337.27	1.136	1135.9	2back	Block1	2back/STIM_029.jpg	100
340.921	1.47	1470.5	2back	Block1	2back/STIM_029.jpg	100
345.916	1.179	1179.4	2back	Block1	2back/STIM_029.jpg	100
349.459	0.759	758.6	2back	Block1	2back/STIM_030.jpg	99
353.105	0.575	575.3	2back	Block1	2back/STIM_030.jpg	99
357.43	0.824	823.7	2back	Block1	2back/STIM_030.jpg	100
361.151	1.164	1164.5	2back	Block1	2back/STIM_031.jpg	99
364.646	1.348	1347.9	2back	Block1	2back/STIM_031.jpg	100
368.128	1.183	1183.4	2back	Block1	2back/STIM_031.jpg	100
372.632	1.301	1301.2	2back	Block1	2back/STIM_032.jpg	99
377.002	1.081	1081.0	2back	Block1	2back/STIM_032.jpg	100
380.257	0.694	694.4	2back	Block1	2back/STIM_032.jpg	99
384.127	0.833	832.8	2back	Block1	2back/STIM_033.jpg	100
387.646	0.67	670.4	2back	Block1	2back/STIM_033.jpg	100
390.588	0.986	985.5	2back	Block1	2back/STIM_033.jpg	100
394.263	1.246	1246.0	2back	Block1	2back/STIM_034.jpg	100
397.508	0.706	705.7	2back	Block1	2back/STIM_034.jpg	100
400.999	0.797	797.1	2back	Block1	2back/STIM_034.jpg	100
405.117	0.822	822.0	2back	Block1	2back/STIM_035.jpg	99
409.73	1.401	1400.7	2back	Block1	2back/STIM_035.jpg	100
413.805	1.263	1262.7	2back	Block1	2back/STIM_035.jpg	100
418.137	1.339	1338.7	2back	Block1	2back/STIM_036.jpg	100
421.805	1.172	1172.0	2back	Block1	2back/STIM_036.jpg	100
425.789	0.921	920.6	2back	Block1	2back/STIM_036.jpg	99
429.234	0.788	787.6	2back	Block1	2back/STIM_037.jpg	100
432.806	1.004	1003.8	2back	Block1	2back/STIM_037.jpg	99
436.431	1.375	1375.4	2back	Block1	2back/STIM_037.jpg	100
440.54	1.324	1323.5	2back	Block1	2back/STIM_038.jpg	99
444.127	1.021	1021.4	2back	Block1	2back/STIM_038.jpg	100
448.58	0.976	975.8	2back	Block1	2back/STIM_038.jpg	100
451.9	0.828	828.4	2back	Block1	2back/STIM_039.jpg	99
455.248	1.005	1005.0	2back	Block1	2back/STIM_039.jpg	100
458.282	0.732	732.0	2back	Block1	2back/STIM_039.jpg	99
462.001	0.694	693.9	0back	Block1	0back/STIM_000.jpg	99
465.715	0.619	619.4	0back	Block1	0back/STIM_000.jpg	99
469.389	0.633	632.8	0back	Block1	0back/STIM_000.jpg	99
473.574	0.742	741.7	0back	Block1	0back/STIM_001.jpg	99
477.78	0.453	452.9	0back	Block1	0back/STIM_001.jpg	99
480.846	0.576	575.6	0back	Block1	0back/STIM_001.jpg	99
483.963	0.654	654.3	0back	Block1	0back/STIM_002.jpg	99
486.474	0.495	495.3	0back	Block1	0back/STIM_002.jpg	100
490.373	0.561	561.3	0back	Block1	0back/STIM_002.jpg	99
493.747	0.466	466.0	0back	Block1	0back/STIM_003.jpg	100
496.884	0.687	687.0	0back	Block1	0back/STIM_003.jpg	99
500.308	0.941	941.3	0back	Block1	0back/STIM_003.jpg	100
503.274	0.592	591.6	0back	Block1	0back/STIM_004.jpg	99
506.973	0.534	533.9	0back	Block1	0back/STIM_004.jpg	99
509.403	0.541	541.4	0back	Block1	0back/STIM_004.jpg	100
513.594	0.639	639.0	0back	Block1	0back/STIM_005.jpg	99
516.705	0.828	827.7	0back	Block1	0back/STIM_005.jpg	99
519.973	0.498	498.0	0back	Block1	0back/STIM_005.jpg	100
524.074	0.535	534.9	0back	Block1	0back/STIM_006.jpg	99
528.114	0.591	590.8	0back	Block1	0back/STIM_006.jpg	100
530.686	0.845	844.7	0back	Block1	0back/STIM_006.jpg	99
534.283	0.716	715.7	0back	Block1	0back/STIM_007.jpg	100
536.913	0.9	899.7	0back	Block1	0back/STIM_007.jpg	100
540.344	0.686	686.1	0back	Block1	0back/STIM_007.jpg	100
544.755	0.628	628.1	0back	Block1	0back/STIM_008.jpg	100
547.798	0.726	726.0	0back	Block1	0back/STIM_008.jpg	99
551.447	0.674	674.5	0back	Block1	0back/STIM_008.jpg	100
555.849	0.639	638.7	0back	Block1	0back/STIM_009.jpg	99
559.9	0.496	495.6	0back	Block1	0back/STIM_009.jpg	99
563.89	0.781	780.7	0back	Block1	0back/STIM_009.jpg	99
568.194	0.759	759.0	0back	Block1	0back/STIM_010.jpg	99
572.024	0.661	660.7	0back	Block1	0back/STIM_010.jpg	100
576.087	0.859	858.9	0back	Block1	0back/STIM_010.jpg	100
579.92	0.798	797.7	0back	Block1	0back/STIM_011.jpg	100
584.234	0.888	887.5	0back	Block1	0back/STIM_011.jpg	99
587.161	0.527	526.8	0back	Block1	0back/STIM_011.jpg	99
589.885	0.882	881.8	0back	Block1	0back/STIM_012.jpg	100
593.908	0.57	569.7	0back	Block1	0back/STIM_012.jpg	100
596.954	0.82	820.2	0back	Block1	0back/STIM_012.jpg	99
600.03	0.644	643.8	0back	Block1	0back/STIM_013.jpg	99
604.343	0.484	484.2	0back	Block1	0back/STIM_013.jpg	99
606.951	0.573	573.3	0back	Block1	0back/STIM_013.jpg	100
610.55	0.79	790.2	0back	Block1	0back/STIM_014.jpg	99
614.598	0.405	404.7	0back	Block1	0back/STIM_014.jpg	99
617.794	0.765	764.7	0back	Block1	0back/STIM_014.jpg	100
622.273	0.608	607.6	0back	Block1	0back/STIM_015.jpg	99
626.339	0.696	696.5	0back	Block1	0back/STIM_015.jpg	99
629.977	0.602	601.5	0back	Block1	0back/STIM_015.jpg	99
633.864	0.823	823.0	0back	Block1	0back/STIM_016.jpg	99
636.898	0.839	839.3	0back	Block1	0back/STIM_016.jpg	100
640.579	0.884	883.8	0back	Block1	0back/STIM_016.jpg	100
644.403	0.866	865.5	0back	Block1	0back/STIM_017.jpg	100
647.685	0.509	509.1	0back	Block1	0back/STIM_017.jpg	99
651.948	0.743	743.2	0back	Block1	0back/STIM_017.jpg	99
656.013	0.714	714.0	0back	Block1	0back/STIM_018.jpg	99
659.596	0.543	542.9	0back	Block1	0back/STIM_018.jpg	99
663.597	0.611	610.6	0back	Block1	0back/STIM_018.jpg	99
667.406	0.478	478.4	0back	Block1	0back/STIM_019.jpg	99
671.76	0.756	756.5	0back	Block1	0back/STIM_019.jpg	100
676.016	0.901	900.7	0back	Block1	0back/STIM_019.jpg	99
680.154	0.878	878.0	2back	Block2	2back/STIM_000.jpg	100
682.994	1.243	1242.6	2back	Block2	2back/STIM_000.jpg	100
687.425	0.735	735.4	2back	Block2	2back/STIM_000.jpg	99
691.535	1.116	1116.4	2back	Block2	2back/STIM_001.jpg	99
694.856	0.642	642.3	2back	Block2	2back/STIM_001.jpg	100
698.634	1.092	1091.6	2back	Block2	2back/STIM_001.jpg	100
701.885	0.646	646.1	2back	Block2	2back/STIM_002.jpg	100
704.692	1.212	1212.5	2back	Block2	2back/STIM_002.jpg	99
708.381	0.887	886.7	2back	Block2	2back/STIM_002.jpg	99
711.265	0.959	958.6	2back	Block2	2back/STIM_003.jpg	99
715.956	1.256	1256.4	2back	Block2	2back/STIM_003.jpg	99
719.412	0.97	969.9	2back	Block2	2back/STIM_003.jpg	100
722.894	0.779	778.6	2back	Block2	2back/STIM_004.jpg	100
726.205	1.249	1249.0	2back	Block2	2back/STIM_004.jpg	99
729.573	0.714	713.5	2back	Block2	2back/STIM_004.jpg	99
733.091	1.24	1239.7	2back	Block2	2back/STIM_005.jpg	100
736.58	1.185	1184.9	2back	Block2	2back/STIM_005.jpg	100
739.967	0.473	473.2	2back	Block2	2back/STIM_005.jpg	100
743.748	0.87	870.5	2back	Block2	2back/STIM_006.jpg	100
748.423	0.942	942.3	2back	Block2	2back/STIM_006.jpg	99
753.125	0.713	713.2	2back	Block2	2back/STIM_006.jpg	100
756.025	1.056	1055.7	2back	Block2	2back/STIM_007.jpg	100
760.07	1.228	1228.5	2back	Block2	2back/STIM_007.jpg	99
763.121	0.589	589.2	2back	Block2	2back/STIM_007.jpg	100
766.872	0.908	908.2	2back	Block2	2back/STIM_008.jpg	100
769.933	0.662	661.9	2back	Block2	2back/STIM_008.jpg	100
773.248	0.592	591.5	2back	Block2	2back/STIM_008.jpg	100
776.224	0.717	717.4	2back	Block2	2back/STIM_009.jpg	99
779.903	0.744	743.6	2back	Block2	2back/STIM_009.jpg	100
783.51	1.135	1135.0	2back	Block2	2back/STIM_009.jpg	99
788.032	1.255	1255.4	2back	Block2	2back/STIM_010.jpg	99
791.287	0.854	854.4	2back	Block2	2back/STIM_010.jpg	100
795.698	0.56	560.0	2back	Block2	2back/STIM_010.jpg	100
798.243	1.088	1088.4	2back	Block2	2back/STIM_011.jpg	100
802.09	0.919	918.8	2back	Block2	2back/STIM_011.jpg	100
806.642	1.14	1139.9	2back	Block2	2back/STIM_011.jpg	100
809.999	1.068	1068.2	2back	Block2	2back/STIM_012.jpg	99
814.866	1.028	1028.0	2back	Block2	2back/STIM_012.jpg	99
817.936	0.569	569.4	2back	Block2	2back/STIM_012.jpg	100
820.971	0.688	688.1	2back	Block2	2back/STIM_013.jpg	99
823.681	0.631	631.4	2back	Block2	2back/STIM_013.jpg	100
827.135	1.125	1124.9	2back	Block2	2back/STIM_013.jpg	99
832.08	1.108	1108.5	2back	Block2	2back/STIM_014.jpg	99
836.472	1.198	1197.9	2back	Block2	2back/STIM_014.jpg	99
840.243	1.196	1195.8	2back	Block2	2back/STIM_014.jpg	99
844.202	1.185	1184.7	2back	Block2	2back/STIM_015.jpg	99
848.726	0.928	927.7	2back	Block2	2back/STIM_015.jpg	99
852.572	0.63	630.0	2back	Block2	2back/STIM_015.jpg	100
855.731	0.636	636.3	2back	Block2	2back/STIM_016.jpg	100
859.217	0.64	640.2	2back	Block2	2back/STIM_016.jpg	100
862.258	1.093	1092.7	2back	Block2	2back/STIM_016.jpg	99
867.041	0.756	756.2	2back	Block2	2back/STIM_017.jpg	100
871.567	0.698	697.9	2back	Block2	2back/STIM_017.jpg	100
875.619	1.067	1066.6	2back	Block2	2back/STIM_017.jpg	100
879.337	0.938	937.9	2back	Block2	2back/STIM_018.jpg	100
884.046	1.066	1066.1	2back	Block2	2back/STIM_018.jpg	99
888.109	0.681	680.8	2back	Block2	2back/STIM_018.jpg	99
892.52	1.217	1216.8	2back	Block2	2back/STIM_019.jpg	99
896.128	1.207	1206.9	2back	Block2	2back/STIM_019.jpg	100
900.097	0.683	682.6	2back	Block2	2back/STIM_019.jpg	99
903.718	1.39	1390.2	2back	Block2	2back/STIM_020.jpg	100
908.279	0.506	506.2	2back	Block2	2back/STIM_020.jpg	100
912.208	1.196	1196.3	2back	Block2	2back/STIM_020.jpg	100
916.383	0.648	647.9	2back	Block2	2back/STIM_021.jpg	99
920.355	0.918	918.3	2back	Block2	2back/STIM_021.jpg	100
923.389	0.53	530.3	2back	Block2	2back/STIM_021.jpg	99
927.45	1.122	1122.1	2back	Block2	2back/STIM_022.jpg	99
931.983	0.655	655.0	2back	Block2	2back/STIM_022.jpg	99
936.435	0.639	639.0	2back	Block2	2back/STIM_022.jpg	99
939.083	1.262	1262.4	2back	Block2	2back/STIM_023.jpg	99
943.97	0.661	660.6	2back	Block2	2back/STIM_023.jpg	100
947.567	0.633	632.6	2back	Block2	2back/STIM_023.jpg	100
950.295	0.716	715.7	2back	Block2	2back/STIM_024.jpg	99
953.142	0.96	960.4	2back	Block2	2back/STIM_024.jpg	100
956.793	1.004	1004.3	2back	Block2	2back/STIM_024.jpg	100
960.264	0.622	621.8	2back	Block2	2back/STIM_025.jpg	99
963.34	0.701	700.7	2back	Block2	2back/STIM_025.jpg	99
967.812	1.019	1018.7	2back	Block2	2back/STIM_025.jpg	99
971.32	0.917	917.1	2back	Block2	2back/STIM_026.jpg	100
974.096	0.628	628.5	2back	Block2	2back/STIM_026.jpg	99
978.091	0.537	537.2	2back	Block2	2back/STIM_026.jpg	100
981.756	0.544	544.2	2back	Block2	2back/STIM_027.jpg	100
984.755	0.63	630.3	2back	Block2	2back/STIM_027.jpg	99
988.099	1.039	1039.4	2back	Block2	2back/STIM_027.jpg	100
992.782	0.82	819.6	2back	Block2	2back/STIM_028.jpg	99
996.906	0.943	943.0	2back	Block2	2back/STIM_028.jpg	100
1000.89	0.914	913.7	2back	Block2	2back/STIM_028.jpg	100
1004.467	0.749	749.2	2back	Block2	2back/STIM_029.jpg	100
1007.84	0.931	930.8	2back	Block2	2back/STIM_029.jpg	100
1011.866	0.773	772.8	2back	Block2	2back/STIM_029.jpg	100
1015.975	1.415	1414.6	2back	Block2	2back/STIM_030.jpg	99
1019.287	1.063	1062.8	2back	Block2	2back/STIM_030.jpg	100
1023.265	0.691	690.9	2back	Block2	2back/STIM_030.jpg	99
1027.609	1.38	1380.2	2back	Block2	2back/STIM_031.jpg	100
1030.775	1.136	1136.4	2back	Block2	2back/STIM_031.jpg	99
1034.826	1.142	1142.1	2back	Block2	2back/STIM_031.jpg	100
1038.679	0.818	818.1	2back	Block2	2back/STIM_032.jpg	99
1042.25	1.252	1251.7	2back	Block2	2back/STIM_032.jpg	100
1046.339	0.473	472.8	2back	Block2	2back/STIM_032.jpg	99
1050.748	1.048	1048.1	2back	Block2	2back/STIM_033.jpg	99
1054.165	1.125	1124.8	2back	Block2	2back/STIM_033.jpg	99
1057.766	0.61	610.5	2back	Block2	2back/STIM_033.jpg	99
1060.975	0.716	716.2	2back	Block2	2back/STIM_034.jpg	100
1064.258	1.191	1191.0	2back	Block2	2back/STIM_034.jpg	99
1068.251	1.157	1157.3	2back	Block2	2back/STIM_034.jpg	100
1071.485	0.972	972.2	2back	Block2	2back/STIM_035.jpg	100
1075.348	0.958	958.2	2back	Block2	2back/STIM_035.jpg	100
1079.422	1.053	1052.6	2back	Block2	2back/STIM_035.jpg	100
1083.492	0.998	998.0	2back	Block2	2back/STIM_036.jpg	99
1087.887	0.872	871.7	2back	Block2	2back/STIM_036.jpg	99
1090.844	1.06	1060.2	2back	Block2	2back/STIM_036.jpg	99
1093.94	1.043	1042.9	2back	Block2	2back/STIM_037.jpg	99
1098.039	1.038	1038.0	2back	Block2	2back/STIM_037.jpg	100
1101.68	0.719	718.6	2back	Block2	2back/STIM_037.jpg	100
1106.064	0.612	612.0	2back	Block2	2back/STIM_038.jpg	100
1110.271	0.883	882.6	2back	Block2	2back/STIM_038.jpg	99
1113.775	0.651	650.6	2back	Block2	2back/STIM_038.jpg	100
1117.845	1.191	1190.7	2back	Block2	2back/STIM_039.jpg	99
1122.62	1.027	1027.0	2back	Block2	2back/STIM_039.jpg	99
1126.016	0.901	901.1	2back	Block2	2back/STIM_039.jpg	99
1129.17	0.514	513.7	0back	Block2	0back/STIM_000.jpg	100
1131.832	0.792	791.7	0back	Block2	0back/STIM_000.jpg	100
1135.739	0.914	914.3	0back	Block2	0back/STIM_000.jpg	100
1139.722	0.681	680.8	0back	Block2	0back/STIM_001.jpg	100
1142.61	0.671	671.4	0back	Block2	0back/STIM_001.jpg	99
1146.763	0.495	495.3	0back	Block2	0back/STIM_001.jpg	100
1149.878	0.479	479.0	0back	Block2	0back/STIM_002.jpg	100
1153.184	0.522	521.7	0back	Block2	0back/STIM_002.jpg	100
1157.267	0.906	905.9	0back	Block2	0back/STIM_002.jpg	100
1161.196	0.604	604.4	0back	Block2	0back/STIM_003.jpg	99
1165.297	0.724	724.4	0back	Block2	0back/STIM_003.jpg	99
1169.386	0.724	724.3	0back	Block2	0back/STIM_003.jpg	99
1173.075	0.737	737.2	0back	Block2	0back/STIM_004.jpg	100
1176.465	0.673	672.8	0back	Block2	0back/STIM_004.jpg	99
1179.776	0.616	615.5	0back	Block2	0back/STIM_004.jpg	100
1182.336	0.613	612.8	0back	Block2	0back/STIM_005.jpg	100
1186.245	0.541	540.7	0back	Block2	0back/STIM_005.jpg	100
1189.066	0.449	448.9	0back	Block2	0back/STIM_005.jpg	99
1192.085	0.882	882.2	0back	Block2	0back/STIM_006.jpg	100
1196.309	0.611	610.9	0back	Block2	0back/STIM_006.jpg	100
1200.176	0.613	613.2	0back	Block2	0back/STIM_006.jpg	100
1202.762	0.503	502.7	0back	Block2	0back/STIM_007.jpg	100
1206.645	0.618	617.5	0back	Block2	0back/STIM_007.jpg	100
1209.853	0.879	879.0	0back	Block2	0back/STIM_007.jpg	100
1214.131	0.865	864.7	0back	Block2	0back/STIM_008.jpg	100
1218.805	0.459	459.0	0back	Block2	0back/STIM_008.jpg	100
1222.994	0.48	480.3	0back	Block2	0back/STIM_008.jpg	100
1226.866	0.887	887.1	0back	Block2	0back/STIM_009.jpg	99
1231.384	0.851	850.9	0back	Block2	0back/STIM_009.jpg	100
1234.79	0.562	561.6	0back	Block2	0back/STIM_009.jpg	100
1238.384	0.574	574.4	0back	Block2	0back/STIM_010.jpg	100
1241.608	0.834	834.2	0back	Block2	0back/STIM_010.jpg	99
1245.652	0.814	813.7	0back	Block2	0back/STIM_010.jpg	99
1250.021	0.856	855.5	0back	Block2	0back/STIM_011.jpg	100
1252.874	0.522	522.3	0back	Block2	0back/STIM_011.jpg	100
1256.266	0.887	887.4	0back	Block2	0back/STIM_011.jpg	100
1260.052	0.527	527.1	0back	Block2	0back/STIM_012.jpg	100
1263.836	0.672	671.9	0back	Block2	0back/STIM_012.jpg	100
1267.011	0.5	500.1	0back	Block2	0back/STIM_012.jpg	99
1269.862	0.772	772.3	0back	Block2	0back/STIM_013.jpg	100
1272.85	0.827	827.4	0back	Block2	0back/STIM_013.jpg	100
1276.133	0.809	808.6	0back	Block2	0back/STIM_013.jpg	99
1279.387	0.524	523.5	0back	Block2	0back/STIM_014.jpg	99
1282.518	0.763	763.4	0back	Block2	0back/STIM_014.jpg	99
1285.646	0.596	596.4	0back	Block2	0back/STIM_014.jpg	100
1289.455	0.528	527.6	0back	Block2	0back/STIM_015.jpg	99
1292.662	0.482	481.8	0back	Block2	0back/STIM_015.jpg	99
1295.962	0.91	909.9	0back	Block2	0back/STIM_015.jpg	99
1299.501	0.766	766.5	0back	Block2	0back/STIM_016.jpg	99
1303.744	0.647	646.9	0back	Block2	0back/STIM_016.jpg	99
1306.457	0.678	677.8	0back	Block2	0back/STIM_016.jpg	99
1309.781	0.572	572.1	0back	Block2	0back/STIM_017.jpg	99
1312.917	0.868	867.6	0back	Block2	0back/STIM_017.jpg	100
1317.496	0.642	641.5	0back	Block2	0back/STIM_017.jpg	99
1321.894	0.548	547.6	0back	Block2	0back/STIM_018.jpg	99
1325.532	0.466	465.7	0back	Block2	0back/STIM_018.jpg	99
1328.554	0.75	749.6	0back	Block2	0back/STIM_018.jpg	99
1332.702	0.56	559.6	0back	Block2	0back/STIM_019.jpg	99
1336.901	0.55	549.9	0back	Block2	0back/STIM_019.jpg	100
1340.962	0.578	578.3	0back	Block2	0back/STIM_019.jpg	99
1343.683	0.558	558.2	2back	Block3	2back/STIM_000.jpg	99
1346.382	0.492	491.6	2back	Block3	2back/STIM_000.jpg	99
1350.285	0.754	753.5	2back	Block3	2back/STIM_000.jpg	99
1354.269	0.836	836.4	2back	Block3	2back/STIM_001.jpg	99
1357.758	0.955	955.0	2back	Block3	2back/STIM_001.jpg	99
1361.383	1.05	1050.4	2back	Block3	2back/STIM_001.jpg	100
1364.809	1.001	1000.6	2back	Block3	2back/STIM_002.jpg	99
1368.945	0.494	494.3	2back	Block3	2back/STIM_002.jpg	100
1372.966	1.164	1163.9	2back	Block3	2back/STIM_002.jpg	100
1375.97	0.522	521.5	2back	Block3	2back/STIM_003.jpg	100
1379.202	0.951	950.9	2back	Block3	2back/STIM_003.jpg	100
1382.583	1.113	1113.3	2back	Block3	2back/STIM_003.jpg	100
1386.234	0.599	598.7	2back	Block3	2back/STIM_004.jpg	99
1389.501	1.048	1047.6	2back	Block3	2back/STIM_004.jpg	99
1393.409	0.742	741.5	2back	Block3	2back/STIM_004.jpg	100
1397.563	0.584	583.8	2back	Block3	2back/STIM_005.jpg	100
1400.407	0.764	764.4	2back	Block3	2back/STIM_005.jpg	99
1403.303	1.056	1055.6	2back	Block3	2back/STIM_005.jpg	100
1407.591	0.76	760.1	2back	Block3	2back/STIM_006.jpg	100
1412.039	0.601	601.1	2back	Block3	2back/STIM_006.jpg	100
1416.305	0.756	756.4	2back	Block3	2back/STIM_006.jpg	99
1420.45	0.63	629.9	2back	Block3	2back/STIM_007.jpg	99
1424.825	0.756	756.4	2back	Block3	2back/STIM_007.jpg	100
1428.655	0.793	793.2	2back	Block3	2back/STIM_007.jpg	100
1433.115	0.915	914.6	2back	Block3	2back/STIM_008.jpg	100
1436.341	0.557	557.2	2back	Block3	2back/STIM_008.jpg	99
1439.797	1.033	1032.7	2back	Block3	2back/STIM_008.jpg	100
1444.149	0.779	778.7	2back	Block3	2back/STIM_009.jpg	100
1448.456	1.022	1021.5	2back	Block3	2back/STIM_009.jpg	99
1452.142	0.991	991.4	2back	Block3	2back/STIM_009.jpg	100
1456.191	0.653	653.0	2back	Block3	2back/STIM_010.jpg	99
1459.485	1.139	1139.3	2back	Block3	2back/STIM_010.jpg	99
1462.818	0.512	512.1	2back	Block3	2back/STIM_010.jpg	99
1466.552	0.675	675.1	2back	Block3	2back/STIM_011.jpg	100
1470.798	1.056	1056.4	2back	Block3	2back/STIM_011.jpg	100
1475.421	0.973	972.6	2back	Block3	2back/STIM_011.jpg	100
1479.089	1.07	1070.4	2back	Block3	2back/STIM_012.jpg	100
1482.183	1.128	1128.4	2back	Block3	2back/STIM_012.jpg	99
1485.607	0.593	592.8	2back	Block3	2back/STIM_012.jpg	100
1489.528	0.975	975.0	2back	Block3	2back/STIM_013.jpg	99
1493.499	0.516	515.7	2back	Block3	2back/STIM_013.jpg	99
1497.561	0.717	717.1	2back	Block3	2back/STIM_013.jpg	100
1501.834	0.505	505.1	2back	Block3	2back/STIM_014.jpg	99
1504.525	0.625	625.3	2back	Block3	2back/STIM_014.jpg	99
1507.322	0.872	872.5	2back	Block3	2back/STIM_014.jpg	100
1511.496	0.919	919.2	2back	Block3	2back/STIM_015.jpg	100
1514.607	0.612	611.5	2back	Block3	2back/STIM_015.jpg	99
1517.162	0.924	923.6	2back	Block3	2back/STIM_015.jpg	100
1520.139	0.438	437.7	2back	Block3	2back/STIM_016.jpg	100
1522.959	0.606	605.6	2back	Block3	2back/STIM_016.jpg	100
1526.191	0.851	851.0	2back	Block3	2back/STIM_016.jpg	99
1529.618	0.561	560.6	2back	Block3	2back/STIM_017.jpg	100
1532.5	0.858	858.4	2back	Block3	2back/STIM_017.jpg	99
1536.138	1.021	1020.6	2back	Block3	2back/STIM_017.jpg	99
1540.624	0.511	511.0	2back	Block3	2back/STIM_018.jpg	99
1544.392	0.48	480.4	2back	Block3	2back/STIM_018.jpg	99
1547.354	0.894	893.6	2back	Block3	2back/STIM_018.jpg	99
1550.54	1.054	1054.4	2back	Block3	2back/STIM_019.jpg	99
1554.695	0.825	825.0	2back	Block3	2back/STIM_019.jpg	99
1558.037	0.665	665.3	2back	Block3	2back/STIM_019.jpg	100
1562.448	1.06	1060.5	2back	Block3	2back/STIM_020.jpg	100
1566.976	1.052	1052.1	2back	Block3	2back/STIM_020.jpg	100
1570.123	0.683	683.0	2back	Block3	2back/STIM_020.jpg	99
1573.278	0.645	644.9	2back	Block3	2back/STIM_021.jpg	100
1576.481	0.751	751.2	2back	Block3	2back/STIM_021.jpg	99
1579.679	1.019	1019.1	2back	Block3	2back/STIM_021.jpg	99
1584.4	0.923	922.7	2back	Block3	2back/STIM_022.jpg	99
1588.183	0.748	747.6	2back	Block3	2back/STIM_022.jpg	99
1591.214	1.121	1120.9	2back	Block3	2back/STIM_022.jpg	99
1595.762	0.609	609.2	2back	Block3	2back/STIM_023.jpg	99
1599.806	0.686	686.4	2back	Block3	2back/STIM_023.jpg	99
1603.389	0.657	657.0	2back	Block3	2back/STIM_023.jpg	100
1607.26	0.886	886.3	2back	Block3	2back/STIM_024.jpg	99
1610.762	0.526	526.2	2back	Block3	2back/STIM_024.jpg	100
1613.441	0.949	949.0	2back	Block3	2back/STIM_024.jpg	100
1616.262	0.73	730.3	2back	Block3	2back/STIM_025.jpg	100
1620.146	0.727	726.6	2back	Block3	2back/STIM_025.jpg	100
1623.847	1.039	1039.4	2back	Block3	2back/STIM_025.jpg	99
1627.778	0.635	635.1	2back	Block3	2back/STIM_026.jpg	99
1632.321	0.935	935.1	2back	Block3	2back/STIM_026.jpg	99
1636.731	1.119	1119.0	2back	Block3	2back/STIM_026.jpg	100
1639.751	0.836	835.5	2back	Block3	2back/STIM_027.jpg	100
1643.01	0.597	596.9	2back	Block3	2back/STIM_027.jpg	99
1647.14	0.906	906.4	2back	Block3	2back/STIM_027.jpg	99
1650.05	0.713	712.8	2back	Block3	2back/STIM_028.jpg	100
1653.396	0.849	849.4	2back	Block3	2back/STIM_028.jpg	100
1657.471	0.771	771.3	2back	Block3	2back/STIM_028.jpg	100
1661.105	0.685	685.0	2back	Block3	2back/STIM_029.jpg	100
1664.471	0.561	561.3	2back	Block3	2back/STIM_029.jpg	99
1667.895	0.728	728.1	2back	Block3	2back/STIM_029.jpg	100
1670.689	0.816	816.2	2back	Block3	2back/STIM_030.jpg	99
1673.666	0.756	756.3	2back	Block3	2back/STIM_030.jpg	99
1676.376	0.86	860.1	2back	Block3	2back/STIM_030.jpg	100
1680.362	0.62	619.5	2back	Block3	2back/STIM_031.jpg	100
1684.036	0.898	897.9	2back	Block3	2back/STIM_031.jpg	99
1687.558	1.057	1057.2	2back	Block3	2back/STIM_031.jpg	99
1692.085	0.413	413.2	2back	Block3	2back/STIM_032.jpg	100
1695.905	0.685	685.0	2back	Block3	2back/STIM_032.jpg	100
1700.114	1.078	1077.5	2back	Block3	2back/STIM_032.jpg	100
1703.181	0.812	812.0	2back	Block3	2back/STIM_033.jpg	99
1706.692	0.449	448.7	2back	Block3	2back/STIM_033.jpg	100
1709.74	0.962	962.5	2back	Block3	2back/STIM_033.jpg	99
1713.343	0.622	621.9	2back	Block3	2back/STIM_034.jpg	100
1717.486	1.169	1169.1	2back	Block3	2back/STIM_034.jpg	100
1721.344	1.098	1097.8	2back	Block3	2back/STIM_034.jpg	100
1725.197	0.941	941.0	2back	Block3	2back/STIM_035.jpg	99
1729.496	0.638	638.3	2back	Block3	2back/STIM_035.jpg	99
1732.045	0.818	818.4	2back	Block3	2back/STIM_035.jpg	100
1735.495	0.854	854.5	2back	Block3	2back/STIM_036.jpg	99
1739.478	0.78	779.7	2back	Block3	2back/STIM_036.jpg	100
1743.684	1.06	1060.4	2back	Block3	2back/STIM_036.jpg	100
1746.975	0.693	693.4	2back	Block3	2back/STIM_037.jpg	100
1750.404	1.009	1008.6	2back	Block3	2back/STIM_037.jpg	99
1754.691	0.691	691.0	2back	Block3	2back/STIM_037.jpg	100
1757.389	1.012	1012.3	2back	Block3	2back/STIM_038.jpg	99
1760.625	0.632	632.2	2back	Block3	2back/STIM_038.jpg	99
1765.172	0.831	830.9	2back	Block3	2back/STIM_038.jpg	100
1768.228	0.893	892.8	2back	Block3	2back/STIM_039.jpg	100
1773.009	0.846	845.7	2back	Block3	2back/STIM_039.jpg	99
1777.163	0.621	620.7	2back	Block3	2back/STIM_039.jpg	99
1781.108	0.874	873.7	0back	Block3	0back/STIM_000.jpg	99
1784.803	0.801	801.3	0back	Block3	0back/STIM_000.jpg	99
1787.74	0.858	858.1	0back	Block3	0back/STIM_000.jpg	100
1790.708	0.782	781.8	0back	Block3	0back/STIM_001.jpg	99
1794.213	0.904	904.4	0back	Block3	0back/STIM_001.jpg	99
1797.149	0.513	513.0	0back	Block3	0back/STIM_001.jpg	100
1801.563	0.732	732.3	0back	Block3	0back/STIM_002.jpg	99
1805.073	0.584	584.0	0back	Block3	0back/STIM_002.jpg	100
1808.319	0.568	567.8	0back	Block3	0back/STIM_002.jpg	100
1810.997	0.556	555.7	0back	Block3	0back/STIM_003.jpg	99
1814.783	0.806	806.5	0back	Block3	0back/STIM_003.jpg	99
1817.653	0.928	927.6	0back	Block3	0back/STIM_003.jpg	99
1821.78	0.538	538.3	0back	Block3	0back/STIM_004.jpg	99
1825.101	0.595	595.1	0back	Block3	0back/STIM_004.jpg	100
1828.759	0.582	581.5	0back	Block3	0back/STIM_004.jpg	100
1833.019	0.654	653.7	0back	Block3	0back/STIM_005.jpg	100
1836.909	0.543	543.4	0back	Block3	0back/STIM_005.jpg	99
1840.282	0.793	793.3	0back	Block3	0back/STIM_005.jpg	99
1843.021	0.59	589.9	0back	Block3	0back/STIM_006.jpg	100
1847.154	0.765	765.0	0back	Block3	0back/STIM_006.jpg	99
1851.044	0.685	685.0	0back	Block3	0back/STIM_006.jpg	100
1854.528	0.859	858.7	0back	Block3	0back/STIM_007.jpg	99
1857.657	0.641	640.7	0back	Block3	0back/STIM_007.jpg	99
1860.877	0.698	698.1	0back	Block3	0back/STIM_007.jpg	99
1865.327	0.584	584.1	0back	Block3	0back/STIM_008.jpg	99
1869.255	0.816	816.3	0back	Block3	0back/STIM_008.jpg	99
1872.777	0.6	600.4	0back	Block3	0back/STIM_008.jpg	99
1876.073	0.503	503.4	0back	Block3	0back/STIM_009.jpg	100
1879.125	0.741	741.2	0back	Block3	0back/STIM_009.jpg	100
1882.805	0.429	429.3	0back	Block3	0back/STIM_009.jpg	100
1887.204	0.723	723.4	0back	Block3	0back/STIM_010.jpg	99
1890.364	0.907	907.0	0back	Block3	0back/STIM_010.jpg	99
1893.147	0.819	818.8	0back	Block3	0back/STIM_010.jpg	100
1896.384	0.808	808.0	0back	Block3	0back/STIM_011.jpg	99
1900.83	0.686	685.8	0back	Block3	0back/STIM_011.jpg	99
1904.617	0.764	763.7	0back	Block3	0back/STIM_011.jpg	100
1907.71	0.565	564.7	0back	Block3	0back/STIM_012.jpg	99
1911.982	0.714	714.0	0back	Block3	0back/STIM_012.jpg	99
1914.794	0.552	551.9	0back	Block3	0back/STIM_012.jpg	99
1918.338	0.566	565.5	0back	Block3	0back/STIM_013.jpg	100
1921.97	0.732	732.3	0back	Block3	0back/STIM_013.jpg	100
1926.602	0.506	506.5	0back	Block3	0back/STIM_013.jpg	99
1929.051	0.692	691.8	0back	Block3	0back/STIM_014.jpg	100
1931.779	0.905	904.9	0back	Block3	0back/STIM_014.jpg	100
1934.592	0.624	624.0	0back	Block3	0back/STIM_014.jpg	99
1939.105	0.659	659.2	0back	Block3	0back/STIM_015.jpg	100
1942.267	0.787	787.1	0back	Block3	0back/STIM_015.jpg	100
1946.872	0.632	632.2	0back	Block3	0back/STIM_015.jpg	100
1949.535	0.764	763.9	0back	Block3	0back/STIM_016.jpg	100
1952.627	0.493	492.7	0back	Block3	0back/STIM_016.jpg	99
1955.805	0.864	863.5	0back	Block3	0back/STIM_016.jpg	99
1959.322	0.888	887.6	0back	Block3	0back/STIM_017.jpg	100
1963.133	0.875	875.4	0back	Block3	0back/STIM_017.jpg	99
1967.385	0.887	886.8	0back	Block3	0back/STIM_017.jpg	100
1972.106	0.475	475.2	0back	Block3	0back/STIM_018.jpg	99
1976.271	0.839	838.6	0back	Block3	0back/STIM_018.jpg	99
1980.71	0.846	845.7	0back	Block3	0back/STIM_018.jpg	100
1983.846	0.564	563.7	0back	Block3	0back/STIM_019.jpg	99
1987.054	0.491	491.0	0back	Block3	0back/STIM_019.jpg	99
1990.237	0.52	520.4	0back	Block3	0back/STIM_019.jpg	99
1993.526	0.51	510.2	2back	Block4	2back/STIM_000.jpg	99
1996.255	0.882	882.5	2back	Block4	2back/STIM_000.jpg	100
1999.518	0.779	778.6	2back	Block4	2back/STIM_000.jpg	100
2002.253	0.655	654.9	2back	Block4	2back/STIM_001.jpg	100
2006.096	0.524	524.2	2back	Block4	2back/STIM_001.jpg	99
2009.766	1.058	1058.3	2back	Block4	2back/STIM_001.jpg	99
2013.795	1.079	1078.8	2back	Block4	2back/STIM_002.jpg	99
2018.548	0.927	926.9	2back	Block4	2back/STIM_002.jpg	100
2022.803	0.997	996.8	2back	Block4	2back/STIM_002.jpg	100
2027.573	0.782	782.0	2back	Block4	2back/STIM_003.jpg	100
2031.686	0.683	682.6	2back	Block4	2back/STIM_003.jpg	100
2035.414	0.901	900.6	2back	Block4	2back/STIM_003.jpg	100
2039.297	0.446	446.4	2back	Block4	2back/STIM_004.jpg	100
2041.822	1.064	1064.5	2back	Block4	2back/STIM_004.jpg	100
2045.478	1.09	1090.5	2back	Block4	2back/STIM_004.jpg	100
2050.17	0.625	625.2	2back	Block4	2back/STIM_005.jpg	99
2053.112	1.025	1024.6	2back	Block4	2back/STIM_005.jpg	100
2057.597	1.032	1031.8	2back	Block4	2back/STIM_005.jpg	100
2062.211	1.059	1059.0	2back	Block4	2back/STIM_006.jpg	100
2066.89	0.587	587.3	2back	Block4	2back/STIM_006.jpg	100
2069.771	0.756	756.2	2back	Block4	2back/STIM_006.jpg	100
2072.661	0.554	553.6	2back	Block4	2back/STIM_007.jpg	100
2075.704	0.862	861.8	2back	Block4	2back/STIM_007.jpg	99
2078.462	0.772	772.5	2back	Block4	2back/STIM_007.jpg	99
2082.863	0.503	502.9	2back	Block4	2back/STIM_008.jpg	99
2086.34	1.091	1091.3	2back	Block4	2back/STIM_008.jpg	100
2090.546	1.01	1009.9	2back	Block4	2back/STIM_008.jpg	100
2094.847	0.698	697.6	2back	Block4	2back/STIM_009.jpg	99
2098.299	0.968	967.8	2back	Block4	2back/STIM_009.jpg	99
2101.749	0.832	832.1	2back	Block4	2back/STIM_009.jpg	100
2106.184	1.098	1098.0	2back	Block4	2back/STIM_010.jpg	100
2110.865	1.139	1138.6	2back	Block4	2back/STIM_010.jpg	99
2114.973	0.812	812.1	2back	Block4	2back/STIM_010.jpg	100
2118.179	0.96	959.7	2back	Block4	2back/STIM_011.jpg	100
2121.89	0.904	904.4	2back	Block4	2back/STIM_011.jpg	99
2126.215	0.695	694.8	2back	Block4	2back/STIM_011.jpg	100
2129.195	0.686	686.4	2back	Block4	2back/STIM_012.jpg	99
2132.47	0.779	778.8	2back	Block4	2back/STIM_012.jpg	100
2135.863	0.798	797.8	2back	Block4	2back/STIM_012.jpg	99
2139.768	0.785	785.0	2back	Block4	2back/STIM_013.jpg	100
2142.985	0.707	706.6	2back	Block4	2back/STIM_013.jpg	100
2146.097	0.542	542.3	2back	Block4	2back/STIM_013.jpg	99
2150.269	0.74	739.7	2back	Block4	2back/STIM_014.jpg	99
2153.899	0.569	568.8	2back	Block4	2back/STIM_014.jpg	99
2157.781	0.574	574.5	2back	Block4	2back/STIM_014.jpg	99
2160.616	1.029	1028.7	2back	Block4	2back/STIM_015.jpg	100
2164.855	0.967	967.2	2back	Block4	2back/STIM_015.jpg	99
2168.759	0.639	638.9	2back	Block4	2back/STIM_015.jpg	100
2171.447	0.668	668.4	2back	Block4	2back/STIM_016.jpg	99
2175.152	0.898	898.0	2back	Block4	2back/STIM_016.jpg	99
2178.185	0.845	845.0	2back	Block4	2back/STIM_016.jpg	100
2181.353	0.585	585.1	2back	Block4	2back/STIM_017.jpg	99
2184.97	0.678	678.4	2back	Block4	2back/STIM_017.jpg	99
2188.139	0.89	890.5	2back	Block4	2back/STIM_017.jpg	99
2192.542	0.848	848.1	2back	Block4	2back/STIM_018.jpg	100
2196.55	0.971	971.0	2back	Block4	2back/STIM_018.jpg	100
2200.982	0.685	685.0	2back	Block4	2back/STIM_018.jpg	100
2204.083	0.652	651.8	2back	Block4	2back/STIM_019.jpg	99
2207.537	0.994	994.5	2back	Block4	2back/STIM_019.jpg	100
2210.896	1.063	1062.7	2back	Block4	2back/STIM_019.jpg	100
2215.247	0.654	653.6	2back	Block4	2back/STIM_020.jpg	99
2218.775	0.998	998.1	2back	Block4	2back/STIM_020.jpg	99
2223.58	1.018	1017.9	2back	Block4	2back/STIM_020.jpg	99
2226.668	0.764	764.1	2back	Block4	2back/STIM_021.jpg	99
2230.656	0.884	883.9	2back	Block4	2back/STIM_021.jpg	100
2235.331	0.703	703.0	2back	Block4	2back/STIM_021.jpg	99
2239.359	1.071	1070.9	2back	Block4	2back/STIM_022.jpg	100
2243.669	0.626	626.3	2back	Block4	2back/STIM_022.jpg	99
2246.974	0.823	823.0	2back	Block4	2back/STIM_022.jpg	100
2251.351	0.692	691.6	2back	Block4	2back/STIM_023.jpg	99
2254.704	0.562	562.0	2back	Block4	2back/STIM_023.jpg	100
2258.591	0.759	759.2	2back	Block4	2back/STIM_023.jpg	99
2262.849	0.793	793.0	2back	Block4	2back/STIM_024.jpg	99
2266.69	0.636	635.5	2back	Block4	2back/STIM_024.jpg	100
2269.698	1.045	1044.8	2back	Block4	2back/STIM_024.jpg	99
2274.209	0.722	722.5	2back	Block4	2back/STIM_025.jpg	100
2276.74	0.955	954.6	2back	Block4	2back/STIM_025.jpg	99
2281.114	0.82	820.4	2back	Block4	2back/STIM_025.jpg	100
2285.344	0.844	844.3	2back	Block4	2back/STIM_026.jpg	100
2288.594	0.698	697.9	2back	Block4	2back/STIM_026.jpg	99
2292.831	0.848	847.8	2back	Block4	2back/STIM_026.jpg	100
2296.216	1.086	1086.2	2back	Block4	2back/STIM_027.jpg	99
2299.394	0.555	555.3	2back	Block4	2back/STIM_027.jpg	100
2302.595	1.014	1014.3	2back	Block4	2back/STIM_027.jpg	100
2306.723	0.629	629.4	2back	Block4	2back/STIM_028.jpg	99
2309.266	0.562	561.5	2back	Block4	2back/STIM_028.jpg	100
2312.91	0.563	563.0	2back	Block4	2back/STIM_028.jpg	100
2316.731	0.828	827.6	2back	Block4	2back/STIM_029.jpg	99
2319.658	0.764	764.4	2back	Block4	2back/STIM_029.jpg	99
2324.202	0.777	776.9	2back	Block4	2back/STIM_029.jpg	100
2328.016	0.769	769.0	2back	Block4	2back/STIM_030.jpg	99
2330.987	0.625	625.1	2back	Block4	2back/STIM_030.jpg	100
2334.575	0.833	833.1	2back	Block4	2back/STIM_030.jpg	99
2337.756	0.741	740.9	2back	Block4	2back/STIM_031.jpg	100
2342.189	1.07	1070.1	2back	Block4	2back/STIM_031.jpg	100
2345.753	0.905	905.2	2back	Block4	2back/STIM_031.jpg	100
2349.054	0.683	683.2	2back	Block4	2back/STIM_032.jpg	99
2352.18	0.51	509.9	2back	Block4	2back/STIM_032.jpg	100
2354.748	0.889	888.7	2back	Block4	2back/STIM_032.jpg	100
2359.333	1.028	1028.0	2back	Block4	2back/STIM_033.jpg	99
2362.618	1.04	1039.6	2back	Block4	2back/STIM_033.jpg	99
2365.846	1.064	1064.4	2back	Block4	2back/STIM_033.jpg	99
2370.581	0.862	862.0	2back	Block4	2back/STIM_034.jpg	100
2375.075	0.909	908.8	2back	Block4	2back/STIM_034.jpg	100
2377.917	0.533	533.3	2back	Block4	2back/STIM_034.jpg	100
2382.221	0.94	939.5	2back	Block4	2back/STIM_035.jpg	99
2385.902	1.043	1042.8	2back	Block4	2back/STIM_035.jpg	100
2388.908	0.7	700.3	2back	Block4	2back/STIM_035.jpg	100
2391.5	0.642	642.4	2back	Block4	2back/STIM_036.jpg	100
2395.676	0.621	621.2	2back	Block4	2back/STIM_036.jpg	100
2398.613	0.632	632.0	2back	Block4	2back/STIM_036.jpg	100
2402.742	0.597	597.4	2back	Block4	2back/STIM_037.jpg	99
2405.938	0.806	805.9	2back	Block4	2back/STIM_037.jpg	100
2409.839	0.484	484.4	2back	Block4	2back/STIM_037.jpg	100
2413.045	1.121	1121.0	2back	Block4	2back/STIM_038.jpg	100
2416.078	0.922	921.7	2back	Block4	2back/STIM_038.jpg	100
2419.065	0.794	794.1	2back	Block4	2back/STIM_038.jpg	99
2422.741	0.626	625.8	2back	Block4	2back/STIM_039.jpg	100
2426.564	0.652	652.0	2back	Block4	2back/STIM_039.jpg	99
2429.411	0.739	739.4	2back	Block4	2back/STIM_039.jpg	99
2432.488	0.586	585.7	0back	Block4	0back/STIM_000.jpg	100
2435.233	0.639	638.9	0back	Block4	0back/STIM_000.jpg	100
2439.002	0.47	469.5	0back	Block4	0back/STIM_000.jpg	99
2442.692	0.852	852.4	0back	Block4	0back/STIM_001.jpg	99
2446.768	0.961	961.1	0back	Block4	0back/STIM_001.jpg	100
2449.566	0.855	855.0	0back	Block4	0back/STIM_001.jpg	99
2452.82	0.775	774.8	0back	Block4	0back/STIM_002.jpg	99
2457.185	0.651	651.2	0back	Block4	0back/STIM_002.jpg	100
2460.57	0.73	730.0	0back	Block4	0back/STIM_002.jpg	99
2463.309	0.719	719.0	0back	Block4	0back/STIM_003.jpg	99
2466.895	0.634	633.7	0back	Block4	0back/STIM_003.jpg	99
2469.968	0.796	796.0	0back	Block4	0back/STIM_003.jpg	100
2473.251	0.708	708.5	0back	Block4	0back/STIM_004.jpg	100
2477.573	0.563	562.6	0back	Block4	0back/STIM_004.jpg	99
2482.071	0.848	847.5	0back	Block4	0back/STIM_004.jpg	100
2484.954	0.526	525.6	0back	Block4	0back/STIM_005.jpg	100
2488.298	0.624	624.1	0back	Block4	0back/STIM_005.jpg	100
2491.668	0.934	933.7	0back	Block4	0back/STIM_005.jpg	100
2494.628	0.908	907.5	0back	Block4	0back/STIM_006.jpg	100
2499.03	0.669	668.9	0back	Block4	0back/STIM_006.jpg	100
2502.338	0.572	572.1	0back	Block4	0back/STIM_006.jpg	100
2505.764	0.787	786.7	0back	Block4	0back/STIM_007.jpg	99
2510.466	0.972	971.9	0back	Block4	0back/STIM_007.jpg	99
2514.825	0.642	642.4	0back	Block4	0back/STIM_007.jpg	99
2518.563	0.826	826.4	0back	Block4	0back/STIM_008.jpg	100
2522.979	0.644	643.5	0back	Block4	0back/STIM_008.jpg	99
2526.551	0.739	739.4	0back	Block4	0back/STIM_008.jpg	99
2529.829	0.737	737.1	0back	Block4	0back/STIM_009.jpg	100
2532.676	0.887	886.9	0back	Block4	0back/STIM_009.jpg	100
2537.062	0.797	796.6	0back	Block4	0back/STIM_009.jpg	100
2540.724	0.516	516.0	0back	Block4	0back/STIM_010.jpg	99
2544.659	0.65	650.2	0back	Block4	0back/STIM_010.jpg	99
2548.636	0.884	884.2	0back	Block4	0back/STIM_010.jpg	99
2552.439	1.042	1042.4	0back	Block4	0back/STIM_011.jpg	100
2555.59	0.748	747.5	0back	Block4	0back/STIM_011.jpg	100
2558.282	0.77	770.3	0back	Block4	0back/STIM_011.jpg	99
2562.322	0.684	684.1	0back	Block4	0back/STIM_012.jpg	100
2565.969	0.71	709.8	0back	Block4	0back/STIM_012.jpg	100
2568.899	0.523	523.1	0back	Block4	0back/STIM_012.jpg	100
2572.151	0.821	821.0	0back	Block4	0back/STIM_013.jpg	100
2575.831	0.704	703.6	0back	Block4	0back/STIM_013.jpg	99
2579.941	0.62	619.8	0back	Block4	0back/STIM_013.jpg	100
2582.878	0.684	683.6	0back	Block4	0back/STIM_014.jpg	100
2586.81	0.659	659.0	0back	Block4	0back/STIM_014.jpg	99
2590.224	0.494	493.5	0back	Block4	0back/STIM_014.jpg	100
2593.8	0.742	742.5	0back	Block4	0back/STIM_015.jpg	99
2597.594	0.548	548.2	0back	Block4	0back/STIM_015.jpg	99
2600.286	0.816	815.7	0back	Block4	0back/STIM_015.jpg	100
2604.952	0.874	873.8	0back	Block4	0back/STIM_016.jpg	100
2608.647	0.839	838.9	0back	Block4	0back/STIM_016.jpg	99
2612.727	0.683	683.2	0back	Block4	0back/STIM_016.jpg	100
2617.332	0.697	696.7	0back	Block4	0back/STIM_017.jpg	100
2619.953	0.652	651.9	0back	Block4	0back/STIM_017.jpg	99
2623.522	0.613	612.8	0back	Block4	0back/STIM_017.jpg	100
2626.618	0.812	812.5	0back	Block4	0back/STIM_018.jpg	100
2630.171	0.944	944.2	0back	Block4	0back/STIM_018.jpg	100
2633.241	0.853	853.2	0back	Block4	0back/STIM_018.jpg	99
2636.086	0.947	947.1	0back	Block4	0back/STIM_019.jpg	99
2639.511	0.468	468.5	0back	Block4	0back/STIM_019.jpg	100
2643.354	0.558	557.8	0back	Block4	0back/STIM_019.jpg	100
