onset	duration	response_time_ms	trial_type	learning_stage	stimulus	response_port
0.0	1.186	1185.5	2back	Block1	2back/STIM_000.jpg	99
4.493	0.579	578.9	2back	Block1	2back/STIM_000.jpg	100
8.934	1.112	1111.5	2back	Block1	2back/STIM_000.jpg	100
12.241	0.712	712.4	2back	Block1	2back/STIM_001.jpg	99
16.879	0.598	598.4	2back	Block1	2back/STIM_001.jpg	99
19.955	0.837	837.0	2back	Block1	2back/STIM_001.jpg	99
22.955	1.106	1105.6	2back	Block1	2back/STIM_002.jpg	99
27.931	0.971	970.8	2back	Block1	2back/STIM_002.jpg	99
32.554	0.794	794.5	2back	Block1	2back/STIM_002.jpg	99
37.238	0.762	762.0	2back	Block1	2back/STIM_003.jpg	100
40.22	0.993	992.7	2back	Block1	2back/STIM_003.jpg	100
45.077	0.942	942.1	2back	Block1	2back/STIM_003.jpg	100
48.482	0.537	537.2	2back	Block1	2back/STIM_004.jpg	99
52.512	0.567	567.0	2back	Block1	2back/STIM_004.jpg	100
55.78	0.794	794.5	2back	Block1	2back/STIM_004.jpg	100
60.385	1.236	1235.9	2back	Block1	2back/STIM_005.jpg	100
64.127	1.045	1044.9	2back	Block1	2back/STIM_005.jpg	100
68.455	0.624	624.2	2back	Block1	2back/STIM_005.jpg	100
73.018	1.133	1133.1	2back	Block1	2back/STIM_006.jpg	99
76.471	0.839	838.7	2back	Block1	2back/STIM_006.jpg	100
81.167	0.716	716.4	2back	Block1	2back/STIM_006.jpg	99
84.253	0.945	945.4	2back	Block1	2back/STIM_007.jpg	100
87.448	0.669	669.3	2back	Block1	2back/STIM_007.jpg	99
91.109	1.047	1046.9	2back	Block1	2back/STIM_007.jpg	100
94.987	0.711	711.4	2back	Block1	2back/STIM_008.jpg	99
99.39	1.004	1003.5	2back	Block1	2back/STIM_008.jpg	100
102.95	0.954	953.9	2back	Block1	2back/STIM_008.jpg	99
106.03	1.098	1097.5	2back	Block1	2back/STIM_009.jpg	100
110.696	0.752	752.4	2back	Block1	2back/STIM_009.jpg	100
113.979	0.516	515.9	2back	Block1	2back/STIM_009.jpg	100
117.605	0.839	839.1	2back	Block1	2back/STIM_010.jpg	99
121.774	1.102	1101.7	2back	Block1	2back/STIM_010.jpg	99
126.872	0.501	501.1	2back	Block1	2back/STIM_010.jpg	99
130.908	0.834	833.9	2back	Block1	2back/STIM_011.jpg	100
134.171	0.961	961.4	2back	Block1	2back/STIM_011.jpg	99
138.061	0.862	862.2	2back	Block1	2back/STIM_011.jpg	99
142.328	1.149	1149.1	2back	Block1	2back/STIM_012.jpg	100
146.07	0.754	754.0	2back	Block1	2back/STIM_012.jpg	99
150.469	0.696	695.8	2back	Block1	2back/STIM_012.jpg	99
154.776	1.061	1061.3	2back	Block1	2back/STIM_013.jpg	100
159.599	1.094	1093.8	2back	Block1	2back/STIM_013.jpg	99
163.779	0.555	555.4	2back	Block1	2back/STIM_013.jpg	100
166.423	0.697	697.1	2back	Block1	2back/STIM_014.jpg	100
169.932	1.126	1126.1	2back	Block1	2back/STIM_014.jpg	100
173.374	0.954	954.1	2back	Block1	2back/STIM_014.jpg	99
176.64	0.722	722.3	2back	Block1	2back/STIM_015.jpg	99
180.128	0.579	579.3	2back	Block1	2back/STIM_015.jpg	100
182.865	0.907	906.6	2back	Block1	2back/STIM_015.jpg	100
187.282	0.97	969.9	2back	Block1	2back/STIM_016.jpg	99
191.282	1.059	1058.7	2back	Block1	2back/STIM_016.jpg	99
194.867	1.004	1003.9	2back	Block1	2back/STIM_016.jpg	100
198.181	1.143	1143.4	2back	Block1	2back/STIM_017.jpg	99
202.067	1.075	1074.7	2back	Block1	2back/STIM_017.jpg	100
206.611	1.089	1088.9	2back	Block1	2back/STIM_017.jpg	100
210.128	0.588	588.4	2back	Block1	2back/STIM_018.jpg	100
214.533	0.518	517.5	2back	Block1	2back/STIM_018.jpg	100
217.944	0.543	542.9	2back	Block1	2back/STIM_018.jpg	99
221.643	0.81	810.5	2back	Block1	2back/STIM_019.jpg	99
225.102	0.588	588.0	2back	Block1	2back/STIM_019.jpg	99
227.797	0.538	537.6	2back	Block1	2back/STIM_019.jpg	100
231.877	0.971	971.3	2back	Block1	2back/STIM_020.jpg	100
235.347	1.117	1116.7	2back	Block1	2back/STIM_020.jpg	100
239.763	0.931	931.0	2back	Block1	2back/STIM_020.jpg	99
244.414	1.072	1072.0	2back	Block1	2back/STIM_021.jpg	99
249.301	0.603	603.2	2back	Block1	2back/STIM_021.jpg	100
251.992	0.647	646.9	2back	Block1	2back/STIM_021.jpg	100
255.094	1.17	1170.5	2back	Block1	2back/STIM_022.jpg	99
258.874	1.136	1136.4	2back	Block1	2back/STIM_022.jpg	100
262.392	0.889	889.1	2back	Block1	2back/STIM_022.jpg	99
266.096	1.23	1230.1	2back	Block1	2back/STIM_023.jpg	100
269.6	0.607	607.3	2back	Block1	2back/STIM_023.jpg	100
272.914	0.748	747.7	2back	Block1	2back/STIM_023.jpg	100
275.767	1.163	1163.1	2back	Block1	2back/STIM_024.jpg	99
278.964	1.04	1039.8	2back	Block1	2back/STIM_024.jpg	100
282.863	0.678	678.5	2back	Block1	2back/STIM_024.jpg	100
285.976	0.823	823.3	2back	Block1	2back/STIM_025.jpg	99
290.595	0.721	721.2	2back	Block1	2back/STIM_025.jpg	99
293.615	1.049	1048.7	2back	Block1	2back/STIM_025.jpg	99
297.426	0.95	949.9	2back	Block1	2back/STIM_026.jpg	99
300.79	0.521	520.8	2back	Block1	2back/STIM_026.jpg	100
303.678	1.08	1080.5	2back	Block1	2back/STIM_026.jpg	100
307.708	0.772	772.4	2back	Block1	2back/STIM_027.jpg	99
311.018	1.007	1007.2	2back	Block1	2back/STIM_027.jpg	99
315.688	0.495	495.1	2back	Block1	2back/STIM_027.jpg	99
320.023	1.219	1219.0	2back	Block1	2back/STIM_028.jpg	99
323.843	0.93	929.9	2back	Block1	2back/STIM_028.jpg	100
328.555	0.786	785.7	2back	Block1	2back/STIM_028.jpg	99
333.119	0.955	955.3	2back	Block1	2back/STIM_029.jpg	100
337.883	0.505	504.7	2back	Block1	2back/STIM_029.jpg	100
341.689	0.728	728.2	2back	Block1	2back/STIM_029.jpg	100
345.802	0.93	929.8	2back	Block1	2back/STIM_030.jpg	99
350.07	0.938	937.7	2back	Block1	2back/STIM_030.jpg	99
354.463	0.704	704.4	2back	Block1	2back/STIM_030.jpg	100
358.665	1.034	1033.8	2back	Block1	2back/STIM_031.jpg	99
363.66	1.027	1026.8	2back	Block1	2back/STIM_031.jpg	100
367.28	1.062	1062.2	2back	Block1	2back/STIM_031.jpg	100
371.611	0.724	723.7	2back	Block1	2back/STIM_032.jpg	99
374.758	0.517	517.2	2back	Block1	2back/STIM_032.jpg	100
377.694	0.638	637.7	2back	Block1	2back/STIM_032.jpg	99
381.24	0.862	861.6	2back	Block1	2back/STIM_033.jpg	100
384.542	0.582	582.1	2back	Block1	2back/STIM_033.jpg	100
387.612	0.988	988.0	2back	Block1	2back/STIM_033.jpg	100
390.794	1.097	1097.2	2back	Block1	2back/STIM_034.jpg	100
395.359	0.773	773.2	2back	Block1	2back/STIM_034.jpg	100
398.793	1.06	1060.2	2back	Block1	2back/STIM_034.jpg	100
403.818	0.72	719.6	2back	Block1	2back/STIM_035.jpg	99
406.941	1.049	1048.6	2back	Block1	2back/STIM_035.jpg	100
411.937	0.896	896.2	2back	Block1	2back/STIM_035.jpg	100
416.127	1.215	1214.7	2back	Block1	2back/STIM_036.jpg	100
420.928	0.924	924.1	2back	Block1	2back/STIM_036.jpg	100
424.568	0.678	678.0	2back	Block1	2back/STIM_036.jpg	99
428.732	0.83	830.3	2back	Block1	2back/STIM_037.jpg	100
432.234	0.804	804.5	2back	Block1	2back/STIM_037.jpg	99
436.003	0.933	933.0	2back	Block1	2back/STIM_037.jpg	100
438.949	1.218	1218.2	2back	Block1	2back/STIM_038.jpg	99
442.357	0.605	604.9	2back	Block1	2back/STIM_038.jpg	100
446.027	0.66	660.4	2back	Block1	2back/STIM_038.jpg	100
450.037	0.823	823.4	2back	Block1	2back/STIM_039.jpg	99
454.229	0.705	704.6	2back	Block1	2back/STIM_039.jpg	100
457.054	0.759	758.9	2back	Block1	2back/STIM_039.jpg	99
460.057	0.441	440.6	0back	Block1	0back/STIM_000.jpg	99
463.755	0.376	376.3	0back	Block1	0back/STIM_000.jpg	99
467.61	0.566	565.7	0back	Block1	0back/STIM_000.jpg	99
470.283	0.386	385.8	0back	Block1	0back/STIM_001.jpg	99
474.213	0.509	509.3	0back	Block1	0back/STIM_001.jpg	99
478.464	0.689	689.2	0back	Block1	0back/STIM_001.jpg	99
482.554	0.511	510.8	0back	Block1	0back/STIM_002.jpg	99
485.992	0.563	563.0	0back	Block1	0back/STIM_002.jpg	100
490.464	0.378	377.6	0back	Block1	0back/STIM_002.jpg	99
493.254	0.409	409.1	0back	Block1	0back/STIM_003.jpg	100
497.132	0.572	572.1	0back	Block1	0back/STIM_003.jpg	99
500.055	0.396	395.5	0back	Block1	0back/STIM_003.jpg	100
503.334	0.66	660.3	0back	Block1	0back/STIM_004.jpg	99
507.146	0.404	404.5	0back	Block1	0back/STIM_004.jpg	99
510.623	0.391	391.0	0back	Block1	0back/STIM_004.jpg	100
514.512	0.601	601.1	0back	Block1	0back/STIM_005.jpg	99
517.687	0.362	362.1	0back	Block1	0back/STIM_005.jpg	99
520.757	0.624	623.5	0back	Block1	0back/STIM_005.jpg	100
523.787	0.419	418.8	0back	Block1	0back/STIM_006.jpg	99
527.144	0.393	393.2	0back	Block1	0back/STIM_006.jpg	100
531.338	0.615	614.6	0back	Block1	0back/STIM_006.jpg	99
535.934	0.41	409.8	0back	Block1	0back/STIM_007.jpg	100
539.267	0.519	519.2	0back	Block1	0back/STIM_007.jpg	100
543.269	0.651	651.1	0back	Block1	0back/STIM_007.jpg	100
547.908	0.498	497.8	0back	Block1	0back/STIM_008.jpg	100
550.782	0.467	466.8	0back	Block1	0back/STIM_008.jpg	99
554.895	0.611	610.9	0back	Block1	0back/STIM_008.jpg	100
559.003	0.558	558.5	0back	Block1	0back/STIM_009.jpg	99
562.098	0.611	610.7	0back	Block1	0back/STIM_009.jpg	99
565.393	0.523	522.9	0back	Block1	0back/STIM_009.jpg	99
569.625	0.631	631.2	0back	Block1	0back/STIM_010.jpg	99
572.33	0.648	648.4	0back	Block1	0back/STIM_010.jpg	100
576.018	0.447	447.2	0back	Block1	0back/STIM_010.jpg	100
579.071	0.596	595.5	0back	Block1	0back/STIM_011.jpg	100
581.843	0.608	608.0	0back	Block1	0back/STIM_011.jpg	99
585.278	0.504	503.8	0back	Block1	0back/STIM_011.jpg	99
588.574	0.443	442.7	0back	Block1	0back/STIM_012.jpg	100
591.08	0.595	595.2	0back	Block1	0back/STIM_012.jpg	100
594.573	0.589	589.0	0back	Block1	0back/STIM_012.jpg	99
597.431	0.399	399.3	0back	Block1	0back/STIM_013.jpg	99
600.639	0.497	497.4	0back	Block1	0back/STIM_013.jpg	99
604.778	0.542	542.0	0back	Block1	0back/STIM_013.jpg	100
608.976	0.573	573.4	0back	Block1	0back/STIM_014.jpg	99
612.673	0.364	363.9	0back	Block1	0back/STIM_014.jpg	99
616.798	0.478	478.5	0back	Block1	0back/STIM_014.jpg	100
620.511	0.474	474.4	0back	Block1	0back/STIM_015.jpg	99
624.528	0.52	520.1	0back	Block1	0back/STIM_015.jpg	99
628.346	0.495	495.2	0back	Block1	0back/STIM_015.jpg	99
632.78	0.682	682.0	0back	Block1	0back/STIM_016.jpg	99
635.489	0.703	703.4	0back	Block1	0back/STIM_016.jpg	100
638.37	0.486	485.9	0back	Block1	0back/STIM_016.jpg	100
641.556	0.491	491.4	0back	Block1	0back/STIM_017.jpg	100
644.824	0.427	426.7	0back	Block1	0back/STIM_017.jpg	99
647.505	0.563	563.2	0back	Block1	0back/STIM_017.jpg	99
652.004	0.673	673.0	0back	Block1	0back/STIM_018.jpg	99
654.998	0.526	526.2	0back	Block1	0back/STIM_018.jpg	99
657.798	0.574	574.5	0back	Block1	0back/STIM_018.jpg	99
662.365	0.393	392.9	0back	Block1	0back/STIM_019.jpg	99
666.412	0.474	473.9	0back	Block1	0back/STIM_019.jpg	100
670.752	0.684	684.3	0back	Block1	0back/STIM_019.jpg	99
674.228	0.582	582.1	2back	Block2	2back/STIM_000.jpg	100
677.187	0.462	462.1	2back	Block2	2back/STIM_000.jpg	100
680.35	0.748	748.1	2back	Block2	2back/STIM_000.jpg	99
684.667	0.474	474.5	2back	Block2	2back/STIM_001.jpg	99
687.691	0.589	589.4	2back	Block2	2back/STIM_001.jpg	100
690.802	0.569	569.1	2back	Block2	2back/STIM_001.jpg	100
694.506	0.472	471.5	2back	Block2	2back/STIM_002.jpg	100
697.722	0.52	519.8	2back	Block2	2back/STIM_002.jpg	99
701.865	0.517	516.8	2back	Block2	2back/STIM_002.jpg	99
705.408	0.985	985.0	2back	Block2	2back/STIM_003.jpg	99
710.071	0.47	469.8	2back	Block2	2back/STIM_003.jpg	99
712.887	0.417	416.7	2back	Block2	2back/STIM_003.jpg	100
716.696	0.505	504.8	2back	Block2	2back/STIM_004.jpg	100
720.523	0.863	863.1	2back	Block2	2back/STIM_004.jpg	99
724.539	0.823	823.1	2back	Block2	2back/STIM_004.jpg	99
727.908	0.596	595.6	2back	Block2	2back/STIM_005.jpg	100
731.535	0.657	657.1	2back	Block2	2back/STIM_005.jpg	100
734.413	0.416	416.5	2back	Block2	2back/STIM_005.jpg	100
737.06	0.863	862.6	2back	Block2	2back/STIM_006.jpg	100
740.022	0.929	928.9	2back	Block2	2back/STIM_006.jpg	99
743.767	0.649	649.2	2back	Block2	2back/STIM_006.jpg	100
747.063	0.895	894.6	2back	Block2	2back/STIM_007.jpg	100
750.163	0.757	757.2	2back	Block2	2back/STIM_007.jpg	99
753.241	0.828	828.1	2back	Block2	2back/STIM_007.jpg	100
756.577	0.72	719.9	2back	Block2	2back/STIM_008.jpg	100
759.752	0.662	661.9	2back	Block2	2back/STIM_008.jpg	100
762.473	0.777	777.1	2back	Block2	2back/STIM_008.jpg	100
766.557	1.034	1033.5	2back	Block2	2back/STIM_009.jpg	99
770.677	0.554	554.0	2back	Block2	2back/STIM_009.jpg	100
774.478	0.422	421.5	2back	Block2	2back/STIM_009.jpg	99
777.947	1.007	1007.1	2back	Block2	2back/STIM_010.jpg	99
781.585	0.576	576.5	2back	Block2	2back/STIM_010.jpg	100
785.424	0.703	703.2	2back	Block2	2back/STIM_010.jpg	100
788.573	0.931	931.2	2back	Block2	2back/STIM_011.jpg	100
792.341	0.808	808.5	2back	Block2	2back/STIM_011.jpg	100
795.681	0.69	689.6	2back	Block2	2back/STIM_011.jpg	100
799.158	0.72	719.5	2back	Block2	2back/STIM_012.jpg	99
803.794	0.952	951.6	2back	Block2	2back/STIM_012.jpg	99
808.623	0.67	670.2	2back	Block2	2back/STIM_012.jpg	100
813.11	0.541	541.0	2back	Block2	2back/STIM_013.jpg	99
816.922	0.807	807.3	2back	Block2	2back/STIM_013.jpg	100
821.707	0.789	789.3	2back	Block2	2back/STIM_013.jpg	99
826.269	0.48	480.2	2back	Block2	2back/STIM_014.jpg	99
830.042	0.494	493.6	2back	Block2	2back/STIM_014.jpg	99
833.022	0.558	558.2	2back	Block2	2back/STIM_014.jpg	99
836.729	0.577	577.4	2back	Block2	2back/STIM_015.jpg	99
839.708	0.627	627.0	2back	Block2	2back/STIM_015.jpg	99
843.631	0.706	705.9	2back	Block2	2back/STIM_015.jpg	100
848.047	0.466	466.2	2back	Block2	2back/STIM_016.jpg	100
851.782	0.843	842.8	2back	Block2	2back/STIM_016.jpg	100
854.958	0.838	837.7	2back	Block2	2back/STIM_016.jpg	99
858.748	0.735	735.1	2back	Block2	2back/STIM_017.jpg	100
863.056	0.654	653.8	2back	Block2	2back/STIM_017.jpg	100
866.918	0.647	647.3	2back	Block2	2back/STIM_017.jpg	100
869.6	0.754	754.0	2back	Block2	2back/STIM_018.jpg	100
873.209	0.65	650.3	2back	Block2	2back/STIM_018.jpg	99
877.663	0.545	545.0	2back	Block2	2back/STIM_018.jpg	99
880.55	0.677	677.0	2back	Block2	2back/STIM_019.jpg	99
884.016	0.874	874.3	2back	Block2	2back/STIM_019.jpg	100
888.792	0.767	767.0	2back	Block2	2back/STIM_019.jpg	99
892.395	0.678	678.4	2back	Block2	2back/STIM_020.jpg	100
896.661	0.939	939.2	2back	Block2	2back/STIM_020.jpg	100
900.299	0.473	473.1	2back	Block2	2back/STIM_020.jpg	100
903.975	0.527	526.9	2back	Block2	2back/STIM_021.jpg	99
907.057	0.493	493.2	2back	Block2	2back/STIM_021.jpg	100
911.235	0.672	672.1	2back	Block2	2back/STIM_021.jpg	99
915.818	0.587	586.6	2back	Block2	2back/STIM_022.jpg	99
918.549	0.832	831.8	2back	Block2	2back/STIM_022.jpg	99
923.326	0.694	694.1	2back	Block2	2back/STIM_022.jpg	99
927.256	0.713	712.8	2back	Block2	2back/STIM_023.jpg	99
930.67	0.941	941.3	2back	Block2	2back/STIM_023.jpg	100
935.461	0.882	882.1	2back	Block2	2back/STIM_023.jpg	100
938.805	0.82	819.5	2back	Block2	2back/STIM_024.jpg	99
942.714	0.915	915.1	2back	Block2	2back/STIM_024.jpg	100
946.659	0.879	878.8	2back	Block2	2back/STIM_024.jpg	100
951.268	0.944	943.5	2back	Block2	2back/STIM_025.jpg	99
956.038	0.69	690.5	2back	Block2	2back/STIM_025.jpg	99
959.327	0.921	921.4	2back	Block2	2back/STIM_025.jpg	99
962.517	0.687	687.1	2back	Block2	2back/STIM_026.jpg	100
966.532	0.833	833.4	2back	Block2	2back/STIM_026.jpg	99
970.914	0.668	667.5	2back	Block2	2back/STIM_026.jpg	100
973.671	0.617	617.3	2back	Block2	2back/STIM_027.jpg	100
977.336	0.691	690.7	2back	Block2	2back/STIM_027.jpg	99
980.825	0.82	820.4	2back	Block2	2back/STIM_027.jpg	100
985.134	0.661	661.4	2back	Block2	2back/STIM_028.jpg	99
987.931	0.882	881.7	2back	Block2	2back/STIM_028.jpg	100
991.795	0.658	658.4	2back	Block2	2back/STIM_028.jpg	100
995.635	0.615	614.9	2back	Block2	2back/STIM_029.jpg	100
999.912	0.846	846.4	2back	Block2	2back/STIM_029.jpg	100
1002.761	0.446	446.0	2back	Block2	2back/STIM_029.jpg	100
1006.055	0.593	592.8	2back	Block2	2back/STIM_030.jpg	99
1008.689	0.676	675.8	2back	Block2	2back/STIM_030.jpg	100
1013.203	0.519	519.2	2back	Block2	2back/STIM_030.jpg	99
1017.111	0.737	737.0	2back	Block2	2back/STIM_031.jpg	100
1020.708	0.841	841.1	2back	Block2	2back/STIM_031.jpg	99
1025.424	0.822	821.6	2back	Block2	2back/STIM_031.jpg	100
1030.037	0.939	939.1	2back	Block2	2back/STIM_032.jpg	99
1033.914	0.9	899.6	2back	Block2	2back/STIM_032.jpg	100
1037.34	0.783	782.6	2back	Block2	2back/STIM_032.jpg	99
1040.975	0.612	612.0	2back	Block2	2back/STIM_033.jpg	99
1044.436	0.761	761.3	2back	Block2	2back/STIM_033.jpg	99
1048.529	0.88	879.8	2back	Block2	2back/STIM_033.jpg	99
1052.825	0.67	670.4	2back	Block2	2back/STIM_034.jpg	100
1056.991	0.448	448.3	2back	Block2	2back/STIM_034.jpg	99
1060.971	0.738	738.1	2back	Block2	2back/STIM_034.jpg	100
1065.606	1.0	999.6	2back	Block2	2back/STIM_035.jpg	100
1069.051	0.926	925.7	2back	Block2	2back/STIM_035.jpg	100
1072.413	0.866	866.2	2back	Block2	2back/STIM_035.jpg	100
1076.416	0.961	961.4	2back	Block2	2back/STIM_036.jpg	99
1080.993	0.464	464.2	2back	Block2	2back/STIM_036.jpg	99
1085.342	0.808	808.0	2back	Block2	2back/STIM_036.jpg	99
1088.932	0.99	990.5	2back	Block2	2back/STIM_037.jpg	99
1093.919	0.884	883.8	2back	Block2	2back/STIM_037.jpg	100
1098.282	0.852	851.8	2back	Block2	2back/STIM_037.jpg	100
1102.195	0.511	511.3	2back	Block2	2back/STIM_038.jpg	100
1106.653	0.568	568.3	2back	Block2	2back/STIM_038.jpg	99
1110.407	0.733	732.8	2back	Block2	2back/STIM_038.jpg	100
1113.998	0.847	846.7	2back	Block2	2back/STIM_039.jpg	99
1117.312	0.725	724.9	2back	Block2	2back/STIM_039.jpg	99
1120.296	0.398	397.5	2back	Block2	2back/STIM_039.jpg	99
1122.846	0.568	567.6	0back	Block2	0back/STIM_000.jpg	100
1126.897	0.493	493.1	0back	Block2	0back/STIM_000.jpg	100
1131.001	0.447	446.7	0back	Block2	0back/STIM_000.jpg	100
1133.618	0.418	418.0	0back	Block2	0back/STIM_001.jpg	100
1137.357	0.363	363.4	0back	Block2	0back/STIM_001.jpg	99
1141.669	0.388	388.3	0back	Block2	0back/STIM_001.jpg	100
1144.658	0.589	589.0	0back	Block2	0back/STIM_002.jpg	100
1148.332	0.589	588.8	0back	Block2	0back/STIM_002.jpg	100
1150.983	0.36	359.5	0back	Block2	0back/STIM_002.jpg	100
1154.288	0.663	663.3	0back	Block2	0back/STIM_003.jpg	99
1157.06	0.607	606.8	0back	Block2	0back/STIM_003.jpg	99
1161.329	0.566	566.0	0back	Block2	0back/STIM_003.jpg	99
1164.855	0.552	551.8	0back	Block2	0back/STIM_004.jpg	100
1168.543	0.614	613.8	0back	Block2	0back/STIM_004.jpg	99
1172.941	0.442	441.8	0back	Block2	0back/STIM_004.jpg	100
1175.726	0.418	417.6	0back	Block2	0back/STIM_005.jpg	100
1178.951	0.356	355.8	0back	Block2	0back/STIM_005.jpg	100
1183.12	0.402	402.4	0back	Block2	0back/STIM_005.jpg	99
1185.927	0.542	542.4	0back	Block2	0back/STIM_006.jpg	100
1188.853	0.526	525.9	0back	Block2	0back/STIM_006.jpg	100
1193.311	0.598	597.8	0back	Block2	0back/STIM_006.jpg	100
1196.108	0.478	477.6	0back	Block2	0back/STIM_007.jpg	100
1200.478	0.663	662.8	0back	Block2	0back/STIM_007.jpg	100
1203.317	0.404	404.1	0back	Block2	0back/STIM_007.jpg	100
1206.271	0.578	577.6	0back	Block2	0back/STIM_008.jpg	100
1209.51	0.547	546.9	0back	Block2	0back/STIM_008.jpg	100
1212.267	0.405	404.6	0back	Block2	0back/STIM_008.jpg	100
1215.445	0.568	568.1	0back	Block2	0back/STIM_009.jpg	99
1219.542	0.506	506.2	0back	Block2	0back/STIM_009.jpg	100
1223.129	0.428	428.4	0back	Block2	0back/STIM_009.jpg	100
1225.673	0.571	570.8	0back	Block2	0back/STIM_010.jpg	100
1229.312	0.368	368.4	0back	Block2	0back/STIM_010.jpg	99
1232.639	0.659	658.9	0back	Block2	0back/STIM_010.jpg	99
1236.914	0.401	400.7	0back	Block2	0back/STIM_011.jpg	100
1239.329	0.525	525.3	0back	Block2	0back/STIM_011.jpg	100
1242.796	0.576	576.4	0back	Block2	0back/STIM_011.jpg	100
1246.085	0.687	687.3	0back	Block2	0back/STIM_012.jpg	100
1249.185	0.497	496.7	0back	Block2	0back/STIM_012.jpg	100
1252.835	0.592	591.6	0back	Block2	0back/STIM_012.jpg	99
1256.901	0.639	638.6	0back	Block2	0back/STIM_013.jpg	100
1261.272	0.677	677.2	0back	Block2	0back/STIM_013.jpg	100
1264.664	0.641	641.4	0back	Block2	0back/STIM_013.jpg	99
1268.098	0.529	529.3	0back	Block2	0back/STIM_014.jpg	99
1272.53	0.62	620.3	0back	Block2	0back/STIM_014.jpg	99
1276.014	0.575	575.3	0back	Block2	0back/STIM_014.jpg	100
1279.819	0.585	585.4	0back	Block2	0back/STIM_015.jpg	99
1284.282	0.696	695.5	0back	Block2	0back/STIM_015.jpg	99
1288.912	0.666	665.6	0back	Block2	0back/STIM_015.jpg	99
1291.926	0.605	605.3	0back	Block2	0back/STIM_016.jpg	99
1294.563	0.529	528.8	0back	Block2	0back/STIM_016.jpg	99
1297.576	0.533	533.4	0back	Block2	0back/STIM_016.jpg	99
1301.198	0.508	508.3	0back	Block2	0back/STIM_017.jpg	99
1304.23	0.372	371.8	0back	Block2	0back/STIM_017.jpg	100
1308.425	0.657	657.2	0back	Block2	0back/STIM_017.jpg	99
1312.145	0.438	438.0	0back	Block2	0back/STIM_018.jpg	99
1316.44	0.525	525.1	0back	Block2	0back/STIM_018.jpg	99
1319.992	0.366	365.9	0back	Block2	0back/STIM_018.jpg	99
1322.662	0.523	522.7	0back	Block2	0back/STIM_019.jpg	99
1325.811	0.52	520.4	0back	Block2	0back/STIM_019.jpg	100
1329.196	0.539	538.8	0back	Block2	0back/STIM_019.jpg	99
1333.5	0.783	782.7	2back	Block3	2back/STIM_000.jpg	99
1336.894	0.495	495.3	2back	Block3	2back/STIM_000.jpg	99
1340.223	0.652	651.6	2back	Block3	2back/STIM_000.jpg	99
1343.631	0.76	759.5	2back	Block3	2back/STIM_001.jpg	99
1347.829	0.847	846.9	2back	Block3	2back/STIM_001.jpg	99
1351.097	0.388	388.1	2back	Block3	2back/STIM_001.jpg	100
1354.661	0.667	667.3	2back	Block3	2back/STIM_002.jpg	99
1359.315	0.452	451.9	2back	Block3	2back/STIM_002.jpg	100
1361.848	0.597	597.0	2back	Block3	2back/STIM_002.jpg	100
1366.147	0.824	824.2	2back	Block3	2back/STIM_003.jpg	100
1369.443	0.843	843.1	2back	Block3	2back/STIM_003.jpg	100
1372.715	0.65	650.5	2back	Block3	2back/STIM_003.jpg	100
1377.335	0.627	626.6	2back	Block3	2back/STIM_004.jpg	99
1380.586	0.441	441.4	2back	Block3	2back/STIM_004.jpg	99
1384.133	0.509	508.8	2back	Block3	2back/STIM_004.jpg	100
1388.213	0.856	856.0	2back	Block3	2back/STIM_005.jpg	100
1391.691	0.575	574.9	2back	Block3	2back/STIM_005.jpg	99
1395.616	0.458	457.7	2back	Block3	2back/STIM_005.jpg	100
1398.955	0.442	441.8	2back	Block3	2back/STIM_006.jpg	100
1403.081	0.769	768.8	2back	Block3	2back/STIM_006.jpg	100
1406.416	0.789	789.1	2back	Block3	2back/STIM_006.jpg	99
1411.07	0.746	745.5	2back	Block3	2back/STIM_007.jpg	99
1413.953	0.612	611.5	2back	Block3	2back/STIM_007.jpg	100
1418.51	0.544	543.9	2back	Block3	2back/STIM_007.jpg	100
1422.58	0.619	619.0	2back	Block3	2back/STIM_008.jpg	100
1425.241	0.593	593.0	2back	Block3	2back/STIM_008.jpg	99
1428.402	0.636	635.6	2back	Block3	2back/STIM_008.jpg	100
1432.814	0.676	675.8	2back	Block3	2back/STIM_009.jpg	100
1435.735	0.663	663.4	2back	Block3	2back/STIM_009.jpg	99
1439.741	0.478	477.7	2back	Block3	2back/STIM_009.jpg	100
1442.806	0.432	432.0	2back	Block3	2back/STIM_010.jpg	99
1447.122	0.584	583.8	2back	Block3	2back/STIM_010.jpg	99
1450.871	0.576	576.4	2back	Block3	2back/STIM_010.jpg	99
1455.184	0.605	605.3	2back	Block3	2back/STIM_011.jpg	100
1459.609	0.649	648.6	2back	Block3	2back/STIM_011.jpg	100
1463.89	0.779	778.6	2back	Block3	2back/STIM_011.jpg	100
1467.604	0.464	464.2	2back	Block3	2back/STIM_012.jpg	100
1471.013	0.599	598.6	2back	Block3	2back/STIM_012.jpg	99
1475.574	0.632	632.4	2back	Block3	2back/STIM_012.jpg	100
1479.119	0.648	647.8	2back	Block3	2back/STIM_013.jpg	99
1482.266	0.826	826.2	2back	Block3	2back/STIM_013.jpg	99
1486.508	0.751	750.6	2back	Block3	2back/STIM_013.jpg	100
1490.273	0.573	573.2	2back	Block3	2back/STIM_014.jpg	99
1493.017	0.835	834.9	2back	Block3	2back/STIM_014.jpg	99
1497.518	0.671	671.1	2back	Block3	2back/STIM_014.jpg	100
1501.359	0.81	809.5	2back	Block3	2back/STIM_015.jpg	100
1504.399	0.383	383.1	2back	Block3	2back/STIM_015.jpg	99
1508.203	0.606	606.2	2back	Block3	2back/STIM_015.jpg	100
1512.23	0.63	630.2	2back	Block3	2back/STIM_016.jpg	100
1516.511	0.73	730.0	2back	Block3	2back/STIM_016.jpg	100
1519.355	0.42	420.5	2back	Block3	2back/STIM_016.jpg	99
1522.262	0.498	497.9	2back	Block3	2back/STIM_017.jpg	100
1525.772	0.655	654.6	2back	Block3	2back/STIM_017.jpg	99
1528.669	0.615	614.9	2back	Block3	2back/STIM_017.jpg	99
1531.575	0.715	715.4	2back	Block3	2back/STIM_018.jpg	99
1535.668	0.804	804.2	2back	Block3	2back/STIM_018.jpg	99
1539.547	0.664	664.4	2back	Block3	2back/STIM_018.jpg	99
1543.312	0.84	839.5	2back	Block3	2back/STIM_019.jpg	99
1547.109	0.436	436.4	2back	Block3	2back/STIM_019.jpg	99
1550.245	0.395	395.3	2back	Block3	2back/STIM_019.jpg	100
1552.76	0.573	572.6	2back	Block3	2back/STIM_020.jpg	100
1556.443	0.618	617.7	2back	Block3	2back/STIM_020.jpg	100
1560.678	0.757	757.2	2back	Block3	2back/STIM_020.jpg	99
1563.706	0.412	411.7	2back	Block3	2back/STIM_021.jpg	100
1566.314	0.776	776.1	2back	Block3	2back/STIM_021.jpg	99
1569.194	0.398	398.2	2back	Block3	2back/STIM_021.jpg	99
1572.612	0.491	490.7	2back	Block3	2back/STIM_022.jpg	99
1576.457	0.475	474.8	2back	Block3	2back/STIM_022.jpg	99
1579.214	0.786	786.4	2back	Block3	2back/STIM_022.jpg	99
1583.447	0.435	435.2	2back	Block3	2back/STIM_023.jpg	99
1587.783	0.642	642.4	2back	Block3	2back/STIM_023.jpg	99
1592.189	0.39	389.7	2back	Block3	2back/STIM_023.jpg	100
1595.567	0.776	776.5	2back	Block3	2back/STIM_024.jpg	99
1599.514	0.549	549.2	2back	Block3	2back/STIM_024.jpg	100
1603.397	0.842	841.5	2back	Block3	2back/STIM_024.jpg	100
1606.892	0.752	751.5	2back	Block3	2back/STIM_025.jpg	100
1609.7	0.525	524.8	2back	Block3	2back/STIM_025.jpg	100
1613.724	0.41	410.3	2back	Block3	2back/STIM_025.jpg	99
1616.268	0.455	455.3	2back	Block3	2back/STIM_026.jpg	99
1619.998	0.57	569.7	2back	Block3	2back/STIM_026.jpg	99
1624.446	0.761	760.8	2back	Block3	2back/STIM_026.jpg	100
1627.827	0.586	586.5	2back	Block3	2back/STIM_027.jpg	100
1630.518	0.661	661.1	2back	Block3	2back/STIM_027.jpg	99
1633.181	0.612	611.6	2back	Block3	2back/STIM_027.jpg	99
1637.269	0.638	638.4	2back	Block3	2back/STIM_028.jpg	100
1641.017	0.61	610.5	2back	Block3	2back/STIM_028.jpg	100
1644.156	0.736	736.0	2back	Block3	2back/STIM_028.jpg	100
1647.011	0.767	766.8	2back	Block3	2back/STIM_029.jpg	100
1651.214	0.444	443.8	2back	Block3	2back/STIM_029.jpg	99
1655.09	0.573	572.9	2back	Block3	2back/STIM_029.jpg	100
1657.765	0.586	585.9	2back	Block3	2back/STIM_030.jpg	99
1660.63	0.609	609.0	2back	Block3	2back/STIM_030.jpg	99
1663.446	0.556	556.5	2back	Block3	2back/STIM_030.jpg	100
1667.752	0.565	564.8	2back	Block3	2back/STIM_031.jpg	100
1672.164	0.79	789.6	2back	Block3	2back/STIM_031.jpg	99
1676.362	0.507	507.5	2back	Block3	2back/STIM_031.jpg	99
1679.603	0.664	663.9	2back	Block3	2back/STIM_032.jpg	100
1683.183	0.457	457.2	2back	Block3	2back/STIM_032.jpg	100
1687.311	0.503	502.7	2back	Block3	2back/STIM_032.jpg	100
1691.813	0.496	496.1	2back	Block3	2back/STIM_033.jpg	99
1695.728	0.65	650.3	2back	Block3	2back/STIM_033.jpg	100
1699.172	0.653	653.0	2back	Block3	2back/STIM_033.jpg	99
1703.498	0.418	417.5	2back	Block3	2back/STIM_034.jpg	100
1706.032	0.438	438.5	2back	Block3	2back/STIM_034.jpg	100
1709.69	0.375	374.8	2back	Block3	2back/STIM_034.jpg	100
1712.637	0.828	827.8	2back	Block3	2back/STIM_035.jpg	99
1715.524	0.524	524.4	2back	Block3	2back/STIM_035.jpg	99
1718.851	0.733	733.3	2back	Block3	2back/STIM_035.jpg	100
1722.632	0.803	803.2	2back	Block3	2back/STIM_036.jpg	99
1727.212	0.652	652.4	2back	Block3	2back/STIM_036.jpg	100
1731.482	0.431	430.8	2back	Block3	2back/STIM_036.jpg	100
1734.236	0.55	550.4	2back	Block3	2back/STIM_037.jpg	100
1737.049	0.502	502.0	2back	Block3	2back/STIM_037.jpg	99
1741.472	0.419	419.4	2back	Block3	2back/STIM_037.jpg	100
1744.006	0.575	575.3	2back	Block3	2back/STIM_038.jpg	99
1747.631	0.386	386.0	2back	Block3	2back/STIM_038.jpg	99
1750.2	0.764	764.1	2back	Block3	2back/STIM_038.jpg	100
1753.51	0.376	375.7	2back	Block3	2back/STIM_039.jpg	100
1757.188	0.84	840.1	2back	Block3	2back/STIM_039.jpg	99
1761.984	0.418	418.4	2back	Block3	2back/STIM_039.jpg	99
1766.137	0.401	400.7	0back	Block3	0back/STIM_000.jpg	99
1770.257	0.38	380.0	0back	Block3	0back/STIM_000.jpg	99
1773.277	0.465	464.8	0back	Block3	0back/STIM_000.jpg	100
1776.986	0.569	568.6	0back	Block3	0back/STIM_001.jpg	99
1781.149	0.366	366.2	0back	Block3	0back/STIM_001.jpg	99
1784.817	0.598	598.1	0back	Block3	0back/STIM_001.jpg	100
1788.472	0.53	529.6	0back	Block3	0back/STIM_002.jpg	99
1791.258	0.603	603.1	0back	Block3	0back/STIM_002.jpg	100
1794.609	0.643	642.8	0back	Block3	0back/STIM_002.jpg	100
1798.685	0.517	517.2	0back	Block3	0back/STIM_003.jpg	99
1801.723	0.379	379.2	0back	Block3	0back/STIM_003.jpg	99
1805.073	0.381	381.0	0back	Block3	0back/STIM_003.jpg	99
1809.369	0.686	686.0	0back	Block3	0back/STIM_004.jpg	99
1813.832	0.571	570.9	0back	Block3	0back/STIM_004.jpg	100
1818.16	0.474	473.9	0back	Block3	0back/STIM_004.jpg	100
1821.601	0.696	695.6	0back	Block3	0back/STIM_005.jpg	100
1824.72	0.604	603.9	0back	Block3	0back/STIM_005.jpg	99
1829.037	0.411	411.1	0back	Block3	0back/STIM_005.jpg	99
1832.905	0.402	401.9	0back	Block3	0back/STIM_006.jpg	100
1836.183	0.623	623.2	0back	Block3	0back/STIM_006.jpg	99
1839.537	0.473	473.0	0back	Block3	0back/STIM_006.jpg	100
1843.444	0.434	433.5	0back	Block3	0back/STIM_007.jpg	99
1846.615	0.627	626.8	0back	Block3	0back/STIM_007.jpg	99
1850.641	0.481	480.7	0back	Block3	0back/STIM_007.jpg	99
1854.871	0.665	664.7	0back	Block3	0back/STIM_008.jpg	99
1858.369	0.448	448.3	0back	Block3	0back/STIM_008.jpg	99
1861.079	0.422	421.9	0back	Block3	0back/STIM_008.jpg	99
1863.576	0.398	397.6	0back	Block3	0back/STIM_009.jpg	100
1866.925	0.422	422.4	0back	Block3	0back/STIM_009.jpg	100
1871.287	0.478	477.9	0back	Block3	0back/STIM_009.jpg	100
1875.412	0.706	706.0	0back	Block3	0back/STIM_010.jpg	99
1879.256	0.394	394.1	0back	Block3	0back/STIM_010.jpg	99
1882.062	0.512	512.3	0back	Block3	0back/STIM_010.jpg	100
1884.939	0.452	452.4	0back	Block3	0back/STIM_011.jpg	99
1888.711	0.483	483.4	0back	Block3	0back/STIM_011.jpg	99
1892.115	0.612	611.5	0back	Block3	0back/STIM_011.jpg	100
1895.968	0.444	443.8	0back	Block3	0back/STIM_012.jpg	99
1898.948	0.686	686.4	0back	Block3	0back/STIM_012.jpg	99
1902.883	0.655	654.7	0back	Block3	0back/STIM_012.jpg	99
1906.45	0.53	529.9	0back	Block3	0back/STIM_013.jpg	100
1910.752	0.51	509.7	0back	Block3	0back/STIM_013.jpg	100
1914.306	0.546	545.7	0back	Block3	0back/STIM_013.jpg	99
1918.851	0.497	496.7	0back	Block3	0back/STIM_014.jpg	100
1923.093	0.56	560.2	0back	Block3	0back/STIM_014.jpg	100
1927.409	0.422	422.5	0back	Block3	0back/STIM_014.jpg	99
1931.558	0.413	413.2	0back	Block3	0back/STIM_015.jpg	100
1935.513	0.611	610.7	0back	Block3	0back/STIM_015.jpg	100
1939.594	0.532	531.8	0back	Block3	0back/STIM_015.jpg	100
1942.671	0.641	641.2	0back	Block3	0back/STIM_016.jpg	100
1945.837	0.434	433.5	0back	Block3	0back/STIM_016.jpg	99
1949.55	0.444	444.2	0back	Block3	0back/STIM_016.jpg	99
1953.518	0.498	498.0	0back	Block3	0back/STIM_017.jpg	100
1956.176	0.644	643.9	0back	Block3	0back/STIM_017.jpg	99
1960.318	0.704	703.8	0back	Block3	0back/STIM_017.jpg	100
1964.196	0.553	553.2	0back	Block3	0back/STIM_018.jpg	99
1968.406	0.396	396.0	0back	Block3	0back/STIM_018.jpg	99
1971.551	0.429	428.6	0back	Block3	0back/STIM_018.jpg	100
1974.115	0.599	598.8	0back	Block3	0back/STIM_019.jpg	99
1977.884	0.571	571.3	0back	Block3	0back/STIM_019.jpg	99
1981.769	0.408	408.5	0back	Block3	0back/STIM_019.jpg	99
1984.402	0.819	819.2	2back	Block4	2back/STIM_000.jpg	99
1988.903	0.539	538.9	2back	Block4	2back/STIM_000.jpg	100
1993.072	0.731	731.3	2back	Block4	2back/STIM_000.jpg	100
1996.28	0.432	431.6	2back	Block4	2back/STIM_001.jpg	100
1998.719	0.442	441.6	2back	Block4	2back/STIM_001.jpg	99
2001.542	0.561	561.0	2back	Block4	2back/STIM_001.jpg	99
2004.23	0.529	528.8	2back	Block4	2back/STIM_002.jpg	99
2007.567	0.514	514.3	2back	Block4	2back/STIM_002.jpg	100
2010.496	0.554	553.5	2back	Block4	2back/STIM_002.jpg	100
2013.536	0.414	414.0	2back	Block4	2back/STIM_003.jpg	100
2017.472	0.717	716.9	2back	Block4	2back/STIM_003.jpg	100
2021.616	0.593	592.9	2back	Block4	2back/STIM_003.jpg	100
2025.134	0.498	498.4	2back	Block4	2back/STIM_004.jpg	100
2028.78	0.664	664.1	2back	Block4	2back/STIM_004.jpg	100
2032.045	0.82	819.7	2back	Block4	2back/STIM_004.jpg	100
2035.195	0.492	492.5	2back	Block4	2back/STIM_005.jpg	99
2038.445	0.609	609.1	2back	Block4	2back/STIM_005.jpg	100
2041.25	0.798	797.9	2back	Block4	2back/STIM_005.jpg	100
2044.191	0.747	747.4	2back	Block4	2back/STIM_006.jpg	100
2047.501	0.469	468.7	2back	Block4	2back/STIM_006.jpg	100
2051.683	0.521	520.6	2back	Block4	2back/STIM_006.jpg	100
2054.362	0.742	741.9	2back	Block4	2back/STIM_007.jpg	100
2058.346	0.82	820.2	2back	Block4	2back/STIM_007.jpg	99
2062.342	0.395	395.1	2back	Block4	2back/STIM_007.jpg	99
2066.286	0.617	617.1	2back	Block4	2back/STIM_008.jpg	99
2070.606	0.419	419.4	2back	Block4	2back/STIM_008.jpg	100
2074.189	0.776	776.0	2back	Block4	2back/STIM_008.jpg	100
2078.941	0.692	692.3	2back	Block4	2back/STIM_009.jpg	99
2083.083	0.809	808.7	2back	Block4	2back/STIM_009.jpg	99
2086.261	0.82	819.8	2back	Block4	2back/STIM_009.jpg	100
2089.085	0.624	623.9	2back	Block4	2back/STIM_010.jpg	100
2093.667	0.789	788.7	2back	Block4	2back/STIM_010.jpg	99
2097.948	0.815	815.1	2back	Block4	2back/STIM_010.jpg	100
2102.36	0.444	444.5	2back	Block4	2back/STIM_011.jpg	100
2105.687	0.564	564.1	2back	Block4	2back/STIM_011.jpg	99
2109.582	0.516	516.3	2back	Block4	2back/STIM_011.jpg	100
2113.607	0.524	524.5	2back	Block4	2back/STIM_012.jpg	99
2117.601	0.749	748.8	2back	Block4	2back/STIM_012.jpg	100
2120.994	0.594	593.6	2back	Block4	2back/STIM_012.jpg	99
2124.255	0.698	697.8	2back	Block4	2back/STIM_013.jpg	100
2127.058	0.753	753.1	2back	Block4	2back/STIM_013.jpg	100
2130.935	0.736	735.7	2back	Block4	2back/STIM_013.jpg	99
2134.197	0.606	605.7	2back	Block4	2back/STIM_014.jpg	99
2137.938	0.572	572.1	2back	Block4	2back/STIM_014.jpg	99
2142.383	0.457	457.4	2back	Block4	2back/STIM_014.jpg	99
2145.099	0.425	424.8	2back	Block4	2back/STIM_015.jpg	100
2148.489	0.76	759.7	2back	Block4	2back/STIM_015.jpg	99
2151.673	0.404	404.5	2back	Block4	2back/STIM_015.jpg	100
2156.022	0.49	490.4	2back	Block4	2back/STIM_016.jpg	99
2159.446	0.683	682.9	2back	Block4	2back/STIM_016.jpg	99
2163.87	0.474	473.5	2back	Block4	2back/STIM_016.jpg	100
2166.626	0.847	847.3	2back	Block4	2back/STIM_017.jpg	99
2169.572	0.653	653.1	2back	Block4	2back/STIM_017.jpg	99
2172.664	0.707	706.9	2back	Block4	2back/STIM_017.jpg	99
2176.23	0.678	678.5	2back	Block4	2back/STIM_018.jpg	100
2179.492	0.677	677.4	2back	Block4	2back/STIM_018.jpg	100
2182.935	0.565	564.7	2back	Block4	2back/STIM_018.jpg	100
2186.146	0.394	393.5	2back	Block4	2back/STIM_019.jpg	99
2190.156	0.497	497.1	2back	Block4	2back/STIM_019.jpg	100
2192.758	0.435	435.3	2back	Block4	2back/STIM_019.jpg	100
2196.761	0.422	422.4	2back	Block4	2back/STIM_020.jpg	99
2200.72	0.765	764.9	2back	Block4	2back/STIM_020.jpg	99
2204.717	0.569	569.0	2back	Block4	2back/STIM_020.jpg	99
2207.324	0.485	485.4	2back	Block4	2back/STIM_021.jpg	99
2210.231	0.392	392.2	2back	Block4	2back/STIM_021.jpg	100
2212.892	0.49	490.4	2back	Block4	2back/STIM_021.jpg	99
2216.147	0.549	549.1	2back	Block4	2back/STIM_022.jpg	100
2220.207	0.828	828.3	2back	Block4	2back/STIM_022.jpg	99
2223.956	0.395	394.6	2back	Block4	2back/STIM_022.jpg	100
2227.672	0.602	601.9	2back	Block4	2back/STIM_023.jpg	99
2230.757	0.664	664.0	2back	Block4	2back/STIM_023.jpg	100
2234.889	0.598	598.0	2back	Block4	2back/STIM_023.jpg	99
2239.455	0.762	762.4	2back	Block4	2back/STIM_024.jpg	99
2243.029	0.441	440.6	2back	Block4	2back/STIM_024.jpg	100
2246.388	0.533	533.2	2back	Block4	2back/STIM_024.jpg	99
2249.025	0.742	741.8	2back	Block4	2back/STIM_025.jpg	100
2253.21	0.738	737.9	2back	Block4	2back/STIM_025.jpg	99
2257.035	0.459	458.8	2back	Block4	2back/STIM_025.jpg	100
2259.833	0.61	609.9	2back	Block4	2back/STIM_026.jpg	100
2264.153	0.821	821.4	2back	Block4	2back/STIM_026.jpg	99
2268.505	0.788	788.1	2back	Block4	2back/STIM_026.jpg	100
2273.176	0.607	606.8	2back	Block4	2back/STIM_027.jpg	99
2276.72	0.622	622.4	2back	Block4	2back/STIM_027.jpg	100
2279.726	0.463	463.0	2back	Block4	2back/STIM_027.jpg	100
2283.77	0.735	734.9	2back	Block4	2back/STIM_028.jpg	99
2286.554	0.644	643.7	2back	Block4	2back/STIM_028.jpg	100
2290.441	0.683	683.0	2back	Block4	2back/STIM_028.jpg	100
2293.969	0.84	839.5	2back	Block4	2back/STIM_029.jpg	99
2298.457	0.659	658.7	2back	Block4	2back/STIM_029.jpg	99
2301.27	0.741	741.1	2back	Block4	2back/STIM_029.jpg	100
2305.134	0.697	696.6	2back	Block4	2back/STIM_030.jpg	99
2307.987	0.725	725.4	2back	Block4	2back/STIM_030.jpg	100
2311.352	0.822	821.9	2back	Block4	2back/STIM_030.jpg	99
2314.616	0.677	676.9	2back	Block4	2back/STIM_031.jpg	100
2318.527	0.842	841.8	2back	Block4	2back/STIM_031.jpg	100
2321.964	0.78	780.4	2back	Block4	2back/STIM_031.jpg	100
2324.883	0.457	456.9	2back	Block4	2back/STIM_032.jpg	99
2327.587	0.559	558.7	2back	Block4	2back/STIM_032.jpg	100
2330.325	0.59	590.5	2back	Block4	2back/STIM_032.jpg	100
2334.836	0.397	396.7	2back	Block4	2back/STIM_033.jpg	99
2338.035	0.435	435.2	2back	Block4	2back/STIM_033.jpg	99
2342.308	0.817	816.6	2back	Block4	2back/STIM_033.jpg	99
2346.248	0.665	664.8	2back	Block4	2back/STIM_034.jpg	100
2349.694	0.72	720.5	2back	Block4	2back/STIM_034.jpg	100
2353.195	0.717	716.9	2back	Block4	2back/STIM_034.jpg	100
2356.998	0.605	605.0	2back	Block4	2back/STIM_035.jpg	99
2360.612	0.794	794.1	2back	Block4	2back/STIM_035.jpg	100
2365.401	0.416	416.5	2back	Block4	2back/STIM_035.jpg	100
2369.247	0.596	596.5	2back	Block4	2back/STIM_036.jpg	100
2372.656	0.789	789.0	2back	Block4	2back/STIM_036.jpg	100
2376.213	0.78	780.5	2back	Block4	2back/STIM_036.jpg	100
2379.486	0.832	832.1	2back	Block4	2back/STIM_037.jpg	99
2383.53	0.525	525.4	2back	Block4	2back/STIM_037.jpg	100
2387.524	0.692	692.4	2back	Block4	2back/STIM_037.jpg	100
2390.591	0.383	383.3	2back	Block4	2back/STIM_038.jpg	100
2394.498	0.721	721.2	2back	Block4	2back/STIM_038.jpg	100
2399.131	0.494	493.8	2back	Block4	2back/STIM_038.jpg	99
2403.595	0.638	637.7	2back	Block4	2back/STIM_039.jpg	100
2407.675	0.417	417.0	2back	Block4	2back/STIM_039.jpg	99
2410.539	0.431	430.8	2back	Block4	2back/STIM_039.jpg	99
2413.988	0.464	463.9	0back	Block4	0back/STIM_000.jpg	100
2417.355	0.444	444.1	0back	Block4	0back/STIM_000.jpg	100
2420.39	0.46	459.6	0back	Block4	0back/STIM_000.jpg	99
2424.303	0.452	452.0	0back	Block4	0back/STIM_001.jpg	99
2427.77	0.55	549.7	0back	Block4	0back/STIM_001.jpg	100
2431.079	0.437	437.2	0back	Block4	0back/STIM_001.jpg	99
2433.891	0.696	695.7	0back	Block4	0back/STIM_002.jpg	99
2437.823	0.521	520.6	0back	Block4	0back/STIM_002.jpg	100
2441.574	0.683	683.3	0back	Block4	0back/STIM_002.jpg	99
2445.95	0.603	603.3	0back	Block4	0back/STIM_003.jpg	99
2450.484	0.425	424.7	0back	Block4	0back/STIM_003.jpg	99
2454.256	0.664	663.5	0back	Block4	0back/STIM_003.jpg	100
2457.238	0.42	419.9	0back	Block4	0back/STIM_004.jpg	100
2461.61	0.392	392.4	0back	Block4	0back/STIM_004.jpg	99
2465.317	0.452	452.4	0back	Block4	0back/STIM_004.jpg	100
2469.765	0.433	432.6	0back	Block4	0back/STIM_005.jpg	100
2474.016	0.604	604.5	0back	Block4	0back/STIM_005.jpg	100
2478.289	0.585	585.1	0back	Block4	0back/STIM_005.jpg	100
2481.353	0.631	631.0	0back	Block4	0back/STIM_006.jpg	100
2484.481	0.571	571.1	0back	Block4	0back/STIM_006.jpg	100
2487.088	0.692	692.2	0back	Block4	0back/STIM_006.jpg	100
2490.397	0.432	431.9	0back	Block4	0back/STIM_007.jpg	99
2494.621	0.655	655.1	0back	Block4	0back/STIM_007.jpg	99
2498.52	0.476	475.5	0back	Block4	0back/STIM_007.jpg	99
2501.002	0.504	504.1	0back	Block4	0back/STIM_008.jpg	100
2504.027	0.601	600.7	0back	Block4	0back/STIM_008.jpg	99
2508.587	0.515	515.0	0back	Block4	0back/STIM_008.jpg	99
2511.379	0.706	705.8	0back	Block4	0back/STIM_009.jpg	100
2516.017	0.521	520.6	0back	Block4	0back/STIM_009.jpg	100
2519.144	0.552	552.1	0back	Block4	0back/STIM_009.jpg	100
2523.242	0.622	622.2	0back	Block4	0back/STIM_010.jpg	99
2527.39	0.437	436.7	0back	Block4	0back/STIM_010.jpg	99
2531.192	0.584	584.2	0back	Block4	0back/STIM_010.jpg	99
2534.336	0.628	627.6	0back	Block4	0back/STIM_011.jpg	100
2537.694	0.443	442.6	0back	Block4	0back/STIM_011.jpg	100
2542.105	0.507	507.4	0back	Block4	0back/STIM_011.jpg	99
2546.415	0.684	684.3	0back	Block4	0back/STIM_012.jpg	100
2550.721	0.392	392.2	0back	Block4	0back/STIM_012.jpg	100
2554.281	0.503	503.4	0back	Block4	0back/STIM_012.jpg	100
2556.957	0.564	564.4	0back	Block4	0back/STIM_013.jpg	100
2559.604	0.374	374.2	0back	Block4	0back/STIM_013.jpg	99
2562.596	0.372	372.0	0back	Block4	0back/STIM_013.jpg	100
2565.092	0.507	507.2	0back	Block4	0back/STIM_014.jpg	100
2568.822	0.479	478.8	0back	Block4	0back/STIM_014.jpg	99
2571.981	0.371	371.2	0back	Block4	0back/STIM_014.jpg	100
2575.577	0.617	616.9	0back	Block4	0back/STIM_015.jpg	99
2578.331	0.467	467.0	0back	Block4	0back/STIM_015.jpg	99
2582.779	0.512	512.0	0back	Block4	0back/STIM_015.jpg	100
2585.702	0.396	395.9	0back	Block4	0back/STIM_016.jpg	100
2590.014	0.47	470.0	0back	Block4	0back/STIM_016.jpg	99
2593.932	0.523	522.7	0back	Block4	0back/STIM_016.jpg	100
2598.022	0.623	622.9	0back	Block4	0back/STIM_017.jpg	100
2601.992	0.57	570.1	0back	Block4	0back/STIM_017.jpg	99
2605.347	0.62	619.6	0back	Block4	0back/STIM_017.jpg	100
2608.532	0.579	578.8	0back	Block4	0back/STIM_018.jpg	100
2611.418	0.38	379.8	0back	Block4	0back/STIM_018.jpg	100
2614.481	0.36	359.8	0back	Block4	0back/STIM_018.jpg	99
2617.701	0.516	516.0	0back	Block4	0back/STIM_019.jpg	99
2620.748	0.37	370.3	0back	Block4	0back/STIM_019.jpg	100
2623.302	0.52	520.2	0back	Block4	0back/STIM_019.jpg	100
