onset	duration	accuracy_binary	trial_type	learning_stage	stimulus
0.0	0.781	1	2back	Block1	2back/STIM_000.jpg
4.753	0.559	1	2back	Block1	2back/STIM_000.jpg
9.006	0.839	0	2back	Block1	2back/STIM_000.jpg
13.361	0.524	1	2back	Block1	2back/STIM_001.jpg
17.286	0.935	1	2back	Block1	2back/STIM_001.jpg
20.889	0.484	1	2back	Block1	2back/STIM_001.jpg
24.082	0.567	1	2back	Block1	2back/STIM_002.jpg
27.485	0.631	1	2back	Block1	2back/STIM_002.jpg
31.888	0.692	1	2back	Block1	2back/STIM_002.jpg
36.008	0.524	1	2back	Block1	2back/STIM_003.jpg
39.548	0.612	1	2back	Block1	2back/STIM_003.jpg
42.372	0.996	1	2back	Block1	2back/STIM_003.jpg
45.883	0.497	1	2back	Block1	2back/STIM_004.jpg
49.991	0.468	1	2back	Block1	2back/STIM_004.jpg
54.27	0.799	0	2back	Block1	2back/STIM_004.jpg
57.943	0.711	1	2back	Block1	2back/STIM_005.jpg
60.84	0.711	0	2back	Block1	2back/STIM_005.jpg
64.59	0.565	0	2back	Block1	2back/STIM_005.jpg
68.195	0.555	1	2back	Block1	2back/STIM_006.jpg
71.603	0.959	0	2back	Block1	2back/STIM_006.jpg
76.104	0.695	0	2back	Block1	2back/STIM_006.jpg
80.164	1.032	0	2back	Block1	2back/STIM_007.jpg
83.623	0.703	0	2back	Block1	2back/STIM_007.jpg
86.876	0.982	0	2back	Block1	2back/STIM_007.jpg
90.164	0.726	0	2back	Block1	2back/STIM_008.jpg
93.544	0.545	0	2back	Block1	2back/STIM_008.jpg
97.237	0.778	0	2back	Block1	2back/STIM_008.jpg
101.428	0.497	1	2back	Block1	2back/STIM_009.jpg
104.19	0.627	0	2back	Block1	2back/STIM_009.jpg
108.135	0.922	1	2back	Block1	2back/STIM_009.jpg
112.839	0.597	0	2back	Block1	2back/STIM_010.jpg
117.389	0.835	1	2back	Block1	2back/STIM_010.jpg
121.831	0.965	0	2back	Block1	2back/STIM_010.jpg
126.651	1.109	1	2back	Block1	2back/STIM_011.jpg
130.751	0.579	1	2back	Block1	2back/STIM_011.jpg
133.609	0.925	1	2back	Block1	2back/STIM_011.jpg
137.892	0.764	0	2back	Block1	2back/STIM_012.jpg
142.058	0.98	1	2back	Block1	2back/STIM_012.jpg
146.325	0.849	1	2back	Block1	2back/STIM_012.jpg
151.161	1.1	1	2back	Block1	2back/STIM_013.jpg
154.52	0.466	1	2back	Block1	2back/STIM_013.jpg
158.719	0.524	0	2back	Block1	2back/STIM_013.jpg
161.812	0.733	1	2back	Block1	2back/STIM_014.jpg
164.755	0.727	1	2back	Block1	2back/STIM_014.jpg
169.294	0.828	0	2back	Block1	2back/STIM_014.jpg
172.798	0.486	0	2back	Block1	2back/STIM_015.jpg
175.916	0.585	1	2back	Block1	2back/STIM_015.jpg
179.353	0.667	0	2back	Block1	2back/STIM_015.jpg
182.861	0.744	0	2back	Block1	2back/STIM_016.jpg
187.491	0.795	0	2back	Block1	2back/STIM_016.jpg
190.892	0.641	1	2back	Block1	2back/STIM_016.jpg
195.137	0.883	0	2back	Block1	2back/STIM_017.jpg
199.06	0.462	0	2back	Block1	2back/STIM_017.jpg
202.163	0.726	1	2back	Block1	2back/STIM_017.jpg
206.237	0.811	1	2back	Block1	2back/STIM_018.jpg
210.411	0.466	1	2back	Block1	2back/STIM_018.jpg
213.648	0.861	1	2back	Block1	2back/STIM_018.jpg
217.07	0.605	1	2back	Block1	2back/STIM_019.jpg
220.823	1.04	0	2back	Block1	2back/STIM_019.jpg
224.024	0.492	1	2back	Block1	2back/STIM_019.jpg
226.809	1.08	0	2back	Block1	2back/STIM_020.jpg
230.192	0.674	0	2back	Block1	2back/STIM_020.jpg
233.48	0.834	1	2back	Block1	2back/STIM_020.jpg
237.508	0.673	0	2back	Block1	2back/STIM_021.jpg
240.748	0.87	1	2back	Block1	2back/STIM_021.jpg
245.576	0.674	1	2back	Block1	2back/STIM_021.jpg
248.505	0.499	1	2back	Block1	2back/STIM_022.jpg
252.152	0.756	1	2back	Block1	2back/STIM_022.jpg
255.094	0.598	0	2back	Block1	2back/STIM_022.jpg
258.272	0.748	1	2back	Block1	2back/STIM_023.jpg
262.802	0.926	0	2back	Block1	2back/STIM_023.jpg
267.397	0.873	1	2back	Block1	2back/STIM_023.jpg
271.315	0.556	1	2back	Block1	2back/STIM_024.jpg
275.291	1.055	0	2back	Block1	2back/STIM_024.jpg
279.859	0.631	1	2back	Block1	2back/STIM_024.jpg
283.175	0.617	0	2back	Block1	2back/STIM_025.jpg
286.825	0.787	1	2back	Block1	2back/STIM_025.jpg
291.487	0.788	1	2back	Block1	2back/STIM_025.jpg
295.158	0.912	0	2back	Block1	2back/STIM_026.jpg
298.229	0.826	0	2back	Block1	2back/STIM_026.jpg
302.464	0.754	0	2back	Block1	2back/STIM_026.jpg
306.073	0.716	0	2back	Block1	2back/STIM_027.jpg
310.546	0.861	0	2back	Block1	2back/STIM_027.jpg
313.844	0.919	1	2back	Block1	2back/STIM_027.jpg
316.862	1.007	1	2back	Block1	2back/STIM_028.jpg
321.45	0.85	0	2back	Block1	2back/STIM_028.jpg
324.589	0.89	1	2back	Block1	2back/STIM_028.jpg
328.799	0.752	0	2back	Block1	2back/STIM_029.jpg
331.77	0.974	1	2back	Block1	2back/STIM_029.jpg
335.458	0.648	1	2back	Block1	2back/STIM_029.jpg
339.135	0.911	0	2back	Block1	2back/STIM_030.jpg
343.711	0.564	1	2back	Block1	2back/STIM_030.jpg
346.527	0.674	1	2back	Block1	2back/STIM_030.jpg
351.13	0.518	0	2back	Block1	2back/STIM_031.jpg
353.844	0.481	1	2back	Block1	2back/STIM_031.jpg
358.239	0.906	0	2back	Block1	2back/STIM_031.jpg
362.452	0.645	1	2back	Block1	2back/STIM_032.jpg
366.978	0.489	0	2back	Block1	2back/STIM_032.jpg
371.133	0.662	1	2back	Block1	2back/STIM_032.jpg
374.43	0.512	1	2back	Block1	2back/STIM_033.jpg
378.855	0.498	0	2back	Block1	2back/STIM_033.jpg
382.811	0.91	0	2back	Block1	2back/STIM_033.jpg
386.49	1.107	1	2back	Block1	2back/STIM_034.jpg
391.02	0.967	0	2back	Block1	2back/STIM_034.jpg
394.363	0.54	0	2back	Block1	2back/STIM_034.jpg
397.648	0.897	1	2back	Block1	2back/STIM_035.jpg
402.532	0.69	0	2back	Block1	2back/STIM_035.jpg
406.725	0.722	0	2back	Block1	2back/STIM_035.jpg
410.051	0.698	0	2back	Block1	2back/STIM_036.jpg
413.803	0.946	0	2back	Block1	2back/STIM_036.jpg
418.094	0.8	0	2back	Block1	2back/STIM_036.jpg
421.614	0.946	1	2back	Block1	2back/STIM_037.jpg
426.391	0.699	1	2back	Block1	2back/STIM_037.jpg
429.955	0.785	1	2back	Block1	2back/STIM_037.jpg
434.485	1.063	0	2back	Block1	2back/STIM_038.jpg
439.369	0.603	1	2back	Block1	2back/STIM_038.jpg
442.434	0.503	1	2back	Block1	2back/STIM_038.jpg
446.254	0.621	0	2back	Block1	2back/STIM_039.jpg
450.108	0.862	1	2back	Block1	2back/STIM_039.jpg
454.827	0.751	1	2back	Block1	2back/STIM_039.jpg
457.716	0.631	1	0back	Block1	0back/STIM_000.jpg
461.631	0.48	1	0back	Block1	0back/STIM_000.jpg
465.331	0.527	1	0back	Block1	0back/STIM_000.jpg
468.679	0.413	0	0back	Block1	0back/STIM_001.jpg
471.704	0.565	1	0back	Block1	0back/STIM_001.jpg
474.355	0.558	0	0back	Block1	0back/STIM_001.jpg
477.91	0.571	0	0back	Block1	0back/STIM_002.jpg
480.956	0.578	0	0back	Block1	0back/STIM_002.jpg
484.461	0.447	1	0back	Block1	0back/STIM_002.jpg
487.081	0.442	0	0back	Block1	0back/STIM_003.jpg
490.486	0.336	0	0back	Block1	0back/STIM_003.jpg
493.134	0.532	0	0back	Block1	0back/STIM_003.jpg
497.374	0.487	0	0back	Block1	0back/STIM_004.jpg
501.837	0.503	0	0back	Block1	0back/STIM_004.jpg
504.487	0.411	1	0back	Block1	0back/STIM_004.jpg
507.828	0.597	1	0back	Block1	0back/STIM_005.jpg
511.781	0.474	1	0back	Block1	0back/STIM_005.jpg
515.636	0.587	1	0back	Block1	0back/STIM_005.jpg
519.606	0.539	1	0back	Block1	0back/STIM_006.jpg
523.831	0.364	1	0back	Block1	0back/STIM_006.jpg
527.436	0.579	0	0back	Block1	0back/STIM_006.jpg
531.399	0.351	0	0back	Block1	0back/STIM_007.jpg
535.279	0.382	0	0back	Block1	0back/STIM_007.jpg
538.67	0.623	0	0back	Block1	0back/STIM_007.jpg
542.531	0.55	0	0back	Block1	0back/STIM_008.jpg
545.19	0.618	1	0back	Block1	0back/STIM_008.jpg
548.821	0.428	0	0back	Block1	0back/STIM_008.jpg
552.303	0.377	0	0back	Block1	0back/STIM_009.jpg
555.858	0.468	1	0back	Block1	0back/STIM_009.jpg
559.423	0.536	1	0back	Block1	0back/STIM_009.jpg
563.285	0.431	1	0back	Block1	0back/STIM_010.jpg
565.933	0.627	1	0back	Block1	0back/STIM_010.jpg
569.138	0.357	0	0back	Block1	0back/STIM_010.jpg
573.38	0.429	1	0back	Block1	0back/STIM_011.jpg
577.038	0.397	0	0back	Block1	0back/STIM_011.jpg
579.652	0.388	1	0back	Block1	0back/STIM_011.jpg
582.465	0.388	0	0back	Block1	0back/STIM_012.jpg
586.304	0.433	1	0back	Block1	0back/STIM_012.jpg
589.272	0.552	1	0back	Block1	0back/STIM_012.jpg
592.525	0.614	0	0back	Block1	0back/STIM_013.jpg
595.646	0.396	0	0back	Block1	0back/STIM_013.jpg
599.759	0.542	0	0back	Block1	0back/STIM_013.jpg
602.676	0.5	1	0back	Block1	0back/STIM_014.jpg
606.039	0.331	1	0back	Block1	0back/STIM_014.jpg
609.154	0.424	1	0back	Block1	0back/STIM_014.jpg
612.528	0.32	0	0back	Block1	0back/STIM_015.jpg
615.157	0.58	0	0back	Block1	0back/STIM_015.jpg
618.691	0.568	0	0back	Block1	0back/STIM_015.jpg
621.76	0.406	1	0back	Block1	0back/STIM_016.jpg
624.298	0.485	0	0back	Block1	0back/STIM_016.jpg
628.322	0.497	1	0back	Block1	0back/STIM_016.jpg
632.522	0.469	1	0back	Block1	0back/STIM_017.jpg
635.536	0.586	0	0back	Block1	0back/STIM_017.jpg
639.141	0.57	1	0back	Block1	0back/STIM_017.jpg
641.9	0.634	0	0back	Block1	0back/STIM_018.jpg
645.206	0.359	0	0back	Block1	0back/STIM_018.jpg
648.745	0.544	1	0back	Block1	0back/STIM_018.jpg
652.78	0.522	0	0back	Block1	0back/STIM_019.jpg
657.072	0.602	1	0back	Block1	0back/STIM_019.jpg
661.303	0.344	0	0back	Block1	0back/STIM_019.jpg
663.674	0.664	0	2back	Block2	2back/STIM_000.jpg
666.55	0.594	1	2back	Block2	2back/STIM_000.jpg
670.244	0.786	0	2back	Block2	2back/STIM_000.jpg
673.085	0.8	1	2back	Block2	2back/STIM_001.jpg
677.851	0.538	1	2back	Block2	2back/STIM_001.jpg
681.871	0.823	1	2back	Block2	2back/STIM_001.jpg
685.203	0.574	1	2back	Block2	2back/STIM_002.jpg
688.3	0.607	0	2back	Block2	2back/STIM_002.jpg
691.431	0.752	1	2back	Block2	2back/STIM_002.jpg
695.484	0.756	0	2back	Block2	2back/STIM_003.jpg
699.338	0.532	1	2back	Block2	2back/STIM_003.jpg
702.264	0.422	0	2back	Block2	2back/STIM_003.jpg
704.973	0.861	0	2back	Block2	2back/STIM_004.jpg
707.954	0.75	0	2back	Block2	2back/STIM_004.jpg
711.869	0.827	0	2back	Block2	2back/STIM_004.jpg
716.351	0.563	0	2back	Block2	2back/STIM_005.jpg
720.323	0.879	0	2back	Block2	2back/STIM_005.jpg
723.261	0.536	1	2back	Block2	2back/STIM_005.jpg
727.634	0.86	1	2back	Block2	2back/STIM_006.jpg
730.576	0.541	1	2back	Block2	2back/STIM_006.jpg
734.686	0.489	0	2back	Block2	2back/STIM_006.jpg
737.95	0.682	1	2back	Block2	2back/STIM_007.jpg
742.306	0.69	1	2back	Block2	2back/STIM_007.jpg
746.114	0.554	0	2back	Block2	2back/STIM_007.jpg
749.946	0.629	0	2back	Block2	2back/STIM_008.jpg
752.94	0.382	1	2back	Block2	2back/STIM_008.jpg
756.184	0.523	1	2back	Block2	2back/STIM_008.jpg
759.612	0.925	0	2back	Block2	2back/STIM_009.jpg
764.024	0.832	0	2back	Block2	2back/STIM_009.jpg
766.932	0.816	0	2back	Block2	2back/STIM_009.jpg
770.039	0.624	1	2back	Block2	2back/STIM_010.jpg
774.371	0.556	0	2back	Block2	2back/STIM_010.jpg
777.521	0.392	1	2back	Block2	2back/STIM_010.jpg
781.803	0.929	1	2back	Block2	2back/STIM_011.jpg
785.943	0.611	1	2back	Block2	2back/STIM_011.jpg
788.865	0.786	0	2back	Block2	2back/STIM_011.jpg
793.505	0.637	1	2back	Block2	2back/STIM_012.jpg
797.946	0.424	1	2back	Block2	2back/STIM_012.jpg
800.517	0.764	1	2back	Block2	2back/STIM_012.jpg
804.666	0.656	0	2back	Block2	2back/STIM_013.jpg
809.217	0.762	1	2back	Block2	2back/STIM_013.jpg
813.127	0.563	1	2back	Block2	2back/STIM_013.jpg
817.56	0.74	0	2back	Block2	2back/STIM_014.jpg
820.731	0.487	0	2back	Block2	2back/STIM_014.jpg
823.707	0.644	1	2back	Block2	2back/STIM_014.jpg
827.317	0.695	0	2back	Block2	2back/STIM_015.jpg
830.278	0.722	1	2back	Block2	2back/STIM_015.jpg
834.155	0.4	0	2back	Block2	2back/STIM_015.jpg
838.036	0.433	0	2back	Block2	2back/STIM_016.jpg
841.132	0.46	0	2back	Block2	2back/STIM_016.jpg
845.14	0.712	1	2back	Block2	2back/STIM_016.jpg
848.759	0.613	0	2back	Block2	2back/STIM_017.jpg
851.506	0.721	1	2back	Block2	2back/STIM_017.jpg
856.126	0.583	0	2back	Block2	2back/STIM_017.jpg
859.318	0.491	1	2back	Block2	2back/STIM_018.jpg
863.501	0.854	1	2back	Block2	2back/STIM_018.jpg
866.659	0.507	0	2back	Block2	2back/STIM_018.jpg
870.567	0.895	1	2back	Block2	2back/STIM_019.jpg
875.104	0.867	1	2back	Block2	2back/STIM_019.jpg
879.782	0.765	0	2back	Block2	2back/STIM_019.jpg
882.562	0.788	1	2back	Block2	2back/STIM_020.jpg
885.748	0.51	0	2back	Block2	2back/STIM_020.jpg
889.679	0.62	1	2back	Block2	2back/STIM_020.jpg
893.552	0.62	1	2back	Block2	2back/STIM_021.jpg
897.453	0.585	0	2back	Block2	2back/STIM_021.jpg
901.297	0.454	0	2back	Block2	2back/STIM_021.jpg
904.68	0.767	0	2back	Block2	2back/STIM_022.jpg
909.155	0.559	1	2back	Block2	2back/STIM_022.jpg
911.744	0.563	0	2back	Block2	2back/STIM_022.jpg
915.408	0.519	0	2back	Block2	2back/STIM_023.jpg
919.579	0.664	0	2back	Block2	2back/STIM_023.jpg
924.194	0.813	1	2back	Block2	2back/STIM_023.jpg
928.802	0.803	0	2back	Block2	2back/STIM_024.jpg
932.356	0.888	0	2back	Block2	2back/STIM_024.jpg
936.62	0.764	1	2back	Block2	2back/STIM_024.jpg
940.974	0.693	0	2back	Block2	2back/STIM_025.jpg
944.046	0.521	1	2back	Block2	2back/STIM_025.jpg
948.546	0.458	0	2back	Block2	2back/STIM_025.jpg
951.404	0.87	1	2back	Block2	2back/STIM_026.jpg
954.507	0.418	1	2back	Block2	2back/STIM_026.jpg
958.306	0.556	0	2back	Block2	2back/STIM_026.jpg
962.193	0.413	0	2back	Block2	2back/STIM_027.jpg
964.907	0.705	1	2back	Block2	2back/STIM_027.jpg
967.979	0.717	0	2back	Block2	2back/STIM_027.jpg
971.436	0.737	1	2back	Block2	2back/STIM_028.jpg
975.065	0.657	1	2back	Block2	2back/STIM_028.jpg
978.073	0.526	1	2back	Block2	2back/STIM_028.jpg
980.842	0.512	1	2back	Block2	2back/STIM_029.jpg
983.561	0.606	1	2back	Block2	2back/STIM_029.jpg
987.957	0.489	1	2back	Block2	2back/STIM_029.jpg
990.707	0.843	0	2back	Block2	2back/STIM_030.jpg
995.488	0.558	1	2back	Block2	2back/STIM_030.jpg
999.991	0.487	1	2back	Block2	2back/STIM_030.jpg
1002.911	0.893	1	2back	Block2	2back/STIM_031.jpg
1006.869	0.728	1	2back	Block2	2back/STIM_031.jpg
1010.528	0.433	1	2back	Block2	2back/STIM_031.jpg
1013.482	0.737	0	2back	Block2	2back/STIM_032.jpg
1016.533	0.535	0	2back	Block2	2back/STIM_032.jpg
1020.218	0.437	0	2back	Block2	2back/STIM_032.jpg
1023.368	0.458	1	2back	Block2	2back/STIM_033.jpg
1027.076	0.505	0	2back	Block2	2back/STIM_033.jpg
1030.527	0.478	1	2back	Block2	2back/STIM_033.jpg
1033.617	0.85	0	2back	Block2	2back/STIM_034.jpg
1037.884	0.708	1	2back	Block2	2back/STIM_034.jpg
1042.276	0.488	1	2back	Block2	2back/STIM_034.jpg
1045.316	0.649	1	2back	Block2	2back/STIM_035.jpg
1049.18	0.639	0	2back	Block2	2back/STIM_035.jpg
1053.451	0.738	1	2back	Block2	2back/STIM_035.jpg
1058.005	0.516	1	2back	Block2	2back/STIM_036.jpg
1061.805	0.693	1	2back	Block2	2back/STIM_036.jpg
1065.061	0.623	0	2back	Block2	2back/STIM_036.jpg
1068.248	0.74	1	2back	Block2	2back/STIM_037.jpg
1071.53	0.412	0	2back	Block2	2back/STIM_037.jpg
1074.671	0.655	1	2back	Block2	2back/STIM_037.jpg
1078.481	0.819	0	2back	Block2	2back/STIM_038.jpg
1082.788	0.754	1	2back	Block2	2back/STIM_038.jpg
1086.317	0.74	1	2back	Block2	2back/STIM_038.jpg
1090.14	0.561	1	2back	Block2	2back/STIM_039.jpg
1093.139	0.565	1	2back	Block2	2back/STIM_039.jpg
1097.565	0.534	1	2back	Block2	2back/STIM_039.jpg
1100.958	0.588	1	0back	Block2	0back/STIM_000.jpg
1103.615	0.32	1	0back	Block2	0back/STIM_000.jpg
1105.974	0.319	1	0back	Block2	0back/STIM_000.jpg
1109.04	0.535	0	0back	Block2	0back/STIM_001.jpg
1112.984	0.434	1	0back	Block2	0back/STIM_001.jpg
1116.954	0.485	0	0back	Block2	0back/STIM_001.jpg
1120.045	0.548	0	0back	Block2	0back/STIM_002.jpg
1123.696	0.418	1	0back	Block2	0back/STIM_002.jpg
1127.096	0.336	1	0back	Block2	0back/STIM_002.jpg
1130.307	0.395	1	0back	Block2	0back/STIM_003.jpg
1132.985	0.626	1	0back	Block2	0back/STIM_003.jpg
1137.594	0.545	1	0back	Block2	0back/STIM_003.jpg
1141.612	0.568	1	0back	Block2	0back/STIM_004.jpg
1145.691	0.319	1	0back	Block2	0back/STIM_004.jpg
1149.56	0.55	1	0back	Block2	0back/STIM_004.jpg
1153.972	0.33	1	0back	Block2	0back/STIM_005.jpg
1158.073	0.419	0	0back	Block2	0back/STIM_005.jpg
1161.53	0.388	0	0back	Block2	0back/STIM_005.jpg
1165.916	0.492	1	0back	Block2	0back/STIM_006.jpg
1168.999	0.393	0	0back	Block2	0back/STIM_006.jpg
1172.431	0.487	1	0back	Block2	0back/STIM_006.jpg
1175.71	0.47	1	0back	Block2	0back/STIM_007.jpg
1179.935	0.536	0	0back	Block2	0back/STIM_007.jpg
1182.721	0.385	1	0back	Block2	0back/STIM_007.jpg
1185.223	0.448	0	0back	Block2	0back/STIM_008.jpg
1189.206	0.539	1	0back	Block2	0back/STIM_008.jpg
1192.556	0.4	1	0back	Block2	0back/STIM_008.jpg
1195.725	0.472	1	0back	Block2	0back/STIM_009.jpg
1198.763	0.485	1	0back	Block2	0back/STIM_009.jpg
1202.581	0.337	1	0back	Block2	0back/STIM_009.jpg
1206.087	0.532	1	0back	Block2	0back/STIM_010.jpg
1210.489	0.334	1	0back	Block2	0back/STIM_010.jpg
1214.437	0.407	1	0back	Block2	0back/STIM_010.jpg
1218.72	0.63	1	0back	Block2	0back/STIM_011.jpg
1223.295	0.517	1	0back	Block2	0back/STIM_011.jpg
1226.29	0.468	0	0back	Block2	0back/STIM_011.jpg
1230.302	0.584	1	0back	Block2	0back/STIM_012.jpg
1234.43	0.565	0	0back	Block2	0back/STIM_012.jpg
1237.648	0.516	1	0back	Block2	0back/STIM_012.jpg
1241.212	0.36	1	0back	Block2	0back/STIM_013.jpg
1244.202	0.371	1	0back	Block2	0back/STIM_013.jpg
1246.696	0.435	1	0back	Block2	0back/STIM_013.jpg
1249.705	0.348	1	0back	Block2	0back/STIM_014.jpg
1253.806	0.615	1	0back	Block2	0back/STIM_014.jpg
1257.634	0.629	0	0back	Block2	0back/STIM_014.jpg
1260.689	0.322	1	0back	Block2	0back/STIM_015.jpg
1263.179	0.535	0	0back	Block2	0back/STIM_015.jpg
1266.402	0.498	0	0back	Block2	0back/STIM_015.jpg
1269.948	0.484	0	0back	Block2	0back/STIM_016.jpg
1273.872	0.523	0	0back	Block2	0back/STIM_016.jpg
1278.026	0.343	0	0back	Block2	0back/STIM_016.jpg
1281.985	0.519	0	0back	Block2	0back/STIM_017.jpg
1285.286	0.412	0	0back	Block2	0back/STIM_017.jpg
1288.862	0.445	1	0back	Block2	0back/STIM_017.jpg
1292.807	0.612	1	0back	Block2	0back/STIM_018.jpg
1295.74	0.622	1	0back	Block2	0back/STIM_018.jpg
1298.494	0.451	0	0back	Block2	0back/STIM_018.jpg
1302.826	0.486	0	0back	Block2	0back/STIM_019.jpg
1306.307	0.542	0	0back	Block2	0back/STIM_019.jpg
1310.293	0.486	1	0back	Block2	0back/STIM_019.jpg
1313.72	0.347	1	2back	Block3	2back/STIM_000.jpg
1316.746	0.642	1	2back	Block3	2back/STIM_000.jpg
1320.756	0.628	1	2back	Block3	2back/STIM_000.jpg
1325.104	0.484	0	2back	Block3	2back/STIM_001.jpg
1328.149	0.595	0	2back	Block3	2back/STIM_001.jpg
1331.492	0.697	0	2back	Block3	2back/STIM_001.jpg
1335.138	0.393	1	2back	Block3	2back/STIM_002.jpg
1338.021	0.541	0	2back	Block3	2back/STIM_002.jpg
1341.424	0.537	1	2back	Block3	2back/STIM_002.jpg
1344.983	0.411	0	2back	Block3	2back/STIM_003.jpg
1347.529	0.337	0	2back	Block3	2back/STIM_003.jpg
1351.491	0.548	1	2back	Block3	2back/STIM_003.jpg
1355.033	0.658	1	2back	Block3	2back/STIM_004.jpg
1358.112	0.417	0	2back	Block3	2back/STIM_004.jpg
1362.478	0.502	1	2back	Block3	2back/STIM_004.jpg
1366.883	0.514	0	2back	Block3	2back/STIM_005.jpg
1369.573	0.761	1	2back	Block3	2back/STIM_005.jpg
1373.629	0.692	1	2back	Block3	2back/STIM_005.jpg
1376.628	0.531	0	2back	Block3	2back/STIM_006.jpg
1380.366	0.628	1	2back	Block3	2back/STIM_006.jpg
1383.416	0.597	1	2back	Block3	2back/STIM_006.jpg
1387.563	0.34	0	2back	Block3	2back/STIM_007.jpg
1391.754	0.65	1	2back	Block3	2back/STIM_007.jpg
1394.574	0.751	1	2back	Block3	2back/STIM_007.jpg
1398.808	0.602	0	2back	Block3	2back/STIM_008.jpg
1402.407	0.411	1	2back	Block3	2back/STIM_008.jpg
1405.024	0.672	1	2back	Block3	2back/STIM_008.jpg
1408.931	0.65	1	2back	Block3	2back/STIM_009.jpg
1412.345	0.537	1	2back	Block3	2back/STIM_009.jpg
1414.985	0.664	1	2back	Block3	2back/STIM_009.jpg
1418.52	0.658	1	2back	Block3	2back/STIM_010.jpg
1422.72	0.501	1	2back	Block3	2back/STIM_010.jpg
1425.313	0.346	1	2back	Block3	2back/STIM_010.jpg
1428.663	0.724	0	2back	Block3	2back/STIM_011.jpg
1432.424	0.524	1	2back	Block3	2back/STIM_011.jpg
1435.716	0.486	0	2back	Block3	2back/STIM_011.jpg
1438.966	0.715	1	2back	Block3	2back/STIM_012.jpg
1441.982	0.571	1	2back	Block3	2back/STIM_012.jpg
1444.96	0.628	1	2back	Block3	2back/STIM_012.jpg
1448.323	0.362	1	2back	Block3	2back/STIM_013.jpg
1451.243	0.432	1	2back	Block3	2back/STIM_013.jpg
1453.783	0.746	1	2back	Block3	2back/STIM_013.jpg
1456.916	0.648	0	2back	Block3	2back/STIM_014.jpg
1460.971	0.438	0	2back	Block3	2back/STIM_014.jpg
1465.212	0.394	0	2back	Block3	2back/STIM_014.jpg
1469.114	0.49	1	2back	Block3	2back/STIM_015.jpg
1473.182	0.682	1	2back	Block3	2back/STIM_015.jpg
1477.784	0.478	1	2back	Block3	2back/STIM_015.jpg
1481.873	0.557	1	2back	Block3	2back/STIM_016.jpg
1485.122	0.394	1	2back	Block3	2back/STIM_016.jpg
1488.031	0.55	1	2back	Block3	2back/STIM_016.jpg
1491.119	0.707	1	2back	Block3	2back/STIM_017.jpg
1494.416	0.459	1	2back	Block3	2back/STIM_017.jpg
1498.101	0.552	1	2back	Block3	2back/STIM_017.jpg
1501.629	0.655	1	2back	Block3	2back/STIM_018.jpg
1505.696	0.368	1	2back	Block3	2back/STIM_018.jpg
1508.808	0.349	1	2back	Block3	2back/STIM_018.jpg
1512.028	0.352	1	2back	Block3	2back/STIM_019.jpg
1516.111	0.581	1	2back	Block3	2back/STIM_019.jpg
1518.869	0.632	0	2back	Block3	2back/STIM_019.jpg
1522.442	0.382	1	2back	Block3	2back/STIM_020.jpg
1524.889	0.764	0	2back	Block3	2back/STIM_020.jpg
1529.124	0.481	1	2back	Block3	2back/STIM_020.jpg
1532.365	0.42	1	2back	Block3	2back/STIM_021.jpg
1534.868	0.506	0	2back	Block3	2back/STIM_021.jpg
1537.566	0.517	1	2back	Block3	2back/STIM_021.jpg
1540.482	0.512	0	2back	Block3	2back/STIM_022.jpg
1544.081	0.473	1	2back	Block3	2back/STIM_022.jpg
1547.331	0.594	0	2back	Block3	2back/STIM_022.jpg
1550.421	0.633	1	2back	Block3	2back/STIM_023.jpg
1553.768	0.547	1	2back	Block3	2back/STIM_023.jpg
1556.817	0.466	1	2back	Block3	2back/STIM_023.jpg
1560.69	0.659	1	2back	Block3	2back/STIM_024.jpg
1563.962	0.711	1	2back	Block3	2back/STIM_024.jpg
1567.22	0.637	1	2back	Block3	2back/STIM_024.jpg
1571.606	0.762	1	2back	Block3	2back/STIM_025.jpg
1574.827	0.561	1	2back	Block3	2back/STIM_025.jpg
1577.712	0.776	1	2back	Block3	2back/STIM_025.jpg
1582.096	0.399	0	2back	Block3	2back/STIM_026.jpg
1585.2	0.53	0	2back	Block3	2back/STIM_026.jpg
1588.878	0.631	1	2back	Block3	2back/STIM_026.jpg
1593.491	0.473	1	2back	Block3	2back/STIM_027.jpg
1597.122	0.483	1	2back	Block3	2back/STIM_027.jpg
1601.021	0.449	0	2back	Block3	2back/STIM_027.jpg
1605.091	0.599	0	2back	Block3	2back/STIM_028.jpg
1609.638	0.716	1	2back	Block3	2back/STIM_028.jpg
1613.74	0.478	1	2back	Block3	2back/STIM_028.jpg
1616.245	0.35	0	2back	Block3	2back/STIM_029.jpg
1620.141	0.776	0	2back	Block3	2back/STIM_029.jpg
1623.205	0.768	1	2back	Block3	2back/STIM_029.jpg
1627.866	0.699	1	2back	Block3	2back/STIM_030.jpg
1631.092	0.419	1	2back	Block3	2back/STIM_030.jpg
1633.687	0.69	0	2back	Block3	2back/STIM_030.jpg
1636.947	0.543	1	2back	Block3	2back/STIM_031.jpg
1640.94	0.391	1	2back	Block3	2back/STIM_031.jpg
1643.632	0.587	1	2back	Block3	2back/STIM_031.jpg
1647.075	0.479	1	2back	Block3	2back/STIM_032.jpg
1651.517	0.341	1	2back	Block3	2back/STIM_032.jpg
1654.897	0.751	1	2back	Block3	2back/STIM_032.jpg
1658.078	0.479	0	2back	Block3	2back/STIM_033.jpg
1660.718	0.68	0	2back	Block3	2back/STIM_033.jpg
1664.47	0.616	0	2back	Block3	2back/STIM_033.jpg
1668.688	0.756	0	2back	Block3	2back/STIM_034.jpg
1672.282	0.558	0	2back	Block3	2back/STIM_034.jpg
1676.424	0.48	1	2back	Block3	2back/STIM_034.jpg
1680.222	0.457	0	2back	Block3	2back/STIM_035.jpg
1683.53	0.67	1	2back	Block3	2back/STIM_035.jpg
1686.981	0.534	0	2back	Block3	2back/STIM_035.jpg
1691.243	0.585	1	2back	Block3	2back/STIM_036.jpg
1694.809	0.507	1	2back	Block3	2back/STIM_036.jpg
1698.147	0.662	1	2back	Block3	2back/STIM_036.jpg
1702.439	0.56	1	2back	Block3	2back/STIM_037.jpg
1706.724	0.503	1	2back	Block3	2back/STIM_037.jpg
1709.275	0.745	0	2back	Block3	2back/STIM_037.jpg
1713.868	0.736	1	2back	Block3	2back/STIM_038.jpg
1718.065	0.571	0	2back	Block3	2back/STIM_038.jpg
1721.546	0.367	1	2back	Block3	2back/STIM_038.jpg
1724.58	0.711	1	2back	Block3	2back/STIM_039.jpg
1729.241	0.71	1	2back	Block3	2back/STIM_039.jpg
1733.421	0.382	1	2back	Block3	2back/STIM_039.jpg
1736.309	0.48	0	0back	Block3	0back/STIM_000.jpg
1739.474	0.404	1	0back	Block3	0back/STIM_000.jpg
1743.287	0.487	0	0back	Block3	0back/STIM_000.jpg
1746.632	0.487	1	0back	Block3	0back/STIM_001.jpg
1750.047	0.62	1	0back	Block3	0back/STIM_001.jpg
1753.185	0.357	0	0back	Block3	0back/STIM_001.jpg
1757.269	0.358	1	0back	Block3	0back/STIM_002.jpg
1759.821	0.582	0	0back	Block3	0back/STIM_002.jpg
1762.603	0.633	0	0back	Block3	0back/STIM_002.jpg
1767.034	0.4	0	0back	Block3	0back/STIM_003.jpg
1771.33	0.46	1	0back	Block3	0back/STIM_003.jpg
1774.169	0.422	0	0back	Block3	0back/STIM_003.jpg
1778.002	0.585	1	0back	Block3	0back/STIM_004.jpg
1781.667	0.396	1	0back	Block3	0back/STIM_004.jpg
1785.554	0.591	1	0back	Block3	0back/STIM_004.jpg
1789.918	0.377	1	0back	Block3	0back/STIM_005.jpg
1793.203	0.362	0	0back	Block3	0back/STIM_005.jpg
1797.119	0.417	1	0back	Block3	0back/STIM_005.jpg
1800.37	0.446	1	0back	Block3	0back/STIM_006.jpg
1803.557	0.365	0	0back	Block3	0back/STIM_006.jpg
1807.818	0.414	1	0back	Block3	0back/STIM_006.jpg
1811.408	0.413	1	0back	Block3	0back/STIM_007.jpg
1815.526	0.617	0	0back	Block3	0back/STIM_007.jpg
1819.281	0.614	1	0back	Block3	0back/STIM_007.jpg
1822.06	0.369	0	0back	Block3	0back/STIM_008.jpg
1825.408	0.593	1	0back	Block3	0back/STIM_008.jpg
1828.84	0.407	0	0back	Block3	0back/STIM_008.jpg
1831.846	0.543	1	0back	Block3	0back/STIM_009.jpg
1835.332	0.394	1	0back	Block3	0back/STIM_009.jpg
1839.34	0.482	1	0back	Block3	0back/STIM_009.jpg
1843.233	0.371	0	0back	Block3	0back/STIM_010.jpg
1846.228	0.384	0	0back	Block3	0back/STIM_010.jpg
1849.96	0.432	1	0back	Block3	0back/STIM_010.jpg
1852.65	0.618	1	0back	Block3	0back/STIM_011.jpg
1857.094	0.607	1	0back	Block3	0back/STIM_011.jpg
1861.454	0.514	0	0back	Block3	0back/STIM_011.jpg
1865.575	0.424	1	0back	Block3	0back/STIM_012.jpg
1869.967	0.508	0	0back	Block3	0back/STIM_012.jpg
1873.42	0.604	1	0back	Block3	0back/STIM_012.jpg
1877.532	0.532	0	0back	Block3	0back/STIM_013.jpg
1881.633	0.368	1	0back	Block3	0back/STIM_013.jpg
1884.196	0.545	1	0back	Block3	0back/STIM_013.jpg
1886.853	0.568	0	0back	Block3	0back/STIM_014.jpg
1890.62	0.452	0	0back	Block3	0back/STIM_014.jpg
1894.253	0.598	0	0back	Block3	0back/STIM_014.jpg
1897.463	0.617	0	0back	Block3	0back/STIM_015.jpg
1901.319	0.58	1	0back	Block3	0back/STIM_015.jpg
1905.088	0.53	0	0back	Block3	0back/STIM_015.jpg
1909.436	0.585	1	0back	Block3	0back/STIM_016.jpg
1912.865	0.492	1	0back	Block3	0back/STIM_016.jpg
1916.315	0.512	1	0back	Block3	0back/STIM_016.jpg
1920.77	0.578	1	0back	Block3	0back/STIM_017.jpg
1923.929	0.375	0	0back	Block3	0back/STIM_017.jpg
1927.574	0.553	0	0back	Block3	0back/STIM_017.jpg
1930.202	0.483	0	0back	Block3	0back/STIM_018.jpg
1934.66	0.597	1	0back	Block3	0back/STIM_018.jpg
1937.432	0.322	1	0back	Block3	0back/STIM_018.jpg
1940.711	0.456	0	0back	Block3	0back/STIM_019.jpg
1944.787	0.414	1	0back	Block3	0back/STIM_019.jpg
1948.15	0.438	0	0back	Block3	0back/STIM_019.jpg
1951.738	0.688	1	2back	Block4	2back/STIM_000.jpg
1955.428	0.769	1	2back	Block4	2back/STIM_000.jpg
1960.039	0.691	1	2back	Block4	2back/STIM_000.jpg
1964.162	0.478	1	2back	Block4	2back/STIM_001.jpg
1967.714	0.687	0	2back	Block4	2back/STIM_001.jpg
1971.124	0.575	0	2back	Block4	2back/STIM_001.jpg
1975.653	0.378	1	2back	Block4	2back/STIM_002.jpg
1978.386	0.582	1	2back	Block4	2back/STIM_002.jpg
1982.785	0.705	1	2back	Block4	2back/STIM_002.jpg
1987.038	0.384	1	2back	Block4	2back/STIM_003.jpg
1990.941	0.72	0	2back	Block4	2back/STIM_003.jpg
1994.811	0.397	1	2back	Block4	2back/STIM_003.jpg
1999.115	0.713	1	2back	Block4	2back/STIM_004.jpg
2003.779	0.775	1	2back	Block4	2back/STIM_004.jpg
2007.665	0.566	1	2back	Block4	2back/STIM_004.jpg
2011.707	0.56	1	2back	Block4	2back/STIM_005.jpg
2014.615	0.678	0	2back	Block4	2back/STIM_005.jpg
2017.83	0.556	1	2back	Block4	2back/STIM_005.jpg
2022.021	0.694	1	2back	Block4	2back/STIM_006.jpg
2025.43	0.585	0	2back	Block4	2back/STIM_006.jpg
2028.949	0.49	0	2back	Block4	2back/STIM_006.jpg
2032.523	0.739	1	2back	Block4	2back/STIM_007.jpg
2036.412	0.434	1	2back	Block4	2back/STIM_007.jpg
2039.485	0.644	0	2back	Block4	2back/STIM_007.jpg
2043.451	0.617	1	2back	Block4	2back/STIM_008.jpg
2046.475	0.446	0	2back	Block4	2back/STIM_008.jpg
2050.005	0.431	1	2back	Block4	2back/STIM_008.jpg
2053.586	0.427	1	2back	Block4	2back/STIM_009.jpg
2056.032	0.589	1	2back	Block4	2back/STIM_009.jpg
2060.225	0.357	0	2back	Block4	2back/STIM_009.jpg
2062.834	0.508	1	2back	Block4	2back/STIM_010.jpg
2066.543	0.734	0	2back	Block4	2back/STIM_010.jpg
2071.2	0.594	0	2back	Block4	2back/STIM_010.jpg
2075.109	0.458	1	2back	Block4	2back/STIM_011.jpg
2078.346	0.684	0	2back	Block4	2back/STIM_011.jpg
2082.576	0.497	1	2back	Block4	2back/STIM_011.jpg
2086.988	0.692	1	2back	Block4	2back/STIM_012.jpg
2089.912	0.568	1	2back	Block4	2back/STIM_012.jpg
2093.967	0.399	0	2back	Block4	2back/STIM_012.jpg
2097.094	0.37	0	2back	Block4	2back/STIM_013.jpg
2100.005	0.336	0	2back	Block4	2back/STIM_013.jpg
2102.528	0.616	1	2back	Block4	2back/STIM_013.jpg
2107.125	0.391	1	2back	Block4	2back/STIM_014.jpg
2110.003	0.768	0	2back	Block4	2back/STIM_014.jpg
2114.736	0.583	1	2back	Block4	2back/STIM_014.jpg
2119.026	0.417	1	2back	Block4	2back/STIM_015.jpg
2122.231	0.491	1	2back	Block4	2back/STIM_015.jpg
2125.826	0.373	1	2back	Block4	2back/STIM_015.jpg
2128.531	0.673	1	2back	Block4	2back/STIM_016.jpg
2131.403	0.709	1	2back	Block4	2back/STIM_016.jpg
2134.349	0.51	1	2back	Block4	2back/STIM_016.jpg
2138.081	0.522	1	2back	Block4	2back/STIM_017.jpg
2142.114	0.631	1	2back	Block4	2back/STIM_017.jpg
2145.577	0.551	0	2back	Block4	2back/STIM_017.jpg
2149.854	0.49	0	2back	Block4	2back/STIM_018.jpg
2153.686	0.759	0	2back	Block4	2back/STIM_018.jpg
2158.236	0.497	1	2back	Block4	2back/STIM_018.jpg
2161.623	0.621	1	2back	Block4	2back/STIM_019.jpg
2164.554	0.561	0	2back	Block4	2back/STIM_019.jpg
2168.528	0.638	1	2back	Block4	2back/STIM_019.jpg
2171.803	0.703	1	2back	Block4	2back/STIM_020.jpg
2174.818	0.749	0	2back	Block4	2back/STIM_020.jpg
2178.561	0.554	1	2back	Block4	2back/STIM_020.jpg
2182.605	0.659	0	2back	Block4	2back/STIM_021.jpg
2186.605	0.4	1	2back	Block4	2back/STIM_021.jpg
2189.735	0.705	1	2back	Block4	2back/STIM_021.jpg
2193.616	0.546	1	2back	Block4	2back/STIM_022.jpg
2198.049	0.37	1	2back	Block4	2back/STIM_022.jpg
2201.976	0.77	1	2back	Block4	2back/STIM_022.jpg
2204.769	0.644	0	2back	Block4	2back/STIM_023.jpg
2209.078	0.496	1	2back	Block4	2back/STIM_023.jpg
2213.526	0.681	1	2back	Block4	2back/STIM_023.jpg
2217.139	0.685	1	2back	Block4	2back/STIM_024.jpg
2221.198	0.446	0	2back	Block4	2back/STIM_024.jpg
2224.751	0.398	0	2back	Block4	2back/STIM_024.jpg
2228.567	0.69	1	2back	Block4	2back/STIM_025.jpg
2232.636	0.566	1	2back	Block4	2back/STIM_025.jpg
2235.719	0.725	1	2back	Block4	2back/STIM_025.jpg
2239.803	0.383	1	2back	Block4	2back/STIM_026.jpg
2242.51	0.667	1	2back	Block4	2back/STIM_026.jpg
2246.895	0.772	0	2back	Block4	2back/STIM_026.jpg
2251.171	0.724	1	2back	Block4	2back/STIM_027.jpg
2255.234	0.498	0	2back	Block4	2back/STIM_027.jpg
2258.758	0.525	0	2back	Block4	2back/STIM_027.jpg
2261.395	0.392	1	2back	Block4	2back/STIM_028.jpg
2265.068	0.624	0	2back	Block4	2back/STIM_028.jpg
2267.916	0.643	1	2back	Block4	2back/STIM_028.jpg
2272.045	0.707	1	2back	Block4	2back/STIM_029.jpg
2276.059	0.507	1	2back	Block4	2back/STIM_029.jpg
2280.519	0.338	1	2back	Block4	2back/STIM_029.jpg
2283.259	0.633	0	2back	Block4	2back/STIM_030.jpg
2285.95	0.424	0	2back	Block4	2back/STIM_030.jpg
2289.655	0.682	1	2back	Block4	2back/STIM_030.jpg
2293.276	0.472	1	2back	Block4	2back/STIM_031.jpg
2297.445	0.636	1	2back	Block4	2back/STIM_031.jpg
2300.448	0.399	1	2back	Block4	2back/STIM_031.jpg
2302.964	0.338	1	2back	Block4	2back/STIM_032.jpg
2306.056	0.46	1	2back	Block4	2back/STIM_032.jpg
2308.555	0.691	1	2back	Block4	2back/STIM_032.jpg
2311.829	0.723	1	2back	Block4	2back/STIM_033.jpg
2316.294	0.709	1	2back	Block4	2back/STIM_033.jpg
2319.824	0.378	1	2back	Block4	2back/STIM_033.jpg
2323.303	0.632	0	2back	Block4	2back/STIM_034.jpg
2327.105	0.592	0	2back	Block4	2back/STIM_034.jpg
2329.713	0.638	0	2back	Block4	2back/STIM_034.jpg
2333.876	0.389	1	2back	Block4	2back/STIM_035.jpg
2337.78	0.604	0	2back	Block4	2back/STIM_035.jpg
2341.797	0.508	1	2back	Block4	2back/STIM_035.jpg
2345.672	0.352	1	2back	Block4	2back/STIM_036.jpg
2349.3	0.671	0	2back	Block4	2back/STIM_036.jpg
2352.869	0.591	1	2back	Block4	2back/STIM_036.jpg
2355.575	0.547	1	2back	Block4	2back/STIM_037.jpg
2359.368	0.336	1	2back	Block4	2back/STIM_037.jpg
2363.535	0.636	1	2back	Block4	2back/STIM_037.jpg
2367.639	0.41	1	2back	Block4	2back/STIM_038.jpg
2371.074	0.53	1	2back	Block4	2back/STIM_038.jpg
2374.062	0.709	1	2back	Block4	2back/STIM_038.jpg
2377.814	0.57	1	2back	Block4	2back/STIM_039.jpg
2380.746	0.63	0	2back	Block4	2back/STIM_039.jpg
2384.076	0.755	1	2back	Block4	2back/STIM_039.jpg
2387.37	0.505	1	0back	Block4	0back/STIM_000.jpg
2390.978	0.326	0	0back	Block4	0back/STIM_000.jpg
2393.98	0.612	0	0back	Block4	0back/STIM_000.jpg
2396.623	0.504	0	0back	Block4	0back/STIM_001.jpg
2399.672	0.5	0	0back	Block4	0back/STIM_001.jpg
2404.141	0.41	1	0back	Block4	0back/STIM_001.jpg
2406.93	0.564	0	0back	Block4	0back/STIM_002.jpg
2409.807	0.581	1	0back	Block4	0back/STIM_002.jpg
2414.285	0.514	0	0back	Block4	0back/STIM_002.jpg
2417.946	0.554	1	0back	Block4	0back/STIM_003.jpg
2422.235	0.566	0	0back	Block4	0back/STIM_003.jpg
2426.598	0.628	0	0back	Block4	0back/STIM_003.jpg
2431.171	0.589	0	0back	Block4	0back/STIM_004.jpg
2435.055	0.537	0	0back	Block4	0back/STIM_004.jpg
2439.306	0.592	0	0back	Block4	0back/STIM_004.jpg
2443.516	0.528	1	0back	Block4	0back/STIM_005.jpg
2447.084	0.389	1	0back	Block4	0back/STIM_005.jpg
2449.707	0.348	1	0back	Block4	0back/STIM_005.jpg
2452.325	0.387	0	0back	Block4	0back/STIM_006.jpg
2456.615	0.444	0	0back	Block4	0back/STIM_006.jpg
2460.734	0.382	1	0back	Block4	0back/STIM_006.jpg
2464.611	0.55	1	0back	Block4	0back/STIM_007.jpg
2467.37	0.429	0	0back	Block4	0back/STIM_007.jpg
2471.117	0.509	1	0back	Block4	0back/STIM_007.jpg
2475.485	0.617	0	0back	Block4	0back/STIM_008.jpg
2478.196	0.587	1	0back	Block4	0back/STIM_008.jpg
2481.204	0.58	0	0back	Block4	0back/STIM_008.jpg
2485.777	0.574	0	0back	Block4	0back/STIM_009.jpg
2489.029	0.573	0	0back	Block4	0back/STIM_009.jpg
2492.852	0.514	1	0back	Block4	0back/STIM_009.jpg
2496.694	0.578	1	0back	Block4	0back/STIM_010.jpg
2500.164	0.616	1	0back	Block4	0back/STIM_010.jpg
2503.52	0.337	0	0back	Block4	0back/STIM_010.jpg
2507.758	0.373	0	0back	Block4	0back/STIM_011.jpg
2511.676	0.561	1	0back	Block4	0back/STIM_011.jpg
2515.45	0.39	0	0back	Block4	0back/STIM_011.jpg
2518.019	0.54	1	0back	Block4	0back/STIM_012.jpg
2521.508	0.351	0	0back	Block4	0back/STIM_012.jpg
2525.077	0.452	1	0back	Block4	0back/STIM_012.jpg
2528.693	0.413	1	0back	Block4	0back/STIM_013.jpg
2532.638	0.59	0	0back	Block4	0back/STIM_013.jpg
2535.522	0.42	0	0back	Block4	0back/STIM_013.jpg
2538.071	0.378	1	0back	Block4	0back/STIM_014.jpg
2542.301	0.611	1	0back	Block4	0back/STIM_014.jpg
2545.226	0.596	1	0back	Block4	0back/STIM_014.jpg
2547.85	0.32	1	0back	Block4	0back/STIM_015.jpg
2550.787	0.546	1	0back	Block4	0back/STIM_015.jpg
2554.954	0.419	0	0back	Block4	0back/STIM_015.jpg
2557.741	0.622	1	0back	Block4	0back/STIM_016.jpg
2562.151	0.569	1	0back	Block4	0back/STIM_016.jpg
2566.056	0.52	1	0back	Block4	0back/STIM_016.jpg
2569.306	0.611	1	0back	Block4	0back/STIM_017.jpg
2572.827	0.553	1	0back	Block4	0back/STIM_017.jpg
2575.409	0.559	1	0back	Block4	0back/STIM_017.jpg
2579.085	0.574	0	0back	Block4	0back/STIM_018.jpg
2582.157	0.463	0	0back	Block4	0back/STIM_018.jpg
2586.387	0.438	1	0back	Block4	0back/STIM_018.jpg
2589.629	0.395	1	0back	Block4	0back/STIM_019.jpg
2593.485	0.429	0	0back	Block4	0back/STIM_019.jpg
2597.034	0.435	0	0back	Block4	0back/STIM_019.jpg
