onset	duration	response_time_ms	trial_type	learning_stage	stimulus	response_port
0.0	0.781	780.7	2back	Block1	2back/STIM_000.jpg	99
4.753	0.559	558.6	2back	Block1	2back/STIM_000.jpg	100
9.006	0.839	838.7	2back	Block1	2back/STIM_000.jpg	100
13.361	0.524	523.9	2back	Block1	2back/STIM_001.jpg	99
17.286	0.935	935.4	2back	Block1	2back/STIM_001.jpg	99
20.889	0.484	483.6	2back	Block1	2back/STIM_001.jpg	99
24.082	0.567	566.7	2back	Block1	2back/STIM_002.jpg	99
27.485	0.631	631.2	2back	Block1	2back/STIM_002.jpg	99
31.888	0.692	691.7	2back	Block1	2back/STIM_002.jpg	99
36.008	0.524	524.3	2back	Block1	2back/STIM_003.jpg	100
39.548	0.612	612.4	2back	Block1	2back/STIM_003.jpg	100
42.372	0.996	995.6	2back	Block1	2back/STIM_003.jpg	99
45.883	0.497	497.3	2back	Block1	2back/STIM_004.jpg	100
49.991	0.468	467.7	2back	Block1	2back/STIM_004.jpg	99
54.27	0.799	798.8	2back	Block1	2back/STIM_004.jpg	100
57.943	0.711	710.8	2back	Block1	2back/STIM_005.jpg	100
60.84	0.711	710.6	2back	Block1	2back/STIM_005.jpg	100
64.59	0.565	565.4	2back	Block1	2back/STIM_005.jpg	99
68.195	0.555	554.6	2back	Block1	2back/STIM_006.jpg	99
71.603	0.959	959.0	2back	Block1	2back/STIM_006.jpg	99
76.104	0.695	695.1	2back	Block1	2back/STIM_006.jpg	99
80.164	1.032	1031.9	2back	Block1	2back/STIM_007.jpg	99
83.623	0.703	702.9	2back	Block1	2back/STIM_007.jpg	99
86.876	0.982	981.8	2back	Block1	2back/STIM_007.jpg	100
90.164	0.726	725.9	2back	Block1	2back/STIM_008.jpg	100
93.544	0.545	544.8	2back	Block1	2back/STIM_008.jpg	99
97.237	0.778	778.1	2back	Block1	2back/STIM_008.jpg	100
101.428	0.497	497.3	2back	Block1	2back/STIM_009.jpg	100
104.19	0.627	627.0	2back	Block1	2back/STIM_009.jpg	99
108.135	0.922	921.7	2back	Block1	2back/STIM_009.jpg	100
112.839	0.597	597.3	2back	Block1	2back/STIM_010.jpg	99
117.389	0.835	835.4	2back	Block1	2back/STIM_010.jpg	99
121.831	0.965	965.0	2back	Block1	2back/STIM_010.jpg	100
126.651	1.109	1109.0	2back	Block1	2back/STIM_011.jpg	99
130.751	0.579	578.7	2back	Block1	2back/STIM_011.jpg	99
133.609	0.925	925.0	2back	Block1	2back/STIM_011.jpg	100
137.892	0.764	763.9	2back	Block1	2back/STIM_012.jpg	100
142.058	0.98	980.3	2back	Block1	2back/STIM_012.jpg	99
146.325	0.849	848.6	2back	Block1	2back/STIM_012.jpg	100
151.161	1.1	1100.1	2back	Block1	2back/STIM_013.jpg	99
154.52	0.466	465.8	2back	Block1	2back/STIM_013.jpg	99
158.719	0.524	523.5	2back	Block1	2back/STIM_013.jpg	99
161.812	0.733	732.7	2back	Block1	2back/STIM_014.jpg	99
164.755	0.727	726.7	2back	Block1	2back/STIM_014.jpg	100
169.294	0.828	827.7	2back	Block1	2back/STIM_014.jpg	99
172.798	0.486	485.5	2back	Block1	2back/STIM_015.jpg	100
175.916	0.585	585.2	2back	Block1	2back/STIM_015.jpg	100
179.353	0.667	667.0	2back	Block1	2back/STIM_015.jpg	99
182.861	0.744	744.1	2back	Block1	2back/STIM_016.jpg	99
187.491	0.795	794.7	2back	Block1	2back/STIM_016.jpg	99
190.892	0.641	641.4	2back	Block1	2back/STIM_016.jpg	100
195.137	0.883	883.3	2back	Block1	2back/STIM_017.jpg	99
199.06	0.462	462.3	2back	Block1	2back/STIM_017.jpg	99
202.163	0.726	726.1	2back	Block1	2back/STIM_017.jpg	99
206.237	0.811	810.6	2back	Block1	2back/STIM_018.jpg	100
210.411	0.466	465.9	2back	Block1	2back/STIM_018.jpg	100
213.648	0.861	860.8	2back	Block1	2back/STIM_018.jpg	100
217.07	0.605	604.7	2back	Block1	2back/STIM_019.jpg	100
220.823	1.04	1039.8	2back	Block1	2back/STIM_019.jpg	100
224.024	0.492	492.1	2back	Block1	2back/STIM_019.jpg	99
226.809	1.08	1080.4	2back	Block1	2back/STIM_020.jpg	100
230.192	0.674	673.6	2back	Block1	2back/STIM_020.jpg	99
233.48	0.834	833.6	2back	Block1	2back/STIM_020.jpg	99
237.508	0.673	672.8	2back	Block1	2back/STIM_021.jpg	99
240.748	0.87	870.4	2back	Block1	2back/STIM_021.jpg	99
245.576	0.674	673.7	2back	Block1	2back/STIM_021.jpg	99
248.505	0.499	499.0	2back	Block1	2back/STIM_022.jpg	99
252.152	0.756	756.1	2back	Block1	2back/STIM_022.jpg	100
255.094	0.598	597.5	2back	Block1	2back/STIM_022.jpg	99
258.272	0.748	748.1	2back	Block1	2back/STIM_023.jpg	100
262.802	0.926	926.4	2back	Block1	2back/STIM_023.jpg	99
267.397	0.873	872.7	2back	Block1	2back/STIM_023.jpg	100
271.315	0.556	556.2	2back	Block1	2back/STIM_024.jpg	99
275.291	1.055	1054.7	2back	Block1	2back/STIM_024.jpg	100
279.859	0.631	631.1	2back	Block1	2back/STIM_024.jpg	100
283.175	0.617	616.6	2back	Block1	2back/STIM_025.jpg	99
286.825	0.787	786.8	2back	Block1	2back/STIM_025.jpg	99
291.487	0.788	788.1	2back	Block1	2back/STIM_025.jpg	99
295.158	0.912	912.4	2back	Block1	2back/STIM_026.jpg	99
298.229	0.826	826.0	2back	Block1	2back/STIM_026.jpg	100
302.464	0.754	753.6	2back	Block1	2back/STIM_026.jpg	99
306.073	0.716	715.8	2back	Block1	2back/STIM_027.jpg	99
310.546	0.861	860.7	2back	Block1	2back/STIM_027.jpg	99
313.844	0.919	919.3	2back	Block1	2back/STIM_027.jpg	99
316.862	1.007	1007.3	2back	Block1	2back/STIM_028.jpg	99
321.45	0.85	849.5	2back	Block1	2back/STIM_028.jpg	100
324.589	0.89	889.9	2back	Block1	2back/STIM_028.jpg	99
328.799	0.752	751.9	2back	Block1	2back/STIM_029.jpg	99
331.77	0.974	974.3	2back	Block1	2back/STIM_029.jpg	99
335.458	0.648	647.7	2back	Block1	2back/STIM_029.jpg	100
339.135	0.911	910.9	2back	Block1	2back/STIM_030.jpg	100
343.711	0.564	563.9	2back	Block1	2back/STIM_030.jpg	99
346.527	0.674	674.0	2back	Block1	2back/STIM_030.jpg	99
351.13	0.518	517.8	2back	Block1	2back/STIM_031.jpg	100
353.844	0.481	481.2	2back	Block1	2back/STIM_031.jpg	99
358.239	0.906	906.4	2back	Block1	2back/STIM_031.jpg	99
362.452	0.645	645.3	2back	Block1	2back/STIM_032.jpg	100
366.978	0.489	488.7	2back	Block1	2back/STIM_032.jpg	100
371.133	0.662	662.2	2back	Block1	2back/STIM_032.jpg	100
374.43	0.512	512.2	2back	Block1	2back/STIM_033.jpg	100
378.855	0.498	497.6	2back	Block1	2back/STIM_033.jpg	99
382.811	0.91	909.9	2back	Block1	2back/STIM_033.jpg	100
386.49	1.107	1107.3	2back	Block1	2back/STIM_034.jpg	99
391.02	0.967	966.9	2back	Block1	2back/STIM_034.jpg	100
394.363	0.54	539.9	2back	Block1	2back/STIM_034.jpg	100
397.648	0.897	897.2	2back	Block1	2back/STIM_035.jpg	99
402.532	0.69	690.1	2back	Block1	2back/STIM_035.jpg	100
406.725	0.722	721.6	2back	Block1	2back/STIM_035.jpg	99
410.051	0.698	698.2	2back	Block1	2back/STIM_036.jpg	100
413.803	0.946	945.8	2back	Block1	2back/STIM_036.jpg	99
418.094	0.8	800.2	2back	Block1	2back/STIM_036.jpg	99
421.614	0.946	946.2	2back	Block1	2back/STIM_037.jpg	100
426.391	0.699	699.3	2back	Block1	2back/STIM_037.jpg	99
429.955	0.785	784.9	2back	Block1	2back/STIM_037.jpg	100
434.485	1.063	1062.6	2back	Block1	2back/STIM_038.jpg	100
439.369	0.603	602.7	2back	Block1	2back/STIM_038.jpg	99
442.434	0.503	503.4	2back	Block1	2back/STIM_038.jpg	99
446.254	0.621	621.4	2back	Block1	2back/STIM_039.jpg	99
450.108	0.862	861.8	2back	Block1	2back/STIM_039.jpg	99
454.827	0.751	751.3	2back	Block1	2back/STIM_039.jpg	99
457.716	0.631	630.7	0back	Block1	0back/STIM_000.jpg	100
461.631	0.48	479.6	0back	Block1	0back/STIM_000.jpg	100
465.331	0.527	526.7	0back	Block1	0back/STIM_000.jpg	100
468.679	0.413	413.1	0back	Block1	0back/STIM_001.jpg	99
471.704	0.565	565.4	0back	Block1	0back/STIM_001.jpg	99
474.355	0.558	557.5	0back	Block1	0back/STIM_001.jpg	99
477.91	0.571	571.4	0back	Block1	0back/STIM_002.jpg	99
480.956	0.578	578.5	0back	Block1	0back/STIM_002.jpg	100
484.461	0.447	447.2	0back	Block1	0back/STIM_002.jpg	99
487.081	0.442	441.8	0back	Block1	0back/STIM_003.jpg	99
490.486	0.336	336.5	0back	Block1	0back/STIM_003.jpg	99
493.134	0.532	532.4	0back	Block1	0back/STIM_003.jpg	100
497.374	0.487	486.9	0back	Block1	0back/STIM_004.jpg	100
501.837	0.503	503.5	0back	Block1	0back/STIM_004.jpg	100
504.487	0.411	410.7	0back	Block1	0back/STIM_004.jpg	100
507.828	0.597	596.9	0back	Block1	0back/STIM_005.jpg	100
511.781	0.474	474.3	0back	Block1	0back/STIM_005.jpg	99
515.636	0.587	586.8	0back	Block1	0back/STIM_005.jpg	99
519.606	0.539	539.3	0back	Block1	0back/STIM_006.jpg	99
523.831	0.364	364.5	0back	Block1	0back/STIM_006.jpg	100
527.436	0.579	579.1	0back	Block1	0back/STIM_006.jpg	100
531.399	0.351	350.8	0back	Block1	0back/STIM_007.jpg	99
535.279	0.382	381.6	0back	Block1	0back/STIM_007.jpg	99
538.67	0.623	622.8	0back	Block1	0back/STIM_007.jpg	100
542.531	0.55	549.9	0back	Block1	0back/STIM_008.jpg	100
545.19	0.618	618.0	0back	Block1	0back/STIM_008.jpg	99
548.821	0.428	428.4	0back	Block1	0back/STIM_008.jpg	99
552.303	0.377	376.6	0back	Block1	0back/STIM_009.jpg	99
555.858	0.468	467.9	0back	Block1	0back/STIM_009.jpg	100
559.423	0.536	536.1	0back	Block1	0back/STIM_009.jpg	99
563.285	0.431	430.7	0back	Block1	0back/STIM_010.jpg	100
565.933	0.627	627.4	0back	Block1	0back/STIM_010.jpg	99
569.138	0.357	356.9	0back	Block1	0back/STIM_010.jpg	100
573.38	0.429	428.8	0back	Block1	0back/STIM_011.jpg	100
577.038	0.397	397.4	0back	Block1	0back/STIM_011.jpg	99
579.652	0.388	387.9	0back	Block1	0back/STIM_011.jpg	99
582.465	0.388	388.3	0back	Block1	0back/STIM_012.jpg	100
586.304	0.433	432.7	0back	Block1	0back/STIM_012.jpg	100
589.272	0.552	551.6	0back	Block1	0back/STIM_012.jpg	99
592.525	0.614	613.6	0back	Block1	0back/STIM_013.jpg	99
595.646	0.396	395.6	0back	Block1	0back/STIM_013.jpg	100
599.759	0.542	541.5	0back	Block1	0back/STIM_013.jpg	99
602.676	0.5	499.9	0back	Block1	0back/STIM_014.jpg	100
606.039	0.331	331.3	0back	Block1	0back/STIM_014.jpg	100
609.154	0.424	424.4	0back	Block1	0back/STIM_014.jpg	99
612.528	0.32	320.0	0back	Block1	0back/STIM_015.jpg	99
615.157	0.58	579.9	0back	Block1	0back/STIM_015.jpg	100
618.691	0.568	567.9	0back	Block1	0back/STIM_015.jpg	99
621.76	0.406	405.6	0back	Block1	0back/STIM_016.jpg	100
624.298	0.485	484.8	0back	Block1	0back/STIM_016.jpg	99
628.322	0.497	496.9	0back	Block1	0back/STIM_016.jpg	100
632.522	0.469	468.9	0back	Block1	0back/STIM_017.jpg	99
635.536	0.586	586.0	0back	Block1	0back/STIM_017.jpg	99
639.141	0.57	570.1	0back	Block1	0back/STIM_017.jpg	100
641.9	0.634	634.5	0back	Block1	0back/STIM_018.jpg	99
645.206	0.359	359.1	0back	Block1	0back/STIM_018.jpg	99
648.745	0.544	544.1	0back	Block1	0back/STIM_018.jpg	99
652.78	0.522	522.3	0back	Block1	0back/STIM_019.jpg	99
657.072	0.602	602.4	0back	Block1	0back/STIM_019.jpg	99
661.303	0.344	343.5	0back	Block1	0back/STIM_019.jpg	100
663.674	0.664	663.7	2back	Block2	2back/STIM_000.jpg	99
666.55	0.594	593.6	2back	Block2	2back/STIM_000.jpg	99
670.244	0.786	785.7	2back	Block2	2back/STIM_000.jpg	100
673.085	0.8	800.3	2back	Block2	2back/STIM_001.jpg	99
677.851	0.538	537.9	2back	Block2	2back/STIM_001.jpg	99
681.871	0.823	823.4	2back	Block2	2back/STIM_001.jpg	99
685.203	0.574	573.9	2back	Block2	2back/STIM_002.jpg	99
688.3	0.607	607.3	2back	Block2	2back/STIM_002.jpg	100
691.431	0.752	751.9	2back	Block2	2back/STIM_002.jpg	100
695.484	0.756	755.7	2back	Block2	2back/STIM_003.jpg	100
699.338	0.532	532.0	2back	Block2	2back/STIM_003.jpg	99
702.264	0.422	422.2	2back	Block2	2back/STIM_003.jpg	100
704.973	0.861	861.4	2back	Block2	2back/STIM_004.jpg	99
707.954	0.75	749.6	2back	Block2	2back/STIM_004.jpg	100
711.869	0.827	827.0	2back	Block2	2back/STIM_004.jpg	99
716.351	0.563	563.3	2back	Block2	2back/STIM_005.jpg	99
720.323	0.879	879.4	2back	Block2	2back/STIM_005.jpg	99
723.261	0.536	535.8	2back	Block2	2back/STIM_005.jpg	100
727.634	0.86	860.3	2back	Block2	2back/STIM_006.jpg	99
730.576	0.541	540.6	2back	Block2	2back/STIM_006.jpg	99
734.686	0.489	488.6	2back	Block2	2back/STIM_006.jpg	100
737.95	0.682	682.2	2back	Block2	2back/STIM_007.jpg	99
742.306	0.69	690.1	2back	Block2	2back/STIM_007.jpg	99
746.114	0.554	553.7	2back	Block2	2back/STIM_007.jpg	99
749.946	0.629	629.4	2back	Block2	2back/STIM_008.jpg	100
752.94	0.382	382.1	2back	Block2	2back/STIM_008.jpg	100
756.184	0.523	522.7	2back	Block2	2back/STIM_008.jpg	100
759.612	0.925	924.9	2back	Block2	2back/STIM_009.jpg	99
764.024	0.832	831.9	2back	Block2	2back/STIM_009.jpg	99
766.932	0.816	816.0	2back	Block2	2back/STIM_009.jpg	99
770.039	0.624	624.2	2back	Block2	2back/STIM_010.jpg	99
774.371	0.556	556.1	2back	Block2	2back/STIM_010.jpg	100
777.521	0.392	392.0	2back	Block2	2back/STIM_010.jpg	99
781.803	0.929	928.7	2back	Block2	2back/STIM_011.jpg	100
785.943	0.611	610.9	2back	Block2	2back/STIM_011.jpg	99
788.865	0.786	786.5	2back	Block2	2back/STIM_011.jpg	100
793.505	0.637	636.6	2back	Block2	2back/STIM_012.jpg	100
797.946	0.424	423.9	2back	Block2	2back/STIM_012.jpg	100
800.517	0.764	763.8	2back	Block2	2back/STIM_012.jpg	99
804.666	0.656	655.8	2back	Block2	2back/STIM_013.jpg	100
809.217	0.762	762.4	2back	Block2	2back/STIM_013.jpg	100
813.127	0.563	563.1	2back	Block2	2back/STIM_013.jpg	99
817.56	0.74	739.9	2back	Block2	2back/STIM_014.jpg	100
820.731	0.487	487.2	2back	Block2	2back/STIM_014.jpg	100
823.707	0.644	644.2	2back	Block2	2back/STIM_014.jpg	99
827.317	0.695	695.1	2back	Block2	2back/STIM_015.jpg	100
830.278	0.722	721.7	2back	Block2	2back/STIM_015.jpg	100
834.155	0.4	399.9	2back	Block2	2back/STIM_015.jpg	100
838.036	0.433	432.9	2back	Block2	2back/STIM_016.jpg	99
841.132	0.46	459.5	2back	Block2	2back/STIM_016.jpg	100
845.14	0.712	711.8	2back	Block2	2back/STIM_016.jpg	99
848.759	0.613	613.0	2back	Block2	2back/STIM_017.jpg	99
851.506	0.721	721.1	2back	Block2	2back/STIM_017.jpg	99
856.126	0.583	582.6	2back	Block2	2back/STIM_017.jpg	100
859.318	0.491	491.3	2back	Block2	2back/STIM_018.jpg	100
863.501	0.854	854.2	2back	Block2	2back/STIM_018.jpg	100
866.659	0.507	507.5	2back	Block2	2back/STIM_018.jpg	99
870.567	0.895	895.0	2back	Block2	2back/STIM_019.jpg	99
875.104	0.867	867.3	2back	Block2	2back/STIM_019.jpg	99
879.782	0.765	765.0	2back	Block2	2back/STIM_019.jpg	100
882.562	0.788	788.0	2back	Block2	2back/STIM_020.jpg	99
885.748	0.51	509.7	2back	Block2	2back/STIM_020.jpg	100
889.679	0.62	619.9	2back	Block2	2back/STIM_020.jpg	99
893.552	0.62	619.8	2back	Block2	2back/STIM_021.jpg	99
897.453	0.585	585.0	2back	Block2	2back/STIM_021.jpg	100
901.297	0.454	453.7	2back	Block2	2back/STIM_021.jpg	100
904.68	0.767	766.9	2back	Block2	2back/STIM_022.jpg	100
909.155	0.559	558.7	2back	Block2	2back/STIM_022.jpg	99
911.744	0.563	563.1	2back	Block2	2back/STIM_022.jpg	100
915.408	0.519	519.4	2back	Block2	2back/STIM_023.jpg	100
919.579	0.664	663.6	2back	Block2	2back/STIM_023.jpg	100
924.194	0.813	813.3	2back	Block2	2back/STIM_023.jpg	100
928.802	0.803	803.0	2back	Block2	2back/STIM_024.jpg	100
932.356	0.888	888.5	2back	Block2	2back/STIM_024.jpg	99
936.62	0.764	763.7	2back	Block2	2back/STIM_024.jpg	100
940.974	0.693	693.0	2back	Block2	2back/STIM_025.jpg	99
944.046	0.521	520.6	2back	Block2	2back/STIM_025.jpg	99
948.546	0.458	458.0	2back	Block2	2back/STIM_025.jpg	100
951.404	0.87	870.5	2back	Block2	2back/STIM_026.jpg	100
954.507	0.418	417.6	2back	Block2	2back/STIM_026.jpg	99
958.306	0.556	555.5	2back	Block2	2back/STIM_026.jpg	99
962.193	0.413	412.6	2back	Block2	2back/STIM_027.jpg	100
964.907	0.705	705.3	2back	Block2	2back/STIM_027.jpg	99
967.979	0.717	716.8	2back	Block2	2back/STIM_027.jpg	99
971.436	0.737	736.7	2back	Block2	2back/STIM_028.jpg	100
975.065	0.657	657.2	2back	Block2	2back/STIM_028.jpg	100
978.073	0.526	525.9	2back	Block2	2back/STIM_028.jpg	99
980.842	0.512	512.5	2back	Block2	2back/STIM_029.jpg	99
983.561	0.606	606.2	2back	Block2	2back/STIM_029.jpg	99
987.957	0.489	488.9	2back	Block2	2back/STIM_029.jpg	100
990.707	0.843	842.7	2back	Block2	2back/STIM_030.jpg	100
995.488	0.558	558.4	2back	Block2	2back/STIM_030.jpg	99
999.991	0.487	486.7	2back	Block2	2back/STIM_030.jpg	100
1002.911	0.893	893.4	2back	Block2	2back/STIM_031.jpg	100
1006.869	0.728	727.7	2back	Block2	2back/STIM_031.jpg	99
1010.528	0.433	432.6	2back	Block2	2back/STIM_031.jpg	99
1013.482	0.737	737.2	2back	Block2	2back/STIM_032.jpg	99
1016.533	0.535	535.2	2back	Block2	2back/STIM_032.jpg	99
1020.218	0.437	437.4	2back	Block2	2back/STIM_032.jpg	100
1023.368	0.458	458.0	2back	Block2	2back/STIM_033.jpg	99
1027.076	0.505	504.8	2back	Block2	2back/STIM_033.jpg	99
1030.527	0.478	477.9	2back	Block2	2back/STIM_033.jpg	100
1033.617	0.85	850.2	2back	Block2	2back/STIM_034.jpg	100
1037.884	0.708	708.4	2back	Block2	2back/STIM_034.jpg	99
1042.276	0.488	487.6	2back	Block2	2back/STIM_034.jpg	99
1045.316	0.649	648.9	2back	Block2	2back/STIM_035.jpg	100
1049.18	0.639	638.7	2back	Block2	2back/STIM_035.jpg	99
1053.451	0.738	737.6	2back	Block2	2back/STIM_035.jpg	100
1058.005	0.516	515.5	2back	Block2	2back/STIM_036.jpg	99
1061.805	0.693	693.3	2back	Block2	2back/STIM_036.jpg	100
1065.061	0.623	622.6	2back	Block2	2back/STIM_036.jpg	100
1068.248	0.74	739.5	2back	Block2	2back/STIM_037.jpg	100
1071.53	0.412	412.5	2back	Block2	2back/STIM_037.jpg	99
1074.671	0.655	655.0	2back	Block2	2back/STIM_037.jpg	99
1078.481	0.819	818.6	2back	Block2	2back/STIM_038.jpg	99
1082.788	0.754	754.0	2back	Block2	2back/STIM_038.jpg	100
1086.317	0.74	739.7	2back	Block2	2back/STIM_038.jpg	100
1090.14	0.561	561.2	2back	Block2	2back/STIM_039.jpg	100
1093.139	0.565	564.8	2back	Block2	2back/STIM_039.jpg	99
1097.565	0.534	533.9	2back	Block2	2back/STIM_039.jpg	100
1100.958	0.588	588.3	0back	Block2	0back/STIM_000.jpg	99
1103.615	0.32	320.3	0back	Block2	0back/STIM_000.jpg	99
1105.974	0.319	319.0	0back	Block2	0back/STIM_000.jpg	99
1109.04	0.535	535.0	0back	Block2	0back/STIM_001.jpg	99
1112.984	0.434	434.2	0back	Block2	0back/STIM_001.jpg	99
1116.954	0.485	485.4	0back	Block2	0back/STIM_001.jpg	99
1120.045	0.548	547.6	0back	Block2	0back/STIM_002.jpg	100
1123.696	0.418	418.3	0back	Block2	0back/STIM_002.jpg	99
1127.096	0.336	335.8	0back	Block2	0back/STIM_002.jpg	100
1130.307	0.395	394.9	0back	Block2	0back/STIM_003.jpg	99
1132.985	0.626	625.9	0back	Block2	0back/STIM_003.jpg	100
1137.594	0.545	544.7	0back	Block2	0back/STIM_003.jpg	99
1141.612	0.568	568.5	0back	Block2	0back/STIM_004.jpg	99
1145.691	0.319	319.1	0back	Block2	0back/STIM_004.jpg	99
1149.56	0.55	550.0	0back	Block2	0back/STIM_004.jpg	99
1153.972	0.33	330.2	0back	Block2	0back/STIM_005.jpg	99
1158.073	0.419	418.9	0back	Block2	0back/STIM_005.jpg	100
1161.53	0.388	387.6	0back	Block2	0back/STIM_005.jpg	99
1165.916	0.492	492.2	0back	Block2	0back/STIM_006.jpg	99
1168.999	0.393	393.3	0back	Block2	0back/STIM_006.jpg	99
1172.431	0.487	487.2	0back	Block2	0back/STIM_006.jpg	100
1175.71	0.47	469.5	0back	Block2	0back/STIM_007.jpg	99
1179.935	0.536	536.4	0back	Block2	0back/STIM_007.jpg	99
1182.721	0.385	384.6	0back	Block2	0back/STIM_007.jpg	100
1185.223	0.448	448.5	0back	Block2	0back/STIM_008.jpg	100
1189.206	0.539	538.9	0back	Block2	0back/STIM_008.jpg	99
1192.556	0.4	400.2	0back	Block2	0back/STIM_008.jpg	99
1195.725	0.472	472.4	0back	Block2	0back/STIM_009.jpg	100
1198.763	0.485	485.1	0back	Block2	0back/STIM_009.jpg	99
1202.581	0.337	336.6	0back	Block2	0back/STIM_009.jpg	99
1206.087	0.532	531.6	0back	Block2	0back/STIM_010.jpg	99
1210.489	0.334	333.8	0back	Block2	0back/STIM_010.jpg	100
1214.437	0.407	406.9	0back	Block2	0back/STIM_010.jpg	99
1218.72	0.63	630.2	0back	Block2	0back/STIM_011.jpg	99
1223.295	0.517	516.8	0back	Block2	0back/STIM_011.jpg	99
1226.29	0.468	467.9	0back	Block2	0back/STIM_011.jpg	100
1230.302	0.584	583.9	0back	Block2	0back/STIM_012.jpg	99
1234.43	0.565	565.0	0back	Block2	0back/STIM_012.jpg	99
1237.648	0.516	516.3	0back	Block2	0back/STIM_012.jpg	100
1241.212	0.36	360.0	0back	Block2	0back/STIM_013.jpg	100
1244.202	0.371	370.8	0back	Block2	0back/STIM_013.jpg	100
1246.696	0.435	435.1	0back	Block2	0back/STIM_013.jpg	99
1249.705	0.348	348.3	0back	Block2	0back/STIM_014.jpg	99
1253.806	0.615	614.8	0back	Block2	0back/STIM_014.jpg	99
1257.634	0.629	629.2	0back	Block2	0back/STIM_014.jpg	99
1260.689	0.322	321.7	0back	Block2	0back/STIM_015.jpg	99
1263.179	0.535	534.8	0back	Block2	0back/STIM_015.jpg	100
1266.402	0.498	497.5	0back	Block2	0back/STIM_015.jpg	99
1269.948	0.484	484.3	0back	Block2	0back/STIM_016.jpg	99
1273.872	0.523	523.3	0back	Block2	0back/STIM_016.jpg	99
1278.026	0.343	342.9	0back	Block2	0back/STIM_016.jpg	99
1281.985	0.519	518.6	0back	Block2	0back/STIM_017.jpg	99
1285.286	0.412	411.7	0back	Block2	0back/STIM_017.jpg	99
1288.862	0.445	445.4	0back	Block2	0back/STIM_017.jpg	99
1292.807	0.612	611.5	0back	Block2	0back/STIM_018.jpg	100
1295.74	0.622	622.0	0back	Block2	0back/STIM_018.jpg	99
1298.494	0.451	451.2	0back	Block2	0back/STIM_018.jpg	100
1302.826	0.486	485.6	0back	Block2	0back/STIM_019.jpg	99
1306.307	0.542	541.7	0back	Block2	0back/STIM_019.jpg	99
1310.293	0.486	485.5	0back	Block2	0back/STIM_019.jpg	99
1313.72	0.347	347.1	2back	Block3	2back/STIM_000.jpg	99
1316.746	0.642	642.5	2back	Block3	2back/STIM_000.jpg	99
1320.756	0.628	627.6	2back	Block3	2back/STIM_000.jpg	99
1325.104	0.484	483.5	2back	Block3	2back/STIM_001.jpg	100
1328.149	0.595	595.0	2back	Block3	2back/STIM_001.jpg	99
1331.492	0.697	697.3	2back	Block3	2back/STIM_001.jpg	100
1335.138	0.393	392.8	2back	Block3	2back/STIM_002.jpg	100
1338.021	0.541	540.7	2back	Block3	2back/STIM_002.jpg	99
1341.424	0.537	537.1	2back	Block3	2back/STIM_002.jpg	100
1344.983	0.411	411.3	2back	Block3	2back/STIM_003.jpg	99
1347.529	0.337	336.9	2back	Block3	2back/STIM_003.jpg	99
1351.491	0.548	547.8	2back	Block3	2back/STIM_003.jpg	100
1355.033	0.658	658.4	2back	Block3	2back/STIM_004.jpg	99
1358.112	0.417	416.9	2back	Block3	2back/STIM_004.jpg	99
1362.478	0.502	501.6	2back	Block3	2back/STIM_004.jpg	99
1366.883	0.514	513.7	2back	Block3	2back/STIM_005.jpg	99
1369.573	0.761	760.7	2back	Block3	2back/STIM_005.jpg	100
1373.629	0.692	692.3	2back	Block3	2back/STIM_005.jpg	99
1376.628	0.531	531.1	2back	Block3	2back/STIM_006.jpg	99
1380.366	0.628	627.6	2back	Block3	2back/STIM_006.jpg	100
1383.416	0.597	597.3	2back	Block3	2back/STIM_006.jpg	100
1387.563	0.34	340.3	2back	Block3	2back/STIM_007.jpg	99
1391.754	0.65	649.5	2back	Block3	2back/STIM_007.jpg	99
1394.574	0.751	751.0	2back	Block3	2back/STIM_007.jpg	100
1398.808	0.602	601.9	2back	Block3	2back/STIM_008.jpg	99
1402.407	0.411	411.3	2back	Block3	2back/STIM_008.jpg	100
1405.024	0.672	671.6	2back	Block3	2back/STIM_008.jpg	100
1408.931	0.65	650.4	2back	Block3	2back/STIM_009.jpg	100
1412.345	0.537	536.7	2back	Block3	2back/STIM_009.jpg	100
1414.985	0.664	664.3	2back	Block3	2back/STIM_009.jpg	99
1418.52	0.658	658.1	2back	Block3	2back/STIM_010.jpg	99
1422.72	0.501	501.4	2back	Block3	2back/STIM_010.jpg	100
1425.313	0.346	345.6	2back	Block3	2back/STIM_010.jpg	99
1428.663	0.724	723.8	2back	Block3	2back/STIM_011.jpg	99
1432.424	0.524	523.9	2back	Block3	2back/STIM_011.jpg	99
1435.716	0.486	486.3	2back	Block3	2back/STIM_011.jpg	100
1438.966	0.715	714.9	2back	Block3	2back/STIM_012.jpg	99
1441.982	0.571	571.0	2back	Block3	2back/STIM_012.jpg	100
1444.96	0.628	627.6	2back	Block3	2back/STIM_012.jpg	100
1448.323	0.362	362.4	2back	Block3	2back/STIM_013.jpg	99
1451.243	0.432	431.5	2back	Block3	2back/STIM_013.jpg	99
1453.783	0.746	745.9	2back	Block3	2back/STIM_013.jpg	99
1456.916	0.648	647.5	2back	Block3	2back/STIM_014.jpg	99
1460.971	0.438	437.7	2back	Block3	2back/STIM_014.jpg	99
1465.212	0.394	394.0	2back	Block3	2back/STIM_014.jpg	100
1469.114	0.49	489.9	2back	Block3	2back/STIM_015.jpg	99
1473.182	0.682	681.5	2back	Block3	2back/STIM_015.jpg	99
1477.784	0.478	477.5	2back	Block3	2back/STIM_015.jpg	99
1481.873	0.557	556.8	2back	Block3	2back/STIM_016.jpg	100
1485.122	0.394	394.2	2back	Block3	2back/STIM_016.jpg	100
1488.031	0.55	549.8	2back	Block3	2back/STIM_016.jpg	100
1491.119	0.707	707.0	2back	Block3	2back/STIM_017.jpg	100
1494.416	0.459	458.8	2back	Block3	2back/STIM_017.jpg	99
1498.101	0.552	551.6	2back	Block3	2back/STIM_017.jpg	100
1501.629	0.655	655.4	2back	Block3	2back/STIM_018.jpg	100
1505.696	0.368	367.5	2back	Block3	2back/STIM_018.jpg	100
1508.808	0.349	348.9	2back	Block3	2back/STIM_018.jpg	100
1512.028	0.352	351.9	2back	Block3	2back/STIM_019.jpg	100
1516.111	0.581	580.9	2back	Block3	2back/STIM_019.jpg	100
1518.869	0.632	631.9	2back	Block3	2back/STIM_019.jpg	100
1522.442	0.382	381.8	2back	Block3	2back/STIM_020.jpg	99
1524.889	0.764	764.0	2back	Block3	2back/STIM_020.jpg	99
1529.124	0.481	481.4	2back	Block3	2back/STIM_020.jpg	99
1532.365	0.42	419.9	2back	Block3	2back/STIM_021.jpg	100
1534.868	0.506	505.8	2back	Block3	2back/STIM_021.jpg	99
1537.566	0.517	517.3	2back	Block3	2back/STIM_021.jpg	100
1540.482	0.512	511.7	2back	Block3	2back/STIM_022.jpg	99
1544.081	0.473	473.0	2back	Block3	2back/STIM_022.jpg	100
1547.331	0.594	593.7	2back	Block3	2back/STIM_022.jpg	99
1550.421	0.633	633.2	2back	Block3	2back/STIM_023.jpg	100
1553.768	0.547	547.2	2back	Block3	2back/STIM_023.jpg	99
1556.817	0.466	465.9	2back	Block3	2back/STIM_023.jpg	100
1560.69	0.659	658.7	2back	Block3	2back/STIM_024.jpg	99
1563.962	0.711	710.9	2back	Block3	2back/STIM_024.jpg	100
1567.22	0.637	637.4	2back	Block3	2back/STIM_024.jpg	99
1571.606	0.762	761.8	2back	Block3	2back/STIM_025.jpg	99
1574.827	0.561	561.0	2back	Block3	2back/STIM_025.jpg	99
1577.712	0.776	775.7	2back	Block3	2back/STIM_025.jpg	99
1582.096	0.399	399.1	2back	Block3	2back/STIM_026.jpg	100
1585.2	0.53	530.1	2back	Block3	2back/STIM_026.jpg	100
1588.878	0.631	630.8	2back	Block3	2back/STIM_026.jpg	100
1593.491	0.473	472.7	2back	Block3	2back/STIM_027.jpg	100
1597.122	0.483	483.1	2back	Block3	2back/STIM_027.jpg	100
1601.021	0.449	449.4	2back	Block3	2back/STIM_027.jpg	99
1605.091	0.599	599.0	2back	Block3	2back/STIM_028.jpg	99
1609.638	0.716	716.3	2back	Block3	2back/STIM_028.jpg	99
1613.74	0.478	477.7	2back	Block3	2back/STIM_028.jpg	100
1616.245	0.35	350.4	2back	Block3	2back/STIM_029.jpg	100
1620.141	0.776	776.4	2back	Block3	2back/STIM_029.jpg	100
1623.205	0.768	768.1	2back	Block3	2back/STIM_029.jpg	100
1627.866	0.699	698.9	2back	Block3	2back/STIM_030.jpg	99
1631.092	0.419	418.9	2back	Block3	2back/STIM_030.jpg	100
1633.687	0.69	689.6	2back	Block3	2back/STIM_030.jpg	100
1636.947	0.543	542.7	2back	Block3	2back/STIM_031.jpg	99
1640.94	0.391	391.3	2back	Block3	2back/STIM_031.jpg	100
1643.632	0.587	587.1	2back	Block3	2back/STIM_031.jpg	99
1647.075	0.479	478.9	2back	Block3	2back/STIM_032.jpg	100
1651.517	0.341	340.9	2back	Block3	2back/STIM_032.jpg	99
1654.897	0.751	750.7	2back	Block3	2back/STIM_032.jpg	100
1658.078	0.479	479.3	2back	Block3	2back/STIM_033.jpg	100
1660.718	0.68	680.0	2back	Block3	2back/STIM_033.jpg	99
1664.47	0.616	615.7	2back	Block3	2back/STIM_033.jpg	100
1668.688	0.756	756.2	2back	Block3	2back/STIM_034.jpg	100
1672.282	0.558	558.2	2back	Block3	2back/STIM_034.jpg	99
1676.424	0.48	480.3	2back	Block3	2back/STIM_034.jpg	99
1680.222	0.457	457.3	2back	Block3	2back/STIM_035.jpg	100
1683.53	0.67	669.8	2back	Block3	2back/STIM_035.jpg	99
1686.981	0.534	533.8	2back	Block3	2back/STIM_035.jpg	99
1691.243	0.585	585.0	2back	Block3	2back/STIM_036.jpg	100
1694.809	0.507	507.4	2back	Block3	2back/STIM_036.jpg	99
1698.147	0.662	661.8	2back	Block3	2back/STIM_036.jpg	99
1702.439	0.56	559.5	2back	Block3	2back/STIM_037.jpg	100
1706.724	0.503	503.3	2back	Block3	2back/STIM_037.jpg	100
1709.275	0.745	745.2	2back	Block3	2back/STIM_037.jpg	100
1713.868	0.736	736.1	2back	Block3	2back/STIM_038.jpg	100
1718.065	0.571	571.4	2back	Block3	2back/STIM_038.jpg	99
1721.546	0.367	366.6	2back	Block3	2back/STIM_038.jpg	99
1724.58	0.711	710.9	2back	Block3	2back/STIM_039.jpg	99
1729.241	0.71	709.5	2back	Block3	2back/STIM_039.jpg	99
1733.421	0.382	381.5	2back	Block3	2back/STIM_039.jpg	100
1736.309	0.48	479.8	0back	Block3	0back/STIM_000.jpg	100
1739.474	0.404	404.1	0back	Block3	0back/STIM_000.jpg	100
1743.287	0.487	487.2	0back	Block3	0back/STIM_000.jpg	99
1746.632	0.487	487.3	0back	Block3	0back/STIM_001.jpg	100
1750.047	0.62	619.8	0back	Block3	0back/STIM_001.jpg	100
1753.185	0.357	356.9	0back	Block3	0back/STIM_001.jpg	100
1757.269	0.358	357.6	0back	Block3	0back/STIM_002.jpg	99
1759.821	0.582	581.7	0back	Block3	0back/STIM_002.jpg	100
1762.603	0.633	632.8	0back	Block3	0back/STIM_002.jpg	99
1767.034	0.4	400.0	0back	Block3	0back/STIM_003.jpg	99
1771.33	0.46	459.6	0back	Block3	0back/STIM_003.jpg	100
1774.169	0.422	421.5	0back	Block3	0back/STIM_003.jpg	99
1778.002	0.585	585.1	0back	Block3	0back/STIM_004.jpg	100
1781.667	0.396	395.6	0back	Block3	0back/STIM_004.jpg	99
1785.554	0.591	590.9	0back	Block3	0back/STIM_004.jpg	100
1789.918	0.377	376.6	0back	Block3	0back/STIM_005.jpg	99
1793.203	0.362	361.8	0back	Block3	0back/STIM_005.jpg	99
1797.119	0.417	417.4	0back	Block3	0back/STIM_005.jpg	100
1800.37	0.446	445.5	0back	Block3	0back/STIM_006.jpg	99
1803.557	0.365	365.1	0back	Block3	0back/STIM_006.jpg	99
1807.818	0.414	413.5	0back	Block3	0back/STIM_006.jpg	100
1811.408	0.413	412.6	0back	Block3	0back/STIM_007.jpg	100
1815.526	0.617	616.6	0back	Block3	0back/STIM_007.jpg	100
1819.281	0.614	613.7	0back	Block3	0back/STIM_007.jpg	99
1822.06	0.369	368.7	0back	Block3	0back/STIM_008.jpg	100
1825.408	0.593	593.0	0back	Block3	0back/STIM_008.jpg	99
1828.84	0.407	406.9	0back	Block3	0back/STIM_008.jpg	100
1831.846	0.543	543.4	0back	Block3	0back/STIM_009.jpg	99
1835.332	0.394	394.2	0back	Block3	0back/STIM_009.jpg	100
1839.34	0.482	482.2	0back	Block3	0back/STIM_009.jpg	100
1843.233	0.371	371.2	0back	Block3	0back/STIM_010.jpg	100
1846.228	0.384	384.5	0back	Block3	0back/STIM_010.jpg	99
1849.96	0.432	432.5	0back	Block3	0back/STIM_010.jpg	99
1852.65	0.618	617.8	0back	Block3	0back/STIM_011.jpg	99
1857.094	0.607	606.6	0back	Block3	0back/STIM_011.jpg	100
1861.454	0.514	513.6	0back	Block3	0back/STIM_011.jpg	100
1865.575	0.424	424.4	0back	Block3	0back/STIM_012.jpg	100
1869.967	0.508	507.8	0back	Block3	0back/STIM_012.jpg	100
1873.42	0.604	603.5	0back	Block3	0back/STIM_012.jpg	100
1877.532	0.532	531.7	0back	Block3	0back/STIM_013.jpg	100
1881.633	0.368	367.9	0back	Block3	0back/STIM_013.jpg	100
1884.196	0.545	545.1	0back	Block3	0back/STIM_013.jpg	99
1886.853	0.568	567.9	0back	Block3	0back/STIM_014.jpg	99
1890.62	0.452	451.8	0back	Block3	0back/STIM_014.jpg	99
1894.253	0.598	598.3	0back	Block3	0back/STIM_014.jpg	99
1897.463	0.617	617.1	0back	Block3	0back/STIM_015.jpg	99
1901.319	0.58	580.4	0back	Block3	0back/STIM_015.jpg	100
1905.088	0.53	529.8	0back	Block3	0back/STIM_015.jpg	100
1909.436	0.585	585.1	0back	Block3	0back/STIM_016.jpg	99
1912.865	0.492	492.3	0back	Block3	0back/STIM_016.jpg	99
1916.315	0.512	512.0	0back	Block3	0back/STIM_016.jpg	100
1920.77	0.578	578.3	0back	Block3	0back/STIM_017.jpg	99
1923.929	0.375	374.7	0back	Block3	0back/STIM_017.jpg	99
1927.574	0.553	553.3	0back	Block3	0back/STIM_017.jpg	99
1930.202	0.483	482.9	0back	Block3	0back/STIM_018.jpg	99
1934.66	0.597	597.0	0back	Block3	0back/STIM_018.jpg	100
1937.432	0.322	322.2	0back	Block3	0back/STIM_018.jpg	100
1940.711	0.456	456.5	0back	Block3	0back/STIM_019.jpg	100
1944.787	0.414	414.5	0back	Block3	0back/STIM_019.jpg	99
1948.15	0.438	438.0	0back	Block3	0back/STIM_019.jpg	100
1951.738	0.688	687.6	2back	Block4	2back/STIM_000.jpg	99
1955.428	0.769	768.8	2back	Block4	2back/STIM_000.jpg	99
1960.039	0.691	691.2	2back	Block4	2back/STIM_000.jpg	99
1964.162	0.478	478.5	2back	Block4	2back/STIM_001.jpg	100
1967.714	0.687	687.1	2back	Block4	2back/STIM_001.jpg	99
1971.124	0.575	574.9	2back	Block4	2back/STIM_001.jpg	100
1975.653	0.378	378.2	2back	Block4	2back/STIM_002.jpg	99
1978.386	0.582	582.2	2back	Block4	2back/STIM_002.jpg	100
1982.785	0.705	705.4	2back	Block4	2back/STIM_002.jpg	99
1987.038	0.384	383.9	2back	Block4	2back/STIM_003.jpg	100
1990.941	0.72	719.8	2back	Block4	2back/STIM_003.jpg	100
1994.811	0.397	397.0	2back	Block4	2back/STIM_003.jpg	99
1999.115	0.713	713.0	2back	Block4	2back/STIM_004.jpg	100
2003.779	0.775	774.8	2back	Block4	2back/STIM_004.jpg	100
2007.665	0.566	565.9	2back	Block4	2back/STIM_004.jpg	100
2011.707	0.56	559.6	2back	Block4	2back/STIM_005.jpg	100
2014.615	0.678	678.2	2back	Block4	2back/STIM_005.jpg	100
2017.83	0.556	556.5	2back	Block4	2back/STIM_005.jpg	99
2022.021	0.694	694.5	2back	Block4	2back/STIM_006.jpg	99
2025.43	0.585	585.3	2back	Block4	2back/STIM_006.jpg	99
2028.949	0.49	489.8	2back	Block4	2back/STIM_006.jpg	100
2032.523	0.739	738.8	2back	Block4	2back/STIM_007.jpg	100
2036.412	0.434	434.3	2back	Block4	2back/STIM_007.jpg	100
2039.485	0.644	644.5	2back	Block4	2back/STIM_007.jpg	99
2043.451	0.617	617.1	2back	Block4	2back/STIM_008.jpg	100
2046.475	0.446	446.1	2back	Block4	2back/STIM_008.jpg	99
2050.005	0.431	431.2	2back	Block4	2back/STIM_008.jpg	100
2053.586	0.427	427.3	2back	Block4	2back/STIM_009.jpg	100
2056.032	0.589	589.2	2back	Block4	2back/STIM_009.jpg	99
2060.225	0.357	357.3	2back	Block4	2back/STIM_009.jpg	100
2062.834	0.508	508.2	2back	Block4	2back/STIM_010.jpg	100
2066.543	0.734	733.5	2back	Block4	2back/STIM_010.jpg	99
2071.2	0.594	593.6	2back	Block4	2back/STIM_010.jpg	99
2075.109	0.458	458.3	2back	Block4	2back/STIM_011.jpg	99
2078.346	0.684	683.7	2back	Block4	2back/STIM_011.jpg	100
2082.576	0.497	496.8	2back	Block4	2back/STIM_011.jpg	100
2086.988	0.692	691.8	2back	Block4	2back/STIM_012.jpg	99
2089.912	0.568	567.6	2back	Block4	2back/STIM_012.jpg	99
2093.967	0.399	398.7	2back	Block4	2back/STIM_012.jpg	100
2097.094	0.37	369.9	2back	Block4	2back/STIM_013.jpg	99
2100.005	0.336	335.9	2back	Block4	2back/STIM_013.jpg	99
2102.528	0.616	616.0	2back	Block4	2back/STIM_013.jpg	99
2107.125	0.391	391.3	2back	Block4	2back/STIM_014.jpg	99
2110.003	0.768	768.5	2back	Block4	2back/STIM_014.jpg	100
2114.736	0.583	583.2	2back	Block4	2back/STIM_014.jpg	100
2119.026	0.417	416.7	2back	Block4	2back/STIM_015.jpg	99
2122.231	0.491	490.7	2back	Block4	2back/STIM_015.jpg	100
2125.826	0.373	373.2	2back	Block4	2back/STIM_015.jpg	100
2128.531	0.673	672.6	2back	Block4	2back/STIM_016.jpg	100
2131.403	0.709	709.4	2back	Block4	2back/STIM_016.jpg	99
2134.349	0.51	510.2	2back	Block4	2back/STIM_016.jpg	99
2138.081	0.522	522.2	2back	Block4	2back/STIM_017.jpg	99
2142.114	0.631	630.7	2back	Block4	2back/STIM_017.jpg	99
2145.577	0.551	551.2	2back	Block4	2back/STIM_017.jpg	99
2149.854	0.49	489.9	2back	Block4	2back/STIM_018.jpg	99
2153.686	0.759	759.2	2back	Block4	2back/STIM_018.jpg	100
2158.236	0.497	497.4	2back	Block4	2back/STIM_018.jpg	99
2161.623	0.621	621.4	2back	Block4	2back/STIM_019.jpg	100
2164.554	0.561	561.1	2back	Block4	2back/STIM_019.jpg	99
2168.528	0.638	637.5	2back	Block4	2back/STIM_019.jpg	99
2171.803	0.703	703.0	2back	Block4	2back/STIM_020.jpg	100
2174.818	0.749	749.1	2back	Block4	2back/STIM_020.jpg	99
2178.561	0.554	553.7	2back	Block4	2back/STIM_020.jpg	100
2182.605	0.659	658.8	2back	Block4	2back/STIM_021.jpg	99
2186.605	0.4	400.3	2back	Block4	2back/STIM_021.jpg	99
2189.735	0.705	705.2	2back	Block4	2back/STIM_021.jpg	100
2193.616	0.546	546.5	2back	Block4	2back/STIM_022.jpg	100
2198.049	0.37	369.7	2back	Block4	2back/STIM_022.jpg	99
2201.976	0.77	769.9	2back	Block4	2back/STIM_022.jpg	100
2204.769	0.644	643.7	2back	Block4	2back/STIM_023.jpg	99
2209.078	0.496	495.7	2back	Block4	2back/STIM_023.jpg	99
2213.526	0.681	681.3	2back	Block4	2back/STIM_023.jpg	100
2217.139	0.685	684.8	2back	Block4	2back/STIM_024.jpg	99
2221.198	0.446	445.7	2back	Block4	2back/STIM_024.jpg	99
2224.751	0.398	397.6	2back	Block4	2back/STIM_024.jpg	99
2228.567	0.69	689.6	2back	Block4	2back/STIM_025.jpg	99
2232.636	0.566	565.9	2back	Block4	2back/STIM_025.jpg	99
2235.719	0.725	725.1	2back	Block4	2back/STIM_025.jpg	99
2239.803	0.383	383.0	2back	Block4	2back/STIM_026.jpg	99
2242.51	0.667	666.7	2back	Block4	2back/STIM_026.jpg	99
2246.895	0.772	771.8	2back	Block4	2back/STIM_026.jpg	100
2251.171	0.724	723.9	2back	Block4	2back/STIM_027.jpg	100
2255.234	0.498	498.5	2back	Block4	2back/STIM_027.jpg	99
2258.758	0.525	525.3	2back	Block4	2back/STIM_027.jpg	100
2261.395	0.392	391.9	2back	Block4	2back/STIM_028.jpg	100
2265.068	0.624	623.6	2back	Block4	2back/STIM_028.jpg	100
2267.916	0.643	642.6	2back	Block4	2back/STIM_028.jpg	99
2272.045	0.707	707.0	2back	Block4	2back/STIM_029.jpg	100
2276.059	0.507	507.4	2back	Block4	2back/STIM_029.jpg	100
2280.519	0.338	338.3	2back	Block4	2back/STIM_029.jpg	99
2283.259	0.633	632.6	2back	Block4	2back/STIM_030.jpg	100
2285.95	0.424	423.8	2back	Block4	2back/STIM_030.jpg	100
2289.655	0.682	682.0	2back	Block4	2back/STIM_030.jpg	99
2293.276	0.472	472.0	2back	Block4	2back/STIM_031.jpg	100
2297.445	0.636	635.5	2back	Block4	2back/STIM_031.jpg	99
2300.448	0.399	399.1	2back	Block4	2back/STIM_031.jpg	100
2302.964	0.338	338.5	2back	Block4	2back/STIM_032.jpg	100
2306.056	0.46	459.8	2back	Block4	2back/STIM_032.jpg	99
2308.555	0.691	691.0	2back	Block4	2back/STIM_032.jpg	99
2311.829	0.723	722.8	2back	Block4	2back/STIM_033.jpg	99
2316.294	0.709	709.3	2back	Block4	2back/STIM_033.jpg	99
2319.824	0.378	377.6	2back	Block4	2back/STIM_033.jpg	100
2323.303	0.632	631.6	2back	Block4	2back/STIM_034.jpg	100
2327.105	0.592	591.7	2back	Block4	2back/STIM_034.jpg	100
2329.713	0.638	638.2	2back	Block4	2back/STIM_034.jpg	99
2333.876	0.389	389.3	2back	Block4	2back/STIM_035.jpg	100
2337.78	0.604	604.3	2back	Block4	2back/STIM_035.jpg	100
2341.797	0.508	508.2	2back	Block4	2back/STIM_035.jpg	100
2345.672	0.352	352.5	2back	Block4	2back/STIM_036.jpg	99
2349.3	0.671	671.3	2back	Block4	2back/STIM_036.jpg	100
2352.869	0.591	591.4	2back	Block4	2back/STIM_036.jpg	100
2355.575	0.547	546.8	2back	Block4	2back/STIM_037.jpg	100
2359.368	0.336	336.3	2back	Block4	2back/STIM_037.jpg	99
2363.535	0.636	635.6	2back	Block4	2back/STIM_037.jpg	99
2367.639	0.41	410.4	2back	Block4	2back/STIM_038.jpg	99
2371.074	0.53	530.4	2back	Block4	2back/STIM_038.jpg	99
2374.062	0.709	709.0	2back	Block4	2back/STIM_038.jpg	99
2377.814	0.57	570.1	2back	Block4	2back/STIM_039.jpg	99
2380.746	0.63	629.5	2back	Block4	2back/STIM_039.jpg	100
2384.076	0.755	754.8	2back	Block4	2back/STIM_039.jpg	100
2387.37	0.505	505.0	0back	Block4	0back/STIM_000.jpg	99
2390.978	0.326	325.8	0back	Block4	0back/STIM_000.jpg	100
2393.98	0.612	612.3	0back	Block4	0back/STIM_000.jpg	99
2396.623	0.504	504.5	0back	Block4	0back/STIM_001.jpg	100
2399.672	0.5	499.7	0back	Block4	0back/STIM_001.jpg	99
2404.141	0.41	409.8	0back	Block4	0back/STIM_001.jpg	99
2406.93	0.564	564.4	0back	Block4	0back/STIM_002.jpg	100
2409.807	0.581	580.9	0back	Block4	0back/STIM_002.jpg	100
2414.285	0.514	514.2	0back	Block4	0back/STIM_002.jpg	99
2417.946	0.554	553.5	0back	Block4	0back/STIM_003.jpg	99
2422.235	0.566	565.9	0back	Block4	0back/STIM_003.jpg	99
2426.598	0.628	628.1	0back	Block4	0back/STIM_003.jpg	99
2431.171	0.589	589.1	0back	Block4	0back/STIM_004.jpg	99
2435.055	0.537	536.9	0back	Block4	0back/STIM_004.jpg	100
2439.306	0.592	592.0	0back	Block4	0back/STIM_004.jpg	100
2443.516	0.528	528.3	0back	Block4	0back/STIM_005.jpg	100
2447.084	0.389	389.4	0back	Block4	0back/STIM_005.jpg	99
2449.707	0.348	347.9	0back	Block4	0back/STIM_005.jpg	100
2452.325	0.387	386.8	0back	Block4	0back/STIM_006.jpg	100
2456.615	0.444	443.6	0back	Block4	0back/STIM_006.jpg	100
2460.734	0.382	381.9	0back	Block4	0back/STIM_006.jpg	100
2464.611	0.55	550.5	0back	Block4	0back/STIM_007.jpg	100
2467.37	0.429	428.6	0back	Block4	0back/STIM_007.jpg	100
2471.117	0.509	509.4	0back	Block4	0back/STIM_007.jpg	100
2475.485	0.617	617.3	0back	Block4	0back/STIM_008.jpg	99
2478.196	0.587	587.1	0back	Block4	0back/STIM_008.jpg	99
2481.204	0.58	579.6	0back	Block4	0back/STIM_008.jpg	100
2485.777	0.574	573.7	0back	Block4	0back/STIM_009.jpg	100
2489.029	0.573	572.8	0back	Block4	0back/STIM_009.jpg	100
2492.852	0.514	514.1	0back	Block4	0back/STIM_009.jpg	100
2496.694	0.578	577.5	0back	Block4	0back/STIM_010.jpg	100
2500.164	0.616	616.5	0back	Block4	0back/STIM_010.jpg	100
2503.52	0.337	337.2	0back	Block4	0back/STIM_010.jpg	99
2507.758	0.373	373.1	0back	Block4	0back/STIM_011.jpg	100
2511.676	0.561	561.1	0back	Block4	0back/STIM_011.jpg	100
2515.45	0.39	389.5	0back	Block4	0back/STIM_011.jpg	99
2518.019	0.54	539.8	0back	Block4	0back/STIM_012.jpg	99
2521.508	0.351	351.3	0back	Block4	0back/STIM_012.jpg	99
2525.077	0.452	451.6	0back	Block4	0back/STIM_012.jpg	100
2528.693	0.413	413.4	0back	Block4	0back/STIM_013.jpg	99
2532.638	0.59	589.7	0back	Block4	0back/STIM_013.jpg	100
2535.522	0.42	420.3	0back	Block4	0back/STIM_013.jpg	100
2538.071	0.378	377.6	0back	Block4	0back/STIM_014.jpg	100
2542.301	0.611	610.9	0back	Block4	0back/STIM_014.jpg	100
2545.226	0.596	595.9	0back	Block4	0back/STIM_014.jpg	100
2547.85	0.32	320.2	0back	Block4	0back/STIM_015.jpg	99
2550.787	0.546	546.1	0back	Block4	0back/STIM_015.jpg	99
2554.954	0.419	418.7	0back	Block4	0back/STIM_015.jpg	100
2557.741	0.622	622.5	0back	Block4	0back/STIM_016.jpg	100
2562.151	0.569	568.9	0back	Block4	0back/STIM_016.jpg	99
2566.056	0.52	520.2	0back	Block4	0back/STIM_016.jpg	99
2569.306	0.611	610.6	0back	Block4	0back/STIM_017.jpg	99
2572.827	0.553	552.6	0back	Block4	0back/STIM_017.jpg	99
2575.409	0.559	558.6	0back	Block4	0back/STIM_017.jpg	99
2579.085	0.574	574.0	0back	Block4	0back/STIM_018.jpg	100
2582.157	0.463	462.7	0back	Block4	0back/STIM_018.jpg	99
2586.387	0.438	438.0	0back	Block4	0back/STIM_018.jpg	100
2589.629	0.395	395.2	0back	Block4	0back/STIM_019.jpg	99
2593.485	0.429	429.4	0back	Block4	0back/STIM_019.jpg	99
2597.034	0.435	435.0	0back	Block4	0back/STIM_019.jpg	99
