onset	duration	response_time_ms	trial_type	learning_stage	stimulus	response_port
0.0	1.427	1427.1	2back	Block1	2back/STIM_000.jpg	99
4.34	0.928	928.0	2back	Block1	2back/STIM_000.jpg	100
8.373	0.622	621.9	2back	Block1	2back/STIM_000.jpg	100
12.21	1.106	1105.6	2back	Block1	2back/STIM_001.jpg	99
16.277	0.67	670.0	2back	Block1	2back/STIM_001.jpg	99
19.3	1.23	1229.9	2back	Block1	2back/STIM_001.jpg	99
23.437	1.301	1301.1	2back	Block1	2back/STIM_002.jpg	99
27.825	1.344	1344.3	2back	Block1	2back/STIM_002.jpg	99
33.033	0.844	844.1	2back	Block1	2back/STIM_002.jpg	99
36.304	1.217	1217.4	2back	Block1	2back/STIM_003.jpg	100
39.816	0.653	652.6	2back	Block1	2back/STIM_003.jpg	100
43.668	0.711	711.1	2back	Block1	2back/STIM_003.jpg	99
47.024	1.298	1298.4	2back	Block1	2back/STIM_004.jpg	100
50.841	0.626	625.5	2back	Block1	2back/STIM_004.jpg	99
53.85	0.615	614.7	2back	Block1	2back/STIM_004.jpg	100
58.379	0.976	976.4	2back	Block1	2back/STIM_005.jpg	100
63.313	1.315	1315.0	2back	Block1	2back/STIM_005.jpg	100
67.001	0.682	682.3	2back	Block1	2back/STIM_005.jpg	99
70.34	1.11	1109.5	2back	Block1	2back/STIM_006.jpg	99
75.292	1.055	1055.3	2back	Block1	2back/STIM_006.jpg	99
80.067	1.293	1293.1	2back	Block1	2back/STIM_006.jpg	99
84.709	0.664	664.4	2back	Block1	2back/STIM_007.jpg	99
87.871	0.832	832.3	2back	Block1	2back/STIM_007.jpg	99
90.801	0.904	904.1	2back	Block1	2back/STIM_007.jpg	100
94.058	1.112	1112.5	2back	Block1	2back/STIM_008.jpg	100
98.619	0.875	875.4	2back	Block1	2back/STIM_008.jpg	99
101.867	1.143	1142.6	2back	Block1	2back/STIM_008.jpg	100
106.426	1.082	1082.5	2back	Block1	2back/STIM_009.jpg	100
109.86	0.604	604.3	2back	Block1	2back/STIM_009.jpg	99
113.631	0.79	790.2	2back	Block1	2back/STIM_009.jpg	100
117.6	0.864	863.7	2back	Block1	2back/STIM_010.jpg	99
121.0	0.895	894.8	2back	Block1	2back/STIM_010.jpg	99
124.73	1.147	1146.9	2back	Block1	2back/STIM_010.jpg	100
128.918	0.742	741.7	2back	Block1	2back/STIM_011.jpg	99
133.45	1.092	1091.8	2back	Block1	2back/STIM_011.jpg	99
137.755	1.197	1196.8	2back	Block1	2back/STIM_011.jpg	100
141.633	0.684	684.5	2back	Block1	2back/STIM_012.jpg	100
144.593	1.194	1193.5	2back	Block1	2back/STIM_012.jpg	99
148.946	0.702	702.4	2back	Block1	2back/STIM_012.jpg	100
151.993	1.191	1191.0	2back	Block1	2back/STIM_013.jpg	99
155.46	0.774	774.1	2back	Block1	2back/STIM_013.jpg	99
159.471	0.679	679.0	2back	Block1	2back/STIM_013.jpg	99
162.881	0.811	810.8	2back	Block1	2back/STIM_014.jpg	99
167.121	0.781	781.1	2back	Block1	2back/STIM_014.jpg	100
171.491	1.234	1234.5	2back	Block1	2back/STIM_014.jpg	99
174.973	1.25	1249.9	2back	Block1	2back/STIM_015.jpg	100
179.476	1.269	1268.9	2back	Block1	2back/STIM_015.jpg	100
184.344	0.946	945.9	2back	Block1	2back/STIM_015.jpg	99
188.846	0.616	616.4	2back	Block1	2back/STIM_016.jpg	99
193.115	0.826	826.1	2back	Block1	2back/STIM_016.jpg	99
196.72	0.97	970.3	2back	Block1	2back/STIM_016.jpg	100
199.772	1.379	1379.4	2back	Block1	2back/STIM_017.jpg	99
204.83	1.273	1273.4	2back	Block1	2back/STIM_017.jpg	99
209.266	0.902	902.2	2back	Block1	2back/STIM_017.jpg	99
213.535	1.124	1124.2	2back	Block1	2back/STIM_018.jpg	100
216.876	1.293	1293.0	2back	Block1	2back/STIM_018.jpg	100
221.289	1.182	1182.2	2back	Block1	2back/STIM_018.jpg	100
225.182	1.347	1347.1	2back	Block1	2back/STIM_019.jpg	100
230.285	0.727	726.6	2back	Block1	2back/STIM_019.jpg	100
234.685	1.185	1184.9	2back	Block1	2back/STIM_019.jpg	99
239.096	1.156	1156.0	2back	Block1	2back/STIM_020.jpg	100
243.501	1.357	1356.9	2back	Block1	2back/STIM_020.jpg	99
248.601	1.028	1028.0	2back	Block1	2back/STIM_020.jpg	99
251.666	1.412	1412.0	2back	Block1	2back/STIM_021.jpg	99
255.765	0.621	620.8	2back	Block1	2back/STIM_021.jpg	99
258.757	0.78	779.5	2back	Block1	2back/STIM_021.jpg	99
261.721	0.631	630.6	2back	Block1	2back/STIM_022.jpg	99
265.86	0.92	920.5	2back	Block1	2back/STIM_022.jpg	100
269.757	0.738	737.6	2back	Block1	2back/STIM_022.jpg	99
272.973	1.18	1179.7	2back	Block1	2back/STIM_023.jpg	100
277.393	0.615	615.2	2back	Block1	2back/STIM_023.jpg	99
280.724	0.9	900.4	2back	Block1	2back/STIM_023.jpg	100
284.898	0.681	681.4	2back	Block1	2back/STIM_024.jpg	99
288.389	1.158	1158.1	2back	Block1	2back/STIM_024.jpg	100
293.344	1.161	1161.1	2back	Block1	2back/STIM_024.jpg	100
296.488	0.916	915.6	2back	Block1	2back/STIM_025.jpg	99
301.329	1.029	1029.3	2back	Block1	2back/STIM_025.jpg	99
305.098	1.26	1260.0	2back	Block1	2back/STIM_025.jpg	99
310.023	1.281	1281.2	2back	Block1	2back/STIM_026.jpg	99
314.953	0.702	701.9	2back	Block1	2back/STIM_026.jpg	100
318.287	0.58	579.6	2back	Block1	2back/STIM_026.jpg	99
321.271	0.982	982.0	2back	Block1	2back/STIM_027.jpg	99
326.01	0.801	801.4	2back	Block1	2back/STIM_027.jpg	99
330.7	1.099	1099.3	2back	Block1	2back/STIM_027.jpg	99
334.505	0.983	982.9	2back	Block1	2back/STIM_028.jpg	99
338.065	1.288	1287.9	2back	Block1	2back/STIM_028.jpg	100
342.232	0.804	804.0	2back	Block1	2back/STIM_028.jpg	99
346.211	0.791	790.7	2back	Block1	2back/STIM_029.jpg	99
349.206	0.9	900.2	2back	Block1	2back/STIM_029.jpg	99
352.615	1.038	1037.9	2back	Block1	2back/STIM_029.jpg	100
357.579	1.028	1027.7	2back	Block1	2back/STIM_030.jpg	100
361.404	0.776	775.8	2back	Block1	2back/STIM_030.jpg	99
365.868	0.61	610.3	2back	Block1	2back/STIM_030.jpg	99
369.173	1.069	1068.7	2back	Block1	2back/STIM_031.jpg	100
372.657	1.195	1194.6	2back	Block1	2back/STIM_031.jpg	99
376.61	0.784	783.7	2back	Block1	2back/STIM_031.jpg	99
380.482	0.761	760.8	2back	Block1	2back/STIM_032.jpg	100
384.939	1.258	1257.6	2back	Block1	2back/STIM_032.jpg	100
389.315	0.653	653.2	2back	Block1	2back/STIM_032.jpg	100
392.057	1.359	1358.6	2back	Block1	2back/STIM_033.jpg	100
396.665	1.143	1142.6	2back	Block1	2back/STIM_033.jpg	99
401.582	0.706	706.1	2back	Block1	2back/STIM_033.jpg	100
404.449	1.393	1393.4	2back	Block1	2back/STIM_034.jpg	99
409.643	1.099	1099.0	2back	Block1	2back/STIM_034.jpg	100
414.369	0.616	615.6	2back	Block1	2back/STIM_034.jpg	100
418.669	0.786	786.4	2back	Block1	2back/STIM_035.jpg	99
422.577	1.301	1301.3	2back	Block1	2back/STIM_035.jpg	100
426.121	0.642	642.1	2back	Block1	2back/STIM_035.jpg	99
430.088	0.902	902.4	2back	Block1	2back/STIM_036.jpg	100
433.396	0.866	866.4	2back	Block1	2back/STIM_036.jpg	99
436.921	1.082	1082.0	2back	Block1	2back/STIM_036.jpg	99
441.067	1.228	1227.9	2back	Block1	2back/STIM_037.jpg	100
446.244	1.133	1132.7	2back	Block1	2back/STIM_037.jpg	99
449.44	0.66	659.7	2back	Block1	2back/STIM_037.jpg	100
452.194	0.946	945.9	2back	Block1	2back/STIM_038.jpg	100
456.608	0.819	818.8	2back	Block1	2back/STIM_038.jpg	99
461.295	1.054	1054.4	2back	Block1	2back/STIM_038.jpg	99
466.146	1.018	1018.4	2back	Block1	2back/STIM_039.jpg	99
470.462	0.688	688.3	2back	Block1	2back/STIM_039.jpg	99
474.798	1.196	1195.6	2back	Block1	2back/STIM_039.jpg	99
478.062	0.741	741.3	0back	Block1	0back/STIM_000.jpg	100
482.637	0.669	669.0	0back	Block1	0back/STIM_000.jpg	100
485.384	0.45	449.8	0back	Block1	0back/STIM_000.jpg	100
488.228	0.437	437.3	0back	Block1	0back/STIM_001.jpg	99
491.079	0.638	638.1	0back	Block1	0back/STIM_001.jpg	99
494.106	0.794	793.8	0back	Block1	0back/STIM_001.jpg	99
497.783	0.572	572.3	0back	Block1	0back/STIM_002.jpg	99
502.185	0.563	563.4	0back	Block1	0back/STIM_002.jpg	100
504.834	0.436	435.7	0back	Block1	0back/STIM_002.jpg	99
508.365	0.425	424.6	0back	Block1	0back/STIM_003.jpg	99
510.856	0.655	654.9	0back	Block1	0back/STIM_003.jpg	99
514.7	0.552	552.5	0back	Block1	0back/STIM_003.jpg	100
518.178	0.49	489.8	0back	Block1	0back/STIM_004.jpg	100
522.361	0.604	604.1	0back	Block1	0back/STIM_004.jpg	100
525.469	0.629	629.1	0back	Block1	0back/STIM_004.jpg	100
528.664	0.506	506.2	0back	Block1	0back/STIM_005.jpg	100
532.536	0.417	417.0	0back	Block1	0back/STIM_005.jpg	99
535.957	0.8	799.7	0back	Block1	0back/STIM_005.jpg	99
538.946	0.572	572.4	0back	Block1	0back/STIM_006.jpg	99
543.167	0.652	651.7	0back	Block1	0back/STIM_006.jpg	100
547.481	0.584	584.4	0back	Block1	0back/STIM_006.jpg	100
550.703	0.464	463.6	0back	Block1	0back/STIM_007.jpg	99
554.231	0.578	577.7	0back	Block1	0back/STIM_007.jpg	99
557.518	0.486	485.5	0back	Block1	0back/STIM_007.jpg	100
560.661	0.769	768.9	0back	Block1	0back/STIM_008.jpg	100
564.802	0.637	637.2	0back	Block1	0back/STIM_008.jpg	99
567.583	0.638	638.4	0back	Block1	0back/STIM_008.jpg	99
571.934	0.618	617.8	0back	Block1	0back/STIM_009.jpg	99
574.616	0.744	743.5	0back	Block1	0back/STIM_009.jpg	100
578.778	0.668	667.9	0back	Block1	0back/STIM_009.jpg	99
582.108	0.513	512.7	0back	Block1	0back/STIM_010.jpg	100
585.98	0.614	614.5	0back	Block1	0back/STIM_010.jpg	99
589.022	0.495	494.6	0back	Block1	0back/STIM_010.jpg	100
592.207	0.432	432.5	0back	Block1	0back/STIM_011.jpg	100
594.893	0.704	703.5	0back	Block1	0back/STIM_011.jpg	99
599.138	0.622	622.1	0back	Block1	0back/STIM_011.jpg	99
603.221	0.45	449.6	0back	Block1	0back/STIM_012.jpg	100
606.653	0.57	569.7	0back	Block1	0back/STIM_012.jpg	100
610.46	0.739	739.1	0back	Block1	0back/STIM_012.jpg	99
615.086	0.546	545.7	0back	Block1	0back/STIM_013.jpg	99
618.085	0.73	730.2	0back	Block1	0back/STIM_013.jpg	100
621.333	0.801	800.9	0back	Block1	0back/STIM_013.jpg	99
626.1	0.443	443.0	0back	Block1	0back/STIM_014.jpg	100
630.036	0.643	642.7	0back	Block1	0back/STIM_014.jpg	100
633.929	0.603	603.4	0back	Block1	0back/STIM_014.jpg	99
637.169	0.568	568.1	0back	Block1	0back/STIM_015.jpg	99
639.819	0.592	591.7	0back	Block1	0back/STIM_015.jpg	100
643.313	0.512	512.0	0back	Block1	0back/STIM_015.jpg	99
647.415	0.681	680.6	0back	Block1	0back/STIM_016.jpg	100
650.685	0.727	727.1	0back	Block1	0back/STIM_016.jpg	99
654.548	0.609	609.2	0back	Block1	0back/STIM_016.jpg	100
658.029	0.736	736.2	0back	Block1	0back/STIM_017.jpg	99
662.175	0.426	426.5	0back	Block1	0back/STIM_017.jpg	99
665.396	0.812	812.1	0back	Block1	0back/STIM_017.jpg	100
668.682	0.712	711.5	0back	Block1	0back/STIM_018.jpg	99
672.618	0.71	710.1	0back	Block1	0back/STIM_018.jpg	99
675.834	0.585	584.9	0back	Block1	0back/STIM_018.jpg	99
680.279	0.487	486.9	0back	Block1	0back/STIM_019.jpg	99
683.418	0.53	529.7	0back	Block1	0back/STIM_019.jpg	99
686.91	0.428	427.6	0back	Block1	0back/STIM_019.jpg	100
691.037	0.574	574.3	2back	Block2	2back/STIM_000.jpg	99
694.143	0.805	805.0	2back	Block2	2back/STIM_000.jpg	99
698.643	0.517	517.2	2back	Block2	2back/STIM_000.jpg	100
701.504	0.866	866.2	2back	Block2	2back/STIM_001.jpg	99
706.227	0.891	891.2	2back	Block2	2back/STIM_001.jpg	99
709.321	0.991	990.6	2back	Block2	2back/STIM_001.jpg	99
713.808	0.616	615.6	2back	Block2	2back/STIM_002.jpg	99
717.294	0.56	560.1	2back	Block2	2back/STIM_002.jpg	100
721.108	1.025	1025.0	2back	Block2	2back/STIM_002.jpg	100
725.897	0.573	573.1	2back	Block2	2back/STIM_003.jpg	100
729.76	1.028	1028.5	2back	Block2	2back/STIM_003.jpg	99
732.918	0.735	735.0	2back	Block2	2back/STIM_003.jpg	100
735.899	1.134	1134.1	2back	Block2	2back/STIM_004.jpg	99
739.097	0.684	684.1	2back	Block2	2back/STIM_004.jpg	100
742.205	0.93	929.8	2back	Block2	2back/STIM_004.jpg	99
745.918	1.168	1167.7	2back	Block2	2back/STIM_005.jpg	99
750.148	0.864	863.9	2back	Block2	2back/STIM_005.jpg	99
753.014	1.028	1028.4	2back	Block2	2back/STIM_005.jpg	100
757.705	0.906	906.3	2back	Block2	2back/STIM_006.jpg	99
760.912	0.626	626.0	2back	Block2	2back/STIM_006.jpg	99
765.127	1.029	1029.2	2back	Block2	2back/STIM_006.jpg	100
769.868	1.109	1108.8	2back	Block2	2back/STIM_007.jpg	99
773.685	0.907	906.8	2back	Block2	2back/STIM_007.jpg	99
778.566	0.765	764.7	2back	Block2	2back/STIM_007.jpg	99
782.313	0.756	756.1	2back	Block2	2back/STIM_008.jpg	100
786.696	1.033	1033.1	2back	Block2	2back/STIM_008.jpg	100
790.015	0.554	554.5	2back	Block2	2back/STIM_008.jpg	100
792.633	1.203	1202.7	2back	Block2	2back/STIM_009.jpg	99
797.0	0.961	960.7	2back	Block2	2back/STIM_009.jpg	99
801.121	0.58	579.7	2back	Block2	2back/STIM_009.jpg	99
804.904	0.922	922.0	2back	Block2	2back/STIM_010.jpg	99
809.246	1.08	1080.3	2back	Block2	2back/STIM_010.jpg	100
813.676	1.015	1014.9	2back	Block2	2back/STIM_010.jpg	99
817.229	0.789	788.6	2back	Block2	2back/STIM_011.jpg	100
820.563	0.782	781.7	2back	Block2	2back/STIM_011.jpg	99
824.139	0.639	639.1	2back	Block2	2back/STIM_011.jpg	100
826.956	1.035	1034.7	2back	Block2	2back/STIM_012.jpg	100
830.914	0.523	523.3	2back	Block2	2back/STIM_012.jpg	100
835.109	0.802	802.3	2back	Block2	2back/STIM_012.jpg	99
839.102	1.002	1001.6	2back	Block2	2back/STIM_013.jpg	100
843.319	1.058	1057.5	2back	Block2	2back/STIM_013.jpg	100
847.966	1.002	1001.7	2back	Block2	2back/STIM_013.jpg	99
851.603	1.09	1090.3	2back	Block2	2back/STIM_014.jpg	100
855.473	0.584	584.1	2back	Block2	2back/STIM_014.jpg	100
859.05	0.629	628.6	2back	Block2	2back/STIM_014.jpg	99
862.157	1.204	1204.5	2back	Block2	2back/STIM_015.jpg	100
867.187	1.086	1085.9	2back	Block2	2back/STIM_015.jpg	100
871.385	0.686	685.9	2back	Block2	2back/STIM_015.jpg	100
875.472	1.129	1128.8	2back	Block2	2back/STIM_016.jpg	99
879.034	0.929	928.7	2back	Block2	2back/STIM_016.jpg	100
882.739	0.507	507.1	2back	Block2	2back/STIM_016.jpg	99
885.748	0.929	928.6	2back	Block2	2back/STIM_017.jpg	99
889.561	0.787	787.0	2back	Block2	2back/STIM_017.jpg	99
892.825	0.872	872.2	2back	Block2	2back/STIM_017.jpg	100
897.519	0.61	610.2	2back	Block2	2back/STIM_018.jpg	100
901.817	0.532	531.5	2back	Block2	2back/STIM_018.jpg	100
905.795	0.574	573.6	2back	Block2	2back/STIM_018.jpg	99
909.056	1.187	1186.6	2back	Block2	2back/STIM_019.jpg	99
913.693	0.6	599.8	2back	Block2	2back/STIM_019.jpg	99
916.494	0.891	891.4	2back	Block2	2back/STIM_019.jpg	100
919.868	1.017	1016.6	2back	Block2	2back/STIM_020.jpg	99
924.549	0.705	705.4	2back	Block2	2back/STIM_020.jpg	100
928.525	0.47	470.0	2back	Block2	2back/STIM_020.jpg	99
932.193	0.775	775.0	2back	Block2	2back/STIM_021.jpg	99
935.086	0.777	777.3	2back	Block2	2back/STIM_021.jpg	100
937.868	0.973	972.7	2back	Block2	2back/STIM_021.jpg	100
941.205	0.57	570.5	2back	Block2	2back/STIM_022.jpg	100
945.037	0.62	619.5	2back	Block2	2back/STIM_022.jpg	99
947.745	0.513	512.6	2back	Block2	2back/STIM_022.jpg	100
950.601	0.938	937.5	2back	Block2	2back/STIM_023.jpg	100
953.923	0.674	673.9	2back	Block2	2back/STIM_023.jpg	100
958.213	0.93	929.8	2back	Block2	2back/STIM_023.jpg	100
962.855	1.209	1209.1	2back	Block2	2back/STIM_024.jpg	100
968.006	0.769	768.8	2back	Block2	2back/STIM_024.jpg	99
971.776	0.474	473.8	2back	Block2	2back/STIM_024.jpg	100
975.502	0.742	741.9	2back	Block2	2back/STIM_025.jpg	99
978.263	0.896	895.9	2back	Block2	2back/STIM_025.jpg	99
983.088	1.054	1053.5	2back	Block2	2back/STIM_025.jpg	100
986.626	0.922	921.9	2back	Block2	2back/STIM_026.jpg	100
989.675	0.628	627.9	2back	Block2	2back/STIM_026.jpg	99
993.865	0.887	887.3	2back	Block2	2back/STIM_026.jpg	99
998.035	0.632	632.2	2back	Block2	2back/STIM_027.jpg	100
1002.438	0.736	735.7	2back	Block2	2back/STIM_027.jpg	99
1006.884	0.725	724.6	2back	Block2	2back/STIM_027.jpg	99
1011.287	0.851	851.1	2back	Block2	2back/STIM_028.jpg	100
1014.896	1.148	1147.8	2back	Block2	2back/STIM_028.jpg	100
1019.33	0.516	516.0	2back	Block2	2back/STIM_028.jpg	99
1022.724	0.913	912.7	2back	Block2	2back/STIM_029.jpg	99
1027.136	0.669	668.9	2back	Block2	2back/STIM_029.jpg	99
1030.983	0.973	972.6	2back	Block2	2back/STIM_029.jpg	100
1034.907	1.062	1061.7	2back	Block2	2back/STIM_030.jpg	100
1039.24	0.802	801.8	2back	Block2	2back/STIM_030.jpg	99
1042.41	0.754	754.1	2back	Block2	2back/STIM_030.jpg	100
1047.1	1.045	1045.0	2back	Block2	2back/STIM_031.jpg	100
1050.173	0.875	874.6	2back	Block2	2back/STIM_031.jpg	99
1054.495	0.753	752.6	2back	Block2	2back/STIM_031.jpg	99
1057.941	0.787	787.2	2back	Block2	2back/STIM_032.jpg	99
1061.3	0.769	769.3	2back	Block2	2back/STIM_032.jpg	99
1065.227	0.8	799.9	2back	Block2	2back/STIM_032.jpg	100
1068.732	1.039	1039.0	2back	Block2	2back/STIM_033.jpg	99
1071.773	0.934	933.6	2back	Block2	2back/STIM_033.jpg	99
1076.446	0.864	864.3	2back	Block2	2back/STIM_033.jpg	100
1080.505	0.892	891.6	2back	Block2	2back/STIM_034.jpg	100
1083.792	0.889	889.4	2back	Block2	2back/STIM_034.jpg	99
1087.061	1.031	1031.1	2back	Block2	2back/STIM_034.jpg	99
1090.77	0.81	810.4	2back	Block2	2back/STIM_035.jpg	100
1095.204	1.01	1009.9	2back	Block2	2back/STIM_035.jpg	99
1098.763	0.508	508.5	2back	Block2	2back/STIM_035.jpg	100
1102.093	0.902	901.9	2back	Block2	2back/STIM_036.jpg	99
1105.127	1.028	1028.5	2back	Block2	2back/STIM_036.jpg	100
1109.076	0.874	874.0	2back	Block2	2back/STIM_036.jpg	100
1111.991	1.148	1147.9	2back	Block2	2back/STIM_037.jpg	100
1117.074	1.113	1113.3	2back	Block2	2back/STIM_037.jpg	99
1120.539	0.61	610.1	2back	Block2	2back/STIM_037.jpg	99
1124.579	0.918	918.3	2back	Block2	2back/STIM_038.jpg	99
1128.729	0.958	958.5	2back	Block2	2back/STIM_038.jpg	100
1133.391	0.507	506.9	2back	Block2	2back/STIM_038.jpg	100
1136.325	1.1	1100.5	2back	Block2	2back/STIM_039.jpg	100
1140.436	0.555	554.7	2back	Block2	2back/STIM_039.jpg	99
1143.374	0.632	631.8	2back	Block2	2back/STIM_039.jpg	100
1146.534	0.599	599.0	0back	Block2	0back/STIM_000.jpg	99
1149.499	0.58	579.6	0back	Block2	0back/STIM_000.jpg	99
1153.315	0.782	782.3	0back	Block2	0back/STIM_000.jpg	99
1157.817	0.613	612.7	0back	Block2	0back/STIM_001.jpg	99
1161.39	0.452	451.5	0back	Block2	0back/STIM_001.jpg	99
1165.266	0.665	664.6	0back	Block2	0back/STIM_001.jpg	99
1168.502	0.597	596.7	0back	Block2	0back/STIM_002.jpg	100
1171.794	0.571	570.8	0back	Block2	0back/STIM_002.jpg	99
1175.97	0.45	449.5	0back	Block2	0back/STIM_002.jpg	100
1179.484	0.768	767.7	0back	Block2	0back/STIM_003.jpg	99
1183.64	0.56	559.5	0back	Block2	0back/STIM_003.jpg	100
1186.575	0.449	448.8	0back	Block2	0back/STIM_003.jpg	99
1190.264	0.444	444.5	0back	Block2	0back/STIM_004.jpg	99
1194.604	0.821	820.7	0back	Block2	0back/STIM_004.jpg	99
1198.045	0.782	781.5	0back	Block2	0back/STIM_004.jpg	99
1201.738	0.578	578.5	0back	Block2	0back/STIM_005.jpg	99
1205.489	0.559	559.4	0back	Block2	0back/STIM_005.jpg	100
1210.033	0.605	605.3	0back	Block2	0back/STIM_005.jpg	99
1214.004	0.689	689.4	0back	Block2	0back/STIM_006.jpg	99
1217.466	0.605	604.6	0back	Block2	0back/STIM_006.jpg	99
1221.128	0.414	414.2	0back	Block2	0back/STIM_006.jpg	100
1225.432	0.728	728.1	0back	Block2	0back/STIM_007.jpg	99
1228.951	0.507	507.5	0back	Block2	0back/STIM_007.jpg	99
1231.925	0.487	486.7	0back	Block2	0back/STIM_007.jpg	100
1234.556	0.604	604.3	0back	Block2	0back/STIM_008.jpg	100
1238.004	0.593	592.8	0back	Block2	0back/STIM_008.jpg	99
1241.432	0.449	449.0	0back	Block2	0back/STIM_008.jpg	99
1243.941	0.64	640.2	0back	Block2	0back/STIM_009.jpg	100
1246.601	0.416	415.6	0back	Block2	0back/STIM_009.jpg	99
1250.131	0.438	437.5	0back	Block2	0back/STIM_009.jpg	99
1254.387	0.56	560.4	0back	Block2	0back/STIM_010.jpg	99
1257.527	0.461	460.6	0back	Block2	0back/STIM_010.jpg	100
1260.824	0.815	815.1	0back	Block2	0back/STIM_010.jpg	99
1265.471	0.624	624.2	0back	Block2	0back/STIM_011.jpg	99
1269.332	0.737	736.6	0back	Block2	0back/STIM_011.jpg	99
1273.45	0.818	817.6	0back	Block2	0back/STIM_011.jpg	100
1277.956	0.542	542.2	0back	Block2	0back/STIM_012.jpg	99
1280.86	0.654	653.5	0back	Block2	0back/STIM_012.jpg	99
1284.622	0.769	769.3	0back	Block2	0back/STIM_012.jpg	100
1287.473	0.818	817.6	0back	Block2	0back/STIM_013.jpg	100
1291.86	0.732	731.7	0back	Block2	0back/STIM_013.jpg	100
1296.184	0.461	461.0	0back	Block2	0back/STIM_013.jpg	99
1299.31	0.538	537.6	0back	Block2	0back/STIM_014.jpg	99
1302.376	0.81	809.5	0back	Block2	0back/STIM_014.jpg	99
1305.171	0.5	500.0	0back	Block2	0back/STIM_014.jpg	99
1308.212	0.62	619.7	0back	Block2	0back/STIM_015.jpg	99
1312.074	0.6	600.4	0back	Block2	0back/STIM_015.jpg	100
1316.278	0.42	420.5	0back	Block2	0back/STIM_015.jpg	99
1319.964	0.662	662.1	0back	Block2	0back/STIM_016.jpg	99
1324.016	0.799	798.9	0back	Block2	0back/STIM_016.jpg	99
1328.465	0.463	463.3	0back	Block2	0back/STIM_016.jpg	99
1332.037	0.577	576.6	0back	Block2	0back/STIM_017.jpg	99
1336.006	0.697	696.9	0back	Block2	0back/STIM_017.jpg	99
1340.072	0.511	511.4	0back	Block2	0back/STIM_017.jpg	99
1343.044	0.457	457.1	0back	Block2	0back/STIM_018.jpg	100
1345.597	0.558	558.4	0back	Block2	0back/STIM_018.jpg	99
1348.203	0.49	490.3	0back	Block2	0back/STIM_018.jpg	100
1351.659	0.454	453.6	0back	Block2	0back/STIM_019.jpg	99
1356.01	0.426	426.2	0back	Block2	0back/STIM_019.jpg	99
1359.154	0.66	660.0	0back	Block2	0back/STIM_019.jpg	99
1362.433	0.623	622.6	2back	Block3	2back/STIM_000.jpg	99
1366.208	0.909	909.4	2back	Block3	2back/STIM_000.jpg	99
1369.23	0.945	945.3	2back	Block3	2back/STIM_000.jpg	99
1372.491	0.972	971.8	2back	Block3	2back/STIM_001.jpg	100
1376.707	0.651	650.6	2back	Block3	2back/STIM_001.jpg	99
1379.843	0.809	809.0	2back	Block3	2back/STIM_001.jpg	100
1384.499	0.571	571.2	2back	Block3	2back/STIM_002.jpg	100
1387.232	0.816	815.7	2back	Block3	2back/STIM_002.jpg	99
1390.571	0.517	517.4	2back	Block3	2back/STIM_002.jpg	100
1394.58	0.753	753.2	2back	Block3	2back/STIM_003.jpg	99
1397.753	0.925	924.6	2back	Block3	2back/STIM_003.jpg	99
1401.969	0.752	751.9	2back	Block3	2back/STIM_003.jpg	100
1406.349	0.9	899.8	2back	Block3	2back/STIM_004.jpg	99
1410.911	0.619	619.2	2back	Block3	2back/STIM_004.jpg	99
1414.688	0.936	935.9	2back	Block3	2back/STIM_004.jpg	99
1417.707	0.697	697.0	2back	Block3	2back/STIM_005.jpg	99
1421.495	0.862	861.9	2back	Block3	2back/STIM_005.jpg	100
1424.502	0.955	955.1	2back	Block3	2back/STIM_005.jpg	99
1427.997	0.674	674.2	2back	Block3	2back/STIM_006.jpg	99
1432.516	0.77	769.9	2back	Block3	2back/STIM_006.jpg	100
1435.885	0.433	432.8	2back	Block3	2back/STIM_006.jpg	100
1440.079	0.644	643.8	2back	Block3	2back/STIM_007.jpg	99
1444.374	0.619	619.3	2back	Block3	2back/STIM_007.jpg	99
1447.357	0.612	612.2	2back	Block3	2back/STIM_007.jpg	100
1451.266	0.845	844.6	2back	Block3	2back/STIM_008.jpg	99
1455.381	0.814	813.6	2back	Block3	2back/STIM_008.jpg	100
1458.799	0.862	862.5	2back	Block3	2back/STIM_008.jpg	100
1462.673	0.564	563.9	2back	Block3	2back/STIM_009.jpg	100
1465.364	0.461	460.9	2back	Block3	2back/STIM_009.jpg	100
1469.732	0.733	732.7	2back	Block3	2back/STIM_009.jpg	99
1474.322	0.461	461.2	2back	Block3	2back/STIM_010.jpg	99
1477.283	0.64	639.9	2back	Block3	2back/STIM_010.jpg	100
1480.323	0.639	638.7	2back	Block3	2back/STIM_010.jpg	99
1483.646	0.518	517.6	2back	Block3	2back/STIM_011.jpg	99
1487.623	0.794	794.4	2back	Block3	2back/STIM_011.jpg	99
1491.702	0.917	917.1	2back	Block3	2back/STIM_011.jpg	100
1495.83	0.447	447.1	2back	Block3	2back/STIM_012.jpg	99
1498.818	0.641	641.1	2back	Block3	2back/STIM_012.jpg	100
1503.293	0.83	829.8	2back	Block3	2back/STIM_012.jpg	100
1506.309	0.528	528.1	2back	Block3	2back/STIM_013.jpg	99
1510.372	0.69	689.7	2back	Block3	2back/STIM_013.jpg	99
1514.871	0.597	596.9	2back	Block3	2back/STIM_013.jpg	99
1518.786	0.74	739.7	2back	Block3	2back/STIM_014.jpg	99
1522.79	0.88	879.7	2back	Block3	2back/STIM_014.jpg	99
1526.535	0.843	842.6	2back	Block3	2back/STIM_014.jpg	100
1529.812	0.996	995.9	2back	Block3	2back/STIM_015.jpg	99
1534.52	0.946	945.7	2back	Block3	2back/STIM_015.jpg	99
1537.956	0.657	656.6	2back	Block3	2back/STIM_015.jpg	99
1541.088	0.468	467.6	2back	Block3	2back/STIM_016.jpg	100
1543.845	0.457	457.2	2back	Block3	2back/STIM_016.jpg	100
1546.982	0.943	943.0	2back	Block3	2back/STIM_016.jpg	100
1550.655	0.881	881.1	2back	Block3	2back/STIM_017.jpg	100
1555.473	0.712	711.8	2back	Block3	2back/STIM_017.jpg	99
1559.277	0.533	532.6	2back	Block3	2back/STIM_017.jpg	100
1562.796	0.787	787.4	2back	Block3	2back/STIM_018.jpg	100
1566.065	0.605	605.2	2back	Block3	2back/STIM_018.jpg	100
1569.023	0.818	818.4	2back	Block3	2back/STIM_018.jpg	100
1573.801	0.592	592.1	2back	Block3	2back/STIM_019.jpg	100
1577.687	0.732	731.5	2back	Block3	2back/STIM_019.jpg	100
1582.187	0.82	820.4	2back	Block3	2back/STIM_019.jpg	100
1586.38	0.53	529.7	2back	Block3	2back/STIM_020.jpg	99
1589.071	0.963	962.9	2back	Block3	2back/STIM_020.jpg	99
1592.026	0.571	571.4	2back	Block3	2back/STIM_020.jpg	99
1594.916	0.446	446.0	2back	Block3	2back/STIM_021.jpg	100
1597.384	0.601	600.6	2back	Block3	2back/STIM_021.jpg	99
1601.839	0.972	971.7	2back	Block3	2back/STIM_021.jpg	100
1604.865	0.464	464.2	2back	Block3	2back/STIM_022.jpg	99
1609.203	0.773	773.2	2back	Block3	2back/STIM_022.jpg	100
1612.957	0.956	956.3	2back	Block3	2back/STIM_022.jpg	99
1617.725	0.624	624.0	2back	Block3	2back/STIM_023.jpg	100
1622.061	0.872	872.5	2back	Block3	2back/STIM_023.jpg	99
1625.786	0.822	822.1	2back	Block3	2back/STIM_023.jpg	100
1630.433	0.754	754.1	2back	Block3	2back/STIM_024.jpg	99
1634.846	0.703	702.6	2back	Block3	2back/STIM_024.jpg	100
1638.943	0.891	891.0	2back	Block3	2back/STIM_024.jpg	99
1642.302	0.717	717.4	2back	Block3	2back/STIM_025.jpg	99
1645.602	0.652	651.6	2back	Block3	2back/STIM_025.jpg	99
1650.008	0.688	687.5	2back	Block3	2back/STIM_025.jpg	99
1652.827	0.518	517.6	2back	Block3	2back/STIM_026.jpg	100
1656.953	0.853	853.2	2back	Block3	2back/STIM_026.jpg	100
1661.161	0.595	595.2	2back	Block3	2back/STIM_026.jpg	100
1664.973	0.664	663.9	2back	Block3	2back/STIM_027.jpg	100
1669.18	0.755	755.2	2back	Block3	2back/STIM_027.jpg	100
1672.123	0.918	917.7	2back	Block3	2back/STIM_027.jpg	99
1675.778	0.814	814.2	2back	Block3	2back/STIM_028.jpg	99
1679.189	0.668	667.8	2back	Block3	2back/STIM_028.jpg	99
1681.995	0.541	540.9	2back	Block3	2back/STIM_028.jpg	100
1686.029	0.947	946.9	2back	Block3	2back/STIM_029.jpg	100
1690.822	0.461	461.2	2back	Block3	2back/STIM_029.jpg	100
1693.284	0.925	924.8	2back	Block3	2back/STIM_029.jpg	100
1697.53	0.5	500.0	2back	Block3	2back/STIM_030.jpg	99
1701.43	0.748	748.0	2back	Block3	2back/STIM_030.jpg	100
1705.426	0.65	649.7	2back	Block3	2back/STIM_030.jpg	100
1709.016	0.954	953.7	2back	Block3	2back/STIM_031.jpg	99
1713.622	0.695	694.9	2back	Block3	2back/STIM_031.jpg	100
1717.175	0.984	983.8	2back	Block3	2back/STIM_031.jpg	99
1721.827	0.66	660.1	2back	Block3	2back/STIM_032.jpg	100
1725.746	0.524	524.3	2back	Block3	2back/STIM_032.jpg	99
1728.639	0.481	481.2	2back	Block3	2back/STIM_032.jpg	100
1732.095	0.892	891.5	2back	Block3	2back/STIM_033.jpg	100
1736.105	0.967	967.3	2back	Block3	2back/STIM_033.jpg	99
1740.87	0.874	873.9	2back	Block3	2back/STIM_033.jpg	100
1743.784	0.677	677.4	2back	Block3	2back/STIM_034.jpg	100
1748.101	0.584	583.5	2back	Block3	2back/STIM_034.jpg	99
1751.507	0.628	627.7	2back	Block3	2back/STIM_034.jpg	99
1755.105	0.63	630.5	2back	Block3	2back/STIM_035.jpg	100
1758.542	0.856	856.1	2back	Block3	2back/STIM_035.jpg	99
1762.91	0.881	881.3	2back	Block3	2back/STIM_035.jpg	99
1767.367	0.628	627.9	2back	Block3	2back/STIM_036.jpg	100
1771.222	0.637	637.3	2back	Block3	2back/STIM_036.jpg	99
1774.391	0.699	699.2	2back	Block3	2back/STIM_036.jpg	99
1778.494	0.89	890.0	2back	Block3	2back/STIM_037.jpg	100
1781.559	0.779	778.9	2back	Block3	2back/STIM_037.jpg	100
1785.551	0.819	819.3	2back	Block3	2back/STIM_037.jpg	100
1789.55	0.579	579.4	2back	Block3	2back/STIM_038.jpg	100
1793.919	0.927	927.1	2back	Block3	2back/STIM_038.jpg	99
1796.852	0.726	725.8	2back	Block3	2back/STIM_038.jpg	99
1799.804	1.0	999.7	2back	Block3	2back/STIM_039.jpg	99
1803.22	0.963	962.7	2back	Block3	2back/STIM_039.jpg	99
1807.632	0.989	988.8	2back	Block3	2back/STIM_039.jpg	100
1812.44	0.488	487.9	0back	Block3	0back/STIM_000.jpg	100
1816.621	0.785	784.8	0back	Block3	0back/STIM_000.jpg	100
1820.628	0.742	742.4	0back	Block3	0back/STIM_000.jpg	99
1824.836	0.716	715.9	0back	Block3	0back/STIM_001.jpg	100
1828.928	0.591	591.1	0back	Block3	0back/STIM_001.jpg	100
1832.726	0.778	777.5	0back	Block3	0back/STIM_001.jpg	100
1836.927	0.544	544.1	0back	Block3	0back/STIM_002.jpg	99
1840.707	0.522	521.9	0back	Block3	0back/STIM_002.jpg	100
1843.313	0.578	578.1	0back	Block3	0back/STIM_002.jpg	99
1845.938	0.532	532.4	0back	Block3	0back/STIM_003.jpg	99
1849.235	0.522	522.0	0back	Block3	0back/STIM_003.jpg	100
1852.399	0.62	619.8	0back	Block3	0back/STIM_003.jpg	99
1856.038	0.732	732.5	0back	Block3	0back/STIM_004.jpg	100
1858.875	0.746	746.5	0back	Block3	0back/STIM_004.jpg	99
1862.623	0.626	626.3	0back	Block3	0back/STIM_004.jpg	100
1866.51	0.731	730.6	0back	Block3	0back/STIM_005.jpg	99
1870.256	0.488	487.6	0back	Block3	0back/STIM_005.jpg	99
1873.652	0.577	576.8	0back	Block3	0back/STIM_005.jpg	100
1877.504	0.601	600.8	0back	Block3	0back/STIM_006.jpg	99
1881.796	0.448	447.9	0back	Block3	0back/STIM_006.jpg	99
1885.326	0.5	499.7	0back	Block3	0back/STIM_006.jpg	100
1889.706	0.418	418.3	0back	Block3	0back/STIM_007.jpg	100
1892.175	0.524	523.7	0back	Block3	0back/STIM_007.jpg	100
1895.449	0.66	660.5	0back	Block3	0back/STIM_007.jpg	99
1898.308	0.797	797.0	0back	Block3	0back/STIM_008.jpg	100
1902.208	0.674	674.1	0back	Block3	0back/STIM_008.jpg	99
1906.797	0.597	597.4	0back	Block3	0back/STIM_008.jpg	100
1911.003	0.719	718.7	0back	Block3	0back/STIM_009.jpg	99
1914.699	0.489	488.7	0back	Block3	0back/STIM_009.jpg	100
1918.411	0.466	465.5	0back	Block3	0back/STIM_009.jpg	100
1922.649	0.72	720.3	0back	Block3	0back/STIM_010.jpg	100
1925.975	0.45	450.0	0back	Block3	0back/STIM_010.jpg	99
1929.69	0.718	717.9	0back	Block3	0back/STIM_010.jpg	99
1932.568	0.758	757.8	0back	Block3	0back/STIM_011.jpg	99
1935.362	0.803	803.2	0back	Block3	0back/STIM_011.jpg	100
1939.429	0.713	713.4	0back	Block3	0back/STIM_011.jpg	100
1942.316	0.503	502.7	0back	Block3	0back/STIM_012.jpg	100
1946.12	0.438	438.3	0back	Block3	0back/STIM_012.jpg	100
1949.069	0.668	668.1	0back	Block3	0back/STIM_012.jpg	100
1953.208	0.448	447.6	0back	Block3	0back/STIM_013.jpg	100
1957.319	0.55	549.6	0back	Block3	0back/STIM_013.jpg	100
1960.447	0.802	801.5	0back	Block3	0back/STIM_013.jpg	99
1964.197	0.632	631.9	0back	Block3	0back/STIM_014.jpg	99
1967.737	0.538	537.7	0back	Block3	0back/STIM_014.jpg	99
1971.816	0.797	797.2	0back	Block3	0back/STIM_014.jpg	99
1974.727	0.53	530.2	0back	Block3	0back/STIM_015.jpg	99
1977.919	0.503	503.3	0back	Block3	0back/STIM_015.jpg	100
1980.801	0.412	411.6	0back	Block3	0back/STIM_015.jpg	100
1983.656	0.502	502.0	0back	Block3	0back/STIM_016.jpg	99
1987.484	0.47	469.5	0back	Block3	0back/STIM_016.jpg	99
1991.619	0.643	643.4	0back	Block3	0back/STIM_016.jpg	100
1994.949	0.791	790.9	0back	Block3	0back/STIM_017.jpg	99
1998.709	0.819	818.9	0back	Block3	0back/STIM_017.jpg	99
2003.029	0.532	532.0	0back	Block3	0back/STIM_017.jpg	99
2007.147	0.799	798.8	0back	Block3	0back/STIM_018.jpg	99
2010.367	0.523	522.8	0back	Block3	0back/STIM_018.jpg	100
2014.057	0.743	743.2	0back	Block3	0back/STIM_018.jpg	100
2018.393	0.485	485.0	0back	Block3	0back/STIM_019.jpg	100
2022.671	0.558	558.2	0back	Block3	0back/STIM_019.jpg	99
2026.295	0.756	756.1	0back	Block3	0back/STIM_019.jpg	100
2029.503	0.532	531.6	2back	Block4	2back/STIM_000.jpg	99
2032.886	0.603	602.9	2back	Block4	2back/STIM_000.jpg	99
2037.358	0.611	610.7	2back	Block4	2back/STIM_000.jpg	99
2040.507	0.528	527.6	2back	Block4	2back/STIM_001.jpg	100
2043.786	0.64	640.4	2back	Block4	2back/STIM_001.jpg	99
2047.375	0.967	966.8	2back	Block4	2back/STIM_001.jpg	100
2051.206	0.654	653.6	2back	Block4	2back/STIM_002.jpg	99
2054.63	0.592	591.7	2back	Block4	2back/STIM_002.jpg	100
2057.391	0.481	481.4	2back	Block4	2back/STIM_002.jpg	99
2060.858	0.931	931.0	2back	Block4	2back/STIM_003.jpg	100
2065.517	0.554	553.6	2back	Block4	2back/STIM_003.jpg	100
2068.731	0.85	849.8	2back	Block4	2back/STIM_003.jpg	99
2071.968	0.681	681.4	2back	Block4	2back/STIM_004.jpg	100
2075.216	0.822	822.1	2back	Block4	2back/STIM_004.jpg	100
2078.827	0.946	946.4	2back	Block4	2back/STIM_004.jpg	100
2082.158	0.865	864.8	2back	Block4	2back/STIM_005.jpg	100
2086.719	0.973	973.3	2back	Block4	2back/STIM_005.jpg	100
2089.887	0.511	510.7	2back	Block4	2back/STIM_005.jpg	99
2093.01	0.969	969.3	2back	Block4	2back/STIM_006.jpg	99
2096.787	0.961	961.2	2back	Block4	2back/STIM_006.jpg	99
2101.173	0.575	575.4	2back	Block4	2back/STIM_006.jpg	100
2105.386	0.977	977.2	2back	Block4	2back/STIM_007.jpg	100
2109.06	0.809	809.0	2back	Block4	2back/STIM_007.jpg	100
2113.0	0.583	583.0	2back	Block4	2back/STIM_007.jpg	99
2116.352	0.743	742.9	2back	Block4	2back/STIM_008.jpg	100
2119.941	0.948	948.4	2back	Block4	2back/STIM_008.jpg	99
2123.11	0.584	583.7	2back	Block4	2back/STIM_008.jpg	100
2125.857	0.497	496.9	2back	Block4	2back/STIM_009.jpg	100
2129.714	0.805	804.9	2back	Block4	2back/STIM_009.jpg	99
2132.807	0.936	935.5	2back	Block4	2back/STIM_009.jpg	100
2136.093	0.968	967.6	2back	Block4	2back/STIM_010.jpg	100
2139.972	0.936	935.7	2back	Block4	2back/STIM_010.jpg	99
2143.136	0.893	892.7	2back	Block4	2back/STIM_010.jpg	99
2147.229	0.465	465.4	2back	Block4	2back/STIM_011.jpg	99
2150.93	0.884	883.8	2back	Block4	2back/STIM_011.jpg	100
2154.248	0.658	658.2	2back	Block4	2back/STIM_011.jpg	100
2157.682	0.792	791.8	2back	Block4	2back/STIM_012.jpg	99
2161.254	0.86	859.8	2back	Block4	2back/STIM_012.jpg	99
2165.174	0.808	807.9	2back	Block4	2back/STIM_012.jpg	100
2169.876	0.871	870.7	2back	Block4	2back/STIM_013.jpg	99
2172.778	0.953	952.6	2back	Block4	2back/STIM_013.jpg	99
2176.936	0.95	950.0	2back	Block4	2back/STIM_013.jpg	99
2181.45	0.829	828.7	2back	Block4	2back/STIM_014.jpg	99
2185.99	0.874	874.2	2back	Block4	2back/STIM_014.jpg	100
2189.51	0.951	950.7	2back	Block4	2back/STIM_014.jpg	100
2192.65	0.562	561.6	2back	Block4	2back/STIM_015.jpg	99
2197.068	0.929	929.4	2back	Block4	2back/STIM_015.jpg	100
2200.066	0.623	622.9	2back	Block4	2back/STIM_015.jpg	100
2204.106	0.81	810.0	2back	Block4	2back/STIM_016.jpg	100
2208.551	0.548	547.8	2back	Block4	2back/STIM_016.jpg	99
2212.331	0.769	768.7	2back	Block4	2back/STIM_016.jpg	99
2216.746	0.845	845.3	2back	Block4	2back/STIM_017.jpg	99
2221.123	0.665	664.9	2back	Block4	2back/STIM_017.jpg	99
2224.154	0.511	511.2	2back	Block4	2back/STIM_017.jpg	99
2228.459	0.922	922.2	2back	Block4	2back/STIM_018.jpg	99
2232.648	0.69	689.8	2back	Block4	2back/STIM_018.jpg	100
2236.461	0.807	807.1	2back	Block4	2back/STIM_018.jpg	99
2240.518	0.636	636.5	2back	Block4	2back/STIM_019.jpg	100
2244.182	0.807	806.9	2back	Block4	2back/STIM_019.jpg	99
2248.847	0.437	436.9	2back	Block4	2back/STIM_019.jpg	99
2251.735	0.645	645.4	2back	Block4	2back/STIM_020.jpg	100
2256.31	0.574	573.5	2back	Block4	2back/STIM_020.jpg	99
2259.502	0.508	507.8	2back	Block4	2back/STIM_020.jpg	100
2262.272	0.994	993.6	2back	Block4	2back/STIM_021.jpg	99
2266.861	0.789	789.3	2back	Block4	2back/STIM_021.jpg	99
2270.482	0.993	993.0	2back	Block4	2back/STIM_021.jpg	100
2275.107	0.978	978.5	2back	Block4	2back/STIM_022.jpg	100
2279.356	0.703	702.7	2back	Block4	2back/STIM_022.jpg	99
2282.431	0.602	602.3	2back	Block4	2back/STIM_022.jpg	100
2285.286	0.564	563.5	2back	Block4	2back/STIM_023.jpg	99
2288.34	0.989	989.3	2back	Block4	2back/STIM_023.jpg	99
2292.288	0.461	461.1	2back	Block4	2back/STIM_023.jpg	100
2294.81	0.861	861.4	2back	Block4	2back/STIM_024.jpg	99
2297.773	0.564	564.0	2back	Block4	2back/STIM_024.jpg	99
2300.819	0.851	851.3	2back	Block4	2back/STIM_024.jpg	99
2304.778	0.716	715.9	2back	Block4	2back/STIM_025.jpg	99
2309.162	0.678	678.2	2back	Block4	2back/STIM_025.jpg	99
2312.721	0.86	859.5	2back	Block4	2back/STIM_025.jpg	99
2316.527	0.685	684.6	2back	Block4	2back/STIM_026.jpg	99
2321.144	0.561	560.8	2back	Block4	2back/STIM_026.jpg	99
2324.237	0.588	587.9	2back	Block4	2back/STIM_026.jpg	100
2328.62	0.648	647.5	2back	Block4	2back/STIM_027.jpg	100
2332.609	0.434	434.2	2back	Block4	2back/STIM_027.jpg	99
2335.717	0.447	447.1	2back	Block4	2back/STIM_027.jpg	100
2339.848	0.56	560.5	2back	Block4	2back/STIM_028.jpg	100
2342.648	0.587	586.9	2back	Block4	2back/STIM_028.jpg	100
2346.427	0.655	654.7	2back	Block4	2back/STIM_028.jpg	99
2350.45	0.507	506.6	2back	Block4	2back/STIM_029.jpg	100
2353.876	0.549	549.4	2back	Block4	2back/STIM_029.jpg	100
2358.268	0.494	494.2	2back	Block4	2back/STIM_029.jpg	99
2361.451	0.543	543.2	2back	Block4	2back/STIM_030.jpg	100
2365.845	0.654	653.7	2back	Block4	2back/STIM_030.jpg	100
2369.457	0.504	504.3	2back	Block4	2back/STIM_030.jpg	99
2372.02	0.841	841.2	2back	Block4	2back/STIM_031.jpg	100
2375.328	0.561	561.4	2back	Block4	2back/STIM_031.jpg	99
2378.861	0.804	803.8	2back	Block4	2back/STIM_031.jpg	100
2383.294	0.493	493.0	2back	Block4	2back/STIM_032.jpg	100
2386.231	0.605	605.3	2back	Block4	2back/STIM_032.jpg	99
2390.162	0.527	527.4	2back	Block4	2back/STIM_032.jpg	99
2394.67	1.0	999.9	2back	Block4	2back/STIM_033.jpg	99
2398.468	0.774	774.3	2back	Block4	2back/STIM_033.jpg	99
2401.84	0.602	602.3	2back	Block4	2back/STIM_033.jpg	100
2405.643	0.898	897.8	2back	Block4	2back/STIM_034.jpg	100
2409.472	0.462	462.3	2back	Block4	2back/STIM_034.jpg	100
2412.185	0.532	531.5	2back	Block4	2back/STIM_034.jpg	99
2415.566	0.454	453.7	2back	Block4	2back/STIM_035.jpg	100
2419.439	0.725	724.9	2back	Block4	2back/STIM_035.jpg	100
2423.772	0.786	785.5	2back	Block4	2back/STIM_035.jpg	100
2427.871	0.571	571.2	2back	Block4	2back/STIM_036.jpg	99
2432.312	0.974	973.8	2back	Block4	2back/STIM_036.jpg	100
2436.787	0.989	989.4	2back	Block4	2back/STIM_036.jpg	100
2440.981	0.456	455.7	2back	Block4	2back/STIM_037.jpg	100
2445.423	0.778	777.6	2back	Block4	2back/STIM_037.jpg	99
2449.743	0.594	593.9	2back	Block4	2back/STIM_037.jpg	99
2453.978	0.85	849.7	2back	Block4	2back/STIM_038.jpg	99
2457.583	0.904	904.5	2back	Block4	2back/STIM_038.jpg	99
2461.406	0.748	747.9	2back	Block4	2back/STIM_038.jpg	99
2464.806	0.958	957.6	2back	Block4	2back/STIM_039.jpg	99
2469.578	0.882	882.0	2back	Block4	2back/STIM_039.jpg	100
2473.179	0.634	633.7	2back	Block4	2back/STIM_039.jpg	100
2476.529	0.425	425.3	0back	Block4	0back/STIM_000.jpg	99
2479.628	0.663	663.1	0back	Block4	0back/STIM_000.jpg	100
2483.9	0.431	430.9	0back	Block4	0back/STIM_000.jpg	99
2486.775	0.798	797.6	0back	Block4	0back/STIM_001.jpg	100
2490.824	0.671	671.4	0back	Block4	0back/STIM_001.jpg	99
2494.75	0.642	641.5	0back	Block4	0back/STIM_001.jpg	99
2498.439	0.719	719.3	0back	Block4	0back/STIM_002.jpg	100
2503.093	0.706	705.7	0back	Block4	0back/STIM_002.jpg	100
2505.859	0.553	552.6	0back	Block4	0back/STIM_002.jpg	99
2510.3	0.741	741.1	0back	Block4	0back/STIM_003.jpg	99
2514.174	0.457	456.6	0back	Block4	0back/STIM_003.jpg	99
2517.239	0.75	750.0	0back	Block4	0back/STIM_003.jpg	99
2521.195	0.581	581.3	0back	Block4	0back/STIM_004.jpg	99
2525.676	0.651	651.0	0back	Block4	0back/STIM_004.jpg	100
2528.84	0.644	644.5	0back	Block4	0back/STIM_004.jpg	100
2532.883	0.532	531.6	0back	Block4	0back/STIM_005.jpg	100
2537.207	0.639	639.0	0back	Block4	0back/STIM_005.jpg	99
2539.881	0.435	434.6	0back	Block4	0back/STIM_005.jpg	100
2543.245	0.815	815.3	0back	Block4	0back/STIM_006.jpg	100
2547.793	0.73	729.9	0back	Block4	0back/STIM_006.jpg	100
2550.974	0.78	780.1	0back	Block4	0back/STIM_006.jpg	100
2554.062	0.808	808.0	0back	Block4	0back/STIM_007.jpg	100
2557.125	0.63	630.0	0back	Block4	0back/STIM_007.jpg	100
2561.092	0.75	749.7	0back	Block4	0back/STIM_007.jpg	100
2564.819	0.587	586.6	0back	Block4	0back/STIM_008.jpg	99
2569.28	0.465	464.8	0back	Block4	0back/STIM_008.jpg	99
2571.849	0.52	520.5	0back	Block4	0back/STIM_008.jpg	100
2574.559	0.756	755.8	0back	Block4	0back/STIM_009.jpg	100
2578.686	0.486	486.5	0back	Block4	0back/STIM_009.jpg	100
2581.671	0.705	705.3	0back	Block4	0back/STIM_009.jpg	100
2586.29	0.709	708.7	0back	Block4	0back/STIM_010.jpg	100
2590.518	0.458	457.9	0back	Block4	0back/STIM_010.jpg	100
2593.289	0.785	784.7	0back	Block4	0back/STIM_010.jpg	99
2597.2	0.684	684.1	0back	Block4	0back/STIM_011.jpg	100
2601.062	0.63	629.8	0back	Block4	0back/STIM_011.jpg	100
2604.351	0.464	463.5	0back	Block4	0back/STIM_011.jpg	99
2607.49	0.68	680.2	0back	Block4	0back/STIM_012.jpg	99
2610.98	0.547	547.3	0back	Block4	0back/STIM_012.jpg	99
2615.091	0.412	411.9	0back	Block4	0back/STIM_012.jpg	100
2619.124	0.793	792.9	0back	Block4	0back/STIM_013.jpg	99
2621.995	0.782	782.1	0back	Block4	0back/STIM_013.jpg	100
2625.705	0.788	787.5	0back	Block4	0back/STIM_013.jpg	100
2630.13	0.581	580.6	0back	Block4	0back/STIM_014.jpg	100
2633.277	0.489	489.3	0back	Block4	0back/STIM_014.jpg	100
2637.607	0.506	505.8	0back	Block4	0back/STIM_014.jpg	100
2641.199	0.498	497.8	0back	Block4	0back/STIM_015.jpg	99
2644.078	0.42	420.4	0back	Block4	0back/STIM_015.jpg	99
2646.892	0.657	657.3	0back	Block4	0back/STIM_015.jpg	100
2649.711	0.808	808.2	0back	Block4	0back/STIM_016.jpg	100
2653.239	0.554	553.8	0back	Block4	0back/STIM_016.jpg	99
2656.197	0.725	725.2	0back	Block4	0back/STIM_016.jpg	99
2660.765	0.766	766.1	0back	Block4	0back/STIM_017.jpg	99
2664.1	0.494	494.1	0back	Block4	0back/STIM_017.jpg	99
2668.121	0.815	815.0	0back	Block4	0back/STIM_017.jpg	99
2672.417	0.641	641.3	0back	Block4	0back/STIM_018.jpg	100
2675.831	0.552	552.1	0back	Block4	0back/STIM_018.jpg	99
2680.246	0.54	540.0	0back	Block4	0back/STIM_018.jpg	100
2683.548	0.606	606.3	0back	Block4	0back/STIM_019.jpg	99
2687.58	0.584	583.7	0back	Block4	0back/STIM_019.jpg	99
2691.808	0.575	574.6	0back	Block4	0back/STIM_019.jpg	99
