onset	duration	accuracy	trial_type	learning_stage	stimulus
0.0	1.871	correct	generate	Run1	generate/STIM_000.jpg
5.144	1.092	incorrect	generate	Run1	generate/STIM_000.jpg
8.612	1.324	incorrect	generate	Run1	generate/STIM_000.jpg
13.759	1.045	correct	generate	Run1	generate/STIM_000.jpg
18.804	1.239	correct	generate	Run1	generate/STIM_000.jpg
23.638	2.139	incorrect	generate	Run1	generate/STIM_001.jpg
28.163	1.578	incorrect	generate	Run1	generate/STIM_001.jpg
33.151	1.322	incorrect	generate	Run1	generate/STIM_001.jpg
36.504	2.117	correct	generate	Run1	generate/STIM_001.jpg
41.381	1.968	incorrect	generate	Run1	generate/STIM_001.jpg
46.924	2.223	incorrect	generate	Run1	generate/STIM_002.jpg
51.368	1.228	correct	generate	Run1	generate/STIM_002.jpg
55.187	1.3	correct	generate	Run1	generate/STIM_002.jpg
59.068	1.579	correct	generate	Run1	generate/STIM_002.jpg
62.895	1.704	correct	generate	Run1	generate/STIM_002.jpg
67.124	2.008	correct	generate	Run1	generate/STIM_003.jpg
71.736	1.926	incorrect	generate	Run1	generate/STIM_003.jpg
76.702	1.87	correct	generate	Run1	generate/STIM_003.jpg
81.887	2.197	incorrect	generate	Run1	generate/STIM_003.jpg
86.684	1.938	incorrect	generate	Run1	generate/STIM_003.jpg
91.641	1.762	correct	generate	Run1	generate/STIM_004.jpg
96.907	1.358	correct	generate	Run1	generate/STIM_004.jpg
101.438	1.624	correct	generate	Run1	generate/STIM_004.jpg
105.832	1.704	correct	generate	Run1	generate/STIM_004.jpg
110.437	1.833	correct	generate	Run1	generate/STIM_004.jpg
115.135	2.171	correct	generate	Run1	generate/STIM_005.jpg
119.34	1.047	incorrect	generate	Run1	generate/STIM_005.jpg
123.665	1.06	correct	generate	Run1	generate/STIM_005.jpg
127.346	1.414	incorrect	generate	Run1	generate/STIM_005.jpg
131.991	1.691	correct	generate	Run1	generate/STIM_005.jpg
136.421	1.136	correct	generate	Run1	generate/STIM_006.jpg
140.9	2.449	incorrect	generate	Run1	generate/STIM_006.jpg
145.485	1.891	correct	generate	Run1	generate/STIM_006.jpg
150.29	1.643	incorrect	generate	Run1	generate/STIM_006.jpg
155.454	1.999	incorrect	generate	Run1	generate/STIM_006.jpg
161.024	1.079	incorrect	generate	Run1	generate/STIM_007.jpg
166.03	1.291	incorrect	generate	Run1	generate/STIM_007.jpg
170.448	1.981	correct	generate	Run1	generate/STIM_007.jpg
175.053	0.935	correct	generate	Run1	generate/STIM_007.jpg
179.137	1.382	incorrect	generate	Run1	generate/STIM_007.jpg
182.752	1.444	incorrect	generate	Run1	generate/STIM_008.jpg
186.514	2.268	correct	generate	Run1	generate/STIM_008.jpg
192.756	1.538	incorrect	generate	Run1	generate/STIM_008.jpg
197.396	0.966	correct	generate	Run1	generate/STIM_008.jpg
201.511	1.948	correct	generate	Run1	generate/STIM_008.jpg
206.378	1.911	correct	generate	Run1	generate/STIM_009.jpg
210.763	1.048	correct	generate	Run1	generate/STIM_009.jpg
214.871	1.817	correct	generate	Run1	generate/STIM_009.jpg
219.099	1.9	correct	generate	Run1	generate/STIM_009.jpg
224.852	1.27	incorrect	generate	Run1	generate/STIM_009.jpg
228.801	1.91	incorrect	generate	Run1	generate/STIM_010.jpg
234.542	2.271	correct	generate	Run1	generate/STIM_010.jpg
238.852	1.044	incorrect	generate	Run1	generate/STIM_010.jpg
243.596	1.018	correct	generate	Run1	generate/STIM_010.jpg
247.237	1.925	correct	generate	Run1	generate/STIM_010.jpg
252.896	1.762	incorrect	generate	Run1	generate/STIM_011.jpg
257.543	1.227	correct	generate	Run1	generate/STIM_011.jpg
260.936	1.515	correct	generate	Run1	generate/STIM_011.jpg
265.404	1.516	correct	generate	Run1	generate/STIM_011.jpg
270.635	1.191	incorrect	generate	Run1	generate/STIM_011.jpg
273.98	1.649	correct	generate	Run1	generate/STIM_012.jpg
277.671	2.209	incorrect	generate	Run1	generate/STIM_012.jpg
282.963	2.101	correct	generate	Run1	generate/STIM_012.jpg
287.702	1.604	correct	generate	Run1	generate/STIM_012.jpg
292.135	1.391	correct	generate	Run1	generate/STIM_012.jpg
296.293	1.058	correct	generate	Run1	generate/STIM_013.jpg
301.289	1.222	incorrect	generate	Run1	generate/STIM_013.jpg
305.345	2.045	correct	generate	Run1	generate/STIM_013.jpg
309.646	1.287	correct	generate	Run1	generate/STIM_013.jpg
313.138	1.672	incorrect	generate	Run1	generate/STIM_013.jpg
316.972	2.073	incorrect	generate	Run1	generate/STIM_014.jpg
322.257	2.226	correct	generate	Run1	generate/STIM_014.jpg
326.634	1.625	incorrect	generate	Run1	generate/STIM_014.jpg
330.925	1.462	correct	generate	Run1	generate/STIM_014.jpg
335.673	1.258	incorrect	generate	Run1	generate/STIM_014.jpg
340.845	1.05	incorrect	generate	Run1	generate/STIM_015.jpg
343.901	1.726	correct	generate	Run1	generate/STIM_015.jpg
347.713	2.059	incorrect	generate	Run1	generate/STIM_015.jpg
352.239	1.291	incorrect	generate	Run1	generate/STIM_015.jpg
355.979	1.864	incorrect	generate	Run1	generate/STIM_015.jpg
360.582	2.073	correct	generate	Run1	generate/STIM_016.jpg
364.776	2.271	correct	generate	Run1	generate/STIM_016.jpg
370.099	1.15	correct	generate	Run1	generate/STIM_016.jpg
373.253	1.75	correct	generate	Run1	generate/STIM_016.jpg
377.323	1.158	correct	generate	Run1	generate/STIM_016.jpg
381.358	2.221	correct	generate	Run1	generate/STIM_017.jpg
386.072	2.449	correct	generate	Run1	generate/STIM_017.jpg
391.445	1.883	correct	generate	Run1	generate/STIM_017.jpg
395.355	1.112	incorrect	generate	Run1	generate/STIM_017.jpg
398.609	1.563	correct	generate	Run1	generate/STIM_017.jpg
402.528	1.925	incorrect	generate	Run1	generate/STIM_018.jpg
407.453	1.204	incorrect	generate	Run1	generate/STIM_018.jpg
410.845	2.214	correct	generate	Run1	generate/STIM_018.jpg
415.35	1.077	correct	generate	Run1	generate/STIM_018.jpg
419.094	0.851	incorrect	generate	Run1	generate/STIM_018.jpg
423.304	1.648	correct	generate	Run1	generate/STIM_019.jpg
427.505	1.974	incorrect	generate	Run1	generate/STIM_019.jpg
432.054	1.597	correct	generate	Run1	generate/STIM_019.jpg
436.497	1.56	correct	generate	Run1	generate/STIM_019.jpg
440.944	1.847	correct	generate	Run1	generate/STIM_019.jpg
446.624	2.042	incorrect	generate	Run1	generate/STIM_020.jpg
452.272	2.445	correct	generate	Run1	generate/STIM_020.jpg
458.055	1.327	correct	generate	Run1	generate/STIM_020.jpg
462.583	1.958	correct	generate	Run1	generate/STIM_020.jpg
466.882	1.914	correct	generate	Run1	generate/STIM_020.jpg
472.363	2.429	correct	generate	Run1	generate/STIM_021.jpg
477.699	1.23	incorrect	generate	Run1	generate/STIM_021.jpg
482.365	1.531	correct	generate	Run1	generate/STIM_021.jpg
487.749	2.068	correct	generate	Run1	generate/STIM_021.jpg
492.862	1.247	correct	generate	Run1	generate/STIM_021.jpg
497.107	1.957	incorrect	generate	Run1	generate/STIM_022.jpg
502.159	2.406	correct	generate	Run1	generate/STIM_022.jpg
508.052	1.659	correct	generate	Run1	generate/STIM_022.jpg
511.735	0.906	correct	generate	Run1	generate/STIM_022.jpg
516.569	1.484	incorrect	generate	Run1	generate/STIM_022.jpg
521.144	1.421	correct	generate	Run1	generate/STIM_023.jpg
524.821	1.185	correct	generate	Run1	generate/STIM_023.jpg
529.481	2.122	correct	generate	Run1	generate/STIM_023.jpg
535.316	0.96	correct	generate	Run1	generate/STIM_023.jpg
539.047	1.768	incorrect	generate	Run1	generate/STIM_023.jpg
544.491	1.924	correct	generate	Run1	generate/STIM_024.jpg
549.79	2.362	incorrect	generate	Run1	generate/STIM_024.jpg
554.295	1.013	correct	generate	Run1	generate/STIM_024.jpg
559.181	1.603	incorrect	generate	Run1	generate/STIM_024.jpg
564.731	1.879	incorrect	generate	Run1	generate/STIM_024.jpg
568.776	0.566	correct	repeat	Run1	repeat/STIM_000.jpg
572.296	0.742	incorrect	repeat	Run1	repeat/STIM_000.jpg
576.941	0.709	correct	repeat	Run1	repeat/STIM_000.jpg
581.582	0.484	correct	repeat	Run1	repeat/STIM_000.jpg
585.809	0.575	correct	repeat	Run1	repeat/STIM_000.jpg
589.739	0.722	correct	repeat	Run1	repeat/STIM_001.jpg
594.16	0.847	correct	repeat	Run1	repeat/STIM_001.jpg
598.734	0.443	correct	repeat	Run1	repeat/STIM_001.jpg
601.573	0.734	correct	repeat	Run1	repeat/STIM_001.jpg
605.868	0.724	correct	repeat	Run1	repeat/STIM_001.jpg
609.406	0.514	correct	repeat	Run1	repeat/STIM_002.jpg
612.597	0.745	correct	repeat	Run1	repeat/STIM_002.jpg
615.586	0.493	correct	repeat	Run1	repeat/STIM_002.jpg
620.026	0.625	correct	repeat	Run1	repeat/STIM_002.jpg
624.111	0.575	correct	repeat	Run1	repeat/STIM_002.jpg
626.693	0.837	incorrect	repeat	Run1	repeat/STIM_003.jpg
630.615	0.557	correct	repeat	Run1	repeat/STIM_003.jpg
633.784	0.596	correct	repeat	Run1	repeat/STIM_003.jpg
636.906	0.659	correct	repeat	Run1	repeat/STIM_003.jpg
640.627	0.61	incorrect	repeat	Run1	repeat/STIM_003.jpg
644.183	0.748	correct	repeat	Run1	repeat/STIM_004.jpg
647.095	0.594	correct	repeat	Run1	repeat/STIM_004.jpg
650.378	0.709	correct	repeat	Run1	repeat/STIM_004.jpg
655.058	0.497	correct	repeat	Run1	repeat/STIM_004.jpg
657.561	0.493	correct	repeat	Run1	repeat/STIM_004.jpg
661.435	0.731	correct	repeat	Run1	repeat/STIM_005.jpg
665.118	0.644	correct	repeat	Run1	repeat/STIM_005.jpg
668.417	0.715	incorrect	repeat	Run1	repeat/STIM_005.jpg
671.877	0.8	correct	repeat	Run1	repeat/STIM_005.jpg
675.536	0.81	correct	repeat	Run1	repeat/STIM_005.jpg
679.838	0.846	correct	repeat	Run1	repeat/STIM_006.jpg
684.477	0.711	incorrect	repeat	Run1	repeat/STIM_006.jpg
687.481	0.478	correct	repeat	Run1	repeat/STIM_006.jpg
690.784	0.817	correct	repeat	Run1	repeat/STIM_006.jpg
695.172	0.623	incorrect	repeat	Run1	repeat/STIM_006.jpg
699.682	0.489	correct	repeat	Run1	repeat/STIM_007.jpg
704.073	0.775	correct	repeat	Run1	repeat/STIM_007.jpg
707.728	0.512	correct	repeat	Run1	repeat/STIM_007.jpg
712.103	0.603	correct	repeat	Run1	repeat/STIM_007.jpg
715.581	0.828	correct	repeat	Run1	repeat/STIM_007.jpg
718.642	0.551	correct	repeat	Run1	repeat/STIM_008.jpg
722.072	0.836	incorrect	repeat	Run1	repeat/STIM_008.jpg
725.295	0.78	correct	repeat	Run1	repeat/STIM_008.jpg
729.817	0.68	correct	repeat	Run1	repeat/STIM_008.jpg
734.083	0.754	correct	repeat	Run1	repeat/STIM_008.jpg
738.302	0.479	correct	repeat	Run1	repeat/STIM_009.jpg
742.466	0.796	correct	repeat	Run1	repeat/STIM_009.jpg
746.483	0.734	correct	repeat	Run1	repeat/STIM_009.jpg
751.041	0.57	incorrect	repeat	Run1	repeat/STIM_009.jpg
754.232	0.828	incorrect	repeat	Run1	repeat/STIM_009.jpg
759.018	0.52	incorrect	repeat	Run1	repeat/STIM_010.jpg
761.772	0.814	correct	repeat	Run1	repeat/STIM_010.jpg
766.415	0.658	correct	repeat	Run1	repeat/STIM_010.jpg
769.6	0.836	correct	repeat	Run1	repeat/STIM_010.jpg
773.332	0.601	correct	repeat	Run1	repeat/STIM_010.jpg
776.133	0.63	correct	repeat	Run1	repeat/STIM_011.jpg
780.277	0.518	correct	repeat	Run1	repeat/STIM_011.jpg
784.544	0.495	correct	repeat	Run1	repeat/STIM_011.jpg
788.988	0.511	correct	repeat	Run1	repeat/STIM_011.jpg
793.381	0.453	incorrect	repeat	Run1	repeat/STIM_011.jpg
796.423	0.7	correct	repeat	Run1	repeat/STIM_012.jpg
800.487	0.636	correct	repeat	Run1	repeat/STIM_012.jpg
803.704	0.805	correct	repeat	Run1	repeat/STIM_012.jpg
806.982	0.835	incorrect	repeat	Run1	repeat/STIM_012.jpg
811.641	0.537	incorrect	repeat	Run1	repeat/STIM_012.jpg
814.505	0.741	correct	repeat	Run1	repeat/STIM_013.jpg
817.394	0.7	correct	repeat	Run1	repeat/STIM_013.jpg
820.317	0.734	incorrect	repeat	Run1	repeat/STIM_013.jpg
824.644	0.646	incorrect	repeat	Run1	repeat/STIM_013.jpg
829.085	0.724	correct	repeat	Run1	repeat/STIM_013.jpg
832.987	0.784	incorrect	repeat	Run1	repeat/STIM_014.jpg
836.711	0.743	incorrect	repeat	Run1	repeat/STIM_014.jpg
840.955	0.854	correct	repeat	Run1	repeat/STIM_014.jpg
845.503	0.582	incorrect	repeat	Run1	repeat/STIM_014.jpg
848.387	0.823	correct	repeat	Run1	repeat/STIM_014.jpg
852.627	1.911	incorrect	generate	Run2	generate/STIM_000.jpg
857.74	1.951	correct	generate	Run2	generate/STIM_000.jpg
863.572	1.223	correct	generate	Run2	generate/STIM_000.jpg
867.196	0.92	incorrect	generate	Run2	generate/STIM_000.jpg
871.31	0.875	correct	generate	Run2	generate/STIM_000.jpg
875.499	2.127	incorrect	generate	Run2	generate/STIM_001.jpg
879.889	1.188	correct	generate	Run2	generate/STIM_001.jpg
884.301	0.855	correct	generate	Run2	generate/STIM_001.jpg
887.316	1.758	incorrect	generate	Run2	generate/STIM_001.jpg
891.176	1.58	correct	generate	Run2	generate/STIM_001.jpg
895.644	0.964	correct	generate	Run2	generate/STIM_002.jpg
899.82	0.924	incorrect	generate	Run2	generate/STIM_002.jpg
904.734	0.949	correct	generate	Run2	generate/STIM_002.jpg
908.661	1.203	correct	generate	Run2	generate/STIM_002.jpg
913.817	1.49	correct	generate	Run2	generate/STIM_002.jpg
918.858	2.035	correct	generate	Run2	generate/STIM_003.jpg
924.677	1.29	correct	generate	Run2	generate/STIM_003.jpg
929.155	0.79	correct	generate	Run2	generate/STIM_003.jpg
932.684	0.961	correct	generate	Run2	generate/STIM_003.jpg
936.5	1.111	correct	generate	Run2	generate/STIM_003.jpg
940.524	1.723	correct	generate	Run2	generate/STIM_004.jpg
945.33	2.067	correct	generate	Run2	generate/STIM_004.jpg
950.614	1.849	correct	generate	Run2	generate/STIM_004.jpg
954.633	1.413	correct	generate	Run2	generate/STIM_004.jpg
959.623	1.482	correct	generate	Run2	generate/STIM_004.jpg
963.485	1.536	correct	generate	Run2	generate/STIM_005.jpg
967.544	1.338	correct	generate	Run2	generate/STIM_005.jpg
970.946	1.06	incorrect	generate	Run2	generate/STIM_005.jpg
975.21	1.234	incorrect	generate	Run2	generate/STIM_005.jpg
979.313	0.814	incorrect	generate	Run2	generate/STIM_005.jpg
982.346	2.022	incorrect	generate	Run2	generate/STIM_006.jpg
988.353	1.268	correct	generate	Run2	generate/STIM_006.jpg
992.5	1.902	incorrect	generate	Run2	generate/STIM_006.jpg
997.046	0.925	correct	generate	Run2	generate/STIM_006.jpg
1001.083	0.953	incorrect	generate	Run2	generate/STIM_006.jpg
1004.598	1.343	correct	generate	Run2	generate/STIM_007.jpg
1008.368	1.161	incorrect	generate	Run2	generate/STIM_007.jpg
1011.665	1.544	correct	generate	Run2	generate/STIM_007.jpg
1016.789	1.386	correct	generate	Run2	generate/STIM_007.jpg
1020.307	1.477	correct	generate	Run2	generate/STIM_007.jpg
1025.667	2.042	correct	generate	Run2	generate/STIM_008.jpg
1029.777	1.018	incorrect	generate	Run2	generate/STIM_008.jpg
1034.752	0.82	correct	generate	Run2	generate/STIM_008.jpg
1038.992	1.007	correct	generate	Run2	generate/STIM_008.jpg
1043.651	1.415	correct	generate	Run2	generate/STIM_008.jpg
1047.179	2.058	correct	generate	Run2	generate/STIM_009.jpg
1051.814	0.991	incorrect	generate	Run2	generate/STIM_009.jpg
1055.464	1.494	correct	generate	Run2	generate/STIM_009.jpg
1059.807	1.748	correct	generate	Run2	generate/STIM_009.jpg
1064.537	1.335	correct	generate	Run2	generate/STIM_009.jpg
1068.733	1.579	correct	generate	Run2	generate/STIM_010.jpg
1073.598	1.164	incorrect	generate	Run2	generate/STIM_010.jpg
1078.314	1.533	correct	generate	Run2	generate/STIM_010.jpg
1083.177	0.811	correct	generate	Run2	generate/STIM_010.jpg
1087.648	1.387	correct	generate	Run2	generate/STIM_010.jpg
1091.574	1.314	correct	generate	Run2	generate/STIM_011.jpg
1095.018	1.26	correct	generate	Run2	generate/STIM_011.jpg
1099.23	1.512	correct	generate	Run2	generate/STIM_011.jpg
1103.388	1.184	incorrect	generate	Run2	generate/STIM_011.jpg
1106.741	0.956	correct	generate	Run2	generate/STIM_011.jpg
1110.212	0.903	correct	generate	Run2	generate/STIM_012.jpg
1115.076	2.048	incorrect	generate	Run2	generate/STIM_012.jpg
1120.872	1.053	correct	generate	Run2	generate/STIM_012.jpg
1124.989	0.782	correct	generate	Run2	generate/STIM_012.jpg
1129.683	1.618	incorrect	generate	Run2	generate/STIM_012.jpg
1133.7	1.388	incorrect	generate	Run2	generate/STIM_013.jpg
1138.695	0.851	incorrect	generate	Run2	generate/STIM_013.jpg
1142.15	1.187	correct	generate	Run2	generate/STIM_013.jpg
1147.26	0.93	correct	generate	Run2	generate/STIM_013.jpg
1151.059	1.3	correct	generate	Run2	generate/STIM_013.jpg
1155.297	1.413	incorrect	generate	Run2	generate/STIM_014.jpg
1160.394	0.945	correct	generate	Run2	generate/STIM_014.jpg
1163.461	1.638	correct	generate	Run2	generate/STIM_014.jpg
1169.02	1.261	correct	generate	Run2	generate/STIM_014.jpg
1173.963	1.473	correct	generate	Run2	generate/STIM_014.jpg
1177.92	1.794	correct	generate	Run2	generate/STIM_015.jpg
1183.229	1.353	correct	generate	Run2	generate/STIM_015.jpg
1188.162	1.675	incorrect	generate	Run2	generate/STIM_015.jpg
1192.659	1.301	correct	generate	Run2	generate/STIM_015.jpg
1197.257	0.973	incorrect	generate	Run2	generate/STIM_015.jpg
1200.624	2.099	correct	generate	Run2	generate/STIM_016.jpg
1205.343	0.911	incorrect	generate	Run2	generate/STIM_016.jpg
1210.067	1.138	correct	generate	Run2	generate/STIM_016.jpg
1214.511	1.449	correct	generate	Run2	generate/STIM_016.jpg
1219.621	1.774	correct	generate	Run2	generate/STIM_016.jpg
1224.172	0.984	correct	generate	Run2	generate/STIM_017.jpg
1228.203	0.965	correct	generate	Run2	generate/STIM_017.jpg
1232.258	1.714	correct	generate	Run2	generate/STIM_017.jpg
1237.864	1.742	incorrect	generate	Run2	generate/STIM_017.jpg
1242.099	1.395	incorrect	generate	Run2	generate/STIM_017.jpg
1247.443	1.366	correct	generate	Run2	generate/STIM_018.jpg
1252.393	1.198	correct	generate	Run2	generate/STIM_018.jpg
1256.76	1.533	correct	generate	Run2	generate/STIM_018.jpg
1261.322	1.406	incorrect	generate	Run2	generate/STIM_018.jpg
1266.338	0.976	incorrect	generate	Run2	generate/STIM_018.jpg
1270.402	0.974	correct	generate	Run2	generate/STIM_019.jpg
1274.743	1.037	correct	generate	Run2	generate/STIM_019.jpg
1278.647	0.961	correct	generate	Run2	generate/STIM_019.jpg
1283.322	0.836	correct	generate	Run2	generate/STIM_019.jpg
1286.783	0.853	correct	generate	Run2	generate/STIM_019.jpg
1290.741	1.954	correct	generate	Run2	generate/STIM_020.jpg
1295.426	1.411	incorrect	generate	Run2	generate/STIM_020.jpg
1300.259	1.861	correct	generate	Run2	generate/STIM_020.jpg
1305.415	1.519	incorrect	generate	Run2	generate/STIM_020.jpg
1309.514	0.814	correct	generate	Run2	generate/STIM_020.jpg
1313.042	1.636	incorrect	generate	Run2	generate/STIM_021.jpg
1316.794	1.46	correct	generate	Run2	generate/STIM_021.jpg
1321.744	1.128	incorrect	generate	Run2	generate/STIM_021.jpg
1325.462	0.77	correct	generate	Run2	generate/STIM_021.jpg
1329.823	1.656	correct	generate	Run2	generate/STIM_021.jpg
1334.119	1.778	incorrect	generate	Run2	generate/STIM_022.jpg
1339.07	2.049	correct	generate	Run2	generate/STIM_022.jpg
1344.673	0.974	correct	generate	Run2	generate/STIM_022.jpg
1349.325	1.385	incorrect	generate	Run2	generate/STIM_022.jpg
1353.227	1.515	correct	generate	Run2	generate/STIM_022.jpg
1358.07	2.016	correct	generate	Run2	generate/STIM_023.jpg
1362.902	2.017	correct	generate	Run2	generate/STIM_023.jpg
1367.48	1.131	incorrect	generate	Run2	generate/STIM_023.jpg
1370.755	1.556	correct	generate	Run2	generate/STIM_023.jpg
1374.97	1.813	correct	generate	Run2	generate/STIM_023.jpg
1379.964	1.083	correct	generate	Run2	generate/STIM_024.jpg
1384.755	2.016	correct	generate	Run2	generate/STIM_024.jpg
1389.208	0.975	correct	generate	Run2	generate/STIM_024.jpg
1392.686	1.472	correct	generate	Run2	generate/STIM_024.jpg
1397.806	1.823	correct	generate	Run2	generate/STIM_024.jpg
1401.89	0.457	correct	repeat	Run2	repeat/STIM_000.jpg
1405.523	0.745	correct	repeat	Run2	repeat/STIM_000.jpg
1408.8	0.501	correct	repeat	Run2	repeat/STIM_000.jpg
1412.003	0.595	correct	repeat	Run2	repeat/STIM_000.jpg
1415.717	0.451	correct	repeat	Run2	repeat/STIM_000.jpg
1419.343	0.854	correct	repeat	Run2	repeat/STIM_001.jpg
1423.362	0.574	incorrect	repeat	Run2	repeat/STIM_001.jpg
1427.575	0.553	correct	repeat	Run2	repeat/STIM_001.jpg
1430.761	0.858	correct	repeat	Run2	repeat/STIM_001.jpg
1434.779	0.682	incorrect	repeat	Run2	repeat/STIM_001.jpg
1438.917	0.439	correct	repeat	Run2	repeat/STIM_002.jpg
1441.761	0.61	correct	repeat	Run2	repeat/STIM_002.jpg
1445.474	0.868	correct	repeat	Run2	repeat/STIM_002.jpg
1450.286	0.692	correct	repeat	Run2	repeat/STIM_002.jpg
1454.515	0.529	correct	repeat	Run2	repeat/STIM_002.jpg
1457.759	0.725	incorrect	repeat	Run2	repeat/STIM_003.jpg
1461.543	0.507	correct	repeat	Run2	repeat/STIM_003.jpg
1465.776	0.64	correct	repeat	Run2	repeat/STIM_003.jpg
1469.355	0.577	correct	repeat	Run2	repeat/STIM_003.jpg
1473.217	0.859	correct	repeat	Run2	repeat/STIM_003.jpg
1477.907	0.449	correct	repeat	Run2	repeat/STIM_004.jpg
1481.865	0.865	correct	repeat	Run2	repeat/STIM_004.jpg
1485.572	0.607	correct	repeat	Run2	repeat/STIM_004.jpg
1488.766	0.68	correct	repeat	Run2	repeat/STIM_004.jpg
1492.637	0.465	correct	repeat	Run2	repeat/STIM_004.jpg
1496.078	0.669	correct	repeat	Run2	repeat/STIM_005.jpg
1499.215	0.542	correct	repeat	Run2	repeat/STIM_005.jpg
1503.05	0.756	correct	repeat	Run2	repeat/STIM_005.jpg
1507.558	0.452	correct	repeat	Run2	repeat/STIM_005.jpg
1511.336	0.699	correct	repeat	Run2	repeat/STIM_005.jpg
1515.493	0.579	correct	repeat	Run2	repeat/STIM_006.jpg
1519.063	0.48	correct	repeat	Run2	repeat/STIM_006.jpg
1522.035	0.843	correct	repeat	Run2	repeat/STIM_006.jpg
1526.593	0.488	correct	repeat	Run2	repeat/STIM_006.jpg
1530.689	0.626	incorrect	repeat	Run2	repeat/STIM_006.jpg
1534.991	0.847	incorrect	repeat	Run2	repeat/STIM_007.jpg
1537.856	0.637	incorrect	repeat	Run2	repeat/STIM_007.jpg
1542.382	0.869	correct	repeat	Run2	repeat/STIM_007.jpg
1546.795	0.547	correct	repeat	Run2	repeat/STIM_007.jpg
1551.151	0.685	correct	repeat	Run2	repeat/STIM_007.jpg
1555.813	0.52	correct	repeat	Run2	repeat/STIM_008.jpg
1559.214	0.551	correct	repeat	Run2	repeat/STIM_008.jpg
1563.161	0.611	incorrect	repeat	Run2	repeat/STIM_008.jpg
1567.354	0.666	incorrect	repeat	Run2	repeat/STIM_008.jpg
1571.516	0.606	correct	repeat	Run2	repeat/STIM_008.jpg
1574.784	0.518	correct	repeat	Run2	repeat/STIM_009.jpg
1579.234	0.843	correct	repeat	Run2	repeat/STIM_009.jpg
1582.981	0.808	correct	repeat	Run2	repeat/STIM_009.jpg
1587.375	0.542	correct	repeat	Run2	repeat/STIM_009.jpg
1591.877	0.84	correct	repeat	Run2	repeat/STIM_009.jpg
1594.914	0.476	correct	repeat	Run2	repeat/STIM_010.jpg
1598.167	0.835	correct	repeat	Run2	repeat/STIM_010.jpg
1601.085	0.654	correct	repeat	Run2	repeat/STIM_010.jpg
1604.489	0.77	incorrect	repeat	Run2	repeat/STIM_010.jpg
1608.224	0.574	incorrect	repeat	Run2	repeat/STIM_010.jpg
1611.969	0.456	correct	repeat	Run2	repeat/STIM_011.jpg
1616.084	0.557	correct	repeat	Run2	repeat/STIM_011.jpg
1619.11	0.86	correct	repeat	Run2	repeat/STIM_011.jpg
1622.035	0.727	correct	repeat	Run2	repeat/STIM_011.jpg
1625.386	0.733	correct	repeat	Run2	repeat/STIM_011.jpg
1628.121	0.792	correct	repeat	Run2	repeat/STIM_012.jpg
1630.96	0.761	correct	repeat	Run2	repeat/STIM_012.jpg
1634.271	0.759	incorrect	repeat	Run2	repeat/STIM_012.jpg
1637.131	0.534	correct	repeat	Run2	repeat/STIM_012.jpg
1641.25	0.604	correct	repeat	Run2	repeat/STIM_012.jpg
1645.363	0.653	correct	repeat	Run2	repeat/STIM_013.jpg
1648.384	0.774	incorrect	repeat	Run2	repeat/STIM_013.jpg
1651.838	0.688	correct	repeat	Run2	repeat/STIM_013.jpg
1655.656	0.768	correct	repeat	Run2	repeat/STIM_013.jpg
1659.19	0.464	correct	repeat	Run2	repeat/STIM_013.jpg
1661.816	0.715	correct	repeat	Run2	repeat/STIM_014.jpg
1665.623	0.848	correct	repeat	Run2	repeat/STIM_014.jpg
1670.387	0.664	correct	repeat	Run2	repeat/STIM_014.jpg
1674.952	0.634	correct	repeat	Run2	repeat/STIM_014.jpg
1679.522	0.463	correct	repeat	Run2	repeat/STIM_014.jpg
1683.347	1.301	correct	generate	Run3	generate/STIM_000.jpg
1687.35	1.52	correct	generate	Run3	generate/STIM_000.jpg
1691.085	1.25	correct	generate	Run3	generate/STIM_000.jpg
1695.793	1.001	correct	generate	Run3	generate/STIM_000.jpg
1700.775	1.069	correct	generate	Run3	generate/STIM_000.jpg
1705.024	1.333	correct	generate	Run3	generate/STIM_001.jpg
1709.864	1.468	incorrect	generate	Run3	generate/STIM_001.jpg
1713.85	1.318	incorrect	generate	Run3	generate/STIM_001.jpg
1718.055	1.358	incorrect	generate	Run3	generate/STIM_001.jpg
1722.791	0.978	incorrect	generate	Run3	generate/STIM_001.jpg
1725.953	1.384	correct	generate	Run3	generate/STIM_002.jpg
1730.094	1.547	correct	generate	Run3	generate/STIM_002.jpg
1734.967	1.471	incorrect	generate	Run3	generate/STIM_002.jpg
1739.838	0.838	correct	generate	Run3	generate/STIM_002.jpg
1744.626	1.271	incorrect	generate	Run3	generate/STIM_002.jpg
1748.79	1.694	incorrect	generate	Run3	generate/STIM_003.jpg
1754.145	0.848	correct	generate	Run3	generate/STIM_003.jpg
1757.24	1.465	correct	generate	Run3	generate/STIM_003.jpg
1761.345	1.183	correct	generate	Run3	generate/STIM_003.jpg
1764.77	1.708	correct	generate	Run3	generate/STIM_003.jpg
1769.383	1.522	correct	generate	Run3	generate/STIM_004.jpg
1774.641	1.142	incorrect	generate	Run3	generate/STIM_004.jpg
1778.405	1.2	correct	generate	Run3	generate/STIM_004.jpg
1782.93	1.068	correct	generate	Run3	generate/STIM_004.jpg
1786.089	0.751	correct	generate	Run3	generate/STIM_004.jpg
1789.973	1.179	correct	generate	Run3	generate/STIM_005.jpg
1793.316	1.062	correct	generate	Run3	generate/STIM_005.jpg
1798.261	0.908	incorrect	generate	Run3	generate/STIM_005.jpg
1801.588	1.068	incorrect	generate	Run3	generate/STIM_005.jpg
1805.295	1.426	correct	generate	Run3	generate/STIM_005.jpg
1809.042	0.81	correct	generate	Run3	generate/STIM_006.jpg
1812.294	0.771	correct	generate	Run3	generate/STIM_006.jpg
1815.831	1.44	correct	generate	Run3	generate/STIM_006.jpg
1820.819	1.514	correct	generate	Run3	generate/STIM_006.jpg
1824.412	1.08	incorrect	generate	Run3	generate/STIM_006.jpg
1828.27	1.564	correct	generate	Run3	generate/STIM_007.jpg
1833.137	1.511	incorrect	generate	Run3	generate/STIM_007.jpg
1837.88	1.636	correct	generate	Run3	generate/STIM_007.jpg
1843.463	1.112	correct	generate	Run3	generate/STIM_007.jpg
1847.252	0.845	correct	generate	Run3	generate/STIM_007.jpg
1850.781	1.196	incorrect	generate	Run3	generate/STIM_008.jpg
1854.713	1.146	correct	generate	Run3	generate/STIM_008.jpg
1859.002	1.688	incorrect	generate	Run3	generate/STIM_008.jpg
1864.531	1.147	correct	generate	Run3	generate/STIM_008.jpg
1868.041	0.734	correct	generate	Run3	generate/STIM_008.jpg
1872.337	1.683	correct	generate	Run3	generate/STIM_009.jpg
1877.802	1.204	correct	generate	Run3	generate/STIM_009.jpg
1882.286	1.188	correct	generate	Run3	generate/STIM_009.jpg
1885.644	1.564	correct	generate	Run3	generate/STIM_009.jpg
1889.789	1.259	correct	generate	Run3	generate/STIM_009.jpg
1894.575	0.748	correct	generate	Run3	generate/STIM_010.jpg
1898.941	1.224	correct	generate	Run3	generate/STIM_010.jpg
1902.895	1.124	correct	generate	Run3	generate/STIM_010.jpg
1906.278	1.677	incorrect	generate	Run3	generate/STIM_010.jpg
1910.114	1.733	correct	generate	Run3	generate/STIM_010.jpg
1914.124	1.053	correct	generate	Run3	generate/STIM_011.jpg
1917.196	0.945	incorrect	generate	Run3	generate/STIM_011.jpg
1921.57	1.007	correct	generate	Run3	generate/STIM_011.jpg
1925.311	1.694	correct	generate	Run3	generate/STIM_011.jpg
1930.782	1.747	correct	generate	Run3	generate/STIM_011.jpg
1934.543	1.176	correct	generate	Run3	generate/STIM_012.jpg
1939.198	1.816	correct	generate	Run3	generate/STIM_012.jpg
1944.383	1.376	correct	generate	Run3	generate/STIM_012.jpg
1949.75	1.326	incorrect	generate	Run3	generate/STIM_012.jpg
1953.097	1.229	correct	generate	Run3	generate/STIM_012.jpg
1957.629	1.69	correct	generate	Run3	generate/STIM_013.jpg
1963.253	1.206	incorrect	generate	Run3	generate/STIM_013.jpg
1967.146	1.469	correct	generate	Run3	generate/STIM_013.jpg
1971.003	1.233	incorrect	generate	Run3	generate/STIM_013.jpg
1975.402	1.753	correct	generate	Run3	generate/STIM_013.jpg
1979.172	1.44	correct	generate	Run3	generate/STIM_014.jpg
1984.391	1.168	correct	generate	Run3	generate/STIM_014.jpg
1989.408	1.456	correct	generate	Run3	generate/STIM_014.jpg
1994.345	0.868	correct	generate	Run3	generate/STIM_014.jpg
1997.645	1.19	correct	generate	Run3	generate/STIM_014.jpg
2002.025	1.278	correct	generate	Run3	generate/STIM_015.jpg
2007.224	0.905	correct	generate	Run3	generate/STIM_015.jpg
2011.363	1.621	incorrect	generate	Run3	generate/STIM_015.jpg
2016.798	1.019	correct	generate	Run3	generate/STIM_015.jpg
2020.206	1.816	correct	generate	Run3	generate/STIM_015.jpg
2025.771	1.513	incorrect	generate	Run3	generate/STIM_016.jpg
2029.402	0.777	correct	generate	Run3	generate/STIM_016.jpg
2033.719	1.741	incorrect	generate	Run3	generate/STIM_016.jpg
2037.625	1.706	correct	generate	Run3	generate/STIM_016.jpg
2041.694	1.778	incorrect	generate	Run3	generate/STIM_016.jpg
2047.112	0.777	correct	generate	Run3	generate/STIM_017.jpg
2050.281	0.85	correct	generate	Run3	generate/STIM_017.jpg
2053.248	1.58	incorrect	generate	Run3	generate/STIM_017.jpg
2057.232	1.466	correct	generate	Run3	generate/STIM_017.jpg
2062.249	1.371	correct	generate	Run3	generate/STIM_017.jpg
2065.639	1.55	incorrect	generate	Run3	generate/STIM_018.jpg
2069.981	1.802	incorrect	generate	Run3	generate/STIM_018.jpg
2075.293	0.749	correct	generate	Run3	generate/STIM_018.jpg
2078.36	1.472	correct	generate	Run3	generate/STIM_018.jpg
2083.588	1.672	correct	generate	Run3	generate/STIM_018.jpg
2088.513	1.127	incorrect	generate	Run3	generate/STIM_019.jpg
2092.011	1.054	correct	generate	Run3	generate/STIM_019.jpg
2096.764	1.222	correct	generate	Run3	generate/STIM_019.jpg
2100.121	1.743	correct	generate	Run3	generate/STIM_019.jpg
2104.814	1.174	correct	generate	Run3	generate/STIM_019.jpg
2109.699	1.232	correct	generate	Run3	generate/STIM_020.jpg
2114.134	1.81	correct	generate	Run3	generate/STIM_020.jpg
2119.902	0.994	correct	generate	Run3	generate/STIM_020.jpg
2123.102	1.119	correct	generate	Run3	generate/STIM_020.jpg
2127.092	1.672	correct	generate	Run3	generate/STIM_020.jpg
2132.516	1.319	incorrect	generate	Run3	generate/STIM_021.jpg
2136.473	1.149	correct	generate	Run3	generate/STIM_021.jpg
2141.331	1.387	correct	generate	Run3	generate/STIM_021.jpg
2146.468	1.04	correct	generate	Run3	generate/STIM_021.jpg
2150.523	1.047	incorrect	generate	Run3	generate/STIM_021.jpg
2153.808	1.25	correct	generate	Run3	generate/STIM_022.jpg
2157.391	0.817	correct	generate	Run3	generate/STIM_022.jpg
2161.093	1.22	correct	generate	Run3	generate/STIM_022.jpg
2165.459	1.226	correct	generate	Run3	generate/STIM_022.jpg
2169.54	1.241	correct	generate	Run3	generate/STIM_022.jpg
2174.181	1.579	incorrect	generate	Run3	generate/STIM_023.jpg
2179.579	1.573	correct	generate	Run3	generate/STIM_023.jpg
2184.443	0.768	incorrect	generate	Run3	generate/STIM_023.jpg
2187.984	0.808	incorrect	generate	Run3	generate/STIM_023.jpg
2191.504	1.314	correct	generate	Run3	generate/STIM_023.jpg
2196.133	1.363	incorrect	generate	Run3	generate/STIM_024.jpg
2201.182	0.945	correct	generate	Run3	generate/STIM_024.jpg
2205.353	0.819	correct	generate	Run3	generate/STIM_024.jpg
2209.475	1.368	correct	generate	Run3	generate/STIM_024.jpg
2213.892	0.74	correct	generate	Run3	generate/STIM_024.jpg
2217.006	0.667	correct	repeat	Run3	repeat/STIM_000.jpg
2220.595	0.699	correct	repeat	Run3	repeat/STIM_000.jpg
2223.74	0.756	correct	repeat	Run3	repeat/STIM_000.jpg
2227.429	0.64	incorrect	repeat	Run3	repeat/STIM_000.jpg
2230.348	0.837	incorrect	repeat	Run3	repeat/STIM_000.jpg
2234.636	0.78	correct	repeat	Run3	repeat/STIM_001.jpg
2238.435	0.509	correct	repeat	Run3	repeat/STIM_001.jpg
2241.249	0.72	correct	repeat	Run3	repeat/STIM_001.jpg
2244.268	0.749	incorrect	repeat	Run3	repeat/STIM_001.jpg
2247.884	0.845	correct	repeat	Run3	repeat/STIM_001.jpg
2252.203	0.829	correct	repeat	Run3	repeat/STIM_002.jpg
2255.256	0.546	correct	repeat	Run3	repeat/STIM_002.jpg
2257.944	0.698	correct	repeat	Run3	repeat/STIM_002.jpg
2261.995	0.665	correct	repeat	Run3	repeat/STIM_002.jpg
2265.232	0.784	correct	repeat	Run3	repeat/STIM_002.jpg
2269.065	0.553	correct	repeat	Run3	repeat/STIM_003.jpg
2273.016	0.744	incorrect	repeat	Run3	repeat/STIM_003.jpg
2276.092	0.491	correct	repeat	Run3	repeat/STIM_003.jpg
2279.443	0.613	incorrect	repeat	Run3	repeat/STIM_003.jpg
2283.127	0.708	incorrect	repeat	Run3	repeat/STIM_003.jpg
2286.801	0.851	incorrect	repeat	Run3	repeat/STIM_004.jpg
2290.405	0.486	correct	repeat	Run3	repeat/STIM_004.jpg
2293.532	0.511	correct	repeat	Run3	repeat/STIM_004.jpg
2296.589	0.462	correct	repeat	Run3	repeat/STIM_004.jpg
2300.448	0.543	correct	repeat	Run3	repeat/STIM_004.jpg
2304.242	0.73	incorrect	repeat	Run3	repeat/STIM_005.jpg
2307.568	0.638	correct	repeat	Run3	repeat/STIM_005.jpg
2310.889	0.564	correct	repeat	Run3	repeat/STIM_005.jpg
2315.249	0.67	correct	repeat	Run3	repeat/STIM_005.jpg
2318.6	0.754	correct	repeat	Run3	repeat/STIM_005.jpg
2323.16	0.583	correct	repeat	Run3	repeat/STIM_006.jpg
2325.959	0.488	incorrect	repeat	Run3	repeat/STIM_006.jpg
2329.921	0.523	correct	repeat	Run3	repeat/STIM_006.jpg
2333.432	0.705	correct	repeat	Run3	repeat/STIM_006.jpg
2337.603	0.821	correct	repeat	Run3	repeat/STIM_006.jpg
2342.012	0.665	correct	repeat	Run3	repeat/STIM_007.jpg
2344.86	0.565	correct	repeat	Run3	repeat/STIM_007.jpg
2348.561	0.438	incorrect	repeat	Run3	repeat/STIM_007.jpg
2351.424	0.78	correct	repeat	Run3	repeat/STIM_007.jpg
2355.337	0.822	correct	repeat	Run3	repeat/STIM_007.jpg
2358.261	0.496	correct	repeat	Run3	repeat/STIM_008.jpg
2360.957	0.832	incorrect	repeat	Run3	repeat/STIM_008.jpg
2364.528	0.558	correct	repeat	Run3	repeat/STIM_008.jpg
2367.622	0.599	correct	repeat	Run3	repeat/STIM_008.jpg
2371.854	0.514	correct	repeat	Run3	repeat/STIM_008.jpg
2375.865	0.626	correct	repeat	Run3	repeat/STIM_009.jpg
2378.562	0.74	correct	repeat	Run3	repeat/STIM_009.jpg
2382.756	0.857	correct	repeat	Run3	repeat/STIM_009.jpg
2387.129	0.48	correct	repeat	Run3	repeat/STIM_009.jpg
2391.217	0.806	incorrect	repeat	Run3	repeat/STIM_009.jpg
2394.681	0.529	correct	repeat	Run3	repeat/STIM_010.jpg
2398.597	0.456	correct	repeat	Run3	repeat/STIM_010.jpg
2401.471	0.56	incorrect	repeat	Run3	repeat/STIM_010.jpg
2405.669	0.664	correct	repeat	Run3	repeat/STIM_010.jpg
2409.591	0.536	correct	repeat	Run3	repeat/STIM_010.jpg
2412.771	0.532	correct	repeat	Run3	repeat/STIM_011.jpg
2417.215	0.846	correct	repeat	Run3	repeat/STIM_011.jpg
2420.114	0.574	incorrect	repeat	Run3	repeat/STIM_011.jpg
2423.073	0.466	correct	repeat	Run3	repeat/STIM_011.jpg
2426.76	0.854	correct	repeat	Run3	repeat/STIM_011.jpg
2430.971	0.697	correct	repeat	Run3	repeat/STIM_012.jpg
2435.348	0.791	correct	repeat	Run3	repeat/STIM_012.jpg
2439.144	0.668	correct	repeat	Run3	repeat/STIM_012.jpg
2443.301	0.551	correct	repeat	Run3	repeat/STIM_012.jpg
2446.352	0.719	correct	repeat	Run3	repeat/STIM_012.jpg
2450.858	0.445	correct	repeat	Run3	repeat/STIM_013.jpg
2454.801	0.483	correct	repeat	Run3	repeat/STIM_013.jpg
2457.693	0.825	correct	repeat	Run3	repeat/STIM_013.jpg
2461.612	0.546	incorrect	repeat	Run3	repeat/STIM_013.jpg
2466.102	0.59	correct	repeat	Run3	repeat/STIM_013.jpg
2469.379	0.547	correct	repeat	Run3	repeat/STIM_014.jpg
2473.121	0.582	correct	repeat	Run3	repeat/STIM_014.jpg
2476.915	0.586	correct	repeat	Run3	repeat/STIM_014.jpg
2479.651	0.839	correct	repeat	Run3	repeat/STIM_014.jpg
2484.337	0.545	incorrect	repeat	Run3	repeat/STIM_014.jpg
2487.674	1.411	correct	generate	Run4	generate/STIM_000.jpg
2491.988	0.751	incorrect	generate	Run4	generate/STIM_000.jpg
2496.259	1.064	correct	generate	Run4	generate/STIM_000.jpg
2501.248	0.914	correct	generate	Run4	generate/STIM_000.jpg
2504.792	1.173	incorrect	generate	Run4	generate/STIM_000.jpg
2508.506	1.743	correct	generate	Run4	generate/STIM_001.jpg
2512.439	1.296	incorrect	generate	Run4	generate/STIM_001.jpg
2516.386	1.323	correct	generate	Run4	generate/STIM_001.jpg
2519.994	1.424	incorrect	generate	Run4	generate/STIM_001.jpg
2524.93	0.936	correct	generate	Run4	generate/STIM_001.jpg
2528.657	1.373	correct	generate	Run4	generate/STIM_002.jpg
2532.102	1.294	incorrect	generate	Run4	generate/STIM_002.jpg
2535.879	1.607	correct	generate	Run4	generate/STIM_002.jpg
2540.597	0.877	incorrect	generate	Run4	generate/STIM_002.jpg
2544.602	0.945	correct	generate	Run4	generate/STIM_002.jpg
2548.549	1.474	correct	generate	Run4	generate/STIM_003.jpg
2553.12	1.231	correct	generate	Run4	generate/STIM_003.jpg
2557.476	0.774	correct	generate	Run4	generate/STIM_003.jpg
2562.117	1.171	correct	generate	Run4	generate/STIM_003.jpg
2565.679	1.227	correct	generate	Run4	generate/STIM_003.jpg
2569.837	1.683	incorrect	generate	Run4	generate/STIM_004.jpg
2573.541	1.738	correct	generate	Run4	generate/STIM_004.jpg
2577.282	0.97	correct	generate	Run4	generate/STIM_004.jpg
2581.38	1.69	correct	generate	Run4	generate/STIM_004.jpg
2585.839	1.01	correct	generate	Run4	generate/STIM_004.jpg
2589.151	1.726	correct	generate	Run4	generate/STIM_005.jpg
2593.456	1.244	correct	generate	Run4	generate/STIM_005.jpg
2598.431	1.655	correct	generate	Run4	generate/STIM_005.jpg
2603.381	1.003	correct	generate	Run4	generate/STIM_005.jpg
2607.004	1.337	correct	generate	Run4	generate/STIM_005.jpg
2611.898	1.807	correct	generate	Run4	generate/STIM_006.jpg
2616.416	1.812	correct	generate	Run4	generate/STIM_006.jpg
2620.4	1.714	correct	generate	Run4	generate/STIM_006.jpg
2624.353	1.217	incorrect	generate	Run4	generate/STIM_006.jpg
2628.811	1.395	correct	generate	Run4	generate/STIM_006.jpg
2633.625	0.817	correct	generate	Run4	generate/STIM_007.jpg
2637.643	0.754	incorrect	generate	Run4	generate/STIM_007.jpg
2642.251	1.552	correct	generate	Run4	generate/STIM_007.jpg
2647.171	1.288	correct	generate	Run4	generate/STIM_007.jpg
2651.331	1.076	correct	generate	Run4	generate/STIM_007.jpg
2655.86	0.864	correct	generate	Run4	generate/STIM_008.jpg
2659.057	1.747	incorrect	generate	Run4	generate/STIM_008.jpg
2663.488	1.542	incorrect	generate	Run4	generate/STIM_008.jpg
2667.286	1.101	correct	generate	Run4	generate/STIM_008.jpg
2670.74	1.346	correct	generate	Run4	generate/STIM_008.jpg
2674.816	1.826	correct	generate	Run4	generate/STIM_009.jpg
2679.116	1.786	incorrect	generate	Run4	generate/STIM_009.jpg
2683.939	1.333	incorrect	generate	Run4	generate/STIM_009.jpg
2687.348	1.164	correct	generate	Run4	generate/STIM_009.jpg
2691.467	1.105	incorrect	generate	Run4	generate/STIM_009.jpg
2695.751	1.706	correct	generate	Run4	generate/STIM_010.jpg
2699.821	1.365	correct	generate	Run4	generate/STIM_010.jpg
2704.327	0.924	correct	generate	Run4	generate/STIM_010.jpg
2707.782	1.432	incorrect	generate	Run4	generate/STIM_010.jpg
2712.05	1.556	correct	generate	Run4	generate/STIM_010.jpg
2716.464	1.415	correct	generate	Run4	generate/STIM_011.jpg
2721.719	0.767	correct	generate	Run4	generate/STIM_011.jpg
2724.845	0.922	incorrect	generate	Run4	generate/STIM_011.jpg
2729.701	1.057	correct	generate	Run4	generate/STIM_011.jpg
2732.829	1.066	correct	generate	Run4	generate/STIM_011.jpg
2737.144	1.212	correct	generate	Run4	generate/STIM_012.jpg
2742.195	1.024	correct	generate	Run4	generate/STIM_012.jpg
2746.568	1.772	correct	generate	Run4	generate/STIM_012.jpg
2751.769	1.276	correct	generate	Run4	generate/STIM_012.jpg
2755.127	1.673	correct	generate	Run4	generate/STIM_012.jpg
2760.667	1.156	correct	generate	Run4	generate/STIM_013.jpg
2763.839	1.598	correct	generate	Run4	generate/STIM_013.jpg
2769.263	1.068	correct	generate	Run4	generate/STIM_013.jpg
2772.866	1.426	correct	generate	Run4	generate/STIM_013.jpg
2776.756	1.116	correct	generate	Run4	generate/STIM_013.jpg
2781.114	0.934	correct	generate	Run4	generate/STIM_014.jpg
2784.902	1.739	correct	generate	Run4	generate/STIM_014.jpg
2789.728	1.671	correct	generate	Run4	generate/STIM_014.jpg
2793.798	1.037	correct	generate	Run4	generate/STIM_014.jpg
2798.41	1.726	correct	generate	Run4	generate/STIM_014.jpg
2802.683	1.329	correct	generate	Run4	generate/STIM_015.jpg
2806.624	1.816	correct	generate	Run4	generate/STIM_015.jpg
2811.667	1.223	incorrect	generate	Run4	generate/STIM_015.jpg
2816.432	1.551	correct	generate	Run4	generate/STIM_015.jpg
2820.672	1.034	incorrect	generate	Run4	generate/STIM_015.jpg
2824.451	1.202	correct	generate	Run4	generate/STIM_016.jpg
2828.733	1.386	correct	generate	Run4	generate/STIM_016.jpg
2832.349	1.014	incorrect	generate	Run4	generate/STIM_016.jpg
2836.21	1.048	correct	generate	Run4	generate/STIM_016.jpg
2839.585	1.789	incorrect	generate	Run4	generate/STIM_016.jpg
2844.255	1.263	correct	generate	Run4	generate/STIM_017.jpg
2849.343	1.598	correct	generate	Run4	generate/STIM_017.jpg
2854.68	1.629	correct	generate	Run4	generate/STIM_017.jpg
2858.438	1.575	correct	generate	Run4	generate/STIM_017.jpg
2863.28	1.642	correct	generate	Run4	generate/STIM_017.jpg
2866.977	1.798	correct	generate	Run4	generate/STIM_018.jpg
2872.454	0.923	correct	generate	Run4	generate/STIM_018.jpg
2875.614	0.756	incorrect	generate	Run4	generate/STIM_018.jpg
2878.519	1.791	incorrect	generate	Run4	generate/STIM_018.jpg
2883.136	1.765	correct	generate	Run4	generate/STIM_018.jpg
2887.9	1.582	correct	generate	Run4	generate/STIM_019.jpg
2892.348	1.194	correct	generate	Run4	generate/STIM_019.jpg
2896.062	1.584	correct	generate	Run4	generate/STIM_019.jpg
2900.783	1.684	correct	generate	Run4	generate/STIM_019.jpg
2905.622	0.942	correct	generate	Run4	generate/STIM_019.jpg
2908.782	1.039	correct	generate	Run4	generate/STIM_020.jpg
2912.544	1.096	correct	generate	Run4	generate/STIM_020.jpg
2917.632	1.188	correct	generate	Run4	generate/STIM_020.jpg
2922.71	1.725	correct	generate	Run4	generate/STIM_020.jpg
2927.43	0.816	correct	generate	Run4	generate/STIM_020.jpg
2932.047	1.25	incorrect	generate	Run4	generate/STIM_021.jpg
2937.266	1.615	correct	generate	Run4	generate/STIM_021.jpg
2942.684	1.603	correct	generate	Run4	generate/STIM_021.jpg
2946.33	1.442	incorrect	generate	Run4	generate/STIM_021.jpg
2949.899	0.745	incorrect	generate	Run4	generate/STIM_021.jpg
2954.106	1.552	correct	generate	Run4	generate/STIM_022.jpg
2958.927	1.211	correct	generate	Run4	generate/STIM_022.jpg
2962.67	0.811	correct	generate	Run4	generate/STIM_022.jpg
2967.169	1.116	correct	generate	Run4	generate/STIM_022.jpg
2970.481	1.303	correct	generate	Run4	generate/STIM_022.jpg
2975.397	1.231	correct	generate	Run4	generate/STIM_023.jpg
2979.227	0.937	correct	generate	Run4	generate/STIM_023.jpg
2983.721	1.519	correct	generate	Run4	generate/STIM_023.jpg
2988.751	1.588	correct	generate	Run4	generate/STIM_023.jpg
2993.852	1.139	correct	generate	Run4	generate/STIM_023.jpg
2998.409	1.732	incorrect	generate	Run4	generate/STIM_024.jpg
3003.729	1.194	correct	generate	Run4	generate/STIM_024.jpg
3007.121	1.443	incorrect	generate	Run4	generate/STIM_024.jpg
3011.272	1.435	correct	generate	Run4	generate/STIM_024.jpg
3015.09	1.624	correct	generate	Run4	generate/STIM_024.jpg
3019.889	0.474	correct	repeat	Run4	repeat/STIM_000.jpg
3023.295	0.704	correct	repeat	Run4	repeat/STIM_000.jpg
3027.651	0.841	correct	repeat	Run4	repeat/STIM_000.jpg
3032.107	0.801	correct	repeat	Run4	repeat/STIM_000.jpg
3036.077	0.536	correct	repeat	Run4	repeat/STIM_000.jpg
3038.967	0.789	correct	repeat	Run4	repeat/STIM_001.jpg
3043.156	0.482	correct	repeat	Run4	repeat/STIM_001.jpg
3046.387	0.758	correct	repeat	Run4	repeat/STIM_001.jpg
3050.038	0.681	correct	repeat	Run4	repeat/STIM_001.jpg
3054.328	0.632	correct	repeat	Run4	repeat/STIM_001.jpg
3057.53	0.558	incorrect	repeat	Run4	repeat/STIM_002.jpg
3060.397	0.494	correct	repeat	Run4	repeat/STIM_002.jpg
3063.628	0.438	correct	repeat	Run4	repeat/STIM_002.jpg
3067.485	0.696	correct	repeat	Run4	repeat/STIM_002.jpg
3071.549	0.848	correct	repeat	Run4	repeat/STIM_002.jpg
3074.527	0.518	correct	repeat	Run4	repeat/STIM_003.jpg
3078.585	0.604	correct	repeat	Run4	repeat/STIM_003.jpg
3082.125	0.828	incorrect	repeat	Run4	repeat/STIM_003.jpg
3085.789	0.752	correct	repeat	Run4	repeat/STIM_003.jpg
3090.437	0.739	correct	repeat	Run4	repeat/STIM_003.jpg
3093.64	0.752	correct	repeat	Run4	repeat/STIM_004.jpg
3096.716	0.861	correct	repeat	Run4	repeat/STIM_004.jpg
3099.757	0.807	correct	repeat	Run4	repeat/STIM_004.jpg
3104.106	0.746	correct	repeat	Run4	repeat/STIM_004.jpg
3108.812	0.466	correct	repeat	Run4	repeat/STIM_004.jpg
3112.381	0.767	correct	repeat	Run4	repeat/STIM_005.jpg
3115.393	0.792	correct	repeat	Run4	repeat/STIM_005.jpg
3118.608	0.627	correct	repeat	Run4	repeat/STIM_005.jpg
3121.302	0.439	correct	repeat	Run4	repeat/STIM_005.jpg
3125.388	0.486	incorrect	repeat	Run4	repeat/STIM_005.jpg
3129.201	0.481	correct	repeat	Run4	repeat/STIM_006.jpg
3132.162	0.462	correct	repeat	Run4	repeat/STIM_006.jpg
3135.978	0.865	correct	repeat	Run4	repeat/STIM_006.jpg
3140.526	0.639	correct	repeat	Run4	repeat/STIM_006.jpg
3143.343	0.731	correct	repeat	Run4	repeat/STIM_006.jpg
3147.241	0.557	correct	repeat	Run4	repeat/STIM_007.jpg
3150.851	0.824	correct	repeat	Run4	repeat/STIM_007.jpg
3154.544	0.491	correct	repeat	Run4	repeat/STIM_007.jpg
3157.435	0.814	correct	repeat	Run4	repeat/STIM_007.jpg
3160.652	0.586	correct	repeat	Run4	repeat/STIM_007.jpg
3164.385	0.466	correct	repeat	Run4	repeat/STIM_008.jpg
3168.143	0.71	correct	repeat	Run4	repeat/STIM_008.jpg
3170.895	0.446	correct	repeat	Run4	repeat/STIM_008.jpg
3173.777	0.602	correct	repeat	Run4	repeat/STIM_008.jpg
3177.83	0.745	correct	repeat	Run4	repeat/STIM_008.jpg
3182.182	0.78	incorrect	repeat	Run4	repeat/STIM_009.jpg
3186.259	0.589	correct	repeat	Run4	repeat/STIM_009.jpg
3188.863	0.692	correct	repeat	Run4	repeat/STIM_009.jpg
3192.648	0.788	correct	repeat	Run4	repeat/STIM_009.jpg
3196.848	0.769	correct	repeat	Run4	repeat/STIM_009.jpg
3201.025	0.749	incorrect	repeat	Run4	repeat/STIM_010.jpg
3205.491	0.593	correct	repeat	Run4	repeat/STIM_010.jpg
3210.06	0.561	correct	repeat	Run4	repeat/STIM_010.jpg
3213.459	0.815	incorrect	repeat	Run4	repeat/STIM_010.jpg
3217.95	0.697	correct	repeat	Run4	repeat/STIM_010.jpg
3221.457	0.643	correct	repeat	Run4	repeat/STIM_011.jpg
3225.709	0.65	incorrect	repeat	Run4	repeat/STIM_011.jpg
3230.058	0.44	incorrect	repeat	Run4	repeat/STIM_011.jpg
3234.041	0.836	correct	repeat	Run4	repeat/STIM_011.jpg
3237.749	0.619	correct	repeat	Run4	repeat/STIM_011.jpg
3240.662	0.832	correct	repeat	Run4	repeat/STIM_012.jpg
3244.968	0.793	incorrect	repeat	Run4	repeat/STIM_012.jpg
3248.471	0.497	correct	repeat	Run4	repeat/STIM_012.jpg
3252.194	0.587	correct	repeat	Run4	repeat/STIM_012.jpg
3255.169	0.626	incorrect	repeat	Run4	repeat/STIM_012.jpg
3259.612	0.541	correct	repeat	Run4	repeat/STIM_013.jpg
3264.109	0.596	correct	repeat	Run4	repeat/STIM_013.jpg
3267.978	0.703	correct	repeat	Run4	repeat/STIM_013.jpg
3271.149	0.509	correct	repeat	Run4	repeat/STIM_013.jpg
3275.08	0.822	correct	repeat	Run4	repeat/STIM_013.jpg
3279.834	0.466	correct	repeat	Run4	repeat/STIM_014.jpg
3283.357	0.749	correct	repeat	Run4	repeat/STIM_014.jpg
3286.257	0.507	correct	repeat	Run4	repeat/STIM_014.jpg
3289.676	0.528	correct	repeat	Run4	repeat/STIM_014.jpg
3293.362	0.773	correct	repeat	Run4	repeat/STIM_014.jpg
