onset	duration	response_time_ms	trial_type	learning_stage	stimulus	response_port
0.0	1.211	1210.9	generate	Run1	generate/STIM_000.jpg	100
4.179	1.604	1603.7	generate	Run1	generate/STIM_000.jpg	99
8.266	2.25	2250.5	generate	Run1	generate/STIM_000.jpg	99
13.858	1.666	1666.3	generate	Run1	generate/STIM_000.jpg	100
19.067	1.083	1082.6	generate	Run1	generate/STIM_000.jpg	99
23.191	2.546	2546.1	generate	Run1	generate/STIM_001.jpg	100
29.56	1.46	1460.0	generate	Run1	generate/STIM_001.jpg	100
33.871	1.309	1308.9	generate	Run1	generate/STIM_001.jpg	99
38.877	1.31	1309.8	generate	Run1	generate/STIM_001.jpg	99
44.094	1.797	1797.1	generate	Run1	generate/STIM_001.jpg	100
49.933	2.479	2478.7	generate	Run1	generate/STIM_002.jpg	99
55.329	1.684	1683.5	generate	Run1	generate/STIM_002.jpg	99
60.023	2.299	2299.0	generate	Run1	generate/STIM_002.jpg	99
65.268	1.047	1047.2	generate	Run1	generate/STIM_002.jpg	99
69.683	0.918	917.6	generate	Run1	generate/STIM_002.jpg	99
73.867	1.74	1739.8	generate	Run1	generate/STIM_003.jpg	99
78.07	1.936	1936.5	generate	Run1	generate/STIM_003.jpg	100
82.204	1.82	1819.6	generate	Run1	generate/STIM_003.jpg	100
87.577	1.698	1697.5	generate	Run1	generate/STIM_003.jpg	99
93.045	2.149	2148.7	generate	Run1	generate/STIM_003.jpg	99
97.651	2.007	2006.8	generate	Run1	generate/STIM_004.jpg	100
102.398	2.343	2342.6	generate	Run1	generate/STIM_004.jpg	99
107.443	2.437	2436.7	generate	Run1	generate/STIM_004.jpg	99
112.712	1.605	1604.6	generate	Run1	generate/STIM_004.jpg	100
117.903	1.752	1752.2	generate	Run1	generate/STIM_004.jpg	99
123.663	1.966	1966.1	generate	Run1	generate/STIM_005.jpg	100
128.821	2.498	2498.4	generate	Run1	generate/STIM_005.jpg	100
134.366	2.407	2407.4	generate	Run1	generate/STIM_005.jpg	99
140.455	1.644	1644.0	generate	Run1	generate/STIM_005.jpg	99
144.834	1.977	1976.6	generate	Run1	generate/STIM_005.jpg	99
149.639	2.152	2152.2	generate	Run1	generate/STIM_006.jpg	100
155.656	1.717	1717.3	generate	Run1	generate/STIM_006.jpg	100
160.703	2.145	2145.3	generate	Run1	generate/STIM_006.jpg	100
165.265	1.85	1850.5	generate	Run1	generate/STIM_006.jpg	100
170.475	1.109	1108.7	generate	Run1	generate/STIM_006.jpg	100
174.325	1.847	1846.7	generate	Run1	generate/STIM_007.jpg	99
179.475	2.252	2251.9	generate	Run1	generate/STIM_007.jpg	100
184.327	1.027	1027.4	generate	Run1	generate/STIM_007.jpg	99
187.453	1.679	1679.3	generate	Run1	generate/STIM_007.jpg	99
192.437	1.958	1958.3	generate	Run1	generate/STIM_007.jpg	100
197.397	2.006	2005.5	generate	Run1	generate/STIM_008.jpg	100
202.156	1.779	1779.3	generate	Run1	generate/STIM_008.jpg	99
206.424	1.601	1601.3	generate	Run1	generate/STIM_008.jpg	100
210.283	1.336	1335.5	generate	Run1	generate/STIM_008.jpg	100
215.379	1.313	1312.9	generate	Run1	generate/STIM_008.jpg	100
220.043	1.572	1571.7	generate	Run1	generate/STIM_009.jpg	100
223.946	2.498	2498.4	generate	Run1	generate/STIM_009.jpg	99
228.822	1.489	1489.0	generate	Run1	generate/STIM_009.jpg	99
233.524	2.109	2109.0	generate	Run1	generate/STIM_009.jpg	100
238.772	0.911	911.2	generate	Run1	generate/STIM_009.jpg	99
242.169	1.956	1955.8	generate	Run1	generate/STIM_010.jpg	99
247.835	1.772	1771.5	generate	Run1	generate/STIM_010.jpg	100
252.551	1.294	1293.9	generate	Run1	generate/STIM_010.jpg	100
256.745	2.066	2065.9	generate	Run1	generate/STIM_010.jpg	100
262.38	1.804	1804.3	generate	Run1	generate/STIM_010.jpg	100
266.738	2.522	2522.3	generate	Run1	generate/STIM_011.jpg	100
272.688	2.315	2314.8	generate	Run1	generate/STIM_011.jpg	100
278.16	1.438	1437.6	generate	Run1	generate/STIM_011.jpg	100
283.35	1.846	1845.7	generate	Run1	generate/STIM_011.jpg	99
287.776	1.108	1107.8	generate	Run1	generate/STIM_011.jpg	100
291.608	1.593	1593.0	generate	Run1	generate/STIM_012.jpg	99
297.145	2.263	2262.8	generate	Run1	generate/STIM_012.jpg	100
302.887	1.377	1376.6	generate	Run1	generate/STIM_012.jpg	99
306.446	1.305	1304.9	generate	Run1	generate/STIM_012.jpg	100
310.459	1.732	1731.5	generate	Run1	generate/STIM_012.jpg	100
314.501	1.685	1684.9	generate	Run1	generate/STIM_013.jpg	100
318.819	2.261	2261.1	generate	Run1	generate/STIM_013.jpg	100
325.036	1.276	1276.3	generate	Run1	generate/STIM_013.jpg	100
328.892	1.378	1378.0	generate	Run1	generate/STIM_013.jpg	99
332.746	1.292	1292.5	generate	Run1	generate/STIM_013.jpg	99
337.418	2.45	2450.0	generate	Run1	generate/STIM_014.jpg	99
342.404	1.264	1264.5	generate	Run1	generate/STIM_014.jpg	99
345.987	1.565	1565.2	generate	Run1	generate/STIM_014.jpg	100
349.989	1.817	1816.6	generate	Run1	generate/STIM_014.jpg	100
354.54	1.515	1514.8	generate	Run1	generate/STIM_014.jpg	99
358.97	2.646	2646.1	generate	Run1	generate/STIM_015.jpg	100
365.711	1.636	1636.3	generate	Run1	generate/STIM_015.jpg	100
369.663	1.354	1354.5	generate	Run1	generate/STIM_015.jpg	99
373.331	1.715	1715.4	generate	Run1	generate/STIM_015.jpg	99
377.555	1.606	1606.5	generate	Run1	generate/STIM_015.jpg	99
382.056	1.987	1986.7	generate	Run1	generate/STIM_016.jpg	99
386.801	1.569	1568.7	generate	Run1	generate/STIM_016.jpg	100
391.085	1.141	1141.0	generate	Run1	generate/STIM_016.jpg	100
394.956	2.257	2257.4	generate	Run1	generate/STIM_016.jpg	100
400.09	1.682	1682.5	generate	Run1	generate/STIM_016.jpg	100
405.754	2.742	2742.5	generate	Run1	generate/STIM_017.jpg	100
411.842	1.314	1314.0	generate	Run1	generate/STIM_017.jpg	100
416.205	1.991	1990.7	generate	Run1	generate/STIM_017.jpg	99
422.03	1.377	1377.1	generate	Run1	generate/STIM_017.jpg	99
427.355	2.007	2007.0	generate	Run1	generate/STIM_017.jpg	100
433.171	1.914	1913.5	generate	Run1	generate/STIM_018.jpg	99
438.026	2.663	2663.2	generate	Run1	generate/STIM_018.jpg	100
444.69	1.859	1859.2	generate	Run1	generate/STIM_018.jpg	99
449.144	1.484	1484.0	generate	Run1	generate/STIM_018.jpg	100
453.967	1.86	1860.0	generate	Run1	generate/STIM_018.jpg	99
458.347	1.879	1878.8	generate	Run1	generate/STIM_019.jpg	99
463.74	2.04	2039.8	generate	Run1	generate/STIM_019.jpg	99
469.621	2.112	2111.8	generate	Run1	generate/STIM_019.jpg	99
474.525	2.157	2157.1	generate	Run1	generate/STIM_019.jpg	99
480.693	0.915	914.7	generate	Run1	generate/STIM_019.jpg	100
484.671	2.392	2392.4	generate	Run1	generate/STIM_020.jpg	99
490.119	1.56	1559.7	generate	Run1	generate/STIM_020.jpg	99
494.754	1.632	1632.0	generate	Run1	generate/STIM_020.jpg	100
499.392	1.138	1138.5	generate	Run1	generate/STIM_020.jpg	99
504.388	1.392	1391.9	generate	Run1	generate/STIM_020.jpg	100
508.844	1.156	1156.1	generate	Run1	generate/STIM_021.jpg	100
512.554	2.428	2428.1	generate	Run1	generate/STIM_021.jpg	99
518.119	2.234	2233.5	generate	Run1	generate/STIM_021.jpg	99
523.841	1.104	1104.1	generate	Run1	generate/STIM_021.jpg	99
528.572	1.426	1425.8	generate	Run1	generate/STIM_021.jpg	100
533.306	2.152	2152.3	generate	Run1	generate/STIM_022.jpg	99
538.935	1.568	1568.3	generate	Run1	generate/STIM_022.jpg	99
542.722	1.858	1857.9	generate	Run1	generate/STIM_022.jpg	100
548.425	1.223	1222.6	generate	Run1	generate/STIM_022.jpg	99
552.361	1.641	1641.3	generate	Run1	generate/STIM_022.jpg	99
557.554	1.811	1810.8	generate	Run1	generate/STIM_023.jpg	100
561.571	1.287	1287.3	generate	Run1	generate/STIM_023.jpg	99
565.273	2.06	2060.3	generate	Run1	generate/STIM_023.jpg	99
570.851	1.263	1263.3	generate	Run1	generate/STIM_023.jpg	99
574.614	1.619	1619.0	generate	Run1	generate/STIM_023.jpg	99
579.272	2.83	2829.7	generate	Run1	generate/STIM_024.jpg	99
584.662	1.396	1396.0	generate	Run1	generate/STIM_024.jpg	100
590.092	1.987	1987.3	generate	Run1	generate/STIM_024.jpg	100
594.52	1.666	1666.1	generate	Run1	generate/STIM_024.jpg	99
599.781	1.176	1175.5	generate	Run1	generate/STIM_024.jpg	100
603.167	0.482	482.2	repeat	Run1	repeat/STIM_000.jpg	99
605.915	0.719	719.3	repeat	Run1	repeat/STIM_000.jpg	99
610.53	0.828	827.7	repeat	Run1	repeat/STIM_000.jpg	99
614.218	0.735	734.7	repeat	Run1	repeat/STIM_000.jpg	100
617.257	0.756	756.1	repeat	Run1	repeat/STIM_000.jpg	99
620.19	0.832	832.0	repeat	Run1	repeat/STIM_001.jpg	100
623.381	0.528	527.6	repeat	Run1	repeat/STIM_001.jpg	100
627.861	0.915	914.7	repeat	Run1	repeat/STIM_001.jpg	99
631.949	0.574	574.3	repeat	Run1	repeat/STIM_001.jpg	99
636.51	0.585	585.3	repeat	Run1	repeat/STIM_001.jpg	99
639.28	0.698	697.8	repeat	Run1	repeat/STIM_002.jpg	100
643.614	0.704	703.8	repeat	Run1	repeat/STIM_002.jpg	99
648.324	0.516	516.2	repeat	Run1	repeat/STIM_002.jpg	99
652.801	0.53	530.3	repeat	Run1	repeat/STIM_002.jpg	99
656.679	0.869	868.6	repeat	Run1	repeat/STIM_002.jpg	100
661.358	0.725	725.0	repeat	Run1	repeat/STIM_003.jpg	99
664.293	0.942	942.2	repeat	Run1	repeat/STIM_003.jpg	99
667.823	0.916	916.2	repeat	Run1	repeat/STIM_003.jpg	99
671.212	0.524	523.9	repeat	Run1	repeat/STIM_003.jpg	100
675.403	0.659	659.0	repeat	Run1	repeat/STIM_003.jpg	99
679.666	0.692	692.5	repeat	Run1	repeat/STIM_004.jpg	100
683.055	0.643	643.4	repeat	Run1	repeat/STIM_004.jpg	100
687.026	0.517	517.2	repeat	Run1	repeat/STIM_004.jpg	100
689.837	0.937	936.6	repeat	Run1	repeat/STIM_004.jpg	100
693.39	0.899	899.2	repeat	Run1	repeat/STIM_004.jpg	99
696.748	0.612	612.5	repeat	Run1	repeat/STIM_005.jpg	100
699.438	0.703	703.1	repeat	Run1	repeat/STIM_005.jpg	99
703.365	0.608	608.4	repeat	Run1	repeat/STIM_005.jpg	99
706.507	0.55	549.9	repeat	Run1	repeat/STIM_005.jpg	100
709.774	0.686	686.4	repeat	Run1	repeat/STIM_005.jpg	99
714.344	0.746	746.2	repeat	Run1	repeat/STIM_006.jpg	100
718.882	0.752	752.0	repeat	Run1	repeat/STIM_006.jpg	100
722.112	0.725	725.1	repeat	Run1	repeat/STIM_006.jpg	100
725.619	0.852	851.9	repeat	Run1	repeat/STIM_006.jpg	100
730.383	0.663	662.8	repeat	Run1	repeat/STIM_006.jpg	99
734.191	0.723	722.9	repeat	Run1	repeat/STIM_007.jpg	99
737.384	0.812	812.2	repeat	Run1	repeat/STIM_007.jpg	100
740.358	0.784	783.7	repeat	Run1	repeat/STIM_007.jpg	100
743.979	0.683	682.6	repeat	Run1	repeat/STIM_007.jpg	99
747.258	0.513	513.4	repeat	Run1	repeat/STIM_007.jpg	99
750.252	0.7	699.9	repeat	Run1	repeat/STIM_008.jpg	99
754.556	0.713	713.2	repeat	Run1	repeat/STIM_008.jpg	99
757.911	0.519	519.3	repeat	Run1	repeat/STIM_008.jpg	100
761.621	0.844	844.4	repeat	Run1	repeat/STIM_008.jpg	100
765.423	0.671	671.0	repeat	Run1	repeat/STIM_008.jpg	99
768.245	0.749	749.0	repeat	Run1	repeat/STIM_009.jpg	99
771.425	0.508	508.2	repeat	Run1	repeat/STIM_009.jpg	100
774.722	0.501	500.7	repeat	Run1	repeat/STIM_009.jpg	100
777.412	0.492	491.5	repeat	Run1	repeat/STIM_009.jpg	100
780.866	0.584	583.7	repeat	Run1	repeat/STIM_009.jpg	99
784.271	0.925	924.9	repeat	Run1	repeat/STIM_010.jpg	99
787.345	0.67	669.6	repeat	Run1	repeat/STIM_010.jpg	100
791.386	0.644	644.5	repeat	Run1	repeat/STIM_010.jpg	99
794.637	0.694	694.5	repeat	Run1	repeat/STIM_010.jpg	100
797.784	0.567	566.8	repeat	Run1	repeat/STIM_010.jpg	100
802.1	0.568	568.3	repeat	Run1	repeat/STIM_011.jpg	99
805.497	0.766	765.8	repeat	Run1	repeat/STIM_011.jpg	100
809.698	0.483	482.9	repeat	Run1	repeat/STIM_011.jpg	100
813.266	0.91	909.7	repeat	Run1	repeat/STIM_011.jpg	99
816.598	0.798	798.0	repeat	Run1	repeat/STIM_011.jpg	100
820.201	0.866	865.9	repeat	Run1	repeat/STIM_012.jpg	100
825.007	0.773	773.0	repeat	Run1	repeat/STIM_012.jpg	100
828.651	0.764	763.7	repeat	Run1	repeat/STIM_012.jpg	99
831.651	0.639	639.1	repeat	Run1	repeat/STIM_012.jpg	100
835.155	0.748	748.0	repeat	Run1	repeat/STIM_012.jpg	100
838.216	0.855	854.9	repeat	Run1	repeat/STIM_013.jpg	99
841.619	0.91	909.5	repeat	Run1	repeat/STIM_013.jpg	99
846.149	0.557	557.1	repeat	Run1	repeat/STIM_013.jpg	99
850.592	0.898	898.0	repeat	Run1	repeat/STIM_013.jpg	100
853.976	0.878	878.0	repeat	Run1	repeat/STIM_013.jpg	100
856.994	0.538	537.7	repeat	Run1	repeat/STIM_014.jpg	100
859.803	0.93	929.8	repeat	Run1	repeat/STIM_014.jpg	99
864.76	0.742	741.8	repeat	Run1	repeat/STIM_014.jpg	99
868.758	0.487	487.4	repeat	Run1	repeat/STIM_014.jpg	100
873.058	0.793	792.9	repeat	Run1	repeat/STIM_014.jpg	100
876.14	1.114	1114.0	generate	Run2	generate/STIM_000.jpg	100
880.327	2.224	2224.3	generate	Run2	generate/STIM_000.jpg	99
884.989	0.984	983.6	generate	Run2	generate/STIM_000.jpg	100
889.502	1.887	1887.2	generate	Run2	generate/STIM_000.jpg	99
895.181	1.552	1551.9	generate	Run2	generate/STIM_000.jpg	99
898.963	2.124	2123.6	generate	Run2	generate/STIM_001.jpg	99
903.298	1.914	1914.2	generate	Run2	generate/STIM_001.jpg	100
907.723	1.813	1812.6	generate	Run2	generate/STIM_001.jpg	99
912.602	1.656	1656.0	generate	Run2	generate/STIM_001.jpg	99
918.34	1.736	1736.4	generate	Run2	generate/STIM_001.jpg	99
923.397	1.461	1461.4	generate	Run2	generate/STIM_002.jpg	100
927.738	1.789	1788.8	generate	Run2	generate/STIM_002.jpg	99
932.135	1.008	1008.2	generate	Run2	generate/STIM_002.jpg	99
936.592	1.264	1263.6	generate	Run2	generate/STIM_002.jpg	100
940.603	1.795	1795.2	generate	Run2	generate/STIM_002.jpg	99
945.945	2.112	2112.0	generate	Run2	generate/STIM_003.jpg	100
950.915	1.84	1840.5	generate	Run2	generate/STIM_003.jpg	100
955.559	0.927	926.6	generate	Run2	generate/STIM_003.jpg	99
959.994	1.088	1088.5	generate	Run2	generate/STIM_003.jpg	100
963.871	1.014	1014.0	generate	Run2	generate/STIM_003.jpg	99
967.242	1.654	1653.5	generate	Run2	generate/STIM_004.jpg	100
971.179	1.244	1243.9	generate	Run2	generate/STIM_004.jpg	100
974.617	1.892	1892.1	generate	Run2	generate/STIM_004.jpg	99
978.803	1.753	1752.8	generate	Run2	generate/STIM_004.jpg	100
982.785	1.858	1858.5	generate	Run2	generate/STIM_004.jpg	100
988.493	1.164	1164.2	generate	Run2	generate/STIM_005.jpg	100
993.391	2.022	2022.4	generate	Run2	generate/STIM_005.jpg	100
997.714	1.205	1205.0	generate	Run2	generate/STIM_005.jpg	99
1001.957	0.98	979.6	generate	Run2	generate/STIM_005.jpg	100
1005.76	1.893	1893.1	generate	Run2	generate/STIM_005.jpg	99
1010.234	1.671	1670.6	generate	Run2	generate/STIM_006.jpg	99
1015.174	1.671	1670.6	generate	Run2	generate/STIM_006.jpg	100
1019.836	1.918	1918.0	generate	Run2	generate/STIM_006.jpg	100
1025.105	1.709	1709.4	generate	Run2	generate/STIM_006.jpg	100
1030.798	1.23	1229.6	generate	Run2	generate/STIM_006.jpg	100
1035.689	1.822	1821.9	generate	Run2	generate/STIM_007.jpg	100
1041.341	1.462	1461.8	generate	Run2	generate/STIM_007.jpg	99
1045.413	1.495	1494.6	generate	Run2	generate/STIM_007.jpg	99
1050.477	1.569	1568.7	generate	Run2	generate/STIM_007.jpg	100
1055.948	0.841	840.8	generate	Run2	generate/STIM_007.jpg	99
1060.65	2.31	2310.0	generate	Run2	generate/STIM_008.jpg	99
1066.759	1.332	1332.5	generate	Run2	generate/STIM_008.jpg	99
1070.665	1.665	1664.6	generate	Run2	generate/STIM_008.jpg	100
1074.924	1.911	1910.8	generate	Run2	generate/STIM_008.jpg	99
1080.778	1.776	1776.1	generate	Run2	generate/STIM_008.jpg	100
1085.94	1.572	1571.8	generate	Run2	generate/STIM_009.jpg	100
1090.509	1.222	1222.0	generate	Run2	generate/STIM_009.jpg	100
1094.289	0.952	952.4	generate	Run2	generate/STIM_009.jpg	99
1098.167	1.37	1370.2	generate	Run2	generate/STIM_009.jpg	99
1101.928	1.68	1680.4	generate	Run2	generate/STIM_009.jpg	99
1105.876	1.047	1047.0	generate	Run2	generate/STIM_010.jpg	99
1110.024	0.948	948.4	generate	Run2	generate/STIM_010.jpg	100
1114.924	1.672	1671.7	generate	Run2	generate/STIM_010.jpg	100
1120.131	1.568	1568.3	generate	Run2	generate/STIM_010.jpg	99
1125.776	0.948	947.8	generate	Run2	generate/STIM_010.jpg	100
1129.101	1.023	1023.1	generate	Run2	generate/STIM_011.jpg	99
1132.512	1.684	1683.9	generate	Run2	generate/STIM_011.jpg	100
1137.283	1.699	1698.6	generate	Run2	generate/STIM_011.jpg	99
1142.222	1.354	1354.1	generate	Run2	generate/STIM_011.jpg	99
1146.691	1.125	1124.7	generate	Run2	generate/STIM_011.jpg	100
1150.897	2.226	2226.4	generate	Run2	generate/STIM_012.jpg	99
1156.418	1.174	1174.4	generate	Run2	generate/STIM_012.jpg	99
1161.0	1.072	1071.7	generate	Run2	generate/STIM_012.jpg	100
1164.568	0.846	845.9	generate	Run2	generate/STIM_012.jpg	99
1168.442	1.037	1037.0	generate	Run2	generate/STIM_012.jpg	100
1172.304	1.932	1931.6	generate	Run2	generate/STIM_013.jpg	99
1176.369	1.624	1623.6	generate	Run2	generate/STIM_013.jpg	100
1181.487	1.484	1483.8	generate	Run2	generate/STIM_013.jpg	100
1185.654	1.019	1019.1	generate	Run2	generate/STIM_013.jpg	100
1189.129	1.827	1827.2	generate	Run2	generate/STIM_013.jpg	99
1193.837	0.968	968.1	generate	Run2	generate/STIM_014.jpg	100
1197.408	2.126	2126.2	generate	Run2	generate/STIM_014.jpg	99
1202.008	1.952	1952.3	generate	Run2	generate/STIM_014.jpg	99
1207.986	0.914	914.4	generate	Run2	generate/STIM_014.jpg	99
1211.81	1.017	1016.7	generate	Run2	generate/STIM_014.jpg	99
1215.817	1.45	1449.9	generate	Run2	generate/STIM_015.jpg	100
1221.225	1.542	1541.6	generate	Run2	generate/STIM_015.jpg	100
1225.85	0.906	905.6	generate	Run2	generate/STIM_015.jpg	100
1230.026	1.05	1049.7	generate	Run2	generate/STIM_015.jpg	100
1233.295	1.522	1521.5	generate	Run2	generate/STIM_015.jpg	99
1238.598	1.072	1072.4	generate	Run2	generate/STIM_016.jpg	100
1242.423	1.535	1535.3	generate	Run2	generate/STIM_016.jpg	99
1246.23	1.696	1695.7	generate	Run2	generate/STIM_016.jpg	100
1250.774	1.904	1904.4	generate	Run2	generate/STIM_016.jpg	99
1255.217	1.496	1496.4	generate	Run2	generate/STIM_016.jpg	100
1259.31	0.988	988.4	generate	Run2	generate/STIM_017.jpg	99
1263.077	1.717	1717.2	generate	Run2	generate/STIM_017.jpg	100
1267.141	1.759	1758.8	generate	Run2	generate/STIM_017.jpg	100
1272.267	1.605	1604.7	generate	Run2	generate/STIM_017.jpg	99
1277.071	1.904	1903.9	generate	Run2	generate/STIM_017.jpg	100
1281.589	2.216	2215.7	generate	Run2	generate/STIM_018.jpg	99
1286.149	1.946	1945.7	generate	Run2	generate/STIM_018.jpg	100
1290.695	1.9	1900.0	generate	Run2	generate/STIM_018.jpg	99
1296.42	1.819	1819.3	generate	Run2	generate/STIM_018.jpg	100
1301.98	1.275	1274.9	generate	Run2	generate/STIM_018.jpg	100
1306.797	2.21	2209.6	generate	Run2	generate/STIM_019.jpg	100
1311.996	2.222	2222.5	generate	Run2	generate/STIM_019.jpg	100
1317.604	1.659	1659.0	generate	Run2	generate/STIM_019.jpg	100
1323.101	0.9	900.2	generate	Run2	generate/STIM_019.jpg	99
1326.079	0.898	897.6	generate	Run2	generate/STIM_019.jpg	100
1329.544	1.437	1437.1	generate	Run2	generate/STIM_020.jpg	100
1333.59	1.03	1029.6	generate	Run2	generate/STIM_020.jpg	99
1337.187	1.846	1845.9	generate	Run2	generate/STIM_020.jpg	100
1341.397	1.943	1943.1	generate	Run2	generate/STIM_020.jpg	100
1346.947	1.886	1885.6	generate	Run2	generate/STIM_020.jpg	100
1351.97	1.156	1155.9	generate	Run2	generate/STIM_021.jpg	99
1356.088	1.043	1043.4	generate	Run2	generate/STIM_021.jpg	100
1359.959	1.451	1451.0	generate	Run2	generate/STIM_021.jpg	100
1364.178	1.314	1313.6	generate	Run2	generate/STIM_021.jpg	100
1368.196	1.806	1805.8	generate	Run2	generate/STIM_021.jpg	99
1373.544	2.098	2098.5	generate	Run2	generate/STIM_022.jpg	100
1379.764	1.902	1902.0	generate	Run2	generate/STIM_022.jpg	100
1385.535	1.565	1564.9	generate	Run2	generate/STIM_022.jpg	100
1390.231	1.414	1414.3	generate	Run2	generate/STIM_022.jpg	100
1395.182	1.134	1134.4	generate	Run2	generate/STIM_022.jpg	100
1398.396	1.488	1488.3	generate	Run2	generate/STIM_023.jpg	99
1403.235	2.037	2037.3	generate	Run2	generate/STIM_023.jpg	100
1408.163	1.896	1896.2	generate	Run2	generate/STIM_023.jpg	99
1414.045	0.839	839.1	generate	Run2	generate/STIM_023.jpg	100
1417.026	1.224	1223.9	generate	Run2	generate/STIM_023.jpg	100
1420.417	1.09	1090.1	generate	Run2	generate/STIM_024.jpg	99
1425.535	1.123	1123.4	generate	Run2	generate/STIM_024.jpg	99
1430.395	1.764	1764.3	generate	Run2	generate/STIM_024.jpg	99
1435.897	1.574	1573.6	generate	Run2	generate/STIM_024.jpg	99
1441.274	1.67	1670.0	generate	Run2	generate/STIM_024.jpg	99
1446.721	0.859	859.3	repeat	Run2	repeat/STIM_000.jpg	99
1449.803	0.815	815.4	repeat	Run2	repeat/STIM_000.jpg	99
1452.793	0.513	513.4	repeat	Run2	repeat/STIM_000.jpg	99
1455.458	0.699	699.3	repeat	Run2	repeat/STIM_000.jpg	100
1459.79	0.673	673.0	repeat	Run2	repeat/STIM_000.jpg	99
1464.063	0.492	491.5	repeat	Run2	repeat/STIM_001.jpg	99
1467.036	0.816	816.1	repeat	Run2	repeat/STIM_001.jpg	100
1471.188	0.553	553.0	repeat	Run2	repeat/STIM_001.jpg	99
1475.619	0.907	907.1	repeat	Run2	repeat/STIM_001.jpg	100
1480.081	0.476	476.3	repeat	Run2	repeat/STIM_001.jpg	99
1482.88	0.624	623.9	repeat	Run2	repeat/STIM_002.jpg	100
1486.868	0.878	877.6	repeat	Run2	repeat/STIM_002.jpg	100
1489.864	0.54	540.0	repeat	Run2	repeat/STIM_002.jpg	99
1492.56	0.522	522.5	repeat	Run2	repeat/STIM_002.jpg	99
1496.961	0.856	855.7	repeat	Run2	repeat/STIM_002.jpg	99
1501.53	0.496	496.0	repeat	Run2	repeat/STIM_003.jpg	100
1505.376	0.568	567.5	repeat	Run2	repeat/STIM_003.jpg	100
1508.059	0.718	717.9	repeat	Run2	repeat/STIM_003.jpg	100
1512.063	0.73	730.2	repeat	Run2	repeat/STIM_003.jpg	100
1516.811	0.535	535.1	repeat	Run2	repeat/STIM_003.jpg	100
1519.909	0.707	707.2	repeat	Run2	repeat/STIM_004.jpg	100
1522.673	0.58	579.8	repeat	Run2	repeat/STIM_004.jpg	100
1527.05	0.653	653.3	repeat	Run2	repeat/STIM_004.jpg	100
1529.751	0.735	734.9	repeat	Run2	repeat/STIM_004.jpg	100
1532.915	0.635	635.3	repeat	Run2	repeat/STIM_004.jpg	99
1536.621	0.76	759.6	repeat	Run2	repeat/STIM_005.jpg	100
1541.119	0.888	888.4	repeat	Run2	repeat/STIM_005.jpg	100
1545.049	0.78	779.6	repeat	Run2	repeat/STIM_005.jpg	100
1547.919	0.641	640.7	repeat	Run2	repeat/STIM_005.jpg	99
1552.545	0.794	793.6	repeat	Run2	repeat/STIM_005.jpg	100
1556.178	0.545	545.0	repeat	Run2	repeat/STIM_006.jpg	100
1559.64	0.618	618.0	repeat	Run2	repeat/STIM_006.jpg	99
1564.009	0.611	610.9	repeat	Run2	repeat/STIM_006.jpg	100
1567.106	0.757	757.4	repeat	Run2	repeat/STIM_006.jpg	100
1570.037	0.862	862.1	repeat	Run2	repeat/STIM_006.jpg	99
1574.831	0.588	587.8	repeat	Run2	repeat/STIM_007.jpg	100
1577.473	0.555	555.2	repeat	Run2	repeat/STIM_007.jpg	100
1581.882	0.882	881.9	repeat	Run2	repeat/STIM_007.jpg	99
1586.259	0.781	781.0	repeat	Run2	repeat/STIM_007.jpg	99
1590.07	0.575	575.2	repeat	Run2	repeat/STIM_007.jpg	100
1593.014	0.783	783.3	repeat	Run2	repeat/STIM_008.jpg	99
1597.106	0.796	795.8	repeat	Run2	repeat/STIM_008.jpg	99
1601.637	0.561	561.1	repeat	Run2	repeat/STIM_008.jpg	100
1604.568	0.747	747.4	repeat	Run2	repeat/STIM_008.jpg	99
1607.984	0.755	755.4	repeat	Run2	repeat/STIM_008.jpg	100
1612.136	0.552	551.6	repeat	Run2	repeat/STIM_009.jpg	99
1616.096	0.835	835.2	repeat	Run2	repeat/STIM_009.jpg	100
1619.326	0.927	927.1	repeat	Run2	repeat/STIM_009.jpg	100
1624.216	0.671	670.9	repeat	Run2	repeat/STIM_009.jpg	99
1628.562	0.664	664.2	repeat	Run2	repeat/STIM_009.jpg	100
1632.096	0.802	802.5	repeat	Run2	repeat/STIM_010.jpg	99
1635.841	0.705	704.7	repeat	Run2	repeat/STIM_010.jpg	100
1638.808	0.787	786.8	repeat	Run2	repeat/STIM_010.jpg	100
1642.018	0.55	549.5	repeat	Run2	repeat/STIM_010.jpg	99
1645.727	0.636	635.9	repeat	Run2	repeat/STIM_010.jpg	99
1649.49	0.536	536.4	repeat	Run2	repeat/STIM_011.jpg	100
1654.017	0.844	843.5	repeat	Run2	repeat/STIM_011.jpg	99
1658.028	0.613	612.6	repeat	Run2	repeat/STIM_011.jpg	100
1661.288	0.86	860.2	repeat	Run2	repeat/STIM_011.jpg	99
1665.255	0.876	875.5	repeat	Run2	repeat/STIM_011.jpg	99
1668.661	0.728	727.9	repeat	Run2	repeat/STIM_012.jpg	99
1673.312	0.713	713.2	repeat	Run2	repeat/STIM_012.jpg	100
1676.676	0.939	938.9	repeat	Run2	repeat/STIM_012.jpg	99
1681.536	0.755	754.9	repeat	Run2	repeat/STIM_012.jpg	100
1685.047	0.938	938.4	repeat	Run2	repeat/STIM_012.jpg	99
1689.392	0.915	915.3	repeat	Run2	repeat/STIM_013.jpg	99
1692.434	0.616	615.7	repeat	Run2	repeat/STIM_013.jpg	99
1696.364	0.926	926.2	repeat	Run2	repeat/STIM_013.jpg	100
1700.8	0.845	844.8	repeat	Run2	repeat/STIM_013.jpg	99
1705.14	0.5	499.7	repeat	Run2	repeat/STIM_013.jpg	100
1709.446	0.942	942.4	repeat	Run2	repeat/STIM_014.jpg	99
1713.731	0.574	574.4	repeat	Run2	repeat/STIM_014.jpg	99
1717.435	0.857	856.8	repeat	Run2	repeat/STIM_014.jpg	100
1721.073	0.805	805.3	repeat	Run2	repeat/STIM_014.jpg	99
1725.196	0.79	790.0	repeat	Run2	repeat/STIM_014.jpg	100
1729.365	1.014	1014.3	generate	Run3	generate/STIM_000.jpg	100
1732.47	1.792	1791.9	generate	Run3	generate/STIM_000.jpg	99
1737.296	1.809	1808.7	generate	Run3	generate/STIM_000.jpg	100
1742.628	1.758	1758.3	generate	Run3	generate/STIM_000.jpg	99
1746.99	1.439	1438.8	generate	Run3	generate/STIM_000.jpg	100
1750.908	1.022	1022.4	generate	Run3	generate/STIM_001.jpg	100
1754.083	1.756	1756.0	generate	Run3	generate/STIM_001.jpg	99
1759.902	1.932	1931.5	generate	Run3	generate/STIM_001.jpg	100
1765.437	1.88	1879.9	generate	Run3	generate/STIM_001.jpg	100
1771.151	1.305	1304.8	generate	Run3	generate/STIM_001.jpg	99
1774.586	1.911	1910.6	generate	Run3	generate/STIM_002.jpg	100
1780.491	1.497	1497.1	generate	Run3	generate/STIM_002.jpg	100
1784.528	1.445	1444.9	generate	Run3	generate/STIM_002.jpg	100
1789.083	1.026	1025.7	generate	Run3	generate/STIM_002.jpg	99
1793.722	1.273	1272.6	generate	Run3	generate/STIM_002.jpg	100
1797.981	1.932	1931.6	generate	Run3	generate/STIM_003.jpg	100
1802.919	1.463	1462.7	generate	Run3	generate/STIM_003.jpg	99
1807.803	0.898	897.9	generate	Run3	generate/STIM_003.jpg	99
1811.182	1.895	1894.9	generate	Run3	generate/STIM_003.jpg	100
1816.056	1.968	1968.3	generate	Run3	generate/STIM_003.jpg	100
1821.01	1.038	1038.5	generate	Run3	generate/STIM_004.jpg	99
1825.229	1.5	1500.5	generate	Run3	generate/STIM_004.jpg	100
1829.593	1.304	1304.0	generate	Run3	generate/STIM_004.jpg	99
1834.696	0.8	799.5	generate	Run3	generate/STIM_004.jpg	99
1839.332	1.526	1525.5	generate	Run3	generate/STIM_004.jpg	100
1844.604	0.816	816.2	generate	Run3	generate/STIM_005.jpg	100
1849.05	1.043	1043.3	generate	Run3	generate/STIM_005.jpg	99
1853.721	0.827	827.3	generate	Run3	generate/STIM_005.jpg	100
1858.345	1.387	1387.0	generate	Run3	generate/STIM_005.jpg	100
1862.733	1.366	1366.4	generate	Run3	generate/STIM_005.jpg	100
1866.28	0.953	953.0	generate	Run3	generate/STIM_006.jpg	99
1871.068	1.846	1846.2	generate	Run3	generate/STIM_006.jpg	99
1875.719	1.449	1449.2	generate	Run3	generate/STIM_006.jpg	99
1879.281	1.765	1764.7	generate	Run3	generate/STIM_006.jpg	99
1884.222	1.05	1049.7	generate	Run3	generate/STIM_006.jpg	100
1888.368	1.136	1136.0	generate	Run3	generate/STIM_007.jpg	99
1893.134	1.209	1209.4	generate	Run3	generate/STIM_007.jpg	99
1897.456	1.102	1101.6	generate	Run3	generate/STIM_007.jpg	99
1902.285	1.103	1102.9	generate	Run3	generate/STIM_007.jpg	100
1907.351	1.832	1831.6	generate	Run3	generate/STIM_007.jpg	99
1911.524	0.801	801.0	generate	Run3	generate/STIM_008.jpg	100
1915.741	0.976	976.5	generate	Run3	generate/STIM_008.jpg	99
1919.493	0.858	858.5	generate	Run3	generate/STIM_008.jpg	99
1923.54	1.613	1613.1	generate	Run3	generate/STIM_008.jpg	99
1929.073	1.145	1144.8	generate	Run3	generate/STIM_008.jpg	99
1934.047	1.796	1796.1	generate	Run3	generate/STIM_009.jpg	100
1938.477	1.21	1210.5	generate	Run3	generate/STIM_009.jpg	99
1942.449	1.559	1559.2	generate	Run3	generate/STIM_009.jpg	100
1948.079	0.99	990.3	generate	Run3	generate/STIM_009.jpg	99
1952.506	0.84	839.9	generate	Run3	generate/STIM_009.jpg	100
1956.71	1.561	1560.6	generate	Run3	generate/STIM_010.jpg	99
1961.926	1.46	1460.2	generate	Run3	generate/STIM_010.jpg	100
1965.827	1.959	1959.0	generate	Run3	generate/STIM_010.jpg	100
1971.187	1.544	1544.4	generate	Run3	generate/STIM_010.jpg	100
1976.036	1.097	1096.9	generate	Run3	generate/STIM_010.jpg	99
1981.03	1.541	1541.1	generate	Run3	generate/STIM_011.jpg	99
1986.067	1.134	1133.9	generate	Run3	generate/STIM_011.jpg	100
1990.88	1.728	1727.5	generate	Run3	generate/STIM_011.jpg	100
1996.702	1.388	1388.4	generate	Run3	generate/STIM_011.jpg	99
2001.92	1.362	1362.3	generate	Run3	generate/STIM_011.jpg	99
2006.904	1.186	1186.0	generate	Run3	generate/STIM_012.jpg	100
2011.721	0.91	909.5	generate	Run3	generate/STIM_012.jpg	100
2016.019	1.049	1048.7	generate	Run3	generate/STIM_012.jpg	100
2020.728	1.732	1731.6	generate	Run3	generate/STIM_012.jpg	100
2025.926	1.377	1377.3	generate	Run3	generate/STIM_012.jpg	100
2031.383	1.673	1672.9	generate	Run3	generate/STIM_013.jpg	99
2036.424	1.747	1747.1	generate	Run3	generate/STIM_013.jpg	99
2042.137	1.743	1742.9	generate	Run3	generate/STIM_013.jpg	99
2047.352	1.776	1776.4	generate	Run3	generate/STIM_013.jpg	100
2052.993	1.325	1324.6	generate	Run3	generate/STIM_013.jpg	99
2056.64	1.603	1602.6	generate	Run3	generate/STIM_014.jpg	99
2061.583	1.617	1616.6	generate	Run3	generate/STIM_014.jpg	99
2065.705	1.938	1938.0	generate	Run3	generate/STIM_014.jpg	100
2071.702	1.667	1667.0	generate	Run3	generate/STIM_014.jpg	100
2076.485	0.957	956.8	generate	Run3	generate/STIM_014.jpg	99
2080.968	1.548	1548.5	generate	Run3	generate/STIM_015.jpg	99
2085.64	1.653	1653.2	generate	Run3	generate/STIM_015.jpg	100
2090.347	1.207	1206.6	generate	Run3	generate/STIM_015.jpg	100
2093.898	0.931	931.4	generate	Run3	generate/STIM_015.jpg	100
2097.555	1.971	1971.3	generate	Run3	generate/STIM_015.jpg	100
2102.626	1.812	1811.9	generate	Run3	generate/STIM_016.jpg	99
2107.773	1.378	1378.4	generate	Run3	generate/STIM_016.jpg	100
2111.331	1.036	1035.6	generate	Run3	generate/STIM_016.jpg	99
2115.531	1.919	1918.9	generate	Run3	generate/STIM_016.jpg	99
2121.439	1.217	1216.8	generate	Run3	generate/STIM_016.jpg	99
2126.283	1.583	1582.8	generate	Run3	generate/STIM_017.jpg	99
2130.68	1.36	1359.7	generate	Run3	generate/STIM_017.jpg	100
2135.933	1.702	1701.6	generate	Run3	generate/STIM_017.jpg	99
2140.136	1.362	1361.8	generate	Run3	generate/STIM_017.jpg	99
2145.193	1.322	1322.0	generate	Run3	generate/STIM_017.jpg	100
2148.772	1.53	1530.0	generate	Run3	generate/STIM_018.jpg	100
2153.429	1.335	1335.4	generate	Run3	generate/STIM_018.jpg	100
2157.136	1.606	1605.6	generate	Run3	generate/STIM_018.jpg	99
2162.584	0.849	848.8	generate	Run3	generate/STIM_018.jpg	99
2165.915	0.867	866.9	generate	Run3	generate/STIM_018.jpg	100
2169.95	1.44	1440.2	generate	Run3	generate/STIM_019.jpg	99
2175.323	0.9	899.5	generate	Run3	generate/STIM_019.jpg	99
2180.077	0.99	989.9	generate	Run3	generate/STIM_019.jpg	99
2183.42	1.38	1379.7	generate	Run3	generate/STIM_019.jpg	100
2188.377	0.96	960.1	generate	Run3	generate/STIM_019.jpg	99
2193.224	1.522	1522.3	generate	Run3	generate/STIM_020.jpg	100
2198.148	1.879	1879.0	generate	Run3	generate/STIM_020.jpg	99
2203.215	0.995	994.9	generate	Run3	generate/STIM_020.jpg	99
2206.395	1.017	1016.6	generate	Run3	generate/STIM_020.jpg	99
2210.113	1.635	1635.0	generate	Run3	generate/STIM_020.jpg	99
2214.078	1.886	1885.6	generate	Run3	generate/STIM_021.jpg	100
2219.232	0.951	950.9	generate	Run3	generate/STIM_021.jpg	99
2222.726	1.11	1110.0	generate	Run3	generate/STIM_021.jpg	100
2227.619	0.82	820.4	generate	Run3	generate/STIM_021.jpg	99
2230.793	1.22	1220.4	generate	Run3	generate/STIM_021.jpg	99
2234.38	1.711	1711.4	generate	Run3	generate/STIM_022.jpg	99
2239.436	1.033	1033.3	generate	Run3	generate/STIM_022.jpg	100
2244.272	1.402	1402.2	generate	Run3	generate/STIM_022.jpg	100
2249.691	1.059	1059.2	generate	Run3	generate/STIM_022.jpg	100
2253.23	1.866	1866.4	generate	Run3	generate/STIM_022.jpg	100
2258.558	1.835	1835.3	generate	Run3	generate/STIM_023.jpg	99
2264.146	1.679	1679.2	generate	Run3	generate/STIM_023.jpg	99
2269.76	1.283	1282.7	generate	Run3	generate/STIM_023.jpg	100
2274.559	0.99	990.4	generate	Run3	generate/STIM_023.jpg	99
2279.322	0.949	949.1	generate	Run3	generate/STIM_023.jpg	100
2283.435	1.045	1045.4	generate	Run3	generate/STIM_024.jpg	100
2288.342	1.323	1323.2	generate	Run3	generate/STIM_024.jpg	99
2292.201	1.407	1406.6	generate	Run3	generate/STIM_024.jpg	100
2296.943	1.103	1103.1	generate	Run3	generate/STIM_024.jpg	99
2300.224	0.87	869.7	generate	Run3	generate/STIM_024.jpg	99
2303.511	0.669	669.3	repeat	Run3	repeat/STIM_000.jpg	99
2307.956	0.922	921.9	repeat	Run3	repeat/STIM_000.jpg	100
2312.765	0.54	539.6	repeat	Run3	repeat/STIM_000.jpg	100
2316.443	0.749	749.0	repeat	Run3	repeat/STIM_000.jpg	100
2319.417	0.478	478.2	repeat	Run3	repeat/STIM_000.jpg	99
2322.097	0.905	905.2	repeat	Run3	repeat/STIM_001.jpg	99
2326.758	0.586	585.8	repeat	Run3	repeat/STIM_001.jpg	100
2329.55	0.568	568.4	repeat	Run3	repeat/STIM_001.jpg	100
2332.322	0.682	681.8	repeat	Run3	repeat/STIM_001.jpg	99
2336.081	0.591	590.7	repeat	Run3	repeat/STIM_001.jpg	99
2338.929	0.664	664.0	repeat	Run3	repeat/STIM_002.jpg	99
2342.8	0.519	518.6	repeat	Run3	repeat/STIM_002.jpg	100
2345.666	0.692	692.2	repeat	Run3	repeat/STIM_002.jpg	100
2348.992	0.555	555.1	repeat	Run3	repeat/STIM_002.jpg	99
2351.929	0.898	897.7	repeat	Run3	repeat/STIM_002.jpg	99
2356.728	0.569	568.9	repeat	Run3	repeat/STIM_003.jpg	99
2360.305	0.524	524.1	repeat	Run3	repeat/STIM_003.jpg	99
2363.254	0.738	738.3	repeat	Run3	repeat/STIM_003.jpg	99
2366.268	0.762	761.6	repeat	Run3	repeat/STIM_003.jpg	100
2369.655	0.527	527.2	repeat	Run3	repeat/STIM_003.jpg	99
2372.228	0.713	713.4	repeat	Run3	repeat/STIM_004.jpg	99
2375.569	0.814	814.5	repeat	Run3	repeat/STIM_004.jpg	99
2380.382	0.928	927.8	repeat	Run3	repeat/STIM_004.jpg	99
2384.654	0.9	899.5	repeat	Run3	repeat/STIM_004.jpg	100
2388.114	0.493	493.0	repeat	Run3	repeat/STIM_004.jpg	100
2390.661	0.582	581.6	repeat	Run3	repeat/STIM_005.jpg	99
2394.782	0.868	867.8	repeat	Run3	repeat/STIM_005.jpg	99
2399.224	0.699	698.7	repeat	Run3	repeat/STIM_005.jpg	100
2403.68	0.594	594.2	repeat	Run3	repeat/STIM_005.jpg	100
2407.404	0.708	708.1	repeat	Run3	repeat/STIM_005.jpg	99
2411.743	0.939	938.7	repeat	Run3	repeat/STIM_006.jpg	100
2416.608	0.821	820.7	repeat	Run3	repeat/STIM_006.jpg	99
2420.406	0.741	741.0	repeat	Run3	repeat/STIM_006.jpg	100
2424.202	0.767	766.6	repeat	Run3	repeat/STIM_006.jpg	99
2428.349	0.885	884.9	repeat	Run3	repeat/STIM_006.jpg	99
2433.008	0.52	519.5	repeat	Run3	repeat/STIM_007.jpg	100
2436.864	0.648	648.3	repeat	Run3	repeat/STIM_007.jpg	100
2439.969	0.745	744.6	repeat	Run3	repeat/STIM_007.jpg	99
2443.887	0.57	569.9	repeat	Run3	repeat/STIM_007.jpg	99
2446.604	0.513	512.8	repeat	Run3	repeat/STIM_007.jpg	100
2450.216	0.759	758.6	repeat	Run3	repeat/STIM_008.jpg	100
2454.869	0.656	656.2	repeat	Run3	repeat/STIM_008.jpg	99
2459.091	0.854	854.1	repeat	Run3	repeat/STIM_008.jpg	99
2463.868	0.761	761.2	repeat	Run3	repeat/STIM_008.jpg	100
2467.268	0.898	898.2	repeat	Run3	repeat/STIM_008.jpg	100
2472.171	0.507	506.8	repeat	Run3	repeat/STIM_009.jpg	100
2475.078	0.937	937.2	repeat	Run3	repeat/STIM_009.jpg	99
2478.748	0.658	657.6	repeat	Run3	repeat/STIM_009.jpg	99
2482.178	0.921	921.4	repeat	Run3	repeat/STIM_009.jpg	100
2485.786	0.745	745.0	repeat	Run3	repeat/STIM_009.jpg	99
2489.675	0.863	863.1	repeat	Run3	repeat/STIM_010.jpg	100
2492.967	0.708	707.6	repeat	Run3	repeat/STIM_010.jpg	99
2496.895	0.708	708.3	repeat	Run3	repeat/STIM_010.jpg	100
2499.862	0.606	606.5	repeat	Run3	repeat/STIM_010.jpg	100
2504.173	0.564	564.0	repeat	Run3	repeat/STIM_010.jpg	100
2508.557	0.479	479.2	repeat	Run3	repeat/STIM_011.jpg	99
2511.798	0.476	476.1	repeat	Run3	repeat/STIM_011.jpg	100
2514.931	0.746	745.9	repeat	Run3	repeat/STIM_011.jpg	100
2518.754	0.682	682.5	repeat	Run3	repeat/STIM_011.jpg	99
2522.532	0.826	825.5	repeat	Run3	repeat/STIM_011.jpg	100
2527.281	0.516	516.3	repeat	Run3	repeat/STIM_012.jpg	100
2531.183	0.581	581.4	repeat	Run3	repeat/STIM_012.jpg	99
2535.337	0.751	751.2	repeat	Run3	repeat/STIM_012.jpg	99
2540.125	0.478	478.0	repeat	Run3	repeat/STIM_012.jpg	100
2543.93	0.813	813.2	repeat	Run3	repeat/STIM_012.jpg	99
2548.114	0.734	734.5	repeat	Run3	repeat/STIM_013.jpg	99
2550.96	0.893	892.9	repeat	Run3	repeat/STIM_013.jpg	100
2554.611	0.592	591.5	repeat	Run3	repeat/STIM_013.jpg	99
2558.229	0.783	782.6	repeat	Run3	repeat/STIM_013.jpg	100
2561.354	0.649	648.9	repeat	Run3	repeat/STIM_013.jpg	99
2564.147	0.551	550.9	repeat	Run3	repeat/STIM_014.jpg	99
2566.75	0.638	638.5	repeat	Run3	repeat/STIM_014.jpg	100
2570.179	0.894	894.2	repeat	Run3	repeat/STIM_014.jpg	100
2574.267	0.718	717.9	repeat	Run3	repeat/STIM_014.jpg	99
2578.585	0.794	793.6	repeat	Run3	repeat/STIM_014.jpg	99
2582.898	1.895	1895.1	generate	Run4	generate/STIM_000.jpg	99
2587.734	1.132	1131.5	generate	Run4	generate/STIM_000.jpg	100
2592.693	1.636	1636.0	generate	Run4	generate/STIM_000.jpg	99
2596.98	1.626	1626.3	generate	Run4	generate/STIM_000.jpg	100
2601.923	0.964	964.3	generate	Run4	generate/STIM_000.jpg	99
2605.542	0.899	898.9	generate	Run4	generate/STIM_001.jpg	100
2609.275	1.418	1418.3	generate	Run4	generate/STIM_001.jpg	99
2612.941	1.503	1503.1	generate	Run4	generate/STIM_001.jpg	100
2617.092	1.285	1285.3	generate	Run4	generate/STIM_001.jpg	99
2622.372	0.853	852.9	generate	Run4	generate/STIM_001.jpg	99
2626.771	1.555	1555.4	generate	Run4	generate/STIM_002.jpg	100
2630.693	1.839	1838.7	generate	Run4	generate/STIM_002.jpg	100
2635.488	1.792	1791.9	generate	Run4	generate/STIM_002.jpg	99
2639.842	0.867	866.7	generate	Run4	generate/STIM_002.jpg	100
2643.488	1.759	1758.8	generate	Run4	generate/STIM_002.jpg	100
2648.893	1.388	1387.8	generate	Run4	generate/STIM_003.jpg	99
2652.737	1.781	1780.6	generate	Run4	generate/STIM_003.jpg	99
2657.507	1.617	1616.9	generate	Run4	generate/STIM_003.jpg	100
2661.269	0.821	821.1	generate	Run4	generate/STIM_003.jpg	99
2664.303	1.781	1780.7	generate	Run4	generate/STIM_003.jpg	100
2669.064	1.309	1308.8	generate	Run4	generate/STIM_004.jpg	99
2672.689	1.728	1728.1	generate	Run4	generate/STIM_004.jpg	100
2676.803	1.758	1757.9	generate	Run4	generate/STIM_004.jpg	99
2682.206	1.425	1425.4	generate	Run4	generate/STIM_004.jpg	99
2685.722	1.32	1320.0	generate	Run4	generate/STIM_004.jpg	100
2689.65	1.057	1057.0	generate	Run4	generate/STIM_005.jpg	100
2693.193	1.086	1086.2	generate	Run4	generate/STIM_005.jpg	100
2697.381	0.907	907.4	generate	Run4	generate/STIM_005.jpg	100
2700.695	1.869	1868.6	generate	Run4	generate/STIM_005.jpg	100
2705.165	0.902	902.0	generate	Run4	generate/STIM_005.jpg	100
2708.548	0.926	926.3	generate	Run4	generate/STIM_006.jpg	100
2713.169	1.076	1076.3	generate	Run4	generate/STIM_006.jpg	99
2718.204	0.861	861.1	generate	Run4	generate/STIM_006.jpg	99
2721.363	0.842	842.2	generate	Run4	generate/STIM_006.jpg	99
2725.184	1.26	1259.8	generate	Run4	generate/STIM_006.jpg	100
2729.77	1.528	1527.9	generate	Run4	generate/STIM_007.jpg	100
2735.062	1.682	1681.7	generate	Run4	generate/STIM_007.jpg	100
2739.034	1.405	1405.1	generate	Run4	generate/STIM_007.jpg	99
2744.441	1.896	1895.6	generate	Run4	generate/STIM_007.jpg	100
2749.7	1.131	1131.0	generate	Run4	generate/STIM_007.jpg	100
2754.71	1.249	1249.4	generate	Run4	generate/STIM_008.jpg	99
2759.928	0.951	950.9	generate	Run4	generate/STIM_008.jpg	100
2763.115	1.149	1149.0	generate	Run4	generate/STIM_008.jpg	100
2766.869	0.996	995.5	generate	Run4	generate/STIM_008.jpg	100
2770.627	1.123	1123.0	generate	Run4	generate/STIM_008.jpg	100
2774.523	1.203	1202.8	generate	Run4	generate/STIM_009.jpg	99
2778.523	1.463	1462.6	generate	Run4	generate/STIM_009.jpg	100
2783.453	1.317	1317.2	generate	Run4	generate/STIM_009.jpg	99
2788.037	1.387	1387.4	generate	Run4	generate/STIM_009.jpg	100
2792.182	1.506	1506.5	generate	Run4	generate/STIM_009.jpg	99
2796.383	1.158	1157.8	generate	Run4	generate/STIM_010.jpg	100
2800.134	1.343	1342.8	generate	Run4	generate/STIM_010.jpg	100
2803.956	1.396	1395.9	generate	Run4	generate/STIM_010.jpg	99
2809.03	1.17	1170.1	generate	Run4	generate/STIM_010.jpg	99
2813.887	1.969	1969.4	generate	Run4	generate/STIM_010.jpg	99
2819.684	1.144	1144.1	generate	Run4	generate/STIM_011.jpg	99
2823.114	1.243	1242.7	generate	Run4	generate/STIM_011.jpg	100
2826.606	1.048	1047.7	generate	Run4	generate/STIM_011.jpg	100
2830.119	0.817	817.3	generate	Run4	generate/STIM_011.jpg	99
2833.128	1.959	1958.7	generate	Run4	generate/STIM_011.jpg	100
2837.493	0.952	951.5	generate	Run4	generate/STIM_012.jpg	100
2841.096	1.736	1735.6	generate	Run4	generate/STIM_012.jpg	99
2846.029	1.593	1592.7	generate	Run4	generate/STIM_012.jpg	99
2850.057	1.954	1954.1	generate	Run4	generate/STIM_012.jpg	100
2854.845	1.884	1884.2	generate	Run4	generate/STIM_012.jpg	100
2859.564	1.96	1959.7	generate	Run4	generate/STIM_013.jpg	100
2864.07	0.92	919.6	generate	Run4	generate/STIM_013.jpg	99
2868.668	1.228	1228.5	generate	Run4	generate/STIM_013.jpg	99
2872.491	1.635	1635.1	generate	Run4	generate/STIM_013.jpg	100
2876.476	1.52	1520.5	generate	Run4	generate/STIM_013.jpg	100
2881.428	1.27	1269.9	generate	Run4	generate/STIM_014.jpg	99
2884.797	1.857	1857.3	generate	Run4	generate/STIM_014.jpg	100
2889.114	1.449	1448.9	generate	Run4	generate/STIM_014.jpg	100
2894.467	0.944	944.5	generate	Run4	generate/STIM_014.jpg	100
2899.415	0.934	934.2	generate	Run4	generate/STIM_014.jpg	100
2902.829	1.323	1323.1	generate	Run4	generate/STIM_015.jpg	100
2906.508	0.945	945.0	generate	Run4	generate/STIM_015.jpg	100
2910.458	1.424	1423.5	generate	Run4	generate/STIM_015.jpg	99
2914.654	0.976	976.2	generate	Run4	generate/STIM_015.jpg	100
2918.34	1.599	1598.9	generate	Run4	generate/STIM_015.jpg	100
2923.051	1.189	1189.4	generate	Run4	generate/STIM_016.jpg	100
2927.307	0.811	810.6	generate	Run4	generate/STIM_016.jpg	100
2931.509	0.826	826.5	generate	Run4	generate/STIM_016.jpg	99
2935.043	0.833	833.0	generate	Run4	generate/STIM_016.jpg	100
2938.934	1.112	1111.9	generate	Run4	generate/STIM_016.jpg	100
2942.754	1.205	1205.2	generate	Run4	generate/STIM_017.jpg	100
2946.051	1.856	1855.7	generate	Run4	generate/STIM_017.jpg	99
2951.746	1.625	1625.0	generate	Run4	generate/STIM_017.jpg	100
2956.407	0.88	879.9	generate	Run4	generate/STIM_017.jpg	99
2959.917	1.395	1395.1	generate	Run4	generate/STIM_017.jpg	100
2964.192	0.924	923.9	generate	Run4	generate/STIM_018.jpg	100
2967.422	1.354	1353.9	generate	Run4	generate/STIM_018.jpg	99
2971.372	1.605	1605.4	generate	Run4	generate/STIM_018.jpg	100
2976.117	1.886	1886.1	generate	Run4	generate/STIM_018.jpg	99
2980.533	1.008	1007.7	generate	Run4	generate/STIM_018.jpg	100
2985.172	1.873	1872.6	generate	Run4	generate/STIM_019.jpg	99
2989.307	1.432	1431.6	generate	Run4	generate/STIM_019.jpg	100
2994.384	1.055	1055.1	generate	Run4	generate/STIM_019.jpg	100
2997.667	1.455	1455.3	generate	Run4	generate/STIM_019.jpg	99
3001.561	1.571	1571.2	generate	Run4	generate/STIM_019.jpg	100
3005.796	1.709	1708.9	generate	Run4	generate/STIM_020.jpg	99
3009.731	1.368	1367.8	generate	Run4	generate/STIM_020.jpg	99
3014.523	1.721	1721.2	generate	Run4	generate/STIM_020.jpg	99
3019.753	1.518	1517.5	generate	Run4	generate/STIM_020.jpg	99
3024.515	1.054	1054.2	generate	Run4	generate/STIM_020.jpg	99
3029.37	1.118	1118.1	generate	Run4	generate/STIM_021.jpg	100
3034.261	1.522	1522.3	generate	Run4	generate/STIM_021.jpg	99
3039.391	1.54	1540.2	generate	Run4	generate/STIM_021.jpg	99
3043.769	1.49	1489.8	generate	Run4	generate/STIM_021.jpg	100
3048.486	1.424	1424.4	generate	Run4	generate/STIM_021.jpg	99
3052.448	1.438	1437.8	generate	Run4	generate/STIM_022.jpg	99
3056.643	1.447	1447.2	generate	Run4	generate/STIM_022.jpg	100
3061.491	1.486	1485.6	generate	Run4	generate/STIM_022.jpg	99
3066.287	1.543	1542.8	generate	Run4	generate/STIM_022.jpg	99
3071.136	1.925	1924.9	generate	Run4	generate/STIM_022.jpg	100
3076.515	1.852	1851.7	generate	Run4	generate/STIM_023.jpg	99
3081.618	1.095	1095.3	generate	Run4	generate/STIM_023.jpg	99
3086.192	1.411	1411.0	generate	Run4	generate/STIM_023.jpg	100
3090.974	1.621	1620.6	generate	Run4	generate/STIM_023.jpg	100
3095.152	1.789	1788.6	generate	Run4	generate/STIM_023.jpg	99
3100.823	1.295	1295.3	generate	Run4	generate/STIM_024.jpg	100
3104.424	0.806	805.8	generate	Run4	generate/STIM_024.jpg	100
3107.364	1.852	1851.5	generate	Run4	generate/STIM_024.jpg	100
3111.389	1.342	1342.1	generate	Run4	generate/STIM_024.jpg	99
3115.42	0.832	832.5	generate	Run4	generate/STIM_024.jpg	99
3120.168	0.888	888.3	repeat	Run4	repeat/STIM_000.jpg	99
3124.43	0.86	859.8	repeat	Run4	repeat/STIM_000.jpg	100
3128.577	0.773	773.1	repeat	Run4	repeat/STIM_000.jpg	99
3132.178	0.726	725.9	repeat	Run4	repeat/STIM_000.jpg	100
3135.606	0.819	819.2	repeat	Run4	repeat/STIM_000.jpg	99
3139.029	0.77	769.5	repeat	Run4	repeat/STIM_001.jpg	100
3142.472	0.48	480.4	repeat	Run4	repeat/STIM_001.jpg	100
3145.84	0.758	758.0	repeat	Run4	repeat/STIM_001.jpg	99
3149.607	0.57	569.8	repeat	Run4	repeat/STIM_001.jpg	100
3153.295	0.689	689.0	repeat	Run4	repeat/STIM_001.jpg	99
3156.308	0.681	681.3	repeat	Run4	repeat/STIM_002.jpg	100
3159.84	0.87	870.1	repeat	Run4	repeat/STIM_002.jpg	100
3163.67	0.934	934.3	repeat	Run4	repeat/STIM_002.jpg	99
3168.632	0.924	923.7	repeat	Run4	repeat/STIM_002.jpg	100
3173.343	0.794	794.4	repeat	Run4	repeat/STIM_002.jpg	99
3177.611	0.778	778.5	repeat	Run4	repeat/STIM_003.jpg	99
3181.41	0.623	623.4	repeat	Run4	repeat/STIM_003.jpg	99
3184.328	0.594	593.8	repeat	Run4	repeat/STIM_003.jpg	100
3187.618	0.692	691.5	repeat	Run4	repeat/STIM_003.jpg	100
3190.921	0.884	883.9	repeat	Run4	repeat/STIM_003.jpg	100
3194.158	0.895	895.0	repeat	Run4	repeat/STIM_004.jpg	100
3198.174	0.596	596.4	repeat	Run4	repeat/STIM_004.jpg	100
3201.452	0.741	740.7	repeat	Run4	repeat/STIM_004.jpg	100
3205.341	0.719	719.0	repeat	Run4	repeat/STIM_004.jpg	100
3208.633	0.86	860.3	repeat	Run4	repeat/STIM_004.jpg	99
3211.772	0.679	678.8	repeat	Run4	repeat/STIM_005.jpg	100
3214.793	0.904	903.7	repeat	Run4	repeat/STIM_005.jpg	99
3218.858	0.515	514.7	repeat	Run4	repeat/STIM_005.jpg	100
3223.355	0.607	606.6	repeat	Run4	repeat/STIM_005.jpg	100
3226.889	0.897	897.2	repeat	Run4	repeat/STIM_005.jpg	99
3231.508	0.55	550.4	repeat	Run4	repeat/STIM_006.jpg	99
3235.244	0.727	727.4	repeat	Run4	repeat/STIM_006.jpg	100
3239.25	0.66	659.9	repeat	Run4	repeat/STIM_006.jpg	99
3243.27	0.735	734.9	repeat	Run4	repeat/STIM_006.jpg	100
3246.885	0.756	755.8	repeat	Run4	repeat/STIM_006.jpg	100
3251.007	0.503	503.1	repeat	Run4	repeat/STIM_007.jpg	99
3254.488	0.476	476.3	repeat	Run4	repeat/STIM_007.jpg	99
3257.142	0.793	793.0	repeat	Run4	repeat/STIM_007.jpg	99
3260.123	0.599	599.0	repeat	Run4	repeat/STIM_007.jpg	100
3263.476	0.842	841.9	repeat	Run4	repeat/STIM_007.jpg	99
3268.068	0.549	549.4	repeat	Run4	repeat/STIM_008.jpg	99
3271.449	0.667	666.6	repeat	Run4	repeat/STIM_008.jpg	100
3275.742	0.887	886.7	repeat	Run4	repeat/STIM_008.jpg	99
3280.216	0.815	815.4	repeat	Run4	repeat/STIM_008.jpg	100
3283.778	0.549	548.6	repeat	Run4	repeat/STIM_008.jpg	99
3287.205	0.771	771.3	repeat	Run4	repeat/STIM_009.jpg	99
3291.144	0.566	565.7	repeat	Run4	repeat/STIM_009.jpg	100
3294.514	0.559	559.1	repeat	Run4	repeat/STIM_009.jpg	100
3298.491	0.653	652.9	repeat	Run4	repeat/STIM_009.jpg	100
3302.656	0.901	901.0	repeat	Run4	repeat/STIM_009.jpg	99
3306.266	0.753	752.6	repeat	Run4	repeat/STIM_010.jpg	100
3310.31	0.711	711.1	repeat	Run4	repeat/STIM_010.jpg	100
3313.093	0.788	788.3	repeat	Run4	repeat/STIM_010.jpg	100
3316.514	0.802	802.2	repeat	Run4	repeat/STIM_010.jpg	100
3321.208	0.795	795.2	repeat	Run4	repeat/STIM_010.jpg	100
3325.212	0.844	844.2	repeat	Run4	repeat/STIM_011.jpg	100
3329.286	0.556	556.2	repeat	Run4	repeat/STIM_011.jpg	99
3332.12	0.853	853.2	repeat	Run4	repeat/STIM_011.jpg	99
3335.815	0.675	674.9	repeat	Run4	repeat/STIM_011.jpg	99
3340.419	0.812	812.1	repeat	Run4	repeat/STIM_011.jpg	100
3343.764	0.689	689.4	repeat	Run4	repeat/STIM_012.jpg	99
3346.539	0.681	680.8	repeat	Run4	repeat/STIM_012.jpg	99
3351.236	0.931	931.3	repeat	Run4	repeat/STIM_012.jpg	99
3355.441	0.636	635.9	repeat	Run4	repeat/STIM_012.jpg	99
3358.2	0.893	893.2	repeat	Run4	repeat/STIM_012.jpg	99
3361.486	0.692	691.8	repeat	Run4	repeat/STIM_013.jpg	100
3364.577	0.635	635.3	repeat	Run4	repeat/STIM_013.jpg	99
3368.01	0.829	828.8	repeat	Run4	repeat/STIM_013.jpg	100
3372.521	0.578	577.5	repeat	Run4	repeat/STIM_013.jpg	99
3375.676	0.731	731.0	repeat	Run4	repeat/STIM_013.jpg	99
3378.57	0.6	600.1	repeat	Run4	repeat/STIM_014.jpg	100
3382.456	0.848	847.9	repeat	Run4	repeat/STIM_014.jpg	100
3385.954	0.62	619.9	repeat	Run4	repeat/STIM_014.jpg	99
3390.488	0.478	478.3	repeat	Run4	repeat/STIM_014.jpg	99
3394.622	0.905	904.7	repeat	Run4	repeat/STIM_014.jpg	99
