onset	duration	accuracy_binary	trial_type	learning_stage	stimulus
0.0	1.871	1	generate	Run1	generate/STIM_000.jpg
5.144	1.092	0	generate	Run1	generate/STIM_000.jpg
8.612	1.324	0	generate	Run1	generate/STIM_000.jpg
13.759	1.045	1	generate	Run1	generate/STIM_000.jpg
18.804	1.239	1	generate	Run1	generate/STIM_000.jpg
23.638	2.139	0	generate	Run1	generate/STIM_001.jpg
28.163	1.578	0	generate	Run1	generate/STIM_001.jpg
33.151	1.322	0	generate	Run1	generate/STIM_001.jpg
36.504	2.117	1	generate	Run1	generate/STIM_001.jpg
41.381	1.968	0	generate	Run1	generate/STIM_001.jpg
46.924	2.223	0	generate	Run1	generate/STIM_002.jpg
51.368	1.228	1	generate	Run1	generate/STIM_002.jpg
55.187	1.3	1	generate	Run1	generate/STIM_002.jpg
59.068	1.579	1	generate	Run1	generate/STIM_002.jpg
62.895	1.704	1	generate	Run1	generate/STIM_002.jpg
67.124	2.008	1	generate	Run1	generate/STIM_003.jpg
71.736	1.926	0	generate	Run1	generate/STIM_003.jpg
76.702	1.87	1	generate	Run1	generate/STIM_003.jpg
81.887	2.197	0	generate	Run1	generate/STIM_003.jpg
86.684	1.938	0	generate	Run1	generate/STIM_003.jpg
91.641	1.762	1	generate	Run1	generate/STIM_004.jpg
96.907	1.358	1	generate	Run1	generate/STIM_004.jpg
101.438	1.624	1	generate	Run1	generate/STIM_004.jpg
105.832	1.704	1	generate	Run1	generate/STIM_004.jpg
110.437	1.833	1	generate	Run1	generate/STIM_004.jpg
115.135	2.171	1	generate	Run1	generate/STIM_005.jpg
119.34	1.047	0	generate	Run1	generate/STIM_005.jpg
123.665	1.06	1	generate	Run1	generate/STIM_005.jpg
127.346	1.414	0	generate	Run1	generate/STIM_005.jpg
131.991	1.691	1	generate	Run1	generate/STIM_005.jpg
136.421	1.136	1	generate	Run1	generate/STIM_006.jpg
140.9	2.449	0	generate	Run1	generate/STIM_006.jpg
145.485	1.891	1	generate	Run1	generate/STIM_006.jpg
150.29	1.643	0	generate	Run1	generate/STIM_006.jpg
155.454	1.999	0	generate	Run1	generate/STIM_006.jpg
161.024	1.079	0	generate	Run1	generate/STIM_007.jpg
166.03	1.291	0	generate	Run1	generate/STIM_007.jpg
170.448	1.981	1	generate	Run1	generate/STIM_007.jpg
175.053	0.935	1	generate	Run1	generate/STIM_007.jpg
179.137	1.382	0	generate	Run1	generate/STIM_007.jpg
182.752	1.444	0	generate	Run1	generate/STIM_008.jpg
186.514	2.268	1	generate	Run1	generate/STIM_008.jpg
192.756	1.538	0	generate	Run1	generate/STIM_008.jpg
197.396	0.966	1	generate	Run1	generate/STIM_008.jpg
201.511	1.948	1	generate	Run1	generate/STIM_008.jpg
206.378	1.911	1	generate	Run1	generate/STIM_009.jpg
210.763	1.048	1	generate	Run1	generate/STIM_009.jpg
214.871	1.817	1	generate	Run1	generate/STIM_009.jpg
219.099	1.9	1	generate	Run1	generate/STIM_009.jpg
224.852	1.27	0	generate	Run1	generate/STIM_009.jpg
228.801	1.91	0	generate	Run1	generate/STIM_010.jpg
234.542	2.271	1	generate	Run1	generate/STIM_010.jpg
238.852	1.044	0	generate	Run1	generate/STIM_010.jpg
243.596	1.018	1	generate	Run1	generate/STIM_010.jpg
247.237	1.925	1	generate	Run1	generate/STIM_010.jpg
252.896	1.762	0	generate	Run1	generate/STIM_011.jpg
257.543	1.227	1	generate	Run1	generate/STIM_011.jpg
260.936	1.515	1	generate	Run1	generate/STIM_011.jpg
265.404	1.516	1	generate	Run1	generate/STIM_011.jpg
270.635	1.191	0	generate	Run1	generate/STIM_011.jpg
273.98	1.649	1	generate	Run1	generate/STIM_012.jpg
277.671	2.209	0	generate	Run1	generate/STIM_012.jpg
282.963	2.101	1	generate	Run1	generate/STIM_012.jpg
287.702	1.604	1	generate	Run1	generate/STIM_012.jpg
292.135	1.391	1	generate	Run1	generate/STIM_012.jpg
296.293	1.058	1	generate	Run1	generate/STIM_013.jpg
301.289	1.222	0	generate	Run1	generate/STIM_013.jpg
305.345	2.045	1	generate	Run1	generate/STIM_013.jpg
309.646	1.287	1	generate	Run1	generate/STIM_013.jpg
313.138	1.672	0	generate	Run1	generate/STIM_013.jpg
316.972	2.073	0	generate	Run1	generate/STIM_014.jpg
322.257	2.226	1	generate	Run1	generate/STIM_014.jpg
326.634	1.625	0	generate	Run1	generate/STIM_014.jpg
330.925	1.462	1	generate	Run1	generate/STIM_014.jpg
335.673	1.258	0	generate	Run1	generate/STIM_014.jpg
340.845	1.05	0	generate	Run1	generate/STIM_015.jpg
343.901	1.726	1	generate	Run1	generate/STIM_015.jpg
347.713	2.059	0	generate	Run1	generate/STIM_015.jpg
352.239	1.291	0	generate	Run1	generate/STIM_015.jpg
355.979	1.864	0	generate	Run1	generate/STIM_015.jpg
360.582	2.073	1	generate	Run1	generate/STIM_016.jpg
364.776	2.271	1	generate	Run1	generate/STIM_016.jpg
370.099	1.15	1	generate	Run1	generate/STIM_016.jpg
373.253	1.75	1	generate	Run1	generate/STIM_016.jpg
377.323	1.158	1	generate	Run1	generate/STIM_016.jpg
381.358	2.221	1	generate	Run1	generate/STIM_017.jpg
386.072	2.449	1	generate	Run1	generate/STIM_017.jpg
391.445	1.883	1	generate	Run1	generate/STIM_017.jpg
395.355	1.112	0	generate	Run1	generate/STIM_017.jpg
398.609	1.563	1	generate	Run1	generate/STIM_017.jpg
402.528	1.925	0	generate	Run1	generate/STIM_018.jpg
407.453	1.204	0	generate	Run1	generate/STIM_018.jpg
410.845	2.214	1	generate	Run1	generate/STIM_018.jpg
415.35	1.077	1	generate	Run1	generate/STIM_018.jpg
419.094	0.851	0	generate	Run1	generate/STIM_018.jpg
423.304	1.648	1	generate	Run1	generate/STIM_019.jpg
427.505	1.974	0	generate	Run1	generate/STIM_019.jpg
432.054	1.597	1	generate	Run1	generate/STIM_019.jpg
436.497	1.56	1	generate	Run1	generate/STIM_019.jpg
440.944	1.847	1	generate	Run1	generate/STIM_019.jpg
446.624	2.042	0	generate	Run1	generate/STIM_020.jpg
452.272	2.445	1	generate	Run1	generate/STIM_020.jpg
458.055	1.327	1	generate	Run1	generate/STIM_020.jpg
462.583	1.958	1	generate	Run1	generate/STIM_020.jpg
466.882	1.914	1	generate	Run1	generate/STIM_020.jpg
472.363	2.429	1	generate	Run1	generate/STIM_021.jpg
477.699	1.23	0	generate	Run1	generate/STIM_021.jpg
482.365	1.531	1	generate	Run1	generate/STIM_021.jpg
487.749	2.068	1	generate	Run1	generate/STIM_021.jpg
492.862	1.247	1	generate	Run1	generate/STIM_021.jpg
497.107	1.957	0	generate	Run1	generate/STIM_022.jpg
502.159	2.406	1	generate	Run1	generate/STIM_022.jpg
508.052	1.659	1	generate	Run1	generate/STIM_022.jpg
511.735	0.906	1	generate	Run1	generate/STIM_022.jpg
516.569	1.484	0	generate	Run1	generate/STIM_022.jpg
521.144	1.421	1	generate	Run1	generate/STIM_023.jpg
524.821	1.185	1	generate	Run1	generate/STIM_023.jpg
529.481	2.122	1	generate	Run1	generate/STIM_023.jpg
535.316	0.96	1	generate	Run1	generate/STIM_023.jpg
539.047	1.768	0	generate	Run1	generate/STIM_023.jpg
544.491	1.924	1	generate	Run1	generate/STIM_024.jpg
549.79	2.362	0	generate	Run1	generate/STIM_024.jpg
554.295	1.013	1	generate	Run1	generate/STIM_024.jpg
559.181	1.603	0	generate	Run1	generate/STIM_024.jpg
564.731	1.879	0	generate	Run1	generate/STIM_024.jpg
568.776	0.566	1	repeat	Run1	repeat/STIM_000.jpg
572.296	0.742	0	repeat	Run1	repeat/STIM_000.jpg
576.941	0.709	1	repeat	Run1	repeat/STIM_000.jpg
581.582	0.484	1	repeat	Run1	repeat/STIM_000.jpg
585.809	0.575	1	repeat	Run1	repeat/STIM_000.jpg
589.739	0.722	1	repeat	Run1	repeat/STIM_001.jpg
594.16	0.847	1	repeat	Run1	repeat/STIM_001.jpg
598.734	0.443	1	repeat	Run1	repeat/STIM_001.jpg
601.573	0.734	1	repeat	Run1	repeat/STIM_001.jpg
605.868	0.724	1	repeat	Run1	repeat/STIM_001.jpg
609.406	0.514	1	repeat	Run1	repeat/STIM_002.jpg
612.597	0.745	1	repeat	Run1	repeat/STIM_002.jpg
615.586	0.493	1	repeat	Run1	repeat/STIM_002.jpg
620.026	0.625	1	repeat	Run1	repeat/STIM_002.jpg
624.111	0.575	1	repeat	Run1	repeat/STIM_002.jpg
626.693	0.837	0	repeat	Run1	repeat/STIM_003.jpg
630.615	0.557	1	repeat	Run1	repeat/STIM_003.jpg
633.784	0.596	1	repeat	Run1	repeat/STIM_003.jpg
636.906	0.659	1	repeat	Run1	repeat/STIM_003.jpg
640.627	0.61	0	repeat	Run1	repeat/STIM_003.jpg
644.183	0.748	1	repeat	Run1	repeat/STIM_004.jpg
647.095	0.594	1	repeat	Run1	repeat/STIM_004.jpg
650.378	0.709	1	repeat	Run1	repeat/STIM_004.jpg
655.058	0.497	1	repeat	Run1	repeat/STIM_004.jpg
657.561	0.493	1	repeat	Run1	repeat/STIM_004.jpg
661.435	0.731	1	repeat	Run1	repeat/STIM_005.jpg
665.118	0.644	1	repeat	Run1	repeat/STIM_005.jpg
668.417	0.715	0	repeat	Run1	repeat/STIM_005.jpg
671.877	0.8	1	repeat	Run1	repeat/STIM_005.jpg
675.536	0.81	1	repeat	Run1	repeat/STIM_005.jpg
679.838	0.846	1	repeat	Run1	repeat/STIM_006.jpg
684.477	0.711	0	repeat	Run1	repeat/STIM_006.jpg
687.481	0.478	1	repeat	Run1	repeat/STIM_006.jpg
690.784	0.817	1	repeat	Run1	repeat/STIM_006.jpg
695.172	0.623	0	repeat	Run1	repeat/STIM_006.jpg
699.682	0.489	1	repeat	Run1	repeat/STIM_007.jpg
704.073	0.775	1	repeat	Run1	repeat/STIM_007.jpg
707.728	0.512	1	repeat	Run1	repeat/STIM_007.jpg
712.103	0.603	1	repeat	Run1	repeat/STIM_007.jpg
715.581	0.828	1	repeat	Run1	repeat/STIM_007.jpg
718.642	0.551	1	repeat	Run1	repeat/STIM_008.jpg
722.072	0.836	0	repeat	Run1	repeat/STIM_008.jpg
725.295	0.78	1	repeat	Run1	repeat/STIM_008.jpg
729.817	0.68	1	repeat	Run1	repeat/STIM_008.jpg
734.083	0.754	1	repeat	Run1	repeat/STIM_008.jpg
738.302	0.479	1	repeat	Run1	repeat/STIM_009.jpg
742.466	0.796	1	repeat	Run1	repeat/STIM_009.jpg
746.483	0.734	1	repeat	Run1	repeat/STIM_009.jpg
751.041	0.57	0	repeat	Run1	repeat/STIM_009.jpg
754.232	0.828	0	repeat	Run1	repeat/STIM_009.jpg
759.018	0.52	0	repeat	Run1	repeat/STIM_010.jpg
761.772	0.814	1	repeat	Run1	repeat/STIM_010.jpg
766.415	0.658	1	repeat	Run1	repeat/STIM_010.jpg
769.6	0.836	1	repeat	Run1	repeat/STIM_010.jpg
773.332	0.601	1	repeat	Run1	repeat/STIM_010.jpg
776.133	0.63	1	repeat	Run1	repeat/STIM_011.jpg
780.277	0.518	1	repeat	Run1	repeat/STIM_011.jpg
784.544	0.495	1	repeat	Run1	repeat/STIM_011.jpg
788.988	0.511	1	repeat	Run1	repeat/STIM_011.jpg
793.381	0.453	0	repeat	Run1	repeat/STIM_011.jpg
796.423	0.7	1	repeat	Run1	repeat/STIM_012.jpg
800.487	0.636	1	repeat	Run1	repeat/STIM_012.jpg
803.704	0.805	1	repeat	Run1	repeat/STIM_012.jpg
806.982	0.835	0	repeat	Run1	repeat/STIM_012.jpg
811.641	0.537	0	repeat	Run1	repeat/STIM_012.jpg
814.505	0.741	1	repeat	Run1	repeat/STIM_013.jpg
817.394	0.7	1	repeat	Run1	repeat/STIM_013.jpg
820.317	0.734	0	repeat	Run1	repeat/STIM_013.jpg
824.644	0.646	0	repeat	Run1	repeat/STIM_013.jpg
829.085	0.724	1	repeat	Run1	repeat/STIM_013.jpg
832.987	0.784	0	repeat	Run1	repeat/STIM_014.jpg
836.711	0.743	0	repeat	Run1	repeat/STIM_014.jpg
840.955	0.854	1	repeat	Run1	repeat/STIM_014.jpg
845.503	0.582	0	repeat	Run1	repeat/STIM_014.jpg
848.387	0.823	1	repeat	Run1	repeat/STIM_014.jpg
852.627	1.911	0	generate	Run2	generate/STIM_000.jpg
857.74	1.951	1	generate	Run2	generate/STIM_000.jpg
863.572	1.223	1	generate	Run2	generate/STIM_000.jpg
867.196	0.92	0	generate	Run2	generate/STIM_000.jpg
871.31	0.875	1	generate	Run2	generate/STIM_000.jpg
875.499	2.127	0	generate	Run2	generate/STIM_001.jpg
879.889	1.188	1	generate	Run2	generate/STIM_001.jpg
884.301	0.855	1	generate	Run2	generate/STIM_001.jpg
887.316	1.758	0	generate	Run2	generate/STIM_001.jpg
891.176	1.58	1	generate	Run2	generate/STIM_001.jpg
895.644	0.964	1	generate	Run2	generate/STIM_002.jpg
899.82	0.924	0	generate	Run2	generate/STIM_002.jpg
904.734	0.949	1	generate	Run2	generate/STIM_002.jpg
908.661	1.203	1	generate	Run2	generate/STIM_002.jpg
913.817	1.49	1	generate	Run2	generate/STIM_002.jpg
918.858	2.035	1	generate	Run2	generate/STIM_003.jpg
924.677	1.29	1	generate	Run2	generate/STIM_003.jpg
929.155	0.79	1	generate	Run2	generate/STIM_003.jpg
932.684	0.961	1	generate	Run2	generate/STIM_003.jpg
936.5	1.111	1	generate	Run2	generate/STIM_003.jpg
940.524	1.723	1	generate	Run2	generate/STIM_004.jpg
945.33	2.067	1	generate	Run2	generate/STIM_004.jpg
950.614	1.849	1	generate	Run2	generate/STIM_004.jpg
954.633	1.413	1	generate	Run2	generate/STIM_004.jpg
959.623	1.482	1	generate	Run2	generate/STIM_004.jpg
963.485	1.536	1	generate	Run2	generate/STIM_005.jpg
967.544	1.338	1	generate	Run2	generate/STIM_005.jpg
970.946	1.06	0	generate	Run2	generate/STIM_005.jpg
975.21	1.234	0	generate	Run2	generate/STIM_005.jpg
979.313	0.814	0	generate	Run2	generate/STIM_005.jpg
982.346	2.022	0	generate	Run2	generate/STIM_006.jpg
988.353	1.268	1	generate	Run2	generate/STIM_006.jpg
992.5	1.902	0	generate	Run2	generate/STIM_006.jpg
997.046	0.925	1	generate	Run2	generate/STIM_006.jpg
1001.083	0.953	0	generate	Run2	generate/STIM_006.jpg
1004.598	1.343	1	generate	Run2	generate/STIM_007.jpg
1008.368	1.161	0	generate	Run2	generate/STIM_007.jpg
1011.665	1.544	1	generate	Run2	generate/STIM_007.jpg
1016.789	1.386	1	generate	Run2	generate/STIM_007.jpg
1020.307	1.477	1	generate	Run2	generate/STIM_007.jpg
1025.667	2.042	1	generate	Run2	generate/STIM_008.jpg
1029.777	1.018	0	generate	Run2	generate/STIM_008.jpg
1034.752	0.82	1	generate	Run2	generate/STIM_008.jpg
1038.992	1.007	1	generate	Run2	generate/STIM_008.jpg
1043.651	1.415	1	generate	Run2	generate/STIM_008.jpg
1047.179	2.058	1	generate	Run2	generate/STIM_009.jpg
1051.814	0.991	0	generate	Run2	generate/STIM_009.jpg
1055.464	1.494	1	generate	Run2	generate/STIM_009.jpg
1059.807	1.748	1	generate	Run2	generate/STIM_009.jpg
1064.537	1.335	1	generate	Run2	generate/STIM_009.jpg
1068.733	1.579	1	generate	Run2	generate/STIM_010.jpg
1073.598	1.164	0	generate	Run2	generate/STIM_010.jpg
1078.314	1.533	1	generate	Run2	generate/STIM_010.jpg
1083.177	0.811	1	generate	Run2	generate/STIM_010.jpg
1087.648	1.387	1	generate	Run2	generate/STIM_010.jpg
1091.574	1.314	1	generate	Run2	generate/STIM_011.jpg
1095.018	1.26	1	generate	Run2	generate/STIM_011.jpg
1099.23	1.512	1	generate	Run2	generate/STIM_011.jpg
1103.388	1.184	0	generate	Run2	generate/STIM_011.jpg
1106.741	0.956	1	generate	Run2	generate/STIM_011.jpg
1110.212	0.903	1	generate	Run2	generate/STIM_012.jpg
1115.076	2.048	0	generate	Run2	generate/STIM_012.jpg
1120.872	1.053	1	generate	Run2	generate/STIM_012.jpg
1124.989	0.782	1	generate	Run2	generate/STIM_012.jpg
1129.683	1.618	0	generate	Run2	generate/STIM_012.jpg
1133.7	1.388	0	generate	Run2	generate/STIM_013.jpg
1138.695	0.851	0	generate	Run2	generate/STIM_013.jpg
1142.15	1.187	1	generate	Run2	generate/STIM_013.jpg
1147.26	0.93	1	generate	Run2	generate/STIM_013.jpg
1151.059	1.3	1	generate	Run2	generate/STIM_013.jpg
1155.297	1.413	0	generate	Run2	generate/STIM_014.jpg
1160.394	0.945	1	generate	Run2	generate/STIM_014.jpg
1163.461	1.638	1	generate	Run2	generate/STIM_014.jpg
1169.02	1.261	1	generate	Run2	generate/STIM_014.jpg
1173.963	1.473	1	generate	Run2	generate/STIM_014.jpg
1177.92	1.794	1	generate	Run2	generate/STIM_015.jpg
1183.229	1.353	1	generate	Run2	generate/STIM_015.jpg
1188.162	1.675	0	generate	Run2	generate/STIM_015.jpg
1192.659	1.301	1	generate	Run2	generate/STIM_015.jpg
1197.257	0.973	0	generate	Run2	generate/STIM_015.jpg
1200.624	2.099	1	generate	Run2	generate/STIM_016.jpg
1205.343	0.911	0	generate	Run2	generate/STIM_016.jpg
1210.067	1.138	1	generate	Run2	generate/STIM_016.jpg
1214.511	1.449	1	generate	Run2	generate/STIM_016.jpg
1219.621	1.774	1	generate	Run2	generate/STIM_016.jpg
1224.172	0.984	1	generate	Run2	generate/STIM_017.jpg
1228.203	0.965	1	generate	Run2	generate/STIM_017.jpg
1232.258	1.714	1	generate	Run2	generate/STIM_017.jpg
1237.864	1.742	0	generate	Run2	generate/STIM_017.jpg
1242.099	1.395	0	generate	Run2	generate/STIM_017.jpg
1247.443	1.366	1	generate	Run2	generate/STIM_018.jpg
1252.393	1.198	1	generate	Run2	generate/STIM_018.jpg
1256.76	1.533	1	generate	Run2	generate/STIM_018.jpg
1261.322	1.406	0	generate	Run2	generate/STIM_018.jpg
1266.338	0.976	0	generate	Run2	generate/STIM_018.jpg
1270.402	0.974	1	generate	Run2	generate/STIM_019.jpg
1274.743	1.037	1	generate	Run2	generate/STIM_019.jpg
1278.647	0.961	1	generate	Run2	generate/STIM_019.jpg
1283.322	0.836	1	generate	Run2	generate/STIM_019.jpg
1286.783	0.853	1	generate	Run2	generate/STIM_019.jpg
1290.741	1.954	1	generate	Run2	generate/STIM_020.jpg
1295.426	1.411	0	generate	Run2	generate/STIM_020.jpg
1300.259	1.861	1	generate	Run2	generate/STIM_020.jpg
1305.415	1.519	0	generate	Run2	generate/STIM_020.jpg
1309.514	0.814	1	generate	Run2	generate/STIM_020.jpg
1313.042	1.636	0	generate	Run2	generate/STIM_021.jpg
1316.794	1.46	1	generate	Run2	generate/STIM_021.jpg
1321.744	1.128	0	generate	Run2	generate/STIM_021.jpg
1325.462	0.77	1	generate	Run2	generate/STIM_021.jpg
1329.823	1.656	1	generate	Run2	generate/STIM_021.jpg
1334.119	1.778	0	generate	Run2	generate/STIM_022.jpg
1339.07	2.049	1	generate	Run2	generate/STIM_022.jpg
1344.673	0.974	1	generate	Run2	generate/STIM_022.jpg
1349.325	1.385	0	generate	Run2	generate/STIM_022.jpg
1353.227	1.515	1	generate	Run2	generate/STIM_022.jpg
1358.07	2.016	1	generate	Run2	generate/STIM_023.jpg
1362.902	2.017	1	generate	Run2	generate/STIM_023.jpg
1367.48	1.131	0	generate	Run2	generate/STIM_023.jpg
1370.755	1.556	1	generate	Run2	generate/STIM_023.jpg
1374.97	1.813	1	generate	Run2	generate/STIM_023.jpg
1379.964	1.083	1	generate	Run2	generate/STIM_024.jpg
1384.755	2.016	1	generate	Run2	generate/STIM_024.jpg
1389.208	0.975	1	generate	Run2	generate/STIM_024.jpg
1392.686	1.472	1	generate	Run2	generate/STIM_024.jpg
1397.806	1.823	1	generate	Run2	generate/STIM_024.jpg
1401.89	0.457	1	repeat	Run2	repeat/STIM_000.jpg
1405.523	0.745	1	repeat	Run2	repeat/STIM_000.jpg
1408.8	0.501	1	repeat	Run2	repeat/STIM_000.jpg
1412.003	0.595	1	repeat	Run2	repeat/STIM_000.jpg
1415.717	0.451	1	repeat	Run2	repeat/STIM_000.jpg
1419.343	0.854	1	repeat	Run2	repeat/STIM_001.jpg
1423.362	0.574	0	repeat	Run2	repeat/STIM_001.jpg
1427.575	0.553	1	repeat	Run2	repeat/STIM_001.jpg
1430.761	0.858	1	repeat	Run2	repeat/STIM_001.jpg
1434.779	0.682	0	repeat	Run2	repeat/STIM_001.jpg
1438.917	0.439	1	repeat	Run2	repeat/STIM_002.jpg
1441.761	0.61	1	repeat	Run2	repeat/STIM_002.jpg
1445.474	0.868	1	repeat	Run2	repeat/STIM_002.jpg
1450.286	0.692	1	repeat	Run2	repeat/STIM_002.jpg
1454.515	0.529	1	repeat	Run2	repeat/STIM_002.jpg
1457.759	0.725	0	repeat	Run2	repeat/STIM_003.jpg
1461.543	0.507	1	repeat	Run2	repeat/STIM_003.jpg
1465.776	0.64	1	repeat	Run2	repeat/STIM_003.jpg
1469.355	0.577	1	repeat	Run2	repeat/STIM_003.jpg
1473.217	0.859	1	repeat	Run2	repeat/STIM_003.jpg
1477.907	0.449	1	repeat	Run2	repeat/STIM_004.jpg
1481.865	0.865	1	repeat	Run2	repeat/STIM_004.jpg
1485.572	0.607	1	repeat	Run2	repeat/STIM_004.jpg
1488.766	0.68	1	repeat	Run2	repeat/STIM_004.jpg
1492.637	0.465	1	repeat	Run2	repeat/STIM_004.jpg
1496.078	0.669	1	repeat	Run2	repeat/STIM_005.jpg
1499.215	0.542	1	repeat	Run2	repeat/STIM_005.jpg
1503.05	0.756	1	repeat	Run2	repeat/STIM_005.jpg
1507.558	0.452	1	repeat	Run2	repeat/STIM_005.jpg
1511.336	0.699	1	repeat	Run2	repeat/STIM_005.jpg
1515.493	0.579	1	repeat	Run2	repeat/STIM_006.jpg
1519.063	0.48	1	repeat	Run2	repeat/STIM_006.jpg
1522.035	0.843	1	repeat	Run2	repeat/STIM_006.jpg
1526.593	0.488	1	repeat	Run2	repeat/STIM_006.jpg
1530.689	0.626	0	repeat	Run2	repeat/STIM_006.jpg
1534.991	0.847	0	repeat	Run2	repeat/STIM_007.jpg
1537.856	0.637	0	repeat	Run2	repeat/STIM_007.jpg
1542.382	0.869	1	repeat	Run2	repeat/STIM_007.jpg
1546.795	0.547	1	repeat	Run2	repeat/STIM_007.jpg
1551.151	0.685	1	repeat	Run2	repeat/STIM_007.jpg
1555.813	0.52	1	repeat	Run2	repeat/STIM_008.jpg
1559.214	0.551	1	repeat	Run2	repeat/STIM_008.jpg
1563.161	0.611	0	repeat	Run2	repeat/STIM_008.jpg
1567.354	0.666	0	repeat	Run2	repeat/STIM_008.jpg
1571.516	0.606	1	repeat	Run2	repeat/STIM_008.jpg
1574.784	0.518	1	repeat	Run2	repeat/STIM_009.jpg
1579.234	0.843	1	repeat	Run2	repeat/STIM_009.jpg
1582.981	0.808	1	repeat	Run2	repeat/STIM_009.jpg
1587.375	0.542	1	repeat	Run2	repeat/STIM_009.jpg
1591.877	0.84	1	repeat	Run2	repeat/STIM_009.jpg
1594.914	0.476	1	repeat	Run2	repeat/STIM_010.jpg
1598.167	0.835	1	repeat	Run2	repeat/STIM_010.jpg
1601.085	0.654	1	repeat	Run2	repeat/STIM_010.jpg
1604.489	0.77	0	repeat	Run2	repeat/STIM_010.jpg
1608.224	0.574	0	repeat	Run2	repeat/STIM_010.jpg
1611.969	0.456	1	repeat	Run2	repeat/STIM_011.jpg
1616.084	0.557	1	repeat	Run2	repeat/STIM_011.jpg
1619.11	0.86	1	repeat	Run2	repeat/STIM_011.jpg
1622.035	0.727	1	repeat	Run2	repeat/STIM_011.jpg
1625.386	0.733	1	repeat	Run2	repeat/STIM_011.jpg
1628.121	0.792	1	repeat	Run2	repeat/STIM_012.jpg
1630.96	0.761	1	repeat	Run2	repeat/STIM_012.jpg
1634.271	0.759	0	repeat	Run2	repeat/STIM_012.jpg
1637.131	0.534	1	repeat	Run2	repeat/STIM_012.jpg
1641.25	0.604	1	repeat	Run2	repeat/STIM_012.jpg
1645.363	0.653	1	repeat	Run2	repeat/STIM_013.jpg
1648.384	0.774	0	repeat	Run2	repeat/STIM_013.jpg
1651.838	0.688	1	repeat	Run2	repeat/STIM_013.jpg
1655.656	0.768	1	repeat	Run2	repeat/STIM_013.jpg
1659.19	0.464	1	repeat	Run2	repeat/STIM_013.jpg
1661.816	0.715	1	repeat	Run2	repeat/STIM_014.jpg
1665.623	0.848	1	repeat	Run2	repeat/STIM_014.jpg
1670.387	0.664	1	repeat	Run2	repeat/STIM_014.jpg
1674.952	0.634	1	repeat	Run2	repeat/STIM_014.jpg
1679.522	0.463	1	repeat	Run2	repeat/STIM_014.jpg
1683.347	1.301	1	generate	Run3	generate/STIM_000.jpg
1687.35	1.52	1	generate	Run3	generate/STIM_000.jpg
1691.085	1.25	1	generate	Run3	generate/STIM_000.jpg
1695.793	1.001	1	generate	Run3	generate/STIM_000.jpg
1700.775	1.069	1	generate	Run3	generate/STIM_000.jpg
1705.024	1.333	1	generate	Run3	generate/STIM_001.jpg
1709.864	1.468	0	generate	Run3	generate/STIM_001.jpg
1713.85	1.318	0	generate	Run3	generate/STIM_001.jpg
1718.055	1.358	0	generate	Run3	generate/STIM_001.jpg
1722.791	0.978	0	generate	Run3	generate/STIM_001.jpg
1725.953	1.384	1	generate	Run3	generate/STIM_002.jpg
1730.094	1.547	1	generate	Run3	generate/STIM_002.jpg
1734.967	1.471	0	generate	Run3	generate/STIM_002.jpg
1739.838	0.838	1	generate	Run3	generate/STIM_002.jpg
1744.626	1.271	0	generate	Run3	generate/STIM_002.jpg
1748.79	1.694	0	generate	Run3	generate/STIM_003.jpg
1754.145	0.848	1	generate	Run3	generate/STIM_003.jpg
1757.24	1.465	1	generate	Run3	generate/STIM_003.jpg
1761.345	1.183	1	generate	Run3	generate/STIM_003.jpg
1764.77	1.708	1	generate	Run3	generate/STIM_003.jpg
1769.383	1.522	1	generate	Run3	generate/STIM_004.jpg
1774.641	1.142	0	generate	Run3	generate/STIM_004.jpg
1778.405	1.2	1	generate	Run3	generate/STIM_004.jpg
1782.93	1.068	1	generate	Run3	generate/STIM_004.jpg
1786.089	0.751	1	generate	Run3	generate/STIM_004.jpg
1789.973	1.179	1	generate	Run3	generate/STIM_005.jpg
1793.316	1.062	1	generate	Run3	generate/STIM_005.jpg
1798.261	0.908	0	generate	Run3	generate/STIM_005.jpg
1801.588	1.068	0	generate	Run3	generate/STIM_005.jpg
1805.295	1.426	1	generate	Run3	generate/STIM_005.jpg
1809.042	0.81	1	generate	Run3	generate/STIM_006.jpg
1812.294	0.771	1	generate	Run3	generate/STIM_006.jpg
1815.831	1.44	1	generate	Run3	generate/STIM_006.jpg
1820.819	1.514	1	generate	Run3	generate/STIM_006.jpg
1824.412	1.08	0	generate	Run3	generate/STIM_006.jpg
1828.27	1.564	1	generate	Run3	generate/STIM_007.jpg
1833.137	1.511	0	generate	Run3	generate/STIM_007.jpg
1837.88	1.636	1	generate	Run3	generate/STIM_007.jpg
1843.463	1.112	1	generate	Run3	generate/STIM_007.jpg
1847.252	0.845	1	generate	Run3	generate/STIM_007.jpg
1850.781	1.196	0	generate	Run3	generate/STIM_008.jpg
1854.713	1.146	1	generate	Run3	generate/STIM_008.jpg
1859.002	1.688	0	generate	Run3	generate/STIM_008.jpg
1864.531	1.147	1	generate	Run3	generate/STIM_008.jpg
1868.041	0.734	1	generate	Run3	generate/STIM_008.jpg
1872.337	1.683	1	generate	Run3	generate/STIM_009.jpg
1877.802	1.204	1	generate	Run3	generate/STIM_009.jpg
1882.286	1.188	1	generate	Run3	generate/STIM_009.jpg
1885.644	1.564	1	generate	Run3	generate/STIM_009.jpg
1889.789	1.259	1	generate	Run3	generate/STIM_009.jpg
1894.575	0.748	1	generate	Run3	generate/STIM_010.jpg
1898.941	1.224	1	generate	Run3	generate/STIM_010.jpg
1902.895	1.124	1	generate	Run3	generate/STIM_010.jpg
1906.278	1.677	0	generate	Run3	generate/STIM_010.jpg
1910.114	1.733	1	generate	Run3	generate/STIM_010.jpg
1914.124	1.053	1	generate	Run3	generate/STIM_011.jpg
1917.196	0.945	0	generate	Run3	generate/STIM_011.jpg
1921.57	1.007	1	generate	Run3	generate/STIM_011.jpg
1925.311	1.694	1	generate	Run3	generate/STIM_011.jpg
1930.782	1.747	1	generate	Run3	generate/STIM_011.jpg
1934.543	1.176	1	generate	Run3	generate/STIM_012.jpg
1939.198	1.816	1	generate	Run3	generate/STIM_012.jpg
1944.383	1.376	1	generate	Run3	generate/STIM_012.jpg
1949.75	1.326	0	generate	Run3	generate/STIM_012.jpg
1953.097	1.229	1	generate	Run3	generate/STIM_012.jpg
1957.629	1.69	1	generate	Run3	generate/STIM_013.jpg
1963.253	1.206	0	generate	Run3	generate/STIM_013.jpg
1967.146	1.469	1	generate	Run3	generate/STIM_013.jpg
1971.003	1.233	0	generate	Run3	generate/STIM_013.jpg
1975.402	1.753	1	generate	Run3	generate/STIM_013.jpg
1979.172	1.44	1	generate	Run3	generate/STIM_014.jpg
1984.391	1.168	1	generate	Run3	generate/STIM_014.jpg
1989.408	1.456	1	generate	Run3	generate/STIM_014.jpg
1994.345	0.868	1	generate	Run3	generate/STIM_014.jpg
1997.645	1.19	1	generate	Run3	generate/STIM_014.jpg
2002.025	1.278	1	generate	Run3	generate/STIM_015.jpg
2007.224	0.905	1	generate	Run3	generate/STIM_015.jpg
2011.363	1.621	0	generate	Run3	generate/STIM_015.jpg
2016.798	1.019	1	generate	Run3	generate/STIM_015.jpg
2020.206	1.816	1	generate	Run3	generate/STIM_015.jpg
2025.771	1.513	0	generate	Run3	generate/STIM_016.jpg
2029.402	0.777	1	generate	Run3	generate/STIM_016.jpg
2033.719	1.741	0	generate	Run3	generate/STIM_016.jpg
2037.625	1.706	1	generate	Run3	generate/STIM_016.jpg
2041.694	1.778	0	generate	Run3	generate/STIM_016.jpg
2047.112	0.777	1	generate	Run3	generate/STIM_017.jpg
2050.281	0.85	1	generate	Run3	generate/STIM_017.jpg
2053.248	1.58	0	generate	Run3	generate/STIM_017.jpg
2057.232	1.466	1	generate	Run3	generate/STIM_017.jpg
2062.249	1.371	1	generate	Run3	generate/STIM_017.jpg
2065.639	1.55	0	generate	Run3	generate/STIM_018.jpg
2069.981	1.802	0	generate	Run3	generate/STIM_018.jpg
2075.293	0.749	1	generate	Run3	generate/STIM_018.jpg
2078.36	1.472	1	generate	Run3	generate/STIM_018.jpg
2083.588	1.672	1	generate	Run3	generate/STIM_018.jpg
2088.513	1.127	0	generate	Run3	generate/STIM_019.jpg
2092.011	1.054	1	generate	Run3	generate/STIM_019.jpg
2096.764	1.222	1	generate	Run3	generate/STIM_019.jpg
2100.121	1.743	1	generate	Run3	generate/STIM_019.jpg
2104.814	1.174	1	generate	Run3	generate/STIM_019.jpg
2109.699	1.232	1	generate	Run3	generate/STIM_020.jpg
2114.134	1.81	1	generate	Run3	generate/STIM_020.jpg
2119.902	0.994	1	generate	Run3	generate/STIM_020.jpg
2123.102	1.119	1	generate	Run3	generate/STIM_020.jpg
2127.092	1.672	1	generate	Run3	generate/STIM_020.jpg
2132.516	1.319	0	generate	Run3	generate/STIM_021.jpg
2136.473	1.149	1	generate	Run3	generate/STIM_021.jpg
2141.331	1.387	1	generate	Run3	generate/STIM_021.jpg
2146.468	1.04	1	generate	Run3	generate/STIM_021.jpg
2150.523	1.047	0	generate	Run3	generate/STIM_021.jpg
2153.808	1.25	1	generate	Run3	generate/STIM_022.jpg
2157.391	0.817	1	generate	Run3	generate/STIM_022.jpg
2161.093	1.22	1	generate	Run3	generate/STIM_022.jpg
2165.459	1.226	1	generate	Run3	generate/STIM_022.jpg
2169.54	1.241	1	generate	Run3	generate/STIM_022.jpg
2174.181	1.579	0	generate	Run3	generate/STIM_023.jpg
2179.579	1.573	1	generate	Run3	generate/STIM_023.jpg
2184.443	0.768	0	generate	Run3	generate/STIM_023.jpg
2187.984	0.808	0	generate	Run3	generate/STIM_023.jpg
2191.504	1.314	1	generate	Run3	generate/STIM_023.jpg
2196.133	1.363	0	generate	Run3	generate/STIM_024.jpg
2201.182	0.945	1	generate	Run3	generate/STIM_024.jpg
2205.353	0.819	1	generate	Run3	generate/STIM_024.jpg
2209.475	1.368	1	generate	Run3	generate/STIM_024.jpg
2213.892	0.74	1	generate	Run3	generate/STIM_024.jpg
2217.006	0.667	1	repeat	Run3	repeat/STIM_000.jpg
2220.595	0.699	1	repeat	Run3	repeat/STIM_000.jpg
2223.74	0.756	1	repeat	Run3	repeat/STIM_000.jpg
2227.429	0.64	0	repeat	Run3	repeat/STIM_000.jpg
2230.348	0.837	0	repeat	Run3	repeat/STIM_000.jpg
2234.636	0.78	1	repeat	Run3	repeat/STIM_001.jpg
2238.435	0.509	1	repeat	Run3	repeat/STIM_001.jpg
2241.249	0.72	1	repeat	Run3	repeat/STIM_001.jpg
2244.268	0.749	0	repeat	Run3	repeat/STIM_001.jpg
2247.884	0.845	1	repeat	Run3	repeat/STIM_001.jpg
2252.203	0.829	1	repeat	Run3	repeat/STIM_002.jpg
2255.256	0.546	1	repeat	Run3	repeat/STIM_002.jpg
2257.944	0.698	1	repeat	Run3	repeat/STIM_002.jpg
2261.995	0.665	1	repeat	Run3	repeat/STIM_002.jpg
2265.232	0.784	1	repeat	Run3	repeat/STIM_002.jpg
2269.065	0.553	1	repeat	Run3	repeat/STIM_003.jpg
2273.016	0.744	0	repeat	Run3	repeat/STIM_003.jpg
2276.092	0.491	1	repeat	Run3	repeat/STIM_003.jpg
2279.443	0.613	0	repeat	Run3	repeat/STIM_003.jpg
2283.127	0.708	0	repeat	Run3	repeat/STIM_003.jpg
2286.801	0.851	0	repeat	Run3	repeat/STIM_004.jpg
2290.405	0.486	1	repeat	Run3	repeat/STIM_004.jpg
2293.532	0.511	1	repeat	Run3	repeat/STIM_004.jpg
2296.589	0.462	1	repeat	Run3	repeat/STIM_004.jpg
2300.448	0.543	1	repeat	Run3	repeat/STIM_004.jpg
2304.242	0.73	0	repeat	Run3	repeat/STIM_005.jpg
2307.568	0.638	1	repeat	Run3	repeat/STIM_005.jpg
2310.889	0.564	1	repeat	Run3	repeat/STIM_005.jpg
2315.249	0.67	1	repeat	Run3	repeat/STIM_005.jpg
2318.6	0.754	1	repeat	Run3	repeat/STIM_005.jpg
2323.16	0.583	1	repeat	Run3	repeat/STIM_006.jpg
2325.959	0.488	0	repeat	Run3	repeat/STIM_006.jpg
2329.921	0.523	1	repeat	Run3	repeat/STIM_006.jpg
2333.432	0.705	1	repeat	Run3	repeat/STIM_006.jpg
2337.603	0.821	1	repeat	Run3	repeat/STIM_006.jpg
2342.012	0.665	1	repeat	Run3	repeat/STIM_007.jpg
2344.86	0.565	1	repeat	Run3	repeat/STIM_007.jpg
2348.561	0.438	0	repeat	Run3	repeat/STIM_007.jpg
2351.424	0.78	1	repeat	Run3	repeat/STIM_007.jpg
2355.337	0.822	1	repeat	Run3	repeat/STIM_007.jpg
2358.261	0.496	1	repeat	Run3	repeat/STIM_008.jpg
2360.957	0.832	0	repeat	Run3	repeat/STIM_008.jpg
2364.528	0.558	1	repeat	Run3	repeat/STIM_008.jpg
2367.622	0.599	1	repeat	Run3	repeat/STIM_008.jpg
2371.854	0.514	1	repeat	Run3	repeat/STIM_008.jpg
2375.865	0.626	1	repeat	Run3	repeat/STIM_009.jpg
2378.562	0.74	1	repeat	Run3	repeat/STIM_009.jpg
2382.756	0.857	1	repeat	Run3	repeat/STIM_009.jpg
2387.129	0.48	1	repeat	Run3	repeat/STIM_009.jpg
2391.217	0.806	0	repeat	Run3	repeat/STIM_009.jpg
2394.681	0.529	1	repeat	Run3	repeat/STIM_010.jpg
2398.597	0.456	1	repeat	Run3	repeat/STIM_010.jpg
2401.471	0.56	0	repeat	Run3	repeat/STIM_010.jpg
2405.669	0.664	1	repeat	Run3	repeat/STIM_010.jpg
2409.591	0.536	1	repeat	Run3	repeat/STIM_010.jpg
2412.771	0.532	1	repeat	Run3	repeat/STIM_011.jpg
2417.215	0.846	1	repeat	Run3	repeat/STIM_011.jpg
2420.114	0.574	0	repeat	Run3	repeat/STIM_011.jpg
2423.073	0.466	1	repeat	Run3	repeat/STIM_011.jpg
2426.76	0.854	1	repeat	Run3	repeat/STIM_011.jpg
2430.971	0.697	1	repeat	Run3	repeat/STIM_012.jpg
2435.348	0.791	1	repeat	Run3	repeat/STIM_012.jpg
2439.144	0.668	1	repeat	Run3	repeat/STIM_012.jpg
2443.301	0.551	1	repeat	Run3	repeat/STIM_012.jpg
2446.352	0.719	1	repeat	Run3	repeat/STIM_012.jpg
2450.858	0.445	1	repeat	Run3	repeat/STIM_013.jpg
2454.801	0.483	1	repeat	Run3	repeat/STIM_013.jpg
2457.693	0.825	1	repeat	Run3	repeat/STIM_013.jpg
2461.612	0.546	0	repeat	Run3	repeat/STIM_013.jpg
2466.102	0.59	1	repeat	Run3	repeat/STIM_013.jpg
2469.379	0.547	1	repeat	Run3	repeat/STIM_014.jpg
2473.121	0.582	1	repeat	Run3	repeat/STIM_014.jpg
2476.915	0.586	1	repeat	Run3	repeat/STIM_014.jpg
2479.651	0.839	1	repeat	Run3	repeat/STIM_014.jpg
2484.337	0.545	0	repeat	Run3	repeat/STIM_014.jpg
2487.674	1.411	1	generate	Run4	generate/STIM_000.jpg
2491.988	0.751	0	generate	Run4	generate/STIM_000.jpg
2496.259	1.064	1	generate	Run4	generate/STIM_000.jpg
2501.248	0.914	1	generate	Run4	generate/STIM_000.jpg
2504.792	1.173	0	generate	Run4	generate/STIM_000.jpg
2508.506	1.743	1	generate	Run4	generate/STIM_001.jpg
2512.439	1.296	0	generate	Run4	generate/STIM_001.jpg
2516.386	1.323	1	generate	Run4	generate/STIM_001.jpg
2519.994	1.424	0	generate	Run4	generate/STIM_001.jpg
2524.93	0.936	1	generate	Run4	generate/STIM_001.jpg
2528.657	1.373	1	generate	Run4	generate/STIM_002.jpg
2532.102	1.294	0	generate	Run4	generate/STIM_002.jpg
2535.879	1.607	1	generate	Run4	generate/STIM_002.jpg
2540.597	0.877	0	generate	Run4	generate/STIM_002.jpg
2544.602	0.945	1	generate	Run4	generate/STIM_002.jpg
2548.549	1.474	1	generate	Run4	generate/STIM_003.jpg
2553.12	1.231	1	generate	Run4	generate/STIM_003.jpg
2557.476	0.774	1	generate	Run4	generate/STIM_003.jpg
2562.117	1.171	1	generate	Run4	generate/STIM_003.jpg
2565.679	1.227	1	generate	Run4	generate/STIM_003.jpg
2569.837	1.683	0	generate	Run4	generate/STIM_004.jpg
2573.541	1.738	1	generate	Run4	generate/STIM_004.jpg
2577.282	0.97	1	generate	Run4	generate/STIM_004.jpg
2581.38	1.69	1	generate	Run4	generate/STIM_004.jpg
2585.839	1.01	1	generate	Run4	generate/STIM_004.jpg
2589.151	1.726	1	generate	Run4	generate/STIM_005.jpg
2593.456	1.244	1	generate	Run4	generate/STIM_005.jpg
2598.431	1.655	1	generate	Run4	generate/STIM_005.jpg
2603.381	1.003	1	generate	Run4	generate/STIM_005.jpg
2607.004	1.337	1	generate	Run4	generate/STIM_005.jpg
2611.898	1.807	1	generate	Run4	generate/STIM_006.jpg
2616.416	1.812	1	generate	Run4	generate/STIM_006.jpg
2620.4	1.714	1	generate	Run4	generate/STIM_006.jpg
2624.353	1.217	0	generate	Run4	generate/STIM_006.jpg
2628.811	1.395	1	generate	Run4	generate/STIM_006.jpg
2633.625	0.817	1	generate	Run4	generate/STIM_007.jpg
2637.643	0.754	0	generate	Run4	generate/STIM_007.jpg
2642.251	1.552	1	generate	Run4	generate/STIM_007.jpg
2647.171	1.288	1	generate	Run4	generate/STIM_007.jpg
2651.331	1.076	1	generate	Run4	generate/STIM_007.jpg
2655.86	0.864	1	generate	Run4	generate/STIM_008.jpg
2659.057	1.747	0	generate	Run4	generate/STIM_008.jpg
2663.488	1.542	0	generate	Run4	generate/STIM_008.jpg
2667.286	1.101	1	generate	Run4	generate/STIM_008.jpg
2670.74	1.346	1	generate	Run4	generate/STIM_008.jpg
2674.816	1.826	1	generate	Run4	generate/STIM_009.jpg
2679.116	1.786	0	generate	Run4	generate/STIM_009.jpg
2683.939	1.333	0	generate	Run4	generate/STIM_009.jpg
2687.348	1.164	1	generate	Run4	generate/STIM_009.jpg
2691.467	1.105	0	generate	Run4	generate/STIM_009.jpg
2695.751	1.706	1	generate	Run4	generate/STIM_010.jpg
2699.821	1.365	1	generate	Run4	generate/STIM_010.jpg
2704.327	0.924	1	generate	Run4	generate/STIM_010.jpg
2707.782	1.432	0	generate	Run4	generate/STIM_010.jpg
2712.05	1.556	1	generate	Run4	generate/STIM_010.jpg
2716.464	1.415	1	generate	Run4	generate/STIM_011.jpg
2721.719	0.767	1	generate	Run4	generate/STIM_011.jpg
2724.845	0.922	0	generate	Run4	generate/STIM_011.jpg
2729.701	1.057	1	generate	Run4	generate/STIM_011.jpg
2732.829	1.066	1	generate	Run4	generate/STIM_011.jpg
2737.144	1.212	1	generate	Run4	generate/STIM_012.jpg
2742.195	1.024	1	generate	Run4	generate/STIM_012.jpg
2746.568	1.772	1	generate	Run4	generate/STIM_012.jpg
2751.769	1.276	1	generate	Run4	generate/STIM_012.jpg
2755.127	1.673	1	generate	Run4	generate/STIM_012.jpg
2760.667	1.156	1	generate	Run4	generate/STIM_013.jpg
2763.839	1.598	1	generate	Run4	generate/STIM_013.jpg
2769.263	1.068	1	generate	Run4	generate/STIM_013.jpg
2772.866	1.426	1	generate	Run4	generate/STIM_013.jpg
2776.756	1.116	1	generate	Run4	generate/STIM_013.jpg
2781.114	0.934	1	generate	Run4	generate/STIM_014.jpg
2784.902	1.739	1	generate	Run4	generate/STIM_014.jpg
2789.728	1.671	1	generate	Run4	generate/STIM_014.jpg
2793.798	1.037	1	generate	Run4	generate/STIM_014.jpg
2798.41	1.726	1	generate	Run4	generate/STIM_014.jpg
2802.683	1.329	1	generate	Run4	generate/STIM_015.jpg
2806.624	1.816	1	generate	Run4	generate/STIM_015.jpg
2811.667	1.223	0	generate	Run4	generate/STIM_015.jpg
2816.432	1.551	1	generate	Run4	generate/STIM_015.jpg
2820.672	1.034	0	generate	Run4	generate/STIM_015.jpg
2824.451	1.202	1	generate	Run4	generate/STIM_016.jpg
2828.733	1.386	1	generate	Run4	generate/STIM_016.jpg
2832.349	1.014	0	generate	Run4	generate/STIM_016.jpg
2836.21	1.048	1	generate	Run4	generate/STIM_016.jpg
2839.585	1.789	0	generate	Run4	generate/STIM_016.jpg
2844.255	1.263	1	generate	Run4	generate/STIM_017.jpg
2849.343	1.598	1	generate	Run4	generate/STIM_017.jpg
2854.68	1.629	1	generate	Run4	generate/STIM_017.jpg
2858.438	1.575	1	generate	Run4	generate/STIM_017.jpg
2863.28	1.642	1	generate	Run4	generate/STIM_017.jpg
2866.977	1.798	1	generate	Run4	generate/STIM_018.jpg
2872.454	0.923	1	generate	Run4	generate/STIM_018.jpg
2875.614	0.756	0	generate	Run4	generate/STIM_018.jpg
2878.519	1.791	0	generate	Run4	generate/STIM_018.jpg
2883.136	1.765	1	generate	Run4	generate/STIM_018.jpg
2887.9	1.582	1	generate	Run4	generate/STIM_019.jpg
2892.348	1.194	1	generate	Run4	generate/STIM_019.jpg
2896.062	1.584	1	generate	Run4	generate/STIM_019.jpg
2900.783	1.684	1	generate	Run4	generate/STIM_019.jpg
2905.622	0.942	1	generate	Run4	generate/STIM_019.jpg
2908.782	1.039	1	generate	Run4	generate/STIM_020.jpg
2912.544	1.096	1	generate	Run4	generate/STIM_020.jpg
2917.632	1.188	1	generate	Run4	generate/STIM_020.jpg
2922.71	1.725	1	generate	Run4	generate/STIM_020.jpg
2927.43	0.816	1	generate	Run4	generate/STIM_020.jpg
2932.047	1.25	0	generate	Run4	generate/STIM_021.jpg
2937.266	1.615	1	generate	Run4	generate/STIM_021.jpg
2942.684	1.603	1	generate	Run4	generate/STIM_021.jpg
2946.33	1.442	0	generate	Run4	generate/STIM_021.jpg
2949.899	0.745	0	generate	Run4	generate/STIM_021.jpg
2954.106	1.552	1	generate	Run4	generate/STIM_022.jpg
2958.927	1.211	1	generate	Run4	generate/STIM_022.jpg
2962.67	0.811	1	generate	Run4	generate/STIM_022.jpg
2967.169	1.116	1	generate	Run4	generate/STIM_022.jpg
2970.481	1.303	1	generate	Run4	generate/STIM_022.jpg
2975.397	1.231	1	generate	Run4	generate/STIM_023.jpg
2979.227	0.937	1	generate	Run4	generate/STIM_023.jpg
2983.721	1.519	1	generate	Run4	generate/STIM_023.jpg
2988.751	1.588	1	generate	Run4	generate/STIM_023.jpg
2993.852	1.139	1	generate	Run4	generate/STIM_023.jpg
2998.409	1.732	0	generate	Run4	generate/STIM_024.jpg
3003.729	1.194	1	generate	Run4	generate/STIM_024.jpg
3007.121	1.443	0	generate	Run4	generate/STIM_024.jpg
3011.272	1.435	1	generate	Run4	generate/STIM_024.jpg
3015.09	1.624	1	generate	Run4	generate/STIM_024.jpg
3019.889	0.474	1	repeat	Run4	repeat/STIM_000.jpg
3023.295	0.704	1	repeat	Run4	repeat/STIM_000.jpg
3027.651	0.841	1	repeat	Run4	repeat/STIM_000.jpg
3032.107	0.801	1	repeat	Run4	repeat/STIM_000.jpg
3036.077	0.536	1	repeat	Run4	repeat/STIM_000.jpg
3038.967	0.789	1	repeat	Run4	repeat/STIM_001.jpg
3043.156	0.482	1	repeat	Run4	repeat/STIM_001.jpg
3046.387	0.758	1	repeat	Run4	repeat/STIM_001.jpg
3050.038	0.681	1	repeat	Run4	repeat/STIM_001.jpg
3054.328	0.632	1	repeat	Run4	repeat/STIM_001.jpg
3057.53	0.558	0	repeat	Run4	repeat/STIM_002.jpg
3060.397	0.494	1	repeat	Run4	repeat/STIM_002.jpg
3063.628	0.438	1	repeat	Run4	repeat/STIM_002.jpg
3067.485	0.696	1	repeat	Run4	repeat/STIM_002.jpg
3071.549	0.848	1	repeat	Run4	repeat/STIM_002.jpg
3074.527	0.518	1	repeat	Run4	repeat/STIM_003.jpg
3078.585	0.604	1	repeat	Run4	repeat/STIM_003.jpg
3082.125	0.828	0	repeat	Run4	repeat/STIM_003.jpg
3085.789	0.752	1	repeat	Run4	repeat/STIM_003.jpg
3090.437	0.739	1	repeat	Run4	repeat/STIM_003.jpg
3093.64	0.752	1	repeat	Run4	repeat/STIM_004.jpg
3096.716	0.861	1	repeat	Run4	repeat/STIM_004.jpg
3099.757	0.807	1	repeat	Run4	repeat/STIM_004.jpg
3104.106	0.746	1	repeat	Run4	repeat/STIM_004.jpg
3108.812	0.466	1	repeat	Run4	repeat/STIM_004.jpg
3112.381	0.767	1	repeat	Run4	repeat/STIM_005.jpg
3115.393	0.792	1	repeat	Run4	repeat/STIM_005.jpg
3118.608	0.627	1	repeat	Run4	repeat/STIM_005.jpg
3121.302	0.439	1	repeat	Run4	repeat/STIM_005.jpg
3125.388	0.486	0	repeat	Run4	repeat/STIM_005.jpg
3129.201	0.481	1	repeat	Run4	repeat/STIM_006.jpg
3132.162	0.462	1	repeat	Run4	repeat/STIM_006.jpg
3135.978	0.865	1	repeat	Run4	repeat/STIM_006.jpg
3140.526	0.639	1	repeat	Run4	repeat/STIM_006.jpg
3143.343	0.731	1	repeat	Run4	repeat/STIM_006.jpg
3147.241	0.557	1	repeat	Run4	repeat/STIM_007.jpg
3150.851	0.824	1	repeat	Run4	repeat/STIM_007.jpg
3154.544	0.491	1	repeat	Run4	repeat/STIM_007.jpg
3157.435	0.814	1	repeat	Run4	repeat/STIM_007.jpg
3160.652	0.586	1	repeat	Run4	repeat/STIM_007.jpg
3164.385	0.466	1	repeat	Run4	repeat/STIM_008.jpg
3168.143	0.71	1	repeat	Run4	repeat/STIM_008.jpg
3170.895	0.446	1	repeat	Run4	repeat/STIM_008.jpg
3173.777	0.602	1	repeat	Run4	repeat/STIM_008.jpg
3177.83	0.745	1	repeat	Run4	repeat/STIM_008.jpg
3182.182	0.78	0	repeat	Run4	repeat/STIM_009.jpg
3186.259	0.589	1	repeat	Run4	repeat/STIM_009.jpg
3188.863	0.692	1	repeat	Run4	repeat/STIM_009.jpg
3192.648	0.788	1	repeat	Run4	repeat/STIM_009.jpg
3196.848	0.769	1	repeat	Run4	repeat/STIM_009.jpg
3201.025	0.749	0	repeat	Run4	repeat/STIM_010.jpg
3205.491	0.593	1	repeat	Run4	repeat/STIM_010.jpg
3210.06	0.561	1	repeat	Run4	repeat/STIM_010.jpg
3213.459	0.815	0	repeat	Run4	repeat/STIM_010.jpg
3217.95	0.697	1	repeat	Run4	repeat/STIM_010.jpg
3221.457	0.643	1	repeat	Run4	repeat/STIM_011.jpg
3225.709	0.65	0	repeat	Run4	repeat/STIM_011.jpg
3230.058	0.44	0	repeat	Run4	repeat/STIM_011.jpg
3234.041	0.836	1	repeat	Run4	repeat/STIM_011.jpg
3237.749	0.619	1	repeat	Run4	repeat/STIM_011.jpg
3240.662	0.832	1	repeat	Run4	repeat/STIM_012.jpg
3244.968	0.793	0	repeat	Run4	repeat/STIM_012.jpg
3248.471	0.497	1	repeat	Run4	repeat/STIM_012.jpg
3252.194	0.587	1	repeat	Run4	repeat/STIM_012.jpg
3255.169	0.626	0	repeat	Run4	repeat/STIM_012.jpg
3259.612	0.541	1	repeat	Run4	repeat/STIM_013.jpg
3264.109	0.596	1	repeat	Run4	repeat/STIM_013.jpg
3267.978	0.703	1	repeat	Run4	repeat/STIM_013.jpg
3271.149	0.509	1	repeat	Run4	repeat/STIM_013.jpg
3275.08	0.822	1	repeat	Run4	repeat/STIM_013.jpg
3279.834	0.466	1	repeat	Run4	repeat/STIM_014.jpg
3283.357	0.749	1	repeat	Run4	repeat/STIM_014.jpg
3286.257	0.507	1	repeat	Run4	repeat/STIM_014.jpg
3289.676	0.528	1	repeat	Run4	repeat/STIM_014.jpg
3293.362	0.773	1	repeat	Run4	repeat/STIM_014.jpg
