onset	duration	response_time_ms	trial_type	learning_stage	stimulus	response_port
0.0	4.568	4567.6	navigation	Trial1	navigation/STIM_000.jpg	99
7.231	5.17	5170.5	navigation	Trial1	navigation/STIM_000.jpg	99
14.177	3.084	3084.2	navigation	Trial1	navigation/STIM_000.jpg	100
20.765	2.106	2105.9	navigation	Trial1	navigation/STIM_000.jpg	100
25.029	2.915	2915.1	navigation	Trial1	navigation/STIM_000.jpg	99
29.846	2.797	2797.2	navigation	Trial1	navigation/STIM_000.jpg	100
35.955	3.69	3690.1	navigation	Trial1	navigation/STIM_001.jpg	100
41.687	5.234	5234.0	navigation	Trial1	navigation/STIM_001.jpg	100
49.604	4.902	4902.5	navigation	Trial1	navigation/STIM_001.jpg	99
56.009	4.802	4801.9	navigation	Trial1	navigation/STIM_001.jpg	100
62.835	1.856	1855.6	navigation	Trial1	navigation/STIM_001.jpg	100
67.466	3.916	3916.3	navigation	Trial1	navigation/STIM_001.jpg	100
72.98	2.484	2483.7	navigation	Trial1	navigation/STIM_002.jpg	99
78.21	5.179	5179.1	navigation	Trial1	navigation/STIM_002.jpg	100
85.339	4.356	4356.1	navigation	Trial1	navigation/STIM_002.jpg	99
91.193	3.166	3165.9	navigation	Trial1	navigation/STIM_002.jpg	99
96.358	4.334	4334.2	navigation	Trial1	navigation/STIM_002.jpg	100
103.214	3.056	3055.8	navigation	Trial1	navigation/STIM_002.jpg	99
109.129	2.506	2506.3	navigation	Trial1	navigation/STIM_003.jpg	100
113.441	4.278	4278.0	navigation	Trial1	navigation/STIM_003.jpg	99
120.967	5.025	5024.9	navigation	Trial1	navigation/STIM_003.jpg	100
128.045	2.251	2251.1	navigation	Trial1	navigation/STIM_003.jpg	99
133.002	2.694	2693.8	navigation	Trial1	navigation/STIM_003.jpg	99
138.103	1.817	1816.6	navigation	Trial1	navigation/STIM_003.jpg	100
142.739	2.964	2963.8	navigation	Trial1	navigation/STIM_004.jpg	99
147.93	3.962	3961.6	navigation	Trial1	navigation/STIM_004.jpg	100
155.177	2.725	2725.1	navigation	Trial1	navigation/STIM_004.jpg	99
160.581	4.667	4667.2	navigation	Trial1	navigation/STIM_004.jpg	100
167.635	2.281	2281.4	navigation	Trial1	navigation/STIM_004.jpg	99
172.553	3.26	3259.8	navigation	Trial1	navigation/STIM_004.jpg	99
178.951	5.074	5073.6	navigation	Trial1	navigation/STIM_005.jpg	99
186.675	2.877	2876.6	navigation	Trial1	navigation/STIM_005.jpg	100
191.647	3.168	3168.1	navigation	Trial1	navigation/STIM_005.jpg	99
197.444	4.255	4255.0	navigation	Trial1	navigation/STIM_005.jpg	100
204.301	2.502	2502.4	navigation	Trial1	navigation/STIM_005.jpg	99
209.421	3.783	3783.4	navigation	Trial1	navigation/STIM_005.jpg	99
214.66	3.811	3810.7	navigation	Trial1	navigation/STIM_006.jpg	100
221.393	4.917	4917.2	navigation	Trial1	navigation/STIM_006.jpg	99
229.347	2.264	2264.2	navigation	Trial1	navigation/STIM_006.jpg	100
234.615	3.544	3544.3	navigation	Trial1	navigation/STIM_006.jpg	100
241.318	4.249	4248.7	navigation	Trial1	navigation/STIM_006.jpg	100
249.087	2.178	2177.5	navigation	Trial1	navigation/STIM_006.jpg	99
254.456	4.441	4441.1	navigation	Trial1	navigation/STIM_007.jpg	100
260.784	3.112	3111.6	navigation	Trial1	navigation/STIM_007.jpg	99
265.856	4.406	4405.8	navigation	Trial1	navigation/STIM_007.jpg	100
273.402	2.288	2287.8	navigation	Trial1	navigation/STIM_007.jpg	100
278.379	2.225	2224.6	navigation	Trial1	navigation/STIM_007.jpg	100
282.95	2.154	2153.7	navigation	Trial1	navigation/STIM_007.jpg	100
288.515	3.334	3334.4	navigation	Trial1	navigation/STIM_008.jpg	99
294.619	2.809	2808.9	navigation	Trial1	navigation/STIM_008.jpg	100
300.076	2.164	2164.3	navigation	Trial1	navigation/STIM_008.jpg	99
304.367	2.798	2798.0	navigation	Trial1	navigation/STIM_008.jpg	100
309.594	3.832	3831.6	navigation	Trial1	navigation/STIM_008.jpg	100
316.156	1.903	1902.7	navigation	Trial1	navigation/STIM_008.jpg	99
319.928	3.262	3261.9	navigation	Trial1	navigation/STIM_009.jpg	100
325.746	4.619	4619.4	navigation	Trial1	navigation/STIM_009.jpg	100
332.934	3.353	3353.3	navigation	Trial1	navigation/STIM_009.jpg	99
339.583	3.834	3833.7	navigation	Trial1	navigation/STIM_009.jpg	99
346.288	3.85	3850.2	navigation	Trial1	navigation/STIM_009.jpg	99
353.436	2.968	2968.0	navigation	Trial1	navigation/STIM_009.jpg	99
358.515	4.68	4679.8	navigation	Trial1	navigation/STIM_010.jpg	99
365.949	3.467	3467.1	navigation	Trial1	navigation/STIM_010.jpg	99
372.77	3.667	3666.6	navigation	Trial1	navigation/STIM_010.jpg	99
378.999	4.559	4559.4	navigation	Trial1	navigation/STIM_010.jpg	99
386.332	2.346	2345.9	navigation	Trial1	navigation/STIM_010.jpg	99
390.963	2.403	2402.8	navigation	Trial1	navigation/STIM_010.jpg	99
395.71	3.03	3030.0	navigation	Trial1	navigation/STIM_011.jpg	99
401.765	2.704	2704.2	navigation	Trial1	navigation/STIM_011.jpg	99
407.409	3.216	3215.9	navigation	Trial1	navigation/STIM_011.jpg	100
412.774	4.153	4153.2	navigation	Trial1	navigation/STIM_011.jpg	100
418.641	4.144	4144.2	navigation	Trial1	navigation/STIM_011.jpg	99
425.775	3.144	3143.7	navigation	Trial1	navigation/STIM_011.jpg	100
431.132	1.557	1557.0	pointing	Trial1	pointing/STIM_000.jpg	100
435.293	1.033	1032.9	pointing	Trial1	pointing/STIM_000.jpg	99
439.607	1.026	1026.1	pointing	Trial1	pointing/STIM_000.jpg	99
444.271	1.715	1714.8	pointing	Trial1	pointing/STIM_000.jpg	100
449.223	1.246	1246.5	pointing	Trial1	pointing/STIM_000.jpg	100
453.428	1.329	1328.7	pointing	Trial1	pointing/STIM_000.jpg	100
458.472	1.77	1769.8	pointing	Trial1	pointing/STIM_001.jpg	99
462.058	1.248	1248.4	pointing	Trial1	pointing/STIM_001.jpg	99
465.803	1.643	1643.4	pointing	Trial1	pointing/STIM_001.jpg	99
469.736	1.226	1226.1	pointing	Trial1	pointing/STIM_001.jpg	99
473.509	1.071	1070.6	pointing	Trial1	pointing/STIM_001.jpg	100
476.613	1.216	1216.4	pointing	Trial1	pointing/STIM_001.jpg	100
480.148	0.985	985.0	pointing	Trial1	pointing/STIM_002.jpg	100
484.027	1.172	1171.9	pointing	Trial1	pointing/STIM_002.jpg	99
488.904	1.13	1130.4	pointing	Trial1	pointing/STIM_002.jpg	100
491.924	1.006	1005.7	pointing	Trial1	pointing/STIM_002.jpg	100
496.471	1.23	1230.0	pointing	Trial1	pointing/STIM_002.jpg	99
500.2	1.678	1677.9	pointing	Trial1	pointing/STIM_002.jpg	99
504.88	1.64	1640.2	pointing	Trial1	pointing/STIM_003.jpg	100
509.959	1.036	1036.5	pointing	Trial1	pointing/STIM_003.jpg	100
514.449	1.297	1296.9	pointing	Trial1	pointing/STIM_003.jpg	99
518.141	1.261	1261.0	pointing	Trial1	pointing/STIM_003.jpg	99
521.644	1.524	1524.2	pointing	Trial1	pointing/STIM_003.jpg	100
526.862	0.886	885.9	pointing	Trial1	pointing/STIM_003.jpg	100
530.998	1.01	1009.5	pointing	Trial1	pointing/STIM_004.jpg	99
535.558	1.361	1360.6	pointing	Trial1	pointing/STIM_004.jpg	99
540.145	1.353	1353.1	pointing	Trial1	pointing/STIM_004.jpg	99
543.491	1.506	1506.0	pointing	Trial1	pointing/STIM_004.jpg	99
548.399	1.315	1314.9	pointing	Trial1	pointing/STIM_004.jpg	100
553.369	0.874	874.4	pointing	Trial1	pointing/STIM_004.jpg	99
557.52	1.375	1374.8	pointing	Trial1	pointing/STIM_005.jpg	100
562.044	1.39	1390.2	pointing	Trial1	pointing/STIM_005.jpg	99
566.514	1.355	1355.4	pointing	Trial1	pointing/STIM_005.jpg	99
569.898	1.304	1304.0	pointing	Trial1	pointing/STIM_005.jpg	99
574.413	1.42	1419.9	pointing	Trial1	pointing/STIM_005.jpg	99
578.193	1.482	1481.6	pointing	Trial1	pointing/STIM_005.jpg	100
582.008	1.527	1527.1	pointing	Trial1	pointing/STIM_006.jpg	100
586.165	0.998	997.9	pointing	Trial1	pointing/STIM_006.jpg	100
590.231	1.436	1435.8	pointing	Trial1	pointing/STIM_006.jpg	100
595.026	1.628	1628.4	pointing	Trial1	pointing/STIM_006.jpg	100
599.335	0.99	989.8	pointing	Trial1	pointing/STIM_006.jpg	100
602.6	1.675	1674.6	pointing	Trial1	pointing/STIM_006.jpg	99
607.232	1.413	1413.3	pointing	Trial1	pointing/STIM_007.jpg	99
611.064	1.634	1634.4	pointing	Trial1	pointing/STIM_007.jpg	99
614.776	1.489	1488.6	pointing	Trial1	pointing/STIM_007.jpg	99
619.088	1.642	1641.5	pointing	Trial1	pointing/STIM_007.jpg	99
623.088	1.08	1079.7	pointing	Trial1	pointing/STIM_007.jpg	99
626.123	1.42	1419.5	pointing	Trial1	pointing/STIM_007.jpg	99
630.144	1.223	1223.2	pointing	Trial1	pointing/STIM_008.jpg	100
634.096	1.435	1435.3	pointing	Trial1	pointing/STIM_008.jpg	100
638.234	1.277	1276.8	pointing	Trial1	pointing/STIM_008.jpg	100
642.0	0.921	920.9	pointing	Trial1	pointing/STIM_008.jpg	100
645.125	1.31	1309.9	pointing	Trial1	pointing/STIM_008.jpg	99
649.439	1.448	1448.0	pointing	Trial1	pointing/STIM_008.jpg	99
654.361	1.285	1285.0	pointing	Trial1	pointing/STIM_009.jpg	99
658.131	1.2	1200.3	pointing	Trial1	pointing/STIM_009.jpg	99
662.142	1.525	1525.4	pointing	Trial1	pointing/STIM_009.jpg	99
666.548	1.312	1312.1	pointing	Trial1	pointing/STIM_009.jpg	99
670.109	1.313	1312.9	pointing	Trial1	pointing/STIM_009.jpg	99
675.217	1.197	1197.0	pointing	Trial1	pointing/STIM_009.jpg	100
680.124	1.08	1080.3	pointing	Trial1	pointing/STIM_010.jpg	99
684.16	1.016	1015.8	pointing	Trial1	pointing/STIM_010.jpg	100
688.025	1.218	1218.1	pointing	Trial1	pointing/STIM_010.jpg	100
692.946	1.437	1437.2	pointing	Trial1	pointing/STIM_010.jpg	100
696.918	1.506	1505.8	pointing	Trial1	pointing/STIM_010.jpg	99
701.668	1.742	1742.2	pointing	Trial1	pointing/STIM_010.jpg	100
705.907	1.325	1325.3	pointing	Trial1	pointing/STIM_011.jpg	100
709.506	0.864	864.1	pointing	Trial1	pointing/STIM_011.jpg	100
712.494	1.166	1165.9	pointing	Trial1	pointing/STIM_011.jpg	100
716.857	1.415	1414.8	pointing	Trial1	pointing/STIM_011.jpg	99
721.88	1.158	1158.3	pointing	Trial1	pointing/STIM_011.jpg	100
726.897	1.715	1715.0	pointing	Trial1	pointing/STIM_011.jpg	99
731.137	3.436	3435.9	navigation	Trial2	navigation/STIM_000.jpg	100
736.68	2.094	2094.3	navigation	Trial2	navigation/STIM_000.jpg	100
741.411	3.343	3343.1	navigation	Trial2	navigation/STIM_000.jpg	100
747.376	2.066	2066.1	navigation	Trial2	navigation/STIM_000.jpg	99
752.524	1.956	1956.3	navigation	Trial2	navigation/STIM_000.jpg	99
757.783	3.519	3519.1	navigation	Trial2	navigation/STIM_000.jpg	99
764.553	3.141	3140.7	navigation	Trial2	navigation/STIM_001.jpg	100
769.631	2.191	2191.3	navigation	Trial2	navigation/STIM_001.jpg	99
775.445	2.712	2712.2	navigation	Trial2	navigation/STIM_001.jpg	99
781.172	3.602	3602.1	navigation	Trial2	navigation/STIM_001.jpg	100
786.577	2.74	2740.3	navigation	Trial2	navigation/STIM_001.jpg	99
792.843	3.221	3220.8	navigation	Trial2	navigation/STIM_001.jpg	99
798.002	1.984	1984.3	navigation	Trial2	navigation/STIM_002.jpg	100
802.385	2.047	2047.1	navigation	Trial2	navigation/STIM_002.jpg	100
806.907	1.97	1970.0	navigation	Trial2	navigation/STIM_002.jpg	99
811.873	3.702	3701.6	navigation	Trial2	navigation/STIM_002.jpg	99
817.244	3.68	3679.5	navigation	Trial2	navigation/STIM_002.jpg	99
823.701	2.746	2746.4	navigation	Trial2	navigation/STIM_002.jpg	100
828.951	4.708	4707.7	navigation	Trial2	navigation/STIM_003.jpg	99
836.257	4.148	4148.4	navigation	Trial2	navigation/STIM_003.jpg	99
842.916	4.104	4103.7	navigation	Trial2	navigation/STIM_003.jpg	100
848.597	3.88	3880.0	navigation	Trial2	navigation/STIM_003.jpg	100
855.225	2.392	2392.2	navigation	Trial2	navigation/STIM_003.jpg	100
860.732	2.61	2609.5	navigation	Trial2	navigation/STIM_003.jpg	99
865.845	2.715	2714.8	navigation	Trial2	navigation/STIM_004.jpg	100
871.463	3.169	3169.3	navigation	Trial2	navigation/STIM_004.jpg	99
876.899	2.748	2747.7	navigation	Trial2	navigation/STIM_004.jpg	99
882.398	3.778	3778.2	navigation	Trial2	navigation/STIM_004.jpg	100
888.352	3.802	3802.0	navigation	Trial2	navigation/STIM_004.jpg	100
895.617	3.224	3223.7	navigation	Trial2	navigation/STIM_004.jpg	99
900.819	3.856	3856.5	navigation	Trial2	navigation/STIM_005.jpg	99
907.811	3.72	3719.8	navigation	Trial2	navigation/STIM_005.jpg	100
914.521	4.017	4016.7	navigation	Trial2	navigation/STIM_005.jpg	100
921.131	2.115	2114.9	navigation	Trial2	navigation/STIM_005.jpg	99
926.82	3.894	3894.2	navigation	Trial2	navigation/STIM_005.jpg	100
932.421	3.976	3976.3	navigation	Trial2	navigation/STIM_005.jpg	99
938.446	2.415	2414.8	navigation	Trial2	navigation/STIM_006.jpg	100
942.73	3.813	3812.6	navigation	Trial2	navigation/STIM_006.jpg	100
949.653	3.956	3955.5	navigation	Trial2	navigation/STIM_006.jpg	100
956.133	2.784	2783.8	navigation	Trial2	navigation/STIM_006.jpg	99
962.368	3.081	3080.8	navigation	Trial2	navigation/STIM_006.jpg	100
968.889	1.83	1829.8	navigation	Trial2	navigation/STIM_006.jpg	100
973.713	3.356	3356.0	navigation	Trial2	navigation/STIM_007.jpg	99
980.29	3.177	3177.2	navigation	Trial2	navigation/STIM_007.jpg	100
986.055	2.218	2217.6	navigation	Trial2	navigation/STIM_007.jpg	100
991.214	3.996	3996.2	navigation	Trial2	navigation/STIM_007.jpg	99
996.689	3.091	3091.4	navigation	Trial2	navigation/STIM_007.jpg	100
1002.06	2.581	2580.9	navigation	Trial2	navigation/STIM_007.jpg	100
1007.962	3.341	3341.2	navigation	Trial2	navigation/STIM_008.jpg	99
1014.076	4.283	4283.1	navigation	Trial2	navigation/STIM_008.jpg	100
1020.769	2.444	2443.5	navigation	Trial2	navigation/STIM_008.jpg	100
1026.247	2.998	2997.7	navigation	Trial2	navigation/STIM_008.jpg	99
1031.593	2.394	2394.0	navigation	Trial2	navigation/STIM_008.jpg	99
1037.497	3.27	3270.4	navigation	Trial2	navigation/STIM_008.jpg	99
1043.827	4.868	4868.1	navigation	Trial2	navigation/STIM_009.jpg	100
1050.649	3.376	3375.8	navigation	Trial2	navigation/STIM_009.jpg	99
1055.963	2.551	2550.9	navigation	Trial2	navigation/STIM_009.jpg	99
1060.908	3.044	3044.1	navigation	Trial2	navigation/STIM_009.jpg	99
1066.553	3.466	3465.6	navigation	Trial2	navigation/STIM_009.jpg	99
1073.062	3.063	3063.2	navigation	Trial2	navigation/STIM_009.jpg	99
1078.741	2.038	2038.0	navigation	Trial2	navigation/STIM_010.jpg	99
1082.738	3.149	3148.8	navigation	Trial2	navigation/STIM_010.jpg	99
1089.455	3.162	3161.7	navigation	Trial2	navigation/STIM_010.jpg	99
1095.487	2.221	2220.6	navigation	Trial2	navigation/STIM_010.jpg	99
1099.712	3.91	3910.0	navigation	Trial2	navigation/STIM_010.jpg	99
1106.355	2.538	2538.2	navigation	Trial2	navigation/STIM_010.jpg	99
1111.58	2.155	2155.3	navigation	Trial2	navigation/STIM_011.jpg	100
1116.587	2.449	2448.9	navigation	Trial2	navigation/STIM_011.jpg	99
1120.923	3.782	3782.3	navigation	Trial2	navigation/STIM_011.jpg	100
1127.072	3.787	3787.4	navigation	Trial2	navigation/STIM_011.jpg	99
1132.549	3.67	3669.6	navigation	Trial2	navigation/STIM_011.jpg	99
1138.337	1.883	1883.0	navigation	Trial2	navigation/STIM_011.jpg	100
1143.685	1.551	1551.2	pointing	Trial2	pointing/STIM_000.jpg	99
1147.877	1.272	1272.3	pointing	Trial2	pointing/STIM_000.jpg	100
1151.829	1.692	1691.6	pointing	Trial2	pointing/STIM_000.jpg	100
1156.329	1.053	1052.9	pointing	Trial2	pointing/STIM_000.jpg	99
1160.024	1.136	1136.0	pointing	Trial2	pointing/STIM_000.jpg	99
1164.871	1.275	1275.3	pointing	Trial2	pointing/STIM_000.jpg	99
1168.333	0.969	968.7	pointing	Trial2	pointing/STIM_001.jpg	99
1172.6	1.455	1455.2	pointing	Trial2	pointing/STIM_001.jpg	99
1177.874	1.423	1422.9	pointing	Trial2	pointing/STIM_001.jpg	99
1182.86	1.302	1302.3	pointing	Trial2	pointing/STIM_001.jpg	99
1187.695	1.114	1113.8	pointing	Trial2	pointing/STIM_001.jpg	99
1191.345	1.53	1530.1	pointing	Trial2	pointing/STIM_001.jpg	100
1195.419	0.984	983.8	pointing	Trial2	pointing/STIM_002.jpg	99
1198.567	1.247	1247.1	pointing	Trial2	pointing/STIM_002.jpg	99
1202.516	1.508	1508.2	pointing	Trial2	pointing/STIM_002.jpg	100
1207.498	0.897	897.2	pointing	Trial2	pointing/STIM_002.jpg	99
1210.728	1.006	1005.8	pointing	Trial2	pointing/STIM_002.jpg	100
1215.033	1.153	1153.4	pointing	Trial2	pointing/STIM_002.jpg	99
1219.307	1.229	1228.7	pointing	Trial2	pointing/STIM_003.jpg	100
1223.474	1.195	1194.6	pointing	Trial2	pointing/STIM_003.jpg	100
1227.205	1.612	1612.4	pointing	Trial2	pointing/STIM_003.jpg	100
1232.377	1.121	1121.4	pointing	Trial2	pointing/STIM_003.jpg	99
1236.889	1.495	1494.7	pointing	Trial2	pointing/STIM_003.jpg	100
1241.46	1.025	1025.4	pointing	Trial2	pointing/STIM_003.jpg	100
1245.813	1.63	1629.9	pointing	Trial2	pointing/STIM_004.jpg	99
1249.803	1.434	1434.0	pointing	Trial2	pointing/STIM_004.jpg	100
1253.955	1.144	1143.6	pointing	Trial2	pointing/STIM_004.jpg	99
1257.913	1.239	1238.6	pointing	Trial2	pointing/STIM_004.jpg	100
1263.072	1.084	1083.6	pointing	Trial2	pointing/STIM_004.jpg	100
1267.74	1.377	1376.7	pointing	Trial2	pointing/STIM_004.jpg	100
1272.689	1.149	1148.7	pointing	Trial2	pointing/STIM_005.jpg	100
1277.027	1.247	1246.6	pointing	Trial2	pointing/STIM_005.jpg	99
1281.117	1.302	1302.2	pointing	Trial2	pointing/STIM_005.jpg	99
1285.704	1.238	1237.6	pointing	Trial2	pointing/STIM_005.jpg	100
1289.502	1.396	1395.8	pointing	Trial2	pointing/STIM_005.jpg	100
1293.111	1.28	1280.1	pointing	Trial2	pointing/STIM_005.jpg	99
1296.782	1.121	1120.9	pointing	Trial2	pointing/STIM_006.jpg	100
1300.161	1.626	1626.0	pointing	Trial2	pointing/STIM_006.jpg	99
1305.519	1.144	1144.2	pointing	Trial2	pointing/STIM_006.jpg	99
1310.011	1.613	1612.9	pointing	Trial2	pointing/STIM_006.jpg	99
1313.719	1.061	1061.2	pointing	Trial2	pointing/STIM_006.jpg	100
1318.416	1.146	1145.9	pointing	Trial2	pointing/STIM_006.jpg	99
1322.176	0.946	946.3	pointing	Trial2	pointing/STIM_007.jpg	99
1325.047	1.304	1303.8	pointing	Trial2	pointing/STIM_007.jpg	99
1329.7	1.251	1251.0	pointing	Trial2	pointing/STIM_007.jpg	99
1334.156	1.267	1267.2	pointing	Trial2	pointing/STIM_007.jpg	100
1337.423	1.688	1688.1	pointing	Trial2	pointing/STIM_007.jpg	100
1341.233	1.382	1382.3	pointing	Trial2	pointing/STIM_007.jpg	100
1344.53	1.055	1054.9	pointing	Trial2	pointing/STIM_008.jpg	99
1349.158	1.231	1230.9	pointing	Trial2	pointing/STIM_008.jpg	100
1352.547	1.143	1142.6	pointing	Trial2	pointing/STIM_008.jpg	99
1355.739	0.889	889.1	pointing	Trial2	pointing/STIM_008.jpg	99
1358.887	1.399	1398.8	pointing	Trial2	pointing/STIM_008.jpg	99
1362.967	1.673	1672.7	pointing	Trial2	pointing/STIM_008.jpg	100
1366.412	1.338	1337.5	pointing	Trial2	pointing/STIM_009.jpg	99
1370.224	1.512	1511.9	pointing	Trial2	pointing/STIM_009.jpg	100
1374.787	0.888	887.6	pointing	Trial2	pointing/STIM_009.jpg	99
1379.344	1.217	1216.6	pointing	Trial2	pointing/STIM_009.jpg	100
1383.048	1.3	1299.8	pointing	Trial2	pointing/STIM_009.jpg	99
1386.707	1.092	1092.5	pointing	Trial2	pointing/STIM_009.jpg	99
1390.923	1.522	1522.4	pointing	Trial2	pointing/STIM_010.jpg	99
1394.724	1.142	1142.2	pointing	Trial2	pointing/STIM_010.jpg	100
1398.573	1.284	1284.4	pointing	Trial2	pointing/STIM_010.jpg	100
1402.464	1.145	1145.0	pointing	Trial2	pointing/STIM_010.jpg	100
1406.116	1.246	1246.4	pointing	Trial2	pointing/STIM_010.jpg	100
1410.664	1.166	1165.9	pointing	Trial2	pointing/STIM_010.jpg	100
1414.884	1.467	1467.4	pointing	Trial2	pointing/STIM_011.jpg	99
1419.132	1.636	1635.6	pointing	Trial2	pointing/STIM_011.jpg	99
1423.842	1.05	1049.6	pointing	Trial2	pointing/STIM_011.jpg	100
1426.906	1.68	1679.8	pointing	Trial2	pointing/STIM_011.jpg	100
1430.815	1.09	1090.2	pointing	Trial2	pointing/STIM_011.jpg	100
1434.681	1.104	1103.9	pointing	Trial2	pointing/STIM_011.jpg	100
1438.812	3.693	3693.1	navigation	Trial3	navigation/STIM_000.jpg	99
1445.896	2.676	2676.4	navigation	Trial3	navigation/STIM_000.jpg	99
1451.824	3.442	3442.2	navigation	Trial3	navigation/STIM_000.jpg	99
1457.782	3.321	3321.0	navigation	Trial3	navigation/STIM_000.jpg	99
1464.08	2.266	2266.0	navigation	Trial3	navigation/STIM_000.jpg	100
1469.954	1.836	1836.0	navigation	Trial3	navigation/STIM_000.jpg	100
1474.249	3.375	3375.0	navigation	Trial3	navigation/STIM_001.jpg	99
1479.698	1.993	1993.4	navigation	Trial3	navigation/STIM_001.jpg	100
1483.814	3.978	3977.7	navigation	Trial3	navigation/STIM_001.jpg	100
1491.167	1.971	1970.8	navigation	Trial3	navigation/STIM_001.jpg	99
1495.604	3.715	3715.1	navigation	Trial3	navigation/STIM_001.jpg	99
1501.642	2.747	2746.9	navigation	Trial3	navigation/STIM_001.jpg	99
1506.231	1.972	1972.5	navigation	Trial3	navigation/STIM_002.jpg	99
1510.353	2.602	2602.0	navigation	Trial3	navigation/STIM_002.jpg	99
1514.719	1.695	1695.0	navigation	Trial3	navigation/STIM_002.jpg	100
1519.796	3.692	3692.1	navigation	Trial3	navigation/STIM_002.jpg	100
1525.079	1.645	1644.8	navigation	Trial3	navigation/STIM_002.jpg	99
1528.769	4.011	4011.1	navigation	Trial3	navigation/STIM_002.jpg	99
1534.608	3.546	3545.8	navigation	Trial3	navigation/STIM_003.jpg	100
1540.256	3.144	3143.7	navigation	Trial3	navigation/STIM_003.jpg	100
1545.01	2.978	2978.5	navigation	Trial3	navigation/STIM_003.jpg	99
1551.487	3.204	3203.9	navigation	Trial3	navigation/STIM_003.jpg	100
1556.847	2.307	2306.9	navigation	Trial3	navigation/STIM_003.jpg	99
1562.286	1.638	1638.4	navigation	Trial3	navigation/STIM_003.jpg	99
1566.114	2.065	2065.2	navigation	Trial3	navigation/STIM_004.jpg	100
1571.593	1.676	1676.5	navigation	Trial3	navigation/STIM_004.jpg	100
1575.913	1.758	1757.9	navigation	Trial3	navigation/STIM_004.jpg	100
1581.227	2.691	2691.1	navigation	Trial3	navigation/STIM_004.jpg	100
1586.171	3.102	3101.9	navigation	Trial3	navigation/STIM_004.jpg	99
1591.921	2.338	2337.7	navigation	Trial3	navigation/STIM_004.jpg	100
1598.05	2.392	2391.9	navigation	Trial3	navigation/STIM_005.jpg	100
1603.229	3.376	3375.8	navigation	Trial3	navigation/STIM_005.jpg	100
1608.832	3.613	3613.1	navigation	Trial3	navigation/STIM_005.jpg	99
1615.632	1.854	1853.9	navigation	Trial3	navigation/STIM_005.jpg	100
1619.84	2.417	2417.4	navigation	Trial3	navigation/STIM_005.jpg	99
1625.178	3.194	3194.2	navigation	Trial3	navigation/STIM_005.jpg	99
1631.722	2.975	2974.8	navigation	Trial3	navigation/STIM_006.jpg	99
1636.469	4.022	4022.4	navigation	Trial3	navigation/STIM_006.jpg	99
1643.097	3.656	3656.4	navigation	Trial3	navigation/STIM_006.jpg	100
1650.002	2.756	2755.9	navigation	Trial3	navigation/STIM_006.jpg	100
1655.877	1.829	1829.0	navigation	Trial3	navigation/STIM_006.jpg	100
1660.586	3.388	3387.5	navigation	Trial3	navigation/STIM_006.jpg	99
1665.855	3.627	3627.3	navigation	Trial3	navigation/STIM_007.jpg	99
1671.552	3.322	3322.3	navigation	Trial3	navigation/STIM_007.jpg	100
1676.98	1.61	1609.8	navigation	Trial3	navigation/STIM_007.jpg	99
1682.227	2.259	2259.0	navigation	Trial3	navigation/STIM_007.jpg	100
1686.463	3.932	3931.6	navigation	Trial3	navigation/STIM_007.jpg	99
1693.792	2.754	2754.3	navigation	Trial3	navigation/STIM_007.jpg	100
1699.773	2.474	2474.1	navigation	Trial3	navigation/STIM_008.jpg	99
1705.278	2.995	2995.2	navigation	Trial3	navigation/STIM_008.jpg	99
1710.571	1.83	1830.5	navigation	Trial3	navigation/STIM_008.jpg	99
1715.666	2.287	2287.2	navigation	Trial3	navigation/STIM_008.jpg	99
1721.43	3.142	3141.9	navigation	Trial3	navigation/STIM_008.jpg	100
1726.799	2.345	2345.1	navigation	Trial3	navigation/STIM_008.jpg	99
1732.52	2.198	2198.3	navigation	Trial3	navigation/STIM_009.jpg	99
1737.441	3.309	3309.3	navigation	Trial3	navigation/STIM_009.jpg	100
1742.438	2.589	2589.0	navigation	Trial3	navigation/STIM_009.jpg	99
1746.735	3.032	3032.3	navigation	Trial3	navigation/STIM_009.jpg	100
1753.282	4.039	4038.8	navigation	Trial3	navigation/STIM_009.jpg	99
1758.834	3.412	3412.1	navigation	Trial3	navigation/STIM_009.jpg	100
1765.504	3.502	3502.1	navigation	Trial3	navigation/STIM_010.jpg	99
1770.662	3.792	3792.0	navigation	Trial3	navigation/STIM_010.jpg	100
1777.793	3.594	3593.7	navigation	Trial3	navigation/STIM_010.jpg	100
1783.915	1.91	1910.4	navigation	Trial3	navigation/STIM_010.jpg	99
1788.627	2.328	2328.5	navigation	Trial3	navigation/STIM_010.jpg	100
1793.86	2.795	2795.1	navigation	Trial3	navigation/STIM_010.jpg	99
1799.174	3.491	3491.1	navigation	Trial3	navigation/STIM_011.jpg	99
1804.574	3.695	3695.0	navigation	Trial3	navigation/STIM_011.jpg	99
1811.7	2.541	2540.9	navigation	Trial3	navigation/STIM_011.jpg	99
1816.99	2.931	2931.3	navigation	Trial3	navigation/STIM_011.jpg	100
1822.172	1.794	1793.7	navigation	Trial3	navigation/STIM_011.jpg	100
1826.978	2.552	2552.4	navigation	Trial3	navigation/STIM_011.jpg	99
1831.446	1.516	1515.8	pointing	Trial3	pointing/STIM_000.jpg	99
1835.225	1.424	1423.6	pointing	Trial3	pointing/STIM_000.jpg	99
1839.647	1.173	1173.0	pointing	Trial3	pointing/STIM_000.jpg	100
1844.039	0.995	994.9	pointing	Trial3	pointing/STIM_000.jpg	100
1848.956	1.296	1296.3	pointing	Trial3	pointing/STIM_000.jpg	100
1853.531	1.566	1566.2	pointing	Trial3	pointing/STIM_000.jpg	99
1858.264	1.039	1039.4	pointing	Trial3	pointing/STIM_001.jpg	99
1862.832	1.55	1550.0	pointing	Trial3	pointing/STIM_001.jpg	100
1867.068	1.252	1252.4	pointing	Trial3	pointing/STIM_001.jpg	99
1870.22	0.918	918.1	pointing	Trial3	pointing/STIM_001.jpg	99
1873.865	1.468	1467.7	pointing	Trial3	pointing/STIM_001.jpg	99
1877.797	1.64	1639.9	pointing	Trial3	pointing/STIM_001.jpg	99
1882.554	1.029	1029.0	pointing	Trial3	pointing/STIM_002.jpg	99
1886.542	1.658	1658.3	pointing	Trial3	pointing/STIM_002.jpg	99
1891.27	1.702	1702.1	pointing	Trial3	pointing/STIM_002.jpg	99
1895.126	1.03	1030.2	pointing	Trial3	pointing/STIM_002.jpg	99
1899.856	0.9	900.3	pointing	Trial3	pointing/STIM_002.jpg	99
1904.632	1.522	1521.6	pointing	Trial3	pointing/STIM_002.jpg	99
1909.808	1.054	1053.9	pointing	Trial3	pointing/STIM_003.jpg	99
1914.021	0.925	925.2	pointing	Trial3	pointing/STIM_003.jpg	99
1918.233	1.163	1163.3	pointing	Trial3	pointing/STIM_003.jpg	100
1922.46	1.239	1238.6	pointing	Trial3	pointing/STIM_003.jpg	99
1927.109	1.653	1652.8	pointing	Trial3	pointing/STIM_003.jpg	99
1932.321	1.644	1643.5	pointing	Trial3	pointing/STIM_003.jpg	100
1937.1	1.677	1677.2	pointing	Trial3	pointing/STIM_004.jpg	99
1942.431	1.161	1160.7	pointing	Trial3	pointing/STIM_004.jpg	100
1947.065	0.862	862.1	pointing	Trial3	pointing/STIM_004.jpg	99
1951.061	1.657	1657.4	pointing	Trial3	pointing/STIM_004.jpg	100
1956.238	1.426	1426.3	pointing	Trial3	pointing/STIM_004.jpg	100
1960.648	1.657	1657.0	pointing	Trial3	pointing/STIM_004.jpg	100
1965.986	1.038	1037.8	pointing	Trial3	pointing/STIM_005.jpg	99
1970.568	1.795	1795.1	pointing	Trial3	pointing/STIM_005.jpg	100
1975.91	1.667	1666.7	pointing	Trial3	pointing/STIM_005.jpg	99
1979.978	1.653	1652.7	pointing	Trial3	pointing/STIM_005.jpg	99
1985.181	0.907	906.9	pointing	Trial3	pointing/STIM_005.jpg	100
1989.231	1.653	1652.9	pointing	Trial3	pointing/STIM_005.jpg	99
1994.225	1.278	1277.5	pointing	Trial3	pointing/STIM_006.jpg	100
1997.877	1.384	1383.6	pointing	Trial3	pointing/STIM_006.jpg	99
2003.115	1.052	1052.4	pointing	Trial3	pointing/STIM_006.jpg	100
2006.903	1.571	1570.9	pointing	Trial3	pointing/STIM_006.jpg	99
2010.88	1.377	1377.3	pointing	Trial3	pointing/STIM_006.jpg	100
2015.398	1.153	1153.1	pointing	Trial3	pointing/STIM_006.jpg	100
2019.168	1.458	1457.9	pointing	Trial3	pointing/STIM_007.jpg	100
2023.902	1.066	1066.2	pointing	Trial3	pointing/STIM_007.jpg	99
2028.767	1.48	1480.3	pointing	Trial3	pointing/STIM_007.jpg	99
2032.837	1.606	1605.8	pointing	Trial3	pointing/STIM_007.jpg	99
2037.098	1.086	1085.7	pointing	Trial3	pointing/STIM_007.jpg	100
2041.03	1.412	1411.6	pointing	Trial3	pointing/STIM_007.jpg	99
2046.066	1.047	1047.4	pointing	Trial3	pointing/STIM_008.jpg	99
2050.19	1.573	1573.0	pointing	Trial3	pointing/STIM_008.jpg	99
2053.594	1.318	1318.5	pointing	Trial3	pointing/STIM_008.jpg	99
2057.552	1.542	1542.4	pointing	Trial3	pointing/STIM_008.jpg	99
2062.795	1.663	1663.1	pointing	Trial3	pointing/STIM_008.jpg	100
2067.986	1.603	1602.6	pointing	Trial3	pointing/STIM_008.jpg	99
2071.952	1.436	1436.4	pointing	Trial3	pointing/STIM_009.jpg	99
2075.45	1.175	1174.6	pointing	Trial3	pointing/STIM_009.jpg	100
2078.678	1.278	1277.9	pointing	Trial3	pointing/STIM_009.jpg	100
2083.039	1.157	1157.3	pointing	Trial3	pointing/STIM_009.jpg	99
2086.622	1.596	1596.3	pointing	Trial3	pointing/STIM_009.jpg	99
2091.08	1.459	1459.0	pointing	Trial3	pointing/STIM_009.jpg	99
2094.498	1.129	1129.0	pointing	Trial3	pointing/STIM_010.jpg	99
2098.901	1.293	1292.7	pointing	Trial3	pointing/STIM_010.jpg	99
2103.075	1.425	1425.3	pointing	Trial3	pointing/STIM_010.jpg	99
2106.517	1.552	1551.8	pointing	Trial3	pointing/STIM_010.jpg	99
2111.637	1.741	1741.1	pointing	Trial3	pointing/STIM_010.jpg	100
2116.453	1.497	1497.1	pointing	Trial3	pointing/STIM_010.jpg	99
2120.532	1.421	1420.9	pointing	Trial3	pointing/STIM_011.jpg	99
2125.566	1.19	1189.9	pointing	Trial3	pointing/STIM_011.jpg	100
2130.521	1.313	1312.7	pointing	Trial3	pointing/STIM_011.jpg	99
2133.807	1.684	1684.1	pointing	Trial3	pointing/STIM_011.jpg	99
2138.428	1.147	1147.1	pointing	Trial3	pointing/STIM_011.jpg	100
2141.905	0.975	974.8	pointing	Trial3	pointing/STIM_011.jpg	99
