onset	duration	accuracy	trial_type	learning_stage	stimulus
0.0	4.568	correct	navigation	Trial1	navigation/STIM_000.jpg
7.231	5.17	correct	navigation	Trial1	navigation/STIM_000.jpg
14.177	3.084	correct	navigation	Trial1	navigation/STIM_000.jpg
20.765	2.106	correct	navigation	Trial1	navigation/STIM_000.jpg
25.029	2.915	correct	navigation	Trial1	navigation/STIM_000.jpg
29.846	2.797	correct	navigation	Trial1	navigation/STIM_000.jpg
35.955	3.69	incorrect	navigation	Trial1	navigation/STIM_001.jpg
41.687	5.234	correct	navigation	Trial1	navigation/STIM_001.jpg
49.604	4.902	correct	navigation	Trial1	navigation/STIM_001.jpg
56.009	4.802	correct	navigation	Trial1	navigation/STIM_001.jpg
62.835	1.856	incorrect	navigation	Trial1	navigation/STIM_001.jpg
67.466	3.916	correct	navigation	Trial1	navigation/STIM_001.jpg
72.98	2.484	correct	navigation	Trial1	navigation/STIM_002.jpg
78.21	5.179	correct	navigation	Trial1	navigation/STIM_002.jpg
85.339	4.356	correct	navigation	Trial1	navigation/STIM_002.jpg
91.193	3.166	correct	navigation	Trial1	navigation/STIM_002.jpg
96.358	4.334	correct	navigation	Trial1	navigation/STIM_002.jpg
103.214	3.056	correct	navigation	Trial1	navigation/STIM_002.jpg
109.129	2.506	incorrect	navigation	Trial1	navigation/STIM_003.jpg
113.441	4.278	correct	navigation	Trial1	navigation/STIM_003.jpg
120.967	5.025	correct	navigation	Trial1	navigation/STIM_003.jpg
128.045	2.251	correct	navigation	Trial1	navigation/STIM_003.jpg
133.002	2.694	correct	navigation	Trial1	navigation/STIM_003.jpg
138.103	1.817	correct	navigation	Trial1	navigation/STIM_003.jpg
142.739	2.964	correct	navigation	Trial1	navigation/STIM_004.jpg
147.93	3.962	incorrect	navigation	Trial1	navigation/STIM_004.jpg
155.177	2.725	correct	navigation	Trial1	navigation/STIM_004.jpg
160.581	4.667	correct	navigation	Trial1	navigation/STIM_004.jpg
167.635	2.281	correct	navigation	Trial1	navigation/STIM_004.jpg
172.553	3.26	correct	navigation	Trial1	navigation/STIM_004.jpg
178.951	5.074	correct	navigation	Trial1	navigation/STIM_005.jpg
186.675	2.877	incorrect	navigation	Trial1	navigation/STIM_005.jpg
191.647	3.168	correct	navigation	Trial1	navigation/STIM_005.jpg
197.444	4.255	incorrect	navigation	Trial1	navigation/STIM_005.jpg
204.301	2.502	correct	navigation	Trial1	navigation/STIM_005.jpg
209.421	3.783	correct	navigation	Trial1	navigation/STIM_005.jpg
214.66	3.811	correct	navigation	Trial1	navigation/STIM_006.jpg
221.393	4.917	incorrect	navigation	Trial1	navigation/STIM_006.jpg
229.347	2.264	correct	navigation	Trial1	navigation/STIM_006.jpg
234.615	3.544	correct	navigation	Trial1	navigation/STIM_006.jpg
241.318	4.249	incorrect	navigation	Trial1	navigation/STIM_006.jpg
249.087	2.178	correct	navigation	Trial1	navigation/STIM_006.jpg
254.456	4.441	incorrect	navigation	Trial1	navigation/STIM_007.jpg
260.784	3.112	correct	navigation	Trial1	navigation/STIM_007.jpg
265.856	4.406	correct	navigation	Trial1	navigation/STIM_007.jpg
273.402	2.288	incorrect	navigation	Trial1	navigation/STIM_007.jpg
278.379	2.225	correct	navigation	Trial1	navigation/STIM_007.jpg
282.95	2.154	incorrect	navigation	Trial1	navigation/STIM_007.jpg
288.515	3.334	incorrect	navigation	Trial1	navigation/STIM_008.jpg
294.619	2.809	correct	navigation	Trial1	navigation/STIM_008.jpg
300.076	2.164	incorrect	navigation	Trial1	navigation/STIM_008.jpg
304.367	2.798	correct	navigation	Trial1	navigation/STIM_008.jpg
309.594	3.832	incorrect	navigation	Trial1	navigation/STIM_008.jpg
316.156	1.903	correct	navigation	Trial1	navigation/STIM_008.jpg
319.928	3.262	correct	navigation	Trial1	navigation/STIM_009.jpg
325.746	4.619	correct	navigation	Trial1	navigation/STIM_009.jpg
332.934	3.353	incorrect	navigation	Trial1	navigation/STIM_009.jpg
339.583	3.834	correct	navigation	Trial1	navigation/STIM_009.jpg
346.288	3.85	correct	navigation	Trial1	navigation/STIM_009.jpg
353.436	2.968	correct	navigation	Trial1	navigation/STIM_009.jpg
358.515	4.68	correct	navigation	Trial1	navigation/STIM_010.jpg
365.949	3.467	incorrect	navigation	Trial1	navigation/STIM_010.jpg
372.77	3.667	correct	navigation	Trial1	navigation/STIM_010.jpg
378.999	4.559	incorrect	navigation	Trial1	navigation/STIM_010.jpg
386.332	2.346	correct	navigation	Trial1	navigation/STIM_010.jpg
390.963	2.403	correct	navigation	Trial1	navigation/STIM_010.jpg
395.71	3.03	correct	navigation	Trial1	navigation/STIM_011.jpg
401.765	2.704	correct	navigation	Trial1	navigation/STIM_011.jpg
407.409	3.216	correct	navigation	Trial1	navigation/STIM_011.jpg
412.774	4.153	correct	navigation	Trial1	navigation/STIM_011.jpg
418.641	4.144	correct	navigation	Trial1	navigation/STIM_011.jpg
425.775	3.144	incorrect	navigation	Trial1	navigation/STIM_011.jpg
431.132	1.557	correct	pointing	Trial1	pointing/STIM_000.jpg
435.293	1.033	correct	pointing	Trial1	pointing/STIM_000.jpg
439.607	1.026	correct	pointing	Trial1	pointing/STIM_000.jpg
444.271	1.715	correct	pointing	Trial1	pointing/STIM_000.jpg
449.223	1.246	correct	pointing	Trial1	pointing/STIM_000.jpg
453.428	1.329	correct	pointing	Trial1	pointing/STIM_000.jpg
458.472	1.77	correct	pointing	Trial1	pointing/STIM_001.jpg
462.058	1.248	correct	pointing	Trial1	pointing/STIM_001.jpg
465.803	1.643	correct	pointing	Trial1	pointing/STIM_001.jpg
469.736	1.226	correct	pointing	Trial1	pointing/STIM_001.jpg
473.509	1.071	correct	pointing	Trial1	pointing/STIM_001.jpg
476.613	1.216	correct	pointing	Trial1	pointing/STIM_001.jpg
480.148	0.985	correct	pointing	Trial1	pointing/STIM_002.jpg
484.027	1.172	correct	pointing	Trial1	pointing/STIM_002.jpg
488.904	1.13	correct	pointing	Trial1	pointing/STIM_002.jpg
491.924	1.006	correct	pointing	Trial1	pointing/STIM_002.jpg
496.471	1.23	correct	pointing	Trial1	pointing/STIM_002.jpg
500.2	1.678	correct	pointing	Trial1	pointing/STIM_002.jpg
504.88	1.64	correct	pointing	Trial1	pointing/STIM_003.jpg
509.959	1.036	correct	pointing	Trial1	pointing/STIM_003.jpg
514.449	1.297	correct	pointing	Trial1	pointing/STIM_003.jpg
518.141	1.261	correct	pointing	Trial1	pointing/STIM_003.jpg
521.644	1.524	incorrect	pointing	Trial1	pointing/STIM_003.jpg
526.862	0.886	correct	pointing	Trial1	pointing/STIM_003.jpg
530.998	1.01	correct	pointing	Trial1	pointing/STIM_004.jpg
535.558	1.361	correct	pointing	Trial1	pointing/STIM_004.jpg
540.145	1.353	correct	pointing	Trial1	pointing/STIM_004.jpg
543.491	1.506	correct	pointing	Trial1	pointing/STIM_004.jpg
548.399	1.315	incorrect	pointing	Trial1	pointing/STIM_004.jpg
553.369	0.874	correct	pointing	Trial1	pointing/STIM_004.jpg
557.52	1.375	correct	pointing	Trial1	pointing/STIM_005.jpg
562.044	1.39	correct	pointing	Trial1	pointing/STIM_005.jpg
566.514	1.355	correct	pointing	Trial1	pointing/STIM_005.jpg
569.898	1.304	correct	pointing	Trial1	pointing/STIM_005.jpg
574.413	1.42	correct	pointing	Trial1	pointing/STIM_005.jpg
578.193	1.482	correct	pointing	Trial1	pointing/STIM_005.jpg
582.008	1.527	correct	pointing	Trial1	pointing/STIM_006.jpg
586.165	0.998	correct	pointing	Trial1	pointing/STIM_006.jpg
590.231	1.436	correct	pointing	Trial1	pointing/STIM_006.jpg
595.026	1.628	correct	pointing	Trial1	pointing/STIM_006.jpg
599.335	0.99	correct	pointing	Trial1	pointing/STIM_006.jpg
602.6	1.675	correct	pointing	Trial1	pointing/STIM_006.jpg
607.232	1.413	correct	pointing	Trial1	pointing/STIM_007.jpg
611.064	1.634	correct	pointing	Trial1	pointing/STIM_007.jpg
614.776	1.489	correct	pointing	Trial1	pointing/STIM_007.jpg
619.088	1.642	incorrect	pointing	Trial1	pointing/STIM_007.jpg
623.088	1.08	correct	pointing	Trial1	pointing/STIM_007.jpg
626.123	1.42	correct	pointing	Trial1	pointing/STIM_007.jpg
630.144	1.223	correct	pointing	Trial1	pointing/STIM_008.jpg
634.096	1.435	correct	pointing	Trial1	pointing/STIM_008.jpg
638.234	1.277	correct	pointing	Trial1	pointing/STIM_008.jpg
642.0	0.921	incorrect	pointing	Trial1	pointing/STIM_008.jpg
645.125	1.31	correct	pointing	Trial1	pointing/STIM_008.jpg
649.439	1.448	correct	pointing	Trial1	pointing/STIM_008.jpg
654.361	1.285	correct	pointing	Trial1	pointing/STIM_009.jpg
658.131	1.2	correct	pointing	Trial1	pointing/STIM_009.jpg
662.142	1.525	correct	pointing	Trial1	pointing/STIM_009.jpg
666.548	1.312	correct	pointing	Trial1	pointing/STIM_009.jpg
670.109	1.313	correct	pointing	Trial1	pointing/STIM_009.jpg
675.217	1.197	correct	pointing	Trial1	pointing/STIM_009.jpg
680.124	1.08	correct	pointing	Trial1	pointing/STIM_010.jpg
684.16	1.016	correct	pointing	Trial1	pointing/STIM_010.jpg
688.025	1.218	correct	pointing	Trial1	pointing/STIM_010.jpg
692.946	1.437	incorrect	pointing	Trial1	pointing/STIM_010.jpg
696.918	1.506	correct	pointing	Trial1	pointing/STIM_010.jpg
701.668	1.742	correct	pointing	Trial1	pointing/STIM_010.jpg
705.907	1.325	correct	pointing	Trial1	pointing/STIM_011.jpg
709.506	0.864	correct	pointing	Trial1	pointing/STIM_011.jpg
712.494	1.166	correct	pointing	Trial1	pointing/STIM_011.jpg
716.857	1.415	correct	pointing	Trial1	pointing/STIM_011.jpg
721.88	1.158	correct	pointing	Trial1	pointing/STIM_011.jpg
726.897	1.715	correct	pointing	Trial1	pointing/STIM_011.jpg
731.137	3.436	incorrect	navigation	Trial2	navigation/STIM_000.jpg
736.68	2.094	correct	navigation	Trial2	navigation/STIM_000.jpg
741.411	3.343	correct	navigation	Trial2	navigation/STIM_000.jpg
747.376	2.066	incorrect	navigation	Trial2	navigation/STIM_000.jpg
752.524	1.956	correct	navigation	Trial2	navigation/STIM_000.jpg
757.783	3.519	correct	navigation	Trial2	navigation/STIM_000.jpg
764.553	3.141	correct	navigation	Trial2	navigation/STIM_001.jpg
769.631	2.191	incorrect	navigation	Trial2	navigation/STIM_001.jpg
775.445	2.712	incorrect	navigation	Trial2	navigation/STIM_001.jpg
781.172	3.602	incorrect	navigation	Trial2	navigation/STIM_001.jpg
786.577	2.74	correct	navigation	Trial2	navigation/STIM_001.jpg
792.843	3.221	incorrect	navigation	Trial2	navigation/STIM_001.jpg
798.002	1.984	correct	navigation	Trial2	navigation/STIM_002.jpg
802.385	2.047	incorrect	navigation	Trial2	navigation/STIM_002.jpg
806.907	1.97	correct	navigation	Trial2	navigation/STIM_002.jpg
811.873	3.702	correct	navigation	Trial2	navigation/STIM_002.jpg
817.244	3.68	correct	navigation	Trial2	navigation/STIM_002.jpg
823.701	2.746	correct	navigation	Trial2	navigation/STIM_002.jpg
828.951	4.708	correct	navigation	Trial2	navigation/STIM_003.jpg
836.257	4.148	correct	navigation	Trial2	navigation/STIM_003.jpg
842.916	4.104	correct	navigation	Trial2	navigation/STIM_003.jpg
848.597	3.88	correct	navigation	Trial2	navigation/STIM_003.jpg
855.225	2.392	correct	navigation	Trial2	navigation/STIM_003.jpg
860.732	2.61	correct	navigation	Trial2	navigation/STIM_003.jpg
865.845	2.715	correct	navigation	Trial2	navigation/STIM_004.jpg
871.463	3.169	correct	navigation	Trial2	navigation/STIM_004.jpg
876.899	2.748	correct	navigation	Trial2	navigation/STIM_004.jpg
882.398	3.778	incorrect	navigation	Trial2	navigation/STIM_004.jpg
888.352	3.802	correct	navigation	Trial2	navigation/STIM_004.jpg
895.617	3.224	correct	navigation	Trial2	navigation/STIM_004.jpg
900.819	3.856	incorrect	navigation	Trial2	navigation/STIM_005.jpg
907.811	3.72	correct	navigation	Trial2	navigation/STIM_005.jpg
914.521	4.017	correct	navigation	Trial2	navigation/STIM_005.jpg
921.131	2.115	incorrect	navigation	Trial2	navigation/STIM_005.jpg
926.82	3.894	correct	navigation	Trial2	navigation/STIM_005.jpg
932.421	3.976	incorrect	navigation	Trial2	navigation/STIM_005.jpg
938.446	2.415	correct	navigation	Trial2	navigation/STIM_006.jpg
942.73	3.813	correct	navigation	Trial2	navigation/STIM_006.jpg
949.653	3.956	incorrect	navigation	Trial2	navigation/STIM_006.jpg
956.133	2.784	correct	navigation	Trial2	navigation/STIM_006.jpg
962.368	3.081	correct	navigation	Trial2	navigation/STIM_006.jpg
968.889	1.83	correct	navigation	Trial2	navigation/STIM_006.jpg
973.713	3.356	correct	navigation	Trial2	navigation/STIM_007.jpg
980.29	3.177	correct	navigation	Trial2	navigation/STIM_007.jpg
986.055	2.218	correct	navigation	Trial2	navigation/STIM_007.jpg
991.214	3.996	incorrect	navigation	Trial2	navigation/STIM_007.jpg
996.689	3.091	correct	navigation	Trial2	navigation/STIM_007.jpg
1002.06	2.581	correct	navigation	Trial2	navigation/STIM_007.jpg
1007.962	3.341	correct	navigation	Trial2	navigation/STIM_008.jpg
1014.076	4.283	correct	navigation	Trial2	navigation/STIM_008.jpg
1020.769	2.444	incorrect	navigation	Trial2	navigation/STIM_008.jpg
1026.247	2.998	incorrect	navigation	Trial2	navigation/STIM_008.jpg
1031.593	2.394	correct	navigation	Trial2	navigation/STIM_008.jpg
1037.497	3.27	correct	navigation	Trial2	navigation/STIM_008.jpg
1043.827	4.868	correct	navigation	Trial2	navigation/STIM_009.jpg
1050.649	3.376	correct	navigation	Trial2	navigation/STIM_009.jpg
1055.963	2.551	correct	navigation	Trial2	navigation/STIM_009.jpg
1060.908	3.044	correct	navigation	Trial2	navigation/STIM_009.jpg
1066.553	3.466	incorrect	navigation	Trial2	navigation/STIM_009.jpg
1073.062	3.063	incorrect	navigation	Trial2	navigation/STIM_009.jpg
1078.741	2.038	correct	navigation	Trial2	navigation/STIM_010.jpg
1082.738	3.149	correct	navigation	Trial2	navigation/STIM_010.jpg
1089.455	3.162	correct	navigation	Trial2	navigation/STIM_010.jpg
1095.487	2.221	correct	navigation	Trial2	navigation/STIM_010.jpg
1099.712	3.91	correct	navigation	Trial2	navigation/STIM_010.jpg
1106.355	2.538	correct	navigation	Trial2	navigation/STIM_010.jpg
1111.58	2.155	correct	navigation	Trial2	navigation/STIM_011.jpg
1116.587	2.449	correct	navigation	Trial2	navigation/STIM_011.jpg
1120.923	3.782	correct	navigation	Trial2	navigation/STIM_011.jpg
1127.072	3.787	incorrect	navigation	Trial2	navigation/STIM_011.jpg
1132.549	3.67	correct	navigation	Trial2	navigation/STIM_011.jpg
1138.337	1.883	correct	navigation	Trial2	navigation/STIM_011.jpg
1143.685	1.551	correct	pointing	Trial2	pointing/STIM_000.jpg
1147.877	1.272	correct	pointing	Trial2	pointing/STIM_000.jpg
1151.829	1.692	correct	pointing	Trial2	pointing/STIM_000.jpg
1156.329	1.053	correct	pointing	Trial2	pointing/STIM_000.jpg
1160.024	1.136	correct	pointing	Trial2	pointing/STIM_000.jpg
1164.871	1.275	correct	pointing	Trial2	pointing/STIM_000.jpg
1168.333	0.969	correct	pointing	Trial2	pointing/STIM_001.jpg
1172.6	1.455	correct	pointing	Trial2	pointing/STIM_001.jpg
1177.874	1.423	correct	pointing	Trial2	pointing/STIM_001.jpg
1182.86	1.302	correct	pointing	Trial2	pointing/STIM_001.jpg
1187.695	1.114	correct	pointing	Trial2	pointing/STIM_001.jpg
1191.345	1.53	correct	pointing	Trial2	pointing/STIM_001.jpg
1195.419	0.984	correct	pointing	Trial2	pointing/STIM_002.jpg
1198.567	1.247	correct	pointing	Trial2	pointing/STIM_002.jpg
1202.516	1.508	correct	pointing	Trial2	pointing/STIM_002.jpg
1207.498	0.897	correct	pointing	Trial2	pointing/STIM_002.jpg
1210.728	1.006	incorrect	pointing	Trial2	pointing/STIM_002.jpg
1215.033	1.153	correct	pointing	Trial2	pointing/STIM_002.jpg
1219.307	1.229	correct	pointing	Trial2	pointing/STIM_003.jpg
1223.474	1.195	correct	pointing	Trial2	pointing/STIM_003.jpg
1227.205	1.612	correct	pointing	Trial2	pointing/STIM_003.jpg
1232.377	1.121	correct	pointing	Trial2	pointing/STIM_003.jpg
1236.889	1.495	correct	pointing	Trial2	pointing/STIM_003.jpg
1241.46	1.025	correct	pointing	Trial2	pointing/STIM_003.jpg
1245.813	1.63	correct	pointing	Trial2	pointing/STIM_004.jpg
1249.803	1.434	correct	pointing	Trial2	pointing/STIM_004.jpg
1253.955	1.144	correct	pointing	Trial2	pointing/STIM_004.jpg
1257.913	1.239	correct	pointing	Trial2	pointing/STIM_004.jpg
1263.072	1.084	correct	pointing	Trial2	pointing/STIM_004.jpg
1267.74	1.377	correct	pointing	Trial2	pointing/STIM_004.jpg
1272.689	1.149	correct	pointing	Trial2	pointing/STIM_005.jpg
1277.027	1.247	correct	pointing	Trial2	pointing/STIM_005.jpg
1281.117	1.302	correct	pointing	Trial2	pointing/STIM_005.jpg
1285.704	1.238	correct	pointing	Trial2	pointing/STIM_005.jpg
1289.502	1.396	correct	pointing	Trial2	pointing/STIM_005.jpg
1293.111	1.28	correct	pointing	Trial2	pointing/STIM_005.jpg
1296.782	1.121	correct	pointing	Trial2	pointing/STIM_006.jpg
1300.161	1.626	correct	pointing	Trial2	pointing/STIM_006.jpg
1305.519	1.144	correct	pointing	Trial2	pointing/STIM_006.jpg
1310.011	1.613	correct	pointing	Trial2	pointing/STIM_006.jpg
1313.719	1.061	incorrect	pointing	Trial2	pointing/STIM_006.jpg
1318.416	1.146	correct	pointing	Trial2	pointing/STIM_006.jpg
1322.176	0.946	correct	pointing	Trial2	pointing/STIM_007.jpg
1325.047	1.304	correct	pointing	Trial2	pointing/STIM_007.jpg
1329.7	1.251	correct	pointing	Trial2	pointing/STIM_007.jpg
1334.156	1.267	correct	pointing	Trial2	pointing/STIM_007.jpg
1337.423	1.688	correct	pointing	Trial2	pointing/STIM_007.jpg
1341.233	1.382	correct	pointing	Trial2	pointing/STIM_007.jpg
1344.53	1.055	correct	pointing	Trial2	pointing/STIM_008.jpg
1349.158	1.231	correct	pointing	Trial2	pointing/STIM_008.jpg
1352.547	1.143	correct	pointing	Trial2	pointing/STIM_008.jpg
1355.739	0.889	correct	pointing	Trial2	pointing/STIM_008.jpg
1358.887	1.399	correct	pointing	Trial2	pointing/STIM_008.jpg
1362.967	1.673	correct	pointing	Trial2	pointing/STIM_008.jpg
1366.412	1.338	correct	pointing	Trial2	pointing/STIM_009.jpg
1370.224	1.512	correct	pointing	Trial2	pointing/STIM_009.jpg
1374.787	0.888	correct	pointing	Trial2	pointing/STIM_009.jpg
1379.344	1.217	correct	pointing	Trial2	pointing/STIM_009.jpg
1383.048	1.3	correct	pointing	Trial2	pointing/STIM_009.jpg
1386.707	1.092	correct	pointing	Trial2	pointing/STIM_009.jpg
1390.923	1.522	correct	pointing	Trial2	pointing/STIM_010.jpg
1394.724	1.142	correct	pointing	Trial2	pointing/STIM_010.jpg
1398.573	1.284	correct	pointing	Trial2	pointing/STIM_010.jpg
1402.464	1.145	correct	pointing	Trial2	pointing/STIM_010.jpg
1406.116	1.246	correct	pointing	Trial2	pointing/STIM_010.jpg
1410.664	1.166	correct	pointing	Trial2	pointing/STIM_010.jpg
1414.884	1.467	correct	pointing	Trial2	pointing/STIM_011.jpg
1419.132	1.636	correct	pointing	Trial2	pointing/STIM_011.jpg
1423.842	1.05	correct	pointing	Trial2	pointing/STIM_011.jpg
1426.906	1.68	correct	pointing	Trial2	pointing/STIM_011.jpg
1430.815	1.09	correct	pointing	Trial2	pointing/STIM_011.jpg
1434.681	1.104	correct	pointing	Trial2	pointing/STIM_011.jpg
1438.812	3.693	correct	navigation	Trial3	navigation/STIM_000.jpg
1445.896	2.676	correct	navigation	Trial3	navigation/STIM_000.jpg
1451.824	3.442	correct	navigation	Trial3	navigation/STIM_000.jpg
1457.782	3.321	correct	navigation	Trial3	navigation/STIM_000.jpg
1464.08	2.266	correct	navigation	Trial3	navigation/STIM_000.jpg
1469.954	1.836	correct	navigation	Trial3	navigation/STIM_000.jpg
1474.249	3.375	correct	navigation	Trial3	navigation/STIM_001.jpg
1479.698	1.993	correct	navigation	Trial3	navigation/STIM_001.jpg
1483.814	3.978	correct	navigation	Trial3	navigation/STIM_001.jpg
1491.167	1.971	correct	navigation	Trial3	navigation/STIM_001.jpg
1495.604	3.715	correct	navigation	Trial3	navigation/STIM_001.jpg
1501.642	2.747	correct	navigation	Trial3	navigation/STIM_001.jpg
1506.231	1.972	correct	navigation	Trial3	navigation/STIM_002.jpg
1510.353	2.602	correct	navigation	Trial3	navigation/STIM_002.jpg
1514.719	1.695	correct	navigation	Trial3	navigation/STIM_002.jpg
1519.796	3.692	correct	navigation	Trial3	navigation/STIM_002.jpg
1525.079	1.645	correct	navigation	Trial3	navigation/STIM_002.jpg
1528.769	4.011	correct	navigation	Trial3	navigation/STIM_002.jpg
1534.608	3.546	correct	navigation	Trial3	navigation/STIM_003.jpg
1540.256	3.144	incorrect	navigation	Trial3	navigation/STIM_003.jpg
1545.01	2.978	incorrect	navigation	Trial3	navigation/STIM_003.jpg
1551.487	3.204	correct	navigation	Trial3	navigation/STIM_003.jpg
1556.847	2.307	correct	navigation	Trial3	navigation/STIM_003.jpg
1562.286	1.638	correct	navigation	Trial3	navigation/STIM_003.jpg
1566.114	2.065	correct	navigation	Trial3	navigation/STIM_004.jpg
1571.593	1.676	correct	navigation	Trial3	navigation/STIM_004.jpg
1575.913	1.758	correct	navigation	Trial3	navigation/STIM_004.jpg
1581.227	2.691	correct	navigation	Trial3	navigation/STIM_004.jpg
1586.171	3.102	correct	navigation	Trial3	navigation/STIM_004.jpg
1591.921	2.338	correct	navigation	Trial3	navigation/STIM_004.jpg
1598.05	2.392	correct	navigation	Trial3	navigation/STIM_005.jpg
1603.229	3.376	correct	navigation	Trial3	navigation/STIM_005.jpg
1608.832	3.613	correct	navigation	Trial3	navigation/STIM_005.jpg
1615.632	1.854	correct	navigation	Trial3	navigation/STIM_005.jpg
1619.84	2.417	correct	navigation	Trial3	navigation/STIM_005.jpg
1625.178	3.194	correct	navigation	Trial3	navigation/STIM_005.jpg
1631.722	2.975	correct	navigation	Trial3	navigation/STIM_006.jpg
1636.469	4.022	correct	navigation	Trial3	navigation/STIM_006.jpg
1643.097	3.656	correct	navigation	Trial3	navigation/STIM_006.jpg
1650.002	2.756	correct	navigation	Trial3	navigation/STIM_006.jpg
1655.877	1.829	incorrect	navigation	Trial3	navigation/STIM_006.jpg
1660.586	3.388	correct	navigation	Trial3	navigation/STIM_006.jpg
1665.855	3.627	correct	navigation	Trial3	navigation/STIM_007.jpg
1671.552	3.322	correct	navigation	Trial3	navigation/STIM_007.jpg
1676.98	1.61	correct	navigation	Trial3	navigation/STIM_007.jpg
1682.227	2.259	incorrect	navigation	Trial3	navigation/STIM_007.jpg
1686.463	3.932	correct	navigation	Trial3	navigation/STIM_007.jpg
1693.792	2.754	correct	navigation	Trial3	navigation/STIM_007.jpg
1699.773	2.474	correct	navigation	Trial3	navigation/STIM_008.jpg
1705.278	2.995	incorrect	navigation	Trial3	navigation/STIM_008.jpg
1710.571	1.83	incorrect	navigation	Trial3	navigation/STIM_008.jpg
1715.666	2.287	correct	navigation	Trial3	navigation/STIM_008.jpg
1721.43	3.142	correct	navigation	Trial3	navigation/STIM_008.jpg
1726.799	2.345	correct	navigation	Trial3	navigation/STIM_008.jpg
1732.52	2.198	correct	navigation	Trial3	navigation/STIM_009.jpg
1737.441	3.309	correct	navigation	Trial3	navigation/STIM_009.jpg
1742.438	2.589	correct	navigation	Trial3	navigation/STIM_009.jpg
1746.735	3.032	correct	navigation	Trial3	navigation/STIM_009.jpg
1753.282	4.039	correct	navigation	Trial3	navigation/STIM_009.jpg
1758.834	3.412	correct	navigation	Trial3	navigation/STIM_009.jpg
1765.504	3.502	correct	navigation	Trial3	navigation/STIM_010.jpg
1770.662	3.792	correct	navigation	Trial3	navigation/STIM_010.jpg
1777.793	3.594	correct	navigation	Trial3	navigation/STIM_010.jpg
1783.915	1.91	correct	navigation	Trial3	navigation/STIM_010.jpg
1788.627	2.328	correct	navigation	Trial3	navigation/STIM_010.jpg
1793.86	2.795	correct	navigation	Trial3	navigation/STIM_010.jpg
1799.174	3.491	correct	navigation	Trial3	navigation/STIM_011.jpg
1804.574	3.695	incorrect	navigation	Trial3	navigation/STIM_011.jpg
1811.7	2.541	incorrect	navigation	Trial3	navigation/STIM_011.jpg
1816.99	2.931	correct	navigation	Trial3	navigation/STIM_011.jpg
1822.172	1.794	correct	navigation	Trial3	navigation/STIM_011.jpg
1826.978	2.552	correct	navigation	Trial3	navigation/STIM_011.jpg
1831.446	1.516	correct	pointing	Trial3	pointing/STIM_000.jpg
1835.225	1.424	correct	pointing	Trial3	pointing/STIM_000.jpg
1839.647	1.173	correct	pointing	Trial3	pointing/STIM_000.jpg
1844.039	0.995	correct	pointing	Trial3	pointing/STIM_000.jpg
1848.956	1.296	incorrect	pointing	Trial3	pointing/STIM_000.jpg
1853.531	1.566	correct	pointing	Trial3	pointing/STIM_000.jpg
1858.264	1.039	correct	pointing	Trial3	pointing/STIM_001.jpg
1862.832	1.55	correct	pointing	Trial3	pointing/STIM_001.jpg
1867.068	1.252	correct	pointing	Trial3	pointing/STIM_001.jpg
1870.22	0.918	correct	pointing	Trial3	pointing/STIM_001.jpg
1873.865	1.468	correct	pointing	Trial3	pointing/STIM_001.jpg
1877.797	1.64	correct	pointing	Trial3	pointing/STIM_001.jpg
1882.554	1.029	correct	pointing	Trial3	pointing/STIM_002.jpg
1886.542	1.658	correct	pointing	Trial3	pointing/STIM_002.jpg
1891.27	1.702	correct	pointing	Trial3	pointing/STIM_002.jpg
1895.126	1.03	correct	pointing	Trial3	pointing/STIM_002.jpg
1899.856	0.9	correct	pointing	Trial3	pointing/STIM_002.jpg
1904.632	1.522	correct	pointing	Trial3	pointing/STIM_002.jpg
1909.808	1.054	correct	pointing	Trial3	pointing/STIM_003.jpg
1914.021	0.925	correct	pointing	Trial3	pointing/STIM_003.jpg
1918.233	1.163	correct	pointing	Trial3	pointing/STIM_003.jpg
1922.46	1.239	correct	pointing	Trial3	pointing/STIM_003.jpg
1927.109	1.653	correct	pointing	Trial3	pointing/STIM_003.jpg
1932.321	1.644	correct	pointing	Trial3	pointing/STIM_003.jpg
1937.1	1.677	correct	pointing	Trial3	pointing/STIM_004.jpg
1942.431	1.161	correct	pointing	Trial3	pointing/STIM_004.jpg
1947.065	0.862	correct	pointing	Trial3	pointing/STIM_004.jpg
1951.061	1.657	correct	pointing	Trial3	pointing/STIM_004.jpg
1956.238	1.426	incorrect	pointing	Trial3	pointing/STIM_004.jpg
1960.648	1.657	correct	pointing	Trial3	pointing/STIM_004.jpg
1965.986	1.038	correct	pointing	Trial3	pointing/STIM_005.jpg
1970.568	1.795	correct	pointing	Trial3	pointing/STIM_005.jpg
1975.91	1.667	correct	pointing	Trial3	pointing/STIM_005.jpg
1979.978	1.653	correct	pointing	Trial3	pointing/STIM_005.jpg
1985.181	0.907	correct	pointing	Trial3	pointing/STIM_005.jpg
1989.231	1.653	correct	pointing	Trial3	pointing/STIM_005.jpg
1994.225	1.278	correct	pointing	Trial3	pointing/STIM_006.jpg
1997.877	1.384	correct	pointing	Trial3	pointing/STIM_006.jpg
2003.115	1.052	correct	pointing	Trial3	pointing/STIM_006.jpg
2006.903	1.571	correct	pointing	Trial3	pointing/STIM_006.jpg
2010.88	1.377	correct	pointing	Trial3	pointing/STIM_006.jpg
2015.398	1.153	correct	pointing	Trial3	pointing/STIM_006.jpg
2019.168	1.458	correct	pointing	Trial3	pointing/STIM_007.jpg
2023.902	1.066	correct	pointing	Trial3	pointing/STIM_007.jpg
2028.767	1.48	correct	pointing	Trial3	pointing/STIM_007.jpg
2032.837	1.606	correct	pointing	Trial3	pointing/STIM_007.jpg
2037.098	1.086	incorrect	pointing	Trial3	pointing/STIM_007.jpg
2041.03	1.412	correct	pointing	Trial3	pointing/STIM_007.jpg
2046.066	1.047	correct	pointing	Trial3	pointing/STIM_008.jpg
2050.19	1.573	correct	pointing	Trial3	pointing/STIM_008.jpg
2053.594	1.318	correct	pointing	Trial3	pointing/STIM_008.jpg
2057.552	1.542	correct	pointing	Trial3	pointing/STIM_008.jpg
2062.795	1.663	correct	pointing	Trial3	pointing/STIM_008.jpg
2067.986	1.603	correct	pointing	Trial3	pointing/STIM_008.jpg
2071.952	1.436	incorrect	pointing	Trial3	pointing/STIM_009.jpg
2075.45	1.175	correct	pointing	Trial3	pointing/STIM_009.jpg
2078.678	1.278	correct	pointing	Trial3	pointing/STIM_009.jpg
2083.039	1.157	correct	pointing	Trial3	pointing/STIM_009.jpg
2086.622	1.596	correct	pointing	Trial3	pointing/STIM_009.jpg
2091.08	1.459	correct	pointing	Trial3	pointing/STIM_009.jpg
2094.498	1.129	incorrect	pointing	Trial3	pointing/STIM_010.jpg
2098.901	1.293	correct	pointing	Trial3	pointing/STIM_010.jpg
2103.075	1.425	correct	pointing	Trial3	pointing/STIM_010.jpg
2106.517	1.552	incorrect	pointing	Trial3	pointing/STIM_010.jpg
2111.637	1.741	correct	pointing	Trial3	pointing/STIM_010.jpg
2116.453	1.497	correct	pointing	Trial3	pointing/STIM_010.jpg
2120.532	1.421	incorrect	pointing	Trial3	pointing/STIM_011.jpg
2125.566	1.19	correct	pointing	Trial3	pointing/STIM_011.jpg
2130.521	1.313	correct	pointing	Trial3	pointing/STIM_011.jpg
2133.807	1.684	incorrect	pointing	Trial3	pointing/STIM_011.jpg
2138.428	1.147	correct	pointing	Trial3	pointing/STIM_011.jpg
2141.905	0.975	correct	pointing	Trial3	pointing/STIM_011.jpg
