onset	duration	response_time_ms	trial_type	learning_stage	stimulus	response_port
0.0	0.657	657.2	incongruent	Block1	incongruent/STIM_000.jpg	99
4.203	0.835	835.0	incongruent	Block1	incongruent/STIM_000.jpg	99
7.696	1.092	1092.4	incongruent	Block1	incongruent/STIM_000.jpg	99
11.354	0.543	543.3	incongruent	Block1	incongruent/STIM_000.jpg	100
15.843	0.969	969.4	incongruent	Block1	incongruent/STIM_000.jpg	100
18.908	1.07	1069.8	incongruent	Block1	incongruent/STIM_001.jpg	100
23.918	0.703	702.7	incongruent	Block1	incongruent/STIM_001.jpg	100
27.509	0.943	943.3	incongruent	Block1	incongruent/STIM_001.jpg	99
32.353	0.844	844.3	incongruent	Block1	incongruent/STIM_001.jpg	100
35.439	0.912	912.2	incongruent	Block1	incongruent/STIM_001.jpg	100
39.408	0.677	677.3	incongruent	Block1	incongruent/STIM_002.jpg	99
42.139	0.877	877.3	incongruent	Block1	incongruent/STIM_002.jpg	100
45.742	0.859	858.8	incongruent	Block1	incongruent/STIM_002.jpg	99
49.755	0.978	978.3	incongruent	Block1	incongruent/STIM_002.jpg	100
54.689	0.562	561.7	incongruent	Block1	incongruent/STIM_002.jpg	99
58.186	0.855	855.3	incongruent	Block1	incongruent/STIM_003.jpg	99
61.042	0.868	867.8	incongruent	Block1	incongruent/STIM_003.jpg	100
65.82	0.699	699.3	incongruent	Block1	incongruent/STIM_003.jpg	100
69.185	0.573	573.1	incongruent	Block1	incongruent/STIM_003.jpg	99
73.368	0.745	745.4	incongruent	Block1	incongruent/STIM_003.jpg	99
77.854	1.034	1033.6	incongruent	Block1	incongruent/STIM_004.jpg	100
81.731	0.62	620.5	incongruent	Block1	incongruent/STIM_004.jpg	99
84.808	0.579	578.6	incongruent	Block1	incongruent/STIM_004.jpg	100
88.826	1.074	1073.7	incongruent	Block1	incongruent/STIM_004.jpg	99
92.658	0.48	480.2	incongruent	Block1	incongruent/STIM_004.jpg	100
96.112	0.715	714.7	incongruent	Block1	incongruent/STIM_005.jpg	100
100.026	1.186	1185.5	incongruent	Block1	incongruent/STIM_005.jpg	100
105.19	0.861	860.6	incongruent	Block1	incongruent/STIM_005.jpg	99
108.528	0.747	747.1	incongruent	Block1	incongruent/STIM_005.jpg	99
113.002	0.719	718.8	incongruent	Block1	incongruent/STIM_005.jpg	100
116.235	0.816	816.1	incongruent	Block1	incongruent/STIM_006.jpg	100
119.955	0.904	904.5	incongruent	Block1	incongruent/STIM_006.jpg	100
123.929	1.047	1047.4	incongruent	Block1	incongruent/STIM_006.jpg	100
127.463	0.519	519.1	incongruent	Block1	incongruent/STIM_006.jpg	99
131.477	0.484	484.1	incongruent	Block1	incongruent/STIM_006.jpg	99
135.596	1.12	1120.4	incongruent	Block1	incongruent/STIM_007.jpg	100
138.914	0.688	688.2	incongruent	Block1	incongruent/STIM_007.jpg	100
142.076	0.936	936.0	incongruent	Block1	incongruent/STIM_007.jpg	100
146.764	1.014	1014.4	incongruent	Block1	incongruent/STIM_007.jpg	100
150.677	0.551	550.8	incongruent	Block1	incongruent/STIM_007.jpg	100
154.749	1.098	1097.9	incongruent	Block1	incongruent/STIM_008.jpg	100
158.065	0.741	741.1	incongruent	Block1	incongruent/STIM_008.jpg	100
162.247	1.038	1037.8	incongruent	Block1	incongruent/STIM_008.jpg	99
166.18	0.64	639.7	incongruent	Block1	incongruent/STIM_008.jpg	100
169.613	0.97	969.5	incongruent	Block1	incongruent/STIM_008.jpg	99
174.242	0.716	715.7	incongruent	Block1	incongruent/STIM_009.jpg	100
177.644	1.019	1019.2	incongruent	Block1	incongruent/STIM_009.jpg	100
180.718	0.832	832.4	incongruent	Block1	incongruent/STIM_009.jpg	100
183.785	1.061	1061.0	incongruent	Block1	incongruent/STIM_009.jpg	99
187.777	0.731	730.7	incongruent	Block1	incongruent/STIM_009.jpg	99
190.994	0.996	996.0	incongruent	Block1	incongruent/STIM_010.jpg	100
194.167	1.005	1005.2	incongruent	Block1	incongruent/STIM_010.jpg	100
198.303	0.778	778.3	incongruent	Block1	incongruent/STIM_010.jpg	100
202.908	1.014	1014.0	incongruent	Block1	incongruent/STIM_010.jpg	99
206.042	0.693	692.7	incongruent	Block1	incongruent/STIM_010.jpg	99
209.904	1.071	1070.8	incongruent	Block1	incongruent/STIM_011.jpg	99
213.802	1.184	1183.7	incongruent	Block1	incongruent/STIM_011.jpg	100
217.392	1.105	1104.9	incongruent	Block1	incongruent/STIM_011.jpg	99
221.91	0.82	820.4	incongruent	Block1	incongruent/STIM_011.jpg	100
225.57	0.54	540.4	incongruent	Block1	incongruent/STIM_011.jpg	100
228.372	0.832	831.5	incongruent	Block1	incongruent/STIM_012.jpg	99
231.89	0.95	950.3	incongruent	Block1	incongruent/STIM_012.jpg	99
235.852	0.632	632.2	incongruent	Block1	incongruent/STIM_012.jpg	100
239.841	0.551	551.1	incongruent	Block1	incongruent/STIM_012.jpg	99
242.419	0.568	568.3	incongruent	Block1	incongruent/STIM_012.jpg	99
245.334	1.174	1173.7	incongruent	Block1	incongruent/STIM_013.jpg	100
249.515	1.143	1143.2	incongruent	Block1	incongruent/STIM_013.jpg	99
254.264	0.985	985.1	incongruent	Block1	incongruent/STIM_013.jpg	100
259.175	1.063	1063.3	incongruent	Block1	incongruent/STIM_013.jpg	100
262.464	0.627	626.6	incongruent	Block1	incongruent/STIM_013.jpg	100
265.816	1.06	1059.6	incongruent	Block1	incongruent/STIM_014.jpg	99
270.518	0.895	894.7	incongruent	Block1	incongruent/STIM_014.jpg	100
273.64	0.758	757.9	incongruent	Block1	incongruent/STIM_014.jpg	99
277.16	0.881	880.7	incongruent	Block1	incongruent/STIM_014.jpg	99
280.442	0.591	591.0	incongruent	Block1	incongruent/STIM_014.jpg	99
283.808	0.993	993.3	incongruent	Block1	incongruent/STIM_015.jpg	99
288.363	0.782	781.8	incongruent	Block1	incongruent/STIM_015.jpg	100
291.427	0.984	984.1	incongruent	Block1	incongruent/STIM_015.jpg	99
295.875	0.597	597.3	incongruent	Block1	incongruent/STIM_015.jpg	99
298.805	0.648	648.2	incongruent	Block1	incongruent/STIM_015.jpg	99
301.962	1.077	1076.6	incongruent	Block1	incongruent/STIM_016.jpg	99
306.764	0.974	974.2	incongruent	Block1	incongruent/STIM_016.jpg	99
311.719	0.557	557.1	incongruent	Block1	incongruent/STIM_016.jpg	100
314.742	0.542	541.5	incongruent	Block1	incongruent/STIM_016.jpg	100
317.582	0.627	626.9	incongruent	Block1	incongruent/STIM_016.jpg	99
321.179	1.214	1213.5	incongruent	Block1	incongruent/STIM_017.jpg	100
324.71	1.132	1132.2	incongruent	Block1	incongruent/STIM_017.jpg	100
328.551	0.628	628.2	incongruent	Block1	incongruent/STIM_017.jpg	100
331.316	0.73	729.6	incongruent	Block1	incongruent/STIM_017.jpg	99
334.826	0.577	577.3	incongruent	Block1	incongruent/STIM_017.jpg	100
337.857	0.657	656.6	incongruent	Block1	incongruent/STIM_018.jpg	100
340.726	0.966	966.2	incongruent	Block1	incongruent/STIM_018.jpg	100
345.016	0.646	646.3	incongruent	Block1	incongruent/STIM_018.jpg	99
349.025	0.574	574.3	incongruent	Block1	incongruent/STIM_018.jpg	99
351.927	0.918	918.4	incongruent	Block1	incongruent/STIM_018.jpg	99
356.841	0.799	799.0	incongruent	Block1	incongruent/STIM_019.jpg	100
360.377	1.188	1187.8	incongruent	Block1	incongruent/STIM_019.jpg	99
364.735	0.89	889.8	incongruent	Block1	incongruent/STIM_019.jpg	100
369.551	0.578	577.7	incongruent	Block1	incongruent/STIM_019.jpg	100
372.907	0.639	638.6	incongruent	Block1	incongruent/STIM_019.jpg	100
376.184	0.935	935.4	incongruent	Block1	incongruent/STIM_020.jpg	100
380.215	0.69	689.9	incongruent	Block1	incongruent/STIM_020.jpg	100
384.389	0.661	661.1	incongruent	Block1	incongruent/STIM_020.jpg	99
388.846	0.73	729.9	incongruent	Block1	incongruent/STIM_020.jpg	99
393.392	0.659	659.1	incongruent	Block1	incongruent/STIM_020.jpg	100
397.939	0.948	948.1	incongruent	Block1	incongruent/STIM_021.jpg	99
401.092	1.06	1060.0	incongruent	Block1	incongruent/STIM_021.jpg	99
404.285	1.005	1004.8	incongruent	Block1	incongruent/STIM_021.jpg	100
408.8	0.583	583.1	incongruent	Block1	incongruent/STIM_021.jpg	100
411.541	0.613	613.2	incongruent	Block1	incongruent/STIM_021.jpg	99
415.272	0.99	989.5	incongruent	Block1	incongruent/STIM_022.jpg	100
418.51	1.154	1153.5	incongruent	Block1	incongruent/STIM_022.jpg	100
422.937	0.903	903.0	incongruent	Block1	incongruent/STIM_022.jpg	100
426.812	0.602	601.5	incongruent	Block1	incongruent/STIM_022.jpg	99
430.326	0.599	599.3	incongruent	Block1	incongruent/STIM_022.jpg	100
434.171	1.239	1238.6	incongruent	Block1	incongruent/STIM_023.jpg	100
437.42	0.962	961.7	incongruent	Block1	incongruent/STIM_023.jpg	100
440.405	0.812	812.4	incongruent	Block1	incongruent/STIM_023.jpg	100
443.726	0.639	639.4	incongruent	Block1	incongruent/STIM_023.jpg	100
448.186	0.603	602.9	incongruent	Block1	incongruent/STIM_023.jpg	99
452.625	1.005	1004.7	incongruent	Block1	incongruent/STIM_024.jpg	100
457.297	1.122	1122.3	incongruent	Block1	incongruent/STIM_024.jpg	99
460.649	0.604	603.7	incongruent	Block1	incongruent/STIM_024.jpg	100
463.413	0.552	551.7	incongruent	Block1	incongruent/STIM_024.jpg	99
467.584	0.756	755.6	incongruent	Block1	incongruent/STIM_024.jpg	99
471.395	0.798	797.8	incongruent	Block1	incongruent/STIM_025.jpg	100
475.551	0.965	964.8	incongruent	Block1	incongruent/STIM_025.jpg	99
478.913	0.705	704.9	incongruent	Block1	incongruent/STIM_025.jpg	99
481.954	1.01	1009.7	incongruent	Block1	incongruent/STIM_025.jpg	99
485.358	0.567	566.6	incongruent	Block1	incongruent/STIM_025.jpg	99
488.944	0.684	684.4	incongruent	Block1	incongruent/STIM_026.jpg	100
492.048	1.034	1034.2	incongruent	Block1	incongruent/STIM_026.jpg	99
496.918	0.593	593.0	incongruent	Block1	incongruent/STIM_026.jpg	99
500.98	1.073	1073.0	incongruent	Block1	incongruent/STIM_026.jpg	99
504.481	0.688	688.2	incongruent	Block1	incongruent/STIM_026.jpg	100
509.011	0.892	891.5	incongruent	Block1	incongruent/STIM_027.jpg	99
513.661	0.837	836.7	incongruent	Block1	incongruent/STIM_027.jpg	99
516.791	0.881	881.3	incongruent	Block1	incongruent/STIM_027.jpg	100
521.037	1.071	1070.8	incongruent	Block1	incongruent/STIM_027.jpg	100
526.087	0.948	948.2	incongruent	Block1	incongruent/STIM_027.jpg	100
529.892	0.711	710.7	incongruent	Block1	incongruent/STIM_028.jpg	100
533.571	0.921	920.9	incongruent	Block1	incongruent/STIM_028.jpg	99
537.713	0.989	988.8	incongruent	Block1	incongruent/STIM_028.jpg	100
541.407	0.73	730.1	incongruent	Block1	incongruent/STIM_028.jpg	99
545.772	0.485	485.2	incongruent	Block1	incongruent/STIM_028.jpg	99
549.954	1.059	1059.2	incongruent	Block1	incongruent/STIM_029.jpg	99
554.239	0.915	915.3	incongruent	Block1	incongruent/STIM_029.jpg	100
558.603	0.848	848.3	incongruent	Block1	incongruent/STIM_029.jpg	99
562.418	0.728	727.9	incongruent	Block1	incongruent/STIM_029.jpg	99
566.012	0.566	566.5	incongruent	Block1	incongruent/STIM_029.jpg	100
570.208	0.538	537.9	congruent	Block1	congruent/STIM_000.jpg	99
572.764	0.547	546.9	congruent	Block1	congruent/STIM_000.jpg	99
575.69	0.714	714.0	congruent	Block1	congruent/STIM_000.jpg	100
579.984	0.598	598.5	congruent	Block1	congruent/STIM_000.jpg	100
584.44	0.581	581.2	congruent	Block1	congruent/STIM_000.jpg	99
587.442	0.744	744.1	congruent	Block1	congruent/STIM_001.jpg	99
590.789	0.677	676.8	congruent	Block1	congruent/STIM_001.jpg	99
595.344	0.744	744.1	congruent	Block1	congruent/STIM_001.jpg	99
598.708	0.665	665.2	congruent	Block1	congruent/STIM_001.jpg	100
601.514	0.452	452.1	congruent	Block1	congruent/STIM_001.jpg	99
604.055	0.454	454.3	congruent	Block1	congruent/STIM_002.jpg	99
607.105	0.585	584.8	congruent	Block1	congruent/STIM_002.jpg	99
610.089	0.74	740.2	congruent	Block1	congruent/STIM_002.jpg	99
613.348	0.744	744.0	congruent	Block1	congruent/STIM_002.jpg	99
617.424	0.643	642.8	congruent	Block1	congruent/STIM_002.jpg	100
621.725	0.601	601.1	congruent	Block1	congruent/STIM_003.jpg	99
624.575	0.499	499.3	congruent	Block1	congruent/STIM_003.jpg	99
627.507	0.445	444.7	congruent	Block1	congruent/STIM_003.jpg	99
630.306	0.471	471.0	congruent	Block1	congruent/STIM_003.jpg	100
634.071	0.447	447.1	congruent	Block1	congruent/STIM_003.jpg	99
636.721	0.437	437.2	congruent	Block1	congruent/STIM_004.jpg	100
640.031	0.526	526.3	congruent	Block1	congruent/STIM_004.jpg	100
644.104	0.593	593.3	congruent	Block1	congruent/STIM_004.jpg	100
646.847	0.69	689.8	congruent	Block1	congruent/STIM_004.jpg	100
651.263	0.493	492.7	congruent	Block1	congruent/STIM_004.jpg	100
654.547	0.487	487.2	congruent	Block1	congruent/STIM_005.jpg	99
657.529	0.449	449.0	congruent	Block1	congruent/STIM_005.jpg	99
660.51	0.706	705.9	congruent	Block1	congruent/STIM_005.jpg	100
664.413	0.634	634.3	congruent	Block1	congruent/STIM_005.jpg	100
668.317	0.658	658.1	congruent	Block1	congruent/STIM_005.jpg	100
672.76	0.605	604.7	congruent	Block1	congruent/STIM_006.jpg	99
676.644	0.51	509.7	congruent	Block1	congruent/STIM_006.jpg	100
679.859	0.496	496.5	congruent	Block1	congruent/STIM_006.jpg	99
682.571	0.732	731.5	congruent	Block1	congruent/STIM_006.jpg	100
686.588	0.72	719.9	congruent	Block1	congruent/STIM_006.jpg	100
690.883	0.673	673.3	congruent	Block1	congruent/STIM_007.jpg	99
695.224	0.636	635.9	congruent	Block1	congruent/STIM_007.jpg	99
698.454	0.576	576.4	congruent	Block1	congruent/STIM_007.jpg	100
701.368	0.523	522.9	congruent	Block1	congruent/STIM_007.jpg	99
705.071	0.595	595.2	congruent	Block1	congruent/STIM_007.jpg	100
709.014	0.62	620.0	congruent	Block1	congruent/STIM_008.jpg	99
713.547	0.703	702.6	congruent	Block1	congruent/STIM_008.jpg	100
717.923	0.481	481.0	congruent	Block1	congruent/STIM_008.jpg	100
721.293	0.66	659.8	congruent	Block1	congruent/STIM_008.jpg	99
725.266	0.58	580.5	congruent	Block1	congruent/STIM_008.jpg	99
729.305	0.731	730.7	congruent	Block1	congruent/STIM_009.jpg	100
732.342	0.493	493.4	congruent	Block1	congruent/STIM_009.jpg	100
736.06	0.756	756.3	congruent	Block1	congruent/STIM_009.jpg	100
739.867	0.429	428.7	congruent	Block1	congruent/STIM_009.jpg	100
743.903	0.628	627.7	congruent	Block1	congruent/STIM_009.jpg	100
748.224	0.687	686.6	congruent	Block1	congruent/STIM_010.jpg	100
752.865	0.442	442.1	congruent	Block1	congruent/STIM_010.jpg	100
755.451	0.708	707.6	congruent	Block1	congruent/STIM_010.jpg	100
758.565	0.463	462.8	congruent	Block1	congruent/STIM_010.jpg	99
762.964	0.556	556.3	congruent	Block1	congruent/STIM_010.jpg	99
766.942	0.601	601.2	congruent	Block1	congruent/STIM_011.jpg	100
770.721	0.737	737.0	congruent	Block1	congruent/STIM_011.jpg	100
774.001	0.536	536.4	congruent	Block1	congruent/STIM_011.jpg	99
777.184	0.637	637.3	congruent	Block1	congruent/STIM_011.jpg	99
779.973	0.71	710.0	congruent	Block1	congruent/STIM_011.jpg	100
782.854	0.616	616.0	congruent	Block1	congruent/STIM_012.jpg	100
785.626	0.756	755.8	congruent	Block1	congruent/STIM_012.jpg	99
788.738	0.554	553.9	congruent	Block1	congruent/STIM_012.jpg	99
791.535	0.561	561.3	congruent	Block1	congruent/STIM_012.jpg	99
795.928	0.635	634.8	congruent	Block1	congruent/STIM_012.jpg	100
799.576	0.571	571.0	congruent	Block1	congruent/STIM_013.jpg	99
802.55	0.603	603.0	congruent	Block1	congruent/STIM_013.jpg	99
807.076	0.549	548.7	congruent	Block1	congruent/STIM_013.jpg	100
811.291	0.739	738.9	congruent	Block1	congruent/STIM_013.jpg	99
814.534	0.491	491.1	congruent	Block1	congruent/STIM_013.jpg	100
818.082	0.527	526.6	congruent	Block1	congruent/STIM_014.jpg	100
822.177	0.58	580.5	congruent	Block1	congruent/STIM_014.jpg	100
826.458	0.571	571.2	congruent	Block1	congruent/STIM_014.jpg	99
830.402	0.539	538.9	congruent	Block1	congruent/STIM_014.jpg	99
833.259	0.671	670.6	congruent	Block1	congruent/STIM_014.jpg	99
837.168	0.492	492.1	congruent	Block1	congruent/STIM_015.jpg	100
841.031	0.481	481.1	congruent	Block1	congruent/STIM_015.jpg	100
844.437	0.625	625.4	congruent	Block1	congruent/STIM_015.jpg	100
848.307	0.692	692.5	congruent	Block1	congruent/STIM_015.jpg	100
851.281	0.638	638.1	congruent	Block1	congruent/STIM_015.jpg	100
855.222	0.436	436.1	congruent	Block1	congruent/STIM_016.jpg	99
858.379	0.613	612.8	congruent	Block1	congruent/STIM_016.jpg	100
861.178	0.491	490.8	congruent	Block1	congruent/STIM_016.jpg	99
864.006	0.587	587.1	congruent	Block1	congruent/STIM_016.jpg	100
867.11	0.635	635.2	congruent	Block1	congruent/STIM_016.jpg	100
871.098	0.753	752.8	congruent	Block1	congruent/STIM_017.jpg	100
875.078	0.544	544.0	congruent	Block1	congruent/STIM_017.jpg	100
878.711	0.655	654.8	congruent	Block1	congruent/STIM_017.jpg	99
882.957	0.712	711.5	congruent	Block1	congruent/STIM_017.jpg	99
887.493	0.562	562.3	congruent	Block1	congruent/STIM_017.jpg	100
891.219	0.747	747.2	congruent	Block1	congruent/STIM_018.jpg	99
895.123	0.452	452.3	congruent	Block1	congruent/STIM_018.jpg	100
897.674	0.733	732.8	congruent	Block1	congruent/STIM_018.jpg	100
901.3	0.725	725.1	congruent	Block1	congruent/STIM_018.jpg	100
905.105	0.669	668.9	congruent	Block1	congruent/STIM_018.jpg	99
909.25	0.739	738.6	congruent	Block1	congruent/STIM_019.jpg	100
913.693	0.684	683.6	congruent	Block1	congruent/STIM_019.jpg	100
917.511	0.472	472.3	congruent	Block1	congruent/STIM_019.jpg	99
920.385	0.755	755.2	congruent	Block1	congruent/STIM_019.jpg	100
924.975	0.659	658.6	congruent	Block1	congruent/STIM_019.jpg	99
928.257	0.702	702.0	congruent	Block1	congruent/STIM_020.jpg	100
932.178	0.572	572.1	congruent	Block1	congruent/STIM_020.jpg	99
935.426	0.494	494.5	congruent	Block1	congruent/STIM_020.jpg	100
939.838	0.674	673.5	congruent	Block1	congruent/STIM_020.jpg	99
943.791	0.752	751.8	congruent	Block1	congruent/STIM_020.jpg	99
948.133	0.674	674.2	congruent	Block1	congruent/STIM_021.jpg	100
951.938	0.594	594.1	congruent	Block1	congruent/STIM_021.jpg	100
954.934	0.445	444.9	congruent	Block1	congruent/STIM_021.jpg	100
957.945	0.64	640.0	congruent	Block1	congruent/STIM_021.jpg	99
960.884	0.524	524.1	congruent	Block1	congruent/STIM_021.jpg	99
963.557	0.452	452.2	congruent	Block1	congruent/STIM_022.jpg	100
967.55	0.534	534.3	congruent	Block1	congruent/STIM_022.jpg	99
970.417	0.618	618.2	congruent	Block1	congruent/STIM_022.jpg	99
973.284	0.434	433.9	congruent	Block1	congruent/STIM_022.jpg	100
975.775	0.586	585.8	congruent	Block1	congruent/STIM_022.jpg	99
978.981	0.659	659.3	congruent	Block1	congruent/STIM_023.jpg	100
982.603	0.47	470.1	congruent	Block1	congruent/STIM_023.jpg	100
986.856	0.504	504.0	congruent	Block1	congruent/STIM_023.jpg	100
990.83	0.743	742.6	congruent	Block1	congruent/STIM_023.jpg	99
994.278	0.589	589.3	congruent	Block1	congruent/STIM_023.jpg	99
997.608	0.692	691.7	congruent	Block1	congruent/STIM_024.jpg	100
1001.332	0.587	586.7	congruent	Block1	congruent/STIM_024.jpg	100
1004.686	0.526	525.5	congruent	Block1	congruent/STIM_024.jpg	100
1007.992	0.531	530.7	congruent	Block1	congruent/STIM_024.jpg	99
1012.499	0.566	565.5	congruent	Block1	congruent/STIM_024.jpg	100
1015.821	0.473	472.9	congruent	Block1	congruent/STIM_025.jpg	99
1019.195	0.606	605.8	congruent	Block1	congruent/STIM_025.jpg	99
1023.238	0.682	682.2	congruent	Block1	congruent/STIM_025.jpg	99
1026.117	0.632	631.5	congruent	Block1	congruent/STIM_025.jpg	99
1030.109	0.593	593.3	congruent	Block1	congruent/STIM_025.jpg	99
1033.67	0.465	465.4	congruent	Block1	congruent/STIM_026.jpg	100
1036.853	0.518	517.6	congruent	Block1	congruent/STIM_026.jpg	99
1041.095	0.602	601.5	congruent	Block1	congruent/STIM_026.jpg	100
1043.973	0.687	687.0	congruent	Block1	congruent/STIM_026.jpg	99
1048.517	0.43	429.6	congruent	Block1	congruent/STIM_026.jpg	100
1051.952	0.687	686.7	congruent	Block1	congruent/STIM_027.jpg	99
1054.761	0.708	707.5	congruent	Block1	congruent/STIM_027.jpg	99
1058.692	0.577	576.6	congruent	Block1	congruent/STIM_027.jpg	100
1062.425	0.548	548.3	congruent	Block1	congruent/STIM_027.jpg	100
1065.27	0.604	603.6	congruent	Block1	congruent/STIM_027.jpg	100
1068.724	0.461	460.8	congruent	Block1	congruent/STIM_028.jpg	99
1071.259	0.514	513.8	congruent	Block1	congruent/STIM_028.jpg	99
1074.676	0.425	424.8	congruent	Block1	congruent/STIM_028.jpg	100
1078.666	0.704	703.7	congruent	Block1	congruent/STIM_028.jpg	100
1082.563	0.739	739.4	congruent	Block1	congruent/STIM_028.jpg	99
1085.368	0.674	674.1	congruent	Block1	congruent/STIM_029.jpg	100
1088.5	0.533	532.6	congruent	Block1	congruent/STIM_029.jpg	99
1091.739	0.647	646.8	congruent	Block1	congruent/STIM_029.jpg	100
1095.941	0.673	673.1	congruent	Block1	congruent/STIM_029.jpg	100
1099.672	0.492	491.5	congruent	Block1	congruent/STIM_029.jpg	99
1103.319	1.076	1076.3	incongruent	Block2	incongruent/STIM_000.jpg	100
1106.828	0.498	497.6	incongruent	Block2	incongruent/STIM_000.jpg	100
1110.119	0.794	793.8	incongruent	Block2	incongruent/STIM_000.jpg	99
1114.527	0.729	729.3	incongruent	Block2	incongruent/STIM_000.jpg	99
1118.959	0.513	513.3	incongruent	Block2	incongruent/STIM_000.jpg	100
1122.595	1.037	1037.0	incongruent	Block2	incongruent/STIM_001.jpg	100
1126.195	0.71	710.0	incongruent	Block2	incongruent/STIM_001.jpg	99
1130.397	0.783	782.9	incongruent	Block2	incongruent/STIM_001.jpg	100
1133.343	0.723	723.3	incongruent	Block2	incongruent/STIM_001.jpg	100
1137.629	0.666	666.3	incongruent	Block2	incongruent/STIM_001.jpg	100
1141.578	0.979	978.8	incongruent	Block2	incongruent/STIM_002.jpg	100
1144.815	0.646	645.7	incongruent	Block2	incongruent/STIM_002.jpg	99
1148.063	0.511	511.5	incongruent	Block2	incongruent/STIM_002.jpg	100
1151.872	0.86	859.5	incongruent	Block2	incongruent/STIM_002.jpg	100
1155.089	0.635	635.4	incongruent	Block2	incongruent/STIM_002.jpg	99
1158.845	0.832	832.2	incongruent	Block2	incongruent/STIM_003.jpg	100
1161.863	0.517	517.2	incongruent	Block2	incongruent/STIM_003.jpg	99
1166.199	0.683	683.1	incongruent	Block2	incongruent/STIM_003.jpg	100
1170.581	0.603	603.3	incongruent	Block2	incongruent/STIM_003.jpg	100
1174.909	0.574	573.7	incongruent	Block2	incongruent/STIM_003.jpg	100
1178.899	0.821	821.0	incongruent	Block2	incongruent/STIM_004.jpg	99
1183.255	0.855	855.3	incongruent	Block2	incongruent/STIM_004.jpg	99
1186.521	0.832	832.3	incongruent	Block2	incongruent/STIM_004.jpg	99
1191.296	0.628	627.7	incongruent	Block2	incongruent/STIM_004.jpg	99
1194.365	0.808	808.1	incongruent	Block2	incongruent/STIM_004.jpg	100
1198.776	0.547	547.3	incongruent	Block2	incongruent/STIM_005.jpg	99
1201.444	0.887	886.6	incongruent	Block2	incongruent/STIM_005.jpg	100
1206.004	0.893	893.4	incongruent	Block2	incongruent/STIM_005.jpg	99
1209.906	0.854	853.5	incongruent	Block2	incongruent/STIM_005.jpg	99
1213.607	0.48	480.3	incongruent	Block2	incongruent/STIM_005.jpg	100
1217.672	0.97	970.4	incongruent	Block2	incongruent/STIM_006.jpg	100
1221.214	0.927	926.6	incongruent	Block2	incongruent/STIM_006.jpg	100
1224.411	0.85	850.4	incongruent	Block2	incongruent/STIM_006.jpg	99
1227.88	0.763	763.2	incongruent	Block2	incongruent/STIM_006.jpg	100
1232.357	0.747	746.6	incongruent	Block2	incongruent/STIM_006.jpg	99
1235.577	0.693	693.4	incongruent	Block2	incongruent/STIM_007.jpg	99
1239.584	0.811	810.7	incongruent	Block2	incongruent/STIM_007.jpg	100
1243.009	0.451	451.2	incongruent	Block2	incongruent/STIM_007.jpg	99
1247.425	0.423	422.8	incongruent	Block2	incongruent/STIM_007.jpg	100
1250.135	0.647	646.8	incongruent	Block2	incongruent/STIM_007.jpg	99
1253.427	0.536	536.3	incongruent	Block2	incongruent/STIM_008.jpg	99
1256.06	0.612	611.9	incongruent	Block2	incongruent/STIM_008.jpg	100
1259.578	0.7	699.9	incongruent	Block2	incongruent/STIM_008.jpg	100
1262.481	0.724	724.4	incongruent	Block2	incongruent/STIM_008.jpg	99
1266.368	0.441	441.1	incongruent	Block2	incongruent/STIM_008.jpg	100
1269.462	0.559	559.3	incongruent	Block2	incongruent/STIM_009.jpg	100
1273.881	0.957	957.1	incongruent	Block2	incongruent/STIM_009.jpg	100
1278.781	0.813	812.6	incongruent	Block2	incongruent/STIM_009.jpg	100
1281.84	0.503	503.2	incongruent	Block2	incongruent/STIM_009.jpg	100
1286.171	0.619	619.1	incongruent	Block2	incongruent/STIM_009.jpg	100
1290.026	0.595	595.4	incongruent	Block2	incongruent/STIM_010.jpg	100
1293.797	0.885	884.6	incongruent	Block2	incongruent/STIM_010.jpg	100
1298.376	0.626	626.2	incongruent	Block2	incongruent/STIM_010.jpg	99
1301.363	0.809	809.4	incongruent	Block2	incongruent/STIM_010.jpg	100
1305.328	0.431	430.6	incongruent	Block2	incongruent/STIM_010.jpg	100
1309.035	0.616	615.9	incongruent	Block2	incongruent/STIM_011.jpg	100
1313.203	0.985	984.8	incongruent	Block2	incongruent/STIM_011.jpg	100
1316.722	0.61	609.6	incongruent	Block2	incongruent/STIM_011.jpg	100
1320.186	0.641	641.0	incongruent	Block2	incongruent/STIM_011.jpg	100
1322.863	0.832	832.4	incongruent	Block2	incongruent/STIM_011.jpg	99
1327.125	1.045	1044.9	incongruent	Block2	incongruent/STIM_012.jpg	99
1332.044	0.854	853.8	incongruent	Block2	incongruent/STIM_012.jpg	99
1335.929	0.895	895.0	incongruent	Block2	incongruent/STIM_012.jpg	99
1340.364	0.499	498.8	incongruent	Block2	incongruent/STIM_012.jpg	100
1343.477	0.49	489.7	incongruent	Block2	incongruent/STIM_012.jpg	100
1347.037	1.046	1045.6	incongruent	Block2	incongruent/STIM_013.jpg	99
1351.191	0.551	550.8	incongruent	Block2	incongruent/STIM_013.jpg	99
1353.863	0.491	491.0	incongruent	Block2	incongruent/STIM_013.jpg	100
1357.939	0.703	703.4	incongruent	Block2	incongruent/STIM_013.jpg	99
1361.222	0.617	616.6	incongruent	Block2	incongruent/STIM_013.jpg	99
1364.413	0.864	864.1	incongruent	Block2	incongruent/STIM_014.jpg	99
1367.692	0.784	784.2	incongruent	Block2	incongruent/STIM_014.jpg	99
1370.809	0.817	817.3	incongruent	Block2	incongruent/STIM_014.jpg	100
1375.358	0.585	585.3	incongruent	Block2	incongruent/STIM_014.jpg	99
1379.711	0.865	864.9	incongruent	Block2	incongruent/STIM_014.jpg	100
1382.81	0.633	632.9	incongruent	Block2	incongruent/STIM_015.jpg	99
1387.219	0.901	901.1	incongruent	Block2	incongruent/STIM_015.jpg	100
1390.784	0.912	912.4	incongruent	Block2	incongruent/STIM_015.jpg	99
1395.159	0.492	491.9	incongruent	Block2	incongruent/STIM_015.jpg	100
1398.23	0.81	810.1	incongruent	Block2	incongruent/STIM_015.jpg	99
1401.129	0.991	991.4	incongruent	Block2	incongruent/STIM_016.jpg	100
1405.929	0.863	863.3	incongruent	Block2	incongruent/STIM_016.jpg	100
1409.477	0.869	868.9	incongruent	Block2	incongruent/STIM_016.jpg	99
1413.18	0.548	548.5	incongruent	Block2	incongruent/STIM_016.jpg	99
1416.495	0.659	658.7	incongruent	Block2	incongruent/STIM_016.jpg	100
1419.272	0.806	805.5	incongruent	Block2	incongruent/STIM_017.jpg	99
1423.669	0.845	845.0	incongruent	Block2	incongruent/STIM_017.jpg	100
1426.825	0.852	852.0	incongruent	Block2	incongruent/STIM_017.jpg	99
1430.867	0.501	501.1	incongruent	Block2	incongruent/STIM_017.jpg	100
1434.356	0.494	493.9	incongruent	Block2	incongruent/STIM_017.jpg	99
1436.908	0.743	743.3	incongruent	Block2	incongruent/STIM_018.jpg	100
1441.242	0.54	540.2	incongruent	Block2	incongruent/STIM_018.jpg	99
1444.541	0.76	759.9	incongruent	Block2	incongruent/STIM_018.jpg	100
1448.581	0.445	444.6	incongruent	Block2	incongruent/STIM_018.jpg	99
1451.401	0.762	762.3	incongruent	Block2	incongruent/STIM_018.jpg	99
1454.82	0.833	833.4	incongruent	Block2	incongruent/STIM_019.jpg	100
1458.645	0.787	787.2	incongruent	Block2	incongruent/STIM_019.jpg	100
1463.374	0.546	545.7	incongruent	Block2	incongruent/STIM_019.jpg	99
1466.247	0.58	580.0	incongruent	Block2	incongruent/STIM_019.jpg	99
1470.573	0.774	773.6	incongruent	Block2	incongruent/STIM_019.jpg	100
1475.318	1.028	1028.5	incongruent	Block2	incongruent/STIM_020.jpg	99
1479.143	0.679	679.3	incongruent	Block2	incongruent/STIM_020.jpg	100
1483.032	0.813	812.9	incongruent	Block2	incongruent/STIM_020.jpg	99
1487.667	0.814	813.7	incongruent	Block2	incongruent/STIM_020.jpg	99
1492.136	0.548	548.2	incongruent	Block2	incongruent/STIM_020.jpg	99
1495.915	0.889	888.7	incongruent	Block2	incongruent/STIM_021.jpg	100
1500.193	0.982	982.3	incongruent	Block2	incongruent/STIM_021.jpg	99
1504.5	0.79	790.0	incongruent	Block2	incongruent/STIM_021.jpg	100
1508.992	0.533	532.7	incongruent	Block2	incongruent/STIM_021.jpg	99
1513.342	0.452	452.5	incongruent	Block2	incongruent/STIM_021.jpg	100
1516.038	0.894	893.6	incongruent	Block2	incongruent/STIM_022.jpg	100
1520.089	0.573	573.4	incongruent	Block2	incongruent/STIM_022.jpg	99
1524.167	0.562	561.5	incongruent	Block2	incongruent/STIM_022.jpg	100
1528.24	0.634	633.6	incongruent	Block2	incongruent/STIM_022.jpg	99
1532.413	0.732	731.8	incongruent	Block2	incongruent/STIM_022.jpg	99
1536.025	0.815	815.1	incongruent	Block2	incongruent/STIM_023.jpg	100
1539.676	0.522	522.4	incongruent	Block2	incongruent/STIM_023.jpg	99
1542.321	0.849	849.2	incongruent	Block2	incongruent/STIM_023.jpg	100
1546.1	0.804	804.3	incongruent	Block2	incongruent/STIM_023.jpg	100
1549.01	0.655	655.2	incongruent	Block2	incongruent/STIM_023.jpg	99
1553.508	0.566	566.5	incongruent	Block2	incongruent/STIM_024.jpg	100
1557.859	0.507	506.6	incongruent	Block2	incongruent/STIM_024.jpg	100
1561.343	0.599	599.0	incongruent	Block2	incongruent/STIM_024.jpg	100
1564.199	0.749	749.0	incongruent	Block2	incongruent/STIM_024.jpg	100
1567.126	0.874	874.3	incongruent	Block2	incongruent/STIM_024.jpg	100
1570.452	1.047	1047.3	incongruent	Block2	incongruent/STIM_025.jpg	99
1574.985	0.674	673.5	incongruent	Block2	incongruent/STIM_025.jpg	100
1579.372	0.886	885.5	incongruent	Block2	incongruent/STIM_025.jpg	99
1582.311	0.476	476.4	incongruent	Block2	incongruent/STIM_025.jpg	99
1585.545	0.724	723.8	incongruent	Block2	incongruent/STIM_025.jpg	100
1588.331	0.91	910.0	incongruent	Block2	incongruent/STIM_026.jpg	100
1592.578	0.639	639.0	incongruent	Block2	incongruent/STIM_026.jpg	99
1596.387	0.664	663.8	incongruent	Block2	incongruent/STIM_026.jpg	100
1600.765	0.854	853.6	incongruent	Block2	incongruent/STIM_026.jpg	100
1603.706	0.589	589.3	incongruent	Block2	incongruent/STIM_026.jpg	99
1606.809	1.035	1034.9	incongruent	Block2	incongruent/STIM_027.jpg	99
1611.009	0.693	693.1	incongruent	Block2	incongruent/STIM_027.jpg	100
1613.709	0.776	775.7	incongruent	Block2	incongruent/STIM_027.jpg	100
1618.325	0.715	715.1	incongruent	Block2	incongruent/STIM_027.jpg	99
1621.198	0.584	583.9	incongruent	Block2	incongruent/STIM_027.jpg	100
1624.307	0.504	504.5	incongruent	Block2	incongruent/STIM_028.jpg	99
1627.147	0.846	846.2	incongruent	Block2	incongruent/STIM_028.jpg	99
1631.232	0.865	865.2	incongruent	Block2	incongruent/STIM_028.jpg	100
1634.104	0.543	543.0	incongruent	Block2	incongruent/STIM_028.jpg	99
1638.304	0.757	757.2	incongruent	Block2	incongruent/STIM_028.jpg	99
1642.962	0.834	834.5	incongruent	Block2	incongruent/STIM_029.jpg	100
1647.083	0.517	517.1	incongruent	Block2	incongruent/STIM_029.jpg	100
1650.443	0.697	696.8	incongruent	Block2	incongruent/STIM_029.jpg	100
1653.158	0.555	555.1	incongruent	Block2	incongruent/STIM_029.jpg	100
1656.773	0.477	476.9	incongruent	Block2	incongruent/STIM_029.jpg	99
1660.333	0.578	577.6	congruent	Block2	congruent/STIM_000.jpg	99
1663.465	0.598	598.1	congruent	Block2	congruent/STIM_000.jpg	99
1666.876	0.683	683.4	congruent	Block2	congruent/STIM_000.jpg	100
1669.721	0.61	609.7	congruent	Block2	congruent/STIM_000.jpg	100
1672.728	0.753	752.6	congruent	Block2	congruent/STIM_000.jpg	100
1676.869	0.582	581.9	congruent	Block2	congruent/STIM_001.jpg	99
1680.413	0.43	430.5	congruent	Block2	congruent/STIM_001.jpg	100
1683.67	0.665	664.6	congruent	Block2	congruent/STIM_001.jpg	99
1686.847	0.577	576.9	congruent	Block2	congruent/STIM_001.jpg	99
1690.794	0.702	701.7	congruent	Block2	congruent/STIM_001.jpg	100
1693.621	0.67	670.5	congruent	Block2	congruent/STIM_002.jpg	100
1697.371	0.556	556.1	congruent	Block2	congruent/STIM_002.jpg	100
1701.139	0.709	709.3	congruent	Block2	congruent/STIM_002.jpg	100
1704.239	0.696	696.0	congruent	Block2	congruent/STIM_002.jpg	99
1707.04	0.715	714.9	congruent	Block2	congruent/STIM_002.jpg	100
1709.984	0.588	588.3	congruent	Block2	congruent/STIM_003.jpg	100
1714.565	0.565	565.2	congruent	Block2	congruent/STIM_003.jpg	100
1719.018	0.426	426.2	congruent	Block2	congruent/STIM_003.jpg	99
1722.578	0.607	607.0	congruent	Block2	congruent/STIM_003.jpg	99
1725.432	0.595	595.4	congruent	Block2	congruent/STIM_003.jpg	99
1729.182	0.47	470.2	congruent	Block2	congruent/STIM_004.jpg	99
1732.549	0.569	569.3	congruent	Block2	congruent/STIM_004.jpg	100
1735.468	0.485	485.4	congruent	Block2	congruent/STIM_004.jpg	100
1738.21	0.698	698.2	congruent	Block2	congruent/STIM_004.jpg	100
1741.566	0.505	505.5	congruent	Block2	congruent/STIM_004.jpg	99
1745.286	0.698	697.6	congruent	Block2	congruent/STIM_005.jpg	100
1748.876	0.482	482.5	congruent	Block2	congruent/STIM_005.jpg	99
1753.012	0.542	541.9	congruent	Block2	congruent/STIM_005.jpg	99
1757.539	0.596	595.8	congruent	Block2	congruent/STIM_005.jpg	100
1761.368	0.66	659.7	congruent	Block2	congruent/STIM_005.jpg	99
1764.79	0.72	720.4	congruent	Block2	congruent/STIM_006.jpg	100
1769.241	0.564	564.1	congruent	Block2	congruent/STIM_006.jpg	100
1773.572	0.668	667.7	congruent	Block2	congruent/STIM_006.jpg	100
1777.729	0.753	752.8	congruent	Block2	congruent/STIM_006.jpg	99
1781.265	0.579	578.8	congruent	Block2	congruent/STIM_006.jpg	99
1784.976	0.622	621.8	congruent	Block2	congruent/STIM_007.jpg	100
1788.66	0.705	705.2	congruent	Block2	congruent/STIM_007.jpg	99
1792.446	0.536	536.4	congruent	Block2	congruent/STIM_007.jpg	99
1796.486	0.728	727.7	congruent	Block2	congruent/STIM_007.jpg	99
1800.614	0.45	450.4	congruent	Block2	congruent/STIM_007.jpg	100
1803.301	0.507	507.1	congruent	Block2	congruent/STIM_008.jpg	100
1806.034	0.638	638.1	congruent	Block2	congruent/STIM_008.jpg	99
1808.902	0.578	578.3	congruent	Block2	congruent/STIM_008.jpg	100
1812.593	0.513	513.4	congruent	Block2	congruent/STIM_008.jpg	100
1815.251	0.759	759.2	congruent	Block2	congruent/STIM_008.jpg	100
1819.437	0.596	596.1	congruent	Block2	congruent/STIM_009.jpg	99
1822.967	0.574	573.6	congruent	Block2	congruent/STIM_009.jpg	100
1826.833	0.739	739.3	congruent	Block2	congruent/STIM_009.jpg	100
1830.137	0.675	675.4	congruent	Block2	congruent/STIM_009.jpg	100
1833.141	0.545	545.4	congruent	Block2	congruent/STIM_009.jpg	99
1836.519	0.511	511.3	congruent	Block2	congruent/STIM_010.jpg	100
1840.033	0.631	631.2	congruent	Block2	congruent/STIM_010.jpg	99
1842.864	0.729	729.3	congruent	Block2	congruent/STIM_010.jpg	100
1846.61	0.504	504.3	congruent	Block2	congruent/STIM_010.jpg	100
1849.445	0.455	455.1	congruent	Block2	congruent/STIM_010.jpg	100
1852.206	0.709	709.3	congruent	Block2	congruent/STIM_011.jpg	100
1854.964	0.586	585.7	congruent	Block2	congruent/STIM_011.jpg	100
1859.488	0.608	608.1	congruent	Block2	congruent/STIM_011.jpg	100
1862.653	0.536	535.9	congruent	Block2	congruent/STIM_011.jpg	99
1865.729	0.664	663.5	congruent	Block2	congruent/STIM_011.jpg	100
1870.128	0.598	598.0	congruent	Block2	congruent/STIM_012.jpg	100
1874.111	0.76	759.5	congruent	Block2	congruent/STIM_012.jpg	100
1877.469	0.452	451.9	congruent	Block2	congruent/STIM_012.jpg	100
1880.266	0.699	699.0	congruent	Block2	congruent/STIM_012.jpg	100
1883.397	0.541	540.9	congruent	Block2	congruent/STIM_012.jpg	100
1887.039	0.737	736.7	congruent	Block2	congruent/STIM_013.jpg	100
1890.387	0.66	659.9	congruent	Block2	congruent/STIM_013.jpg	99
1893.879	0.518	518.5	congruent	Block2	congruent/STIM_013.jpg	100
1896.528	0.513	513.4	congruent	Block2	congruent/STIM_013.jpg	99
1899.187	0.612	612.2	congruent	Block2	congruent/STIM_013.jpg	100
1902.0	0.559	559.1	congruent	Block2	congruent/STIM_014.jpg	100
1904.708	0.448	448.0	congruent	Block2	congruent/STIM_014.jpg	100
1908.448	0.626	626.0	congruent	Block2	congruent/STIM_014.jpg	100
1912.393	0.687	686.6	congruent	Block2	congruent/STIM_014.jpg	99
1915.461	0.436	435.9	congruent	Block2	congruent/STIM_014.jpg	99
1919.635	0.426	426.5	congruent	Block2	congruent/STIM_015.jpg	100
1922.908	0.55	550.0	congruent	Block2	congruent/STIM_015.jpg	100
1927.253	0.449	449.3	congruent	Block2	congruent/STIM_015.jpg	99
1931.106	0.533	533.4	congruent	Block2	congruent/STIM_015.jpg	100
1933.677	0.427	426.8	congruent	Block2	congruent/STIM_015.jpg	100
1936.628	0.628	628.1	congruent	Block2	congruent/STIM_016.jpg	99
1941.094	0.475	475.0	congruent	Block2	congruent/STIM_016.jpg	99
1945.009	0.676	676.4	congruent	Block2	congruent/STIM_016.jpg	100
1949.441	0.527	527.3	congruent	Block2	congruent/STIM_016.jpg	100
1953.038	0.522	521.7	congruent	Block2	congruent/STIM_016.jpg	100
1956.359	0.578	578.2	congruent	Block2	congruent/STIM_017.jpg	100
1959.13	0.744	744.5	congruent	Block2	congruent/STIM_017.jpg	99
1962.063	0.455	454.6	congruent	Block2	congruent/STIM_017.jpg	100
1964.867	0.565	565.1	congruent	Block2	congruent/STIM_017.jpg	99
1967.88	0.433	433.2	congruent	Block2	congruent/STIM_017.jpg	100
1972.154	0.578	578.0	congruent	Block2	congruent/STIM_018.jpg	99
1976.21	0.636	636.1	congruent	Block2	congruent/STIM_018.jpg	100
1979.822	0.463	462.7	congruent	Block2	congruent/STIM_018.jpg	99
1983.167	0.582	582.0	congruent	Block2	congruent/STIM_018.jpg	100
1986.875	0.634	633.7	congruent	Block2	congruent/STIM_018.jpg	100
1990.263	0.523	522.7	congruent	Block2	congruent/STIM_019.jpg	100
1993.172	0.7	700.1	congruent	Block2	congruent/STIM_019.jpg	100
1997.07	0.514	513.6	congruent	Block2	congruent/STIM_019.jpg	100
2001.164	0.709	708.9	congruent	Block2	congruent/STIM_019.jpg	100
2004.161	0.65	649.8	congruent	Block2	congruent/STIM_019.jpg	100
2008.609	0.444	443.7	congruent	Block2	congruent/STIM_020.jpg	99
2013.04	0.666	665.6	congruent	Block2	congruent/STIM_020.jpg	99
2015.784	0.478	477.8	congruent	Block2	congruent/STIM_020.jpg	99
2018.667	0.439	439.4	congruent	Block2	congruent/STIM_020.jpg	100
2022.499	0.554	554.2	congruent	Block2	congruent/STIM_020.jpg	100
2026.229	0.635	635.1	congruent	Block2	congruent/STIM_021.jpg	100
2029.399	0.729	729.2	congruent	Block2	congruent/STIM_021.jpg	100
2033.93	0.55	550.2	congruent	Block2	congruent/STIM_021.jpg	100
2037.385	0.737	736.9	congruent	Block2	congruent/STIM_021.jpg	100
2041.228	0.577	576.8	congruent	Block2	congruent/STIM_021.jpg	99
2045.53	0.664	664.5	congruent	Block2	congruent/STIM_022.jpg	99
2049.204	0.527	527.1	congruent	Block2	congruent/STIM_022.jpg	99
2052.344	0.759	758.7	congruent	Block2	congruent/STIM_022.jpg	99
2055.606	0.45	449.9	congruent	Block2	congruent/STIM_022.jpg	100
2058.801	0.567	566.9	congruent	Block2	congruent/STIM_022.jpg	99
2063.214	0.705	705.0	congruent	Block2	congruent/STIM_023.jpg	100
2067.406	0.622	621.6	congruent	Block2	congruent/STIM_023.jpg	100
2070.681	0.575	575.3	congruent	Block2	congruent/STIM_023.jpg	99
2074.42	0.676	675.9	congruent	Block2	congruent/STIM_023.jpg	100
2077.369	0.571	571.4	congruent	Block2	congruent/STIM_023.jpg	100
2079.963	0.543	543.2	congruent	Block2	congruent/STIM_024.jpg	99
2083.319	0.663	662.9	congruent	Block2	congruent/STIM_024.jpg	99
2086.415	0.482	482.0	congruent	Block2	congruent/STIM_024.jpg	99
2090.492	0.559	558.9	congruent	Block2	congruent/STIM_024.jpg	99
2093.798	0.581	580.6	congruent	Block2	congruent/STIM_024.jpg	99
2098.246	0.699	698.7	congruent	Block2	congruent/STIM_025.jpg	100
2102.77	0.631	631.3	congruent	Block2	congruent/STIM_025.jpg	100
2105.782	0.486	486.1	congruent	Block2	congruent/STIM_025.jpg	100
2110.033	0.486	485.9	congruent	Block2	congruent/STIM_025.jpg	100
2113.784	0.553	552.6	congruent	Block2	congruent/STIM_025.jpg	99
2116.62	0.676	676.5	congruent	Block2	congruent/STIM_026.jpg	100
2120.464	0.533	533.3	congruent	Block2	congruent/STIM_026.jpg	100
2123.248	0.637	637.4	congruent	Block2	congruent/STIM_026.jpg	100
2126.117	0.664	663.6	congruent	Block2	congruent/STIM_026.jpg	99
2129.455	0.497	497.2	congruent	Block2	congruent/STIM_026.jpg	100
2133.785	0.567	567.3	congruent	Block2	congruent/STIM_027.jpg	100
2136.817	0.565	565.2	congruent	Block2	congruent/STIM_027.jpg	99
2140.173	0.692	692.4	congruent	Block2	congruent/STIM_027.jpg	99
2143.275	0.579	578.6	congruent	Block2	congruent/STIM_027.jpg	100
2147.798	0.581	580.7	congruent	Block2	congruent/STIM_027.jpg	100
2152.222	0.646	645.6	congruent	Block2	congruent/STIM_028.jpg	99
2155.937	0.693	692.8	congruent	Block2	congruent/STIM_028.jpg	99
2159.001	0.444	443.9	congruent	Block2	congruent/STIM_028.jpg	100
2161.784	0.617	617.4	congruent	Block2	congruent/STIM_028.jpg	99
2164.751	0.525	525.2	congruent	Block2	congruent/STIM_028.jpg	99
2167.577	0.488	488.4	congruent	Block2	congruent/STIM_029.jpg	100
2171.024	0.518	517.9	congruent	Block2	congruent/STIM_029.jpg	99
2174.724	0.58	579.6	congruent	Block2	congruent/STIM_029.jpg	100
2177.323	0.656	655.8	congruent	Block2	congruent/STIM_029.jpg	100
2180.353	0.566	565.7	congruent	Block2	congruent/STIM_029.jpg	100
2184.309	0.847	846.9	incongruent	Block3	incongruent/STIM_000.jpg	99
2188.775	0.867	867.4	incongruent	Block3	incongruent/STIM_000.jpg	100
2192.883	0.698	698.1	incongruent	Block3	incongruent/STIM_000.jpg	99
2196.778	0.802	801.8	incongruent	Block3	incongruent/STIM_000.jpg	100
2201.405	0.846	846.4	incongruent	Block3	incongruent/STIM_000.jpg	100
2204.805	0.562	561.9	incongruent	Block3	incongruent/STIM_001.jpg	99
2207.68	0.836	835.9	incongruent	Block3	incongruent/STIM_001.jpg	99
2212.233	0.422	421.5	incongruent	Block3	incongruent/STIM_001.jpg	100
2215.558	0.746	746.0	incongruent	Block3	incongruent/STIM_001.jpg	99
2218.787	0.618	617.5	incongruent	Block3	incongruent/STIM_001.jpg	100
2222.833	0.721	721.4	incongruent	Block3	incongruent/STIM_002.jpg	99
2225.916	0.506	505.9	incongruent	Block3	incongruent/STIM_002.jpg	99
2229.83	0.634	634.5	incongruent	Block3	incongruent/STIM_002.jpg	99
2232.922	0.552	552.0	incongruent	Block3	incongruent/STIM_002.jpg	100
2236.588	0.542	542.2	incongruent	Block3	incongruent/STIM_002.jpg	99
2240.657	0.819	819.2	incongruent	Block3	incongruent/STIM_003.jpg	100
2244.7	0.586	586.5	incongruent	Block3	incongruent/STIM_003.jpg	100
2247.57	0.832	831.6	incongruent	Block3	incongruent/STIM_003.jpg	100
2251.634	0.86	859.8	incongruent	Block3	incongruent/STIM_003.jpg	100
2255.638	0.445	445.2	incongruent	Block3	incongruent/STIM_003.jpg	99
2259.24	0.7	700.5	incongruent	Block3	incongruent/STIM_004.jpg	99
2263.826	0.639	639.4	incongruent	Block3	incongruent/STIM_004.jpg	99
2268.274	0.763	762.9	incongruent	Block3	incongruent/STIM_004.jpg	100
2272.859	0.524	523.8	incongruent	Block3	incongruent/STIM_004.jpg	100
2275.678	0.528	527.5	incongruent	Block3	incongruent/STIM_004.jpg	99
2279.362	0.691	690.9	incongruent	Block3	incongruent/STIM_005.jpg	100
2283.587	0.699	698.8	incongruent	Block3	incongruent/STIM_005.jpg	99
2286.965	0.702	702.4	incongruent	Block3	incongruent/STIM_005.jpg	99
2289.845	0.536	535.9	incongruent	Block3	incongruent/STIM_005.jpg	99
2292.626	0.678	677.5	incongruent	Block3	incongruent/STIM_005.jpg	99
2296.743	0.637	637.1	incongruent	Block3	incongruent/STIM_006.jpg	100
2299.546	0.432	432.4	incongruent	Block3	incongruent/STIM_006.jpg	99
2303.522	0.809	809.3	incongruent	Block3	incongruent/STIM_006.jpg	99
2307.815	0.496	496.5	incongruent	Block3	incongruent/STIM_006.jpg	99
2310.736	0.655	654.8	incongruent	Block3	incongruent/STIM_006.jpg	100
2314.108	0.877	877.3	incongruent	Block3	incongruent/STIM_007.jpg	100
2317.886	0.621	621.3	incongruent	Block3	incongruent/STIM_007.jpg	99
2322.494	0.631	630.9	incongruent	Block3	incongruent/STIM_007.jpg	99
2326.519	0.415	414.6	incongruent	Block3	incongruent/STIM_007.jpg	100
2329.395	0.852	852.0	incongruent	Block3	incongruent/STIM_007.jpg	99
2333.402	0.609	608.6	incongruent	Block3	incongruent/STIM_008.jpg	100
2336.366	0.462	462.2	incongruent	Block3	incongruent/STIM_008.jpg	99
2339.355	0.457	456.8	incongruent	Block3	incongruent/STIM_008.jpg	99
2343.65	0.446	446.4	incongruent	Block3	incongruent/STIM_008.jpg	99
2347.299	0.79	789.6	incongruent	Block3	incongruent/STIM_008.jpg	100
2350.886	0.429	428.7	incongruent	Block3	incongruent/STIM_009.jpg	100
2354.645	0.455	455.4	incongruent	Block3	incongruent/STIM_009.jpg	100
2357.565	0.718	717.9	incongruent	Block3	incongruent/STIM_009.jpg	99
2362.011	0.764	764.4	incongruent	Block3	incongruent/STIM_009.jpg	100
2365.542	0.689	689.3	incongruent	Block3	incongruent/STIM_009.jpg	100
2369.535	0.569	569.1	incongruent	Block3	incongruent/STIM_010.jpg	99
2372.168	0.721	720.8	incongruent	Block3	incongruent/STIM_010.jpg	99
2376.411	0.836	836.2	incongruent	Block3	incongruent/STIM_010.jpg	100
2380.942	0.704	704.5	incongruent	Block3	incongruent/STIM_010.jpg	99
2385.087	0.425	425.0	incongruent	Block3	incongruent/STIM_010.jpg	99
2388.43	0.847	847.3	incongruent	Block3	incongruent/STIM_011.jpg	100
2392.578	0.756	756.2	incongruent	Block3	incongruent/STIM_011.jpg	99
2395.886	0.858	857.9	incongruent	Block3	incongruent/STIM_011.jpg	100
2400.673	0.726	726.5	incongruent	Block3	incongruent/STIM_011.jpg	100
2404.443	0.847	846.7	incongruent	Block3	incongruent/STIM_011.jpg	100
2408.655	0.42	419.9	incongruent	Block3	incongruent/STIM_012.jpg	100
2412.029	0.644	643.5	incongruent	Block3	incongruent/STIM_012.jpg	99
2415.518	0.813	812.9	incongruent	Block3	incongruent/STIM_012.jpg	100
2420.098	0.615	615.2	incongruent	Block3	incongruent/STIM_012.jpg	100
2423.021	0.619	618.7	incongruent	Block3	incongruent/STIM_012.jpg	100
2427.202	0.561	561.2	incongruent	Block3	incongruent/STIM_013.jpg	100
2431.61	0.862	862.3	incongruent	Block3	incongruent/STIM_013.jpg	100
2435.844	0.663	663.0	incongruent	Block3	incongruent/STIM_013.jpg	100
2438.71	0.431	430.7	incongruent	Block3	incongruent/STIM_013.jpg	100
2441.212	0.463	463.4	incongruent	Block3	incongruent/STIM_013.jpg	99
2444.689	0.74	739.9	incongruent	Block3	incongruent/STIM_014.jpg	99
2448.025	0.669	668.6	incongruent	Block3	incongruent/STIM_014.jpg	99
2451.132	0.772	772.1	incongruent	Block3	incongruent/STIM_014.jpg	100
2455.404	0.435	435.3	incongruent	Block3	incongruent/STIM_014.jpg	100
2459.524	0.639	639.1	incongruent	Block3	incongruent/STIM_014.jpg	99
2462.318	0.797	797.1	incongruent	Block3	incongruent/STIM_015.jpg	100
2466.274	0.613	612.8	incongruent	Block3	incongruent/STIM_015.jpg	99
2469.346	0.863	863.1	incongruent	Block3	incongruent/STIM_015.jpg	100
2473.09	0.557	556.6	incongruent	Block3	incongruent/STIM_015.jpg	100
2476.991	0.538	538.0	incongruent	Block3	incongruent/STIM_015.jpg	100
2479.922	0.778	778.5	incongruent	Block3	incongruent/STIM_016.jpg	100
2483.091	0.879	879.4	incongruent	Block3	incongruent/STIM_016.jpg	100
2487.75	0.746	746.5	incongruent	Block3	incongruent/STIM_016.jpg	99
2491.127	0.503	503.5	incongruent	Block3	incongruent/STIM_016.jpg	99
2494.672	0.832	831.9	incongruent	Block3	incongruent/STIM_016.jpg	100
2498.902	0.755	754.7	incongruent	Block3	incongruent/STIM_017.jpg	100
2503.31	0.432	432.0	incongruent	Block3	incongruent/STIM_017.jpg	100
2507.312	0.437	437.2	incongruent	Block3	incongruent/STIM_017.jpg	99
2510.892	0.729	728.7	incongruent	Block3	incongruent/STIM_017.jpg	99
2513.977	0.749	748.9	incongruent	Block3	incongruent/STIM_017.jpg	99
2518.372	0.647	646.9	incongruent	Block3	incongruent/STIM_018.jpg	99
2521.939	0.86	860.1	incongruent	Block3	incongruent/STIM_018.jpg	99
2526.252	0.596	596.2	incongruent	Block3	incongruent/STIM_018.jpg	100
2529.16	0.818	818.1	incongruent	Block3	incongruent/STIM_018.jpg	100
2532.362	0.774	773.6	incongruent	Block3	incongruent/STIM_018.jpg	100
2535.354	0.739	738.8	incongruent	Block3	incongruent/STIM_019.jpg	99
2538.624	0.85	850.5	incongruent	Block3	incongruent/STIM_019.jpg	100
2541.904	0.771	771.1	incongruent	Block3	incongruent/STIM_019.jpg	100
2545.694	0.457	457.0	incongruent	Block3	incongruent/STIM_019.jpg	99
2548.964	0.454	453.8	incongruent	Block3	incongruent/STIM_019.jpg	99
2552.431	0.428	428.4	incongruent	Block3	incongruent/STIM_020.jpg	100
2555.353	0.609	608.8	incongruent	Block3	incongruent/STIM_020.jpg	100
2559.373	0.594	594.3	incongruent	Block3	incongruent/STIM_020.jpg	99
2563.525	0.747	747.2	incongruent	Block3	incongruent/STIM_020.jpg	100
2566.792	0.619	619.2	incongruent	Block3	incongruent/STIM_020.jpg	99
2570.192	0.497	497.4	incongruent	Block3	incongruent/STIM_021.jpg	99
2573.527	0.524	523.6	incongruent	Block3	incongruent/STIM_021.jpg	100
2577.925	0.686	685.8	incongruent	Block3	incongruent/STIM_021.jpg	99
2582.492	0.8	799.5	incongruent	Block3	incongruent/STIM_021.jpg	99
2587.258	0.807	806.6	incongruent	Block3	incongruent/STIM_021.jpg	100
2590.912	0.495	495.1	incongruent	Block3	incongruent/STIM_022.jpg	100
2593.666	0.483	482.9	incongruent	Block3	incongruent/STIM_022.jpg	100
2596.52	0.495	494.6	incongruent	Block3	incongruent/STIM_022.jpg	100
2599.566	0.845	844.8	incongruent	Block3	incongruent/STIM_022.jpg	99
2603.92	0.696	695.7	incongruent	Block3	incongruent/STIM_022.jpg	100
2606.808	0.842	842.0	incongruent	Block3	incongruent/STIM_023.jpg	100
2611.218	0.453	453.2	incongruent	Block3	incongruent/STIM_023.jpg	99
2614.154	0.643	642.8	incongruent	Block3	incongruent/STIM_023.jpg	99
2617.694	0.587	586.8	incongruent	Block3	incongruent/STIM_023.jpg	100
2620.417	0.711	711.0	incongruent	Block3	incongruent/STIM_023.jpg	99
2623.829	0.601	600.9	incongruent	Block3	incongruent/STIM_024.jpg	100
2627.688	0.751	750.9	incongruent	Block3	incongruent/STIM_024.jpg	99
2631.393	0.715	715.4	incongruent	Block3	incongruent/STIM_024.jpg	99
2635.962	0.536	536.2	incongruent	Block3	incongruent/STIM_024.jpg	99
2640.238	0.739	738.9	incongruent	Block3	incongruent/STIM_024.jpg	100
2644.036	0.732	731.5	incongruent	Block3	incongruent/STIM_025.jpg	100
2648.523	0.465	464.8	incongruent	Block3	incongruent/STIM_025.jpg	99
2652.641	0.571	571.3	incongruent	Block3	incongruent/STIM_025.jpg	100
2656.65	0.668	667.6	incongruent	Block3	incongruent/STIM_025.jpg	99
2659.819	0.528	528.1	incongruent	Block3	incongruent/STIM_025.jpg	99
2663.638	0.873	872.6	incongruent	Block3	incongruent/STIM_026.jpg	100
2667.688	0.65	650.3	incongruent	Block3	incongruent/STIM_026.jpg	99
2670.425	0.761	760.7	incongruent	Block3	incongruent/STIM_026.jpg	99
2674.614	0.833	832.9	incongruent	Block3	incongruent/STIM_026.jpg	99
2678.32	0.636	635.8	incongruent	Block3	incongruent/STIM_026.jpg	100
2681.867	0.529	528.6	incongruent	Block3	incongruent/STIM_027.jpg	100
2686.298	0.476	475.5	incongruent	Block3	incongruent/STIM_027.jpg	100
2689.349	0.598	597.8	incongruent	Block3	incongruent/STIM_027.jpg	100
2692.811	0.532	531.8	incongruent	Block3	incongruent/STIM_027.jpg	99
2695.84	0.432	431.8	incongruent	Block3	incongruent/STIM_027.jpg	99
2700.24	0.834	833.8	incongruent	Block3	incongruent/STIM_028.jpg	99
2704.183	0.525	524.9	incongruent	Block3	incongruent/STIM_028.jpg	100
2707.858	0.863	863.3	incongruent	Block3	incongruent/STIM_028.jpg	100
2712.609	0.777	777.3	incongruent	Block3	incongruent/STIM_028.jpg	100
2716.513	0.876	875.6	incongruent	Block3	incongruent/STIM_028.jpg	100
2719.696	0.558	557.6	incongruent	Block3	incongruent/STIM_029.jpg	100
2722.775	0.883	883.1	incongruent	Block3	incongruent/STIM_029.jpg	99
2726.494	0.476	475.9	incongruent	Block3	incongruent/STIM_029.jpg	99
2730.672	0.656	655.5	incongruent	Block3	incongruent/STIM_029.jpg	99
2735.278	0.835	834.8	incongruent	Block3	incongruent/STIM_029.jpg	100
2738.617	0.666	666.0	congruent	Block3	congruent/STIM_000.jpg	100
2741.992	0.745	744.6	congruent	Block3	congruent/STIM_000.jpg	100
2745.549	0.529	528.7	congruent	Block3	congruent/STIM_000.jpg	100
2749.092	0.482	481.9	congruent	Block3	congruent/STIM_000.jpg	99
2753.474	0.699	699.1	congruent	Block3	congruent/STIM_000.jpg	99
2756.488	0.61	610.2	congruent	Block3	congruent/STIM_001.jpg	99
2760.394	0.747	746.6	congruent	Block3	congruent/STIM_001.jpg	99
2763.823	0.736	735.5	congruent	Block3	congruent/STIM_001.jpg	99
2767.563	0.511	510.8	congruent	Block3	congruent/STIM_001.jpg	100
2771.578	0.426	425.9	congruent	Block3	congruent/STIM_001.jpg	100
2774.734	0.692	691.8	congruent	Block3	congruent/STIM_002.jpg	100
2779.172	0.61	610.5	congruent	Block3	congruent/STIM_002.jpg	99
2782.663	0.556	555.5	congruent	Block3	congruent/STIM_002.jpg	100
2785.632	0.654	654.0	congruent	Block3	congruent/STIM_002.jpg	99
2789.284	0.758	758.1	congruent	Block3	congruent/STIM_002.jpg	100
2793.803	0.502	502.4	congruent	Block3	congruent/STIM_003.jpg	100
2796.821	0.504	503.7	congruent	Block3	congruent/STIM_003.jpg	100
2800.083	0.54	539.7	congruent	Block3	congruent/STIM_003.jpg	100
2803.464	0.499	499.1	congruent	Block3	congruent/STIM_003.jpg	100
2807.229	0.613	613.0	congruent	Block3	congruent/STIM_003.jpg	100
2810.865	0.648	648.5	congruent	Block3	congruent/STIM_004.jpg	100
2815.218	0.611	611.1	congruent	Block3	congruent/STIM_004.jpg	99
2818.308	0.617	616.9	congruent	Block3	congruent/STIM_004.jpg	100
2822.564	0.487	487.4	congruent	Block3	congruent/STIM_004.jpg	100
2826.157	0.65	650.5	congruent	Block3	congruent/STIM_004.jpg	100
2830.271	0.674	674.1	congruent	Block3	congruent/STIM_005.jpg	100
2833.174	0.485	484.7	congruent	Block3	congruent/STIM_005.jpg	100
2835.825	0.662	661.7	congruent	Block3	congruent/STIM_005.jpg	100
2839.389	0.551	550.9	congruent	Block3	congruent/STIM_005.jpg	99
2842.712	0.622	622.5	congruent	Block3	congruent/STIM_005.jpg	99
2847.227	0.713	713.3	congruent	Block3	congruent/STIM_006.jpg	99
2850.624	0.652	652.5	congruent	Block3	congruent/STIM_006.jpg	99
2853.771	0.579	578.6	congruent	Block3	congruent/STIM_006.jpg	100
2857.495	0.636	636.3	congruent	Block3	congruent/STIM_006.jpg	100
2860.393	0.511	511.5	congruent	Block3	congruent/STIM_006.jpg	100
2864.119	0.584	584.2	congruent	Block3	congruent/STIM_007.jpg	100
2867.748	0.499	499.3	congruent	Block3	congruent/STIM_007.jpg	100
2870.563	0.527	526.9	congruent	Block3	congruent/STIM_007.jpg	100
2874.744	0.53	529.6	congruent	Block3	congruent/STIM_007.jpg	100
2878.294	0.653	653.3	congruent	Block3	congruent/STIM_007.jpg	99
2881.033	0.729	728.8	congruent	Block3	congruent/STIM_008.jpg	99
2885.081	0.626	626.1	congruent	Block3	congruent/STIM_008.jpg	100
2887.922	0.536	535.7	congruent	Block3	congruent/STIM_008.jpg	99
2891.868	0.76	760.4	congruent	Block3	congruent/STIM_008.jpg	100
2895.063	0.573	573.4	congruent	Block3	congruent/STIM_008.jpg	100
2898.604	0.693	693.4	congruent	Block3	congruent/STIM_009.jpg	100
2901.352	0.492	492.2	congruent	Block3	congruent/STIM_009.jpg	99
2904.992	0.438	438.1	congruent	Block3	congruent/STIM_009.jpg	100
2908.62	0.535	534.9	congruent	Block3	congruent/STIM_009.jpg	99
2912.603	0.436	436.2	congruent	Block3	congruent/STIM_009.jpg	100
2915.674	0.737	736.6	congruent	Block3	congruent/STIM_010.jpg	99
2918.625	0.582	582.3	congruent	Block3	congruent/STIM_010.jpg	100
2922.928	0.627	626.9	congruent	Block3	congruent/STIM_010.jpg	100
2926.246	0.658	658.3	congruent	Block3	congruent/STIM_010.jpg	99
2929.752	0.446	446.4	congruent	Block3	congruent/STIM_010.jpg	99
2933.005	0.498	498.2	congruent	Block3	congruent/STIM_011.jpg	100
2936.281	0.471	471.0	congruent	Block3	congruent/STIM_011.jpg	99
2940.599	0.643	642.8	congruent	Block3	congruent/STIM_011.jpg	99
2943.339	0.51	509.8	congruent	Block3	congruent/STIM_011.jpg	99
2946.928	0.67	670.2	congruent	Block3	congruent/STIM_011.jpg	100
2950.877	0.527	527.1	congruent	Block3	congruent/STIM_012.jpg	100
2955.043	0.439	438.9	congruent	Block3	congruent/STIM_012.jpg	100
2957.678	0.724	724.3	congruent	Block3	congruent/STIM_012.jpg	100
2960.806	0.676	676.5	congruent	Block3	congruent/STIM_012.jpg	100
2963.567	0.59	590.3	congruent	Block3	congruent/STIM_012.jpg	99
2966.724	0.737	736.6	congruent	Block3	congruent/STIM_013.jpg	99
2970.69	0.6	600.0	congruent	Block3	congruent/STIM_013.jpg	100
2975.001	0.629	628.8	congruent	Block3	congruent/STIM_013.jpg	100
2978.253	0.504	504.5	congruent	Block3	congruent/STIM_013.jpg	99
2982.184	0.695	694.7	congruent	Block3	congruent/STIM_013.jpg	99
2986.182	0.497	497.0	congruent	Block3	congruent/STIM_014.jpg	99
2989.103	0.736	736.2	congruent	Block3	congruent/STIM_014.jpg	99
2993.263	0.469	468.6	congruent	Block3	congruent/STIM_014.jpg	99
2996.87	0.438	437.8	congruent	Block3	congruent/STIM_014.jpg	100
2999.848	0.616	616.5	congruent	Block3	congruent/STIM_014.jpg	99
3004.212	0.436	435.5	congruent	Block3	congruent/STIM_015.jpg	100
3007.831	0.586	585.6	congruent	Block3	congruent/STIM_015.jpg	100
3011.379	0.509	509.3	congruent	Block3	congruent/STIM_015.jpg	99
3014.183	0.628	628.0	congruent	Block3	congruent/STIM_015.jpg	99
3017.709	0.595	594.9	congruent	Block3	congruent/STIM_015.jpg	99
3020.533	0.564	564.4	congruent	Block3	congruent/STIM_016.jpg	100
3024.89	0.576	576.0	congruent	Block3	congruent/STIM_016.jpg	99
3028.115	0.542	541.8	congruent	Block3	congruent/STIM_016.jpg	100
3031.045	0.728	728.4	congruent	Block3	congruent/STIM_016.jpg	100
3035.508	0.428	428.1	congruent	Block3	congruent/STIM_016.jpg	99
3039.679	0.692	691.6	congruent	Block3	congruent/STIM_017.jpg	99
3042.565	0.647	647.1	congruent	Block3	congruent/STIM_017.jpg	99
3046.245	0.759	759.3	congruent	Block3	congruent/STIM_017.jpg	99
3050.965	0.455	454.6	congruent	Block3	congruent/STIM_017.jpg	100
3053.64	0.444	443.9	congruent	Block3	congruent/STIM_017.jpg	99
3056.362	0.615	615.2	congruent	Block3	congruent/STIM_018.jpg	99
3060.834	0.54	540.1	congruent	Block3	congruent/STIM_018.jpg	100
3063.586	0.587	586.6	congruent	Block3	congruent/STIM_018.jpg	99
3067.984	0.449	448.9	congruent	Block3	congruent/STIM_018.jpg	100
3072.294	0.423	423.4	congruent	Block3	congruent/STIM_018.jpg	100
3075.615	0.668	667.8	congruent	Block3	congruent/STIM_019.jpg	100
3078.699	0.462	461.5	congruent	Block3	congruent/STIM_019.jpg	99
3082.44	0.479	479.3	congruent	Block3	congruent/STIM_019.jpg	99
3085.896	0.503	503.2	congruent	Block3	congruent/STIM_019.jpg	100
3088.994	0.576	576.5	congruent	Block3	congruent/STIM_019.jpg	100
3091.719	0.651	651.3	congruent	Block3	congruent/STIM_020.jpg	100
3095.441	0.693	692.7	congruent	Block3	congruent/STIM_020.jpg	99
3099.236	0.727	727.1	congruent	Block3	congruent/STIM_020.jpg	100
3103.625	0.662	661.5	congruent	Block3	congruent/STIM_020.jpg	100
3107.551	0.552	552.0	congruent	Block3	congruent/STIM_020.jpg	100
3110.683	0.425	425.4	congruent	Block3	congruent/STIM_021.jpg	99
3114.938	0.637	636.6	congruent	Block3	congruent/STIM_021.jpg	99
3118.605	0.528	528.4	congruent	Block3	congruent/STIM_021.jpg	100
3121.504	0.736	735.9	congruent	Block3	congruent/STIM_021.jpg	100
3125.708	0.55	549.6	congruent	Block3	congruent/STIM_021.jpg	100
3128.261	0.583	583.1	congruent	Block3	congruent/STIM_022.jpg	100
3132.567	0.503	503.2	congruent	Block3	congruent/STIM_022.jpg	100
3136.568	0.693	693.3	congruent	Block3	congruent/STIM_022.jpg	99
3140.694	0.632	632.4	congruent	Block3	congruent/STIM_022.jpg	100
3144.66	0.67	670.2	congruent	Block3	congruent/STIM_022.jpg	100
3147.378	0.439	438.6	congruent	Block3	congruent/STIM_023.jpg	99
3150.115	0.683	682.9	congruent	Block3	congruent/STIM_023.jpg	99
3152.876	0.58	580.1	congruent	Block3	congruent/STIM_023.jpg	100
3157.058	0.512	512.4	congruent	Block3	congruent/STIM_023.jpg	100
3161.307	0.758	758.2	congruent	Block3	congruent/STIM_023.jpg	100
3165.946	0.693	692.7	congruent	Block3	congruent/STIM_024.jpg	100
3169.308	0.512	512.5	congruent	Block3	congruent/STIM_024.jpg	99
3171.929	0.733	733.3	congruent	Block3	congruent/STIM_024.jpg	100
3175.28	0.628	628.4	congruent	Block3	congruent/STIM_024.jpg	100
3178.874	0.675	675.3	congruent	Block3	congruent/STIM_024.jpg	99
3181.781	0.462	462.1	congruent	Block3	congruent/STIM_025.jpg	99
3185.428	0.52	519.5	congruent	Block3	congruent/STIM_025.jpg	99
3189.024	0.44	439.8	congruent	Block3	congruent/STIM_025.jpg	99
3192.86	0.666	666.0	congruent	Block3	congruent/STIM_025.jpg	99
3195.81	0.465	464.6	congruent	Block3	congruent/STIM_025.jpg	100
3199.6	0.71	710.5	congruent	Block3	congruent/STIM_026.jpg	99
3203.638	0.746	745.8	congruent	Block3	congruent/STIM_026.jpg	99
3207.705	0.528	528.2	congruent	Block3	congruent/STIM_026.jpg	99
3212.141	0.56	559.9	congruent	Block3	congruent/STIM_026.jpg	100
3216.609	0.434	433.7	congruent	Block3	congruent/STIM_026.jpg	99
3220.113	0.552	551.9	congruent	Block3	congruent/STIM_027.jpg	100
3224.088	0.517	516.7	congruent	Block3	congruent/STIM_027.jpg	99
3227.991	0.511	510.6	congruent	Block3	congruent/STIM_027.jpg	99
3231.389	0.531	531.2	congruent	Block3	congruent/STIM_027.jpg	100
3235.495	0.48	479.7	congruent	Block3	congruent/STIM_027.jpg	99
3238.215	0.617	617.3	congruent	Block3	congruent/STIM_028.jpg	100
3242.324	0.744	744.2	congruent	Block3	congruent/STIM_028.jpg	99
3245.675	0.685	684.7	congruent	Block3	congruent/STIM_028.jpg	100
3248.377	0.722	722.1	congruent	Block3	congruent/STIM_028.jpg	100
3251.594	0.554	553.7	congruent	Block3	congruent/STIM_028.jpg	99
3255.879	0.579	578.8	congruent	Block3	congruent/STIM_029.jpg	99
3258.75	0.706	705.7	congruent	Block3	congruent/STIM_029.jpg	99
3262.863	0.653	652.7	congruent	Block3	congruent/STIM_029.jpg	99
3265.754	0.624	623.6	congruent	Block3	congruent/STIM_029.jpg	99
3269.8	0.702	702.5	congruent	Block3	congruent/STIM_029.jpg	99
