onset	duration	accuracy_binary	trial_type	learning_stage	stimulus
0.0	0.657	1	incongruent	Block1	incongruent/STIM_000.jpg
4.203	0.835	1	incongruent	Block1	incongruent/STIM_000.jpg
7.696	1.092	1	incongruent	Block1	incongruent/STIM_000.jpg
11.354	0.543	1	incongruent	Block1	incongruent/STIM_000.jpg
15.843	0.969	1	incongruent	Block1	incongruent/STIM_000.jpg
18.908	1.07	1	incongruent	Block1	incongruent/STIM_001.jpg
23.918	0.703	1	incongruent	Block1	incongruent/STIM_001.jpg
27.509	0.943	1	incongruent	Block1	incongruent/STIM_001.jpg
32.353	0.844	1	incongruent	Block1	incongruent/STIM_001.jpg
35.439	0.912	1	incongruent	Block1	incongruent/STIM_001.jpg
39.408	0.677	1	incongruent	Block1	incongruent/STIM_002.jpg
42.139	0.877	1	incongruent	Block1	incongruent/STIM_002.jpg
45.742	0.859	1	incongruent	Block1	incongruent/STIM_002.jpg
49.755	0.978	1	incongruent	Block1	incongruent/STIM_002.jpg
54.689	0.562	1	incongruent	Block1	incongruent/STIM_002.jpg
58.186	0.855	1	incongruent	Block1	incongruent/STIM_003.jpg
61.042	0.868	1	incongruent	Block1	incongruent/STIM_003.jpg
65.82	0.699	1	incongruent	Block1	incongruent/STIM_003.jpg
69.185	0.573	1	incongruent	Block1	incongruent/STIM_003.jpg
73.368	0.745	1	incongruent	Block1	incongruent/STIM_003.jpg
77.854	1.034	0	incongruent	Block1	incongruent/STIM_004.jpg
81.731	0.62	1	incongruent	Block1	incongruent/STIM_004.jpg
84.808	0.579	1	incongruent	Block1	incongruent/STIM_004.jpg
88.826	1.074	1	incongruent	Block1	incongruent/STIM_004.jpg
92.658	0.48	1	incongruent	Block1	incongruent/STIM_004.jpg
96.112	0.715	1	incongruent	Block1	incongruent/STIM_005.jpg
100.026	1.186	1	incongruent	Block1	incongruent/STIM_005.jpg
105.19	0.861	1	incongruent	Block1	incongruent/STIM_005.jpg
108.528	0.747	1	incongruent	Block1	incongruent/STIM_005.jpg
113.002	0.719	1	incongruent	Block1	incongruent/STIM_005.jpg
116.235	0.816	1	incongruent	Block1	incongruent/STIM_006.jpg
119.955	0.904	1	incongruent	Block1	incongruent/STIM_006.jpg
123.929	1.047	1	incongruent	Block1	incongruent/STIM_006.jpg
127.463	0.519	1	incongruent	Block1	incongruent/STIM_006.jpg
131.477	0.484	1	incongruent	Block1	incongruent/STIM_006.jpg
135.596	1.12	1	incongruent	Block1	incongruent/STIM_007.jpg
138.914	0.688	1	incongruent	Block1	incongruent/STIM_007.jpg
142.076	0.936	1	incongruent	Block1	incongruent/STIM_007.jpg
146.764	1.014	1	incongruent	Block1	incongruent/STIM_007.jpg
150.677	0.551	1	incongruent	Block1	incongruent/STIM_007.jpg
154.749	1.098	1	incongruent	Block1	incongruent/STIM_008.jpg
158.065	0.741	1	incongruent	Block1	incongruent/STIM_008.jpg
162.247	1.038	0	incongruent	Block1	incongruent/STIM_008.jpg
166.18	0.64	1	incongruent	Block1	incongruent/STIM_008.jpg
169.613	0.97	1	incongruent	Block1	incongruent/STIM_008.jpg
174.242	0.716	1	incongruent	Block1	incongruent/STIM_009.jpg
177.644	1.019	0	incongruent	Block1	incongruent/STIM_009.jpg
180.718	0.832	1	incongruent	Block1	incongruent/STIM_009.jpg
183.785	1.061	1	incongruent	Block1	incongruent/STIM_009.jpg
187.777	0.731	1	incongruent	Block1	incongruent/STIM_009.jpg
190.994	0.996	1	incongruent	Block1	incongruent/STIM_010.jpg
194.167	1.005	1	incongruent	Block1	incongruent/STIM_010.jpg
198.303	0.778	1	incongruent	Block1	incongruent/STIM_010.jpg
202.908	1.014	1	incongruent	Block1	incongruent/STIM_010.jpg
206.042	0.693	1	incongruent	Block1	incongruent/STIM_010.jpg
209.904	1.071	1	incongruent	Block1	incongruent/STIM_011.jpg
213.802	1.184	1	incongruent	Block1	incongruent/STIM_011.jpg
217.392	1.105	1	incongruent	Block1	incongruent/STIM_011.jpg
221.91	0.82	1	incongruent	Block1	incongruent/STIM_011.jpg
225.57	0.54	1	incongruent	Block1	incongruent/STIM_011.jpg
228.372	0.832	1	incongruent	Block1	incongruent/STIM_012.jpg
231.89	0.95	1	incongruent	Block1	incongruent/STIM_012.jpg
235.852	0.632	1	incongruent	Block1	incongruent/STIM_012.jpg
239.841	0.551	1	incongruent	Block1	incongruent/STIM_012.jpg
242.419	0.568	1	incongruent	Block1	incongruent/STIM_012.jpg
245.334	1.174	0	incongruent	Block1	incongruent/STIM_013.jpg
249.515	1.143	1	incongruent	Block1	incongruent/STIM_013.jpg
254.264	0.985	1	incongruent	Block1	incongruent/STIM_013.jpg
259.175	1.063	1	incongruent	Block1	incongruent/STIM_013.jpg
262.464	0.627	1	incongruent	Block1	incongruent/STIM_013.jpg
265.816	1.06	1	incongruent	Block1	incongruent/STIM_014.jpg
270.518	0.895	1	incongruent	Block1	incongruent/STIM_014.jpg
273.64	0.758	1	incongruent	Block1	incongruent/STIM_014.jpg
277.16	0.881	1	incongruent	Block1	incongruent/STIM_014.jpg
280.442	0.591	1	incongruent	Block1	incongruent/STIM_014.jpg
283.808	0.993	1	incongruent	Block1	incongruent/STIM_015.jpg
288.363	0.782	1	incongruent	Block1	incongruent/STIM_015.jpg
291.427	0.984	1	incongruent	Block1	incongruent/STIM_015.jpg
295.875	0.597	1	incongruent	Block1	incongruent/STIM_015.jpg
298.805	0.648	1	incongruent	Block1	incongruent/STIM_015.jpg
301.962	1.077	1	incongruent	Block1	incongruent/STIM_016.jpg
306.764	0.974	1	incongruent	Block1	incongruent/STIM_016.jpg
311.719	0.557	1	incongruent	Block1	incongruent/STIM_016.jpg
314.742	0.542	1	incongruent	Block1	incongruent/STIM_016.jpg
317.582	0.627	1	incongruent	Block1	incongruent/STIM_016.jpg
321.179	1.214	1	incongruent	Block1	incongruent/STIM_017.jpg
324.71	1.132	1	incongruent	Block1	incongruent/STIM_017.jpg
328.551	0.628	1	incongruent	Block1	incongruent/STIM_017.jpg
331.316	0.73	1	incongruent	Block1	incongruent/STIM_017.jpg
334.826	0.577	1	incongruent	Block1	incongruent/STIM_017.jpg
337.857	0.657	1	incongruent	Block1	incongruent/STIM_018.jpg
340.726	0.966	1	incongruent	Block1	incongruent/STIM_018.jpg
345.016	0.646	1	incongruent	Block1	incongruent/STIM_018.jpg
349.025	0.574	1	incongruent	Block1	incongruent/STIM_018.jpg
351.927	0.918	1	incongruent	Block1	incongruent/STIM_018.jpg
356.841	0.799	1	incongruent	Block1	incongruent/STIM_019.jpg
360.377	1.188	1	incongruent	Block1	incongruent/STIM_019.jpg
364.735	0.89	1	incongruent	Block1	incongruent/STIM_019.jpg
369.551	0.578	1	incongruent	Block1	incongruent/STIM_019.jpg
372.907	0.639	1	incongruent	Block1	incongruent/STIM_019.jpg
376.184	0.935	1	incongruent	Block1	incongruent/STIM_020.jpg
380.215	0.69	1	incongruent	Block1	incongruent/STIM_020.jpg
384.389	0.661	1	incongruent	Block1	incongruent/STIM_020.jpg
388.846	0.73	1	incongruent	Block1	incongruent/STIM_020.jpg
393.392	0.659	1	incongruent	Block1	incongruent/STIM_020.jpg
397.939	0.948	1	incongruent	Block1	incongruent/STIM_021.jpg
401.092	1.06	1	incongruent	Block1	incongruent/STIM_021.jpg
404.285	1.005	1	incongruent	Block1	incongruent/STIM_021.jpg
408.8	0.583	1	incongruent	Block1	incongruent/STIM_021.jpg
411.541	0.613	1	incongruent	Block1	incongruent/STIM_021.jpg
415.272	0.99	1	incongruent	Block1	incongruent/STIM_022.jpg
418.51	1.154	1	incongruent	Block1	incongruent/STIM_022.jpg
422.937	0.903	1	incongruent	Block1	incongruent/STIM_022.jpg
426.812	0.602	1	incongruent	Block1	incongruent/STIM_022.jpg
430.326	0.599	1	incongruent	Block1	incongruent/STIM_022.jpg
434.171	1.239	1	incongruent	Block1	incongruent/STIM_023.jpg
437.42	0.962	1	incongruent	Block1	incongruent/STIM_023.jpg
440.405	0.812	1	incongruent	Block1	incongruent/STIM_023.jpg
443.726	0.639	1	incongruent	Block1	incongruent/STIM_023.jpg
448.186	0.603	1	incongruent	Block1	incongruent/STIM_023.jpg
452.625	1.005	1	incongruent	Block1	incongruent/STIM_024.jpg
457.297	1.122	1	incongruent	Block1	incongruent/STIM_024.jpg
460.649	0.604	1	incongruent	Block1	incongruent/STIM_024.jpg
463.413	0.552	1	incongruent	Block1	incongruent/STIM_024.jpg
467.584	0.756	1	incongruent	Block1	incongruent/STIM_024.jpg
471.395	0.798	1	incongruent	Block1	incongruent/STIM_025.jpg
475.551	0.965	1	incongruent	Block1	incongruent/STIM_025.jpg
478.913	0.705	1	incongruent	Block1	incongruent/STIM_025.jpg
481.954	1.01	1	incongruent	Block1	incongruent/STIM_025.jpg
485.358	0.567	1	incongruent	Block1	incongruent/STIM_025.jpg
488.944	0.684	1	incongruent	Block1	incongruent/STIM_026.jpg
492.048	1.034	1	incongruent	Block1	incongruent/STIM_026.jpg
496.918	0.593	1	incongruent	Block1	incongruent/STIM_026.jpg
500.98	1.073	1	incongruent	Block1	incongruent/STIM_026.jpg
504.481	0.688	1	incongruent	Block1	incongruent/STIM_026.jpg
509.011	0.892	1	incongruent	Block1	incongruent/STIM_027.jpg
513.661	0.837	0	incongruent	Block1	incongruent/STIM_027.jpg
516.791	0.881	1	incongruent	Block1	incongruent/STIM_027.jpg
521.037	1.071	1	incongruent	Block1	incongruent/STIM_027.jpg
526.087	0.948	1	incongruent	Block1	incongruent/STIM_027.jpg
529.892	0.711	1	incongruent	Block1	incongruent/STIM_028.jpg
533.571	0.921	1	incongruent	Block1	incongruent/STIM_028.jpg
537.713	0.989	1	incongruent	Block1	incongruent/STIM_028.jpg
541.407	0.73	1	incongruent	Block1	incongruent/STIM_028.jpg
545.772	0.485	1	incongruent	Block1	incongruent/STIM_028.jpg
549.954	1.059	0	incongruent	Block1	incongruent/STIM_029.jpg
554.239	0.915	1	incongruent	Block1	incongruent/STIM_029.jpg
558.603	0.848	1	incongruent	Block1	incongruent/STIM_029.jpg
562.418	0.728	1	incongruent	Block1	incongruent/STIM_029.jpg
566.012	0.566	1	incongruent	Block1	incongruent/STIM_029.jpg
570.208	0.538	1	congruent	Block1	congruent/STIM_000.jpg
572.764	0.547	1	congruent	Block1	congruent/STIM_000.jpg
575.69	0.714	1	congruent	Block1	congruent/STIM_000.jpg
579.984	0.598	1	congruent	Block1	congruent/STIM_000.jpg
584.44	0.581	1	congruent	Block1	congruent/STIM_000.jpg
587.442	0.744	0	congruent	Block1	congruent/STIM_001.jpg
590.789	0.677	1	congruent	Block1	congruent/STIM_001.jpg
595.344	0.744	1	congruent	Block1	congruent/STIM_001.jpg
598.708	0.665	1	congruent	Block1	congruent/STIM_001.jpg
601.514	0.452	1	congruent	Block1	congruent/STIM_001.jpg
604.055	0.454	1	congruent	Block1	congruent/STIM_002.jpg
607.105	0.585	1	congruent	Block1	congruent/STIM_002.jpg
610.089	0.74	1	congruent	Block1	congruent/STIM_002.jpg
613.348	0.744	1	congruent	Block1	congruent/STIM_002.jpg
617.424	0.643	0	congruent	Block1	congruent/STIM_002.jpg
621.725	0.601	1	congruent	Block1	congruent/STIM_003.jpg
624.575	0.499	1	congruent	Block1	congruent/STIM_003.jpg
627.507	0.445	1	congruent	Block1	congruent/STIM_003.jpg
630.306	0.471	1	congruent	Block1	congruent/STIM_003.jpg
634.071	0.447	1	congruent	Block1	congruent/STIM_003.jpg
636.721	0.437	1	congruent	Block1	congruent/STIM_004.jpg
640.031	0.526	1	congruent	Block1	congruent/STIM_004.jpg
644.104	0.593	1	congruent	Block1	congruent/STIM_004.jpg
646.847	0.69	1	congruent	Block1	congruent/STIM_004.jpg
651.263	0.493	1	congruent	Block1	congruent/STIM_004.jpg
654.547	0.487	1	congruent	Block1	congruent/STIM_005.jpg
657.529	0.449	1	congruent	Block1	congruent/STIM_005.jpg
660.51	0.706	1	congruent	Block1	congruent/STIM_005.jpg
664.413	0.634	1	congruent	Block1	congruent/STIM_005.jpg
668.317	0.658	1	congruent	Block1	congruent/STIM_005.jpg
672.76	0.605	1	congruent	Block1	congruent/STIM_006.jpg
676.644	0.51	1	congruent	Block1	congruent/STIM_006.jpg
679.859	0.496	1	congruent	Block1	congruent/STIM_006.jpg
682.571	0.732	1	congruent	Block1	congruent/STIM_006.jpg
686.588	0.72	1	congruent	Block1	congruent/STIM_006.jpg
690.883	0.673	1	congruent	Block1	congruent/STIM_007.jpg
695.224	0.636	1	congruent	Block1	congruent/STIM_007.jpg
698.454	0.576	1	congruent	Block1	congruent/STIM_007.jpg
701.368	0.523	1	congruent	Block1	congruent/STIM_007.jpg
705.071	0.595	1	congruent	Block1	congruent/STIM_007.jpg
709.014	0.62	1	congruent	Block1	congruent/STIM_008.jpg
713.547	0.703	1	congruent	Block1	congruent/STIM_008.jpg
717.923	0.481	1	congruent	Block1	congruent/STIM_008.jpg
721.293	0.66	1	congruent	Block1	congruent/STIM_008.jpg
725.266	0.58	1	congruent	Block1	congruent/STIM_008.jpg
729.305	0.731	1	congruent	Block1	congruent/STIM_009.jpg
732.342	0.493	1	congruent	Block1	congruent/STIM_009.jpg
736.06	0.756	1	congruent	Block1	congruent/STIM_009.jpg
739.867	0.429	1	congruent	Block1	congruent/STIM_009.jpg
743.903	0.628	1	congruent	Block1	congruent/STIM_009.jpg
748.224	0.687	1	congruent	Block1	congruent/STIM_010.jpg
752.865	0.442	1	congruent	Block1	congruent/STIM_010.jpg
755.451	0.708	1	congruent	Block1	congruent/STIM_010.jpg
758.565	0.463	1	congruent	Block1	congruent/STIM_010.jpg
762.964	0.556	1	congruent	Block1	congruent/STIM_010.jpg
766.942	0.601	1	congruent	Block1	congruent/STIM_011.jpg
770.721	0.737	1	congruent	Block1	congruent/STIM_011.jpg
774.001	0.536	1	congruent	Block1	congruent/STIM_011.jpg
777.184	0.637	1	congruent	Block1	congruent/STIM_011.jpg
779.973	0.71	1	congruent	Block1	congruent/STIM_011.jpg
782.854	0.616	1	congruent	Block1	congruent/STIM_012.jpg
785.626	0.756	1	congruent	Block1	congruent/STIM_012.jpg
788.738	0.554	1	congruent	Block1	congruent/STIM_012.jpg
791.535	0.561	1	congruent	Block1	congruent/STIM_012.jpg
795.928	0.635	1	congruent	Block1	congruent/STIM_012.jpg
799.576	0.571	1	congruent	Block1	congruent/STIM_013.jpg
802.55	0.603	1	congruent	Block1	congruent/STIM_013.jpg
807.076	0.549	1	congruent	Block1	congruent/STIM_013.jpg
811.291	0.739	1	congruent	Block1	congruent/STIM_013.jpg
814.534	0.491	1	congruent	Block1	congruent/STIM_013.jpg
818.082	0.527	1	congruent	Block1	congruent/STIM_014.jpg
822.177	0.58	1	congruent	Block1	congruent/STIM_014.jpg
826.458	0.571	1	congruent	Block1	congruent/STIM_014.jpg
830.402	0.539	1	congruent	Block1	congruent/STIM_014.jpg
833.259	0.671	1	congruent	Block1	congruent/STIM_014.jpg
837.168	0.492	1	congruent	Block1	congruent/STIM_015.jpg
841.031	0.481	1	congruent	Block1	congruent/STIM_015.jpg
844.437	0.625	0	congruent	Block1	congruent/STIM_015.jpg
848.307	0.692	1	congruent	Block1	congruent/STIM_015.jpg
851.281	0.638	1	congruent	Block1	congruent/STIM_015.jpg
855.222	0.436	1	congruent	Block1	congruent/STIM_016.jpg
858.379	0.613	1	congruent	Block1	congruent/STIM_016.jpg
861.178	0.491	1	congruent	Block1	congruent/STIM_016.jpg
864.006	0.587	1	congruent	Block1	congruent/STIM_016.jpg
867.11	0.635	1	congruent	Block1	congruent/STIM_016.jpg
871.098	0.753	1	congruent	Block1	congruent/STIM_017.jpg
875.078	0.544	1	congruent	Block1	congruent/STIM_017.jpg
878.711	0.655	1	congruent	Block1	congruent/STIM_017.jpg
882.957	0.712	1	congruent	Block1	congruent/STIM_017.jpg
887.493	0.562	1	congruent	Block1	congruent/STIM_017.jpg
891.219	0.747	1	congruent	Block1	congruent/STIM_018.jpg
895.123	0.452	1	congruent	Block1	congruent/STIM_018.jpg
897.674	0.733	1	congruent	Block1	congruent/STIM_018.jpg
901.3	0.725	1	congruent	Block1	congruent/STIM_018.jpg
905.105	0.669	1	congruent	Block1	congruent/STIM_018.jpg
909.25	0.739	1	congruent	Block1	congruent/STIM_019.jpg
913.693	0.684	1	congruent	Block1	congruent/STIM_019.jpg
917.511	0.472	1	congruent	Block1	congruent/STIM_019.jpg
920.385	0.755	1	congruent	Block1	congruent/STIM_019.jpg
924.975	0.659	1	congruent	Block1	congruent/STIM_019.jpg
928.257	0.702	1	congruent	Block1	congruent/STIM_020.jpg
932.178	0.572	1	congruent	Block1	congruent/STIM_020.jpg
935.426	0.494	1	congruent	Block1	congruent/STIM_020.jpg
939.838	0.674	1	congruent	Block1	congruent/STIM_020.jpg
943.791	0.752	1	congruent	Block1	congruent/STIM_020.jpg
948.133	0.674	1	congruent	Block1	congruent/STIM_021.jpg
951.938	0.594	1	congruent	Block1	congruent/STIM_021.jpg
954.934	0.445	1	congruent	Block1	congruent/STIM_021.jpg
957.945	0.64	1	congruent	Block1	congruent/STIM_021.jpg
960.884	0.524	1	congruent	Block1	congruent/STIM_021.jpg
963.557	0.452	1	congruent	Block1	congruent/STIM_022.jpg
967.55	0.534	1	congruent	Block1	congruent/STIM_022.jpg
970.417	0.618	1	congruent	Block1	congruent/STIM_022.jpg
973.284	0.434	1	congruent	Block1	congruent/STIM_022.jpg
975.775	0.586	1	congruent	Block1	congruent/STIM_022.jpg
978.981	0.659	1	congruent	Block1	congruent/STIM_023.jpg
982.603	0.47	1	congruent	Block1	congruent/STIM_023.jpg
986.856	0.504	1	congruent	Block1	congruent/STIM_023.jpg
990.83	0.743	1	congruent	Block1	congruent/STIM_023.jpg
994.278	0.589	1	congruent	Block1	congruent/STIM_023.jpg
997.608	0.692	1	congruent	Block1	congruent/STIM_024.jpg
1001.332	0.587	1	congruent	Block1	congruent/STIM_024.jpg
1004.686	0.526	1	congruent	Block1	congruent/STIM_024.jpg
1007.992	0.531	1	congruent	Block1	congruent/STIM_024.jpg
1012.499	0.566	1	congruent	Block1	congruent/STIM_024.jpg
1015.821	0.473	1	congruent	Block1	congruent/STIM_025.jpg
1019.195	0.606	1	congruent	Block1	congruent/STIM_025.jpg
1023.238	0.682	1	congruent	Block1	congruent/STIM_025.jpg
1026.117	0.632	1	congruent	Block1	congruent/STIM_025.jpg
1030.109	0.593	1	congruent	Block1	congruent/STIM_025.jpg
1033.67	0.465	1	congruent	Block1	congruent/STIM_026.jpg
1036.853	0.518	1	congruent	Block1	congruent/STIM_026.jpg
1041.095	0.602	1	congruent	Block1	congruent/STIM_026.jpg
1043.973	0.687	1	congruent	Block1	congruent/STIM_026.jpg
1048.517	0.43	1	congruent	Block1	congruent/STIM_026.jpg
1051.952	0.687	1	congruent	Block1	congruent/STIM_027.jpg
1054.761	0.708	1	congruent	Block1	congruent/STIM_027.jpg
1058.692	0.577	1	congruent	Block1	congruent/STIM_027.jpg
1062.425	0.548	1	congruent	Block1	congruent/STIM_027.jpg
1065.27	0.604	1	congruent	Block1	congruent/STIM_027.jpg
1068.724	0.461	1	congruent	Block1	congruent/STIM_028.jpg
1071.259	0.514	1	congruent	Block1	congruent/STIM_028.jpg
1074.676	0.425	1	congruent	Block1	congruent/STIM_028.jpg
1078.666	0.704	1	congruent	Block1	congruent/STIM_028.jpg
1082.563	0.739	1	congruent	Block1	congruent/STIM_028.jpg
1085.368	0.674	1	congruent	Block1	congruent/STIM_029.jpg
1088.5	0.533	1	congruent	Block1	congruent/STIM_029.jpg
1091.739	0.647	1	congruent	Block1	congruent/STIM_029.jpg
1095.941	0.673	1	congruent	Block1	congruent/STIM_029.jpg
1099.672	0.492	1	congruent	Block1	congruent/STIM_029.jpg
1103.319	1.076	1	incongruent	Block2	incongruent/STIM_000.jpg
1106.828	0.498	0	incongruent	Block2	incongruent/STIM_000.jpg
1110.119	0.794	1	incongruent	Block2	incongruent/STIM_000.jpg
1114.527	0.729	1	incongruent	Block2	incongruent/STIM_000.jpg
1118.959	0.513	1	incongruent	Block2	incongruent/STIM_000.jpg
1122.595	1.037	1	incongruent	Block2	incongruent/STIM_001.jpg
1126.195	0.71	1	incongruent	Block2	incongruent/STIM_001.jpg
1130.397	0.783	1	incongruent	Block2	incongruent/STIM_001.jpg
1133.343	0.723	1	incongruent	Block2	incongruent/STIM_001.jpg
1137.629	0.666	1	incongruent	Block2	incongruent/STIM_001.jpg
1141.578	0.979	1	incongruent	Block2	incongruent/STIM_002.jpg
1144.815	0.646	1	incongruent	Block2	incongruent/STIM_002.jpg
1148.063	0.511	1	incongruent	Block2	incongruent/STIM_002.jpg
1151.872	0.86	1	incongruent	Block2	incongruent/STIM_002.jpg
1155.089	0.635	1	incongruent	Block2	incongruent/STIM_002.jpg
1158.845	0.832	1	incongruent	Block2	incongruent/STIM_003.jpg
1161.863	0.517	1	incongruent	Block2	incongruent/STIM_003.jpg
1166.199	0.683	1	incongruent	Block2	incongruent/STIM_003.jpg
1170.581	0.603	1	incongruent	Block2	incongruent/STIM_003.jpg
1174.909	0.574	1	incongruent	Block2	incongruent/STIM_003.jpg
1178.899	0.821	1	incongruent	Block2	incongruent/STIM_004.jpg
1183.255	0.855	1	incongruent	Block2	incongruent/STIM_004.jpg
1186.521	0.832	1	incongruent	Block2	incongruent/STIM_004.jpg
1191.296	0.628	1	incongruent	Block2	incongruent/STIM_004.jpg
1194.365	0.808	1	incongruent	Block2	incongruent/STIM_004.jpg
1198.776	0.547	1	incongruent	Block2	incongruent/STIM_005.jpg
1201.444	0.887	1	incongruent	Block2	incongruent/STIM_005.jpg
1206.004	0.893	1	incongruent	Block2	incongruent/STIM_005.jpg
1209.906	0.854	1	incongruent	Block2	incongruent/STIM_005.jpg
1213.607	0.48	1	incongruent	Block2	incongruent/STIM_005.jpg
1217.672	0.97	1	incongruent	Block2	incongruent/STIM_006.jpg
1221.214	0.927	1	incongruent	Block2	incongruent/STIM_006.jpg
1224.411	0.85	1	incongruent	Block2	incongruent/STIM_006.jpg
1227.88	0.763	1	incongruent	Block2	incongruent/STIM_006.jpg
1232.357	0.747	1	incongruent	Block2	incongruent/STIM_006.jpg
1235.577	0.693	1	incongruent	Block2	incongruent/STIM_007.jpg
1239.584	0.811	1	incongruent	Block2	incongruent/STIM_007.jpg
1243.009	0.451	1	incongruent	Block2	incongruent/STIM_007.jpg
1247.425	0.423	1	incongruent	Block2	incongruent/STIM_007.jpg
1250.135	0.647	1	incongruent	Block2	incongruent/STIM_007.jpg
1253.427	0.536	1	incongruent	Block2	incongruent/STIM_008.jpg
1256.06	0.612	1	incongruent	Block2	incongruent/STIM_008.jpg
1259.578	0.7	1	incongruent	Block2	incongruent/STIM_008.jpg
1262.481	0.724	1	incongruent	Block2	incongruent/STIM_008.jpg
1266.368	0.441	1	incongruent	Block2	incongruent/STIM_008.jpg
1269.462	0.559	1	incongruent	Block2	incongruent/STIM_009.jpg
1273.881	0.957	1	incongruent	Block2	incongruent/STIM_009.jpg
1278.781	0.813	1	incongruent	Block2	incongruent/STIM_009.jpg
1281.84	0.503	0	incongruent	Block2	incongruent/STIM_009.jpg
1286.171	0.619	1	incongruent	Block2	incongruent/STIM_009.jpg
1290.026	0.595	1	incongruent	Block2	incongruent/STIM_010.jpg
1293.797	0.885	1	incongruent	Block2	incongruent/STIM_010.jpg
1298.376	0.626	1	incongruent	Block2	incongruent/STIM_010.jpg
1301.363	0.809	1	incongruent	Block2	incongruent/STIM_010.jpg
1305.328	0.431	1	incongruent	Block2	incongruent/STIM_010.jpg
1309.035	0.616	1	incongruent	Block2	incongruent/STIM_011.jpg
1313.203	0.985	1	incongruent	Block2	incongruent/STIM_011.jpg
1316.722	0.61	1	incongruent	Block2	incongruent/STIM_011.jpg
1320.186	0.641	1	incongruent	Block2	incongruent/STIM_011.jpg
1322.863	0.832	1	incongruent	Block2	incongruent/STIM_011.jpg
1327.125	1.045	1	incongruent	Block2	incongruent/STIM_012.jpg
1332.044	0.854	1	incongruent	Block2	incongruent/STIM_012.jpg
1335.929	0.895	1	incongruent	Block2	incongruent/STIM_012.jpg
1340.364	0.499	1	incongruent	Block2	incongruent/STIM_012.jpg
1343.477	0.49	1	incongruent	Block2	incongruent/STIM_012.jpg
1347.037	1.046	1	incongruent	Block2	incongruent/STIM_013.jpg
1351.191	0.551	1	incongruent	Block2	incongruent/STIM_013.jpg
1353.863	0.491	1	incongruent	Block2	incongruent/STIM_013.jpg
1357.939	0.703	1	incongruent	Block2	incongruent/STIM_013.jpg
1361.222	0.617	1	incongruent	Block2	incongruent/STIM_013.jpg
1364.413	0.864	1	incongruent	Block2	incongruent/STIM_014.jpg
1367.692	0.784	0	incongruent	Block2	incongruent/STIM_014.jpg
1370.809	0.817	0	incongruent	Block2	incongruent/STIM_014.jpg
1375.358	0.585	1	incongruent	Block2	incongruent/STIM_014.jpg
1379.711	0.865	1	incongruent	Block2	incongruent/STIM_014.jpg
1382.81	0.633	1	incongruent	Block2	incongruent/STIM_015.jpg
1387.219	0.901	1	incongruent	Block2	incongruent/STIM_015.jpg
1390.784	0.912	1	incongruent	Block2	incongruent/STIM_015.jpg
1395.159	0.492	1	incongruent	Block2	incongruent/STIM_015.jpg
1398.23	0.81	0	incongruent	Block2	incongruent/STIM_015.jpg
1401.129	0.991	1	incongruent	Block2	incongruent/STIM_016.jpg
1405.929	0.863	1	incongruent	Block2	incongruent/STIM_016.jpg
1409.477	0.869	1	incongruent	Block2	incongruent/STIM_016.jpg
1413.18	0.548	1	incongruent	Block2	incongruent/STIM_016.jpg
1416.495	0.659	1	incongruent	Block2	incongruent/STIM_016.jpg
1419.272	0.806	1	incongruent	Block2	incongruent/STIM_017.jpg
1423.669	0.845	1	incongruent	Block2	incongruent/STIM_017.jpg
1426.825	0.852	1	incongruent	Block2	incongruent/STIM_017.jpg
1430.867	0.501	1	incongruent	Block2	incongruent/STIM_017.jpg
1434.356	0.494	1	incongruent	Block2	incongruent/STIM_017.jpg
1436.908	0.743	1	incongruent	Block2	incongruent/STIM_018.jpg
1441.242	0.54	1	incongruent	Block2	incongruent/STIM_018.jpg
1444.541	0.76	1	incongruent	Block2	incongruent/STIM_018.jpg
1448.581	0.445	1	incongruent	Block2	incongruent/STIM_018.jpg
1451.401	0.762	1	incongruent	Block2	incongruent/STIM_018.jpg
1454.82	0.833	1	incongruent	Block2	incongruent/STIM_019.jpg
1458.645	0.787	1	incongruent	Block2	incongruent/STIM_019.jpg
1463.374	0.546	1	incongruent	Block2	incongruent/STIM_019.jpg
1466.247	0.58	1	incongruent	Block2	incongruent/STIM_019.jpg
1470.573	0.774	1	incongruent	Block2	incongruent/STIM_019.jpg
1475.318	1.028	1	incongruent	Block2	incongruent/STIM_020.jpg
1479.143	0.679	1	incongruent	Block2	incongruent/STIM_020.jpg
1483.032	0.813	1	incongruent	Block2	incongruent/STIM_020.jpg
1487.667	0.814	1	incongruent	Block2	incongruent/STIM_020.jpg
1492.136	0.548	1	incongruent	Block2	incongruent/STIM_020.jpg
1495.915	0.889	1	incongruent	Block2	incongruent/STIM_021.jpg
1500.193	0.982	1	incongruent	Block2	incongruent/STIM_021.jpg
1504.5	0.79	1	incongruent	Block2	incongruent/STIM_021.jpg
1508.992	0.533	1	incongruent	Block2	incongruent/STIM_021.jpg
1513.342	0.452	1	incongruent	Block2	incongruent/STIM_021.jpg
1516.038	0.894	1	incongruent	Block2	incongruent/STIM_022.jpg
1520.089	0.573	1	incongruent	Block2	incongruent/STIM_022.jpg
1524.167	0.562	1	incongruent	Block2	incongruent/STIM_022.jpg
1528.24	0.634	1	incongruent	Block2	incongruent/STIM_022.jpg
1532.413	0.732	1	incongruent	Block2	incongruent/STIM_022.jpg
1536.025	0.815	1	incongruent	Block2	incongruent/STIM_023.jpg
1539.676	0.522	1	incongruent	Block2	incongruent/STIM_023.jpg
1542.321	0.849	1	incongruent	Block2	incongruent/STIM_023.jpg
1546.1	0.804	1	incongruent	Block2	incongruent/STIM_023.jpg
1549.01	0.655	1	incongruent	Block2	incongruent/STIM_023.jpg
1553.508	0.566	1	incongruent	Block2	incongruent/STIM_024.jpg
1557.859	0.507	1	incongruent	Block2	incongruent/STIM_024.jpg
1561.343	0.599	0	incongruent	Block2	incongruent/STIM_024.jpg
1564.199	0.749	1	incongruent	Block2	incongruent/STIM_024.jpg
1567.126	0.874	1	incongruent	Block2	incongruent/STIM_024.jpg
1570.452	1.047	1	incongruent	Block2	incongruent/STIM_025.jpg
1574.985	0.674	1	incongruent	Block2	incongruent/STIM_025.jpg
1579.372	0.886	1	incongruent	Block2	incongruent/STIM_025.jpg
1582.311	0.476	1	incongruent	Block2	incongruent/STIM_025.jpg
1585.545	0.724	1	incongruent	Block2	incongruent/STIM_025.jpg
1588.331	0.91	1	incongruent	Block2	incongruent/STIM_026.jpg
1592.578	0.639	1	incongruent	Block2	incongruent/STIM_026.jpg
1596.387	0.664	1	incongruent	Block2	incongruent/STIM_026.jpg
1600.765	0.854	1	incongruent	Block2	incongruent/STIM_026.jpg
1603.706	0.589	1	incongruent	Block2	incongruent/STIM_026.jpg
1606.809	1.035	1	incongruent	Block2	incongruent/STIM_027.jpg
1611.009	0.693	1	incongruent	Block2	incongruent/STIM_027.jpg
1613.709	0.776	0	incongruent	Block2	incongruent/STIM_027.jpg
1618.325	0.715	1	incongruent	Block2	incongruent/STIM_027.jpg
1621.198	0.584	1	incongruent	Block2	incongruent/STIM_027.jpg
1624.307	0.504	1	incongruent	Block2	incongruent/STIM_028.jpg
1627.147	0.846	1	incongruent	Block2	incongruent/STIM_028.jpg
1631.232	0.865	1	incongruent	Block2	incongruent/STIM_028.jpg
1634.104	0.543	1	incongruent	Block2	incongruent/STIM_028.jpg
1638.304	0.757	1	incongruent	Block2	incongruent/STIM_028.jpg
1642.962	0.834	1	incongruent	Block2	incongruent/STIM_029.jpg
1647.083	0.517	1	incongruent	Block2	incongruent/STIM_029.jpg
1650.443	0.697	1	incongruent	Block2	incongruent/STIM_029.jpg
1653.158	0.555	1	incongruent	Block2	incongruent/STIM_029.jpg
1656.773	0.477	1	incongruent	Block2	incongruent/STIM_029.jpg
1660.333	0.578	1	congruent	Block2	congruent/STIM_000.jpg
1663.465	0.598	1	congruent	Block2	congruent/STIM_000.jpg
1666.876	0.683	1	congruent	Block2	congruent/STIM_000.jpg
1669.721	0.61	1	congruent	Block2	congruent/STIM_000.jpg
1672.728	0.753	1	congruent	Block2	congruent/STIM_000.jpg
1676.869	0.582	1	congruent	Block2	congruent/STIM_001.jpg
1680.413	0.43	1	congruent	Block2	congruent/STIM_001.jpg
1683.67	0.665	1	congruent	Block2	congruent/STIM_001.jpg
1686.847	0.577	1	congruent	Block2	congruent/STIM_001.jpg
1690.794	0.702	1	congruent	Block2	congruent/STIM_001.jpg
1693.621	0.67	1	congruent	Block2	congruent/STIM_002.jpg
1697.371	0.556	1	congruent	Block2	congruent/STIM_002.jpg
1701.139	0.709	1	congruent	Block2	congruent/STIM_002.jpg
1704.239	0.696	1	congruent	Block2	congruent/STIM_002.jpg
1707.04	0.715	1	congruent	Block2	congruent/STIM_002.jpg
1709.984	0.588	1	congruent	Block2	congruent/STIM_003.jpg
1714.565	0.565	1	congruent	Block2	congruent/STIM_003.jpg
1719.018	0.426	1	congruent	Block2	congruent/STIM_003.jpg
1722.578	0.607	1	congruent	Block2	congruent/STIM_003.jpg
1725.432	0.595	1	congruent	Block2	congruent/STIM_003.jpg
1729.182	0.47	1	congruent	Block2	congruent/STIM_004.jpg
1732.549	0.569	1	congruent	Block2	congruent/STIM_004.jpg
1735.468	0.485	1	congruent	Block2	congruent/STIM_004.jpg
1738.21	0.698	1	congruent	Block2	congruent/STIM_004.jpg
1741.566	0.505	1	congruent	Block2	congruent/STIM_004.jpg
1745.286	0.698	1	congruent	Block2	congruent/STIM_005.jpg
1748.876	0.482	1	congruent	Block2	congruent/STIM_005.jpg
1753.012	0.542	1	congruent	Block2	congruent/STIM_005.jpg
1757.539	0.596	1	congruent	Block2	congruent/STIM_005.jpg
1761.368	0.66	1	congruent	Block2	congruent/STIM_005.jpg
1764.79	0.72	1	congruent	Block2	congruent/STIM_006.jpg
1769.241	0.564	1	congruent	Block2	congruent/STIM_006.jpg
1773.572	0.668	1	congruent	Block2	congruent/STIM_006.jpg
1777.729	0.753	1	congruent	Block2	congruent/STIM_006.jpg
1781.265	0.579	1	congruent	Block2	congruent/STIM_006.jpg
1784.976	0.622	1	congruent	Block2	congruent/STIM_007.jpg
1788.66	0.705	1	congruent	Block2	congruent/STIM_007.jpg
1792.446	0.536	1	congruent	Block2	congruent/STIM_007.jpg
1796.486	0.728	1	congruent	Block2	congruent/STIM_007.jpg
1800.614	0.45	1	congruent	Block2	congruent/STIM_007.jpg
1803.301	0.507	1	congruent	Block2	congruent/STIM_008.jpg
1806.034	0.638	1	congruent	Block2	congruent/STIM_008.jpg
1808.902	0.578	1	congruent	Block2	congruent/STIM_008.jpg
1812.593	0.513	1	congruent	Block2	congruent/STIM_008.jpg
1815.251	0.759	1	congruent	Block2	congruent/STIM_008.jpg
1819.437	0.596	1	congruent	Block2	congruent/STIM_009.jpg
1822.967	0.574	1	congruent	Block2	congruent/STIM_009.jpg
1826.833	0.739	1	congruent	Block2	congruent/STIM_009.jpg
1830.137	0.675	1	congruent	Block2	congruent/STIM_009.jpg
1833.141	0.545	1	congruent	Block2	congruent/STIM_009.jpg
1836.519	0.511	1	congruent	Block2	congruent/STIM_010.jpg
1840.033	0.631	1	congruent	Block2	congruent/STIM_010.jpg
1842.864	0.729	1	congruent	Block2	congruent/STIM_010.jpg
1846.61	0.504	1	congruent	Block2	congruent/STIM_010.jpg
1849.445	0.455	1	congruent	Block2	congruent/STIM_010.jpg
1852.206	0.709	1	congruent	Block2	congruent/STIM_011.jpg
1854.964	0.586	1	congruent	Block2	congruent/STIM_011.jpg
1859.488	0.608	1	congruent	Block2	congruent/STIM_011.jpg
1862.653	0.536	1	congruent	Block2	congruent/STIM_011.jpg
1865.729	0.664	1	congruent	Block2	congruent/STIM_011.jpg
1870.128	0.598	1	congruent	Block2	congruent/STIM_012.jpg
1874.111	0.76	1	congruent	Block2	congruent/STIM_012.jpg
1877.469	0.452	0	congruent	Block2	congruent/STIM_012.jpg
1880.266	0.699	1	congruent	Block2	congruent/STIM_012.jpg
1883.397	0.541	1	congruent	Block2	congruent/STIM_012.jpg
1887.039	0.737	1	congruent	Block2	congruent/STIM_013.jpg
1890.387	0.66	1	congruent	Block2	congruent/STIM_013.jpg
1893.879	0.518	1	congruent	Block2	congruent/STIM_013.jpg
1896.528	0.513	1	congruent	Block2	congruent/STIM_013.jpg
1899.187	0.612	1	congruent	Block2	congruent/STIM_013.jpg
1902.0	0.559	1	congruent	Block2	congruent/STIM_014.jpg
1904.708	0.448	1	congruent	Block2	congruent/STIM_014.jpg
1908.448	0.626	1	congruent	Block2	congruent/STIM_014.jpg
1912.393	0.687	1	congruent	Block2	congruent/STIM_014.jpg
1915.461	0.436	1	congruent	Block2	congruent/STIM_014.jpg
1919.635	0.426	1	congruent	Block2	congruent/STIM_015.jpg
1922.908	0.55	1	congruent	Block2	congruent/STIM_015.jpg
1927.253	0.449	1	congruent	Block2	congruent/STIM_015.jpg
1931.106	0.533	1	congruent	Block2	congruent/STIM_015.jpg
1933.677	0.427	1	congruent	Block2	congruent/STIM_015.jpg
1936.628	0.628	1	congruent	Block2	congruent/STIM_016.jpg
1941.094	0.475	1	congruent	Block2	congruent/STIM_016.jpg
1945.009	0.676	1	congruent	Block2	congruent/STIM_016.jpg
1949.441	0.527	1	congruent	Block2	congruent/STIM_016.jpg
1953.038	0.522	1	congruent	Block2	congruent/STIM_016.jpg
1956.359	0.578	1	congruent	Block2	congruent/STIM_017.jpg
1959.13	0.744	1	congruent	Block2	congruent/STIM_017.jpg
1962.063	0.455	1	congruent	Block2	congruent/STIM_017.jpg
1964.867	0.565	1	congruent	Block2	congruent/STIM_017.jpg
1967.88	0.433	1	congruent	Block2	congruent/STIM_017.jpg
1972.154	0.578	1	congruent	Block2	congruent/STIM_018.jpg
1976.21	0.636	1	congruent	Block2	congruent/STIM_018.jpg
1979.822	0.463	1	congruent	Block2	congruent/STIM_018.jpg
1983.167	0.582	1	congruent	Block2	congruent/STIM_018.jpg
1986.875	0.634	1	congruent	Block2	congruent/STIM_018.jpg
1990.263	0.523	1	congruent	Block2	congruent/STIM_019.jpg
1993.172	0.7	1	congruent	Block2	congruent/STIM_019.jpg
1997.07	0.514	1	congruent	Block2	congruent/STIM_019.jpg
2001.164	0.709	1	congruent	Block2	congruent/STIM_019.jpg
2004.161	0.65	1	congruent	Block2	congruent/STIM_019.jpg
2008.609	0.444	1	congruent	Block2	congruent/STIM_020.jpg
2013.04	0.666	1	congruent	Block2	congruent/STIM_020.jpg
2015.784	0.478	1	congruent	Block2	congruent/STIM_020.jpg
2018.667	0.439	1	congruent	Block2	congruent/STIM_020.jpg
2022.499	0.554	1	congruent	Block2	congruent/STIM_020.jpg
2026.229	0.635	1	congruent	Block2	congruent/STIM_021.jpg
2029.399	0.729	1	congruent	Block2	congruent/STIM_021.jpg
2033.93	0.55	1	congruent	Block2	congruent/STIM_021.jpg
2037.385	0.737	1	congruent	Block2	congruent/STIM_021.jpg
2041.228	0.577	1	congruent	Block2	congruent/STIM_021.jpg
2045.53	0.664	1	congruent	Block2	congruent/STIM_022.jpg
2049.204	0.527	1	congruent	Block2	congruent/STIM_022.jpg
2052.344	0.759	1	congruent	Block2	congruent/STIM_022.jpg
2055.606	0.45	1	congruent	Block2	congruent/STIM_022.jpg
2058.801	0.567	1	congruent	Block2	congruent/STIM_022.jpg
2063.214	0.705	1	congruent	Block2	congruent/STIM_023.jpg
2067.406	0.622	1	congruent	Block2	congruent/STIM_023.jpg
2070.681	0.575	1	congruent	Block2	congruent/STIM_023.jpg
2074.42	0.676	1	congruent	Block2	congruent/STIM_023.jpg
2077.369	0.571	1	congruent	Block2	congruent/STIM_023.jpg
2079.963	0.543	1	congruent	Block2	congruent/STIM_024.jpg
2083.319	0.663	1	congruent	Block2	congruent/STIM_024.jpg
2086.415	0.482	1	congruent	Block2	congruent/STIM_024.jpg
2090.492	0.559	1	congruent	Block2	congruent/STIM_024.jpg
2093.798	0.581	1	congruent	Block2	congruent/STIM_024.jpg
2098.246	0.699	1	congruent	Block2	congruent/STIM_025.jpg
2102.77	0.631	1	congruent	Block2	congruent/STIM_025.jpg
2105.782	0.486	1	congruent	Block2	congruent/STIM_025.jpg
2110.033	0.486	1	congruent	Block2	congruent/STIM_025.jpg
2113.784	0.553	1	congruent	Block2	congruent/STIM_025.jpg
2116.62	0.676	1	congruent	Block2	congruent/STIM_026.jpg
2120.464	0.533	1	congruent	Block2	congruent/STIM_026.jpg
2123.248	0.637	1	congruent	Block2	congruent/STIM_026.jpg
2126.117	0.664	1	congruent	Block2	congruent/STIM_026.jpg
2129.455	0.497	1	congruent	Block2	congruent/STIM_026.jpg
2133.785	0.567	1	congruent	Block2	congruent/STIM_027.jpg
2136.817	0.565	1	congruent	Block2	congruent/STIM_027.jpg
2140.173	0.692	1	congruent	Block2	congruent/STIM_027.jpg
2143.275	0.579	1	congruent	Block2	congruent/STIM_027.jpg
2147.798	0.581	1	congruent	Block2	congruent/STIM_027.jpg
2152.222	0.646	1	congruent	Block2	congruent/STIM_028.jpg
2155.937	0.693	1	congruent	Block2	congruent/STIM_028.jpg
2159.001	0.444	1	congruent	Block2	congruent/STIM_028.jpg
2161.784	0.617	1	congruent	Block2	congruent/STIM_028.jpg
2164.751	0.525	1	congruent	Block2	congruent/STIM_028.jpg
2167.577	0.488	1	congruent	Block2	congruent/STIM_029.jpg
2171.024	0.518	1	congruent	Block2	congruent/STIM_029.jpg
2174.724	0.58	1	congruent	Block2	congruent/STIM_029.jpg
2177.323	0.656	1	congruent	Block2	congruent/STIM_029.jpg
2180.353	0.566	1	congruent	Block2	congruent/STIM_029.jpg
2184.309	0.847	1	incongruent	Block3	incongruent/STIM_000.jpg
2188.775	0.867	1	incongruent	Block3	incongruent/STIM_000.jpg
2192.883	0.698	1	incongruent	Block3	incongruent/STIM_000.jpg
2196.778	0.802	1	incongruent	Block3	incongruent/STIM_000.jpg
2201.405	0.846	1	incongruent	Block3	incongruent/STIM_000.jpg
2204.805	0.562	1	incongruent	Block3	incongruent/STIM_001.jpg
2207.68	0.836	1	incongruent	Block3	incongruent/STIM_001.jpg
2212.233	0.422	1	incongruent	Block3	incongruent/STIM_001.jpg
2215.558	0.746	1	incongruent	Block3	incongruent/STIM_001.jpg
2218.787	0.618	1	incongruent	Block3	incongruent/STIM_001.jpg
2222.833	0.721	1	incongruent	Block3	incongruent/STIM_002.jpg
2225.916	0.506	1	incongruent	Block3	incongruent/STIM_002.jpg
2229.83	0.634	1	incongruent	Block3	incongruent/STIM_002.jpg
2232.922	0.552	1	incongruent	Block3	incongruent/STIM_002.jpg
2236.588	0.542	1	incongruent	Block3	incongruent/STIM_002.jpg
2240.657	0.819	1	incongruent	Block3	incongruent/STIM_003.jpg
2244.7	0.586	1	incongruent	Block3	incongruent/STIM_003.jpg
2247.57	0.832	1	incongruent	Block3	incongruent/STIM_003.jpg
2251.634	0.86	1	incongruent	Block3	incongruent/STIM_003.jpg
2255.638	0.445	1	incongruent	Block3	incongruent/STIM_003.jpg
2259.24	0.7	1	incongruent	Block3	incongruent/STIM_004.jpg
2263.826	0.639	1	incongruent	Block3	incongruent/STIM_004.jpg
2268.274	0.763	1	incongruent	Block3	incongruent/STIM_004.jpg
2272.859	0.524	1	incongruent	Block3	incongruent/STIM_004.jpg
2275.678	0.528	1	incongruent	Block3	incongruent/STIM_004.jpg
2279.362	0.691	1	incongruent	Block3	incongruent/STIM_005.jpg
2283.587	0.699	1	incongruent	Block3	incongruent/STIM_005.jpg
2286.965	0.702	1	incongruent	Block3	incongruent/STIM_005.jpg
2289.845	0.536	1	incongruent	Block3	incongruent/STIM_005.jpg
2292.626	0.678	1	incongruent	Block3	incongruent/STIM_005.jpg
2296.743	0.637	1	incongruent	Block3	incongruent/STIM_006.jpg
2299.546	0.432	1	incongruent	Block3	incongruent/STIM_006.jpg
2303.522	0.809	1	incongruent	Block3	incongruent/STIM_006.jpg
2307.815	0.496	1	incongruent	Block3	incongruent/STIM_006.jpg
2310.736	0.655	1	incongruent	Block3	incongruent/STIM_006.jpg
2314.108	0.877	1	incongruent	Block3	incongruent/STIM_007.jpg
2317.886	0.621	1	incongruent	Block3	incongruent/STIM_007.jpg
2322.494	0.631	1	incongruent	Block3	incongruent/STIM_007.jpg
2326.519	0.415	1	incongruent	Block3	incongruent/STIM_007.jpg
2329.395	0.852	1	incongruent	Block3	incongruent/STIM_007.jpg
2333.402	0.609	1	incongruent	Block3	incongruent/STIM_008.jpg
2336.366	0.462	1	incongruent	Block3	incongruent/STIM_008.jpg
2339.355	0.457	1	incongruent	Block3	incongruent/STIM_008.jpg
2343.65	0.446	1	incongruent	Block3	incongruent/STIM_008.jpg
2347.299	0.79	1	incongruent	Block3	incongruent/STIM_008.jpg
2350.886	0.429	1	incongruent	Block3	incongruent/STIM_009.jpg
2354.645	0.455	1	incongruent	Block3	incongruent/STIM_009.jpg
2357.565	0.718	1	incongruent	Block3	incongruent/STIM_009.jpg
2362.011	0.764	1	incongruent	Block3	incongruent/STIM_009.jpg
2365.542	0.689	1	incongruent	Block3	incongruent/STIM_009.jpg
2369.535	0.569	1	incongruent	Block3	incongruent/STIM_010.jpg
2372.168	0.721	1	incongruent	Block3	incongruent/STIM_010.jpg
2376.411	0.836	1	incongruent	Block3	incongruent/STIM_010.jpg
2380.942	0.704	1	incongruent	Block3	incongruent/STIM_010.jpg
2385.087	0.425	1	incongruent	Block3	incongruent/STIM_010.jpg
2388.43	0.847	1	incongruent	Block3	incongruent/STIM_011.jpg
2392.578	0.756	1	incongruent	Block3	incongruent/STIM_011.jpg
2395.886	0.858	1	incongruent	Block3	incongruent/STIM_011.jpg
2400.673	0.726	1	incongruent	Block3	incongruent/STIM_011.jpg
2404.443	0.847	1	incongruent	Block3	incongruent/STIM_011.jpg
2408.655	0.42	1	incongruent	Block3	incongruent/STIM_012.jpg
2412.029	0.644	1	incongruent	Block3	incongruent/STIM_012.jpg
2415.518	0.813	1	incongruent	Block3	incongruent/STIM_012.jpg
2420.098	0.615	1	incongruent	Block3	incongruent/STIM_012.jpg
2423.021	0.619	1	incongruent	Block3	incongruent/STIM_012.jpg
2427.202	0.561	1	incongruent	Block3	incongruent/STIM_013.jpg
2431.61	0.862	1	incongruent	Block3	incongruent/STIM_013.jpg
2435.844	0.663	1	incongruent	Block3	incongruent/STIM_013.jpg
2438.71	0.431	1	incongruent	Block3	incongruent/STIM_013.jpg
2441.212	0.463	1	incongruent	Block3	incongruent/STIM_013.jpg
2444.689	0.74	1	incongruent	Block3	incongruent/STIM_014.jpg
2448.025	0.669	1	incongruent	Block3	incongruent/STIM_014.jpg
2451.132	0.772	1	incongruent	Block3	incongruent/STIM_014.jpg
2455.404	0.435	1	incongruent	Block3	incongruent/STIM_014.jpg
2459.524	0.639	1	incongruent	Block3	incongruent/STIM_014.jpg
2462.318	0.797	1	incongruent	Block3	incongruent/STIM_015.jpg
2466.274	0.613	1	incongruent	Block3	incongruent/STIM_015.jpg
2469.346	0.863	1	incongruent	Block3	incongruent/STIM_015.jpg
2473.09	0.557	1	incongruent	Block3	incongruent/STIM_015.jpg
2476.991	0.538	1	incongruent	Block3	incongruent/STIM_015.jpg
2479.922	0.778	1	incongruent	Block3	incongruent/STIM_016.jpg
2483.091	0.879	1	incongruent	Block3	incongruent/STIM_016.jpg
2487.75	0.746	1	incongruent	Block3	incongruent/STIM_016.jpg
2491.127	0.503	1	incongruent	Block3	incongruent/STIM_016.jpg
2494.672	0.832	1	incongruent	Block3	incongruent/STIM_016.jpg
2498.902	0.755	1	incongruent	Block3	incongruent/STIM_017.jpg
2503.31	0.432	1	incongruent	Block3	incongruent/STIM_017.jpg
2507.312	0.437	1	incongruent	Block3	incongruent/STIM_017.jpg
2510.892	0.729	1	incongruent	Block3	incongruent/STIM_017.jpg
2513.977	0.749	1	incongruent	Block3	incongruent/STIM_017.jpg
2518.372	0.647	1	incongruent	Block3	incongruent/STIM_018.jpg
2521.939	0.86	1	incongruent	Block3	incongruent/STIM_018.jpg
2526.252	0.596	1	incongruent	Block3	incongruent/STIM_018.jpg
2529.16	0.818	1	incongruent	Block3	incongruent/STIM_018.jpg
2532.362	0.774	1	incongruent	Block3	incongruent/STIM_018.jpg
2535.354	0.739	1	incongruent	Block3	incongruent/STIM_019.jpg
2538.624	0.85	1	incongruent	Block3	incongruent/STIM_019.jpg
2541.904	0.771	1	incongruent	Block3	incongruent/STIM_019.jpg
2545.694	0.457	1	incongruent	Block3	incongruent/STIM_019.jpg
2548.964	0.454	1	incongruent	Block3	incongruent/STIM_019.jpg
2552.431	0.428	1	incongruent	Block3	incongruent/STIM_020.jpg
2555.353	0.609	1	incongruent	Block3	incongruent/STIM_020.jpg
2559.373	0.594	1	incongruent	Block3	incongruent/STIM_020.jpg
2563.525	0.747	1	incongruent	Block3	incongruent/STIM_020.jpg
2566.792	0.619	1	incongruent	Block3	incongruent/STIM_020.jpg
2570.192	0.497	1	incongruent	Block3	incongruent/STIM_021.jpg
2573.527	0.524	1	incongruent	Block3	incongruent/STIM_021.jpg
2577.925	0.686	1	incongruent	Block3	incongruent/STIM_021.jpg
2582.492	0.8	1	incongruent	Block3	incongruent/STIM_021.jpg
2587.258	0.807	1	incongruent	Block3	incongruent/STIM_021.jpg
2590.912	0.495	1	incongruent	Block3	incongruent/STIM_022.jpg
2593.666	0.483	1	incongruent	Block3	incongruent/STIM_022.jpg
2596.52	0.495	1	incongruent	Block3	incongruent/STIM_022.jpg
2599.566	0.845	1	incongruent	Block3	incongruent/STIM_022.jpg
2603.92	0.696	1	incongruent	Block3	incongruent/STIM_022.jpg
2606.808	0.842	1	incongruent	Block3	incongruent/STIM_023.jpg
2611.218	0.453	1	incongruent	Block3	incongruent/STIM_023.jpg
2614.154	0.643	1	incongruent	Block3	incongruent/STIM_023.jpg
2617.694	0.587	1	incongruent	Block3	incongruent/STIM_023.jpg
2620.417	0.711	1	incongruent	Block3	incongruent/STIM_023.jpg
2623.829	0.601	1	incongruent	Block3	incongruent/STIM_024.jpg
2627.688	0.751	1	incongruent	Block3	incongruent/STIM_024.jpg
2631.393	0.715	1	incongruent	Block3	incongruent/STIM_024.jpg
2635.962	0.536	1	incongruent	Block3	incongruent/STIM_024.jpg
2640.238	0.739	1	incongruent	Block3	incongruent/STIM_024.jpg
2644.036	0.732	1	incongruent	Block3	incongruent/STIM_025.jpg
2648.523	0.465	1	incongruent	Block3	incongruent/STIM_025.jpg
2652.641	0.571	1	incongruent	Block3	incongruent/STIM_025.jpg
2656.65	0.668	1	incongruent	Block3	incongruent/STIM_025.jpg
2659.819	0.528	1	incongruent	Block3	incongruent/STIM_025.jpg
2663.638	0.873	1	incongruent	Block3	incongruent/STIM_026.jpg
2667.688	0.65	1	incongruent	Block3	incongruent/STIM_026.jpg
2670.425	0.761	1	incongruent	Block3	incongruent/STIM_026.jpg
2674.614	0.833	1	incongruent	Block3	incongruent/STIM_026.jpg
2678.32	0.636	1	incongruent	Block3	incongruent/STIM_026.jpg
2681.867	0.529	1	incongruent	Block3	incongruent/STIM_027.jpg
2686.298	0.476	1	incongruent	Block3	incongruent/STIM_027.jpg
2689.349	0.598	1	incongruent	Block3	incongruent/STIM_027.jpg
2692.811	0.532	1	incongruent	Block3	incongruent/STIM_027.jpg
2695.84	0.432	1	incongruent	Block3	incongruent/STIM_027.jpg
2700.24	0.834	0	incongruent	Block3	incongruent/STIM_028.jpg
2704.183	0.525	1	incongruent	Block3	incongruent/STIM_028.jpg
2707.858	0.863	1	incongruent	Block3	incongruent/STIM_028.jpg
2712.609	0.777	1	incongruent	Block3	incongruent/STIM_028.jpg
2716.513	0.876	1	incongruent	Block3	incongruent/STIM_028.jpg
2719.696	0.558	1	incongruent	Block3	incongruent/STIM_029.jpg
2722.775	0.883	1	incongruent	Block3	incongruent/STIM_029.jpg
2726.494	0.476	1	incongruent	Block3	incongruent/STIM_029.jpg
2730.672	0.656	1	incongruent	Block3	incongruent/STIM_029.jpg
2735.278	0.835	1	incongruent	Block3	incongruent/STIM_029.jpg
2738.617	0.666	1	congruent	Block3	congruent/STIM_000.jpg
2741.992	0.745	1	congruent	Block3	congruent/STIM_000.jpg
2745.549	0.529	1	congruent	Block3	congruent/STIM_000.jpg
2749.092	0.482	1	congruent	Block3	congruent/STIM_000.jpg
2753.474	0.699	1	congruent	Block3	congruent/STIM_000.jpg
2756.488	0.61	1	congruent	Block3	congruent/STIM_001.jpg
2760.394	0.747	1	congruent	Block3	congruent/STIM_001.jpg
2763.823	0.736	1	congruent	Block3	congruent/STIM_001.jpg
2767.563	0.511	1	congruent	Block3	congruent/STIM_001.jpg
2771.578	0.426	1	congruent	Block3	congruent/STIM_001.jpg
2774.734	0.692	1	congruent	Block3	congruent/STIM_002.jpg
2779.172	0.61	1	congruent	Block3	congruent/STIM_002.jpg
2782.663	0.556	1	congruent	Block3	congruent/STIM_002.jpg
2785.632	0.654	1	congruent	Block3	congruent/STIM_002.jpg
2789.284	0.758	1	congruent	Block3	congruent/STIM_002.jpg
2793.803	0.502	1	congruent	Block3	congruent/STIM_003.jpg
2796.821	0.504	0	congruent	Block3	congruent/STIM_003.jpg
2800.083	0.54	1	congruent	Block3	congruent/STIM_003.jpg
2803.464	0.499	1	congruent	Block3	congruent/STIM_003.jpg
2807.229	0.613	1	congruent	Block3	congruent/STIM_003.jpg
2810.865	0.648	1	congruent	Block3	congruent/STIM_004.jpg
2815.218	0.611	1	congruent	Block3	congruent/STIM_004.jpg
2818.308	0.617	1	congruent	Block3	congruent/STIM_004.jpg
2822.564	0.487	1	congruent	Block3	congruent/STIM_004.jpg
2826.157	0.65	1	congruent	Block3	congruent/STIM_004.jpg
2830.271	0.674	1	congruent	Block3	congruent/STIM_005.jpg
2833.174	0.485	1	congruent	Block3	congruent/STIM_005.jpg
2835.825	0.662	1	congruent	Block3	congruent/STIM_005.jpg
2839.389	0.551	1	congruent	Block3	congruent/STIM_005.jpg
2842.712	0.622	1	congruent	Block3	congruent/STIM_005.jpg
2847.227	0.713	1	congruent	Block3	congruent/STIM_006.jpg
2850.624	0.652	1	congruent	Block3	congruent/STIM_006.jpg
2853.771	0.579	1	congruent	Block3	congruent/STIM_006.jpg
2857.495	0.636	0	congruent	Block3	congruent/STIM_006.jpg
2860.393	0.511	1	congruent	Block3	congruent/STIM_006.jpg
2864.119	0.584	1	congruent	Block3	congruent/STIM_007.jpg
2867.748	0.499	1	congruent	Block3	congruent/STIM_007.jpg
2870.563	0.527	1	congruent	Block3	congruent/STIM_007.jpg
2874.744	0.53	1	congruent	Block3	congruent/STIM_007.jpg
2878.294	0.653	1	congruent	Block3	congruent/STIM_007.jpg
2881.033	0.729	1	congruent	Block3	congruent/STIM_008.jpg
2885.081	0.626	1	congruent	Block3	congruent/STIM_008.jpg
2887.922	0.536	1	congruent	Block3	congruent/STIM_008.jpg
2891.868	0.76	1	congruent	Block3	congruent/STIM_008.jpg
2895.063	0.573	1	congruent	Block3	congruent/STIM_008.jpg
2898.604	0.693	1	congruent	Block3	congruent/STIM_009.jpg
2901.352	0.492	1	congruent	Block3	congruent/STIM_009.jpg
2904.992	0.438	1	congruent	Block3	congruent/STIM_009.jpg
2908.62	0.535	1	congruent	Block3	congruent/STIM_009.jpg
2912.603	0.436	1	congruent	Block3	congruent/STIM_009.jpg
2915.674	0.737	1	congruent	Block3	congruent/STIM_010.jpg
2918.625	0.582	1	congruent	Block3	congruent/STIM_010.jpg
2922.928	0.627	1	congruent	Block3	congruent/STIM_010.jpg
2926.246	0.658	1	congruent	Block3	congruent/STIM_010.jpg
2929.752	0.446	1	congruent	Block3	congruent/STIM_010.jpg
2933.005	0.498	1	congruent	Block3	congruent/STIM_011.jpg
2936.281	0.471	1	congruent	Block3	congruent/STIM_011.jpg
2940.599	0.643	1	congruent	Block3	congruent/STIM_011.jpg
2943.339	0.51	1	congruent	Block3	congruent/STIM_011.jpg
2946.928	0.67	1	congruent	Block3	congruent/STIM_011.jpg
2950.877	0.527	1	congruent	Block3	congruent/STIM_012.jpg
2955.043	0.439	1	congruent	Block3	congruent/STIM_012.jpg
2957.678	0.724	1	congruent	Block3	congruent/STIM_012.jpg
2960.806	0.676	1	congruent	Block3	congruent/STIM_012.jpg
2963.567	0.59	0	congruent	Block3	congruent/STIM_012.jpg
2966.724	0.737	1	congruent	Block3	congruent/STIM_013.jpg
2970.69	0.6	1	congruent	Block3	congruent/STIM_013.jpg
2975.001	0.629	1	congruent	Block3	congruent/STIM_013.jpg
2978.253	0.504	1	congruent	Block3	congruent/STIM_013.jpg
2982.184	0.695	1	congruent	Block3	congruent/STIM_013.jpg
2986.182	0.497	1	congruent	Block3	congruent/STIM_014.jpg
2989.103	0.736	1	congruent	Block3	congruent/STIM_014.jpg
2993.263	0.469	1	congruent	Block3	congruent/STIM_014.jpg
2996.87	0.438	1	congruent	Block3	congruent/STIM_014.jpg
2999.848	0.616	1	congruent	Block3	congruent/STIM_014.jpg
3004.212	0.436	1	congruent	Block3	congruent/STIM_015.jpg
3007.831	0.586	1	congruent	Block3	congruent/STIM_015.jpg
3011.379	0.509	1	congruent	Block3	congruent/STIM_015.jpg
3014.183	0.628	1	congruent	Block3	congruent/STIM_015.jpg
3017.709	0.595	1	congruent	Block3	congruent/STIM_015.jpg
3020.533	0.564	1	congruent	Block3	congruent/STIM_016.jpg
3024.89	0.576	1	congruent	Block3	congruent/STIM_016.jpg
3028.115	0.542	1	congruent	Block3	congruent/STIM_016.jpg
3031.045	0.728	1	congruent	Block3	congruent/STIM_016.jpg
3035.508	0.428	1	congruent	Block3	congruent/STIM_016.jpg
3039.679	0.692	1	congruent	Block3	congruent/STIM_017.jpg
3042.565	0.647	1	congruent	Block3	congruent/STIM_017.jpg
3046.245	0.759	1	congruent	Block3	congruent/STIM_017.jpg
3050.965	0.455	1	congruent	Block3	congruent/STIM_017.jpg
3053.64	0.444	1	congruent	Block3	congruent/STIM_017.jpg
3056.362	0.615	1	congruent	Block3	congruent/STIM_018.jpg
3060.834	0.54	1	congruent	Block3	congruent/STIM_018.jpg
3063.586	0.587	1	congruent	Block3	congruent/STIM_018.jpg
3067.984	0.449	0	congruent	Block3	congruent/STIM_018.jpg
3072.294	0.423	1	congruent	Block3	congruent/STIM_018.jpg
3075.615	0.668	1	congruent	Block3	congruent/STIM_019.jpg
3078.699	0.462	1	congruent	Block3	congruent/STIM_019.jpg
3082.44	0.479	1	congruent	Block3	congruent/STIM_019.jpg
3085.896	0.503	1	congruent	Block3	congruent/STIM_019.jpg
3088.994	0.576	1	congruent	Block3	congruent/STIM_019.jpg
3091.719	0.651	1	congruent	Block3	congruent/STIM_020.jpg
3095.441	0.693	1	congruent	Block3	congruent/STIM_020.jpg
3099.236	0.727	1	congruent	Block3	congruent/STIM_020.jpg
3103.625	0.662	1	congruent	Block3	congruent/STIM_020.jpg
3107.551	0.552	1	congruent	Block3	congruent/STIM_020.jpg
3110.683	0.425	1	congruent	Block3	congruent/STIM_021.jpg
3114.938	0.637	1	congruent	Block3	congruent/STIM_021.jpg
3118.605	0.528	1	congruent	Block3	congruent/STIM_021.jpg
3121.504	0.736	1	congruent	Block3	congruent/STIM_021.jpg
3125.708	0.55	1	congruent	Block3	congruent/STIM_021.jpg
3128.261	0.583	1	congruent	Block3	congruent/STIM_022.jpg
3132.567	0.503	1	congruent	Block3	congruent/STIM_022.jpg
3136.568	0.693	1	congruent	Block3	congruent/STIM_022.jpg
3140.694	0.632	1	congruent	Block3	congruent/STIM_022.jpg
3144.66	0.67	1	congruent	Block3	congruent/STIM_022.jpg
3147.378	0.439	1	congruent	Block3	congruent/STIM_023.jpg
3150.115	0.683	1	congruent	Block3	congruent/STIM_023.jpg
3152.876	0.58	1	congruent	Block3	congruent/STIM_023.jpg
3157.058	0.512	1	congruent	Block3	congruent/STIM_023.jpg
3161.307	0.758	1	congruent	Block3	congruent/STIM_023.jpg
3165.946	0.693	1	congruent	Block3	congruent/STIM_024.jpg
3169.308	0.512	1	congruent	Block3	congruent/STIM_024.jpg
3171.929	0.733	1	congruent	Block3	congruent/STIM_024.jpg
3175.28	0.628	1	congruent	Block3	congruent/STIM_024.jpg
3178.874	0.675	1	congruent	Block3	congruent/STIM_024.jpg
3181.781	0.462	1	congruent	Block3	congruent/STIM_025.jpg
3185.428	0.52	1	congruent	Block3	congruent/STIM_025.jpg
3189.024	0.44	1	congruent	Block3	congruent/STIM_025.jpg
3192.86	0.666	1	congruent	Block3	congruent/STIM_025.jpg
3195.81	0.465	1	congruent	Block3	congruent/STIM_025.jpg
3199.6	0.71	1	congruent	Block3	congruent/STIM_026.jpg
3203.638	0.746	1	congruent	Block3	congruent/STIM_026.jpg
3207.705	0.528	1	congruent	Block3	congruent/STIM_026.jpg
3212.141	0.56	1	congruent	Block3	congruent/STIM_026.jpg
3216.609	0.434	1	congruent	Block3	congruent/STIM_026.jpg
3220.113	0.552	1	congruent	Block3	congruent/STIM_027.jpg
3224.088	0.517	1	congruent	Block3	congruent/STIM_027.jpg
3227.991	0.511	1	congruent	Block3	congruent/STIM_027.jpg
3231.389	0.531	1	congruent	Block3	congruent/STIM_027.jpg
3235.495	0.48	1	congruent	Block3	congruent/STIM_027.jpg
3238.215	0.617	1	congruent	Block3	congruent/STIM_028.jpg
3242.324	0.744	1	congruent	Block3	congruent/STIM_028.jpg
3245.675	0.685	1	congruent	Block3	congruent/STIM_028.jpg
3248.377	0.722	1	congruent	Block3	congruent/STIM_028.jpg
3251.594	0.554	1	congruent	Block3	congruent/STIM_028.jpg
3255.879	0.579	1	congruent	Block3	congruent/STIM_029.jpg
3258.75	0.706	1	congruent	Block3	congruent/STIM_029.jpg
3262.863	0.653	1	congruent	Block3	congruent/STIM_029.jpg
3265.754	0.624	1	congruent	Block3	congruent/STIM_029.jpg
3269.8	0.702	1	congruent	Block3	congruent/STIM_029.jpg
