onset	duration	accuracy	trial_type	learning_stage	stimulus
0.0	1.288	correct	incongruent	Block1	incongruent/STIM_000.jpg
4.578	1.079	correct	incongruent	Block1	incongruent/STIM_000.jpg
8.053	0.776	correct	incongruent	Block1	incongruent/STIM_000.jpg
12.3	1.028	correct	incongruent	Block1	incongruent/STIM_000.jpg
15.647	0.654	correct	incongruent	Block1	incongruent/STIM_000.jpg
19.876	1.226	correct	incongruent	Block1	incongruent/STIM_001.jpg
23.484	1.088	correct	incongruent	Block1	incongruent/STIM_001.jpg
27.059	0.612	correct	incongruent	Block1	incongruent/STIM_001.jpg
31.249	0.612	correct	incongruent	Block1	incongruent/STIM_001.jpg
35.085	0.728	correct	incongruent	Block1	incongruent/STIM_001.jpg
38.25	0.703	correct	incongruent	Block1	incongruent/STIM_002.jpg
42.808	1.011	correct	incongruent	Block1	incongruent/STIM_002.jpg
47.63	0.563	correct	incongruent	Block1	incongruent/STIM_002.jpg
51.164	1.039	correct	incongruent	Block1	incongruent/STIM_002.jpg
54.5	0.86	correct	incongruent	Block1	incongruent/STIM_002.jpg
57.849	0.94	correct	incongruent	Block1	incongruent/STIM_003.jpg
61.255	0.994	incorrect	incongruent	Block1	incongruent/STIM_003.jpg
65.408	0.763	correct	incongruent	Block1	incongruent/STIM_003.jpg
69.917	0.824	correct	incongruent	Block1	incongruent/STIM_003.jpg
73.349	0.588	correct	incongruent	Block1	incongruent/STIM_003.jpg
77.304	0.953	incorrect	incongruent	Block1	incongruent/STIM_004.jpg
81.41	1.089	correct	incongruent	Block1	incongruent/STIM_004.jpg
85.854	0.831	correct	incongruent	Block1	incongruent/STIM_004.jpg
90.352	0.779	correct	incongruent	Block1	incongruent/STIM_004.jpg
93.331	0.645	incorrect	incongruent	Block1	incongruent/STIM_004.jpg
97.185	1.287	incorrect	incongruent	Block1	incongruent/STIM_005.jpg
101.305	0.718	correct	incongruent	Block1	incongruent/STIM_005.jpg
105.63	0.885	correct	incongruent	Block1	incongruent/STIM_005.jpg
109.712	1.061	correct	incongruent	Block1	incongruent/STIM_005.jpg
113.463	0.902	correct	incongruent	Block1	incongruent/STIM_005.jpg
116.896	1.06	correct	incongruent	Block1	incongruent/STIM_006.jpg
120.839	0.95	incorrect	incongruent	Block1	incongruent/STIM_006.jpg
125.293	1.079	correct	incongruent	Block1	incongruent/STIM_006.jpg
129.428	0.679	correct	incongruent	Block1	incongruent/STIM_006.jpg
133.995	0.826	correct	incongruent	Block1	incongruent/STIM_006.jpg
137.542	0.846	correct	incongruent	Block1	incongruent/STIM_007.jpg
141.051	1.0	correct	incongruent	Block1	incongruent/STIM_007.jpg
145.855	1.088	correct	incongruent	Block1	incongruent/STIM_007.jpg
150.628	1.005	correct	incongruent	Block1	incongruent/STIM_007.jpg
154.748	1.044	correct	incongruent	Block1	incongruent/STIM_007.jpg
158.592	1.056	correct	incongruent	Block1	incongruent/STIM_008.jpg
162.227	0.883	correct	incongruent	Block1	incongruent/STIM_008.jpg
166.331	0.674	incorrect	incongruent	Block1	incongruent/STIM_008.jpg
171.002	0.525	correct	incongruent	Block1	incongruent/STIM_008.jpg
174.119	1.046	correct	incongruent	Block1	incongruent/STIM_008.jpg
178.673	0.726	correct	incongruent	Block1	incongruent/STIM_009.jpg
181.615	1.061	incorrect	incongruent	Block1	incongruent/STIM_009.jpg
186.239	0.634	correct	incongruent	Block1	incongruent/STIM_009.jpg
189.574	0.849	correct	incongruent	Block1	incongruent/STIM_009.jpg
192.808	0.637	correct	incongruent	Block1	incongruent/STIM_009.jpg
197.51	1.212	correct	incongruent	Block1	incongruent/STIM_010.jpg
202.32	0.668	correct	incongruent	Block1	incongruent/STIM_010.jpg
206.003	0.75	correct	incongruent	Block1	incongruent/STIM_010.jpg
209.605	0.856	correct	incongruent	Block1	incongruent/STIM_010.jpg
213.194	0.494	correct	incongruent	Block1	incongruent/STIM_010.jpg
217.185	0.963	correct	incongruent	Block1	incongruent/STIM_011.jpg
220.8	0.702	correct	incongruent	Block1	incongruent/STIM_011.jpg
225.3	1.022	correct	incongruent	Block1	incongruent/STIM_011.jpg
229.079	0.919	correct	incongruent	Block1	incongruent/STIM_011.jpg
233.205	0.678	correct	incongruent	Block1	incongruent/STIM_011.jpg
236.266	1.306	correct	incongruent	Block1	incongruent/STIM_012.jpg
240.152	0.616	correct	incongruent	Block1	incongruent/STIM_012.jpg
244.489	0.622	correct	incongruent	Block1	incongruent/STIM_012.jpg
247.511	0.685	correct	incongruent	Block1	incongruent/STIM_012.jpg
251.741	0.668	correct	incongruent	Block1	incongruent/STIM_012.jpg
254.852	1.23	incorrect	incongruent	Block1	incongruent/STIM_013.jpg
259.234	1.127	correct	incongruent	Block1	incongruent/STIM_013.jpg
262.661	0.568	correct	incongruent	Block1	incongruent/STIM_013.jpg
267.052	0.7	correct	incongruent	Block1	incongruent/STIM_013.jpg
270.624	0.778	correct	incongruent	Block1	incongruent/STIM_013.jpg
273.585	1.28	correct	incongruent	Block1	incongruent/STIM_014.jpg
278.987	1.077	correct	incongruent	Block1	incongruent/STIM_014.jpg
283.753	1.086	correct	incongruent	Block1	incongruent/STIM_014.jpg
288.251	0.789	incorrect	incongruent	Block1	incongruent/STIM_014.jpg
291.244	0.593	incorrect	incongruent	Block1	incongruent/STIM_014.jpg
295.334	1.136	correct	incongruent	Block1	incongruent/STIM_015.jpg
300.002	0.984	correct	incongruent	Block1	incongruent/STIM_015.jpg
303.536	0.581	correct	incongruent	Block1	incongruent/STIM_015.jpg
307.552	1.01	correct	incongruent	Block1	incongruent/STIM_015.jpg
311.348	0.706	correct	incongruent	Block1	incongruent/STIM_015.jpg
315.368	0.916	correct	incongruent	Block1	incongruent/STIM_016.jpg
319.431	0.76	incorrect	incongruent	Block1	incongruent/STIM_016.jpg
324.248	0.887	correct	incongruent	Block1	incongruent/STIM_016.jpg
328.461	0.966	correct	incongruent	Block1	incongruent/STIM_016.jpg
332.825	0.933	correct	incongruent	Block1	incongruent/STIM_016.jpg
337.002	0.683	correct	incongruent	Block1	incongruent/STIM_017.jpg
341.037	0.89	incorrect	incongruent	Block1	incongruent/STIM_017.jpg
345.056	0.578	correct	incongruent	Block1	incongruent/STIM_017.jpg
348.709	0.937	correct	incongruent	Block1	incongruent/STIM_017.jpg
352.648	0.848	correct	incongruent	Block1	incongruent/STIM_017.jpg
356.557	1.291	correct	incongruent	Block1	incongruent/STIM_018.jpg
360.605	0.833	correct	incongruent	Block1	incongruent/STIM_018.jpg
365.097	0.862	correct	incongruent	Block1	incongruent/STIM_018.jpg
369.503	0.678	correct	incongruent	Block1	incongruent/STIM_018.jpg
372.875	0.731	correct	incongruent	Block1	incongruent/STIM_018.jpg
377.047	1.078	correct	incongruent	Block1	incongruent/STIM_019.jpg
381.328	1.199	correct	incongruent	Block1	incongruent/STIM_019.jpg
386.315	0.853	correct	incongruent	Block1	incongruent/STIM_019.jpg
390.244	1.07	incorrect	incongruent	Block1	incongruent/STIM_019.jpg
394.724	0.79	correct	incongruent	Block1	incongruent/STIM_019.jpg
398.141	0.65	correct	incongruent	Block1	incongruent/STIM_020.jpg
401.031	0.914	correct	incongruent	Block1	incongruent/STIM_020.jpg
404.963	0.977	correct	incongruent	Block1	incongruent/STIM_020.jpg
409.262	0.848	correct	incongruent	Block1	incongruent/STIM_020.jpg
414.074	0.697	correct	incongruent	Block1	incongruent/STIM_020.jpg
416.92	1.005	correct	incongruent	Block1	incongruent/STIM_021.jpg
420.486	1.056	correct	incongruent	Block1	incongruent/STIM_021.jpg
424.896	0.822	correct	incongruent	Block1	incongruent/STIM_021.jpg
428.203	1.007	correct	incongruent	Block1	incongruent/STIM_021.jpg
432.706	0.553	correct	incongruent	Block1	incongruent/STIM_021.jpg
437.05	1.251	correct	incongruent	Block1	incongruent/STIM_022.jpg
441.841	0.621	correct	incongruent	Block1	incongruent/STIM_022.jpg
445.924	1.048	incorrect	incongruent	Block1	incongruent/STIM_022.jpg
449.209	0.664	correct	incongruent	Block1	incongruent/STIM_022.jpg
453.86	0.562	correct	incongruent	Block1	incongruent/STIM_022.jpg
458.021	0.695	correct	incongruent	Block1	incongruent/STIM_023.jpg
461.38	0.912	correct	incongruent	Block1	incongruent/STIM_023.jpg
464.954	0.965	correct	incongruent	Block1	incongruent/STIM_023.jpg
469.178	0.532	correct	incongruent	Block1	incongruent/STIM_023.jpg
472.542	0.726	incorrect	incongruent	Block1	incongruent/STIM_023.jpg
477.321	0.749	correct	incongruent	Block1	incongruent/STIM_024.jpg
481.274	0.833	correct	incongruent	Block1	incongruent/STIM_024.jpg
485.249	0.591	correct	incongruent	Block1	incongruent/STIM_024.jpg
488.535	0.591	correct	incongruent	Block1	incongruent/STIM_024.jpg
492.796	0.749	correct	incongruent	Block1	incongruent/STIM_024.jpg
496.522	0.67	correct	incongruent	Block1	incongruent/STIM_025.jpg
500.702	1.18	correct	incongruent	Block1	incongruent/STIM_025.jpg
505.971	1.005	correct	incongruent	Block1	incongruent/STIM_025.jpg
510.059	0.605	correct	incongruent	Block1	incongruent/STIM_025.jpg
513.158	0.735	correct	incongruent	Block1	incongruent/STIM_025.jpg
516.517	1.136	correct	incongruent	Block1	incongruent/STIM_026.jpg
520.02	1.07	correct	incongruent	Block1	incongruent/STIM_026.jpg
523.328	0.77	correct	incongruent	Block1	incongruent/STIM_026.jpg
526.474	0.751	correct	incongruent	Block1	incongruent/STIM_026.jpg
530.254	0.952	correct	incongruent	Block1	incongruent/STIM_026.jpg
534.466	1.197	correct	incongruent	Block1	incongruent/STIM_027.jpg
537.938	0.936	incorrect	incongruent	Block1	incongruent/STIM_027.jpg
542.745	0.96	correct	incongruent	Block1	incongruent/STIM_027.jpg
546.743	0.56	correct	incongruent	Block1	incongruent/STIM_027.jpg
551.105	0.512	correct	incongruent	Block1	incongruent/STIM_027.jpg
554.275	1.132	correct	incongruent	Block1	incongruent/STIM_028.jpg
558.619	1.139	correct	incongruent	Block1	incongruent/STIM_028.jpg
562.101	0.769	correct	incongruent	Block1	incongruent/STIM_028.jpg
566.55	0.724	correct	incongruent	Block1	incongruent/STIM_028.jpg
570.136	1.012	correct	incongruent	Block1	incongruent/STIM_028.jpg
573.99	1.293	incorrect	incongruent	Block1	incongruent/STIM_029.jpg
578.624	1.011	correct	incongruent	Block1	incongruent/STIM_029.jpg
581.993	0.975	correct	incongruent	Block1	incongruent/STIM_029.jpg
585.469	1.044	correct	incongruent	Block1	incongruent/STIM_029.jpg
589.443	0.544	correct	incongruent	Block1	incongruent/STIM_029.jpg
593.954	0.709	correct	congruent	Block1	congruent/STIM_000.jpg
597.348	0.633	correct	congruent	Block1	congruent/STIM_000.jpg
601.596	0.503	correct	congruent	Block1	congruent/STIM_000.jpg
604.775	0.709	correct	congruent	Block1	congruent/STIM_000.jpg
608.644	0.545	correct	congruent	Block1	congruent/STIM_000.jpg
613.099	0.602	incorrect	congruent	Block1	congruent/STIM_001.jpg
617.635	0.61	correct	congruent	Block1	congruent/STIM_001.jpg
621.081	0.691	correct	congruent	Block1	congruent/STIM_001.jpg
624.651	0.721	correct	congruent	Block1	congruent/STIM_001.jpg
628.225	0.778	correct	congruent	Block1	congruent/STIM_001.jpg
631.507	0.464	correct	congruent	Block1	congruent/STIM_002.jpg
634.83	0.554	correct	congruent	Block1	congruent/STIM_002.jpg
638.308	0.731	incorrect	congruent	Block1	congruent/STIM_002.jpg
642.613	0.78	correct	congruent	Block1	congruent/STIM_002.jpg
646.272	0.65	correct	congruent	Block1	congruent/STIM_002.jpg
649.348	0.573	correct	congruent	Block1	congruent/STIM_003.jpg
652.069	0.472	incorrect	congruent	Block1	congruent/STIM_003.jpg
656.368	0.64	correct	congruent	Block1	congruent/STIM_003.jpg
660.228	0.564	correct	congruent	Block1	congruent/STIM_003.jpg
664.808	0.584	correct	congruent	Block1	congruent/STIM_003.jpg
669.048	0.652	correct	congruent	Block1	congruent/STIM_004.jpg
672.545	0.656	correct	congruent	Block1	congruent/STIM_004.jpg
676.551	0.656	correct	congruent	Block1	congruent/STIM_004.jpg
679.344	0.735	correct	congruent	Block1	congruent/STIM_004.jpg
683.646	0.441	correct	congruent	Block1	congruent/STIM_004.jpg
687.379	0.783	correct	congruent	Block1	congruent/STIM_005.jpg
691.153	0.462	correct	congruent	Block1	congruent/STIM_005.jpg
693.999	0.652	correct	congruent	Block1	congruent/STIM_005.jpg
697.163	0.565	correct	congruent	Block1	congruent/STIM_005.jpg
700.16	0.512	correct	congruent	Block1	congruent/STIM_005.jpg
704.654	0.535	correct	congruent	Block1	congruent/STIM_006.jpg
708.226	0.49	correct	congruent	Block1	congruent/STIM_006.jpg
712.712	0.635	correct	congruent	Block1	congruent/STIM_006.jpg
715.496	0.58	correct	congruent	Block1	congruent/STIM_006.jpg
718.755	0.759	correct	congruent	Block1	congruent/STIM_006.jpg
722.707	0.759	correct	congruent	Block1	congruent/STIM_007.jpg
726.861	0.458	correct	congruent	Block1	congruent/STIM_007.jpg
731.081	0.472	correct	congruent	Block1	congruent/STIM_007.jpg
734.497	0.488	correct	congruent	Block1	congruent/STIM_007.jpg
738.012	0.467	correct	congruent	Block1	congruent/STIM_007.jpg
742.19	0.474	incorrect	congruent	Block1	congruent/STIM_008.jpg
745.958	0.536	correct	congruent	Block1	congruent/STIM_008.jpg
749.63	0.493	correct	congruent	Block1	congruent/STIM_008.jpg
752.691	0.763	correct	congruent	Block1	congruent/STIM_008.jpg
756.902	0.463	correct	congruent	Block1	congruent/STIM_008.jpg
760.942	0.661	correct	congruent	Block1	congruent/STIM_009.jpg
764.63	0.493	correct	congruent	Block1	congruent/STIM_009.jpg
768.305	0.71	incorrect	congruent	Block1	congruent/STIM_009.jpg
772.416	0.521	correct	congruent	Block1	congruent/STIM_009.jpg
775.477	0.527	correct	congruent	Block1	congruent/STIM_009.jpg
778.385	0.464	correct	congruent	Block1	congruent/STIM_010.jpg
781.833	0.651	correct	congruent	Block1	congruent/STIM_010.jpg
786.047	0.492	correct	congruent	Block1	congruent/STIM_010.jpg
789.752	0.697	correct	congruent	Block1	congruent/STIM_010.jpg
794.422	0.588	correct	congruent	Block1	congruent/STIM_010.jpg
797.937	0.597	correct	congruent	Block1	congruent/STIM_011.jpg
802.366	0.779	correct	congruent	Block1	congruent/STIM_011.jpg
806.937	0.76	correct	congruent	Block1	congruent/STIM_011.jpg
811.727	0.623	correct	congruent	Block1	congruent/STIM_011.jpg
814.808	0.5	correct	congruent	Block1	congruent/STIM_011.jpg
818.0	0.577	correct	congruent	Block1	congruent/STIM_012.jpg
821.348	0.524	correct	congruent	Block1	congruent/STIM_012.jpg
824.707	0.749	correct	congruent	Block1	congruent/STIM_012.jpg
828.323	0.635	correct	congruent	Block1	congruent/STIM_012.jpg
831.6	0.438	correct	congruent	Block1	congruent/STIM_012.jpg
835.184	0.538	correct	congruent	Block1	congruent/STIM_013.jpg
838.821	0.492	correct	congruent	Block1	congruent/STIM_013.jpg
841.742	0.496	correct	congruent	Block1	congruent/STIM_013.jpg
846.212	0.648	correct	congruent	Block1	congruent/STIM_013.jpg
849.847	0.726	incorrect	congruent	Block1	congruent/STIM_013.jpg
854.027	0.725	correct	congruent	Block1	congruent/STIM_014.jpg
856.917	0.647	correct	congruent	Block1	congruent/STIM_014.jpg
861.097	0.621	correct	congruent	Block1	congruent/STIM_014.jpg
863.886	0.606	correct	congruent	Block1	congruent/STIM_014.jpg
867.19	0.503	correct	congruent	Block1	congruent/STIM_014.jpg
871.202	0.732	correct	congruent	Block1	congruent/STIM_015.jpg
874.923	0.488	correct	congruent	Block1	congruent/STIM_015.jpg
877.558	0.669	correct	congruent	Block1	congruent/STIM_015.jpg
881.136	0.548	correct	congruent	Block1	congruent/STIM_015.jpg
884.24	0.558	correct	congruent	Block1	congruent/STIM_015.jpg
887.408	0.695	correct	congruent	Block1	congruent/STIM_016.jpg
891.671	0.474	correct	congruent	Block1	congruent/STIM_016.jpg
894.966	0.775	correct	congruent	Block1	congruent/STIM_016.jpg
898.841	0.482	correct	congruent	Block1	congruent/STIM_016.jpg
901.498	0.661	correct	congruent	Block1	congruent/STIM_016.jpg
905.403	0.442	correct	congruent	Block1	congruent/STIM_017.jpg
909.587	0.505	correct	congruent	Block1	congruent/STIM_017.jpg
914.158	0.722	correct	congruent	Block1	congruent/STIM_017.jpg
917.208	0.483	correct	congruent	Block1	congruent/STIM_017.jpg
920.864	0.784	correct	congruent	Block1	congruent/STIM_017.jpg
925.262	0.616	correct	congruent	Block1	congruent/STIM_018.jpg
929.141	0.58	correct	congruent	Block1	congruent/STIM_018.jpg
933.248	0.59	correct	congruent	Block1	congruent/STIM_018.jpg
937.024	0.594	correct	congruent	Block1	congruent/STIM_018.jpg
941.563	0.6	correct	congruent	Block1	congruent/STIM_018.jpg
945.586	0.592	correct	congruent	Block1	congruent/STIM_019.jpg
948.487	0.743	correct	congruent	Block1	congruent/STIM_019.jpg
952.617	0.59	correct	congruent	Block1	congruent/STIM_019.jpg
955.491	0.528	correct	congruent	Block1	congruent/STIM_019.jpg
959.399	0.759	correct	congruent	Block1	congruent/STIM_019.jpg
962.823	0.594	correct	congruent	Block1	congruent/STIM_020.jpg
965.548	0.523	correct	congruent	Block1	congruent/STIM_020.jpg
969.757	0.468	correct	congruent	Block1	congruent/STIM_020.jpg
973.303	0.44	correct	congruent	Block1	congruent/STIM_020.jpg
977.511	0.711	correct	congruent	Block1	congruent/STIM_020.jpg
981.252	0.765	correct	congruent	Block1	congruent/STIM_021.jpg
985.322	0.562	correct	congruent	Block1	congruent/STIM_021.jpg
988.79	0.683	correct	congruent	Block1	congruent/STIM_021.jpg
992.993	0.606	correct	congruent	Block1	congruent/STIM_021.jpg
996.995	0.494	correct	congruent	Block1	congruent/STIM_021.jpg
1001.247	0.564	correct	congruent	Block1	congruent/STIM_022.jpg
1005.11	0.762	correct	congruent	Block1	congruent/STIM_022.jpg
1009.955	0.596	correct	congruent	Block1	congruent/STIM_022.jpg
1013.26	0.771	correct	congruent	Block1	congruent/STIM_022.jpg
1016.953	0.542	correct	congruent	Block1	congruent/STIM_022.jpg
1020.55	0.47	correct	congruent	Block1	congruent/STIM_023.jpg
1024.127	0.67	correct	congruent	Block1	congruent/STIM_023.jpg
1027.518	0.62	correct	congruent	Block1	congruent/STIM_023.jpg
1030.252	0.527	correct	congruent	Block1	congruent/STIM_023.jpg
1033.026	0.739	correct	congruent	Block1	congruent/STIM_023.jpg
1036.289	0.544	correct	congruent	Block1	congruent/STIM_024.jpg
1040.03	0.636	correct	congruent	Block1	congruent/STIM_024.jpg
1042.984	0.567	correct	congruent	Block1	congruent/STIM_024.jpg
1046.421	0.68	correct	congruent	Block1	congruent/STIM_024.jpg
1050.45	0.692	correct	congruent	Block1	congruent/STIM_024.jpg
1053.942	0.46	correct	congruent	Block1	congruent/STIM_025.jpg
1058.169	0.777	correct	congruent	Block1	congruent/STIM_025.jpg
1062.924	0.603	correct	congruent	Block1	congruent/STIM_025.jpg
1066.913	0.585	correct	congruent	Block1	congruent/STIM_025.jpg
1071.0	0.596	correct	congruent	Block1	congruent/STIM_025.jpg
1075.582	0.46	correct	congruent	Block1	congruent/STIM_026.jpg
1078.136	0.493	correct	congruent	Block1	congruent/STIM_026.jpg
1080.905	0.612	correct	congruent	Block1	congruent/STIM_026.jpg
1084.925	0.622	correct	congruent	Block1	congruent/STIM_026.jpg
1087.833	0.598	correct	congruent	Block1	congruent/STIM_026.jpg
1092.193	0.677	correct	congruent	Block1	congruent/STIM_027.jpg
1096.873	0.722	correct	congruent	Block1	congruent/STIM_027.jpg
1100.679	0.528	correct	congruent	Block1	congruent/STIM_027.jpg
1104.339	0.731	correct	congruent	Block1	congruent/STIM_027.jpg
1107.708	0.678	correct	congruent	Block1	congruent/STIM_027.jpg
1110.668	0.666	correct	congruent	Block1	congruent/STIM_028.jpg
1113.732	0.591	correct	congruent	Block1	congruent/STIM_028.jpg
1117.44	0.534	correct	congruent	Block1	congruent/STIM_028.jpg
1121.221	0.565	correct	congruent	Block1	congruent/STIM_028.jpg
1124.553	0.632	correct	congruent	Block1	congruent/STIM_028.jpg
1128.005	0.467	correct	congruent	Block1	congruent/STIM_029.jpg
1131.769	0.594	correct	congruent	Block1	congruent/STIM_029.jpg
1136.001	0.766	correct	congruent	Block1	congruent/STIM_029.jpg
1138.894	0.734	correct	congruent	Block1	congruent/STIM_029.jpg
1142.318	0.483	correct	congruent	Block1	congruent/STIM_029.jpg
1145.135	1.113	correct	incongruent	Block2	incongruent/STIM_000.jpg
1149.276	0.75	incorrect	incongruent	Block2	incongruent/STIM_000.jpg
1152.323	0.778	correct	incongruent	Block2	incongruent/STIM_000.jpg
1157.093	0.451	correct	incongruent	Block2	incongruent/STIM_000.jpg
1160.535	0.859	correct	incongruent	Block2	incongruent/STIM_000.jpg
1165.25	0.673	correct	incongruent	Block2	incongruent/STIM_001.jpg
1169.749	0.925	correct	incongruent	Block2	incongruent/STIM_001.jpg
1174.151	0.965	correct	incongruent	Block2	incongruent/STIM_001.jpg
1178.399	0.687	correct	incongruent	Block2	incongruent/STIM_001.jpg
1183.132	0.617	correct	incongruent	Block2	incongruent/STIM_001.jpg
1187.153	0.943	correct	incongruent	Block2	incongruent/STIM_002.jpg
1191.171	1.036	correct	incongruent	Block2	incongruent/STIM_002.jpg
1195.573	0.509	correct	incongruent	Block2	incongruent/STIM_002.jpg
1198.19	0.763	correct	incongruent	Block2	incongruent/STIM_002.jpg
1202.839	0.601	correct	incongruent	Block2	incongruent/STIM_002.jpg
1206.956	1.02	correct	incongruent	Block2	incongruent/STIM_003.jpg
1210.406	0.505	correct	incongruent	Block2	incongruent/STIM_003.jpg
1214.526	0.811	correct	incongruent	Block2	incongruent/STIM_003.jpg
1217.797	0.614	correct	incongruent	Block2	incongruent/STIM_003.jpg
1221.662	0.504	correct	incongruent	Block2	incongruent/STIM_003.jpg
1226.146	0.556	correct	incongruent	Block2	incongruent/STIM_004.jpg
1230.721	0.531	correct	incongruent	Block2	incongruent/STIM_004.jpg
1234.985	0.616	correct	incongruent	Block2	incongruent/STIM_004.jpg
1239.177	0.543	correct	incongruent	Block2	incongruent/STIM_004.jpg
1243.178	0.556	correct	incongruent	Block2	incongruent/STIM_004.jpg
1246.587	1.034	correct	incongruent	Block2	incongruent/STIM_005.jpg
1250.603	0.932	correct	incongruent	Block2	incongruent/STIM_005.jpg
1254.513	0.733	correct	incongruent	Block2	incongruent/STIM_005.jpg
1257.992	0.619	correct	incongruent	Block2	incongruent/STIM_005.jpg
1261.891	0.896	correct	incongruent	Block2	incongruent/STIM_005.jpg
1266.497	1.092	correct	incongruent	Block2	incongruent/STIM_006.jpg
1271.131	0.73	correct	incongruent	Block2	incongruent/STIM_006.jpg
1275.717	0.46	correct	incongruent	Block2	incongruent/STIM_006.jpg
1279.116	0.688	correct	incongruent	Block2	incongruent/STIM_006.jpg
1283.561	0.533	correct	incongruent	Block2	incongruent/STIM_006.jpg
1286.901	0.524	correct	incongruent	Block2	incongruent/STIM_007.jpg
1291.108	0.494	incorrect	incongruent	Block2	incongruent/STIM_007.jpg
1294.299	0.466	correct	incongruent	Block2	incongruent/STIM_007.jpg
1298.656	0.662	correct	incongruent	Block2	incongruent/STIM_007.jpg
1301.61	0.644	correct	incongruent	Block2	incongruent/STIM_007.jpg
1304.982	0.7	correct	incongruent	Block2	incongruent/STIM_008.jpg
1309.055	0.736	incorrect	incongruent	Block2	incongruent/STIM_008.jpg
1313.895	0.712	correct	incongruent	Block2	incongruent/STIM_008.jpg
1318.331	0.716	correct	incongruent	Block2	incongruent/STIM_008.jpg
1322.368	0.432	correct	incongruent	Block2	incongruent/STIM_008.jpg
1326.7	0.711	correct	incongruent	Block2	incongruent/STIM_009.jpg
1331.207	0.803	correct	incongruent	Block2	incongruent/STIM_009.jpg
1334.874	0.855	correct	incongruent	Block2	incongruent/STIM_009.jpg
1339.631	0.721	incorrect	incongruent	Block2	incongruent/STIM_009.jpg
1343.531	0.824	correct	incongruent	Block2	incongruent/STIM_009.jpg
1348.269	0.916	correct	incongruent	Block2	incongruent/STIM_010.jpg
1352.71	0.781	correct	incongruent	Block2	incongruent/STIM_010.jpg
1355.907	0.489	correct	incongruent	Block2	incongruent/STIM_010.jpg
1360.162	0.59	correct	incongruent	Block2	incongruent/STIM_010.jpg
1363.709	0.7	correct	incongruent	Block2	incongruent/STIM_010.jpg
1367.154	0.69	correct	incongruent	Block2	incongruent/STIM_011.jpg
1370.809	0.832	correct	incongruent	Block2	incongruent/STIM_011.jpg
1375.192	0.617	correct	incongruent	Block2	incongruent/STIM_011.jpg
1378.076	0.676	correct	incongruent	Block2	incongruent/STIM_011.jpg
1382.285	0.731	correct	incongruent	Block2	incongruent/STIM_011.jpg
1385.495	0.71	correct	incongruent	Block2	incongruent/STIM_012.jpg
1388.911	0.87	correct	incongruent	Block2	incongruent/STIM_012.jpg
1392.927	0.866	correct	incongruent	Block2	incongruent/STIM_012.jpg
1397.445	0.46	correct	incongruent	Block2	incongruent/STIM_012.jpg
1400.68	0.573	correct	incongruent	Block2	incongruent/STIM_012.jpg
1403.579	0.815	correct	incongruent	Block2	incongruent/STIM_013.jpg
1407.837	0.885	correct	incongruent	Block2	incongruent/STIM_013.jpg
1412.377	0.927	correct	incongruent	Block2	incongruent/STIM_013.jpg
1416.439	0.866	correct	incongruent	Block2	incongruent/STIM_013.jpg
1421.371	0.762	correct	incongruent	Block2	incongruent/STIM_013.jpg
1425.514	0.565	correct	incongruent	Block2	incongruent/STIM_014.jpg
1430.154	0.817	incorrect	incongruent	Block2	incongruent/STIM_014.jpg
1434.779	0.517	incorrect	incongruent	Block2	incongruent/STIM_014.jpg
1439.212	0.49	correct	incongruent	Block2	incongruent/STIM_014.jpg
1442.57	0.596	correct	incongruent	Block2	incongruent/STIM_014.jpg
1447.007	0.787	correct	incongruent	Block2	incongruent/STIM_015.jpg
1450.099	0.573	correct	incongruent	Block2	incongruent/STIM_015.jpg
1453.73	0.861	correct	incongruent	Block2	incongruent/STIM_015.jpg
1458.358	0.722	correct	incongruent	Block2	incongruent/STIM_015.jpg
1462.604	0.917	incorrect	incongruent	Block2	incongruent/STIM_015.jpg
1466.289	0.812	correct	incongruent	Block2	incongruent/STIM_016.jpg
1469.87	0.862	incorrect	incongruent	Block2	incongruent/STIM_016.jpg
1474.024	0.527	correct	incongruent	Block2	incongruent/STIM_016.jpg
1477.445	0.707	correct	incongruent	Block2	incongruent/STIM_016.jpg
1480.689	0.537	correct	incongruent	Block2	incongruent/STIM_016.jpg
1484.479	1.082	correct	incongruent	Block2	incongruent/STIM_017.jpg
1488.14	0.973	correct	incongruent	Block2	incongruent/STIM_017.jpg
1491.303	0.524	correct	incongruent	Block2	incongruent/STIM_017.jpg
1494.553	0.679	correct	incongruent	Block2	incongruent/STIM_017.jpg
1498.101	0.844	correct	incongruent	Block2	incongruent/STIM_017.jpg
1502.38	0.649	correct	incongruent	Block2	incongruent/STIM_018.jpg
1506.127	0.501	correct	incongruent	Block2	incongruent/STIM_018.jpg
1510.038	0.564	correct	incongruent	Block2	incongruent/STIM_018.jpg
1513.854	0.584	correct	incongruent	Block2	incongruent/STIM_018.jpg
1517.635	0.436	correct	incongruent	Block2	incongruent/STIM_018.jpg
1521.326	0.741	correct	incongruent	Block2	incongruent/STIM_019.jpg
1525.012	0.672	correct	incongruent	Block2	incongruent/STIM_019.jpg
1529.692	0.579	correct	incongruent	Block2	incongruent/STIM_019.jpg
1534.113	0.44	correct	incongruent	Block2	incongruent/STIM_019.jpg
1538.336	0.83	correct	incongruent	Block2	incongruent/STIM_019.jpg
1542.151	0.682	correct	incongruent	Block2	incongruent/STIM_020.jpg
1545.116	0.848	correct	incongruent	Block2	incongruent/STIM_020.jpg
1548.906	0.948	correct	incongruent	Block2	incongruent/STIM_020.jpg
1552.012	0.853	correct	incongruent	Block2	incongruent/STIM_020.jpg
1556.086	0.68	correct	incongruent	Block2	incongruent/STIM_020.jpg
1560.615	0.598	correct	incongruent	Block2	incongruent/STIM_021.jpg
1564.742	0.66	correct	incongruent	Block2	incongruent/STIM_021.jpg
1568.617	0.96	correct	incongruent	Block2	incongruent/STIM_021.jpg
1572.207	0.46	correct	incongruent	Block2	incongruent/STIM_021.jpg
1576.239	0.829	correct	incongruent	Block2	incongruent/STIM_021.jpg
1579.249	0.722	correct	incongruent	Block2	incongruent/STIM_022.jpg
1582.794	0.674	correct	incongruent	Block2	incongruent/STIM_022.jpg
1586.049	0.869	correct	incongruent	Block2	incongruent/STIM_022.jpg
1589.279	0.696	correct	incongruent	Block2	incongruent/STIM_022.jpg
1592.388	0.64	correct	incongruent	Block2	incongruent/STIM_022.jpg
1596.555	0.859	correct	incongruent	Block2	incongruent/STIM_023.jpg
1600.102	0.724	correct	incongruent	Block2	incongruent/STIM_023.jpg
1604.022	0.664	correct	incongruent	Block2	incongruent/STIM_023.jpg
1606.797	0.827	correct	incongruent	Block2	incongruent/STIM_023.jpg
1610.717	0.81	correct	incongruent	Block2	incongruent/STIM_023.jpg
1614.986	0.84	correct	incongruent	Block2	incongruent/STIM_024.jpg
1619.748	0.605	correct	incongruent	Block2	incongruent/STIM_024.jpg
1623.545	0.67	incorrect	incongruent	Block2	incongruent/STIM_024.jpg
1627.943	0.478	correct	incongruent	Block2	incongruent/STIM_024.jpg
1630.852	0.711	correct	incongruent	Block2	incongruent/STIM_024.jpg
1635.282	0.802	correct	incongruent	Block2	incongruent/STIM_025.jpg
1638.61	0.832	correct	incongruent	Block2	incongruent/STIM_025.jpg
1643.062	0.92	correct	incongruent	Block2	incongruent/STIM_025.jpg
1646.665	0.837	correct	incongruent	Block2	incongruent/STIM_025.jpg
1651.361	0.883	correct	incongruent	Block2	incongruent/STIM_025.jpg
1654.878	0.805	correct	incongruent	Block2	incongruent/STIM_026.jpg
1659.401	0.623	correct	incongruent	Block2	incongruent/STIM_026.jpg
1662.216	0.825	correct	incongruent	Block2	incongruent/STIM_026.jpg
1665.499	0.841	correct	incongruent	Block2	incongruent/STIM_026.jpg
1670.109	0.914	correct	incongruent	Block2	incongruent/STIM_026.jpg
1674.486	0.961	correct	incongruent	Block2	incongruent/STIM_027.jpg
1679.209	0.567	correct	incongruent	Block2	incongruent/STIM_027.jpg
1683.321	0.486	incorrect	incongruent	Block2	incongruent/STIM_027.jpg
1687.513	0.908	correct	incongruent	Block2	incongruent/STIM_027.jpg
1691.353	0.564	correct	incongruent	Block2	incongruent/STIM_027.jpg
1695.148	0.663	correct	incongruent	Block2	incongruent/STIM_028.jpg
1698.065	0.616	correct	incongruent	Block2	incongruent/STIM_028.jpg
1701.463	0.476	correct	incongruent	Block2	incongruent/STIM_028.jpg
1704.934	0.514	correct	incongruent	Block2	incongruent/STIM_028.jpg
1709.506	0.714	correct	incongruent	Block2	incongruent/STIM_028.jpg
1712.354	0.653	correct	incongruent	Block2	incongruent/STIM_029.jpg
1716.227	0.869	correct	incongruent	Block2	incongruent/STIM_029.jpg
1720.618	0.8	correct	incongruent	Block2	incongruent/STIM_029.jpg
1723.897	0.531	correct	incongruent	Block2	incongruent/STIM_029.jpg
1728.323	0.684	correct	incongruent	Block2	incongruent/STIM_029.jpg
1732.867	0.63	correct	congruent	Block2	congruent/STIM_000.jpg
1736.961	0.558	correct	congruent	Block2	congruent/STIM_000.jpg
1740.236	0.467	correct	congruent	Block2	congruent/STIM_000.jpg
1744.274	0.484	correct	congruent	Block2	congruent/STIM_000.jpg
1748.822	0.627	correct	congruent	Block2	congruent/STIM_000.jpg
1752.605	0.456	correct	congruent	Block2	congruent/STIM_001.jpg
1755.59	0.761	correct	congruent	Block2	congruent/STIM_001.jpg
1758.848	0.465	correct	congruent	Block2	congruent/STIM_001.jpg
1762.294	0.753	correct	congruent	Block2	congruent/STIM_001.jpg
1766.773	0.783	correct	congruent	Block2	congruent/STIM_001.jpg
1770.194	0.588	correct	congruent	Block2	congruent/STIM_002.jpg
1774.267	0.583	correct	congruent	Block2	congruent/STIM_002.jpg
1777.903	0.523	correct	congruent	Block2	congruent/STIM_002.jpg
1781.793	0.771	correct	congruent	Block2	congruent/STIM_002.jpg
1785.784	0.486	correct	congruent	Block2	congruent/STIM_002.jpg
1789.699	0.57	correct	congruent	Block2	congruent/STIM_003.jpg
1794.062	0.537	correct	congruent	Block2	congruent/STIM_003.jpg
1798.338	0.668	correct	congruent	Block2	congruent/STIM_003.jpg
1801.115	0.585	correct	congruent	Block2	congruent/STIM_003.jpg
1804.356	0.587	correct	congruent	Block2	congruent/STIM_003.jpg
1808.462	0.475	correct	congruent	Block2	congruent/STIM_004.jpg
1811.947	0.658	correct	congruent	Block2	congruent/STIM_004.jpg
1816.438	0.646	correct	congruent	Block2	congruent/STIM_004.jpg
1819.205	0.62	correct	congruent	Block2	congruent/STIM_004.jpg
1823.833	0.59	correct	congruent	Block2	congruent/STIM_004.jpg
1826.901	0.686	correct	congruent	Block2	congruent/STIM_005.jpg
1830.795	0.656	correct	congruent	Block2	congruent/STIM_005.jpg
1833.888	0.56	correct	congruent	Block2	congruent/STIM_005.jpg
1836.817	0.527	correct	congruent	Block2	congruent/STIM_005.jpg
1839.92	0.67	correct	congruent	Block2	congruent/STIM_005.jpg
1843.927	0.482	correct	congruent	Block2	congruent/STIM_006.jpg
1846.913	0.541	incorrect	congruent	Block2	congruent/STIM_006.jpg
1851.297	0.775	correct	congruent	Block2	congruent/STIM_006.jpg
1855.809	0.609	correct	congruent	Block2	congruent/STIM_006.jpg
1858.727	0.703	correct	congruent	Block2	congruent/STIM_006.jpg
1862.498	0.738	correct	congruent	Block2	congruent/STIM_007.jpg
1865.837	0.725	correct	congruent	Block2	congruent/STIM_007.jpg
1869.482	0.545	correct	congruent	Block2	congruent/STIM_007.jpg
1873.36	0.621	correct	congruent	Block2	congruent/STIM_007.jpg
1876.497	0.509	correct	congruent	Block2	congruent/STIM_007.jpg
1879.942	0.48	correct	congruent	Block2	congruent/STIM_008.jpg
1884.356	0.508	correct	congruent	Block2	congruent/STIM_008.jpg
1888.013	0.5	correct	congruent	Block2	congruent/STIM_008.jpg
1892.162	0.705	correct	congruent	Block2	congruent/STIM_008.jpg
1895.647	0.55	correct	congruent	Block2	congruent/STIM_008.jpg
1899.329	0.744	correct	congruent	Block2	congruent/STIM_009.jpg
1903.957	0.542	correct	congruent	Block2	congruent/STIM_009.jpg
1907.853	0.692	correct	congruent	Block2	congruent/STIM_009.jpg
1910.784	0.577	correct	congruent	Block2	congruent/STIM_009.jpg
1915.006	0.657	correct	congruent	Block2	congruent/STIM_009.jpg
1919.514	0.705	correct	congruent	Block2	congruent/STIM_010.jpg
1924.298	0.598	correct	congruent	Block2	congruent/STIM_010.jpg
1928.838	0.552	correct	congruent	Block2	congruent/STIM_010.jpg
1933.416	0.515	correct	congruent	Block2	congruent/STIM_010.jpg
1937.524	0.492	correct	congruent	Block2	congruent/STIM_010.jpg
1940.405	0.621	correct	congruent	Block2	congruent/STIM_011.jpg
1944.992	0.765	correct	congruent	Block2	congruent/STIM_011.jpg
1948.347	0.674	correct	congruent	Block2	congruent/STIM_011.jpg
1952.356	0.708	correct	congruent	Block2	congruent/STIM_011.jpg
1956.934	0.682	correct	congruent	Block2	congruent/STIM_011.jpg
1960.606	0.46	correct	congruent	Block2	congruent/STIM_012.jpg
1964.373	0.556	correct	congruent	Block2	congruent/STIM_012.jpg
1967.276	0.782	incorrect	congruent	Block2	congruent/STIM_012.jpg
1971.551	0.669	correct	congruent	Block2	congruent/STIM_012.jpg
1975.075	0.653	correct	congruent	Block2	congruent/STIM_012.jpg
1977.988	0.628	correct	congruent	Block2	congruent/STIM_013.jpg
1981.937	0.529	correct	congruent	Block2	congruent/STIM_013.jpg
1985.621	0.565	correct	congruent	Block2	congruent/STIM_013.jpg
1989.366	0.53	correct	congruent	Block2	congruent/STIM_013.jpg
1993.435	0.472	correct	congruent	Block2	congruent/STIM_013.jpg
1996.698	0.468	correct	congruent	Block2	congruent/STIM_014.jpg
2000.271	0.554	correct	congruent	Block2	congruent/STIM_014.jpg
2004.532	0.467	correct	congruent	Block2	congruent/STIM_014.jpg
2007.282	0.665	correct	congruent	Block2	congruent/STIM_014.jpg
2011.157	0.53	correct	congruent	Block2	congruent/STIM_014.jpg
2015.582	0.508	correct	congruent	Block2	congruent/STIM_015.jpg
2018.44	0.532	correct	congruent	Block2	congruent/STIM_015.jpg
2022.125	0.504	correct	congruent	Block2	congruent/STIM_015.jpg
2025.474	0.711	correct	congruent	Block2	congruent/STIM_015.jpg
2030.005	0.7	correct	congruent	Block2	congruent/STIM_015.jpg
2034.762	0.483	correct	congruent	Block2	congruent/STIM_016.jpg
2038.039	0.619	correct	congruent	Block2	congruent/STIM_016.jpg
2041.012	0.623	correct	congruent	Block2	congruent/STIM_016.jpg
2044.58	0.663	correct	congruent	Block2	congruent/STIM_016.jpg
2048.046	0.631	correct	congruent	Block2	congruent/STIM_016.jpg
2052.35	0.646	correct	congruent	Block2	congruent/STIM_017.jpg
2056.999	0.473	correct	congruent	Block2	congruent/STIM_017.jpg
2060.023	0.459	correct	congruent	Block2	congruent/STIM_017.jpg
2062.678	0.778	correct	congruent	Block2	congruent/STIM_017.jpg
2066.04	0.732	correct	congruent	Block2	congruent/STIM_017.jpg
2070.354	0.573	correct	congruent	Block2	congruent/STIM_018.jpg
2073.96	0.69	correct	congruent	Block2	congruent/STIM_018.jpg
2077.471	0.725	correct	congruent	Block2	congruent/STIM_018.jpg
2082.152	0.66	correct	congruent	Block2	congruent/STIM_018.jpg
2085.624	0.49	correct	congruent	Block2	congruent/STIM_018.jpg
2089.474	0.56	correct	congruent	Block2	congruent/STIM_019.jpg
2092.512	0.448	correct	congruent	Block2	congruent/STIM_019.jpg
2095.215	0.752	correct	congruent	Block2	congruent/STIM_019.jpg
2098.985	0.646	correct	congruent	Block2	congruent/STIM_019.jpg
2102.983	0.687	correct	congruent	Block2	congruent/STIM_019.jpg
2107.503	0.697	correct	congruent	Block2	congruent/STIM_020.jpg
2112.13	0.603	correct	congruent	Block2	congruent/STIM_020.jpg
2116.527	0.567	correct	congruent	Block2	congruent/STIM_020.jpg
2119.848	0.524	correct	congruent	Block2	congruent/STIM_020.jpg
2123.69	0.503	correct	congruent	Block2	congruent/STIM_020.jpg
2127.995	0.739	correct	congruent	Block2	congruent/STIM_021.jpg
2132.58	0.574	correct	congruent	Block2	congruent/STIM_021.jpg
2135.595	0.762	correct	congruent	Block2	congruent/STIM_021.jpg
2139.377	0.553	correct	congruent	Block2	congruent/STIM_021.jpg
2143.895	0.599	correct	congruent	Block2	congruent/STIM_021.jpg
2147.468	0.732	correct	congruent	Block2	congruent/STIM_022.jpg
2150.999	0.48	correct	congruent	Block2	congruent/STIM_022.jpg
2154.625	0.768	correct	congruent	Block2	congruent/STIM_022.jpg
2158.422	0.728	correct	congruent	Block2	congruent/STIM_022.jpg
2162.607	0.609	correct	congruent	Block2	congruent/STIM_022.jpg
2166.531	0.538	correct	congruent	Block2	congruent/STIM_023.jpg
2170.598	0.574	correct	congruent	Block2	congruent/STIM_023.jpg
2173.508	0.668	incorrect	congruent	Block2	congruent/STIM_023.jpg
2178.031	0.712	correct	congruent	Block2	congruent/STIM_023.jpg
2181.566	0.446	correct	congruent	Block2	congruent/STIM_023.jpg
2184.421	0.605	correct	congruent	Block2	congruent/STIM_024.jpg
2187.153	0.528	correct	congruent	Block2	congruent/STIM_024.jpg
2189.83	0.556	correct	congruent	Block2	congruent/STIM_024.jpg
2193.1	0.452	correct	congruent	Block2	congruent/STIM_024.jpg
2195.807	0.519	correct	congruent	Block2	congruent/STIM_024.jpg
2200.29	0.598	correct	congruent	Block2	congruent/STIM_025.jpg
2204.376	0.732	correct	congruent	Block2	congruent/STIM_025.jpg
2208.762	0.466	correct	congruent	Block2	congruent/STIM_025.jpg
2213.143	0.709	correct	congruent	Block2	congruent/STIM_025.jpg
2216.306	0.468	correct	congruent	Block2	congruent/STIM_025.jpg
2220.182	0.545	correct	congruent	Block2	congruent/STIM_026.jpg
2224.169	0.521	correct	congruent	Block2	congruent/STIM_026.jpg
2227.8	0.649	correct	congruent	Block2	congruent/STIM_026.jpg
2231.694	0.674	correct	congruent	Block2	congruent/STIM_026.jpg
2234.565	0.499	correct	congruent	Block2	congruent/STIM_026.jpg
2238.853	0.487	correct	congruent	Block2	congruent/STIM_027.jpg
2241.766	0.573	correct	congruent	Block2	congruent/STIM_027.jpg
2245.766	0.74	correct	congruent	Block2	congruent/STIM_027.jpg
2249.068	0.524	correct	congruent	Block2	congruent/STIM_027.jpg
2252.064	0.481	correct	congruent	Block2	congruent/STIM_027.jpg
2255.085	0.689	correct	congruent	Block2	congruent/STIM_028.jpg
2258.889	0.447	correct	congruent	Block2	congruent/STIM_028.jpg
2263.147	0.534	correct	congruent	Block2	congruent/STIM_028.jpg
2266.601	0.519	correct	congruent	Block2	congruent/STIM_028.jpg
2270.302	0.515	correct	congruent	Block2	congruent/STIM_028.jpg
2273.654	0.669	correct	congruent	Block2	congruent/STIM_029.jpg
2277.907	0.501	correct	congruent	Block2	congruent/STIM_029.jpg
2281.005	0.443	correct	congruent	Block2	congruent/STIM_029.jpg
2283.781	0.607	correct	congruent	Block2	congruent/STIM_029.jpg
2288.084	0.486	correct	congruent	Block2	congruent/STIM_029.jpg
2291.007	0.514	correct	incongruent	Block3	incongruent/STIM_000.jpg
2294.004	0.566	correct	incongruent	Block3	incongruent/STIM_000.jpg
2298.098	0.737	correct	incongruent	Block3	incongruent/STIM_000.jpg
2302.701	0.87	correct	incongruent	Block3	incongruent/STIM_000.jpg
2307.483	0.738	correct	incongruent	Block3	incongruent/STIM_000.jpg
2311.594	0.46	correct	incongruent	Block3	incongruent/STIM_001.jpg
2314.823	0.528	correct	incongruent	Block3	incongruent/STIM_001.jpg
2318.562	0.554	correct	incongruent	Block3	incongruent/STIM_001.jpg
2323.031	0.602	correct	incongruent	Block3	incongruent/STIM_001.jpg
2326.758	0.572	correct	incongruent	Block3	incongruent/STIM_001.jpg
2329.954	0.908	correct	incongruent	Block3	incongruent/STIM_002.jpg
2334.57	0.826	correct	incongruent	Block3	incongruent/STIM_002.jpg
2339.387	0.753	correct	incongruent	Block3	incongruent/STIM_002.jpg
2342.31	0.575	correct	incongruent	Block3	incongruent/STIM_002.jpg
2345.439	0.458	correct	incongruent	Block3	incongruent/STIM_002.jpg
2348.259	0.444	correct	incongruent	Block3	incongruent/STIM_003.jpg
2351.953	0.828	correct	incongruent	Block3	incongruent/STIM_003.jpg
2356.434	0.911	correct	incongruent	Block3	incongruent/STIM_003.jpg
2361.064	0.587	correct	incongruent	Block3	incongruent/STIM_003.jpg
2364.0	0.849	correct	incongruent	Block3	incongruent/STIM_003.jpg
2367.481	0.845	correct	incongruent	Block3	incongruent/STIM_004.jpg
2370.844	0.805	correct	incongruent	Block3	incongruent/STIM_004.jpg
2375.053	0.627	correct	incongruent	Block3	incongruent/STIM_004.jpg
2379.434	0.685	correct	incongruent	Block3	incongruent/STIM_004.jpg
2383.992	0.696	correct	incongruent	Block3	incongruent/STIM_004.jpg
2387.371	0.596	correct	incongruent	Block3	incongruent/STIM_005.jpg
2391.691	0.527	correct	incongruent	Block3	incongruent/STIM_005.jpg
2395.337	0.541	correct	incongruent	Block3	incongruent/STIM_005.jpg
2398.481	0.723	correct	incongruent	Block3	incongruent/STIM_005.jpg
2402.97	0.688	correct	incongruent	Block3	incongruent/STIM_005.jpg
2407.687	0.617	correct	incongruent	Block3	incongruent/STIM_006.jpg
2411.168	0.804	correct	incongruent	Block3	incongruent/STIM_006.jpg
2415.629	0.741	correct	incongruent	Block3	incongruent/STIM_006.jpg
2419.786	0.712	correct	incongruent	Block3	incongruent/STIM_006.jpg
2423.167	0.769	correct	incongruent	Block3	incongruent/STIM_006.jpg
2427.077	0.69	correct	incongruent	Block3	incongruent/STIM_007.jpg
2430.979	0.74	correct	incongruent	Block3	incongruent/STIM_007.jpg
2434.467	0.471	correct	incongruent	Block3	incongruent/STIM_007.jpg
2438.463	0.575	correct	incongruent	Block3	incongruent/STIM_007.jpg
2442.758	0.584	correct	incongruent	Block3	incongruent/STIM_007.jpg
2445.74	0.603	correct	incongruent	Block3	incongruent/STIM_008.jpg
2449.362	0.44	correct	incongruent	Block3	incongruent/STIM_008.jpg
2453.352	0.616	correct	incongruent	Block3	incongruent/STIM_008.jpg
2457.99	0.509	correct	incongruent	Block3	incongruent/STIM_008.jpg
2461.161	0.894	correct	incongruent	Block3	incongruent/STIM_008.jpg
2464.869	0.455	correct	incongruent	Block3	incongruent/STIM_009.jpg
2468.547	0.837	correct	incongruent	Block3	incongruent/STIM_009.jpg
2472.161	0.438	correct	incongruent	Block3	incongruent/STIM_009.jpg
2475.565	0.637	correct	incongruent	Block3	incongruent/STIM_009.jpg
2479.795	0.675	correct	incongruent	Block3	incongruent/STIM_009.jpg
2483.761	0.505	correct	incongruent	Block3	incongruent/STIM_010.jpg
2487.683	0.538	correct	incongruent	Block3	incongruent/STIM_010.jpg
2491.339	0.458	correct	incongruent	Block3	incongruent/STIM_010.jpg
2494.916	0.744	correct	incongruent	Block3	incongruent/STIM_010.jpg
2498.116	0.523	correct	incongruent	Block3	incongruent/STIM_010.jpg
2501.697	0.479	correct	incongruent	Block3	incongruent/STIM_011.jpg
2504.862	0.436	correct	incongruent	Block3	incongruent/STIM_011.jpg
2508.917	0.594	correct	incongruent	Block3	incongruent/STIM_011.jpg
2512.267	0.63	correct	incongruent	Block3	incongruent/STIM_011.jpg
2516.702	0.762	correct	incongruent	Block3	incongruent/STIM_011.jpg
2521.363	0.435	correct	incongruent	Block3	incongruent/STIM_012.jpg
2524.499	0.841	correct	incongruent	Block3	incongruent/STIM_012.jpg
2528.385	0.662	correct	incongruent	Block3	incongruent/STIM_012.jpg
2531.941	0.787	correct	incongruent	Block3	incongruent/STIM_012.jpg
2535.912	0.517	correct	incongruent	Block3	incongruent/STIM_012.jpg
2539.02	0.489	correct	incongruent	Block3	incongruent/STIM_013.jpg
2542.899	0.637	correct	incongruent	Block3	incongruent/STIM_013.jpg
2546.113	0.752	correct	incongruent	Block3	incongruent/STIM_013.jpg
2549.115	0.73	correct	incongruent	Block3	incongruent/STIM_013.jpg
2552.715	0.644	correct	incongruent	Block3	incongruent/STIM_013.jpg
2556.984	0.61	correct	incongruent	Block3	incongruent/STIM_014.jpg
2561.518	0.59	correct	incongruent	Block3	incongruent/STIM_014.jpg
2564.27	0.822	correct	incongruent	Block3	incongruent/STIM_014.jpg
2568.308	0.55	correct	incongruent	Block3	incongruent/STIM_014.jpg
2571.236	0.446	correct	incongruent	Block3	incongruent/STIM_014.jpg
2573.781	0.432	correct	incongruent	Block3	incongruent/STIM_015.jpg
2577.046	0.525	correct	incongruent	Block3	incongruent/STIM_015.jpg
2581.188	0.678	correct	incongruent	Block3	incongruent/STIM_015.jpg
2585.116	0.682	correct	incongruent	Block3	incongruent/STIM_015.jpg
2589.757	0.716	correct	incongruent	Block3	incongruent/STIM_015.jpg
2592.77	0.734	correct	incongruent	Block3	incongruent/STIM_016.jpg
2596.598	0.848	correct	incongruent	Block3	incongruent/STIM_016.jpg
2599.877	0.459	correct	incongruent	Block3	incongruent/STIM_016.jpg
2603.807	0.508	correct	incongruent	Block3	incongruent/STIM_016.jpg
2607.288	0.497	correct	incongruent	Block3	incongruent/STIM_016.jpg
2611.677	0.478	correct	incongruent	Block3	incongruent/STIM_017.jpg
2614.533	0.698	correct	incongruent	Block3	incongruent/STIM_017.jpg
2617.934	0.617	correct	incongruent	Block3	incongruent/STIM_017.jpg
2621.41	0.775	correct	incongruent	Block3	incongruent/STIM_017.jpg
2625.716	0.868	correct	incongruent	Block3	incongruent/STIM_017.jpg
2629.825	0.885	correct	incongruent	Block3	incongruent/STIM_018.jpg
2633.793	0.524	correct	incongruent	Block3	incongruent/STIM_018.jpg
2636.472	0.864	correct	incongruent	Block3	incongruent/STIM_018.jpg
2639.642	0.578	correct	incongruent	Block3	incongruent/STIM_018.jpg
2644.186	0.67	correct	incongruent	Block3	incongruent/STIM_018.jpg
2648.278	0.889	correct	incongruent	Block3	incongruent/STIM_019.jpg
2652.356	0.514	correct	incongruent	Block3	incongruent/STIM_019.jpg
2655.355	0.639	correct	incongruent	Block3	incongruent/STIM_019.jpg
2659.773	0.566	correct	incongruent	Block3	incongruent/STIM_019.jpg
2664.394	0.647	correct	incongruent	Block3	incongruent/STIM_019.jpg
2668.952	0.43	correct	incongruent	Block3	incongruent/STIM_020.jpg
2673.113	0.558	correct	incongruent	Block3	incongruent/STIM_020.jpg
2676.206	0.898	correct	incongruent	Block3	incongruent/STIM_020.jpg
2680.861	0.697	correct	incongruent	Block3	incongruent/STIM_020.jpg
2683.959	0.914	correct	incongruent	Block3	incongruent/STIM_020.jpg
2687.97	0.553	correct	incongruent	Block3	incongruent/STIM_021.jpg
2691.1	0.693	correct	incongruent	Block3	incongruent/STIM_021.jpg
2695.687	0.651	correct	incongruent	Block3	incongruent/STIM_021.jpg
2699.039	0.704	correct	incongruent	Block3	incongruent/STIM_021.jpg
2702.645	0.809	correct	incongruent	Block3	incongruent/STIM_021.jpg
2706.314	0.755	correct	incongruent	Block3	incongruent/STIM_022.jpg
2710.142	0.86	correct	incongruent	Block3	incongruent/STIM_022.jpg
2714.63	0.8	correct	incongruent	Block3	incongruent/STIM_022.jpg
2719.012	0.739	correct	incongruent	Block3	incongruent/STIM_022.jpg
2723.381	0.523	correct	incongruent	Block3	incongruent/STIM_022.jpg
2727.607	0.608	correct	incongruent	Block3	incongruent/STIM_023.jpg
2731.242	0.756	correct	incongruent	Block3	incongruent/STIM_023.jpg
2735.703	0.801	correct	incongruent	Block3	incongruent/STIM_023.jpg
2739.474	0.845	correct	incongruent	Block3	incongruent/STIM_023.jpg
2743.157	0.675	correct	incongruent	Block3	incongruent/STIM_023.jpg
2746.645	0.619	correct	incongruent	Block3	incongruent/STIM_024.jpg
2749.911	0.549	correct	incongruent	Block3	incongruent/STIM_024.jpg
2754.455	0.767	correct	incongruent	Block3	incongruent/STIM_024.jpg
2757.834	0.501	correct	incongruent	Block3	incongruent/STIM_024.jpg
2761.582	0.529	correct	incongruent	Block3	incongruent/STIM_024.jpg
2766.004	0.544	correct	incongruent	Block3	incongruent/STIM_025.jpg
2770.309	0.691	correct	incongruent	Block3	incongruent/STIM_025.jpg
2774.831	0.674	correct	incongruent	Block3	incongruent/STIM_025.jpg
2779.436	0.604	correct	incongruent	Block3	incongruent/STIM_025.jpg
2783.171	0.789	correct	incongruent	Block3	incongruent/STIM_025.jpg
2787.674	0.889	correct	incongruent	Block3	incongruent/STIM_026.jpg
2791.85	0.616	correct	incongruent	Block3	incongruent/STIM_026.jpg
2796.487	0.691	correct	incongruent	Block3	incongruent/STIM_026.jpg
2800.636	0.44	correct	incongruent	Block3	incongruent/STIM_026.jpg
2805.05	0.551	correct	incongruent	Block3	incongruent/STIM_026.jpg
2808.498	0.643	correct	incongruent	Block3	incongruent/STIM_027.jpg
2812.994	0.785	correct	incongruent	Block3	incongruent/STIM_027.jpg
2816.11	0.555	correct	incongruent	Block3	incongruent/STIM_027.jpg
2819.03	0.553	correct	incongruent	Block3	incongruent/STIM_027.jpg
2823.377	0.557	correct	incongruent	Block3	incongruent/STIM_027.jpg
2827.499	0.65	incorrect	incongruent	Block3	incongruent/STIM_028.jpg
2830.628	0.512	correct	incongruent	Block3	incongruent/STIM_028.jpg
2833.774	0.665	correct	incongruent	Block3	incongruent/STIM_028.jpg
2837.155	0.57	correct	incongruent	Block3	incongruent/STIM_028.jpg
2840.129	0.728	correct	incongruent	Block3	incongruent/STIM_028.jpg
2843.858	0.575	correct	incongruent	Block3	incongruent/STIM_029.jpg
2847.811	0.449	correct	incongruent	Block3	incongruent/STIM_029.jpg
2850.957	0.585	correct	incongruent	Block3	incongruent/STIM_029.jpg
2853.644	0.693	correct	incongruent	Block3	incongruent/STIM_029.jpg
2856.479	0.677	correct	incongruent	Block3	incongruent/STIM_029.jpg
2861.108	0.538	correct	congruent	Block3	congruent/STIM_000.jpg
2864.568	0.533	correct	congruent	Block3	congruent/STIM_000.jpg
2868.418	0.776	correct	congruent	Block3	congruent/STIM_000.jpg
2872.178	0.77	correct	congruent	Block3	congruent/STIM_000.jpg
2877.052	0.527	correct	congruent	Block3	congruent/STIM_000.jpg
2881.561	0.559	correct	congruent	Block3	congruent/STIM_001.jpg
2885.194	0.768	correct	congruent	Block3	congruent/STIM_001.jpg
2890.065	0.477	correct	congruent	Block3	congruent/STIM_001.jpg
2893.344	0.738	correct	congruent	Block3	congruent/STIM_001.jpg
2896.402	0.535	correct	congruent	Block3	congruent/STIM_001.jpg
2900.898	0.586	correct	congruent	Block3	congruent/STIM_002.jpg
2904.116	0.712	correct	congruent	Block3	congruent/STIM_002.jpg
2908.811	0.663	correct	congruent	Block3	congruent/STIM_002.jpg
2911.999	0.624	correct	congruent	Block3	congruent/STIM_002.jpg
2916.407	0.773	correct	congruent	Block3	congruent/STIM_002.jpg
2920.432	0.504	correct	congruent	Block3	congruent/STIM_003.jpg
2924.59	0.544	incorrect	congruent	Block3	congruent/STIM_003.jpg
2927.85	0.48	correct	congruent	Block3	congruent/STIM_003.jpg
2931.167	0.65	correct	congruent	Block3	congruent/STIM_003.jpg
2934.288	0.589	correct	congruent	Block3	congruent/STIM_003.jpg
2937.123	0.674	correct	congruent	Block3	congruent/STIM_004.jpg
2940.68	0.661	correct	congruent	Block3	congruent/STIM_004.jpg
2943.522	0.52	correct	congruent	Block3	congruent/STIM_004.jpg
2946.292	0.458	correct	congruent	Block3	congruent/STIM_004.jpg
2950.318	0.467	correct	congruent	Block3	congruent/STIM_004.jpg
2953.235	0.741	correct	congruent	Block3	congruent/STIM_005.jpg
2957.658	0.555	correct	congruent	Block3	congruent/STIM_005.jpg
2961.508	0.58	correct	congruent	Block3	congruent/STIM_005.jpg
2964.405	0.668	correct	congruent	Block3	congruent/STIM_005.jpg
2968.77	0.681	incorrect	congruent	Block3	congruent/STIM_005.jpg
2973.336	0.641	correct	congruent	Block3	congruent/STIM_006.jpg
2977.934	0.736	correct	congruent	Block3	congruent/STIM_006.jpg
2980.825	0.612	correct	congruent	Block3	congruent/STIM_006.jpg
2983.862	0.576	incorrect	congruent	Block3	congruent/STIM_006.jpg
2987.857	0.525	correct	congruent	Block3	congruent/STIM_006.jpg
2992.202	0.759	correct	congruent	Block3	congruent/STIM_007.jpg
2996.453	0.74	correct	congruent	Block3	congruent/STIM_007.jpg
3000.006	0.542	correct	congruent	Block3	congruent/STIM_007.jpg
3003.433	0.505	correct	congruent	Block3	congruent/STIM_007.jpg
3006.049	0.585	incorrect	congruent	Block3	congruent/STIM_007.jpg
3010.546	0.749	correct	congruent	Block3	congruent/STIM_008.jpg
3014.137	0.754	correct	congruent	Block3	congruent/STIM_008.jpg
3017.818	0.53	correct	congruent	Block3	congruent/STIM_008.jpg
3021.402	0.698	correct	congruent	Block3	congruent/STIM_008.jpg
3024.773	0.734	correct	congruent	Block3	congruent/STIM_008.jpg
3027.656	0.633	correct	congruent	Block3	congruent/STIM_009.jpg
3031.898	0.607	correct	congruent	Block3	congruent/STIM_009.jpg
3035.726	0.765	correct	congruent	Block3	congruent/STIM_009.jpg
3040.074	0.717	correct	congruent	Block3	congruent/STIM_009.jpg
3043.543	0.565	correct	congruent	Block3	congruent/STIM_009.jpg
3046.505	0.617	correct	congruent	Block3	congruent/STIM_010.jpg
3049.493	0.644	correct	congruent	Block3	congruent/STIM_010.jpg
3052.682	0.64	correct	congruent	Block3	congruent/STIM_010.jpg
3056.198	0.773	correct	congruent	Block3	congruent/STIM_010.jpg
3059.956	0.785	correct	congruent	Block3	congruent/STIM_010.jpg
3064.389	0.628	correct	congruent	Block3	congruent/STIM_011.jpg
3068.283	0.671	incorrect	congruent	Block3	congruent/STIM_011.jpg
3071.353	0.528	correct	congruent	Block3	congruent/STIM_011.jpg
3075.584	0.6	correct	congruent	Block3	congruent/STIM_011.jpg
3078.956	0.493	correct	congruent	Block3	congruent/STIM_011.jpg
3083.202	0.623	correct	congruent	Block3	congruent/STIM_012.jpg
3086.523	0.715	correct	congruent	Block3	congruent/STIM_012.jpg
3090.201	0.514	correct	congruent	Block3	congruent/STIM_012.jpg
3093.668	0.687	correct	congruent	Block3	congruent/STIM_012.jpg
3097.803	0.627	incorrect	congruent	Block3	congruent/STIM_012.jpg
3101.349	0.64	correct	congruent	Block3	congruent/STIM_013.jpg
3104.655	0.469	correct	congruent	Block3	congruent/STIM_013.jpg
3109.167	0.446	correct	congruent	Block3	congruent/STIM_013.jpg
3112.088	0.664	correct	congruent	Block3	congruent/STIM_013.jpg
3115.907	0.531	correct	congruent	Block3	congruent/STIM_013.jpg
3120.366	0.647	correct	congruent	Block3	congruent/STIM_014.jpg
3124.331	0.493	correct	congruent	Block3	congruent/STIM_014.jpg
3127.582	0.659	correct	congruent	Block3	congruent/STIM_014.jpg
3131.368	0.685	correct	congruent	Block3	congruent/STIM_014.jpg
3134.295	0.629	correct	congruent	Block3	congruent/STIM_014.jpg
3137.425	0.751	correct	congruent	Block3	congruent/STIM_015.jpg
3141.115	0.774	correct	congruent	Block3	congruent/STIM_015.jpg
3144.127	0.65	correct	congruent	Block3	congruent/STIM_015.jpg
3148.849	0.537	correct	congruent	Block3	congruent/STIM_015.jpg
3153.178	0.439	correct	congruent	Block3	congruent/STIM_015.jpg
3156.6	0.722	correct	congruent	Block3	congruent/STIM_016.jpg
3159.661	0.478	correct	congruent	Block3	congruent/STIM_016.jpg
3162.245	0.491	correct	congruent	Block3	congruent/STIM_016.jpg
3165.391	0.549	correct	congruent	Block3	congruent/STIM_016.jpg
3168.229	0.722	correct	congruent	Block3	congruent/STIM_016.jpg
3171.902	0.756	correct	congruent	Block3	congruent/STIM_017.jpg
3176.165	0.453	correct	congruent	Block3	congruent/STIM_017.jpg
3180.191	0.623	correct	congruent	Block3	congruent/STIM_017.jpg
3183.744	0.458	correct	congruent	Block3	congruent/STIM_017.jpg
3188.07	0.589	correct	congruent	Block3	congruent/STIM_017.jpg
3192.254	0.548	correct	congruent	Block3	congruent/STIM_018.jpg
3196.806	0.653	correct	congruent	Block3	congruent/STIM_018.jpg
3200.426	0.602	correct	congruent	Block3	congruent/STIM_018.jpg
3204.741	0.495	incorrect	congruent	Block3	congruent/STIM_018.jpg
3209.249	0.506	correct	congruent	Block3	congruent/STIM_018.jpg
3213.446	0.588	correct	congruent	Block3	congruent/STIM_019.jpg
3216.475	0.475	correct	congruent	Block3	congruent/STIM_019.jpg
3219.347	0.668	incorrect	congruent	Block3	congruent/STIM_019.jpg
3222.549	0.504	correct	congruent	Block3	congruent/STIM_019.jpg
3226.412	0.68	correct	congruent	Block3	congruent/STIM_019.jpg
3229.583	0.652	correct	congruent	Block3	congruent/STIM_020.jpg
3233.571	0.744	correct	congruent	Block3	congruent/STIM_020.jpg
3237.674	0.604	correct	congruent	Block3	congruent/STIM_020.jpg
3241.38	0.495	correct	congruent	Block3	congruent/STIM_020.jpg
3245.524	0.646	correct	congruent	Block3	congruent/STIM_020.jpg
3248.518	0.748	correct	congruent	Block3	congruent/STIM_021.jpg
3252.006	0.65	correct	congruent	Block3	congruent/STIM_021.jpg
3256.28	0.742	correct	congruent	Block3	congruent/STIM_021.jpg
3259.258	0.77	correct	congruent	Block3	congruent/STIM_021.jpg
3262.484	0.518	correct	congruent	Block3	congruent/STIM_021.jpg
3266.487	0.771	correct	congruent	Block3	congruent/STIM_022.jpg
3270.252	0.743	correct	congruent	Block3	congruent/STIM_022.jpg
3274.013	0.737	correct	congruent	Block3	congruent/STIM_022.jpg
3278.785	0.747	incorrect	congruent	Block3	congruent/STIM_022.jpg
3282.449	0.578	correct	congruent	Block3	congruent/STIM_022.jpg
3285.914	0.598	correct	congruent	Block3	congruent/STIM_023.jpg
3289.343	0.786	correct	congruent	Block3	congruent/STIM_023.jpg
3292.793	0.462	correct	congruent	Block3	congruent/STIM_023.jpg
3295.988	0.678	correct	congruent	Block3	congruent/STIM_023.jpg
3300.099	0.557	correct	congruent	Block3	congruent/STIM_023.jpg
3302.888	0.583	correct	congruent	Block3	congruent/STIM_024.jpg
3306.301	0.652	correct	congruent	Block3	congruent/STIM_024.jpg
3309.664	0.659	correct	congruent	Block3	congruent/STIM_024.jpg
3313.792	0.674	correct	congruent	Block3	congruent/STIM_024.jpg
3318.155	0.682	correct	congruent	Block3	congruent/STIM_024.jpg
3322.242	0.742	correct	congruent	Block3	congruent/STIM_025.jpg
3326.026	0.611	correct	congruent	Block3	congruent/STIM_025.jpg
3329.945	0.746	correct	congruent	Block3	congruent/STIM_025.jpg
3333.984	0.545	correct	congruent	Block3	congruent/STIM_025.jpg
3338.238	0.45	correct	congruent	Block3	congruent/STIM_025.jpg
3341.117	0.498	correct	congruent	Block3	congruent/STIM_026.jpg
3343.741	0.697	correct	congruent	Block3	congruent/STIM_026.jpg
3348.351	0.568	correct	congruent	Block3	congruent/STIM_026.jpg
3352.862	0.661	correct	congruent	Block3	congruent/STIM_026.jpg
3356.037	0.555	correct	congruent	Block3	congruent/STIM_026.jpg
3360.482	0.72	correct	congruent	Block3	congruent/STIM_027.jpg
3363.374	0.609	correct	congruent	Block3	congruent/STIM_027.jpg
3366.353	0.657	correct	congruent	Block3	congruent/STIM_027.jpg
3370.198	0.76	correct	congruent	Block3	congruent/STIM_027.jpg
3375.025	0.587	correct	congruent	Block3	congruent/STIM_027.jpg
3379.436	0.744	correct	congruent	Block3	congruent/STIM_028.jpg
3383.028	0.614	correct	congruent	Block3	congruent/STIM_028.jpg
3387.658	0.658	correct	congruent	Block3	congruent/STIM_028.jpg
3390.785	0.701	incorrect	congruent	Block3	congruent/STIM_028.jpg
3394.05	0.558	correct	congruent	Block3	congruent/STIM_028.jpg
3397.044	0.528	correct	congruent	Block3	congruent/STIM_029.jpg
3401.227	0.647	correct	congruent	Block3	congruent/STIM_029.jpg
3404.19	0.496	correct	congruent	Block3	congruent/STIM_029.jpg
3407.118	0.523	correct	congruent	Block3	congruent/STIM_029.jpg
3411.706	0.556	correct	congruent	Block3	congruent/STIM_029.jpg
