onset	duration	accuracy	trial_type	learning_stage	stimulus
0.0	2.729	correct	navigation	Trial1	navigation/STIM_000.jpg
5.538	5.684	correct	navigation	Trial1	navigation/STIM_000.jpg
13.458	4.543	correct	navigation	Trial1	navigation/STIM_000.jpg
21.019	4.045	correct	navigation	Trial1	navigation/STIM_000.jpg
28.369	3.145	correct	navigation	Trial1	navigation/STIM_000.jpg
34.977	4.389	correct	navigation	Trial1	navigation/STIM_000.jpg
42.066	4.389	correct	navigation	Trial1	navigation/STIM_001.jpg
49.693	3.357	correct	navigation	Trial1	navigation/STIM_001.jpg
55.889	3.386	incorrect	navigation	Trial1	navigation/STIM_001.jpg
61.854	4.189	correct	navigation	Trial1	navigation/STIM_001.jpg
68.796	2.954	incorrect	navigation	Trial1	navigation/STIM_001.jpg
74.0	3.141	correct	navigation	Trial1	navigation/STIM_001.jpg
80.526	5.83	correct	navigation	Trial1	navigation/STIM_002.jpg
88.732	2.863	correct	navigation	Trial1	navigation/STIM_002.jpg
94.236	2.574	correct	navigation	Trial1	navigation/STIM_002.jpg
100.647	4.59	correct	navigation	Trial1	navigation/STIM_002.jpg
108.209	3.976	correct	navigation	Trial1	navigation/STIM_002.jpg
114.864	2.589	correct	navigation	Trial1	navigation/STIM_002.jpg
119.817	3.561	correct	navigation	Trial1	navigation/STIM_003.jpg
125.491	4.749	incorrect	navigation	Trial1	navigation/STIM_003.jpg
133.348	3.948	correct	navigation	Trial1	navigation/STIM_003.jpg
140.592	3.712	correct	navigation	Trial1	navigation/STIM_003.jpg
147.57	3.137	correct	navigation	Trial1	navigation/STIM_003.jpg
153.643	2.542	correct	navigation	Trial1	navigation/STIM_003.jpg
158.681	5.13	correct	navigation	Trial1	navigation/STIM_004.jpg
165.874	5.742	correct	navigation	Trial1	navigation/STIM_004.jpg
175.133	4.934	correct	navigation	Trial1	navigation/STIM_004.jpg
183.27	2.214	incorrect	navigation	Trial1	navigation/STIM_004.jpg
189.271	4.498	correct	navigation	Trial1	navigation/STIM_004.jpg
196.612	4.187	incorrect	navigation	Trial1	navigation/STIM_004.jpg
204.388	5.692	incorrect	navigation	Trial1	navigation/STIM_005.jpg
212.853	5.654	correct	navigation	Trial1	navigation/STIM_005.jpg
220.869	3.195	correct	navigation	Trial1	navigation/STIM_005.jpg
227.409	4.802	correct	navigation	Trial1	navigation/STIM_005.jpg
234.302	2.207	correct	navigation	Trial1	navigation/STIM_005.jpg
239.952	4.122	correct	navigation	Trial1	navigation/STIM_005.jpg
248.02	5.459	incorrect	navigation	Trial1	navigation/STIM_006.jpg
256.856	4.932	incorrect	navigation	Trial1	navigation/STIM_006.jpg
264.75	4.607	incorrect	navigation	Trial1	navigation/STIM_006.jpg
272.013	4.963	correct	navigation	Trial1	navigation/STIM_006.jpg
279.065	4.547	incorrect	navigation	Trial1	navigation/STIM_006.jpg
286.03	3.47	correct	navigation	Trial1	navigation/STIM_006.jpg
291.815	5.76	incorrect	navigation	Trial1	navigation/STIM_007.jpg
300.094	4.091	correct	navigation	Trial1	navigation/STIM_007.jpg
306.462	2.436	incorrect	navigation	Trial1	navigation/STIM_007.jpg
312.842	2.654	correct	navigation	Trial1	navigation/STIM_007.jpg
318.481	2.401	correct	navigation	Trial1	navigation/STIM_007.jpg
323.137	2.777	incorrect	navigation	Trial1	navigation/STIM_007.jpg
329.055	5.66	incorrect	navigation	Trial1	navigation/STIM_008.jpg
336.901	3.71	correct	navigation	Trial1	navigation/STIM_008.jpg
344.314	2.799	correct	navigation	Trial1	navigation/STIM_008.jpg
349.789	3.678	incorrect	navigation	Trial1	navigation/STIM_008.jpg
357.375	3.514	correct	navigation	Trial1	navigation/STIM_008.jpg
364.485	2.148	correct	navigation	Trial1	navigation/STIM_008.jpg
369.488	2.863	incorrect	navigation	Trial1	navigation/STIM_009.jpg
375.759	4.709	correct	navigation	Trial1	navigation/STIM_009.jpg
382.486	2.804	correct	navigation	Trial1	navigation/STIM_009.jpg
389.049	4.087	correct	navigation	Trial1	navigation/STIM_009.jpg
395.911	3.308	correct	navigation	Trial1	navigation/STIM_009.jpg
402.567	3.453	incorrect	navigation	Trial1	navigation/STIM_009.jpg
408.361	2.927	correct	navigation	Trial1	navigation/STIM_010.jpg
413.729	3.208	correct	navigation	Trial1	navigation/STIM_010.jpg
419.353	4.287	incorrect	navigation	Trial1	navigation/STIM_010.jpg
425.817	4.878	correct	navigation	Trial1	navigation/STIM_010.jpg
434.084	4.736	correct	navigation	Trial1	navigation/STIM_010.jpg
441.593	4.098	incorrect	navigation	Trial1	navigation/STIM_010.jpg
449.391	3.187	correct	navigation	Trial1	navigation/STIM_011.jpg
455.867	3.709	incorrect	navigation	Trial1	navigation/STIM_011.jpg
461.732	4.689	incorrect	navigation	Trial1	navigation/STIM_011.jpg
468.841	2.251	correct	navigation	Trial1	navigation/STIM_011.jpg
473.659	4.146	incorrect	navigation	Trial1	navigation/STIM_011.jpg
480.258	3.498	correct	navigation	Trial1	navigation/STIM_011.jpg
486.156	1.099	correct	pointing	Trial1	pointing/STIM_000.jpg
490.902	1.12	correct	pointing	Trial1	pointing/STIM_000.jpg
494.11	1.721	correct	pointing	Trial1	pointing/STIM_000.jpg
498.036	1.153	correct	pointing	Trial1	pointing/STIM_000.jpg
502.091	1.311	correct	pointing	Trial1	pointing/STIM_000.jpg
507.184	1.258	correct	pointing	Trial1	pointing/STIM_000.jpg
512.056	1.095	correct	pointing	Trial1	pointing/STIM_001.jpg
516.915	1.489	correct	pointing	Trial1	pointing/STIM_001.jpg
520.684	1.256	correct	pointing	Trial1	pointing/STIM_001.jpg
524.517	1.334	correct	pointing	Trial1	pointing/STIM_001.jpg
529.171	1.012	correct	pointing	Trial1	pointing/STIM_001.jpg
533.287	1.076	correct	pointing	Trial1	pointing/STIM_001.jpg
536.454	1.666	correct	pointing	Trial1	pointing/STIM_002.jpg
541.293	1.472	incorrect	pointing	Trial1	pointing/STIM_002.jpg
545.989	1.781	correct	pointing	Trial1	pointing/STIM_002.jpg
550.517	1.782	incorrect	pointing	Trial1	pointing/STIM_002.jpg
554.346	1.105	correct	pointing	Trial1	pointing/STIM_002.jpg
559.127	1.423	correct	pointing	Trial1	pointing/STIM_002.jpg
563.367	1.584	correct	pointing	Trial1	pointing/STIM_003.jpg
567.937	1.03	incorrect	pointing	Trial1	pointing/STIM_003.jpg
571.414	1.11	correct	pointing	Trial1	pointing/STIM_003.jpg
574.652	1.089	correct	pointing	Trial1	pointing/STIM_003.jpg
577.815	1.538	correct	pointing	Trial1	pointing/STIM_003.jpg
581.524	1.421	incorrect	pointing	Trial1	pointing/STIM_003.jpg
585.265	1.185	correct	pointing	Trial1	pointing/STIM_004.jpg
590.111	1.143	correct	pointing	Trial1	pointing/STIM_004.jpg
593.27	1.724	correct	pointing	Trial1	pointing/STIM_004.jpg
598.193	1.204	correct	pointing	Trial1	pointing/STIM_004.jpg
602.18	1.807	correct	pointing	Trial1	pointing/STIM_004.jpg
607.236	1.055	correct	pointing	Trial1	pointing/STIM_004.jpg
610.83	1.833	correct	pointing	Trial1	pointing/STIM_005.jpg
616.194	1.131	correct	pointing	Trial1	pointing/STIM_005.jpg
621.05	1.757	correct	pointing	Trial1	pointing/STIM_005.jpg
625.313	1.773	correct	pointing	Trial1	pointing/STIM_005.jpg
630.387	1.495	correct	pointing	Trial1	pointing/STIM_005.jpg
634.116	1.336	correct	pointing	Trial1	pointing/STIM_005.jpg
637.619	1.018	incorrect	pointing	Trial1	pointing/STIM_006.jpg
641.924	0.994	correct	pointing	Trial1	pointing/STIM_006.jpg
646.771	1.596	correct	pointing	Trial1	pointing/STIM_006.jpg
651.593	1.539	correct	pointing	Trial1	pointing/STIM_006.jpg
656.665	0.985	incorrect	pointing	Trial1	pointing/STIM_006.jpg
660.104	1.792	correct	pointing	Trial1	pointing/STIM_006.jpg
664.863	1.492	correct	pointing	Trial1	pointing/STIM_007.jpg
668.447	0.993	correct	pointing	Trial1	pointing/STIM_007.jpg
672.323	1.762	incorrect	pointing	Trial1	pointing/STIM_007.jpg
676.583	1.386	incorrect	pointing	Trial1	pointing/STIM_007.jpg
680.99	1.302	incorrect	pointing	Trial1	pointing/STIM_007.jpg
684.56	1.8	correct	pointing	Trial1	pointing/STIM_007.jpg
688.605	1.762	correct	pointing	Trial1	pointing/STIM_008.jpg
693.221	1.166	correct	pointing	Trial1	pointing/STIM_008.jpg
697.582	1.463	correct	pointing	Trial1	pointing/STIM_008.jpg
702.897	1.596	correct	pointing	Trial1	pointing/STIM_008.jpg
707.944	1.168	incorrect	pointing	Trial1	pointing/STIM_008.jpg
711.449	1.171	correct	pointing	Trial1	pointing/STIM_008.jpg
716.181	1.189	correct	pointing	Trial1	pointing/STIM_009.jpg
719.401	1.51	correct	pointing	Trial1	pointing/STIM_009.jpg
723.93	1.63	correct	pointing	Trial1	pointing/STIM_009.jpg
728.282	1.396	correct	pointing	Trial1	pointing/STIM_009.jpg
731.701	1.29	correct	pointing	Trial1	pointing/STIM_009.jpg
735.317	1.417	correct	pointing	Trial1	pointing/STIM_009.jpg
739.58	1.099	correct	pointing	Trial1	pointing/STIM_010.jpg
742.765	1.024	correct	pointing	Trial1	pointing/STIM_010.jpg
746.774	1.159	correct	pointing	Trial1	pointing/STIM_010.jpg
751.005	1.651	correct	pointing	Trial1	pointing/STIM_010.jpg
755.539	1.309	correct	pointing	Trial1	pointing/STIM_010.jpg
760.361	1.02	correct	pointing	Trial1	pointing/STIM_010.jpg
763.441	1.084	incorrect	pointing	Trial1	pointing/STIM_011.jpg
767.76	1.193	correct	pointing	Trial1	pointing/STIM_011.jpg
771.054	1.737	incorrect	pointing	Trial1	pointing/STIM_011.jpg
775.716	1.513	incorrect	pointing	Trial1	pointing/STIM_011.jpg
780.708	1.453	correct	pointing	Trial1	pointing/STIM_011.jpg
785.978	1.296	correct	pointing	Trial1	pointing/STIM_011.jpg
790.288	3.296	correct	navigation	Trial2	navigation/STIM_000.jpg
796.711	3.953	correct	navigation	Trial2	navigation/STIM_000.jpg
804.526	3.454	incorrect	navigation	Trial2	navigation/STIM_000.jpg
810.48	4.003	correct	navigation	Trial2	navigation/STIM_000.jpg
817.259	2.573	correct	navigation	Trial2	navigation/STIM_000.jpg
822.041	3.135	correct	navigation	Trial2	navigation/STIM_000.jpg
828.708	3.308	incorrect	navigation	Trial2	navigation/STIM_001.jpg
835.735	3.658	correct	navigation	Trial2	navigation/STIM_001.jpg
843.041	1.93	correct	navigation	Trial2	navigation/STIM_001.jpg
848.739	2.736	correct	navigation	Trial2	navigation/STIM_001.jpg
853.948	2.728	incorrect	navigation	Trial2	navigation/STIM_001.jpg
858.875	3.698	correct	navigation	Trial2	navigation/STIM_001.jpg
866.058	4.827	correct	navigation	Trial2	navigation/STIM_002.jpg
874.027	3.48	correct	navigation	Trial2	navigation/STIM_002.jpg
881.418	3.828	incorrect	navigation	Trial2	navigation/STIM_002.jpg
888.627	2.86	correct	navigation	Trial2	navigation/STIM_002.jpg
894.756	4.275	incorrect	navigation	Trial2	navigation/STIM_002.jpg
901.215	3.171	correct	navigation	Trial2	navigation/STIM_002.jpg
907.2	3.541	correct	navigation	Trial2	navigation/STIM_003.jpg
913.655	3.399	incorrect	navigation	Trial2	navigation/STIM_003.jpg
919.456	4.57	incorrect	navigation	Trial2	navigation/STIM_003.jpg
926.996	2.2	correct	navigation	Trial2	navigation/STIM_003.jpg
932.538	3.549	correct	navigation	Trial2	navigation/STIM_003.jpg
939.003	4.034	incorrect	navigation	Trial2	navigation/STIM_003.jpg
945.601	4.816	correct	navigation	Trial2	navigation/STIM_004.jpg
953.064	3.787	incorrect	navigation	Trial2	navigation/STIM_004.jpg
960.187	3.423	correct	navigation	Trial2	navigation/STIM_004.jpg
966.453	2.542	correct	navigation	Trial2	navigation/STIM_004.jpg
971.165	2.455	correct	navigation	Trial2	navigation/STIM_004.jpg
975.75	3.549	incorrect	navigation	Trial2	navigation/STIM_004.jpg
983.182	3.035	incorrect	navigation	Trial2	navigation/STIM_005.jpg
989.627	3.745	incorrect	navigation	Trial2	navigation/STIM_005.jpg
997.24	3.129	incorrect	navigation	Trial2	navigation/STIM_005.jpg
1003.211	3.41	correct	navigation	Trial2	navigation/STIM_005.jpg
1008.932	2.846	correct	navigation	Trial2	navigation/STIM_005.jpg
1014.155	3.072	correct	navigation	Trial2	navigation/STIM_005.jpg
1019.365	2.67	correct	navigation	Trial2	navigation/STIM_006.jpg
1025.096	3.286	correct	navigation	Trial2	navigation/STIM_006.jpg
1030.858	1.864	correct	navigation	Trial2	navigation/STIM_006.jpg
1035.576	3.115	correct	navigation	Trial2	navigation/STIM_006.jpg
1042.067	3.207	incorrect	navigation	Trial2	navigation/STIM_006.jpg
1048.886	3.199	incorrect	navigation	Trial2	navigation/STIM_006.jpg
1054.784	4.754	incorrect	navigation	Trial2	navigation/STIM_007.jpg
1061.548	3.595	correct	navigation	Trial2	navigation/STIM_007.jpg
1068.278	3.309	incorrect	navigation	Trial2	navigation/STIM_007.jpg
1074.199	3.153	correct	navigation	Trial2	navigation/STIM_007.jpg
1080.413	2.292	correct	navigation	Trial2	navigation/STIM_007.jpg
1084.856	2.339	incorrect	navigation	Trial2	navigation/STIM_007.jpg
1090.658	2.454	incorrect	navigation	Trial2	navigation/STIM_008.jpg
1096.809	4.351	correct	navigation	Trial2	navigation/STIM_008.jpg
1104.4	2.559	correct	navigation	Trial2	navigation/STIM_008.jpg
1109.754	3.464	correct	navigation	Trial2	navigation/STIM_008.jpg
1117.135	3.324	correct	navigation	Trial2	navigation/STIM_008.jpg
1123.083	2.495	correct	navigation	Trial2	navigation/STIM_008.jpg
1128.891	2.504	correct	navigation	Trial2	navigation/STIM_009.jpg
1133.682	3.881	correct	navigation	Trial2	navigation/STIM_009.jpg
1141.439	3.952	correct	navigation	Trial2	navigation/STIM_009.jpg
1147.596	3.325	correct	navigation	Trial2	navigation/STIM_009.jpg
1154.212	2.43	correct	navigation	Trial2	navigation/STIM_009.jpg
1159.418	2.104	incorrect	navigation	Trial2	navigation/STIM_009.jpg
1164.496	2.534	correct	navigation	Trial2	navigation/STIM_010.jpg
1170.286	3.627	incorrect	navigation	Trial2	navigation/STIM_010.jpg
1177.458	4.582	correct	navigation	Trial2	navigation/STIM_010.jpg
1184.17	2.9	correct	navigation	Trial2	navigation/STIM_010.jpg
1191.013	3.814	correct	navigation	Trial2	navigation/STIM_010.jpg
1198.606	3.178	correct	navigation	Trial2	navigation/STIM_010.jpg
1204.484	3.072	correct	navigation	Trial2	navigation/STIM_011.jpg
1211.474	4.055	correct	navigation	Trial2	navigation/STIM_011.jpg
1218.605	2.461	incorrect	navigation	Trial2	navigation/STIM_011.jpg
1224.943	2.023	correct	navigation	Trial2	navigation/STIM_011.jpg
1228.98	3.222	correct	navigation	Trial2	navigation/STIM_011.jpg
1236.085	1.838	correct	navigation	Trial2	navigation/STIM_011.jpg
1241.311	1.022	correct	pointing	Trial2	pointing/STIM_000.jpg
1245.062	1.284	correct	pointing	Trial2	pointing/STIM_000.jpg
1249.873	1.355	correct	pointing	Trial2	pointing/STIM_000.jpg
1253.352	1.548	correct	pointing	Trial2	pointing/STIM_000.jpg
1258.445	1.795	correct	pointing	Trial2	pointing/STIM_000.jpg
1263.745	1.062	incorrect	pointing	Trial2	pointing/STIM_000.jpg
1267.304	0.989	correct	pointing	Trial2	pointing/STIM_001.jpg
1270.696	1.792	correct	pointing	Trial2	pointing/STIM_001.jpg
1275.0	1.742	correct	pointing	Trial2	pointing/STIM_001.jpg
1280.465	1.122	incorrect	pointing	Trial2	pointing/STIM_001.jpg
1285.294	1.641	correct	pointing	Trial2	pointing/STIM_001.jpg
1289.145	1.544	correct	pointing	Trial2	pointing/STIM_001.jpg
1293.815	1.531	correct	pointing	Trial2	pointing/STIM_002.jpg
1297.93	1.832	correct	pointing	Trial2	pointing/STIM_002.jpg
1301.976	1.102	correct	pointing	Trial2	pointing/STIM_002.jpg
1306.629	1.664	correct	pointing	Trial2	pointing/STIM_002.jpg
1311.541	1.698	incorrect	pointing	Trial2	pointing/STIM_002.jpg
1317.146	1.33	correct	pointing	Trial2	pointing/STIM_002.jpg
1322.14	1.326	correct	pointing	Trial2	pointing/STIM_003.jpg
1327.083	1.83	incorrect	pointing	Trial2	pointing/STIM_003.jpg
1331.469	1.229	incorrect	pointing	Trial2	pointing/STIM_003.jpg
1334.787	1.754	correct	pointing	Trial2	pointing/STIM_003.jpg
1338.575	1.726	incorrect	pointing	Trial2	pointing/STIM_003.jpg
1343.116	1.825	correct	pointing	Trial2	pointing/STIM_003.jpg
1348.274	1.379	correct	pointing	Trial2	pointing/STIM_004.jpg
1352.251	1.257	correct	pointing	Trial2	pointing/STIM_004.jpg
1356.342	1.353	incorrect	pointing	Trial2	pointing/STIM_004.jpg
1360.692	1.342	correct	pointing	Trial2	pointing/STIM_004.jpg
1365.652	1.716	incorrect	pointing	Trial2	pointing/STIM_004.jpg
1369.597	1.012	correct	pointing	Trial2	pointing/STIM_004.jpg
1372.966	1.505	correct	pointing	Trial2	pointing/STIM_005.jpg
1378.335	1.698	incorrect	pointing	Trial2	pointing/STIM_005.jpg
1382.647	1.729	incorrect	pointing	Trial2	pointing/STIM_005.jpg
1386.714	1.353	correct	pointing	Trial2	pointing/STIM_005.jpg
1390.144	1.008	correct	pointing	Trial2	pointing/STIM_005.jpg
1393.361	1.611	correct	pointing	Trial2	pointing/STIM_005.jpg
1397.439	1.069	incorrect	pointing	Trial2	pointing/STIM_006.jpg
1401.684	1.376	correct	pointing	Trial2	pointing/STIM_006.jpg
1405.206	1.045	correct	pointing	Trial2	pointing/STIM_006.jpg
1408.442	1.2	correct	pointing	Trial2	pointing/STIM_006.jpg
1412.565	1.23	correct	pointing	Trial2	pointing/STIM_006.jpg
1417.294	1.094	correct	pointing	Trial2	pointing/STIM_006.jpg
1422.006	1.619	correct	pointing	Trial2	pointing/STIM_007.jpg
1425.913	1.733	correct	pointing	Trial2	pointing/STIM_007.jpg
1431.137	1.225	correct	pointing	Trial2	pointing/STIM_007.jpg
1435.001	1.751	correct	pointing	Trial2	pointing/STIM_007.jpg
1440.159	1.564	incorrect	pointing	Trial2	pointing/STIM_007.jpg
1444.054	1.684	correct	pointing	Trial2	pointing/STIM_007.jpg
1449.431	1.259	correct	pointing	Trial2	pointing/STIM_008.jpg
1454.166	1.391	incorrect	pointing	Trial2	pointing/STIM_008.jpg
1458.119	1.349	correct	pointing	Trial2	pointing/STIM_008.jpg
1463.318	1.358	correct	pointing	Trial2	pointing/STIM_008.jpg
1468.489	1.651	correct	pointing	Trial2	pointing/STIM_008.jpg
1473.802	1.734	correct	pointing	Trial2	pointing/STIM_008.jpg
1477.777	1.756	correct	pointing	Trial2	pointing/STIM_009.jpg
1481.829	1.358	correct	pointing	Trial2	pointing/STIM_009.jpg
1485.569	1.658	correct	pointing	Trial2	pointing/STIM_009.jpg
1490.618	1.72	incorrect	pointing	Trial2	pointing/STIM_009.jpg
1496.257	1.402	incorrect	pointing	Trial2	pointing/STIM_009.jpg
1501.523	1.569	correct	pointing	Trial2	pointing/STIM_009.jpg
1505.499	1.052	correct	pointing	Trial2	pointing/STIM_010.jpg
1508.597	1.823	correct	pointing	Trial2	pointing/STIM_010.jpg
1512.619	1.402	correct	pointing	Trial2	pointing/STIM_010.jpg
1516.264	1.535	correct	pointing	Trial2	pointing/STIM_010.jpg
1520.112	1.499	incorrect	pointing	Trial2	pointing/STIM_010.jpg
1525.156	1.672	correct	pointing	Trial2	pointing/STIM_010.jpg
1529.895	1.298	correct	pointing	Trial2	pointing/STIM_011.jpg
1533.417	1.31	correct	pointing	Trial2	pointing/STIM_011.jpg
1537.675	1.491	incorrect	pointing	Trial2	pointing/STIM_011.jpg
1542.881	1.295	correct	pointing	Trial2	pointing/STIM_011.jpg
1547.207	1.017	correct	pointing	Trial2	pointing/STIM_011.jpg
1550.615	1.249	correct	pointing	Trial2	pointing/STIM_011.jpg
1554.407	3.686	correct	navigation	Trial3	navigation/STIM_000.jpg
1560.847	3.068	correct	navigation	Trial3	navigation/STIM_000.jpg
1566.168	3.173	incorrect	navigation	Trial3	navigation/STIM_000.jpg
1573.12	2.432	incorrect	navigation	Trial3	navigation/STIM_000.jpg
1579.208	2.914	correct	navigation	Trial3	navigation/STIM_000.jpg
1584.659	2.724	correct	navigation	Trial3	navigation/STIM_000.jpg
1590.059	2.707	correct	navigation	Trial3	navigation/STIM_001.jpg
1595.729	1.768	correct	navigation	Trial3	navigation/STIM_001.jpg
1600.855	3.782	incorrect	navigation	Trial3	navigation/STIM_001.jpg
1607.772	3.562	correct	navigation	Trial3	navigation/STIM_001.jpg
1614.312	2.142	incorrect	navigation	Trial3	navigation/STIM_001.jpg
1619.597	1.825	incorrect	navigation	Trial3	navigation/STIM_001.jpg
1624.391	4.0	incorrect	navigation	Trial3	navigation/STIM_002.jpg
1631.532	2.708	correct	navigation	Trial3	navigation/STIM_002.jpg
1637.183	4.275	correct	navigation	Trial3	navigation/STIM_002.jpg
1644.012	2.087	correct	navigation	Trial3	navigation/STIM_002.jpg
1649.326	2.343	incorrect	navigation	Trial3	navigation/STIM_002.jpg
1654.641	2.426	correct	navigation	Trial3	navigation/STIM_002.jpg
1659.19	1.838	correct	navigation	Trial3	navigation/STIM_003.jpg
1664.782	2.206	correct	navigation	Trial3	navigation/STIM_003.jpg
1670.59	3.142	correct	navigation	Trial3	navigation/STIM_003.jpg
1676.247	2.43	incorrect	navigation	Trial3	navigation/STIM_003.jpg
1681.472	4.168	incorrect	navigation	Trial3	navigation/STIM_003.jpg
1687.862	3.592	incorrect	navigation	Trial3	navigation/STIM_003.jpg
1695.036	2.204	correct	navigation	Trial3	navigation/STIM_004.jpg
1699.241	2.257	correct	navigation	Trial3	navigation/STIM_004.jpg
1703.613	2.89	correct	navigation	Trial3	navigation/STIM_004.jpg
1708.629	3.576	correct	navigation	Trial3	navigation/STIM_004.jpg
1714.865	3.824	correct	navigation	Trial3	navigation/STIM_004.jpg
1721.997	2.005	correct	navigation	Trial3	navigation/STIM_004.jpg
1726.957	2.954	correct	navigation	Trial3	navigation/STIM_005.jpg
1733.129	2.912	incorrect	navigation	Trial3	navigation/STIM_005.jpg
1739.227	2.319	correct	navigation	Trial3	navigation/STIM_005.jpg
1744.478	2.02	correct	navigation	Trial3	navigation/STIM_005.jpg
1750.388	3.624	incorrect	navigation	Trial3	navigation/STIM_005.jpg
1757.334	1.882	correct	navigation	Trial3	navigation/STIM_005.jpg
1762.942	4.106	correct	navigation	Trial3	navigation/STIM_006.jpg
1769.7	3.875	incorrect	navigation	Trial3	navigation/STIM_006.jpg
1776.375	2.493	correct	navigation	Trial3	navigation/STIM_006.jpg
1782.207	2.508	correct	navigation	Trial3	navigation/STIM_006.jpg
1786.936	3.796	correct	navigation	Trial3	navigation/STIM_006.jpg
1794.459	3.439	correct	navigation	Trial3	navigation/STIM_006.jpg
1800.616	2.757	correct	navigation	Trial3	navigation/STIM_007.jpg
1806.244	3.691	correct	navigation	Trial3	navigation/STIM_007.jpg
1812.109	2.32	correct	navigation	Trial3	navigation/STIM_007.jpg
1817.732	2.572	incorrect	navigation	Trial3	navigation/STIM_007.jpg
1823.917	3.401	correct	navigation	Trial3	navigation/STIM_007.jpg
1830.72	3.578	correct	navigation	Trial3	navigation/STIM_007.jpg
1837.809	1.756	correct	navigation	Trial3	navigation/STIM_008.jpg
1842.185	4.111	correct	navigation	Trial3	navigation/STIM_008.jpg
1849.977	1.723	correct	navigation	Trial3	navigation/STIM_008.jpg
1854.722	1.883	correct	navigation	Trial3	navigation/STIM_008.jpg
1859.63	3.325	correct	navigation	Trial3	navigation/STIM_008.jpg
1866.945	3.197	correct	navigation	Trial3	navigation/STIM_008.jpg
1872.295	3.097	correct	navigation	Trial3	navigation/STIM_009.jpg
1877.969	2.437	correct	navigation	Trial3	navigation/STIM_009.jpg
1883.125	2.568	correct	navigation	Trial3	navigation/STIM_009.jpg
1889.438	2.469	correct	navigation	Trial3	navigation/STIM_009.jpg
1894.632	2.488	correct	navigation	Trial3	navigation/STIM_009.jpg
1899.456	3.212	incorrect	navigation	Trial3	navigation/STIM_009.jpg
1905.893	1.845	incorrect	navigation	Trial3	navigation/STIM_010.jpg
1910.35	2.36	incorrect	navigation	Trial3	navigation/STIM_010.jpg
1915.983	2.363	correct	navigation	Trial3	navigation/STIM_010.jpg
1921.948	2.575	correct	navigation	Trial3	navigation/STIM_010.jpg
1927.768	4.091	correct	navigation	Trial3	navigation/STIM_010.jpg
1934.973	3.053	incorrect	navigation	Trial3	navigation/STIM_010.jpg
1940.837	3.305	incorrect	navigation	Trial3	navigation/STIM_011.jpg
1946.478	3.487	correct	navigation	Trial3	navigation/STIM_011.jpg
1953.416	2.534	correct	navigation	Trial3	navigation/STIM_011.jpg
1958.855	4.228	correct	navigation	Trial3	navigation/STIM_011.jpg
1966.89	3.776	correct	navigation	Trial3	navigation/STIM_011.jpg
1973.801	4.022	correct	navigation	Trial3	navigation/STIM_011.jpg
1981.758	1.122	correct	pointing	Trial3	pointing/STIM_000.jpg
1985.005	1.103	correct	pointing	Trial3	pointing/STIM_000.jpg
1988.232	1.156	correct	pointing	Trial3	pointing/STIM_000.jpg
1992.109	1.771	incorrect	pointing	Trial3	pointing/STIM_000.jpg
1996.914	1.04	correct	pointing	Trial3	pointing/STIM_000.jpg
2000.298	1.433	correct	pointing	Trial3	pointing/STIM_000.jpg
2003.74	1.542	correct	pointing	Trial3	pointing/STIM_001.jpg
2007.608	1.456	correct	pointing	Trial3	pointing/STIM_001.jpg
2011.238	1.324	incorrect	pointing	Trial3	pointing/STIM_001.jpg
2015.385	1.187	correct	pointing	Trial3	pointing/STIM_001.jpg
2018.73	1.63	incorrect	pointing	Trial3	pointing/STIM_001.jpg
2023.425	1.12	correct	pointing	Trial3	pointing/STIM_001.jpg
2027.506	1.17	correct	pointing	Trial3	pointing/STIM_002.jpg
2032.545	1.807	correct	pointing	Trial3	pointing/STIM_002.jpg
2037.756	1.262	correct	pointing	Trial3	pointing/STIM_002.jpg
2042.064	1.357	correct	pointing	Trial3	pointing/STIM_002.jpg
2045.589	1.638	correct	pointing	Trial3	pointing/STIM_002.jpg
2049.598	1.058	correct	pointing	Trial3	pointing/STIM_002.jpg
2053.539	1.295	correct	pointing	Trial3	pointing/STIM_003.jpg
2058.101	1.454	correct	pointing	Trial3	pointing/STIM_003.jpg
2062.89	1.161	incorrect	pointing	Trial3	pointing/STIM_003.jpg
2067.788	1.526	correct	pointing	Trial3	pointing/STIM_003.jpg
2072.511	1.73	incorrect	pointing	Trial3	pointing/STIM_003.jpg
2076.4	1.779	incorrect	pointing	Trial3	pointing/STIM_003.jpg
2081.041	1.716	correct	pointing	Trial3	pointing/STIM_004.jpg
2086.503	1.571	correct	pointing	Trial3	pointing/STIM_004.jpg
2090.108	1.385	correct	pointing	Trial3	pointing/STIM_004.jpg
2095.374	1.011	correct	pointing	Trial3	pointing/STIM_004.jpg
2100.144	1.542	incorrect	pointing	Trial3	pointing/STIM_004.jpg
2103.763	1.218	incorrect	pointing	Trial3	pointing/STIM_004.jpg
2108.816	1.374	correct	pointing	Trial3	pointing/STIM_005.jpg
2113.538	1.232	correct	pointing	Trial3	pointing/STIM_005.jpg
2117.786	1.215	correct	pointing	Trial3	pointing/STIM_005.jpg
2122.028	1.051	correct	pointing	Trial3	pointing/STIM_005.jpg
2125.95	1.459	correct	pointing	Trial3	pointing/STIM_005.jpg
2129.577	1.157	correct	pointing	Trial3	pointing/STIM_005.jpg
2133.484	1.514	correct	pointing	Trial3	pointing/STIM_006.jpg
2138.287	1.741	correct	pointing	Trial3	pointing/STIM_006.jpg
2143.068	1.819	correct	pointing	Trial3	pointing/STIM_006.jpg
2147.867	1.08	correct	pointing	Trial3	pointing/STIM_006.jpg
2152.834	1.285	correct	pointing	Trial3	pointing/STIM_006.jpg
2157.727	1.423	correct	pointing	Trial3	pointing/STIM_006.jpg
2162.124	1.24	incorrect	pointing	Trial3	pointing/STIM_007.jpg
2166.258	1.632	correct	pointing	Trial3	pointing/STIM_007.jpg
2170.752	1.55	correct	pointing	Trial3	pointing/STIM_007.jpg
2176.202	1.723	correct	pointing	Trial3	pointing/STIM_007.jpg
2180.737	1.626	correct	pointing	Trial3	pointing/STIM_007.jpg
2185.02	1.687	correct	pointing	Trial3	pointing/STIM_007.jpg
2190.482	1.797	incorrect	pointing	Trial3	pointing/STIM_008.jpg
2194.555	1.826	correct	pointing	Trial3	pointing/STIM_008.jpg
2198.996	1.443	correct	pointing	Trial3	pointing/STIM_008.jpg
2203.4	1.464	correct	pointing	Trial3	pointing/STIM_008.jpg
2208.109	1.613	correct	pointing	Trial3	pointing/STIM_008.jpg
2212.68	1.137	correct	pointing	Trial3	pointing/STIM_008.jpg
2216.669	1.719	correct	pointing	Trial3	pointing/STIM_009.jpg
2221.01	1.644	incorrect	pointing	Trial3	pointing/STIM_009.jpg
2226.425	1.7	incorrect	pointing	Trial3	pointing/STIM_009.jpg
2231.118	1.794	correct	pointing	Trial3	pointing/STIM_009.jpg
2236.293	1.465	incorrect	pointing	Trial3	pointing/STIM_009.jpg
2240.334	0.993	correct	pointing	Trial3	pointing/STIM_009.jpg
2245.266	1.781	correct	pointing	Trial3	pointing/STIM_010.jpg
2249.696	1.112	correct	pointing	Trial3	pointing/STIM_010.jpg
2254.588	1.376	correct	pointing	Trial3	pointing/STIM_010.jpg
2258.206	1.657	correct	pointing	Trial3	pointing/STIM_010.jpg
2262.117	1.54	correct	pointing	Trial3	pointing/STIM_010.jpg
2266.73	1.724	correct	pointing	Trial3	pointing/STIM_010.jpg
2270.68	1.636	correct	pointing	Trial3	pointing/STIM_011.jpg
2275.069	1.002	correct	pointing	Trial3	pointing/STIM_011.jpg
2279.995	1.72	correct	pointing	Trial3	pointing/STIM_011.jpg
2285.103	1.049	incorrect	pointing	Trial3	pointing/STIM_011.jpg
2288.164	1.594	correct	pointing	Trial3	pointing/STIM_011.jpg
2292.312	1.219	incorrect	pointing	Trial3	pointing/STIM_011.jpg
