onset	duration	accuracy_binary	trial_type	learning_stage	stimulus
0.0	1.595	1	incongruent	Block1	incongruent/STIM_000.jpg
5.345	1.592	1	incongruent	Block1	incongruent/STIM_000.jpg
10.321	1.285	1	incongruent	Block1	incongruent/STIM_000.jpg
15.123	0.97	1	incongruent	Block1	incongruent/STIM_000.jpg
19.675	0.78	1	incongruent	Block1	incongruent/STIM_000.jpg
23.353	0.936	1	incongruent	Block1	incongruent/STIM_001.jpg
27.887	1.519	1	incongruent	Block1	incongruent/STIM_001.jpg
32.714	0.842	1	incongruent	Block1	incongruent/STIM_001.jpg
36.597	1.26	1	incongruent	Block1	incongruent/STIM_001.jpg
40.263	0.824	1	incongruent	Block1	incongruent/STIM_001.jpg
44.065	1.463	1	incongruent	Block1	incongruent/STIM_002.jpg
48.531	1.61	1	incongruent	Block1	incongruent/STIM_002.jpg
53.275	1.522	1	incongruent	Block1	incongruent/STIM_002.jpg
57.902	0.904	1	incongruent	Block1	incongruent/STIM_002.jpg
62.672	1.024	1	incongruent	Block1	incongruent/STIM_002.jpg
67.284	1.028	1	incongruent	Block1	incongruent/STIM_003.jpg
71.156	1.651	1	incongruent	Block1	incongruent/STIM_003.jpg
75.493	1.566	1	incongruent	Block1	incongruent/STIM_003.jpg
80.597	1.328	0	incongruent	Block1	incongruent/STIM_003.jpg
84.125	0.853	1	incongruent	Block1	incongruent/STIM_003.jpg
87.173	1.649	1	incongruent	Block1	incongruent/STIM_004.jpg
91.082	0.932	1	incongruent	Block1	incongruent/STIM_004.jpg
94.288	1.293	1	incongruent	Block1	incongruent/STIM_004.jpg
99.292	0.888	1	incongruent	Block1	incongruent/STIM_004.jpg
103.311	0.796	1	incongruent	Block1	incongruent/STIM_004.jpg
106.686	1.024	1	incongruent	Block1	incongruent/STIM_005.jpg
110.389	0.808	1	incongruent	Block1	incongruent/STIM_005.jpg
115.109	0.833	1	incongruent	Block1	incongruent/STIM_005.jpg
118.329	1.05	1	incongruent	Block1	incongruent/STIM_005.jpg
122.657	0.873	1	incongruent	Block1	incongruent/STIM_005.jpg
126.703	1.757	1	incongruent	Block1	incongruent/STIM_006.jpg
131.384	1.346	1	incongruent	Block1	incongruent/STIM_006.jpg
135.296	0.861	1	incongruent	Block1	incongruent/STIM_006.jpg
138.521	1.159	1	incongruent	Block1	incongruent/STIM_006.jpg
143.612	1.405	1	incongruent	Block1	incongruent/STIM_006.jpg
148.507	1.636	1	incongruent	Block1	incongruent/STIM_007.jpg
154.026	0.8	1	incongruent	Block1	incongruent/STIM_007.jpg
158.757	1.25	1	incongruent	Block1	incongruent/STIM_007.jpg
163.754	1.428	1	incongruent	Block1	incongruent/STIM_007.jpg
168.727	1.14	1	incongruent	Block1	incongruent/STIM_007.jpg
173.267	1.064	1	incongruent	Block1	incongruent/STIM_008.jpg
178.174	1.153	1	incongruent	Block1	incongruent/STIM_008.jpg
181.814	0.973	1	incongruent	Block1	incongruent/STIM_008.jpg
185.244	1.124	1	incongruent	Block1	incongruent/STIM_008.jpg
188.921	0.93	1	incongruent	Block1	incongruent/STIM_008.jpg
193.341	1.207	1	incongruent	Block1	incongruent/STIM_009.jpg
196.781	0.824	1	incongruent	Block1	incongruent/STIM_009.jpg
201.579	1.329	1	incongruent	Block1	incongruent/STIM_009.jpg
206.072	1.38	1	incongruent	Block1	incongruent/STIM_009.jpg
211.227	0.792	1	incongruent	Block1	incongruent/STIM_009.jpg
215.801	1.028	1	incongruent	Block1	incongruent/STIM_010.jpg
219.769	1.338	1	incongruent	Block1	incongruent/STIM_010.jpg
225.107	1.302	0	incongruent	Block1	incongruent/STIM_010.jpg
228.881	1.295	0	incongruent	Block1	incongruent/STIM_010.jpg
233.173	0.876	1	incongruent	Block1	incongruent/STIM_010.jpg
236.185	0.976	0	incongruent	Block1	incongruent/STIM_011.jpg
240.969	1.144	1	incongruent	Block1	incongruent/STIM_011.jpg
244.165	0.75	1	incongruent	Block1	incongruent/STIM_011.jpg
247.587	1.459	1	incongruent	Block1	incongruent/STIM_011.jpg
252.484	1.313	1	incongruent	Block1	incongruent/STIM_011.jpg
257.63	1.675	1	incongruent	Block1	incongruent/STIM_012.jpg
262.189	1.295	1	incongruent	Block1	incongruent/STIM_012.jpg
267.28	1.357	1	incongruent	Block1	incongruent/STIM_012.jpg
271.21	0.824	1	incongruent	Block1	incongruent/STIM_012.jpg
275.239	1.347	1	incongruent	Block1	incongruent/STIM_012.jpg
278.926	1.096	1	incongruent	Block1	incongruent/STIM_013.jpg
282.947	0.813	1	incongruent	Block1	incongruent/STIM_013.jpg
287.321	1.428	1	incongruent	Block1	incongruent/STIM_013.jpg
292.242	1.19	1	incongruent	Block1	incongruent/STIM_013.jpg
295.632	0.687	1	incongruent	Block1	incongruent/STIM_013.jpg
298.568	0.988	1	incongruent	Block1	incongruent/STIM_014.jpg
303.296	1.275	1	incongruent	Block1	incongruent/STIM_014.jpg
307.541	1.509	1	incongruent	Block1	incongruent/STIM_014.jpg
313.01	1.166	0	incongruent	Block1	incongruent/STIM_014.jpg
317.629	1.026	1	incongruent	Block1	incongruent/STIM_014.jpg
321.477	1.087	1	incongruent	Block1	incongruent/STIM_015.jpg
324.966	1.414	1	incongruent	Block1	incongruent/STIM_015.jpg
329.297	1.194	1	incongruent	Block1	incongruent/STIM_015.jpg
332.855	1.011	1	incongruent	Block1	incongruent/STIM_015.jpg
336.632	1.09	1	incongruent	Block1	incongruent/STIM_015.jpg
340.745	1.184	1	incongruent	Block1	incongruent/STIM_016.jpg
344.083	0.94	1	incongruent	Block1	incongruent/STIM_016.jpg
348.175	1.547	1	incongruent	Block1	incongruent/STIM_016.jpg
353.574	1.257	1	incongruent	Block1	incongruent/STIM_016.jpg
358.53	0.821	1	incongruent	Block1	incongruent/STIM_016.jpg
362.634	1.26	1	incongruent	Block1	incongruent/STIM_017.jpg
367.242	1.558	1	incongruent	Block1	incongruent/STIM_017.jpg
370.909	1.067	1	incongruent	Block1	incongruent/STIM_017.jpg
374.547	1.493	1	incongruent	Block1	incongruent/STIM_017.jpg
379.447	0.668	1	incongruent	Block1	incongruent/STIM_017.jpg
383.903	0.835	1	incongruent	Block1	incongruent/STIM_018.jpg
388.27	1.641	1	incongruent	Block1	incongruent/STIM_018.jpg
393.873	1.313	1	incongruent	Block1	incongruent/STIM_018.jpg
398.464	1.215	1	incongruent	Block1	incongruent/STIM_018.jpg
403.215	0.897	1	incongruent	Block1	incongruent/STIM_018.jpg
406.938	0.984	1	incongruent	Block1	incongruent/STIM_019.jpg
410.35	1.656	1	incongruent	Block1	incongruent/STIM_019.jpg
414.87	1.534	1	incongruent	Block1	incongruent/STIM_019.jpg
419.974	1.06	1	incongruent	Block1	incongruent/STIM_019.jpg
424.722	1.072	1	incongruent	Block1	incongruent/STIM_019.jpg
429.76	0.852	1	incongruent	Block1	incongruent/STIM_020.jpg
434.266	1.41	1	incongruent	Block1	incongruent/STIM_020.jpg
437.782	1.254	1	incongruent	Block1	incongruent/STIM_020.jpg
441.784	1.186	1	incongruent	Block1	incongruent/STIM_020.jpg
445.908	0.709	1	incongruent	Block1	incongruent/STIM_020.jpg
449.972	0.902	1	incongruent	Block1	incongruent/STIM_021.jpg
454.298	1.432	1	incongruent	Block1	incongruent/STIM_021.jpg
457.959	0.946	1	incongruent	Block1	incongruent/STIM_021.jpg
462.089	0.739	1	incongruent	Block1	incongruent/STIM_021.jpg
466.63	1.009	1	incongruent	Block1	incongruent/STIM_021.jpg
471.237	1.045	1	incongruent	Block1	incongruent/STIM_022.jpg
476.192	1.418	1	incongruent	Block1	incongruent/STIM_022.jpg
479.918	1.264	1	incongruent	Block1	incongruent/STIM_022.jpg
484.356	1.119	1	incongruent	Block1	incongruent/STIM_022.jpg
487.528	0.897	1	incongruent	Block1	incongruent/STIM_022.jpg
492.006	0.977	1	incongruent	Block1	incongruent/STIM_023.jpg
496.247	1.612	0	incongruent	Block1	incongruent/STIM_023.jpg
501.491	0.782	1	incongruent	Block1	incongruent/STIM_023.jpg
504.917	0.994	1	incongruent	Block1	incongruent/STIM_023.jpg
509.817	0.704	1	incongruent	Block1	incongruent/STIM_023.jpg
514.028	1.006	1	incongruent	Block1	incongruent/STIM_024.jpg
518.15	1.151	0	incongruent	Block1	incongruent/STIM_024.jpg
521.658	0.925	1	incongruent	Block1	incongruent/STIM_024.jpg
525.352	1.391	0	incongruent	Block1	incongruent/STIM_024.jpg
529.242	0.927	1	incongruent	Block1	incongruent/STIM_024.jpg
532.746	0.83	1	incongruent	Block1	incongruent/STIM_025.jpg
535.732	1.575	0	incongruent	Block1	incongruent/STIM_025.jpg
540.369	1.446	1	incongruent	Block1	incongruent/STIM_025.jpg
545.788	1.471	1	incongruent	Block1	incongruent/STIM_025.jpg
551.152	1.39	1	incongruent	Block1	incongruent/STIM_025.jpg
555.82	1.509	1	incongruent	Block1	incongruent/STIM_026.jpg
561.088	1.415	1	incongruent	Block1	incongruent/STIM_026.jpg
565.428	1.545	1	incongruent	Block1	incongruent/STIM_026.jpg
569.945	1.193	1	incongruent	Block1	incongruent/STIM_026.jpg
574.982	0.704	1	incongruent	Block1	incongruent/STIM_026.jpg
578.77	1.642	1	incongruent	Block1	incongruent/STIM_027.jpg
584.317	0.889	1	incongruent	Block1	incongruent/STIM_027.jpg
588.645	1.047	1	incongruent	Block1	incongruent/STIM_027.jpg
592.278	1.325	1	incongruent	Block1	incongruent/STIM_027.jpg
596.603	1.27	1	incongruent	Block1	incongruent/STIM_027.jpg
601.214	1.51	1	incongruent	Block1	incongruent/STIM_028.jpg
604.868	1.518	1	incongruent	Block1	incongruent/STIM_028.jpg
608.575	0.973	1	incongruent	Block1	incongruent/STIM_028.jpg
611.679	1.496	1	incongruent	Block1	incongruent/STIM_028.jpg
615.91	0.849	1	incongruent	Block1	incongruent/STIM_028.jpg
619.857	1.659	1	incongruent	Block1	incongruent/STIM_029.jpg
624.273	1.104	1	incongruent	Block1	incongruent/STIM_029.jpg
628.22	1.492	1	incongruent	Block1	incongruent/STIM_029.jpg
631.831	0.863	1	incongruent	Block1	incongruent/STIM_029.jpg
635.006	1.383	1	incongruent	Block1	incongruent/STIM_029.jpg
639.253	0.826	1	congruent	Block1	congruent/STIM_000.jpg
642.711	1.038	1	congruent	Block1	congruent/STIM_000.jpg
646.229	0.844	1	congruent	Block1	congruent/STIM_000.jpg
650.621	0.98	1	congruent	Block1	congruent/STIM_000.jpg
654.413	1.017	1	congruent	Block1	congruent/STIM_000.jpg
658.699	0.802	1	congruent	Block1	congruent/STIM_001.jpg
662.374	0.658	1	congruent	Block1	congruent/STIM_001.jpg
666.482	0.651	1	congruent	Block1	congruent/STIM_001.jpg
669.493	0.767	1	congruent	Block1	congruent/STIM_001.jpg
672.552	0.61	1	congruent	Block1	congruent/STIM_001.jpg
676.365	0.99	1	congruent	Block1	congruent/STIM_002.jpg
680.221	0.785	1	congruent	Block1	congruent/STIM_002.jpg
683.457	0.858	1	congruent	Block1	congruent/STIM_002.jpg
686.51	0.804	1	congruent	Block1	congruent/STIM_002.jpg
690.076	1.051	1	congruent	Block1	congruent/STIM_002.jpg
694.159	0.788	1	congruent	Block1	congruent/STIM_003.jpg
698.928	0.763	1	congruent	Block1	congruent/STIM_003.jpg
703.425	0.644	1	congruent	Block1	congruent/STIM_003.jpg
706.713	0.744	1	congruent	Block1	congruent/STIM_003.jpg
709.685	1.022	1	congruent	Block1	congruent/STIM_003.jpg
712.775	0.793	1	congruent	Block1	congruent/STIM_004.jpg
716.097	0.652	1	congruent	Block1	congruent/STIM_004.jpg
719.923	0.607	1	congruent	Block1	congruent/STIM_004.jpg
724.257	0.642	1	congruent	Block1	congruent/STIM_004.jpg
727.238	0.936	1	congruent	Block1	congruent/STIM_004.jpg
730.73	0.715	1	congruent	Block1	congruent/STIM_005.jpg
734.376	1.001	1	congruent	Block1	congruent/STIM_005.jpg
738.38	0.864	1	congruent	Block1	congruent/STIM_005.jpg
742.237	0.708	1	congruent	Block1	congruent/STIM_005.jpg
746.114	0.735	1	congruent	Block1	congruent/STIM_005.jpg
749.258	0.602	1	congruent	Block1	congruent/STIM_006.jpg
752.365	0.752	1	congruent	Block1	congruent/STIM_006.jpg
755.861	0.992	1	congruent	Block1	congruent/STIM_006.jpg
759.461	0.955	1	congruent	Block1	congruent/STIM_006.jpg
764.321	0.587	1	congruent	Block1	congruent/STIM_006.jpg
768.554	0.844	1	congruent	Block1	congruent/STIM_007.jpg
772.737	0.643	1	congruent	Block1	congruent/STIM_007.jpg
776.518	0.668	1	congruent	Block1	congruent/STIM_007.jpg
780.385	1.009	1	congruent	Block1	congruent/STIM_007.jpg
785.17	0.628	1	congruent	Block1	congruent/STIM_007.jpg
789.743	0.826	1	congruent	Block1	congruent/STIM_008.jpg
793.543	0.606	0	congruent	Block1	congruent/STIM_008.jpg
798.0	0.765	1	congruent	Block1	congruent/STIM_008.jpg
802.623	1.015	1	congruent	Block1	congruent/STIM_008.jpg
807.407	0.85	1	congruent	Block1	congruent/STIM_008.jpg
811.34	0.939	1	congruent	Block1	congruent/STIM_009.jpg
814.371	0.735	1	congruent	Block1	congruent/STIM_009.jpg
817.737	0.611	1	congruent	Block1	congruent/STIM_009.jpg
820.533	0.849	1	congruent	Block1	congruent/STIM_009.jpg
823.387	1.014	1	congruent	Block1	congruent/STIM_009.jpg
827.961	0.88	1	congruent	Block1	congruent/STIM_010.jpg
832.305	0.687	1	congruent	Block1	congruent/STIM_010.jpg
836.831	0.888	1	congruent	Block1	congruent/STIM_010.jpg
840.361	0.907	1	congruent	Block1	congruent/STIM_010.jpg
844.021	0.703	1	congruent	Block1	congruent/STIM_010.jpg
846.728	0.632	1	congruent	Block1	congruent/STIM_011.jpg
849.701	0.653	1	congruent	Block1	congruent/STIM_011.jpg
853.489	0.611	1	congruent	Block1	congruent/STIM_011.jpg
857.229	1.016	1	congruent	Block1	congruent/STIM_011.jpg
861.992	1.001	1	congruent	Block1	congruent/STIM_011.jpg
866.227	0.604	0	congruent	Block1	congruent/STIM_012.jpg
870.279	0.971	1	congruent	Block1	congruent/STIM_012.jpg
873.498	0.831	1	congruent	Block1	congruent/STIM_012.jpg
877.071	0.704	1	congruent	Block1	congruent/STIM_012.jpg
881.534	0.834	1	congruent	Block1	congruent/STIM_012.jpg
886.014	1.039	1	congruent	Block1	congruent/STIM_013.jpg
889.564	0.633	1	congruent	Block1	congruent/STIM_013.jpg
893.585	1.0	1	congruent	Block1	congruent/STIM_013.jpg
897.869	0.933	1	congruent	Block1	congruent/STIM_013.jpg
902.362	0.684	1	congruent	Block1	congruent/STIM_013.jpg
906.834	0.832	1	congruent	Block1	congruent/STIM_014.jpg
910.358	0.932	1	congruent	Block1	congruent/STIM_014.jpg
914.109	0.813	1	congruent	Block1	congruent/STIM_014.jpg
917.693	0.898	1	congruent	Block1	congruent/STIM_014.jpg
920.902	0.929	1	congruent	Block1	congruent/STIM_014.jpg
923.976	1.016	1	congruent	Block1	congruent/STIM_015.jpg
927.764	0.804	1	congruent	Block1	congruent/STIM_015.jpg
930.61	0.951	1	congruent	Block1	congruent/STIM_015.jpg
933.676	0.931	1	congruent	Block1	congruent/STIM_015.jpg
937.742	0.963	1	congruent	Block1	congruent/STIM_015.jpg
941.727	0.907	1	congruent	Block1	congruent/STIM_016.jpg
945.835	0.699	1	congruent	Block1	congruent/STIM_016.jpg
948.783	0.736	1	congruent	Block1	congruent/STIM_016.jpg
953.503	0.967	1	congruent	Block1	congruent/STIM_016.jpg
956.849	0.798	1	congruent	Block1	congruent/STIM_016.jpg
960.804	1.048	1	congruent	Block1	congruent/STIM_017.jpg
964.304	0.696	0	congruent	Block1	congruent/STIM_017.jpg
967.744	0.589	1	congruent	Block1	congruent/STIM_017.jpg
970.991	1.034	1	congruent	Block1	congruent/STIM_017.jpg
975.158	0.853	1	congruent	Block1	congruent/STIM_017.jpg
979.688	0.912	1	congruent	Block1	congruent/STIM_018.jpg
983.541	0.983	1	congruent	Block1	congruent/STIM_018.jpg
987.403	0.961	1	congruent	Block1	congruent/STIM_018.jpg
990.865	0.66	1	congruent	Block1	congruent/STIM_018.jpg
993.761	1.05	1	congruent	Block1	congruent/STIM_018.jpg
998.658	0.653	1	congruent	Block1	congruent/STIM_019.jpg
1002.238	0.658	1	congruent	Block1	congruent/STIM_019.jpg
1005.833	0.775	1	congruent	Block1	congruent/STIM_019.jpg
1008.84	1.043	1	congruent	Block1	congruent/STIM_019.jpg
1013.756	0.635	1	congruent	Block1	congruent/STIM_019.jpg
1016.66	0.788	1	congruent	Block1	congruent/STIM_020.jpg
1020.793	0.687	1	congruent	Block1	congruent/STIM_020.jpg
1024.042	0.827	1	congruent	Block1	congruent/STIM_020.jpg
1028.855	0.822	1	congruent	Block1	congruent/STIM_020.jpg
1032.919	0.887	1	congruent	Block1	congruent/STIM_020.jpg
1037.033	0.94	1	congruent	Block1	congruent/STIM_021.jpg
1041.758	0.685	1	congruent	Block1	congruent/STIM_021.jpg
1046.427	0.694	1	congruent	Block1	congruent/STIM_021.jpg
1049.504	0.949	1	congruent	Block1	congruent/STIM_021.jpg
1053.841	0.611	1	congruent	Block1	congruent/STIM_021.jpg
1056.934	0.963	1	congruent	Block1	congruent/STIM_022.jpg
1061.488	0.683	1	congruent	Block1	congruent/STIM_022.jpg
1065.692	0.673	1	congruent	Block1	congruent/STIM_022.jpg
1070.226	0.77	1	congruent	Block1	congruent/STIM_022.jpg
1074.72	0.923	1	congruent	Block1	congruent/STIM_022.jpg
1079.587	0.883	1	congruent	Block1	congruent/STIM_023.jpg
1082.785	1.045	1	congruent	Block1	congruent/STIM_023.jpg
1086.517	0.8	1	congruent	Block1	congruent/STIM_023.jpg
1089.902	0.72	1	congruent	Block1	congruent/STIM_023.jpg
1094.151	0.794	1	congruent	Block1	congruent/STIM_023.jpg
1098.687	0.919	1	congruent	Block1	congruent/STIM_024.jpg
1102.332	0.779	1	congruent	Block1	congruent/STIM_024.jpg
1106.679	0.95	1	congruent	Block1	congruent/STIM_024.jpg
1110.827	0.725	1	congruent	Block1	congruent/STIM_024.jpg
1114.014	0.718	1	congruent	Block1	congruent/STIM_024.jpg
1117.987	0.694	1	congruent	Block1	congruent/STIM_025.jpg
1121.083	1.055	1	congruent	Block1	congruent/STIM_025.jpg
1125.962	1.056	1	congruent	Block1	congruent/STIM_025.jpg
1129.114	0.738	1	congruent	Block1	congruent/STIM_025.jpg
1132.205	0.634	1	congruent	Block1	congruent/STIM_025.jpg
1135.681	0.771	1	congruent	Block1	congruent/STIM_026.jpg
1139.84	0.947	1	congruent	Block1	congruent/STIM_026.jpg
1144.132	0.952	1	congruent	Block1	congruent/STIM_026.jpg
1148.19	0.665	1	congruent	Block1	congruent/STIM_026.jpg
1152.008	0.598	1	congruent	Block1	congruent/STIM_026.jpg
1154.819	0.918	1	congruent	Block1	congruent/STIM_027.jpg
1159.167	0.865	1	congruent	Block1	congruent/STIM_027.jpg
1162.275	0.95	1	congruent	Block1	congruent/STIM_027.jpg
1166.447	0.914	1	congruent	Block1	congruent/STIM_027.jpg
1171.138	0.686	1	congruent	Block1	congruent/STIM_027.jpg
1175.732	0.952	1	congruent	Block1	congruent/STIM_028.jpg
1179.272	1.037	1	congruent	Block1	congruent/STIM_028.jpg
1182.935	0.921	1	congruent	Block1	congruent/STIM_028.jpg
1187.843	0.901	1	congruent	Block1	congruent/STIM_028.jpg
1192.263	0.986	1	congruent	Block1	congruent/STIM_028.jpg
1196.412	0.63	1	congruent	Block1	congruent/STIM_029.jpg
1200.972	0.851	1	congruent	Block1	congruent/STIM_029.jpg
1205.016	0.705	1	congruent	Block1	congruent/STIM_029.jpg
1207.828	0.94	1	congruent	Block1	congruent/STIM_029.jpg
1210.811	0.93	1	congruent	Block1	congruent/STIM_029.jpg
1215.157	1.236	1	incongruent	Block2	incongruent/STIM_000.jpg
1218.74	1.15	1	incongruent	Block2	incongruent/STIM_000.jpg
1222.72	0.846	1	incongruent	Block2	incongruent/STIM_000.jpg
1226.504	1.069	1	incongruent	Block2	incongruent/STIM_000.jpg
1230.672	0.966	1	incongruent	Block2	incongruent/STIM_000.jpg
1235.355	1.301	1	incongruent	Block2	incongruent/STIM_001.jpg
1239.154	0.969	1	incongruent	Block2	incongruent/STIM_001.jpg
1242.92	0.814	1	incongruent	Block2	incongruent/STIM_001.jpg
1247.697	0.952	1	incongruent	Block2	incongruent/STIM_001.jpg
1251.105	1.153	1	incongruent	Block2	incongruent/STIM_001.jpg
1254.984	1.07	1	incongruent	Block2	incongruent/STIM_002.jpg
1259.957	0.881	1	incongruent	Block2	incongruent/STIM_002.jpg
1263.455	1.088	1	incongruent	Block2	incongruent/STIM_002.jpg
1267.543	1.116	1	incongruent	Block2	incongruent/STIM_002.jpg
1272.286	0.945	1	incongruent	Block2	incongruent/STIM_002.jpg
1276.781	0.7	1	incongruent	Block2	incongruent/STIM_003.jpg
1280.998	0.869	0	incongruent	Block2	incongruent/STIM_003.jpg
1284.815	0.651	1	incongruent	Block2	incongruent/STIM_003.jpg
1288.869	0.884	1	incongruent	Block2	incongruent/STIM_003.jpg
1292.401	0.897	1	incongruent	Block2	incongruent/STIM_003.jpg
1295.511	1.052	1	incongruent	Block2	incongruent/STIM_004.jpg
1299.977	1.239	1	incongruent	Block2	incongruent/STIM_004.jpg
1303.269	0.759	1	incongruent	Block2	incongruent/STIM_004.jpg
1306.211	0.888	1	incongruent	Block2	incongruent/STIM_004.jpg
1309.12	1.22	1	incongruent	Block2	incongruent/STIM_004.jpg
1312.973	1.438	1	incongruent	Block2	incongruent/STIM_005.jpg
1318.084	0.751	1	incongruent	Block2	incongruent/STIM_005.jpg
1321.6	0.918	1	incongruent	Block2	incongruent/STIM_005.jpg
1326.009	0.842	1	incongruent	Block2	incongruent/STIM_005.jpg
1330.752	1.225	1	incongruent	Block2	incongruent/STIM_005.jpg
1335.546	0.73	1	incongruent	Block2	incongruent/STIM_006.jpg
1338.626	0.748	1	incongruent	Block2	incongruent/STIM_006.jpg
1343.325	0.735	1	incongruent	Block2	incongruent/STIM_006.jpg
1347.332	0.625	1	incongruent	Block2	incongruent/STIM_006.jpg
1351.075	0.82	1	incongruent	Block2	incongruent/STIM_006.jpg
1354.736	1.014	1	incongruent	Block2	incongruent/STIM_007.jpg
1358.26	1.112	1	incongruent	Block2	incongruent/STIM_007.jpg
1361.416	0.959	1	incongruent	Block2	incongruent/STIM_007.jpg
1365.388	1.205	1	incongruent	Block2	incongruent/STIM_007.jpg
1369.045	0.796	1	incongruent	Block2	incongruent/STIM_007.jpg
1372.776	0.957	1	incongruent	Block2	incongruent/STIM_008.jpg
1376.232	0.661	1	incongruent	Block2	incongruent/STIM_008.jpg
1380.373	1.244	1	incongruent	Block2	incongruent/STIM_008.jpg
1385.319	0.709	1	incongruent	Block2	incongruent/STIM_008.jpg
1389.734	0.984	1	incongruent	Block2	incongruent/STIM_008.jpg
1393.893	1.141	1	incongruent	Block2	incongruent/STIM_009.jpg
1397.307	0.784	1	incongruent	Block2	incongruent/STIM_009.jpg
1401.254	1.193	1	incongruent	Block2	incongruent/STIM_009.jpg
1404.628	0.714	1	incongruent	Block2	incongruent/STIM_009.jpg
1407.899	0.688	1	incongruent	Block2	incongruent/STIM_009.jpg
1412.1	1.375	1	incongruent	Block2	incongruent/STIM_010.jpg
1415.693	0.83	1	incongruent	Block2	incongruent/STIM_010.jpg
1419.594	0.661	1	incongruent	Block2	incongruent/STIM_010.jpg
1423.716	1.034	1	incongruent	Block2	incongruent/STIM_010.jpg
1428.576	1.214	1	incongruent	Block2	incongruent/STIM_010.jpg
1431.932	1.233	1	incongruent	Block2	incongruent/STIM_011.jpg
1436.272	1.154	1	incongruent	Block2	incongruent/STIM_011.jpg
1440.163	0.858	1	incongruent	Block2	incongruent/STIM_011.jpg
1443.271	0.736	1	incongruent	Block2	incongruent/STIM_011.jpg
1446.354	0.857	1	incongruent	Block2	incongruent/STIM_011.jpg
1450.946	1.437	1	incongruent	Block2	incongruent/STIM_012.jpg
1456.064	1.028	1	incongruent	Block2	incongruent/STIM_012.jpg
1460.78	1.031	1	incongruent	Block2	incongruent/STIM_012.jpg
1464.151	0.988	1	incongruent	Block2	incongruent/STIM_012.jpg
1468.244	0.775	1	incongruent	Block2	incongruent/STIM_012.jpg
1472.24	0.833	1	incongruent	Block2	incongruent/STIM_013.jpg
1476.762	0.682	1	incongruent	Block2	incongruent/STIM_013.jpg
1480.313	1.023	1	incongruent	Block2	incongruent/STIM_013.jpg
1484.791	1.008	1	incongruent	Block2	incongruent/STIM_013.jpg
1488.39	0.906	1	incongruent	Block2	incongruent/STIM_013.jpg
1492.934	0.826	1	incongruent	Block2	incongruent/STIM_014.jpg
1496.526	1.026	1	incongruent	Block2	incongruent/STIM_014.jpg
1500.044	1.261	1	incongruent	Block2	incongruent/STIM_014.jpg
1503.374	1.088	1	incongruent	Block2	incongruent/STIM_014.jpg
1508.145	0.905	1	incongruent	Block2	incongruent/STIM_014.jpg
1513.007	1.148	1	incongruent	Block2	incongruent/STIM_015.jpg
1516.217	0.96	1	incongruent	Block2	incongruent/STIM_015.jpg
1520.173	1.276	1	incongruent	Block2	incongruent/STIM_015.jpg
1525.432	0.896	1	incongruent	Block2	incongruent/STIM_015.jpg
1529.689	1.094	0	incongruent	Block2	incongruent/STIM_015.jpg
1534.63	0.907	1	incongruent	Block2	incongruent/STIM_016.jpg
1538.083	0.772	1	incongruent	Block2	incongruent/STIM_016.jpg
1541.886	0.863	1	incongruent	Block2	incongruent/STIM_016.jpg
1546.007	0.83	1	incongruent	Block2	incongruent/STIM_016.jpg
1549.872	0.702	1	incongruent	Block2	incongruent/STIM_016.jpg
1552.688	0.922	1	incongruent	Block2	incongruent/STIM_017.jpg
1556.999	0.864	1	incongruent	Block2	incongruent/STIM_017.jpg
1560.783	1.09	1	incongruent	Block2	incongruent/STIM_017.jpg
1565.796	0.703	1	incongruent	Block2	incongruent/STIM_017.jpg
1570.294	0.97	1	incongruent	Block2	incongruent/STIM_017.jpg
1574.344	0.861	1	incongruent	Block2	incongruent/STIM_018.jpg
1578.892	1.401	1	incongruent	Block2	incongruent/STIM_018.jpg
1582.494	1.072	1	incongruent	Block2	incongruent/STIM_018.jpg
1585.933	0.833	1	incongruent	Block2	incongruent/STIM_018.jpg
1590.714	0.666	1	incongruent	Block2	incongruent/STIM_018.jpg
1593.95	1.205	1	incongruent	Block2	incongruent/STIM_019.jpg
1598.917	0.955	1	incongruent	Block2	incongruent/STIM_019.jpg
1602.778	0.728	1	incongruent	Block2	incongruent/STIM_019.jpg
1607.034	0.906	1	incongruent	Block2	incongruent/STIM_019.jpg
1610.012	0.652	1	incongruent	Block2	incongruent/STIM_019.jpg
1612.94	0.728	1	incongruent	Block2	incongruent/STIM_020.jpg
1615.686	0.724	1	incongruent	Block2	incongruent/STIM_020.jpg
1619.001	0.665	1	incongruent	Block2	incongruent/STIM_020.jpg
1622.913	1.096	1	incongruent	Block2	incongruent/STIM_020.jpg
1627.953	0.895	1	incongruent	Block2	incongruent/STIM_020.jpg
1632.067	0.98	1	incongruent	Block2	incongruent/STIM_021.jpg
1635.987	0.789	1	incongruent	Block2	incongruent/STIM_021.jpg
1638.855	0.762	1	incongruent	Block2	incongruent/STIM_021.jpg
1643.236	0.95	1	incongruent	Block2	incongruent/STIM_021.jpg
1647.567	0.79	1	incongruent	Block2	incongruent/STIM_021.jpg
1651.094	1.275	1	incongruent	Block2	incongruent/STIM_022.jpg
1655.877	1.325	1	incongruent	Block2	incongruent/STIM_022.jpg
1660.365	1.003	1	incongruent	Block2	incongruent/STIM_022.jpg
1663.92	0.818	1	incongruent	Block2	incongruent/STIM_022.jpg
1667.982	1.123	1	incongruent	Block2	incongruent/STIM_022.jpg
1672.053	1.348	1	incongruent	Block2	incongruent/STIM_023.jpg
1676.677	1.04	1	incongruent	Block2	incongruent/STIM_023.jpg
1679.802	1.272	1	incongruent	Block2	incongruent/STIM_023.jpg
1684.255	1.179	1	incongruent	Block2	incongruent/STIM_023.jpg
1689.247	0.774	1	incongruent	Block2	incongruent/STIM_023.jpg
1692.515	1.043	1	incongruent	Block2	incongruent/STIM_024.jpg
1695.831	0.683	1	incongruent	Block2	incongruent/STIM_024.jpg
1698.938	0.796	0	incongruent	Block2	incongruent/STIM_024.jpg
1703.212	1.005	1	incongruent	Block2	incongruent/STIM_024.jpg
1706.274	0.74	1	incongruent	Block2	incongruent/STIM_024.jpg
1709.865	0.718	1	incongruent	Block2	incongruent/STIM_025.jpg
1712.838	0.676	1	incongruent	Block2	incongruent/STIM_025.jpg
1715.931	0.848	1	incongruent	Block2	incongruent/STIM_025.jpg
1719.331	0.586	1	incongruent	Block2	incongruent/STIM_025.jpg
1722.824	0.973	1	incongruent	Block2	incongruent/STIM_025.jpg
1726.314	0.831	1	incongruent	Block2	incongruent/STIM_026.jpg
1729.347	0.665	1	incongruent	Block2	incongruent/STIM_026.jpg
1733.087	0.705	1	incongruent	Block2	incongruent/STIM_026.jpg
1736.608	0.849	1	incongruent	Block2	incongruent/STIM_026.jpg
1740.048	0.705	1	incongruent	Block2	incongruent/STIM_026.jpg
1743.365	1.064	0	incongruent	Block2	incongruent/STIM_027.jpg
1748.199	1.261	1	incongruent	Block2	incongruent/STIM_027.jpg
1752.773	1.11	1	incongruent	Block2	incongruent/STIM_027.jpg
1756.502	0.83	1	incongruent	Block2	incongruent/STIM_027.jpg
1760.659	1.17	1	incongruent	Block2	incongruent/STIM_027.jpg
1765.661	0.994	1	incongruent	Block2	incongruent/STIM_028.jpg
1770.131	0.897	1	incongruent	Block2	incongruent/STIM_028.jpg
1773.435	1.013	1	incongruent	Block2	incongruent/STIM_028.jpg
1778.331	0.906	1	incongruent	Block2	incongruent/STIM_028.jpg
1782.706	0.98	1	incongruent	Block2	incongruent/STIM_028.jpg
1787.338	1.468	1	incongruent	Block2	incongruent/STIM_029.jpg
1790.82	1.223	1	incongruent	Block2	incongruent/STIM_029.jpg
1794.056	0.929	1	incongruent	Block2	incongruent/STIM_029.jpg
1797.555	0.81	1	incongruent	Block2	incongruent/STIM_029.jpg
1801.802	1.163	1	incongruent	Block2	incongruent/STIM_029.jpg
1805.409	0.867	1	congruent	Block2	congruent/STIM_000.jpg
1810.18	0.635	1	congruent	Block2	congruent/STIM_000.jpg
1814.369	0.598	1	congruent	Block2	congruent/STIM_000.jpg
1817.746	0.787	1	congruent	Block2	congruent/STIM_000.jpg
1821.696	0.948	1	congruent	Block2	congruent/STIM_000.jpg
1824.844	0.887	1	congruent	Block2	congruent/STIM_001.jpg
1828.591	0.624	1	congruent	Block2	congruent/STIM_001.jpg
1832.645	0.84	1	congruent	Block2	congruent/STIM_001.jpg
1837.126	0.79	1	congruent	Block2	congruent/STIM_001.jpg
1841.294	0.813	1	congruent	Block2	congruent/STIM_001.jpg
1845.234	1.014	1	congruent	Block2	congruent/STIM_002.jpg
1849.798	0.761	1	congruent	Block2	congruent/STIM_002.jpg
1853.088	0.922	1	congruent	Block2	congruent/STIM_002.jpg
1857.595	0.605	0	congruent	Block2	congruent/STIM_002.jpg
1862.048	0.949	1	congruent	Block2	congruent/STIM_002.jpg
1865.489	0.928	1	congruent	Block2	congruent/STIM_003.jpg
1870.152	0.811	1	congruent	Block2	congruent/STIM_003.jpg
1874.024	0.721	1	congruent	Block2	congruent/STIM_003.jpg
1877.294	0.73	1	congruent	Block2	congruent/STIM_003.jpg
1880.982	0.732	1	congruent	Block2	congruent/STIM_003.jpg
1884.222	0.998	1	congruent	Block2	congruent/STIM_004.jpg
1888.026	0.848	1	congruent	Block2	congruent/STIM_004.jpg
1891.264	1.035	1	congruent	Block2	congruent/STIM_004.jpg
1895.841	0.97	1	congruent	Block2	congruent/STIM_004.jpg
1898.879	0.816	1	congruent	Block2	congruent/STIM_004.jpg
1902.353	0.646	1	congruent	Block2	congruent/STIM_005.jpg
1906.18	0.825	1	congruent	Block2	congruent/STIM_005.jpg
1909.762	0.644	1	congruent	Block2	congruent/STIM_005.jpg
1914.178	0.818	0	congruent	Block2	congruent/STIM_005.jpg
1918.989	0.687	1	congruent	Block2	congruent/STIM_005.jpg
1922.671	0.761	1	congruent	Block2	congruent/STIM_006.jpg
1926.894	1.002	1	congruent	Block2	congruent/STIM_006.jpg
1931.037	1.016	1	congruent	Block2	congruent/STIM_006.jpg
1934.316	0.906	1	congruent	Block2	congruent/STIM_006.jpg
1938.763	1.047	1	congruent	Block2	congruent/STIM_006.jpg
1943.478	0.739	1	congruent	Block2	congruent/STIM_007.jpg
1948.01	0.985	1	congruent	Block2	congruent/STIM_007.jpg
1952.068	0.816	1	congruent	Block2	congruent/STIM_007.jpg
1955.592	0.89	1	congruent	Block2	congruent/STIM_007.jpg
1960.379	0.742	1	congruent	Block2	congruent/STIM_007.jpg
1963.667	0.676	1	congruent	Block2	congruent/STIM_008.jpg
1968.148	0.704	1	congruent	Block2	congruent/STIM_008.jpg
1972.559	0.8	1	congruent	Block2	congruent/STIM_008.jpg
1976.413	0.717	1	congruent	Block2	congruent/STIM_008.jpg
1980.298	0.733	1	congruent	Block2	congruent/STIM_008.jpg
1984.912	0.978	1	congruent	Block2	congruent/STIM_009.jpg
1989.128	0.711	1	congruent	Block2	congruent/STIM_009.jpg
1992.311	0.942	1	congruent	Block2	congruent/STIM_009.jpg
1995.286	0.611	1	congruent	Block2	congruent/STIM_009.jpg
1998.961	0.887	1	congruent	Block2	congruent/STIM_009.jpg
2003.479	0.738	1	congruent	Block2	congruent/STIM_010.jpg
2006.302	0.822	1	congruent	Block2	congruent/STIM_010.jpg
2010.31	0.603	1	congruent	Block2	congruent/STIM_010.jpg
2014.017	1.024	1	congruent	Block2	congruent/STIM_010.jpg
2017.997	0.817	1	congruent	Block2	congruent/STIM_010.jpg
2021.713	0.603	1	congruent	Block2	congruent/STIM_011.jpg
2026.243	0.917	1	congruent	Block2	congruent/STIM_011.jpg
2030.96	0.835	1	congruent	Block2	congruent/STIM_011.jpg
2034.617	0.654	1	congruent	Block2	congruent/STIM_011.jpg
2038.059	0.75	1	congruent	Block2	congruent/STIM_011.jpg
2042.292	1.043	1	congruent	Block2	congruent/STIM_012.jpg
2046.505	0.842	1	congruent	Block2	congruent/STIM_012.jpg
2050.861	0.667	1	congruent	Block2	congruent/STIM_012.jpg
2053.58	0.655	1	congruent	Block2	congruent/STIM_012.jpg
2056.621	0.752	1	congruent	Block2	congruent/STIM_012.jpg
2059.795	1.049	1	congruent	Block2	congruent/STIM_013.jpg
2063.946	0.708	1	congruent	Block2	congruent/STIM_013.jpg
2066.751	0.809	1	congruent	Block2	congruent/STIM_013.jpg
2071.455	0.952	1	congruent	Block2	congruent/STIM_013.jpg
2075.087	1.002	1	congruent	Block2	congruent/STIM_013.jpg
2079.125	0.744	1	congruent	Block2	congruent/STIM_014.jpg
2082.595	0.712	1	congruent	Block2	congruent/STIM_014.jpg
2087.154	0.643	1	congruent	Block2	congruent/STIM_014.jpg
2090.063	0.982	1	congruent	Block2	congruent/STIM_014.jpg
2093.189	1.056	1	congruent	Block2	congruent/STIM_014.jpg
2097.123	0.835	1	congruent	Block2	congruent/STIM_015.jpg
2101.711	1.004	1	congruent	Block2	congruent/STIM_015.jpg
2105.813	0.909	1	congruent	Block2	congruent/STIM_015.jpg
2110.388	1.032	1	congruent	Block2	congruent/STIM_015.jpg
2114.468	0.999	1	congruent	Block2	congruent/STIM_015.jpg
2119.044	0.945	1	congruent	Block2	congruent/STIM_016.jpg
2123.52	0.973	1	congruent	Block2	congruent/STIM_016.jpg
2128.387	0.837	1	congruent	Block2	congruent/STIM_016.jpg
2132.277	0.728	1	congruent	Block2	congruent/STIM_016.jpg
2135.993	0.979	1	congruent	Block2	congruent/STIM_016.jpg
2140.113	0.826	1	congruent	Block2	congruent/STIM_017.jpg
2143.891	0.675	1	congruent	Block2	congruent/STIM_017.jpg
2148.219	0.818	1	congruent	Block2	congruent/STIM_017.jpg
2152.395	1.038	1	congruent	Block2	congruent/STIM_017.jpg
2157.359	0.786	1	congruent	Block2	congruent/STIM_017.jpg
2160.204	0.748	1	congruent	Block2	congruent/STIM_018.jpg
2163.142	0.621	0	congruent	Block2	congruent/STIM_018.jpg
2165.99	0.803	1	congruent	Block2	congruent/STIM_018.jpg
2169.37	0.618	1	congruent	Block2	congruent/STIM_018.jpg
2172.09	0.617	1	congruent	Block2	congruent/STIM_018.jpg
2175.154	0.794	1	congruent	Block2	congruent/STIM_019.jpg
2178.747	0.999	1	congruent	Block2	congruent/STIM_019.jpg
2182.362	0.954	1	congruent	Block2	congruent/STIM_019.jpg
2186.456	0.64	1	congruent	Block2	congruent/STIM_019.jpg
2190.795	0.917	1	congruent	Block2	congruent/STIM_019.jpg
2194.219	0.987	1	congruent	Block2	congruent/STIM_020.jpg
2197.544	0.896	1	congruent	Block2	congruent/STIM_020.jpg
2200.448	0.678	1	congruent	Block2	congruent/STIM_020.jpg
2203.971	0.938	1	congruent	Block2	congruent/STIM_020.jpg
2207.29	0.958	1	congruent	Block2	congruent/STIM_020.jpg
2212.01	0.79	1	congruent	Block2	congruent/STIM_021.jpg
2216.31	1.007	1	congruent	Block2	congruent/STIM_021.jpg
2220.155	0.769	1	congruent	Block2	congruent/STIM_021.jpg
2223.671	0.641	1	congruent	Block2	congruent/STIM_021.jpg
2228.113	0.783	1	congruent	Block2	congruent/STIM_021.jpg
2232.76	0.671	1	congruent	Block2	congruent/STIM_022.jpg
2237.429	0.695	1	congruent	Block2	congruent/STIM_022.jpg
2241.498	0.783	1	congruent	Block2	congruent/STIM_022.jpg
2245.12	0.612	1	congruent	Block2	congruent/STIM_022.jpg
2249.029	0.619	1	congruent	Block2	congruent/STIM_022.jpg
2253.462	0.977	1	congruent	Block2	congruent/STIM_023.jpg
2257.789	0.881	0	congruent	Block2	congruent/STIM_023.jpg
2261.231	1.012	1	congruent	Block2	congruent/STIM_023.jpg
2264.963	0.673	1	congruent	Block2	congruent/STIM_023.jpg
2268.251	0.835	1	congruent	Block2	congruent/STIM_023.jpg
2273.048	0.962	1	congruent	Block2	congruent/STIM_024.jpg
2277.993	0.923	1	congruent	Block2	congruent/STIM_024.jpg
2281.958	0.964	1	congruent	Block2	congruent/STIM_024.jpg
2286.706	0.617	1	congruent	Block2	congruent/STIM_024.jpg
2290.772	0.736	1	congruent	Block2	congruent/STIM_024.jpg
2294.264	0.732	1	congruent	Block2	congruent/STIM_025.jpg
2298.118	0.739	1	congruent	Block2	congruent/STIM_025.jpg
2302.692	0.73	1	congruent	Block2	congruent/STIM_025.jpg
2307.31	1.009	1	congruent	Block2	congruent/STIM_025.jpg
2311.816	0.613	1	congruent	Block2	congruent/STIM_025.jpg
2315.086	0.786	1	congruent	Block2	congruent/STIM_026.jpg
2319.208	1.053	1	congruent	Block2	congruent/STIM_026.jpg
2323.854	0.658	1	congruent	Block2	congruent/STIM_026.jpg
2328.44	0.588	1	congruent	Block2	congruent/STIM_026.jpg
2331.233	0.726	1	congruent	Block2	congruent/STIM_026.jpg
2335.711	0.925	1	congruent	Block2	congruent/STIM_027.jpg
2338.821	0.865	1	congruent	Block2	congruent/STIM_027.jpg
2342.736	0.918	1	congruent	Block2	congruent/STIM_027.jpg
2346.074	0.855	1	congruent	Block2	congruent/STIM_027.jpg
2350.2	0.645	1	congruent	Block2	congruent/STIM_027.jpg
2354.727	0.739	1	congruent	Block2	congruent/STIM_028.jpg
2357.765	0.622	1	congruent	Block2	congruent/STIM_028.jpg
2361.107	0.753	1	congruent	Block2	congruent/STIM_028.jpg
2363.909	1.017	0	congruent	Block2	congruent/STIM_028.jpg
2367.535	0.857	1	congruent	Block2	congruent/STIM_028.jpg
2372.257	0.646	1	congruent	Block2	congruent/STIM_029.jpg
2376.704	0.844	1	congruent	Block2	congruent/STIM_029.jpg
2381.374	0.759	1	congruent	Block2	congruent/STIM_029.jpg
2384.651	0.954	1	congruent	Block2	congruent/STIM_029.jpg
2388.107	0.741	1	congruent	Block2	congruent/STIM_029.jpg
2391.247	0.994	1	incongruent	Block3	incongruent/STIM_000.jpg
2395.816	0.932	1	incongruent	Block3	incongruent/STIM_000.jpg
2399.885	0.689	1	incongruent	Block3	incongruent/STIM_000.jpg
2402.946	0.756	1	incongruent	Block3	incongruent/STIM_000.jpg
2407.561	0.94	1	incongruent	Block3	incongruent/STIM_000.jpg
2411.651	0.887	1	incongruent	Block3	incongruent/STIM_001.jpg
2416.415	0.721	1	incongruent	Block3	incongruent/STIM_001.jpg
2419.885	0.846	1	incongruent	Block3	incongruent/STIM_001.jpg
2424.553	0.583	1	incongruent	Block3	incongruent/STIM_001.jpg
2428.729	1.034	1	incongruent	Block3	incongruent/STIM_001.jpg
2432.949	0.918	1	incongruent	Block3	incongruent/STIM_002.jpg
2437.773	0.944	1	incongruent	Block3	incongruent/STIM_002.jpg
2441.199	0.853	1	incongruent	Block3	incongruent/STIM_002.jpg
2444.476	0.821	1	incongruent	Block3	incongruent/STIM_002.jpg
2448.327	0.991	1	incongruent	Block3	incongruent/STIM_002.jpg
2451.847	0.622	1	incongruent	Block3	incongruent/STIM_003.jpg
2455.203	0.997	1	incongruent	Block3	incongruent/STIM_003.jpg
2459.55	0.622	1	incongruent	Block3	incongruent/STIM_003.jpg
2462.515	0.722	1	incongruent	Block3	incongruent/STIM_003.jpg
2465.489	0.809	1	incongruent	Block3	incongruent/STIM_003.jpg
2468.984	1.091	1	incongruent	Block3	incongruent/STIM_004.jpg
2473.609	1.101	1	incongruent	Block3	incongruent/STIM_004.jpg
2478.199	0.649	1	incongruent	Block3	incongruent/STIM_004.jpg
2482.184	0.601	1	incongruent	Block3	incongruent/STIM_004.jpg
2485.259	0.867	1	incongruent	Block3	incongruent/STIM_004.jpg
2488.941	0.829	1	incongruent	Block3	incongruent/STIM_005.jpg
2491.863	0.899	1	incongruent	Block3	incongruent/STIM_005.jpg
2496.744	0.651	1	incongruent	Block3	incongruent/STIM_005.jpg
2501.277	0.951	1	incongruent	Block3	incongruent/STIM_005.jpg
2506.044	1.158	1	incongruent	Block3	incongruent/STIM_005.jpg
2511.025	1.112	1	incongruent	Block3	incongruent/STIM_006.jpg
2515.629	1.128	1	incongruent	Block3	incongruent/STIM_006.jpg
2519.86	0.744	1	incongruent	Block3	incongruent/STIM_006.jpg
2524.036	1.152	1	incongruent	Block3	incongruent/STIM_006.jpg
2528.15	0.996	1	incongruent	Block3	incongruent/STIM_006.jpg
2531.457	0.616	1	incongruent	Block3	incongruent/STIM_007.jpg
2535.122	0.741	1	incongruent	Block3	incongruent/STIM_007.jpg
2539.633	0.666	1	incongruent	Block3	incongruent/STIM_007.jpg
2543.218	1.15	1	incongruent	Block3	incongruent/STIM_007.jpg
2546.619	1.186	1	incongruent	Block3	incongruent/STIM_007.jpg
2550.025	0.966	1	incongruent	Block3	incongruent/STIM_008.jpg
2553.491	0.991	1	incongruent	Block3	incongruent/STIM_008.jpg
2557.848	1.135	1	incongruent	Block3	incongruent/STIM_008.jpg
2561.165	0.679	0	incongruent	Block3	incongruent/STIM_008.jpg
2565.159	0.922	1	incongruent	Block3	incongruent/STIM_008.jpg
2568.471	1.021	1	incongruent	Block3	incongruent/STIM_009.jpg
2573.22	1.098	1	incongruent	Block3	incongruent/STIM_009.jpg
2576.444	1.209	1	incongruent	Block3	incongruent/STIM_009.jpg
2580.461	0.747	1	incongruent	Block3	incongruent/STIM_009.jpg
2585.162	0.705	1	incongruent	Block3	incongruent/STIM_009.jpg
2588.067	1.191	1	incongruent	Block3	incongruent/STIM_010.jpg
2593.18	1.127	1	incongruent	Block3	incongruent/STIM_010.jpg
2596.634	0.626	1	incongruent	Block3	incongruent/STIM_010.jpg
2601.029	0.596	1	incongruent	Block3	incongruent/STIM_010.jpg
2605.017	1.172	1	incongruent	Block3	incongruent/STIM_010.jpg
2609.099	0.77	1	incongruent	Block3	incongruent/STIM_011.jpg
2612.616	1.003	1	incongruent	Block3	incongruent/STIM_011.jpg
2616.89	0.648	1	incongruent	Block3	incongruent/STIM_011.jpg
2621.248	1.146	1	incongruent	Block3	incongruent/STIM_011.jpg
2625.874	0.783	1	incongruent	Block3	incongruent/STIM_011.jpg
2628.707	0.729	1	incongruent	Block3	incongruent/STIM_012.jpg
2632.252	1.142	1	incongruent	Block3	incongruent/STIM_012.jpg
2636.679	0.927	1	incongruent	Block3	incongruent/STIM_012.jpg
2640.557	0.699	1	incongruent	Block3	incongruent/STIM_012.jpg
2644.682	1.172	1	incongruent	Block3	incongruent/STIM_012.jpg
2649.82	0.694	1	incongruent	Block3	incongruent/STIM_013.jpg
2653.752	1.151	1	incongruent	Block3	incongruent/STIM_013.jpg
2658.212	1.061	1	incongruent	Block3	incongruent/STIM_013.jpg
2661.273	1.016	1	incongruent	Block3	incongruent/STIM_013.jpg
2666.072	0.827	1	incongruent	Block3	incongruent/STIM_013.jpg
2669.755	1.157	1	incongruent	Block3	incongruent/STIM_014.jpg
2673.388	1.025	1	incongruent	Block3	incongruent/STIM_014.jpg
2677.486	1.093	1	incongruent	Block3	incongruent/STIM_014.jpg
2681.536	0.853	1	incongruent	Block3	incongruent/STIM_014.jpg
2685.047	0.635	1	incongruent	Block3	incongruent/STIM_014.jpg
2689.282	0.975	1	incongruent	Block3	incongruent/STIM_015.jpg
2694.005	0.781	1	incongruent	Block3	incongruent/STIM_015.jpg
2698.187	0.779	1	incongruent	Block3	incongruent/STIM_015.jpg
2701.25	0.782	1	incongruent	Block3	incongruent/STIM_015.jpg
2704.496	0.838	1	incongruent	Block3	incongruent/STIM_015.jpg
2709.04	1.053	1	incongruent	Block3	incongruent/STIM_016.jpg
2713.261	0.753	1	incongruent	Block3	incongruent/STIM_016.jpg
2717.645	1.017	1	incongruent	Block3	incongruent/STIM_016.jpg
2721.509	0.988	1	incongruent	Block3	incongruent/STIM_016.jpg
2724.589	0.953	1	incongruent	Block3	incongruent/STIM_016.jpg
2729.512	0.925	1	incongruent	Block3	incongruent/STIM_017.jpg
2733.388	0.687	1	incongruent	Block3	incongruent/STIM_017.jpg
2737.122	0.952	1	incongruent	Block3	incongruent/STIM_017.jpg
2740.56	0.646	1	incongruent	Block3	incongruent/STIM_017.jpg
2744.82	0.877	1	incongruent	Block3	incongruent/STIM_017.jpg
2749.341	0.883	1	incongruent	Block3	incongruent/STIM_018.jpg
2752.954	1.0	1	incongruent	Block3	incongruent/STIM_018.jpg
2756.536	0.71	1	incongruent	Block3	incongruent/STIM_018.jpg
2759.968	0.738	1	incongruent	Block3	incongruent/STIM_018.jpg
2763.055	0.853	1	incongruent	Block3	incongruent/STIM_018.jpg
2767.584	1.008	1	incongruent	Block3	incongruent/STIM_019.jpg
2772.471	1.207	1	incongruent	Block3	incongruent/STIM_019.jpg
2776.859	0.76	1	incongruent	Block3	incongruent/STIM_019.jpg
2780.532	1.202	1	incongruent	Block3	incongruent/STIM_019.jpg
2784.513	0.982	1	incongruent	Block3	incongruent/STIM_019.jpg
2789.001	1.022	1	incongruent	Block3	incongruent/STIM_020.jpg
2793.273	0.903	1	incongruent	Block3	incongruent/STIM_020.jpg
2797.973	0.732	1	incongruent	Block3	incongruent/STIM_020.jpg
2802.029	0.939	1	incongruent	Block3	incongruent/STIM_020.jpg
2806.14	1.115	1	incongruent	Block3	incongruent/STIM_020.jpg
2809.508	1.05	1	incongruent	Block3	incongruent/STIM_021.jpg
2813.501	1.168	1	incongruent	Block3	incongruent/STIM_021.jpg
2816.988	0.818	1	incongruent	Block3	incongruent/STIM_021.jpg
2820.892	1.163	1	incongruent	Block3	incongruent/STIM_021.jpg
2824.793	1.05	1	incongruent	Block3	incongruent/STIM_021.jpg
2828.483	0.81	1	incongruent	Block3	incongruent/STIM_022.jpg
2832.049	0.809	1	incongruent	Block3	incongruent/STIM_022.jpg
2834.998	1.18	1	incongruent	Block3	incongruent/STIM_022.jpg
2838.442	1.053	1	incongruent	Block3	incongruent/STIM_022.jpg
2841.559	1.074	1	incongruent	Block3	incongruent/STIM_022.jpg
2845.065	0.861	1	incongruent	Block3	incongruent/STIM_023.jpg
2848.648	0.735	1	incongruent	Block3	incongruent/STIM_023.jpg
2852.504	0.729	1	incongruent	Block3	incongruent/STIM_023.jpg
2855.772	0.864	1	incongruent	Block3	incongruent/STIM_023.jpg
2860.402	0.69	1	incongruent	Block3	incongruent/STIM_023.jpg
2863.838	0.606	1	incongruent	Block3	incongruent/STIM_024.jpg
2866.896	0.672	1	incongruent	Block3	incongruent/STIM_024.jpg
2871.423	0.978	1	incongruent	Block3	incongruent/STIM_024.jpg
2875.784	0.779	1	incongruent	Block3	incongruent/STIM_024.jpg
2878.701	1.128	1	incongruent	Block3	incongruent/STIM_024.jpg
2882.583	0.849	1	incongruent	Block3	incongruent/STIM_025.jpg
2886.764	0.579	1	incongruent	Block3	incongruent/STIM_025.jpg
2890.793	0.93	1	incongruent	Block3	incongruent/STIM_025.jpg
2894.213	0.86	1	incongruent	Block3	incongruent/STIM_025.jpg
2897.573	0.736	1	incongruent	Block3	incongruent/STIM_025.jpg
2901.01	1.217	1	incongruent	Block3	incongruent/STIM_026.jpg
2905.793	0.939	1	incongruent	Block3	incongruent/STIM_026.jpg
2909.5	0.822	1	incongruent	Block3	incongruent/STIM_026.jpg
2913.024	0.578	1	incongruent	Block3	incongruent/STIM_026.jpg
2916.279	0.78	1	incongruent	Block3	incongruent/STIM_026.jpg
2920.855	0.979	1	incongruent	Block3	incongruent/STIM_027.jpg
2923.866	0.872	1	incongruent	Block3	incongruent/STIM_027.jpg
2928.593	0.655	1	incongruent	Block3	incongruent/STIM_027.jpg
2932.062	1.225	1	incongruent	Block3	incongruent/STIM_027.jpg
2937.18	0.92	1	incongruent	Block3	incongruent/STIM_027.jpg
2941.744	0.733	1	incongruent	Block3	incongruent/STIM_028.jpg
2945.394	0.75	1	incongruent	Block3	incongruent/STIM_028.jpg
2949.431	1.108	1	incongruent	Block3	incongruent/STIM_028.jpg
2953.402	0.739	1	incongruent	Block3	incongruent/STIM_028.jpg
2956.316	0.794	1	incongruent	Block3	incongruent/STIM_028.jpg
2959.442	0.928	1	incongruent	Block3	incongruent/STIM_029.jpg
2962.654	0.742	1	incongruent	Block3	incongruent/STIM_029.jpg
2966.219	0.765	1	incongruent	Block3	incongruent/STIM_029.jpg
2970.453	0.816	1	incongruent	Block3	incongruent/STIM_029.jpg
2975.177	0.712	1	incongruent	Block3	incongruent/STIM_029.jpg
2978.76	0.591	1	congruent	Block3	congruent/STIM_000.jpg
2982.35	0.887	1	congruent	Block3	congruent/STIM_000.jpg
2985.802	0.856	1	congruent	Block3	congruent/STIM_000.jpg
2989.815	0.779	1	congruent	Block3	congruent/STIM_000.jpg
2994.046	0.627	1	congruent	Block3	congruent/STIM_000.jpg
2998.333	1.042	1	congruent	Block3	congruent/STIM_001.jpg
3002.983	0.678	1	congruent	Block3	congruent/STIM_001.jpg
3006.383	0.736	1	congruent	Block3	congruent/STIM_001.jpg
3009.884	0.624	1	congruent	Block3	congruent/STIM_001.jpg
3013.898	0.84	1	congruent	Block3	congruent/STIM_001.jpg
3016.846	0.65	1	congruent	Block3	congruent/STIM_002.jpg
3019.939	1.03	1	congruent	Block3	congruent/STIM_002.jpg
3024.679	0.937	1	congruent	Block3	congruent/STIM_002.jpg
3029.205	0.989	1	congruent	Block3	congruent/STIM_002.jpg
3032.353	0.914	1	congruent	Block3	congruent/STIM_002.jpg
3036.649	0.913	1	congruent	Block3	congruent/STIM_003.jpg
3041.198	0.817	0	congruent	Block3	congruent/STIM_003.jpg
3045.99	1.032	1	congruent	Block3	congruent/STIM_003.jpg
3050.447	1.024	1	congruent	Block3	congruent/STIM_003.jpg
3054.082	0.638	1	congruent	Block3	congruent/STIM_003.jpg
3058.005	0.836	1	congruent	Block3	congruent/STIM_004.jpg
3062.276	0.688	1	congruent	Block3	congruent/STIM_004.jpg
3066.226	0.793	1	congruent	Block3	congruent/STIM_004.jpg
3070.279	0.646	1	congruent	Block3	congruent/STIM_004.jpg
3073.581	0.962	1	congruent	Block3	congruent/STIM_004.jpg
3077.333	0.678	1	congruent	Block3	congruent/STIM_005.jpg
3081.223	1.001	1	congruent	Block3	congruent/STIM_005.jpg
3086.022	0.99	1	congruent	Block3	congruent/STIM_005.jpg
3090.809	0.856	1	congruent	Block3	congruent/STIM_005.jpg
3094.727	0.641	1	congruent	Block3	congruent/STIM_005.jpg
3097.909	0.881	1	congruent	Block3	congruent/STIM_006.jpg
3101.797	0.673	1	congruent	Block3	congruent/STIM_006.jpg
3104.848	0.934	1	congruent	Block3	congruent/STIM_006.jpg
3108.459	0.907	1	congruent	Block3	congruent/STIM_006.jpg
3113.34	0.909	1	congruent	Block3	congruent/STIM_006.jpg
3117.34	0.67	1	congruent	Block3	congruent/STIM_007.jpg
3120.85	0.696	1	congruent	Block3	congruent/STIM_007.jpg
3123.982	0.728	1	congruent	Block3	congruent/STIM_007.jpg
3126.793	0.673	1	congruent	Block3	congruent/STIM_007.jpg
3129.929	0.817	1	congruent	Block3	congruent/STIM_007.jpg
3134.107	0.87	1	congruent	Block3	congruent/STIM_008.jpg
3137.59	0.67	1	congruent	Block3	congruent/STIM_008.jpg
3140.497	0.77	1	congruent	Block3	congruent/STIM_008.jpg
3143.901	0.714	1	congruent	Block3	congruent/STIM_008.jpg
3147.006	0.785	1	congruent	Block3	congruent/STIM_008.jpg
3151.007	0.629	1	congruent	Block3	congruent/STIM_009.jpg
3155.604	0.857	1	congruent	Block3	congruent/STIM_009.jpg
3159.585	0.639	1	congruent	Block3	congruent/STIM_009.jpg
3163.743	0.798	1	congruent	Block3	congruent/STIM_009.jpg
3168.144	0.947	1	congruent	Block3	congruent/STIM_009.jpg
3171.642	0.786	1	congruent	Block3	congruent/STIM_010.jpg
3175.007	0.999	1	congruent	Block3	congruent/STIM_010.jpg
3178.984	0.881	1	congruent	Block3	congruent/STIM_010.jpg
3182.348	0.756	1	congruent	Block3	congruent/STIM_010.jpg
3186.476	0.714	1	congruent	Block3	congruent/STIM_010.jpg
3190.118	0.859	1	congruent	Block3	congruent/STIM_011.jpg
3193.105	1.05	0	congruent	Block3	congruent/STIM_011.jpg
3196.17	0.694	1	congruent	Block3	congruent/STIM_011.jpg
3200.72	0.785	1	congruent	Block3	congruent/STIM_011.jpg
3203.745	0.615	1	congruent	Block3	congruent/STIM_011.jpg
3206.628	0.921	1	congruent	Block3	congruent/STIM_012.jpg
3210.988	0.775	1	congruent	Block3	congruent/STIM_012.jpg
3215.307	0.662	1	congruent	Block3	congruent/STIM_012.jpg
3218.709	0.82	1	congruent	Block3	congruent/STIM_012.jpg
3222.278	1.042	1	congruent	Block3	congruent/STIM_012.jpg
3226.552	0.96	1	congruent	Block3	congruent/STIM_013.jpg
3230.869	0.862	1	congruent	Block3	congruent/STIM_013.jpg
3235.499	0.873	1	congruent	Block3	congruent/STIM_013.jpg
3239.243	1.012	1	congruent	Block3	congruent/STIM_013.jpg
3243.321	0.627	1	congruent	Block3	congruent/STIM_013.jpg
3247.453	1.004	1	congruent	Block3	congruent/STIM_014.jpg
3250.681	0.784	1	congruent	Block3	congruent/STIM_014.jpg
3253.837	0.682	1	congruent	Block3	congruent/STIM_014.jpg
3256.93	0.844	1	congruent	Block3	congruent/STIM_014.jpg
3260.299	0.601	1	congruent	Block3	congruent/STIM_014.jpg
3264.139	0.605	1	congruent	Block3	congruent/STIM_015.jpg
3268.578	0.633	1	congruent	Block3	congruent/STIM_015.jpg
3271.836	0.755	1	congruent	Block3	congruent/STIM_015.jpg
3276.325	0.779	1	congruent	Block3	congruent/STIM_015.jpg
3281.024	0.837	0	congruent	Block3	congruent/STIM_015.jpg
3284.574	0.838	1	congruent	Block3	congruent/STIM_016.jpg
3288.061	0.643	1	congruent	Block3	congruent/STIM_016.jpg
3292.075	0.853	1	congruent	Block3	congruent/STIM_016.jpg
3295.626	0.944	1	congruent	Block3	congruent/STIM_016.jpg
3300.419	1.024	1	congruent	Block3	congruent/STIM_016.jpg
3303.864	0.876	1	congruent	Block3	congruent/STIM_017.jpg
3307.931	0.663	1	congruent	Block3	congruent/STIM_017.jpg
3310.673	0.596	1	congruent	Block3	congruent/STIM_017.jpg
3314.34	0.858	1	congruent	Block3	congruent/STIM_017.jpg
3318.982	0.711	1	congruent	Block3	congruent/STIM_017.jpg
3323.501	0.881	1	congruent	Block3	congruent/STIM_018.jpg
3327.161	0.884	1	congruent	Block3	congruent/STIM_018.jpg
3331.676	0.943	1	congruent	Block3	congruent/STIM_018.jpg
3335.825	0.71	1	congruent	Block3	congruent/STIM_018.jpg
3339.854	0.79	0	congruent	Block3	congruent/STIM_018.jpg
3344.262	0.74	1	congruent	Block3	congruent/STIM_019.jpg
3347.312	0.672	1	congruent	Block3	congruent/STIM_019.jpg
3350.133	0.913	1	congruent	Block3	congruent/STIM_019.jpg
3353.388	0.911	1	congruent	Block3	congruent/STIM_019.jpg
3357.721	0.977	1	congruent	Block3	congruent/STIM_019.jpg
3361.688	0.616	1	congruent	Block3	congruent/STIM_020.jpg
3365.953	0.917	1	congruent	Block3	congruent/STIM_020.jpg
3370.47	0.998	1	congruent	Block3	congruent/STIM_020.jpg
3375.22	0.61	1	congruent	Block3	congruent/STIM_020.jpg
3378.619	0.791	1	congruent	Block3	congruent/STIM_020.jpg
3381.881	0.731	1	congruent	Block3	congruent/STIM_021.jpg
3385.111	0.63	1	congruent	Block3	congruent/STIM_021.jpg
3389.133	0.732	1	congruent	Block3	congruent/STIM_021.jpg
3391.899	0.587	1	congruent	Block3	congruent/STIM_021.jpg
3395.872	0.878	1	congruent	Block3	congruent/STIM_021.jpg
3400.01	0.796	1	congruent	Block3	congruent/STIM_022.jpg
3403.154	0.837	1	congruent	Block3	congruent/STIM_022.jpg
3406.469	0.992	1	congruent	Block3	congruent/STIM_022.jpg
3410.052	0.811	1	congruent	Block3	congruent/STIM_022.jpg
3414.172	0.628	1	congruent	Block3	congruent/STIM_022.jpg
3417.455	0.736	1	congruent	Block3	congruent/STIM_023.jpg
3421.899	1.051	1	congruent	Block3	congruent/STIM_023.jpg
3425.714	1.029	1	congruent	Block3	congruent/STIM_023.jpg
3429.779	0.95	1	congruent	Block3	congruent/STIM_023.jpg
3433.502	0.928	1	congruent	Block3	congruent/STIM_023.jpg
3438.291	0.987	1	congruent	Block3	congruent/STIM_024.jpg
3441.662	0.96	1	congruent	Block3	congruent/STIM_024.jpg
3445.905	0.865	1	congruent	Block3	congruent/STIM_024.jpg
3450.324	0.776	0	congruent	Block3	congruent/STIM_024.jpg
3453.763	0.902	1	congruent	Block3	congruent/STIM_024.jpg
3457.677	0.83	1	congruent	Block3	congruent/STIM_025.jpg
3462.504	0.733	0	congruent	Block3	congruent/STIM_025.jpg
3466.571	0.942	1	congruent	Block3	congruent/STIM_025.jpg
3471.368	0.766	1	congruent	Block3	congruent/STIM_025.jpg
3474.261	0.906	1	congruent	Block3	congruent/STIM_025.jpg
3479.024	0.932	1	congruent	Block3	congruent/STIM_026.jpg
3482.278	1.011	1	congruent	Block3	congruent/STIM_026.jpg
3485.87	0.863	1	congruent	Block3	congruent/STIM_026.jpg
3488.758	0.898	1	congruent	Block3	congruent/STIM_026.jpg
3493.292	0.864	1	congruent	Block3	congruent/STIM_026.jpg
3496.522	0.619	1	congruent	Block3	congruent/STIM_027.jpg
3500.879	0.885	1	congruent	Block3	congruent/STIM_027.jpg
3504.797	0.937	1	congruent	Block3	congruent/STIM_027.jpg
3508.555	0.973	1	congruent	Block3	congruent/STIM_027.jpg
3511.63	1.039	1	congruent	Block3	congruent/STIM_027.jpg
3516.183	0.807	1	congruent	Block3	congruent/STIM_028.jpg
3519.563	0.85	1	congruent	Block3	congruent/STIM_028.jpg
3523.038	0.612	1	congruent	Block3	congruent/STIM_028.jpg
3527.622	0.951	1	congruent	Block3	congruent/STIM_028.jpg
3531.905	0.84	1	congruent	Block3	congruent/STIM_028.jpg
3536.547	0.619	1	congruent	Block3	congruent/STIM_029.jpg
3539.259	0.655	1	congruent	Block3	congruent/STIM_029.jpg
3543.095	0.851	1	congruent	Block3	congruent/STIM_029.jpg
3546.309	1.031	1	congruent	Block3	congruent/STIM_029.jpg
3549.548	0.821	1	congruent	Block3	congruent/STIM_029.jpg
