onset	duration	accuracy	trial_type	learning_stage	stimulus
0.0	1.086	incorrect	incongruent	Block1	incongruent/STIM_000.jpg
4.927	0.687	correct	incongruent	Block1	incongruent/STIM_000.jpg
9.42	0.887	correct	incongruent	Block1	incongruent/STIM_000.jpg
13.571	0.9	correct	incongruent	Block1	incongruent/STIM_000.jpg
17.404	0.57	correct	incongruent	Block1	incongruent/STIM_000.jpg
20.726	1.385	correct	incongruent	Block1	incongruent/STIM_001.jpg
24.903	1.022	correct	incongruent	Block1	incongruent/STIM_001.jpg
29.059	0.987	correct	incongruent	Block1	incongruent/STIM_001.jpg
33.022	0.967	incorrect	incongruent	Block1	incongruent/STIM_001.jpg
36.807	0.671	correct	incongruent	Block1	incongruent/STIM_001.jpg
40.553	1.244	correct	incongruent	Block1	incongruent/STIM_002.jpg
44.57	0.875	correct	incongruent	Block1	incongruent/STIM_002.jpg
48.099	1.006	correct	incongruent	Block1	incongruent/STIM_002.jpg
52.564	0.706	correct	incongruent	Block1	incongruent/STIM_002.jpg
56.342	0.678	correct	incongruent	Block1	incongruent/STIM_002.jpg
60.224	0.799	correct	incongruent	Block1	incongruent/STIM_003.jpg
64.89	1.028	correct	incongruent	Block1	incongruent/STIM_003.jpg
69.391	0.776	correct	incongruent	Block1	incongruent/STIM_003.jpg
72.758	1.143	incorrect	incongruent	Block1	incongruent/STIM_003.jpg
77.323	0.586	correct	incongruent	Block1	incongruent/STIM_003.jpg
81.077	1.316	correct	incongruent	Block1	incongruent/STIM_004.jpg
86.122	0.992	correct	incongruent	Block1	incongruent/STIM_004.jpg
90.818	0.734	correct	incongruent	Block1	incongruent/STIM_004.jpg
94.931	0.953	correct	incongruent	Block1	incongruent/STIM_004.jpg
99.614	1.034	correct	incongruent	Block1	incongruent/STIM_004.jpg
103.319	1.115	correct	incongruent	Block1	incongruent/STIM_005.jpg
106.91	0.955	correct	incongruent	Block1	incongruent/STIM_005.jpg
111.287	0.669	correct	incongruent	Block1	incongruent/STIM_005.jpg
115.886	0.795	correct	incongruent	Block1	incongruent/STIM_005.jpg
118.795	1.138	correct	incongruent	Block1	incongruent/STIM_005.jpg
123.681	0.862	correct	incongruent	Block1	incongruent/STIM_006.jpg
126.573	1.215	correct	incongruent	Block1	incongruent/STIM_006.jpg
130.327	1.271	correct	incongruent	Block1	incongruent/STIM_006.jpg
134.93	1.111	correct	incongruent	Block1	incongruent/STIM_006.jpg
139.09	0.842	correct	incongruent	Block1	incongruent/STIM_006.jpg
143.842	0.722	correct	incongruent	Block1	incongruent/STIM_007.jpg
148.502	0.773	correct	incongruent	Block1	incongruent/STIM_007.jpg
152.081	1.118	correct	incongruent	Block1	incongruent/STIM_007.jpg
156.49	1.032	correct	incongruent	Block1	incongruent/STIM_007.jpg
161.162	0.638	correct	incongruent	Block1	incongruent/STIM_007.jpg
164.426	0.961	correct	incongruent	Block1	incongruent/STIM_008.jpg
168.839	1.365	incorrect	incongruent	Block1	incongruent/STIM_008.jpg
172.814	1.04	correct	incongruent	Block1	incongruent/STIM_008.jpg
177.061	0.851	correct	incongruent	Block1	incongruent/STIM_008.jpg
180.771	0.986	correct	incongruent	Block1	incongruent/STIM_008.jpg
184.065	0.79	correct	incongruent	Block1	incongruent/STIM_009.jpg
188.324	1.274	correct	incongruent	Block1	incongruent/STIM_009.jpg
192.889	1.132	correct	incongruent	Block1	incongruent/STIM_009.jpg
196.529	0.646	correct	incongruent	Block1	incongruent/STIM_009.jpg
200.912	0.628	correct	incongruent	Block1	incongruent/STIM_009.jpg
205.067	0.75	correct	incongruent	Block1	incongruent/STIM_010.jpg
209.584	0.719	correct	incongruent	Block1	incongruent/STIM_010.jpg
212.721	1.094	incorrect	incongruent	Block1	incongruent/STIM_010.jpg
216.27	0.971	incorrect	incongruent	Block1	incongruent/STIM_010.jpg
219.377	1.003	correct	incongruent	Block1	incongruent/STIM_010.jpg
222.789	1.078	incorrect	incongruent	Block1	incongruent/STIM_011.jpg
225.94	0.91	correct	incongruent	Block1	incongruent/STIM_011.jpg
230.703	1.072	incorrect	incongruent	Block1	incongruent/STIM_011.jpg
235.222	0.666	correct	incongruent	Block1	incongruent/STIM_011.jpg
237.944	1.07	correct	incongruent	Block1	incongruent/STIM_011.jpg
241.489	0.686	correct	incongruent	Block1	incongruent/STIM_012.jpg
244.331	0.916	correct	incongruent	Block1	incongruent/STIM_012.jpg
249.179	0.615	correct	incongruent	Block1	incongruent/STIM_012.jpg
252.878	1.076	correct	incongruent	Block1	incongruent/STIM_012.jpg
256.709	1.155	incorrect	incongruent	Block1	incongruent/STIM_012.jpg
260.625	1.296	correct	incongruent	Block1	incongruent/STIM_013.jpg
265.358	0.868	incorrect	incongruent	Block1	incongruent/STIM_013.jpg
270.04	1.217	incorrect	incongruent	Block1	incongruent/STIM_013.jpg
273.948	0.702	correct	incongruent	Block1	incongruent/STIM_013.jpg
278.486	0.854	correct	incongruent	Block1	incongruent/STIM_013.jpg
282.056	0.729	correct	incongruent	Block1	incongruent/STIM_014.jpg
286.787	1.086	correct	incongruent	Block1	incongruent/STIM_014.jpg
291.585	0.871	correct	incongruent	Block1	incongruent/STIM_014.jpg
295.424	0.837	incorrect	incongruent	Block1	incongruent/STIM_014.jpg
299.902	0.771	correct	incongruent	Block1	incongruent/STIM_014.jpg
303.963	0.741	correct	incongruent	Block1	incongruent/STIM_015.jpg
308.608	0.674	correct	incongruent	Block1	incongruent/STIM_015.jpg
311.663	1.024	correct	incongruent	Block1	incongruent/STIM_015.jpg
316.115	0.615	correct	incongruent	Block1	incongruent/STIM_015.jpg
319.787	1.138	correct	incongruent	Block1	incongruent/STIM_015.jpg
323.351	0.796	correct	incongruent	Block1	incongruent/STIM_016.jpg
328.014	1.172	correct	incongruent	Block1	incongruent/STIM_016.jpg
332.12	1.006	correct	incongruent	Block1	incongruent/STIM_016.jpg
336.082	0.94	correct	incongruent	Block1	incongruent/STIM_016.jpg
340.923	0.894	correct	incongruent	Block1	incongruent/STIM_016.jpg
344.952	1.203	correct	incongruent	Block1	incongruent/STIM_017.jpg
349.269	1.198	incorrect	incongruent	Block1	incongruent/STIM_017.jpg
354.386	0.787	correct	incongruent	Block1	incongruent/STIM_017.jpg
358.338	0.898	correct	incongruent	Block1	incongruent/STIM_017.jpg
361.266	0.766	correct	incongruent	Block1	incongruent/STIM_017.jpg
365.363	1.225	correct	incongruent	Block1	incongruent/STIM_018.jpg
368.741	0.751	correct	incongruent	Block1	incongruent/STIM_018.jpg
373.053	1.18	correct	incongruent	Block1	incongruent/STIM_018.jpg
376.585	0.889	correct	incongruent	Block1	incongruent/STIM_018.jpg
379.946	0.595	correct	incongruent	Block1	incongruent/STIM_018.jpg
383.54	1.262	correct	incongruent	Block1	incongruent/STIM_019.jpg
388.252	1.224	correct	incongruent	Block1	incongruent/STIM_019.jpg
391.938	0.752	correct	incongruent	Block1	incongruent/STIM_019.jpg
395.955	1.136	correct	incongruent	Block1	incongruent/STIM_019.jpg
399.88	0.568	correct	incongruent	Block1	incongruent/STIM_019.jpg
402.644	1.028	correct	incongruent	Block1	incongruent/STIM_020.jpg
406.128	0.995	correct	incongruent	Block1	incongruent/STIM_020.jpg
410.165	1.306	correct	incongruent	Block1	incongruent/STIM_020.jpg
414.314	1.228	correct	incongruent	Block1	incongruent/STIM_020.jpg
418.522	0.812	correct	incongruent	Block1	incongruent/STIM_020.jpg
423.275	1.047	correct	incongruent	Block1	incongruent/STIM_021.jpg
427.168	1.162	correct	incongruent	Block1	incongruent/STIM_021.jpg
432.306	0.891	incorrect	incongruent	Block1	incongruent/STIM_021.jpg
436.14	1.121	correct	incongruent	Block1	incongruent/STIM_021.jpg
440.526	0.751	correct	incongruent	Block1	incongruent/STIM_021.jpg
444.789	0.904	correct	incongruent	Block1	incongruent/STIM_022.jpg
448.582	1.077	correct	incongruent	Block1	incongruent/STIM_022.jpg
453.353	1.04	correct	incongruent	Block1	incongruent/STIM_022.jpg
457.193	1.116	correct	incongruent	Block1	incongruent/STIM_022.jpg
462.291	0.706	correct	incongruent	Block1	incongruent/STIM_022.jpg
465.877	0.892	correct	incongruent	Block1	incongruent/STIM_023.jpg
469.664	0.995	incorrect	incongruent	Block1	incongruent/STIM_023.jpg
474.209	0.826	correct	incongruent	Block1	incongruent/STIM_023.jpg
478.572	0.954	correct	incongruent	Block1	incongruent/STIM_023.jpg
483.037	0.657	correct	incongruent	Block1	incongruent/STIM_023.jpg
487.553	0.872	correct	incongruent	Block1	incongruent/STIM_024.jpg
491.022	1.197	incorrect	incongruent	Block1	incongruent/STIM_024.jpg
495.524	0.722	correct	incongruent	Block1	incongruent/STIM_024.jpg
499.308	0.849	correct	incongruent	Block1	incongruent/STIM_024.jpg
502.99	0.772	correct	incongruent	Block1	incongruent/STIM_024.jpg
505.972	0.964	correct	incongruent	Block1	incongruent/STIM_025.jpg
510.552	1.204	correct	incongruent	Block1	incongruent/STIM_025.jpg
514.33	0.926	correct	incongruent	Block1	incongruent/STIM_025.jpg
518.375	0.594	correct	incongruent	Block1	incongruent/STIM_025.jpg
522.845	0.892	correct	incongruent	Block1	incongruent/STIM_025.jpg
526.255	0.883	correct	incongruent	Block1	incongruent/STIM_026.jpg
530.721	0.863	correct	incongruent	Block1	incongruent/STIM_026.jpg
533.947	1.017	correct	incongruent	Block1	incongruent/STIM_026.jpg
538.832	1.018	correct	incongruent	Block1	incongruent/STIM_026.jpg
542.919	1.015	correct	incongruent	Block1	incongruent/STIM_026.jpg
547.761	1.337	correct	incongruent	Block1	incongruent/STIM_027.jpg
552.952	1.288	correct	incongruent	Block1	incongruent/STIM_027.jpg
557.872	1.058	correct	incongruent	Block1	incongruent/STIM_027.jpg
561.803	0.936	correct	incongruent	Block1	incongruent/STIM_027.jpg
565.189	0.914	correct	incongruent	Block1	incongruent/STIM_027.jpg
568.794	0.693	correct	incongruent	Block1	incongruent/STIM_028.jpg
571.915	1.125	correct	incongruent	Block1	incongruent/STIM_028.jpg
576.166	0.962	correct	incongruent	Block1	incongruent/STIM_028.jpg
581.116	1.221	correct	incongruent	Block1	incongruent/STIM_028.jpg
584.762	1.143	correct	incongruent	Block1	incongruent/STIM_028.jpg
588.77	1.241	correct	incongruent	Block1	incongruent/STIM_029.jpg
592.181	0.808	correct	incongruent	Block1	incongruent/STIM_029.jpg
596.836	0.847	correct	incongruent	Block1	incongruent/STIM_029.jpg
601.434	1.204	correct	incongruent	Block1	incongruent/STIM_029.jpg
604.738	0.653	correct	incongruent	Block1	incongruent/STIM_029.jpg
608.572	0.832	correct	congruent	Block1	congruent/STIM_000.jpg
613.255	0.789	correct	congruent	Block1	congruent/STIM_000.jpg
616.195	0.579	correct	congruent	Block1	congruent/STIM_000.jpg
619.329	0.508	correct	congruent	Block1	congruent/STIM_000.jpg
623.414	0.862	correct	congruent	Block1	congruent/STIM_000.jpg
627.329	0.499	correct	congruent	Block1	congruent/STIM_001.jpg
630.388	0.635	correct	congruent	Block1	congruent/STIM_001.jpg
634.69	0.706	correct	congruent	Block1	congruent/STIM_001.jpg
637.559	0.804	incorrect	congruent	Block1	congruent/STIM_001.jpg
641.263	0.67	correct	congruent	Block1	congruent/STIM_001.jpg
645.671	0.812	correct	congruent	Block1	congruent/STIM_002.jpg
649.985	0.645	correct	congruent	Block1	congruent/STIM_002.jpg
654.631	0.76	correct	congruent	Block1	congruent/STIM_002.jpg
658.869	0.558	correct	congruent	Block1	congruent/STIM_002.jpg
662.118	0.865	correct	congruent	Block1	congruent/STIM_002.jpg
666.742	0.797	correct	congruent	Block1	congruent/STIM_003.jpg
670.082	0.708	correct	congruent	Block1	congruent/STIM_003.jpg
674.104	0.671	correct	congruent	Block1	congruent/STIM_003.jpg
678.043	0.725	correct	congruent	Block1	congruent/STIM_003.jpg
681.303	0.787	correct	congruent	Block1	congruent/STIM_003.jpg
685.48	0.807	correct	congruent	Block1	congruent/STIM_004.jpg
688.382	0.562	correct	congruent	Block1	congruent/STIM_004.jpg
691.217	0.837	correct	congruent	Block1	congruent/STIM_004.jpg
694.94	0.682	correct	congruent	Block1	congruent/STIM_004.jpg
699.165	0.633	correct	congruent	Block1	congruent/STIM_004.jpg
702.299	0.524	correct	congruent	Block1	congruent/STIM_005.jpg
705.262	0.627	correct	congruent	Block1	congruent/STIM_005.jpg
709.172	0.846	correct	congruent	Block1	congruent/STIM_005.jpg
713.403	0.621	correct	congruent	Block1	congruent/STIM_005.jpg
716.596	0.796	correct	congruent	Block1	congruent/STIM_005.jpg
720.992	0.867	correct	congruent	Block1	congruent/STIM_006.jpg
724.081	0.67	correct	congruent	Block1	congruent/STIM_006.jpg
726.787	0.597	correct	congruent	Block1	congruent/STIM_006.jpg
729.439	0.688	correct	congruent	Block1	congruent/STIM_006.jpg
732.65	0.809	correct	congruent	Block1	congruent/STIM_006.jpg
737.034	0.825	correct	congruent	Block1	congruent/STIM_007.jpg
740.96	0.861	correct	congruent	Block1	congruent/STIM_007.jpg
745.096	0.497	correct	congruent	Block1	congruent/STIM_007.jpg
748.234	0.666	correct	congruent	Block1	congruent/STIM_007.jpg
752.723	0.806	correct	congruent	Block1	congruent/STIM_007.jpg
757.136	0.847	correct	congruent	Block1	congruent/STIM_008.jpg
760.231	0.812	correct	congruent	Block1	congruent/STIM_008.jpg
763.13	0.796	correct	congruent	Block1	congruent/STIM_008.jpg
767.656	0.648	correct	congruent	Block1	congruent/STIM_008.jpg
772.106	0.509	correct	congruent	Block1	congruent/STIM_008.jpg
774.985	0.776	correct	congruent	Block1	congruent/STIM_009.jpg
779.717	0.851	correct	congruent	Block1	congruent/STIM_009.jpg
784.499	0.53	correct	congruent	Block1	congruent/STIM_009.jpg
787.34	0.733	correct	congruent	Block1	congruent/STIM_009.jpg
792.047	0.686	correct	congruent	Block1	congruent/STIM_009.jpg
795.339	0.78	incorrect	congruent	Block1	congruent/STIM_010.jpg
798.616	0.642	correct	congruent	Block1	congruent/STIM_010.jpg
802.313	0.512	correct	congruent	Block1	congruent/STIM_010.jpg
805.089	0.807	correct	congruent	Block1	congruent/STIM_010.jpg
809.673	0.821	correct	congruent	Block1	congruent/STIM_010.jpg
813.768	0.494	correct	congruent	Block1	congruent/STIM_011.jpg
817.445	0.486	correct	congruent	Block1	congruent/STIM_011.jpg
820.875	0.536	correct	congruent	Block1	congruent/STIM_011.jpg
824.087	0.536	correct	congruent	Block1	congruent/STIM_011.jpg
828.244	0.629	correct	congruent	Block1	congruent/STIM_011.jpg
831.071	0.653	incorrect	congruent	Block1	congruent/STIM_012.jpg
834.405	0.534	correct	congruent	Block1	congruent/STIM_012.jpg
837.398	0.739	correct	congruent	Block1	congruent/STIM_012.jpg
840.64	0.633	correct	congruent	Block1	congruent/STIM_012.jpg
845.185	0.551	correct	congruent	Block1	congruent/STIM_012.jpg
848.775	0.649	correct	congruent	Block1	congruent/STIM_013.jpg
851.536	0.643	correct	congruent	Block1	congruent/STIM_013.jpg
855.276	0.762	correct	congruent	Block1	congruent/STIM_013.jpg
858.118	0.797	correct	congruent	Block1	congruent/STIM_013.jpg
862.394	0.513	correct	congruent	Block1	congruent/STIM_013.jpg
866.22	0.578	correct	congruent	Block1	congruent/STIM_014.jpg
869.438	0.583	correct	congruent	Block1	congruent/STIM_014.jpg
872.76	0.581	correct	congruent	Block1	congruent/STIM_014.jpg
875.751	0.612	correct	congruent	Block1	congruent/STIM_014.jpg
879.261	0.506	correct	congruent	Block1	congruent/STIM_014.jpg
883.244	0.584	correct	congruent	Block1	congruent/STIM_015.jpg
886.301	0.613	correct	congruent	Block1	congruent/STIM_015.jpg
890.364	0.53	correct	congruent	Block1	congruent/STIM_015.jpg
894.113	0.641	correct	congruent	Block1	congruent/STIM_015.jpg
897.581	0.826	correct	congruent	Block1	congruent/STIM_015.jpg
901.03	0.509	correct	congruent	Block1	congruent/STIM_016.jpg
904.14	0.598	correct	congruent	Block1	congruent/STIM_016.jpg
907.079	0.558	correct	congruent	Block1	congruent/STIM_016.jpg
910.115	0.586	correct	congruent	Block1	congruent/STIM_016.jpg
913.727	0.796	correct	congruent	Block1	congruent/STIM_016.jpg
918.094	0.575	correct	congruent	Block1	congruent/STIM_017.jpg
921.949	0.69	incorrect	congruent	Block1	congruent/STIM_017.jpg
925.538	0.501	correct	congruent	Block1	congruent/STIM_017.jpg
929.474	0.645	correct	congruent	Block1	congruent/STIM_017.jpg
932.251	0.654	correct	congruent	Block1	congruent/STIM_017.jpg
935.032	0.679	correct	congruent	Block1	congruent/STIM_018.jpg
939.46	0.74	correct	congruent	Block1	congruent/STIM_018.jpg
942.312	0.543	correct	congruent	Block1	congruent/STIM_018.jpg
945.215	0.561	correct	congruent	Block1	congruent/STIM_018.jpg
949.077	0.694	correct	congruent	Block1	congruent/STIM_018.jpg
952.769	0.544	correct	congruent	Block1	congruent/STIM_019.jpg
956.694	0.647	correct	congruent	Block1	congruent/STIM_019.jpg
960.649	0.77	correct	congruent	Block1	congruent/STIM_019.jpg
964.987	0.589	correct	congruent	Block1	congruent/STIM_019.jpg
969.358	0.72	correct	congruent	Block1	congruent/STIM_019.jpg
972.244	0.679	correct	congruent	Block1	congruent/STIM_020.jpg
975.576	0.509	correct	congruent	Block1	congruent/STIM_020.jpg
978.54	0.76	correct	congruent	Block1	congruent/STIM_020.jpg
982.99	0.578	correct	congruent	Block1	congruent/STIM_020.jpg
986.512	0.505	correct	congruent	Block1	congruent/STIM_020.jpg
989.378	0.664	correct	congruent	Block1	congruent/STIM_021.jpg
992.807	0.851	correct	congruent	Block1	congruent/STIM_021.jpg
995.952	0.68	correct	congruent	Block1	congruent/STIM_021.jpg
1000.559	0.789	correct	congruent	Block1	congruent/STIM_021.jpg
1004.555	0.858	correct	congruent	Block1	congruent/STIM_021.jpg
1008.899	0.797	correct	congruent	Block1	congruent/STIM_022.jpg
1012.201	0.871	correct	congruent	Block1	congruent/STIM_022.jpg
1015.22	0.813	correct	congruent	Block1	congruent/STIM_022.jpg
1019.696	0.537	correct	congruent	Block1	congruent/STIM_022.jpg
1023.819	0.542	correct	congruent	Block1	congruent/STIM_022.jpg
1027.701	0.77	correct	congruent	Block1	congruent/STIM_023.jpg
1031.372	0.796	correct	congruent	Block1	congruent/STIM_023.jpg
1036.084	0.564	correct	congruent	Block1	congruent/STIM_023.jpg
1040.608	0.501	correct	congruent	Block1	congruent/STIM_023.jpg
1044.731	0.547	correct	congruent	Block1	congruent/STIM_023.jpg
1047.396	0.672	correct	congruent	Block1	congruent/STIM_024.jpg
1051.108	0.708	correct	congruent	Block1	congruent/STIM_024.jpg
1055.323	0.583	correct	congruent	Block1	congruent/STIM_024.jpg
1058.847	0.793	correct	congruent	Block1	congruent/STIM_024.jpg
1062.512	0.708	correct	congruent	Block1	congruent/STIM_024.jpg
1066.014	0.649	correct	congruent	Block1	congruent/STIM_025.jpg
1069.391	0.618	correct	congruent	Block1	congruent/STIM_025.jpg
1072.817	0.526	correct	congruent	Block1	congruent/STIM_025.jpg
1077.033	0.873	correct	congruent	Block1	congruent/STIM_025.jpg
1080.094	0.87	correct	congruent	Block1	congruent/STIM_025.jpg
1083.793	0.486	correct	congruent	Block1	congruent/STIM_026.jpg
1087.6	0.598	correct	congruent	Block1	congruent/STIM_026.jpg
1091.264	0.558	correct	congruent	Block1	congruent/STIM_026.jpg
1095.599	0.79	correct	congruent	Block1	congruent/STIM_026.jpg
1098.604	0.6	correct	congruent	Block1	congruent/STIM_026.jpg
1102.925	0.859	correct	congruent	Block1	congruent/STIM_027.jpg
1106.215	0.794	correct	congruent	Block1	congruent/STIM_027.jpg
1109.213	0.524	correct	congruent	Block1	congruent/STIM_027.jpg
1112.477	0.514	correct	congruent	Block1	congruent/STIM_027.jpg
1115.58	0.773	correct	congruent	Block1	congruent/STIM_027.jpg
1119.942	0.818	correct	congruent	Block1	congruent/STIM_028.jpg
1124.335	0.69	correct	congruent	Block1	congruent/STIM_028.jpg
1127.598	0.791	correct	congruent	Block1	congruent/STIM_028.jpg
1131.897	0.839	correct	congruent	Block1	congruent/STIM_028.jpg
1136.586	0.84	correct	congruent	Block1	congruent/STIM_028.jpg
1140.552	0.672	correct	congruent	Block1	congruent/STIM_029.jpg
1143.461	0.612	correct	congruent	Block1	congruent/STIM_029.jpg
1147.479	0.516	correct	congruent	Block1	congruent/STIM_029.jpg
1151.367	0.612	correct	congruent	Block1	congruent/STIM_029.jpg
1155.953	0.71	correct	congruent	Block1	congruent/STIM_029.jpg
1160.503	0.74	correct	incongruent	Block2	incongruent/STIM_000.jpg
1165.26	0.789	correct	incongruent	Block2	incongruent/STIM_000.jpg
1169.722	0.656	correct	incongruent	Block2	incongruent/STIM_000.jpg
1174.187	0.572	correct	incongruent	Block2	incongruent/STIM_000.jpg
1177.233	0.806	correct	incongruent	Block2	incongruent/STIM_000.jpg
1181.549	0.962	correct	incongruent	Block2	incongruent/STIM_001.jpg
1186.266	0.996	correct	incongruent	Block2	incongruent/STIM_001.jpg
1190.588	0.984	correct	incongruent	Block2	incongruent/STIM_001.jpg
1194.648	0.918	correct	incongruent	Block2	incongruent/STIM_001.jpg
1198.585	0.9	correct	incongruent	Block2	incongruent/STIM_001.jpg
1201.621	0.627	correct	incongruent	Block2	incongruent/STIM_002.jpg
1205.299	0.558	correct	incongruent	Block2	incongruent/STIM_002.jpg
1208.177	1.079	correct	incongruent	Block2	incongruent/STIM_002.jpg
1212.716	0.507	correct	incongruent	Block2	incongruent/STIM_002.jpg
1217.23	0.694	correct	incongruent	Block2	incongruent/STIM_002.jpg
1220.824	0.621	correct	incongruent	Block2	incongruent/STIM_003.jpg
1223.838	0.629	incorrect	incongruent	Block2	incongruent/STIM_003.jpg
1227.014	0.696	correct	incongruent	Block2	incongruent/STIM_003.jpg
1230.938	0.504	correct	incongruent	Block2	incongruent/STIM_003.jpg
1233.942	0.488	correct	incongruent	Block2	incongruent/STIM_003.jpg
1238.414	0.602	correct	incongruent	Block2	incongruent/STIM_004.jpg
1241.426	0.873	correct	incongruent	Block2	incongruent/STIM_004.jpg
1245.024	0.717	correct	incongruent	Block2	incongruent/STIM_004.jpg
1249.577	0.564	correct	incongruent	Block2	incongruent/STIM_004.jpg
1253.89	0.978	correct	incongruent	Block2	incongruent/STIM_004.jpg
1257.952	0.617	correct	incongruent	Block2	incongruent/STIM_005.jpg
1262.08	0.576	correct	incongruent	Block2	incongruent/STIM_005.jpg
1265.195	0.716	correct	incongruent	Block2	incongruent/STIM_005.jpg
1268.339	0.672	correct	incongruent	Block2	incongruent/STIM_005.jpg
1272.52	0.58	correct	incongruent	Block2	incongruent/STIM_005.jpg
1276.001	0.673	correct	incongruent	Block2	incongruent/STIM_006.jpg
1278.766	1.084	correct	incongruent	Block2	incongruent/STIM_006.jpg
1282.936	0.899	correct	incongruent	Block2	incongruent/STIM_006.jpg
1287.784	0.705	correct	incongruent	Block2	incongruent/STIM_006.jpg
1291.662	0.628	correct	incongruent	Block2	incongruent/STIM_006.jpg
1295.997	0.701	correct	incongruent	Block2	incongruent/STIM_007.jpg
1299.792	0.75	correct	incongruent	Block2	incongruent/STIM_007.jpg
1303.235	0.675	correct	incongruent	Block2	incongruent/STIM_007.jpg
1306.236	0.558	correct	incongruent	Block2	incongruent/STIM_007.jpg
1309.011	0.476	correct	incongruent	Block2	incongruent/STIM_007.jpg
1312.716	0.739	correct	incongruent	Block2	incongruent/STIM_008.jpg
1315.563	0.775	correct	incongruent	Block2	incongruent/STIM_008.jpg
1320.196	0.956	correct	incongruent	Block2	incongruent/STIM_008.jpg
1323.907	0.631	correct	incongruent	Block2	incongruent/STIM_008.jpg
1327.544	0.6	correct	incongruent	Block2	incongruent/STIM_008.jpg
1331.846	1.138	correct	incongruent	Block2	incongruent/STIM_009.jpg
1336.452	0.753	correct	incongruent	Block2	incongruent/STIM_009.jpg
1339.482	0.769	correct	incongruent	Block2	incongruent/STIM_009.jpg
1342.683	0.482	correct	incongruent	Block2	incongruent/STIM_009.jpg
1347.096	0.716	correct	incongruent	Block2	incongruent/STIM_009.jpg
1350.746	0.744	correct	incongruent	Block2	incongruent/STIM_010.jpg
1355.067	0.814	correct	incongruent	Block2	incongruent/STIM_010.jpg
1358.123	0.827	correct	incongruent	Block2	incongruent/STIM_010.jpg
1361.594	0.509	correct	incongruent	Block2	incongruent/STIM_010.jpg
1365.345	0.684	correct	incongruent	Block2	incongruent/STIM_010.jpg
1368.071	0.965	correct	incongruent	Block2	incongruent/STIM_011.jpg
1372.973	0.792	correct	incongruent	Block2	incongruent/STIM_011.jpg
1377.441	0.911	correct	incongruent	Block2	incongruent/STIM_011.jpg
1381.838	0.516	correct	incongruent	Block2	incongruent/STIM_011.jpg
1384.715	0.495	correct	incongruent	Block2	incongruent/STIM_011.jpg
1387.464	1.059	correct	incongruent	Block2	incongruent/STIM_012.jpg
1391.728	0.925	correct	incongruent	Block2	incongruent/STIM_012.jpg
1394.701	0.841	correct	incongruent	Block2	incongruent/STIM_012.jpg
1398.787	0.949	correct	incongruent	Block2	incongruent/STIM_012.jpg
1402.907	0.63	correct	incongruent	Block2	incongruent/STIM_012.jpg
1406.878	1.06	correct	incongruent	Block2	incongruent/STIM_013.jpg
1409.973	0.984	correct	incongruent	Block2	incongruent/STIM_013.jpg
1414.082	0.8	correct	incongruent	Block2	incongruent/STIM_013.jpg
1418.409	0.605	correct	incongruent	Block2	incongruent/STIM_013.jpg
1421.619	0.906	correct	incongruent	Block2	incongruent/STIM_013.jpg
1425.506	0.619	correct	incongruent	Block2	incongruent/STIM_014.jpg
1429.746	0.848	correct	incongruent	Block2	incongruent/STIM_014.jpg
1433.109	0.949	correct	incongruent	Block2	incongruent/STIM_014.jpg
1437.201	0.496	correct	incongruent	Block2	incongruent/STIM_014.jpg
1439.926	0.976	correct	incongruent	Block2	incongruent/STIM_014.jpg
1444.287	0.678	correct	incongruent	Block2	incongruent/STIM_015.jpg
1447.055	1.06	correct	incongruent	Block2	incongruent/STIM_015.jpg
1451.11	0.963	correct	incongruent	Block2	incongruent/STIM_015.jpg
1454.811	0.648	correct	incongruent	Block2	incongruent/STIM_015.jpg
1457.774	0.501	incorrect	incongruent	Block2	incongruent/STIM_015.jpg
1460.551	1.122	correct	incongruent	Block2	incongruent/STIM_016.jpg
1465.558	0.665	correct	incongruent	Block2	incongruent/STIM_016.jpg
1468.306	0.99	correct	incongruent	Block2	incongruent/STIM_016.jpg
1471.408	0.578	correct	incongruent	Block2	incongruent/STIM_016.jpg
1475.978	0.902	correct	incongruent	Block2	incongruent/STIM_016.jpg
1479.634	1.079	correct	incongruent	Block2	incongruent/STIM_017.jpg
1484.482	0.834	correct	incongruent	Block2	incongruent/STIM_017.jpg
1488.139	0.823	incorrect	incongruent	Block2	incongruent/STIM_017.jpg
1492.619	0.867	correct	incongruent	Block2	incongruent/STIM_017.jpg
1496.643	0.507	correct	incongruent	Block2	incongruent/STIM_017.jpg
1501.053	0.907	correct	incongruent	Block2	incongruent/STIM_018.jpg
1505.772	0.834	correct	incongruent	Block2	incongruent/STIM_018.jpg
1509.013	0.684	correct	incongruent	Block2	incongruent/STIM_018.jpg
1511.951	0.813	correct	incongruent	Block2	incongruent/STIM_018.jpg
1516.53	0.93	correct	incongruent	Block2	incongruent/STIM_018.jpg
1520.494	1.094	correct	incongruent	Block2	incongruent/STIM_019.jpg
1524.715	0.738	correct	incongruent	Block2	incongruent/STIM_019.jpg
1528.834	0.686	correct	incongruent	Block2	incongruent/STIM_019.jpg
1531.673	0.799	correct	incongruent	Block2	incongruent/STIM_019.jpg
1535.083	0.982	correct	incongruent	Block2	incongruent/STIM_019.jpg
1539.945	0.695	correct	incongruent	Block2	incongruent/STIM_020.jpg
1544.622	0.814	correct	incongruent	Block2	incongruent/STIM_020.jpg
1548.213	0.946	correct	incongruent	Block2	incongruent/STIM_020.jpg
1552.94	0.931	correct	incongruent	Block2	incongruent/STIM_020.jpg
1557.236	0.928	correct	incongruent	Block2	incongruent/STIM_020.jpg
1560.508	0.773	correct	incongruent	Block2	incongruent/STIM_021.jpg
1564.591	0.584	correct	incongruent	Block2	incongruent/STIM_021.jpg
1568.167	0.529	correct	incongruent	Block2	incongruent/STIM_021.jpg
1572.035	0.642	correct	incongruent	Block2	incongruent/STIM_021.jpg
1574.734	0.93	correct	incongruent	Block2	incongruent/STIM_021.jpg
1579.343	0.736	correct	incongruent	Block2	incongruent/STIM_022.jpg
1582.782	0.997	correct	incongruent	Block2	incongruent/STIM_022.jpg
1587.175	1.07	correct	incongruent	Block2	incongruent/STIM_022.jpg
1592.146	0.811	correct	incongruent	Block2	incongruent/STIM_022.jpg
1595.432	1.0	correct	incongruent	Block2	incongruent/STIM_022.jpg
1599.158	1.195	correct	incongruent	Block2	incongruent/STIM_023.jpg
1603.519	1.057	correct	incongruent	Block2	incongruent/STIM_023.jpg
1606.621	0.687	correct	incongruent	Block2	incongruent/STIM_023.jpg
1610.798	0.673	correct	incongruent	Block2	incongruent/STIM_023.jpg
1614.248	0.69	correct	incongruent	Block2	incongruent/STIM_023.jpg
1618.778	0.719	correct	incongruent	Block2	incongruent/STIM_024.jpg
1622.255	0.836	correct	incongruent	Block2	incongruent/STIM_024.jpg
1626.902	0.894	incorrect	incongruent	Block2	incongruent/STIM_024.jpg
1630.087	0.915	correct	incongruent	Block2	incongruent/STIM_024.jpg
1633.15	0.74	correct	incongruent	Block2	incongruent/STIM_024.jpg
1636.696	1.135	correct	incongruent	Block2	incongruent/STIM_025.jpg
1640.46	0.646	correct	incongruent	Block2	incongruent/STIM_025.jpg
1644.948	0.904	correct	incongruent	Block2	incongruent/STIM_025.jpg
1648.901	0.549	correct	incongruent	Block2	incongruent/STIM_025.jpg
1652.539	0.897	correct	incongruent	Block2	incongruent/STIM_025.jpg
1656.246	0.986	correct	incongruent	Block2	incongruent/STIM_026.jpg
1659.274	0.953	correct	incongruent	Block2	incongruent/STIM_026.jpg
1664.188	0.833	correct	incongruent	Block2	incongruent/STIM_026.jpg
1668.675	0.535	correct	incongruent	Block2	incongruent/STIM_026.jpg
1672.594	0.778	correct	incongruent	Block2	incongruent/STIM_026.jpg
1677.29	0.599	incorrect	incongruent	Block2	incongruent/STIM_027.jpg
1680.821	0.668	correct	incongruent	Block2	incongruent/STIM_027.jpg
1685.228	0.863	correct	incongruent	Block2	incongruent/STIM_027.jpg
1688.41	0.555	correct	incongruent	Block2	incongruent/STIM_027.jpg
1692.691	0.689	correct	incongruent	Block2	incongruent/STIM_027.jpg
1697.134	0.68	correct	incongruent	Block2	incongruent/STIM_028.jpg
1700.294	0.879	correct	incongruent	Block2	incongruent/STIM_028.jpg
1704.034	1.012	correct	incongruent	Block2	incongruent/STIM_028.jpg
1707.202	0.594	correct	incongruent	Block2	incongruent/STIM_028.jpg
1710.594	0.988	correct	incongruent	Block2	incongruent/STIM_028.jpg
1714.844	1.163	correct	incongruent	Block2	incongruent/STIM_029.jpg
1719.864	1.008	correct	incongruent	Block2	incongruent/STIM_029.jpg
1723.412	0.865	correct	incongruent	Block2	incongruent/STIM_029.jpg
1728.188	0.868	correct	incongruent	Block2	incongruent/STIM_029.jpg
1731.672	0.954	correct	incongruent	Block2	incongruent/STIM_029.jpg
1734.924	0.528	correct	congruent	Block2	congruent/STIM_000.jpg
1739.244	0.858	correct	congruent	Block2	congruent/STIM_000.jpg
1743.776	0.731	correct	congruent	Block2	congruent/STIM_000.jpg
1746.673	0.549	correct	congruent	Block2	congruent/STIM_000.jpg
1750.309	0.738	correct	congruent	Block2	congruent/STIM_000.jpg
1754.804	0.58	correct	congruent	Block2	congruent/STIM_001.jpg
1759.335	0.685	correct	congruent	Block2	congruent/STIM_001.jpg
1764.029	0.691	correct	congruent	Block2	congruent/STIM_001.jpg
1767.503	0.766	correct	congruent	Block2	congruent/STIM_001.jpg
1770.618	0.66	correct	congruent	Block2	congruent/STIM_001.jpg
1774.713	0.661	correct	congruent	Block2	congruent/STIM_002.jpg
1778.257	0.561	correct	congruent	Block2	congruent/STIM_002.jpg
1782.505	0.83	correct	congruent	Block2	congruent/STIM_002.jpg
1785.567	0.7	incorrect	congruent	Block2	congruent/STIM_002.jpg
1789.97	0.785	correct	congruent	Block2	congruent/STIM_002.jpg
1794.759	0.873	correct	congruent	Block2	congruent/STIM_003.jpg
1799.595	0.864	correct	congruent	Block2	congruent/STIM_003.jpg
1804.297	0.856	correct	congruent	Block2	congruent/STIM_003.jpg
1808.0	0.819	correct	congruent	Block2	congruent/STIM_003.jpg
1812.754	0.777	correct	congruent	Block2	congruent/STIM_003.jpg
1816.24	0.56	correct	congruent	Block2	congruent/STIM_004.jpg
1819.349	0.769	correct	congruent	Block2	congruent/STIM_004.jpg
1823.933	0.5	correct	congruent	Block2	congruent/STIM_004.jpg
1827.489	0.784	correct	congruent	Block2	congruent/STIM_004.jpg
1830.619	0.613	correct	congruent	Block2	congruent/STIM_004.jpg
1834.687	0.84	correct	congruent	Block2	congruent/STIM_005.jpg
1838.184	0.486	correct	congruent	Block2	congruent/STIM_005.jpg
1842.318	0.675	correct	congruent	Block2	congruent/STIM_005.jpg
1845.519	0.528	incorrect	congruent	Block2	congruent/STIM_005.jpg
1849.625	0.512	correct	congruent	Block2	congruent/STIM_005.jpg
1853.473	0.559	correct	congruent	Block2	congruent/STIM_006.jpg
1857.751	0.844	correct	congruent	Block2	congruent/STIM_006.jpg
1862.276	0.745	correct	congruent	Block2	congruent/STIM_006.jpg
1866.0	0.596	correct	congruent	Block2	congruent/STIM_006.jpg
1870.148	0.585	correct	congruent	Block2	congruent/STIM_006.jpg
1874.263	0.76	correct	congruent	Block2	congruent/STIM_007.jpg
1877.517	0.662	correct	congruent	Block2	congruent/STIM_007.jpg
1880.887	0.518	correct	congruent	Block2	congruent/STIM_007.jpg
1884.288	0.758	correct	congruent	Block2	congruent/STIM_007.jpg
1887.198	0.558	correct	congruent	Block2	congruent/STIM_007.jpg
1891.046	0.508	correct	congruent	Block2	congruent/STIM_008.jpg
1894.307	0.87	correct	congruent	Block2	congruent/STIM_008.jpg
1897.688	0.734	correct	congruent	Block2	congruent/STIM_008.jpg
1901.171	0.537	correct	congruent	Block2	congruent/STIM_008.jpg
1905.344	0.639	correct	congruent	Block2	congruent/STIM_008.jpg
1909.584	0.818	correct	congruent	Block2	congruent/STIM_009.jpg
1912.907	0.837	correct	congruent	Block2	congruent/STIM_009.jpg
1917.218	0.795	correct	congruent	Block2	congruent/STIM_009.jpg
1920.805	0.712	correct	congruent	Block2	congruent/STIM_009.jpg
1925.395	0.722	correct	congruent	Block2	congruent/STIM_009.jpg
1929.171	0.676	correct	congruent	Block2	congruent/STIM_010.jpg
1933.672	0.695	correct	congruent	Block2	congruent/STIM_010.jpg
1937.061	0.569	correct	congruent	Block2	congruent/STIM_010.jpg
1940.424	0.532	correct	congruent	Block2	congruent/STIM_010.jpg
1944.099	0.769	correct	congruent	Block2	congruent/STIM_010.jpg
1947.538	0.622	correct	congruent	Block2	congruent/STIM_011.jpg
1951.31	0.79	correct	congruent	Block2	congruent/STIM_011.jpg
1954.658	0.57	correct	congruent	Block2	congruent/STIM_011.jpg
1958.414	0.826	correct	congruent	Block2	congruent/STIM_011.jpg
1962.88	0.728	correct	congruent	Block2	congruent/STIM_011.jpg
1967.116	0.767	correct	congruent	Block2	congruent/STIM_012.jpg
1971.822	0.741	correct	congruent	Block2	congruent/STIM_012.jpg
1975.059	0.812	correct	congruent	Block2	congruent/STIM_012.jpg
1979.78	0.861	correct	congruent	Block2	congruent/STIM_012.jpg
1982.811	0.634	correct	congruent	Block2	congruent/STIM_012.jpg
1987.171	0.698	correct	congruent	Block2	congruent/STIM_013.jpg
1990.089	0.636	correct	congruent	Block2	congruent/STIM_013.jpg
1993.167	0.73	correct	congruent	Block2	congruent/STIM_013.jpg
1996.247	0.793	correct	congruent	Block2	congruent/STIM_013.jpg
2000.52	0.57	correct	congruent	Block2	congruent/STIM_013.jpg
2004.209	0.508	correct	congruent	Block2	congruent/STIM_014.jpg
2008.351	0.792	correct	congruent	Block2	congruent/STIM_014.jpg
2011.41	0.773	correct	congruent	Block2	congruent/STIM_014.jpg
2014.554	0.668	correct	congruent	Block2	congruent/STIM_014.jpg
2019.114	0.849	correct	congruent	Block2	congruent/STIM_014.jpg
2023.378	0.62	correct	congruent	Block2	congruent/STIM_015.jpg
2026.37	0.594	correct	congruent	Block2	congruent/STIM_015.jpg
2029.321	0.791	correct	congruent	Block2	congruent/STIM_015.jpg
2032.209	0.668	correct	congruent	Block2	congruent/STIM_015.jpg
2035.787	0.659	correct	congruent	Block2	congruent/STIM_015.jpg
2040.175	0.585	correct	congruent	Block2	congruent/STIM_016.jpg
2044.411	0.691	correct	congruent	Block2	congruent/STIM_016.jpg
2047.585	0.775	correct	congruent	Block2	congruent/STIM_016.jpg
2051.293	0.734	correct	congruent	Block2	congruent/STIM_016.jpg
2055.338	0.562	correct	congruent	Block2	congruent/STIM_016.jpg
2058.872	0.611	correct	congruent	Block2	congruent/STIM_017.jpg
2063.284	0.748	correct	congruent	Block2	congruent/STIM_017.jpg
2066.287	0.63	correct	congruent	Block2	congruent/STIM_017.jpg
2069.356	0.72	correct	congruent	Block2	congruent/STIM_017.jpg
2072.169	0.68	correct	congruent	Block2	congruent/STIM_017.jpg
2075.218	0.512	correct	congruent	Block2	congruent/STIM_018.jpg
2078.231	0.704	incorrect	congruent	Block2	congruent/STIM_018.jpg
2081.605	0.84	correct	congruent	Block2	congruent/STIM_018.jpg
2086.039	0.579	correct	congruent	Block2	congruent/STIM_018.jpg
2089.645	0.708	correct	congruent	Block2	congruent/STIM_018.jpg
2093.712	0.58	correct	congruent	Block2	congruent/STIM_019.jpg
2098.266	0.848	correct	congruent	Block2	congruent/STIM_019.jpg
2103.043	0.787	correct	congruent	Block2	congruent/STIM_019.jpg
2107.044	0.737	correct	congruent	Block2	congruent/STIM_019.jpg
2111.596	0.815	correct	congruent	Block2	congruent/STIM_019.jpg
2115.848	0.768	correct	congruent	Block2	congruent/STIM_020.jpg
2120.559	0.612	correct	congruent	Block2	congruent/STIM_020.jpg
2124.317	0.49	correct	congruent	Block2	congruent/STIM_020.jpg
2128.63	0.763	correct	congruent	Block2	congruent/STIM_020.jpg
2133.407	0.534	correct	congruent	Block2	congruent/STIM_020.jpg
2137.192	0.644	correct	congruent	Block2	congruent/STIM_021.jpg
2141.218	0.848	correct	congruent	Block2	congruent/STIM_021.jpg
2144.707	0.612	correct	congruent	Block2	congruent/STIM_021.jpg
2147.89	0.584	correct	congruent	Block2	congruent/STIM_021.jpg
2152.297	0.863	incorrect	congruent	Block2	congruent/STIM_021.jpg
2156.337	0.609	correct	congruent	Block2	congruent/STIM_022.jpg
2159.502	0.581	correct	congruent	Block2	congruent/STIM_022.jpg
2162.841	0.582	correct	congruent	Block2	congruent/STIM_022.jpg
2166.293	0.826	correct	congruent	Block2	congruent/STIM_022.jpg
2169.335	0.584	correct	congruent	Block2	congruent/STIM_022.jpg
2173.058	0.851	correct	congruent	Block2	congruent/STIM_023.jpg
2176.205	0.615	incorrect	congruent	Block2	congruent/STIM_023.jpg
2179.381	0.684	correct	congruent	Block2	congruent/STIM_023.jpg
2182.608	0.832	correct	congruent	Block2	congruent/STIM_023.jpg
2187.179	0.773	correct	congruent	Block2	congruent/STIM_023.jpg
2190.551	0.743	correct	congruent	Block2	congruent/STIM_024.jpg
2194.817	0.851	correct	congruent	Block2	congruent/STIM_024.jpg
2197.935	0.827	correct	congruent	Block2	congruent/STIM_024.jpg
2201.477	0.746	correct	congruent	Block2	congruent/STIM_024.jpg
2205.466	0.563	correct	congruent	Block2	congruent/STIM_024.jpg
2209.202	0.678	correct	congruent	Block2	congruent/STIM_025.jpg
2212.371	0.845	correct	congruent	Block2	congruent/STIM_025.jpg
2216.104	0.56	correct	congruent	Block2	congruent/STIM_025.jpg
2219.168	0.659	correct	congruent	Block2	congruent/STIM_025.jpg
2222.931	0.755	correct	congruent	Block2	congruent/STIM_025.jpg
2227.694	0.621	correct	congruent	Block2	congruent/STIM_026.jpg
2231.465	0.726	correct	congruent	Block2	congruent/STIM_026.jpg
2235.915	0.675	correct	congruent	Block2	congruent/STIM_026.jpg
2238.912	0.5	correct	congruent	Block2	congruent/STIM_026.jpg
2242.398	0.845	correct	congruent	Block2	congruent/STIM_026.jpg
2245.389	0.694	correct	congruent	Block2	congruent/STIM_027.jpg
2249.588	0.568	correct	congruent	Block2	congruent/STIM_027.jpg
2252.629	0.621	correct	congruent	Block2	congruent/STIM_027.jpg
2256.81	0.74	correct	congruent	Block2	congruent/STIM_027.jpg
2260.746	0.703	correct	congruent	Block2	congruent/STIM_027.jpg
2263.992	0.616	correct	congruent	Block2	congruent/STIM_028.jpg
2268.395	0.512	correct	congruent	Block2	congruent/STIM_028.jpg
2271.333	0.496	correct	congruent	Block2	congruent/STIM_028.jpg
2274.907	0.607	incorrect	congruent	Block2	congruent/STIM_028.jpg
2278.741	0.64	correct	congruent	Block2	congruent/STIM_028.jpg
2282.169	0.8	correct	congruent	Block2	congruent/STIM_029.jpg
2286.709	0.832	incorrect	congruent	Block2	congruent/STIM_029.jpg
2290.775	0.847	correct	congruent	Block2	congruent/STIM_029.jpg
2294.016	0.62	incorrect	congruent	Block2	congruent/STIM_029.jpg
2298.475	0.52	correct	congruent	Block2	congruent/STIM_029.jpg
2302.192	0.976	correct	incongruent	Block3	incongruent/STIM_000.jpg
2306.899	0.656	correct	incongruent	Block3	incongruent/STIM_000.jpg
2310.711	0.728	correct	incongruent	Block3	incongruent/STIM_000.jpg
2315.096	0.95	correct	incongruent	Block3	incongruent/STIM_000.jpg
2320.031	0.477	correct	incongruent	Block3	incongruent/STIM_000.jpg
2323.214	0.791	correct	incongruent	Block3	incongruent/STIM_001.jpg
2327.413	0.756	correct	incongruent	Block3	incongruent/STIM_001.jpg
2331.8	0.963	correct	incongruent	Block3	incongruent/STIM_001.jpg
2335.667	0.904	correct	incongruent	Block3	incongruent/STIM_001.jpg
2339.635	0.612	correct	incongruent	Block3	incongruent/STIM_001.jpg
2342.958	0.508	correct	incongruent	Block3	incongruent/STIM_002.jpg
2346.641	0.898	correct	incongruent	Block3	incongruent/STIM_002.jpg
2350.736	0.927	correct	incongruent	Block3	incongruent/STIM_002.jpg
2354.668	0.632	correct	incongruent	Block3	incongruent/STIM_002.jpg
2359.212	0.657	correct	incongruent	Block3	incongruent/STIM_002.jpg
2363.329	0.482	correct	incongruent	Block3	incongruent/STIM_003.jpg
2367.636	0.882	correct	incongruent	Block3	incongruent/STIM_003.jpg
2371.838	0.66	correct	incongruent	Block3	incongruent/STIM_003.jpg
2375.974	0.516	correct	incongruent	Block3	incongruent/STIM_003.jpg
2378.759	0.747	correct	incongruent	Block3	incongruent/STIM_003.jpg
2382.834	0.765	correct	incongruent	Block3	incongruent/STIM_004.jpg
2387.121	0.72	correct	incongruent	Block3	incongruent/STIM_004.jpg
2390.103	0.714	correct	incongruent	Block3	incongruent/STIM_004.jpg
2394.332	0.726	correct	incongruent	Block3	incongruent/STIM_004.jpg
2398.2	0.859	correct	incongruent	Block3	incongruent/STIM_004.jpg
2402.311	0.799	correct	incongruent	Block3	incongruent/STIM_005.jpg
2405.741	0.929	correct	incongruent	Block3	incongruent/STIM_005.jpg
2409.961	0.721	correct	incongruent	Block3	incongruent/STIM_005.jpg
2414.379	0.798	correct	incongruent	Block3	incongruent/STIM_005.jpg
2417.743	0.792	correct	incongruent	Block3	incongruent/STIM_005.jpg
2421.237	0.54	correct	incongruent	Block3	incongruent/STIM_006.jpg
2425.097	0.796	correct	incongruent	Block3	incongruent/STIM_006.jpg
2428.251	0.52	correct	incongruent	Block3	incongruent/STIM_006.jpg
2431.215	0.498	correct	incongruent	Block3	incongruent/STIM_006.jpg
2435.717	0.907	correct	incongruent	Block3	incongruent/STIM_006.jpg
2440.511	0.737	correct	incongruent	Block3	incongruent/STIM_007.jpg
2443.911	0.773	correct	incongruent	Block3	incongruent/STIM_007.jpg
2447.433	0.537	correct	incongruent	Block3	incongruent/STIM_007.jpg
2451.566	0.814	correct	incongruent	Block3	incongruent/STIM_007.jpg
2454.409	0.939	correct	incongruent	Block3	incongruent/STIM_007.jpg
2457.602	0.661	correct	incongruent	Block3	incongruent/STIM_008.jpg
2461.198	0.564	correct	incongruent	Block3	incongruent/STIM_008.jpg
2463.876	0.606	correct	incongruent	Block3	incongruent/STIM_008.jpg
2467.977	0.763	incorrect	incongruent	Block3	incongruent/STIM_008.jpg
2471.408	0.677	correct	incongruent	Block3	incongruent/STIM_008.jpg
2474.505	0.712	correct	incongruent	Block3	incongruent/STIM_009.jpg
2477.839	0.863	correct	incongruent	Block3	incongruent/STIM_009.jpg
2480.96	0.894	correct	incongruent	Block3	incongruent/STIM_009.jpg
2485.076	0.564	correct	incongruent	Block3	incongruent/STIM_009.jpg
2488.712	0.532	correct	incongruent	Block3	incongruent/STIM_009.jpg
2492.632	0.588	correct	incongruent	Block3	incongruent/STIM_010.jpg
2495.546	0.702	correct	incongruent	Block3	incongruent/STIM_010.jpg
2500.262	0.707	correct	incongruent	Block3	incongruent/STIM_010.jpg
2504.469	0.479	correct	incongruent	Block3	incongruent/STIM_010.jpg
2507.463	0.651	correct	incongruent	Block3	incongruent/STIM_010.jpg
2510.838	0.704	correct	incongruent	Block3	incongruent/STIM_011.jpg
2514.754	0.696	correct	incongruent	Block3	incongruent/STIM_011.jpg
2519.082	0.895	correct	incongruent	Block3	incongruent/STIM_011.jpg
2522.527	0.537	correct	incongruent	Block3	incongruent/STIM_011.jpg
2525.222	0.746	correct	incongruent	Block3	incongruent/STIM_011.jpg
2529.593	0.562	correct	incongruent	Block3	incongruent/STIM_012.jpg
2533.255	0.74	correct	incongruent	Block3	incongruent/STIM_012.jpg
2537.079	0.928	correct	incongruent	Block3	incongruent/STIM_012.jpg
2541.272	0.635	correct	incongruent	Block3	incongruent/STIM_012.jpg
2545.606	0.645	correct	incongruent	Block3	incongruent/STIM_012.jpg
2549.185	0.951	correct	incongruent	Block3	incongruent/STIM_013.jpg
2553.29	0.733	correct	incongruent	Block3	incongruent/STIM_013.jpg
2556.881	0.85	correct	incongruent	Block3	incongruent/STIM_013.jpg
2561.604	0.548	correct	incongruent	Block3	incongruent/STIM_013.jpg
2564.836	0.855	correct	incongruent	Block3	incongruent/STIM_013.jpg
2569.349	0.838	correct	incongruent	Block3	incongruent/STIM_014.jpg
2573.189	0.975	correct	incongruent	Block3	incongruent/STIM_014.jpg
2578.148	0.999	correct	incongruent	Block3	incongruent/STIM_014.jpg
2582.79	0.849	correct	incongruent	Block3	incongruent/STIM_014.jpg
2587.516	0.998	correct	incongruent	Block3	incongruent/STIM_014.jpg
2590.704	0.782	correct	incongruent	Block3	incongruent/STIM_015.jpg
2594.336	0.628	correct	incongruent	Block3	incongruent/STIM_015.jpg
2597.757	0.707	correct	incongruent	Block3	incongruent/STIM_015.jpg
2601.104	0.664	correct	incongruent	Block3	incongruent/STIM_015.jpg
2604.764	0.774	correct	incongruent	Block3	incongruent/STIM_015.jpg
2607.818	0.765	correct	incongruent	Block3	incongruent/STIM_016.jpg
2611.811	0.559	correct	incongruent	Block3	incongruent/STIM_016.jpg
2616.16	0.74	correct	incongruent	Block3	incongruent/STIM_016.jpg
2620.764	0.578	correct	incongruent	Block3	incongruent/STIM_016.jpg
2624.933	0.897	correct	incongruent	Block3	incongruent/STIM_016.jpg
2629.71	0.994	correct	incongruent	Block3	incongruent/STIM_017.jpg
2633.558	0.667	correct	incongruent	Block3	incongruent/STIM_017.jpg
2637.984	0.753	correct	incongruent	Block3	incongruent/STIM_017.jpg
2641.415	0.477	correct	incongruent	Block3	incongruent/STIM_017.jpg
2645.113	0.79	correct	incongruent	Block3	incongruent/STIM_017.jpg
2648.846	0.711	correct	incongruent	Block3	incongruent/STIM_018.jpg
2652.63	0.493	correct	incongruent	Block3	incongruent/STIM_018.jpg
2655.179	0.881	correct	incongruent	Block3	incongruent/STIM_018.jpg
2658.508	0.905	correct	incongruent	Block3	incongruent/STIM_018.jpg
2662.082	0.983	correct	incongruent	Block3	incongruent/STIM_018.jpg
2666.211	0.712	correct	incongruent	Block3	incongruent/STIM_019.jpg
2669.308	0.55	correct	incongruent	Block3	incongruent/STIM_019.jpg
2673.303	0.55	correct	incongruent	Block3	incongruent/STIM_019.jpg
2676.304	0.984	correct	incongruent	Block3	incongruent/STIM_019.jpg
2680.982	0.94	correct	incongruent	Block3	incongruent/STIM_019.jpg
2685.719	0.686	correct	incongruent	Block3	incongruent/STIM_020.jpg
2689.527	0.692	correct	incongruent	Block3	incongruent/STIM_020.jpg
2693.332	0.493	correct	incongruent	Block3	incongruent/STIM_020.jpg
2696.811	0.954	correct	incongruent	Block3	incongruent/STIM_020.jpg
2701.348	0.96	correct	incongruent	Block3	incongruent/STIM_020.jpg
2706.288	0.631	correct	incongruent	Block3	incongruent/STIM_021.jpg
2708.975	0.733	correct	incongruent	Block3	incongruent/STIM_021.jpg
2712.746	0.719	correct	incongruent	Block3	incongruent/STIM_021.jpg
2716.275	0.62	correct	incongruent	Block3	incongruent/STIM_021.jpg
2719.771	0.576	correct	incongruent	Block3	incongruent/STIM_021.jpg
2724.223	0.992	correct	incongruent	Block3	incongruent/STIM_022.jpg
2727.813	0.777	correct	incongruent	Block3	incongruent/STIM_022.jpg
2730.707	0.781	correct	incongruent	Block3	incongruent/STIM_022.jpg
2734.979	0.611	correct	incongruent	Block3	incongruent/STIM_022.jpg
2739.313	0.795	correct	incongruent	Block3	incongruent/STIM_022.jpg
2743.224	0.675	correct	incongruent	Block3	incongruent/STIM_023.jpg
2746.756	0.862	correct	incongruent	Block3	incongruent/STIM_023.jpg
2751.419	0.543	correct	incongruent	Block3	incongruent/STIM_023.jpg
2755.183	0.654	correct	incongruent	Block3	incongruent/STIM_023.jpg
2759.299	0.705	correct	incongruent	Block3	incongruent/STIM_023.jpg
2763.14	0.522	correct	incongruent	Block3	incongruent/STIM_024.jpg
2767.572	0.908	correct	incongruent	Block3	incongruent/STIM_024.jpg
2772.166	0.776	correct	incongruent	Block3	incongruent/STIM_024.jpg
2775.595	0.845	correct	incongruent	Block3	incongruent/STIM_024.jpg
2780.227	0.657	correct	incongruent	Block3	incongruent/STIM_024.jpg
2783.045	0.781	correct	incongruent	Block3	incongruent/STIM_025.jpg
2787.658	0.674	correct	incongruent	Block3	incongruent/STIM_025.jpg
2791.214	0.888	correct	incongruent	Block3	incongruent/STIM_025.jpg
2794.496	0.865	correct	incongruent	Block3	incongruent/STIM_025.jpg
2798.709	0.702	correct	incongruent	Block3	incongruent/STIM_025.jpg
2801.578	0.711	correct	incongruent	Block3	incongruent/STIM_026.jpg
2806.014	0.617	correct	incongruent	Block3	incongruent/STIM_026.jpg
2810.373	0.897	correct	incongruent	Block3	incongruent/STIM_026.jpg
2813.905	0.656	correct	incongruent	Block3	incongruent/STIM_026.jpg
2818.214	0.564	correct	incongruent	Block3	incongruent/STIM_026.jpg
2821.629	0.927	correct	incongruent	Block3	incongruent/STIM_027.jpg
2824.906	0.623	correct	incongruent	Block3	incongruent/STIM_027.jpg
2829.5	0.736	correct	incongruent	Block3	incongruent/STIM_027.jpg
2834.084	0.972	correct	incongruent	Block3	incongruent/STIM_027.jpg
2837.956	0.64	correct	incongruent	Block3	incongruent/STIM_027.jpg
2841.108	0.532	correct	incongruent	Block3	incongruent/STIM_028.jpg
2844.117	0.732	correct	incongruent	Block3	incongruent/STIM_028.jpg
2846.977	0.511	correct	incongruent	Block3	incongruent/STIM_028.jpg
2850.838	0.853	correct	incongruent	Block3	incongruent/STIM_028.jpg
2855.151	0.57	correct	incongruent	Block3	incongruent/STIM_028.jpg
2859.39	0.902	correct	incongruent	Block3	incongruent/STIM_029.jpg
2863.85	0.972	correct	incongruent	Block3	incongruent/STIM_029.jpg
2867.047	0.574	correct	incongruent	Block3	incongruent/STIM_029.jpg
2870.851	0.829	correct	incongruent	Block3	incongruent/STIM_029.jpg
2873.982	0.86	correct	incongruent	Block3	incongruent/STIM_029.jpg
2877.757	0.586	incorrect	congruent	Block3	congruent/STIM_000.jpg
2881.7	0.615	correct	congruent	Block3	congruent/STIM_000.jpg
2886.175	0.867	correct	congruent	Block3	congruent/STIM_000.jpg
2890.345	0.728	correct	congruent	Block3	congruent/STIM_000.jpg
2893.586	0.735	correct	congruent	Block3	congruent/STIM_000.jpg
2898.044	0.771	correct	congruent	Block3	congruent/STIM_001.jpg
2902.151	0.682	correct	congruent	Block3	congruent/STIM_001.jpg
2905.27	0.614	correct	congruent	Block3	congruent/STIM_001.jpg
2908.133	0.557	correct	congruent	Block3	congruent/STIM_001.jpg
2912.431	0.683	correct	congruent	Block3	congruent/STIM_001.jpg
2916.343	0.795	correct	congruent	Block3	congruent/STIM_002.jpg
2920.906	0.671	correct	congruent	Block3	congruent/STIM_002.jpg
2925.447	0.838	correct	congruent	Block3	congruent/STIM_002.jpg
2929.988	0.814	correct	congruent	Block3	congruent/STIM_002.jpg
2933.192	0.726	correct	congruent	Block3	congruent/STIM_002.jpg
2937.698	0.595	correct	congruent	Block3	congruent/STIM_003.jpg
2940.865	0.771	correct	congruent	Block3	congruent/STIM_003.jpg
2944.465	0.652	correct	congruent	Block3	congruent/STIM_003.jpg
2947.162	0.803	correct	congruent	Block3	congruent/STIM_003.jpg
2951.057	0.54	correct	congruent	Block3	congruent/STIM_003.jpg
2954.435	0.815	correct	congruent	Block3	congruent/STIM_004.jpg
2957.79	0.648	correct	congruent	Block3	congruent/STIM_004.jpg
2960.909	0.597	correct	congruent	Block3	congruent/STIM_004.jpg
2964.029	0.639	correct	congruent	Block3	congruent/STIM_004.jpg
2968.544	0.821	correct	congruent	Block3	congruent/STIM_004.jpg
2973.053	0.531	correct	congruent	Block3	congruent/STIM_005.jpg
2977.525	0.508	correct	congruent	Block3	congruent/STIM_005.jpg
2981.359	0.833	correct	congruent	Block3	congruent/STIM_005.jpg
2985.341	0.722	correct	congruent	Block3	congruent/STIM_005.jpg
2989.545	0.567	correct	congruent	Block3	congruent/STIM_005.jpg
2993.22	0.621	correct	congruent	Block3	congruent/STIM_006.jpg
2996.456	0.756	correct	congruent	Block3	congruent/STIM_006.jpg
2999.597	0.659	correct	congruent	Block3	congruent/STIM_006.jpg
3004.26	0.513	correct	congruent	Block3	congruent/STIM_006.jpg
3008.236	0.758	correct	congruent	Block3	congruent/STIM_006.jpg
3011.842	0.678	correct	congruent	Block3	congruent/STIM_007.jpg
3016.12	0.507	correct	congruent	Block3	congruent/STIM_007.jpg
3019.554	0.572	correct	congruent	Block3	congruent/STIM_007.jpg
3024.133	0.582	correct	congruent	Block3	congruent/STIM_007.jpg
3028.626	0.536	correct	congruent	Block3	congruent/STIM_007.jpg
3032.523	0.785	correct	congruent	Block3	congruent/STIM_008.jpg
3035.417	0.514	correct	congruent	Block3	congruent/STIM_008.jpg
3038.778	0.612	correct	congruent	Block3	congruent/STIM_008.jpg
3042.226	0.665	correct	congruent	Block3	congruent/STIM_008.jpg
3045.514	0.854	correct	congruent	Block3	congruent/STIM_008.jpg
3049.442	0.83	correct	congruent	Block3	congruent/STIM_009.jpg
3053.141	0.543	correct	congruent	Block3	congruent/STIM_009.jpg
3057.107	0.705	correct	congruent	Block3	congruent/STIM_009.jpg
3060.295	0.859	correct	congruent	Block3	congruent/STIM_009.jpg
3065.093	0.773	correct	congruent	Block3	congruent/STIM_009.jpg
3069.779	0.84	correct	congruent	Block3	congruent/STIM_010.jpg
3072.758	0.527	correct	congruent	Block3	congruent/STIM_010.jpg
3076.147	0.864	correct	congruent	Block3	congruent/STIM_010.jpg
3080.038	0.842	correct	congruent	Block3	congruent/STIM_010.jpg
3083.51	0.76	correct	congruent	Block3	congruent/STIM_010.jpg
3086.775	0.488	correct	congruent	Block3	congruent/STIM_011.jpg
3089.616	0.508	incorrect	congruent	Block3	congruent/STIM_011.jpg
3093.401	0.682	correct	congruent	Block3	congruent/STIM_011.jpg
3097.515	0.503	correct	congruent	Block3	congruent/STIM_011.jpg
3101.877	0.685	correct	congruent	Block3	congruent/STIM_011.jpg
3105.383	0.581	correct	congruent	Block3	congruent/STIM_012.jpg
3109.756	0.832	correct	congruent	Block3	congruent/STIM_012.jpg
3112.758	0.595	correct	congruent	Block3	congruent/STIM_012.jpg
3116.105	0.682	correct	congruent	Block3	congruent/STIM_012.jpg
3120.22	0.836	correct	congruent	Block3	congruent/STIM_012.jpg
3124.698	0.705	correct	congruent	Block3	congruent/STIM_013.jpg
3128.383	0.492	correct	congruent	Block3	congruent/STIM_013.jpg
3132.422	0.843	correct	congruent	Block3	congruent/STIM_013.jpg
3135.363	0.741	correct	congruent	Block3	congruent/STIM_013.jpg
3139.515	0.667	correct	congruent	Block3	congruent/STIM_013.jpg
3143.752	0.696	correct	congruent	Block3	congruent/STIM_014.jpg
3147.324	0.65	correct	congruent	Block3	congruent/STIM_014.jpg
3150.151	0.833	correct	congruent	Block3	congruent/STIM_014.jpg
3154.114	0.77	correct	congruent	Block3	congruent/STIM_014.jpg
3156.956	0.832	correct	congruent	Block3	congruent/STIM_014.jpg
3160.364	0.537	correct	congruent	Block3	congruent/STIM_015.jpg
3164.251	0.862	correct	congruent	Block3	congruent/STIM_015.jpg
3168.632	0.865	correct	congruent	Block3	congruent/STIM_015.jpg
3172.381	0.572	correct	congruent	Block3	congruent/STIM_015.jpg
3176.716	0.634	incorrect	congruent	Block3	congruent/STIM_015.jpg
3181.347	0.589	incorrect	congruent	Block3	congruent/STIM_016.jpg
3185.035	0.833	correct	congruent	Block3	congruent/STIM_016.jpg
3189.137	0.574	correct	congruent	Block3	congruent/STIM_016.jpg
3193.71	0.698	correct	congruent	Block3	congruent/STIM_016.jpg
3197.543	0.51	correct	congruent	Block3	congruent/STIM_016.jpg
3201.406	0.547	correct	congruent	Block3	congruent/STIM_017.jpg
3204.837	0.577	correct	congruent	Block3	congruent/STIM_017.jpg
3209.041	0.745	correct	congruent	Block3	congruent/STIM_017.jpg
3213.55	0.626	correct	congruent	Block3	congruent/STIM_017.jpg
3217.674	0.553	correct	congruent	Block3	congruent/STIM_017.jpg
3220.518	0.597	correct	congruent	Block3	congruent/STIM_018.jpg
3223.238	0.824	correct	congruent	Block3	congruent/STIM_018.jpg
3228.033	0.757	correct	congruent	Block3	congruent/STIM_018.jpg
3231.835	0.678	correct	congruent	Block3	congruent/STIM_018.jpg
3236.161	0.623	correct	congruent	Block3	congruent/STIM_018.jpg
3239.327	0.576	correct	congruent	Block3	congruent/STIM_019.jpg
3243.363	0.647	correct	congruent	Block3	congruent/STIM_019.jpg
3246.456	0.853	correct	congruent	Block3	congruent/STIM_019.jpg
3250.527	0.648	correct	congruent	Block3	congruent/STIM_019.jpg
3253.455	0.662	correct	congruent	Block3	congruent/STIM_019.jpg
3257.404	0.562	correct	congruent	Block3	congruent/STIM_020.jpg
3261.227	0.742	correct	congruent	Block3	congruent/STIM_020.jpg
3265.858	0.506	correct	congruent	Block3	congruent/STIM_020.jpg
3269.818	0.851	correct	congruent	Block3	congruent/STIM_020.jpg
3272.969	0.873	correct	congruent	Block3	congruent/STIM_020.jpg
3276.203	0.535	correct	congruent	Block3	congruent/STIM_021.jpg
3279.081	0.535	correct	congruent	Block3	congruent/STIM_021.jpg
3283.056	0.704	correct	congruent	Block3	congruent/STIM_021.jpg
3287.241	0.727	correct	congruent	Block3	congruent/STIM_021.jpg
3291.874	0.833	correct	congruent	Block3	congruent/STIM_021.jpg
3296.081	0.487	correct	congruent	Block3	congruent/STIM_022.jpg
3299.542	0.74	correct	congruent	Block3	congruent/STIM_022.jpg
3303.889	0.653	correct	congruent	Block3	congruent/STIM_022.jpg
3306.63	0.72	correct	congruent	Block3	congruent/STIM_022.jpg
3310.186	0.508	correct	congruent	Block3	congruent/STIM_022.jpg
3313.438	0.498	correct	congruent	Block3	congruent/STIM_023.jpg
3317.615	0.648	correct	congruent	Block3	congruent/STIM_023.jpg
3321.517	0.544	correct	congruent	Block3	congruent/STIM_023.jpg
3324.59	0.557	correct	congruent	Block3	congruent/STIM_023.jpg
3328.288	0.659	correct	congruent	Block3	congruent/STIM_023.jpg
3331.235	0.707	correct	congruent	Block3	congruent/STIM_024.jpg
3334.372	0.813	correct	congruent	Block3	congruent/STIM_024.jpg
3337.387	0.812	correct	congruent	Block3	congruent/STIM_024.jpg
3340.763	0.729	incorrect	congruent	Block3	congruent/STIM_024.jpg
3343.726	0.544	correct	congruent	Block3	congruent/STIM_024.jpg
3348.014	0.564	correct	congruent	Block3	congruent/STIM_025.jpg
3351.816	0.578	incorrect	congruent	Block3	congruent/STIM_025.jpg
3356.322	0.59	correct	congruent	Block3	congruent/STIM_025.jpg
3359.577	0.713	correct	congruent	Block3	congruent/STIM_025.jpg
3362.662	0.762	correct	congruent	Block3	congruent/STIM_025.jpg
3366.708	0.706	correct	congruent	Block3	congruent/STIM_026.jpg
3370.673	0.784	correct	congruent	Block3	congruent/STIM_026.jpg
3373.902	0.756	correct	congruent	Block3	congruent/STIM_026.jpg
3377.487	0.736	correct	congruent	Block3	congruent/STIM_026.jpg
3382.089	0.572	correct	congruent	Block3	congruent/STIM_026.jpg
3386.581	0.66	correct	congruent	Block3	congruent/STIM_027.jpg
3390.712	0.642	correct	congruent	Block3	congruent/STIM_027.jpg
3394.45	0.662	correct	congruent	Block3	congruent/STIM_027.jpg
3397.79	0.504	correct	congruent	Block3	congruent/STIM_027.jpg
3401.792	0.712	correct	congruent	Block3	congruent/STIM_027.jpg
3404.626	0.787	correct	congruent	Block3	congruent/STIM_028.jpg
3409.311	0.65	correct	congruent	Block3	congruent/STIM_028.jpg
3411.986	0.516	correct	congruent	Block3	congruent/STIM_028.jpg
3416.247	0.745	correct	congruent	Block3	congruent/STIM_028.jpg
3421.006	0.635	correct	congruent	Block3	congruent/STIM_028.jpg
3424.438	0.651	correct	congruent	Block3	congruent/STIM_029.jpg
3427.623	0.578	correct	congruent	Block3	congruent/STIM_029.jpg
3431.979	0.862	correct	congruent	Block3	congruent/STIM_029.jpg
3436.6	0.66	correct	congruent	Block3	congruent/STIM_029.jpg
3439.603	0.685	correct	congruent	Block3	congruent/STIM_029.jpg
