onset	duration	response_time_ms	trial_type	learning_stage	stimulus	response_port
0.0	1.595	1594.7	incongruent	Block1	incongruent/STIM_000.jpg	99
5.345	1.592	1592.3	incongruent	Block1	incongruent/STIM_000.jpg	100
10.321	1.285	1284.6	incongruent	Block1	incongruent/STIM_000.jpg	100
15.123	0.97	969.6	incongruent	Block1	incongruent/STIM_000.jpg	99
19.675	0.78	779.7	incongruent	Block1	incongruent/STIM_000.jpg	99
23.353	0.936	935.8	incongruent	Block1	incongruent/STIM_001.jpg	100
27.887	1.519	1518.6	incongruent	Block1	incongruent/STIM_001.jpg	99
32.714	0.842	841.5	incongruent	Block1	incongruent/STIM_001.jpg	99
36.597	1.26	1260.2	incongruent	Block1	incongruent/STIM_001.jpg	100
40.263	0.824	824.4	incongruent	Block1	incongruent/STIM_001.jpg	100
44.065	1.463	1463.0	incongruent	Block1	incongruent/STIM_002.jpg	100
48.531	1.61	1609.9	incongruent	Block1	incongruent/STIM_002.jpg	100
53.275	1.522	1521.9	incongruent	Block1	incongruent/STIM_002.jpg	99
57.902	0.904	904.2	incongruent	Block1	incongruent/STIM_002.jpg	100
62.672	1.024	1023.5	incongruent	Block1	incongruent/STIM_002.jpg	99
67.284	1.028	1028.3	incongruent	Block1	incongruent/STIM_003.jpg	100
71.156	1.651	1651.4	incongruent	Block1	incongruent/STIM_003.jpg	99
75.493	1.566	1566.1	incongruent	Block1	incongruent/STIM_003.jpg	100
80.597	1.328	1327.6	incongruent	Block1	incongruent/STIM_003.jpg	99
84.125	0.853	853.0	incongruent	Block1	incongruent/STIM_003.jpg	100
87.173	1.649	1648.7	incongruent	Block1	incongruent/STIM_004.jpg	99
91.082	0.932	932.5	incongruent	Block1	incongruent/STIM_004.jpg	100
94.288	1.293	1292.9	incongruent	Block1	incongruent/STIM_004.jpg	100
99.292	0.888	888.1	incongruent	Block1	incongruent/STIM_004.jpg	100
103.311	0.796	796.0	incongruent	Block1	incongruent/STIM_004.jpg	100
106.686	1.024	1024.3	incongruent	Block1	incongruent/STIM_005.jpg	99
110.389	0.808	808.3	incongruent	Block1	incongruent/STIM_005.jpg	100
115.109	0.833	833.3	incongruent	Block1	incongruent/STIM_005.jpg	99
118.329	1.05	1049.6	incongruent	Block1	incongruent/STIM_005.jpg	100
122.657	0.873	873.0	incongruent	Block1	incongruent/STIM_005.jpg	99
126.703	1.757	1757.3	incongruent	Block1	incongruent/STIM_006.jpg	100
131.384	1.346	1346.2	incongruent	Block1	incongruent/STIM_006.jpg	99
135.296	0.861	860.7	incongruent	Block1	incongruent/STIM_006.jpg	99
138.521	1.159	1158.6	incongruent	Block1	incongruent/STIM_006.jpg	99
143.612	1.405	1404.7	incongruent	Block1	incongruent/STIM_006.jpg	100
148.507	1.636	1636.5	incongruent	Block1	incongruent/STIM_007.jpg	100
154.026	0.8	800.5	incongruent	Block1	incongruent/STIM_007.jpg	100
158.757	1.25	1250.1	incongruent	Block1	incongruent/STIM_007.jpg	99
163.754	1.428	1427.9	incongruent	Block1	incongruent/STIM_007.jpg	100
168.727	1.14	1139.8	incongruent	Block1	incongruent/STIM_007.jpg	99
173.267	1.064	1063.9	incongruent	Block1	incongruent/STIM_008.jpg	100
178.174	1.153	1153.2	incongruent	Block1	incongruent/STIM_008.jpg	100
181.814	0.973	973.2	incongruent	Block1	incongruent/STIM_008.jpg	100
185.244	1.124	1124.3	incongruent	Block1	incongruent/STIM_008.jpg	100
188.921	0.93	929.5	incongruent	Block1	incongruent/STIM_008.jpg	99
193.341	1.207	1206.7	incongruent	Block1	incongruent/STIM_009.jpg	99
196.781	0.824	824.2	incongruent	Block1	incongruent/STIM_009.jpg	100
201.579	1.329	1329.4	incongruent	Block1	incongruent/STIM_009.jpg	100
206.072	1.38	1379.6	incongruent	Block1	incongruent/STIM_009.jpg	99
211.227	0.792	791.6	incongruent	Block1	incongruent/STIM_009.jpg	99
215.801	1.028	1027.9	incongruent	Block1	incongruent/STIM_010.jpg	100
219.769	1.338	1338.1	incongruent	Block1	incongruent/STIM_010.jpg	100
225.107	1.302	1301.5	incongruent	Block1	incongruent/STIM_010.jpg	99
228.881	1.295	1294.9	incongruent	Block1	incongruent/STIM_010.jpg	100
233.173	0.876	875.5	incongruent	Block1	incongruent/STIM_010.jpg	100
236.185	0.976	975.7	incongruent	Block1	incongruent/STIM_011.jpg	99
240.969	1.144	1144.4	incongruent	Block1	incongruent/STIM_011.jpg	99
244.165	0.75	749.8	incongruent	Block1	incongruent/STIM_011.jpg	100
247.587	1.459	1459.0	incongruent	Block1	incongruent/STIM_011.jpg	100
252.484	1.313	1313.2	incongruent	Block1	incongruent/STIM_011.jpg	99
257.63	1.675	1675.0	incongruent	Block1	incongruent/STIM_012.jpg	100
262.189	1.295	1295.0	incongruent	Block1	incongruent/STIM_012.jpg	99
267.28	1.357	1357.4	incongruent	Block1	incongruent/STIM_012.jpg	99
271.21	0.824	823.8	incongruent	Block1	incongruent/STIM_012.jpg	100
275.239	1.347	1346.7	incongruent	Block1	incongruent/STIM_012.jpg	99
278.926	1.096	1095.6	incongruent	Block1	incongruent/STIM_013.jpg	99
282.947	0.813	812.9	incongruent	Block1	incongruent/STIM_013.jpg	99
287.321	1.428	1428.5	incongruent	Block1	incongruent/STIM_013.jpg	99
292.242	1.19	1190.2	incongruent	Block1	incongruent/STIM_013.jpg	99
295.632	0.687	686.8	incongruent	Block1	incongruent/STIM_013.jpg	99
298.568	0.988	988.0	incongruent	Block1	incongruent/STIM_014.jpg	100
303.296	1.275	1275.1	incongruent	Block1	incongruent/STIM_014.jpg	99
307.541	1.509	1508.6	incongruent	Block1	incongruent/STIM_014.jpg	99
313.01	1.166	1166.4	incongruent	Block1	incongruent/STIM_014.jpg	99
317.629	1.026	1026.3	incongruent	Block1	incongruent/STIM_014.jpg	100
321.477	1.087	1086.9	incongruent	Block1	incongruent/STIM_015.jpg	100
324.966	1.414	1414.0	incongruent	Block1	incongruent/STIM_015.jpg	100
329.297	1.194	1194.2	incongruent	Block1	incongruent/STIM_015.jpg	99
332.855	1.011	1010.7	incongruent	Block1	incongruent/STIM_015.jpg	99
336.632	1.09	1089.7	incongruent	Block1	incongruent/STIM_015.jpg	99
340.745	1.184	1184.5	incongruent	Block1	incongruent/STIM_016.jpg	99
344.083	0.94	939.9	incongruent	Block1	incongruent/STIM_016.jpg	99
348.175	1.547	1547.0	incongruent	Block1	incongruent/STIM_016.jpg	100
353.574	1.257	1257.1	incongruent	Block1	incongruent/STIM_016.jpg	99
358.53	0.821	820.8	incongruent	Block1	incongruent/STIM_016.jpg	99
362.634	1.26	1259.5	incongruent	Block1	incongruent/STIM_017.jpg	99
367.242	1.558	1557.7	incongruent	Block1	incongruent/STIM_017.jpg	100
370.909	1.067	1067.4	incongruent	Block1	incongruent/STIM_017.jpg	99
374.547	1.493	1493.3	incongruent	Block1	incongruent/STIM_017.jpg	99
379.447	0.668	667.6	incongruent	Block1	incongruent/STIM_017.jpg	100
383.903	0.835	835.4	incongruent	Block1	incongruent/STIM_018.jpg	99
388.27	1.641	1640.7	incongruent	Block1	incongruent/STIM_018.jpg	99
393.873	1.313	1313.0	incongruent	Block1	incongruent/STIM_018.jpg	100
398.464	1.215	1215.0	incongruent	Block1	incongruent/STIM_018.jpg	99
403.215	0.897	896.7	incongruent	Block1	incongruent/STIM_018.jpg	99
406.938	0.984	984.2	incongruent	Block1	incongruent/STIM_019.jpg	99
410.35	1.656	1656.4	incongruent	Block1	incongruent/STIM_019.jpg	99
414.87	1.534	1534.5	incongruent	Block1	incongruent/STIM_019.jpg	100
419.974	1.06	1060.3	incongruent	Block1	incongruent/STIM_019.jpg	100
424.722	1.072	1071.7	incongruent	Block1	incongruent/STIM_019.jpg	99
429.76	0.852	851.6	incongruent	Block1	incongruent/STIM_020.jpg	99
434.266	1.41	1409.5	incongruent	Block1	incongruent/STIM_020.jpg	99
437.782	1.254	1254.2	incongruent	Block1	incongruent/STIM_020.jpg	100
441.784	1.186	1186.1	incongruent	Block1	incongruent/STIM_020.jpg	100
445.908	0.709	709.4	incongruent	Block1	incongruent/STIM_020.jpg	100
449.972	0.902	902.5	incongruent	Block1	incongruent/STIM_021.jpg	100
454.298	1.432	1432.3	incongruent	Block1	incongruent/STIM_021.jpg	99
457.959	0.946	946.5	incongruent	Block1	incongruent/STIM_021.jpg	99
462.089	0.739	738.7	incongruent	Block1	incongruent/STIM_021.jpg	99
466.63	1.009	1009.0	incongruent	Block1	incongruent/STIM_021.jpg	99
471.237	1.045	1044.6	incongruent	Block1	incongruent/STIM_022.jpg	100
476.192	1.418	1418.4	incongruent	Block1	incongruent/STIM_022.jpg	99
479.918	1.264	1263.6	incongruent	Block1	incongruent/STIM_022.jpg	99
484.356	1.119	1118.8	incongruent	Block1	incongruent/STIM_022.jpg	100
487.528	0.897	896.6	incongruent	Block1	incongruent/STIM_022.jpg	100
492.006	0.977	976.9	incongruent	Block1	incongruent/STIM_023.jpg	99
496.247	1.612	1612.4	incongruent	Block1	incongruent/STIM_023.jpg	100
501.491	0.782	782.4	incongruent	Block1	incongruent/STIM_023.jpg	100
504.917	0.994	994.1	incongruent	Block1	incongruent/STIM_023.jpg	99
509.817	0.704	703.9	incongruent	Block1	incongruent/STIM_023.jpg	100
514.028	1.006	1006.2	incongruent	Block1	incongruent/STIM_024.jpg	99
518.15	1.151	1151.0	incongruent	Block1	incongruent/STIM_024.jpg	100
521.658	0.925	924.9	incongruent	Block1	incongruent/STIM_024.jpg	99
525.352	1.391	1390.9	incongruent	Block1	incongruent/STIM_024.jpg	99
529.242	0.927	927.1	incongruent	Block1	incongruent/STIM_024.jpg	100
532.746	0.83	830.1	incongruent	Block1	incongruent/STIM_025.jpg	99
535.732	1.575	1575.3	incongruent	Block1	incongruent/STIM_025.jpg	100
540.369	1.446	1446.0	incongruent	Block1	incongruent/STIM_025.jpg	99
545.788	1.471	1471.4	incongruent	Block1	incongruent/STIM_025.jpg	100
551.152	1.39	1389.5	incongruent	Block1	incongruent/STIM_025.jpg	100
555.82	1.509	1509.2	incongruent	Block1	incongruent/STIM_026.jpg	100
561.088	1.415	1415.0	incongruent	Block1	incongruent/STIM_026.jpg	100
565.428	1.545	1544.9	incongruent	Block1	incongruent/STIM_026.jpg	100
569.945	1.193	1192.8	incongruent	Block1	incongruent/STIM_026.jpg	100
574.982	0.704	703.5	incongruent	Block1	incongruent/STIM_026.jpg	99
578.77	1.642	1642.1	incongruent	Block1	incongruent/STIM_027.jpg	99
584.317	0.889	889.2	incongruent	Block1	incongruent/STIM_027.jpg	100
588.645	1.047	1047.3	incongruent	Block1	incongruent/STIM_027.jpg	99
592.278	1.325	1324.9	incongruent	Block1	incongruent/STIM_027.jpg	99
596.603	1.27	1269.6	incongruent	Block1	incongruent/STIM_027.jpg	100
601.214	1.51	1510.5	incongruent	Block1	incongruent/STIM_028.jpg	99
604.868	1.518	1518.3	incongruent	Block1	incongruent/STIM_028.jpg	99
608.575	0.973	973.1	incongruent	Block1	incongruent/STIM_028.jpg	100
611.679	1.496	1496.1	incongruent	Block1	incongruent/STIM_028.jpg	100
615.91	0.849	849.3	incongruent	Block1	incongruent/STIM_028.jpg	99
619.857	1.659	1659.1	incongruent	Block1	incongruent/STIM_029.jpg	100
624.273	1.104	1104.0	incongruent	Block1	incongruent/STIM_029.jpg	99
628.22	1.492	1491.7	incongruent	Block1	incongruent/STIM_029.jpg	99
631.831	0.863	863.3	incongruent	Block1	incongruent/STIM_029.jpg	99
635.006	1.383	1382.6	incongruent	Block1	incongruent/STIM_029.jpg	99
639.253	0.826	826.5	congruent	Block1	congruent/STIM_000.jpg	99
642.711	1.038	1038.3	congruent	Block1	congruent/STIM_000.jpg	99
646.229	0.844	843.5	congruent	Block1	congruent/STIM_000.jpg	100
650.621	0.98	979.5	congruent	Block1	congruent/STIM_000.jpg	100
654.413	1.017	1016.6	congruent	Block1	congruent/STIM_000.jpg	99
658.699	0.802	802.5	congruent	Block1	congruent/STIM_001.jpg	99
662.374	0.658	657.9	congruent	Block1	congruent/STIM_001.jpg	99
666.482	0.651	650.8	congruent	Block1	congruent/STIM_001.jpg	99
669.493	0.767	766.6	congruent	Block1	congruent/STIM_001.jpg	99
672.552	0.61	610.4	congruent	Block1	congruent/STIM_001.jpg	100
676.365	0.99	990.5	congruent	Block1	congruent/STIM_002.jpg	100
680.221	0.785	784.6	congruent	Block1	congruent/STIM_002.jpg	99
683.457	0.858	857.7	congruent	Block1	congruent/STIM_002.jpg	100
686.51	0.804	803.8	congruent	Block1	congruent/STIM_002.jpg	100
690.076	1.051	1051.4	congruent	Block1	congruent/STIM_002.jpg	99
694.159	0.788	787.5	congruent	Block1	congruent/STIM_003.jpg	100
698.928	0.763	763.0	congruent	Block1	congruent/STIM_003.jpg	99
703.425	0.644	643.8	congruent	Block1	congruent/STIM_003.jpg	100
706.713	0.744	744.4	congruent	Block1	congruent/STIM_003.jpg	100
709.685	1.022	1022.2	congruent	Block1	congruent/STIM_003.jpg	100
712.775	0.793	792.9	congruent	Block1	congruent/STIM_004.jpg	100
716.097	0.652	652.4	congruent	Block1	congruent/STIM_004.jpg	100
719.923	0.607	606.9	congruent	Block1	congruent/STIM_004.jpg	100
724.257	0.642	642.2	congruent	Block1	congruent/STIM_004.jpg	100
727.238	0.936	936.2	congruent	Block1	congruent/STIM_004.jpg	100
730.73	0.715	714.9	congruent	Block1	congruent/STIM_005.jpg	99
734.376	1.001	1000.9	congruent	Block1	congruent/STIM_005.jpg	99
738.38	0.864	863.6	congruent	Block1	congruent/STIM_005.jpg	99
742.237	0.708	707.7	congruent	Block1	congruent/STIM_005.jpg	99
746.114	0.735	734.6	congruent	Block1	congruent/STIM_005.jpg	99
749.258	0.602	601.6	congruent	Block1	congruent/STIM_006.jpg	99
752.365	0.752	752.5	congruent	Block1	congruent/STIM_006.jpg	99
755.861	0.992	992.5	congruent	Block1	congruent/STIM_006.jpg	100
759.461	0.955	955.0	congruent	Block1	congruent/STIM_006.jpg	100
764.321	0.587	587.3	congruent	Block1	congruent/STIM_006.jpg	99
768.554	0.844	843.8	congruent	Block1	congruent/STIM_007.jpg	100
772.737	0.643	642.7	congruent	Block1	congruent/STIM_007.jpg	100
776.518	0.668	667.9	congruent	Block1	congruent/STIM_007.jpg	100
780.385	1.009	1008.8	congruent	Block1	congruent/STIM_007.jpg	100
785.17	0.628	628.2	congruent	Block1	congruent/STIM_007.jpg	100
789.743	0.826	826.4	congruent	Block1	congruent/STIM_008.jpg	99
793.543	0.606	606.0	congruent	Block1	congruent/STIM_008.jpg	100
798.0	0.765	765.3	congruent	Block1	congruent/STIM_008.jpg	100
802.623	1.015	1014.7	congruent	Block1	congruent/STIM_008.jpg	100
807.407	0.85	850.5	congruent	Block1	congruent/STIM_008.jpg	99
811.34	0.939	939.3	congruent	Block1	congruent/STIM_009.jpg	100
814.371	0.735	734.7	congruent	Block1	congruent/STIM_009.jpg	99
817.737	0.611	611.2	congruent	Block1	congruent/STIM_009.jpg	99
820.533	0.849	848.8	congruent	Block1	congruent/STIM_009.jpg	100
823.387	1.014	1013.5	congruent	Block1	congruent/STIM_009.jpg	99
827.961	0.88	879.9	congruent	Block1	congruent/STIM_010.jpg	99
832.305	0.687	686.8	congruent	Block1	congruent/STIM_010.jpg	99
836.831	0.888	888.5	congruent	Block1	congruent/STIM_010.jpg	100
840.361	0.907	906.9	congruent	Block1	congruent/STIM_010.jpg	100
844.021	0.703	703.4	congruent	Block1	congruent/STIM_010.jpg	100
846.728	0.632	632.0	congruent	Block1	congruent/STIM_011.jpg	100
849.701	0.653	653.1	congruent	Block1	congruent/STIM_011.jpg	99
853.489	0.611	610.8	congruent	Block1	congruent/STIM_011.jpg	99
857.229	1.016	1016.1	congruent	Block1	congruent/STIM_011.jpg	100
861.992	1.001	1000.7	congruent	Block1	congruent/STIM_011.jpg	99
866.227	0.604	604.2	congruent	Block1	congruent/STIM_012.jpg	100
870.279	0.971	970.6	congruent	Block1	congruent/STIM_012.jpg	99
873.498	0.831	831.2	congruent	Block1	congruent/STIM_012.jpg	100
877.071	0.704	703.7	congruent	Block1	congruent/STIM_012.jpg	99
881.534	0.834	834.3	congruent	Block1	congruent/STIM_012.jpg	99
886.014	1.039	1038.7	congruent	Block1	congruent/STIM_013.jpg	99
889.564	0.633	632.7	congruent	Block1	congruent/STIM_013.jpg	100
893.585	1.0	1000.3	congruent	Block1	congruent/STIM_013.jpg	99
897.869	0.933	932.9	congruent	Block1	congruent/STIM_013.jpg	99
902.362	0.684	683.9	congruent	Block1	congruent/STIM_013.jpg	100
906.834	0.832	832.5	congruent	Block1	congruent/STIM_014.jpg	100
910.358	0.932	931.7	congruent	Block1	congruent/STIM_014.jpg	99
914.109	0.813	812.6	congruent	Block1	congruent/STIM_014.jpg	100
917.693	0.898	897.7	congruent	Block1	congruent/STIM_014.jpg	99
920.902	0.929	928.9	congruent	Block1	congruent/STIM_014.jpg	99
923.976	1.016	1016.1	congruent	Block1	congruent/STIM_015.jpg	99
927.764	0.804	804.5	congruent	Block1	congruent/STIM_015.jpg	100
930.61	0.951	950.9	congruent	Block1	congruent/STIM_015.jpg	99
933.676	0.931	931.0	congruent	Block1	congruent/STIM_015.jpg	99
937.742	0.963	963.0	congruent	Block1	congruent/STIM_015.jpg	100
941.727	0.907	907.3	congruent	Block1	congruent/STIM_016.jpg	100
945.835	0.699	699.2	congruent	Block1	congruent/STIM_016.jpg	100
948.783	0.736	735.8	congruent	Block1	congruent/STIM_016.jpg	99
953.503	0.967	967.4	congruent	Block1	congruent/STIM_016.jpg	99
956.849	0.798	797.7	congruent	Block1	congruent/STIM_016.jpg	99
960.804	1.048	1048.2	congruent	Block1	congruent/STIM_017.jpg	99
964.304	0.696	696.1	congruent	Block1	congruent/STIM_017.jpg	99
967.744	0.589	589.1	congruent	Block1	congruent/STIM_017.jpg	100
970.991	1.034	1033.6	congruent	Block1	congruent/STIM_017.jpg	100
975.158	0.853	853.0	congruent	Block1	congruent/STIM_017.jpg	100
979.688	0.912	911.5	congruent	Block1	congruent/STIM_018.jpg	100
983.541	0.983	983.4	congruent	Block1	congruent/STIM_018.jpg	99
987.403	0.961	961.1	congruent	Block1	congruent/STIM_018.jpg	100
990.865	0.66	659.8	congruent	Block1	congruent/STIM_018.jpg	100
993.761	1.05	1050.2	congruent	Block1	congruent/STIM_018.jpg	100
998.658	0.653	652.6	congruent	Block1	congruent/STIM_019.jpg	100
1002.238	0.658	658.1	congruent	Block1	congruent/STIM_019.jpg	100
1005.833	0.775	775.4	congruent	Block1	congruent/STIM_019.jpg	99
1008.84	1.043	1043.1	congruent	Block1	congruent/STIM_019.jpg	100
1013.756	0.635	635.4	congruent	Block1	congruent/STIM_019.jpg	100
1016.66	0.788	788.4	congruent	Block1	congruent/STIM_020.jpg	99
1020.793	0.687	686.8	congruent	Block1	congruent/STIM_020.jpg	99
1024.042	0.827	826.9	congruent	Block1	congruent/STIM_020.jpg	99
1028.855	0.822	821.8	congruent	Block1	congruent/STIM_020.jpg	99
1032.919	0.887	886.8	congruent	Block1	congruent/STIM_020.jpg	100
1037.033	0.94	939.7	congruent	Block1	congruent/STIM_021.jpg	99
1041.758	0.685	684.9	congruent	Block1	congruent/STIM_021.jpg	99
1046.427	0.694	694.5	congruent	Block1	congruent/STIM_021.jpg	99
1049.504	0.949	949.2	congruent	Block1	congruent/STIM_021.jpg	99
1053.841	0.611	610.8	congruent	Block1	congruent/STIM_021.jpg	99
1056.934	0.963	962.6	congruent	Block1	congruent/STIM_022.jpg	100
1061.488	0.683	682.9	congruent	Block1	congruent/STIM_022.jpg	100
1065.692	0.673	673.0	congruent	Block1	congruent/STIM_022.jpg	100
1070.226	0.77	769.6	congruent	Block1	congruent/STIM_022.jpg	100
1074.72	0.923	923.2	congruent	Block1	congruent/STIM_022.jpg	100
1079.587	0.883	883.0	congruent	Block1	congruent/STIM_023.jpg	100
1082.785	1.045	1044.6	congruent	Block1	congruent/STIM_023.jpg	99
1086.517	0.8	800.3	congruent	Block1	congruent/STIM_023.jpg	99
1089.902	0.72	719.5	congruent	Block1	congruent/STIM_023.jpg	99
1094.151	0.794	794.4	congruent	Block1	congruent/STIM_023.jpg	99
1098.687	0.919	919.1	congruent	Block1	congruent/STIM_024.jpg	99
1102.332	0.779	778.7	congruent	Block1	congruent/STIM_024.jpg	99
1106.679	0.95	949.5	congruent	Block1	congruent/STIM_024.jpg	99
1110.827	0.725	724.9	congruent	Block1	congruent/STIM_024.jpg	99
1114.014	0.718	717.6	congruent	Block1	congruent/STIM_024.jpg	99
1117.987	0.694	694.4	congruent	Block1	congruent/STIM_025.jpg	100
1121.083	1.055	1054.9	congruent	Block1	congruent/STIM_025.jpg	99
1125.962	1.056	1056.2	congruent	Block1	congruent/STIM_025.jpg	99
1129.114	0.738	737.5	congruent	Block1	congruent/STIM_025.jpg	100
1132.205	0.634	633.9	congruent	Block1	congruent/STIM_025.jpg	99
1135.681	0.771	771.1	congruent	Block1	congruent/STIM_026.jpg	99
1139.84	0.947	947.2	congruent	Block1	congruent/STIM_026.jpg	100
1144.132	0.952	951.8	congruent	Block1	congruent/STIM_026.jpg	100
1148.19	0.665	664.7	congruent	Block1	congruent/STIM_026.jpg	99
1152.008	0.598	597.9	congruent	Block1	congruent/STIM_026.jpg	100
1154.819	0.918	917.7	congruent	Block1	congruent/STIM_027.jpg	100
1159.167	0.865	865.1	congruent	Block1	congruent/STIM_027.jpg	99
1162.275	0.95	949.8	congruent	Block1	congruent/STIM_027.jpg	99
1166.447	0.914	914.0	congruent	Block1	congruent/STIM_027.jpg	100
1171.138	0.686	685.8	congruent	Block1	congruent/STIM_027.jpg	99
1175.732	0.952	952.0	congruent	Block1	congruent/STIM_028.jpg	99
1179.272	1.037	1036.9	congruent	Block1	congruent/STIM_028.jpg	99
1182.935	0.921	921.3	congruent	Block1	congruent/STIM_028.jpg	100
1187.843	0.901	901.3	congruent	Block1	congruent/STIM_028.jpg	100
1192.263	0.986	985.8	congruent	Block1	congruent/STIM_028.jpg	100
1196.412	0.63	629.6	congruent	Block1	congruent/STIM_029.jpg	100
1200.972	0.851	850.7	congruent	Block1	congruent/STIM_029.jpg	100
1205.016	0.705	704.6	congruent	Block1	congruent/STIM_029.jpg	100
1207.828	0.94	940.3	congruent	Block1	congruent/STIM_029.jpg	99
1210.811	0.93	930.5	congruent	Block1	congruent/STIM_029.jpg	99
1215.157	1.236	1235.6	incongruent	Block2	incongruent/STIM_000.jpg	100
1218.74	1.15	1149.7	incongruent	Block2	incongruent/STIM_000.jpg	100
1222.72	0.846	845.6	incongruent	Block2	incongruent/STIM_000.jpg	100
1226.504	1.069	1069.0	incongruent	Block2	incongruent/STIM_000.jpg	100
1230.672	0.966	966.2	incongruent	Block2	incongruent/STIM_000.jpg	99
1235.355	1.301	1301.2	incongruent	Block2	incongruent/STIM_001.jpg	99
1239.154	0.969	969.2	incongruent	Block2	incongruent/STIM_001.jpg	99
1242.92	0.814	814.2	incongruent	Block2	incongruent/STIM_001.jpg	100
1247.697	0.952	951.7	incongruent	Block2	incongruent/STIM_001.jpg	99
1251.105	1.153	1153.2	incongruent	Block2	incongruent/STIM_001.jpg	100
1254.984	1.07	1070.3	incongruent	Block2	incongruent/STIM_002.jpg	100
1259.957	0.881	881.3	incongruent	Block2	incongruent/STIM_002.jpg	100
1263.455	1.088	1088.0	incongruent	Block2	incongruent/STIM_002.jpg	100
1267.543	1.116	1116.5	incongruent	Block2	incongruent/STIM_002.jpg	100
1272.286	0.945	944.9	incongruent	Block2	incongruent/STIM_002.jpg	99
1276.781	0.7	700.3	incongruent	Block2	incongruent/STIM_003.jpg	99
1280.998	0.869	869.1	incongruent	Block2	incongruent/STIM_003.jpg	100
1284.815	0.651	650.6	incongruent	Block2	incongruent/STIM_003.jpg	100
1288.869	0.884	883.8	incongruent	Block2	incongruent/STIM_003.jpg	100
1292.401	0.897	896.8	incongruent	Block2	incongruent/STIM_003.jpg	100
1295.511	1.052	1052.1	incongruent	Block2	incongruent/STIM_004.jpg	99
1299.977	1.239	1238.9	incongruent	Block2	incongruent/STIM_004.jpg	100
1303.269	0.759	759.1	incongruent	Block2	incongruent/STIM_004.jpg	99
1306.211	0.888	888.3	incongruent	Block2	incongruent/STIM_004.jpg	100
1309.12	1.22	1220.3	incongruent	Block2	incongruent/STIM_004.jpg	100
1312.973	1.438	1437.5	incongruent	Block2	incongruent/STIM_005.jpg	100
1318.084	0.751	750.6	incongruent	Block2	incongruent/STIM_005.jpg	100
1321.6	0.918	918.1	incongruent	Block2	incongruent/STIM_005.jpg	99
1326.009	0.842	842.3	incongruent	Block2	incongruent/STIM_005.jpg	100
1330.752	1.225	1224.7	incongruent	Block2	incongruent/STIM_005.jpg	99
1335.546	0.73	729.5	incongruent	Block2	incongruent/STIM_006.jpg	99
1338.626	0.748	747.8	incongruent	Block2	incongruent/STIM_006.jpg	100
1343.325	0.735	734.8	incongruent	Block2	incongruent/STIM_006.jpg	99
1347.332	0.625	625.1	incongruent	Block2	incongruent/STIM_006.jpg	100
1351.075	0.82	820.3	incongruent	Block2	incongruent/STIM_006.jpg	100
1354.736	1.014	1013.8	incongruent	Block2	incongruent/STIM_007.jpg	99
1358.26	1.112	1112.5	incongruent	Block2	incongruent/STIM_007.jpg	99
1361.416	0.959	958.7	incongruent	Block2	incongruent/STIM_007.jpg	99
1365.388	1.205	1205.2	incongruent	Block2	incongruent/STIM_007.jpg	99
1369.045	0.796	796.3	incongruent	Block2	incongruent/STIM_007.jpg	100
1372.776	0.957	956.7	incongruent	Block2	incongruent/STIM_008.jpg	99
1376.232	0.661	661.4	incongruent	Block2	incongruent/STIM_008.jpg	99
1380.373	1.244	1243.7	incongruent	Block2	incongruent/STIM_008.jpg	99
1385.319	0.709	709.0	incongruent	Block2	incongruent/STIM_008.jpg	99
1389.734	0.984	983.6	incongruent	Block2	incongruent/STIM_008.jpg	100
1393.893	1.141	1141.1	incongruent	Block2	incongruent/STIM_009.jpg	99
1397.307	0.784	784.4	incongruent	Block2	incongruent/STIM_009.jpg	99
1401.254	1.193	1193.3	incongruent	Block2	incongruent/STIM_009.jpg	100
1404.628	0.714	714.1	incongruent	Block2	incongruent/STIM_009.jpg	100
1407.899	0.688	688.5	incongruent	Block2	incongruent/STIM_009.jpg	99
1412.1	1.375	1375.3	incongruent	Block2	incongruent/STIM_010.jpg	100
1415.693	0.83	830.3	incongruent	Block2	incongruent/STIM_010.jpg	100
1419.594	0.661	660.7	incongruent	Block2	incongruent/STIM_010.jpg	100
1423.716	1.034	1034.2	incongruent	Block2	incongruent/STIM_010.jpg	100
1428.576	1.214	1213.9	incongruent	Block2	incongruent/STIM_010.jpg	99
1431.932	1.233	1233.4	incongruent	Block2	incongruent/STIM_011.jpg	99
1436.272	1.154	1153.5	incongruent	Block2	incongruent/STIM_011.jpg	100
1440.163	0.858	857.6	incongruent	Block2	incongruent/STIM_011.jpg	99
1443.271	0.736	736.1	incongruent	Block2	incongruent/STIM_011.jpg	100
1446.354	0.857	857.2	incongruent	Block2	incongruent/STIM_011.jpg	99
1450.946	1.437	1437.3	incongruent	Block2	incongruent/STIM_012.jpg	99
1456.064	1.028	1027.8	incongruent	Block2	incongruent/STIM_012.jpg	99
1460.78	1.031	1031.1	incongruent	Block2	incongruent/STIM_012.jpg	100
1464.151	0.988	987.5	incongruent	Block2	incongruent/STIM_012.jpg	100
1468.244	0.775	775.4	incongruent	Block2	incongruent/STIM_012.jpg	100
1472.24	0.833	833.0	incongruent	Block2	incongruent/STIM_013.jpg	99
1476.762	0.682	681.8	incongruent	Block2	incongruent/STIM_013.jpg	100
1480.313	1.023	1023.0	incongruent	Block2	incongruent/STIM_013.jpg	100
1484.791	1.008	1007.7	incongruent	Block2	incongruent/STIM_013.jpg	100
1488.39	0.906	905.9	incongruent	Block2	incongruent/STIM_013.jpg	99
1492.934	0.826	826.4	incongruent	Block2	incongruent/STIM_014.jpg	99
1496.526	1.026	1025.6	incongruent	Block2	incongruent/STIM_014.jpg	100
1500.044	1.261	1261.1	incongruent	Block2	incongruent/STIM_014.jpg	100
1503.374	1.088	1087.7	incongruent	Block2	incongruent/STIM_014.jpg	99
1508.145	0.905	905.4	incongruent	Block2	incongruent/STIM_014.jpg	100
1513.007	1.148	1148.1	incongruent	Block2	incongruent/STIM_015.jpg	100
1516.217	0.96	960.0	incongruent	Block2	incongruent/STIM_015.jpg	100
1520.173	1.276	1275.6	incongruent	Block2	incongruent/STIM_015.jpg	99
1525.432	0.896	896.0	incongruent	Block2	incongruent/STIM_015.jpg	100
1529.689	1.094	1093.6	incongruent	Block2	incongruent/STIM_015.jpg	99
1534.63	0.907	907.0	incongruent	Block2	incongruent/STIM_016.jpg	99
1538.083	0.772	772.2	incongruent	Block2	incongruent/STIM_016.jpg	100
1541.886	0.863	862.8	incongruent	Block2	incongruent/STIM_016.jpg	100
1546.007	0.83	829.9	incongruent	Block2	incongruent/STIM_016.jpg	100
1549.872	0.702	701.5	incongruent	Block2	incongruent/STIM_016.jpg	99
1552.688	0.922	922.5	incongruent	Block2	incongruent/STIM_017.jpg	99
1556.999	0.864	863.7	incongruent	Block2	incongruent/STIM_017.jpg	100
1560.783	1.09	1089.6	incongruent	Block2	incongruent/STIM_017.jpg	100
1565.796	0.703	702.8	incongruent	Block2	incongruent/STIM_017.jpg	100
1570.294	0.97	970.5	incongruent	Block2	incongruent/STIM_017.jpg	100
1574.344	0.861	860.7	incongruent	Block2	incongruent/STIM_018.jpg	100
1578.892	1.401	1401.4	incongruent	Block2	incongruent/STIM_018.jpg	100
1582.494	1.072	1071.9	incongruent	Block2	incongruent/STIM_018.jpg	100
1585.933	0.833	832.8	incongruent	Block2	incongruent/STIM_018.jpg	99
1590.714	0.666	665.9	incongruent	Block2	incongruent/STIM_018.jpg	100
1593.95	1.205	1205.1	incongruent	Block2	incongruent/STIM_019.jpg	99
1598.917	0.955	955.3	incongruent	Block2	incongruent/STIM_019.jpg	100
1602.778	0.728	728.5	incongruent	Block2	incongruent/STIM_019.jpg	99
1607.034	0.906	906.4	incongruent	Block2	incongruent/STIM_019.jpg	99
1610.012	0.652	651.8	incongruent	Block2	incongruent/STIM_019.jpg	100
1612.94	0.728	727.6	incongruent	Block2	incongruent/STIM_020.jpg	100
1615.686	0.724	724.1	incongruent	Block2	incongruent/STIM_020.jpg	99
1619.001	0.665	665.1	incongruent	Block2	incongruent/STIM_020.jpg	100
1622.913	1.096	1096.1	incongruent	Block2	incongruent/STIM_020.jpg	100
1627.953	0.895	894.7	incongruent	Block2	incongruent/STIM_020.jpg	99
1632.067	0.98	980.5	incongruent	Block2	incongruent/STIM_021.jpg	99
1635.987	0.789	789.2	incongruent	Block2	incongruent/STIM_021.jpg	100
1638.855	0.762	762.5	incongruent	Block2	incongruent/STIM_021.jpg	99
1643.236	0.95	950.3	incongruent	Block2	incongruent/STIM_021.jpg	99
1647.567	0.79	790.2	incongruent	Block2	incongruent/STIM_021.jpg	100
1651.094	1.275	1275.1	incongruent	Block2	incongruent/STIM_022.jpg	100
1655.877	1.325	1325.3	incongruent	Block2	incongruent/STIM_022.jpg	100
1660.365	1.003	1002.9	incongruent	Block2	incongruent/STIM_022.jpg	100
1663.92	0.818	817.9	incongruent	Block2	incongruent/STIM_022.jpg	99
1667.982	1.123	1122.9	incongruent	Block2	incongruent/STIM_022.jpg	99
1672.053	1.348	1348.1	incongruent	Block2	incongruent/STIM_023.jpg	99
1676.677	1.04	1039.7	incongruent	Block2	incongruent/STIM_023.jpg	99
1679.802	1.272	1272.4	incongruent	Block2	incongruent/STIM_023.jpg	100
1684.255	1.179	1179.2	incongruent	Block2	incongruent/STIM_023.jpg	99
1689.247	0.774	774.4	incongruent	Block2	incongruent/STIM_023.jpg	99
1692.515	1.043	1043.2	incongruent	Block2	incongruent/STIM_024.jpg	99
1695.831	0.683	682.8	incongruent	Block2	incongruent/STIM_024.jpg	99
1698.938	0.796	796.2	incongruent	Block2	incongruent/STIM_024.jpg	100
1703.212	1.005	1004.9	incongruent	Block2	incongruent/STIM_024.jpg	99
1706.274	0.74	739.9	incongruent	Block2	incongruent/STIM_024.jpg	99
1709.865	0.718	718.2	incongruent	Block2	incongruent/STIM_025.jpg	99
1712.838	0.676	675.8	incongruent	Block2	incongruent/STIM_025.jpg	100
1715.931	0.848	847.8	incongruent	Block2	incongruent/STIM_025.jpg	99
1719.331	0.586	585.6	incongruent	Block2	incongruent/STIM_025.jpg	99
1722.824	0.973	973.2	incongruent	Block2	incongruent/STIM_025.jpg	100
1726.314	0.831	830.6	incongruent	Block2	incongruent/STIM_026.jpg	99
1729.347	0.665	665.2	incongruent	Block2	incongruent/STIM_026.jpg	100
1733.087	0.705	705.0	incongruent	Block2	incongruent/STIM_026.jpg	100
1736.608	0.849	848.7	incongruent	Block2	incongruent/STIM_026.jpg	100
1740.048	0.705	704.7	incongruent	Block2	incongruent/STIM_026.jpg	99
1743.365	1.064	1064.1	incongruent	Block2	incongruent/STIM_027.jpg	100
1748.199	1.261	1260.6	incongruent	Block2	incongruent/STIM_027.jpg	100
1752.773	1.11	1110.0	incongruent	Block2	incongruent/STIM_027.jpg	99
1756.502	0.83	830.2	incongruent	Block2	incongruent/STIM_027.jpg	99
1760.659	1.17	1169.7	incongruent	Block2	incongruent/STIM_027.jpg	99
1765.661	0.994	993.6	incongruent	Block2	incongruent/STIM_028.jpg	100
1770.131	0.897	896.9	incongruent	Block2	incongruent/STIM_028.jpg	99
1773.435	1.013	1012.8	incongruent	Block2	incongruent/STIM_028.jpg	100
1778.331	0.906	906.5	incongruent	Block2	incongruent/STIM_028.jpg	99
1782.706	0.98	980.4	incongruent	Block2	incongruent/STIM_028.jpg	100
1787.338	1.468	1467.7	incongruent	Block2	incongruent/STIM_029.jpg	100
1790.82	1.223	1222.6	incongruent	Block2	incongruent/STIM_029.jpg	100
1794.056	0.929	928.6	incongruent	Block2	incongruent/STIM_029.jpg	100
1797.555	0.81	810.2	incongruent	Block2	incongruent/STIM_029.jpg	99
1801.802	1.163	1162.7	incongruent	Block2	incongruent/STIM_029.jpg	100
1805.409	0.867	867.4	congruent	Block2	congruent/STIM_000.jpg	100
1810.18	0.635	634.6	congruent	Block2	congruent/STIM_000.jpg	99
1814.369	0.598	598.5	congruent	Block2	congruent/STIM_000.jpg	100
1817.746	0.787	787.3	congruent	Block2	congruent/STIM_000.jpg	99
1821.696	0.948	948.1	congruent	Block2	congruent/STIM_000.jpg	100
1824.844	0.887	887.4	congruent	Block2	congruent/STIM_001.jpg	99
1828.591	0.624	623.5	congruent	Block2	congruent/STIM_001.jpg	100
1832.645	0.84	839.6	congruent	Block2	congruent/STIM_001.jpg	99
1837.126	0.79	789.6	congruent	Block2	congruent/STIM_001.jpg	99
1841.294	0.813	813.1	congruent	Block2	congruent/STIM_001.jpg	100
1845.234	1.014	1013.9	congruent	Block2	congruent/STIM_002.jpg	99
1849.798	0.761	761.0	congruent	Block2	congruent/STIM_002.jpg	100
1853.088	0.922	922.5	congruent	Block2	congruent/STIM_002.jpg	100
1857.595	0.605	605.3	congruent	Block2	congruent/STIM_002.jpg	99
1862.048	0.949	948.6	congruent	Block2	congruent/STIM_002.jpg	99
1865.489	0.928	928.4	congruent	Block2	congruent/STIM_003.jpg	99
1870.152	0.811	810.9	congruent	Block2	congruent/STIM_003.jpg	99
1874.024	0.721	721.1	congruent	Block2	congruent/STIM_003.jpg	99
1877.294	0.73	730.1	congruent	Block2	congruent/STIM_003.jpg	100
1880.982	0.732	732.2	congruent	Block2	congruent/STIM_003.jpg	99
1884.222	0.998	998.5	congruent	Block2	congruent/STIM_004.jpg	99
1888.026	0.848	847.6	congruent	Block2	congruent/STIM_004.jpg	99
1891.264	1.035	1035.4	congruent	Block2	congruent/STIM_004.jpg	99
1895.841	0.97	970.0	congruent	Block2	congruent/STIM_004.jpg	99
1898.879	0.816	816.2	congruent	Block2	congruent/STIM_004.jpg	99
1902.353	0.646	646.5	congruent	Block2	congruent/STIM_005.jpg	100
1906.18	0.825	825.1	congruent	Block2	congruent/STIM_005.jpg	99
1909.762	0.644	643.6	congruent	Block2	congruent/STIM_005.jpg	100
1914.178	0.818	817.5	congruent	Block2	congruent/STIM_005.jpg	99
1918.989	0.687	686.7	congruent	Block2	congruent/STIM_005.jpg	99
1922.671	0.761	761.0	congruent	Block2	congruent/STIM_006.jpg	100
1926.894	1.002	1002.5	congruent	Block2	congruent/STIM_006.jpg	99
1931.037	1.016	1016.1	congruent	Block2	congruent/STIM_006.jpg	99
1934.316	0.906	906.0	congruent	Block2	congruent/STIM_006.jpg	99
1938.763	1.047	1046.9	congruent	Block2	congruent/STIM_006.jpg	100
1943.478	0.739	739.3	congruent	Block2	congruent/STIM_007.jpg	100
1948.01	0.985	984.6	congruent	Block2	congruent/STIM_007.jpg	99
1952.068	0.816	815.6	congruent	Block2	congruent/STIM_007.jpg	100
1955.592	0.89	890.1	congruent	Block2	congruent/STIM_007.jpg	100
1960.379	0.742	741.9	congruent	Block2	congruent/STIM_007.jpg	100
1963.667	0.676	675.5	congruent	Block2	congruent/STIM_008.jpg	100
1968.148	0.704	704.1	congruent	Block2	congruent/STIM_008.jpg	99
1972.559	0.8	800.0	congruent	Block2	congruent/STIM_008.jpg	99
1976.413	0.717	717.1	congruent	Block2	congruent/STIM_008.jpg	100
1980.298	0.733	732.6	congruent	Block2	congruent/STIM_008.jpg	99
1984.912	0.978	978.3	congruent	Block2	congruent/STIM_009.jpg	100
1989.128	0.711	711.1	congruent	Block2	congruent/STIM_009.jpg	100
1992.311	0.942	942.5	congruent	Block2	congruent/STIM_009.jpg	100
1995.286	0.611	610.8	congruent	Block2	congruent/STIM_009.jpg	99
1998.961	0.887	887.1	congruent	Block2	congruent/STIM_009.jpg	100
2003.479	0.738	738.3	congruent	Block2	congruent/STIM_010.jpg	100
2006.302	0.822	821.8	congruent	Block2	congruent/STIM_010.jpg	100
2010.31	0.603	603.0	congruent	Block2	congruent/STIM_010.jpg	99
2014.017	1.024	1023.9	congruent	Block2	congruent/STIM_010.jpg	99
2017.997	0.817	817.2	congruent	Block2	congruent/STIM_010.jpg	99
2021.713	0.603	603.0	congruent	Block2	congruent/STIM_011.jpg	99
2026.243	0.917	917.1	congruent	Block2	congruent/STIM_011.jpg	99
2030.96	0.835	834.9	congruent	Block2	congruent/STIM_011.jpg	99
2034.617	0.654	654.0	congruent	Block2	congruent/STIM_011.jpg	100
2038.059	0.75	749.8	congruent	Block2	congruent/STIM_011.jpg	100
2042.292	1.043	1043.4	congruent	Block2	congruent/STIM_012.jpg	99
2046.505	0.842	841.9	congruent	Block2	congruent/STIM_012.jpg	100
2050.861	0.667	667.3	congruent	Block2	congruent/STIM_012.jpg	99
2053.58	0.655	655.1	congruent	Block2	congruent/STIM_012.jpg	99
2056.621	0.752	752.5	congruent	Block2	congruent/STIM_012.jpg	100
2059.795	1.049	1049.0	congruent	Block2	congruent/STIM_013.jpg	99
2063.946	0.708	707.9	congruent	Block2	congruent/STIM_013.jpg	100
2066.751	0.809	808.8	congruent	Block2	congruent/STIM_013.jpg	99
2071.455	0.952	951.7	congruent	Block2	congruent/STIM_013.jpg	100
2075.087	1.002	1002.5	congruent	Block2	congruent/STIM_013.jpg	100
2079.125	0.744	743.6	congruent	Block2	congruent/STIM_014.jpg	100
2082.595	0.712	711.5	congruent	Block2	congruent/STIM_014.jpg	99
2087.154	0.643	643.4	congruent	Block2	congruent/STIM_014.jpg	99
2090.063	0.982	982.2	congruent	Block2	congruent/STIM_014.jpg	100
2093.189	1.056	1056.2	congruent	Block2	congruent/STIM_014.jpg	100
2097.123	0.835	835.3	congruent	Block2	congruent/STIM_015.jpg	99
2101.711	1.004	1004.1	congruent	Block2	congruent/STIM_015.jpg	100
2105.813	0.909	909.3	congruent	Block2	congruent/STIM_015.jpg	100
2110.388	1.032	1032.5	congruent	Block2	congruent/STIM_015.jpg	99
2114.468	0.999	999.1	congruent	Block2	congruent/STIM_015.jpg	99
2119.044	0.945	945.4	congruent	Block2	congruent/STIM_016.jpg	100
2123.52	0.973	972.9	congruent	Block2	congruent/STIM_016.jpg	100
2128.387	0.837	836.7	congruent	Block2	congruent/STIM_016.jpg	100
2132.277	0.728	727.5	congruent	Block2	congruent/STIM_016.jpg	100
2135.993	0.979	978.9	congruent	Block2	congruent/STIM_016.jpg	99
2140.113	0.826	826.2	congruent	Block2	congruent/STIM_017.jpg	100
2143.891	0.675	674.6	congruent	Block2	congruent/STIM_017.jpg	100
2148.219	0.818	818.2	congruent	Block2	congruent/STIM_017.jpg	100
2152.395	1.038	1037.9	congruent	Block2	congruent/STIM_017.jpg	99
2157.359	0.786	786.2	congruent	Block2	congruent/STIM_017.jpg	100
2160.204	0.748	747.9	congruent	Block2	congruent/STIM_018.jpg	99
2163.142	0.621	621.0	congruent	Block2	congruent/STIM_018.jpg	100
2165.99	0.803	803.3	congruent	Block2	congruent/STIM_018.jpg	100
2169.37	0.618	617.7	congruent	Block2	congruent/STIM_018.jpg	100
2172.09	0.617	617.0	congruent	Block2	congruent/STIM_018.jpg	100
2175.154	0.794	794.4	congruent	Block2	congruent/STIM_019.jpg	99
2178.747	0.999	999.0	congruent	Block2	congruent/STIM_019.jpg	99
2182.362	0.954	953.8	congruent	Block2	congruent/STIM_019.jpg	99
2186.456	0.64	639.5	congruent	Block2	congruent/STIM_019.jpg	100
2190.795	0.917	916.6	congruent	Block2	congruent/STIM_019.jpg	99
2194.219	0.987	987.1	congruent	Block2	congruent/STIM_020.jpg	100
2197.544	0.896	895.9	congruent	Block2	congruent/STIM_020.jpg	100
2200.448	0.678	677.9	congruent	Block2	congruent/STIM_020.jpg	100
2203.971	0.938	938.2	congruent	Block2	congruent/STIM_020.jpg	100
2207.29	0.958	957.8	congruent	Block2	congruent/STIM_020.jpg	99
2212.01	0.79	790.2	congruent	Block2	congruent/STIM_021.jpg	100
2216.31	1.007	1006.6	congruent	Block2	congruent/STIM_021.jpg	100
2220.155	0.769	769.0	congruent	Block2	congruent/STIM_021.jpg	100
2223.671	0.641	641.2	congruent	Block2	congruent/STIM_021.jpg	99
2228.113	0.783	783.2	congruent	Block2	congruent/STIM_021.jpg	99
2232.76	0.671	671.3	congruent	Block2	congruent/STIM_022.jpg	99
2237.429	0.695	695.0	congruent	Block2	congruent/STIM_022.jpg	100
2241.498	0.783	783.3	congruent	Block2	congruent/STIM_022.jpg	100
2245.12	0.612	611.7	congruent	Block2	congruent/STIM_022.jpg	100
2249.029	0.619	618.8	congruent	Block2	congruent/STIM_022.jpg	100
2253.462	0.977	976.7	congruent	Block2	congruent/STIM_023.jpg	99
2257.789	0.881	880.6	congruent	Block2	congruent/STIM_023.jpg	100
2261.231	1.012	1011.8	congruent	Block2	congruent/STIM_023.jpg	99
2264.963	0.673	673.1	congruent	Block2	congruent/STIM_023.jpg	100
2268.251	0.835	835.1	congruent	Block2	congruent/STIM_023.jpg	100
2273.048	0.962	962.0	congruent	Block2	congruent/STIM_024.jpg	99
2277.993	0.923	922.9	congruent	Block2	congruent/STIM_024.jpg	99
2281.958	0.964	963.8	congruent	Block2	congruent/STIM_024.jpg	99
2286.706	0.617	616.9	congruent	Block2	congruent/STIM_024.jpg	99
2290.772	0.736	736.4	congruent	Block2	congruent/STIM_024.jpg	100
2294.264	0.732	732.3	congruent	Block2	congruent/STIM_025.jpg	100
2298.118	0.739	738.6	congruent	Block2	congruent/STIM_025.jpg	99
2302.692	0.73	729.9	congruent	Block2	congruent/STIM_025.jpg	99
2307.31	1.009	1008.7	congruent	Block2	congruent/STIM_025.jpg	100
2311.816	0.613	612.7	congruent	Block2	congruent/STIM_025.jpg	99
2315.086	0.786	786.0	congruent	Block2	congruent/STIM_026.jpg	100
2319.208	1.053	1053.2	congruent	Block2	congruent/STIM_026.jpg	99
2323.854	0.658	658.0	congruent	Block2	congruent/STIM_026.jpg	99
2328.44	0.588	588.3	congruent	Block2	congruent/STIM_026.jpg	100
2331.233	0.726	726.5	congruent	Block2	congruent/STIM_026.jpg	100
2335.711	0.925	924.8	congruent	Block2	congruent/STIM_027.jpg	99
2338.821	0.865	865.3	congruent	Block2	congruent/STIM_027.jpg	100
2342.736	0.918	918.1	congruent	Block2	congruent/STIM_027.jpg	99
2346.074	0.855	855.1	congruent	Block2	congruent/STIM_027.jpg	99
2350.2	0.645	644.7	congruent	Block2	congruent/STIM_027.jpg	100
2354.727	0.739	738.6	congruent	Block2	congruent/STIM_028.jpg	99
2357.765	0.622	621.7	congruent	Block2	congruent/STIM_028.jpg	100
2361.107	0.753	752.8	congruent	Block2	congruent/STIM_028.jpg	99
2363.909	1.017	1016.9	congruent	Block2	congruent/STIM_028.jpg	100
2367.535	0.857	857.3	congruent	Block2	congruent/STIM_028.jpg	100
2372.257	0.646	645.9	congruent	Block2	congruent/STIM_029.jpg	99
2376.704	0.844	844.0	congruent	Block2	congruent/STIM_029.jpg	99
2381.374	0.759	759.4	congruent	Block2	congruent/STIM_029.jpg	100
2384.651	0.954	953.5	congruent	Block2	congruent/STIM_029.jpg	100
2388.107	0.741	741.3	congruent	Block2	congruent/STIM_029.jpg	99
2391.247	0.994	994.4	incongruent	Block3	incongruent/STIM_000.jpg	100
2395.816	0.932	932.3	incongruent	Block3	incongruent/STIM_000.jpg	100
2399.885	0.689	689.1	incongruent	Block3	incongruent/STIM_000.jpg	99
2402.946	0.756	756.3	incongruent	Block3	incongruent/STIM_000.jpg	99
2407.561	0.94	940.5	incongruent	Block3	incongruent/STIM_000.jpg	99
2411.651	0.887	886.9	incongruent	Block3	incongruent/STIM_001.jpg	99
2416.415	0.721	720.7	incongruent	Block3	incongruent/STIM_001.jpg	100
2419.885	0.846	845.6	incongruent	Block3	incongruent/STIM_001.jpg	99
2424.553	0.583	582.7	incongruent	Block3	incongruent/STIM_001.jpg	100
2428.729	1.034	1034.3	incongruent	Block3	incongruent/STIM_001.jpg	99
2432.949	0.918	918.5	incongruent	Block3	incongruent/STIM_002.jpg	99
2437.773	0.944	944.3	incongruent	Block3	incongruent/STIM_002.jpg	100
2441.199	0.853	852.7	incongruent	Block3	incongruent/STIM_002.jpg	99
2444.476	0.821	821.3	incongruent	Block3	incongruent/STIM_002.jpg	100
2448.327	0.991	991.3	incongruent	Block3	incongruent/STIM_002.jpg	100
2451.847	0.622	621.8	incongruent	Block3	incongruent/STIM_003.jpg	99
2455.203	0.997	996.6	incongruent	Block3	incongruent/STIM_003.jpg	100
2459.55	0.622	622.3	incongruent	Block3	incongruent/STIM_003.jpg	100
2462.515	0.722	721.9	incongruent	Block3	incongruent/STIM_003.jpg	99
2465.489	0.809	809.2	incongruent	Block3	incongruent/STIM_003.jpg	100
2468.984	1.091	1090.6	incongruent	Block3	incongruent/STIM_004.jpg	100
2473.609	1.101	1100.9	incongruent	Block3	incongruent/STIM_004.jpg	100
2478.199	0.649	648.8	incongruent	Block3	incongruent/STIM_004.jpg	100
2482.184	0.601	601.3	incongruent	Block3	incongruent/STIM_004.jpg	100
2485.259	0.867	866.7	incongruent	Block3	incongruent/STIM_004.jpg	100
2488.941	0.829	829.2	incongruent	Block3	incongruent/STIM_005.jpg	100
2491.863	0.899	899.0	incongruent	Block3	incongruent/STIM_005.jpg	99
2496.744	0.651	651.1	incongruent	Block3	incongruent/STIM_005.jpg	100
2501.277	0.951	950.8	incongruent	Block3	incongruent/STIM_005.jpg	100
2506.044	1.158	1157.9	incongruent	Block3	incongruent/STIM_005.jpg	100
2511.025	1.112	1111.8	incongruent	Block3	incongruent/STIM_006.jpg	100
2515.629	1.128	1127.9	incongruent	Block3	incongruent/STIM_006.jpg	99
2519.86	0.744	743.7	incongruent	Block3	incongruent/STIM_006.jpg	100
2524.036	1.152	1151.9	incongruent	Block3	incongruent/STIM_006.jpg	100
2528.15	0.996	995.9	incongruent	Block3	incongruent/STIM_006.jpg	100
2531.457	0.616	615.8	incongruent	Block3	incongruent/STIM_007.jpg	100
2535.122	0.741	741.4	incongruent	Block3	incongruent/STIM_007.jpg	99
2539.633	0.666	665.9	incongruent	Block3	incongruent/STIM_007.jpg	100
2543.218	1.15	1149.9	incongruent	Block3	incongruent/STIM_007.jpg	100
2546.619	1.186	1186.5	incongruent	Block3	incongruent/STIM_007.jpg	100
2550.025	0.966	966.2	incongruent	Block3	incongruent/STIM_008.jpg	100
2553.491	0.991	990.7	incongruent	Block3	incongruent/STIM_008.jpg	99
2557.848	1.135	1135.2	incongruent	Block3	incongruent/STIM_008.jpg	100
2561.165	0.679	678.6	incongruent	Block3	incongruent/STIM_008.jpg	100
2565.159	0.922	922.0	incongruent	Block3	incongruent/STIM_008.jpg	99
2568.471	1.021	1020.6	incongruent	Block3	incongruent/STIM_009.jpg	99
2573.22	1.098	1098.1	incongruent	Block3	incongruent/STIM_009.jpg	100
2576.444	1.209	1208.7	incongruent	Block3	incongruent/STIM_009.jpg	99
2580.461	0.747	747.3	incongruent	Block3	incongruent/STIM_009.jpg	99
2585.162	0.705	705.1	incongruent	Block3	incongruent/STIM_009.jpg	99
2588.067	1.191	1190.9	incongruent	Block3	incongruent/STIM_010.jpg	99
2593.18	1.127	1127.4	incongruent	Block3	incongruent/STIM_010.jpg	100
2596.634	0.626	626.3	incongruent	Block3	incongruent/STIM_010.jpg	100
2601.029	0.596	596.4	incongruent	Block3	incongruent/STIM_010.jpg	100
2605.017	1.172	1171.8	incongruent	Block3	incongruent/STIM_010.jpg	99
2609.099	0.77	770.4	incongruent	Block3	incongruent/STIM_011.jpg	99
2612.616	1.003	1002.8	incongruent	Block3	incongruent/STIM_011.jpg	99
2616.89	0.648	647.9	incongruent	Block3	incongruent/STIM_011.jpg	99
2621.248	1.146	1145.5	incongruent	Block3	incongruent/STIM_011.jpg	99
2625.874	0.783	783.3	incongruent	Block3	incongruent/STIM_011.jpg	100
2628.707	0.729	729.4	incongruent	Block3	incongruent/STIM_012.jpg	99
2632.252	1.142	1141.7	incongruent	Block3	incongruent/STIM_012.jpg	100
2636.679	0.927	927.2	incongruent	Block3	incongruent/STIM_012.jpg	100
2640.557	0.699	698.7	incongruent	Block3	incongruent/STIM_012.jpg	99
2644.682	1.172	1171.9	incongruent	Block3	incongruent/STIM_012.jpg	99
2649.82	0.694	694.4	incongruent	Block3	incongruent/STIM_013.jpg	99
2653.752	1.151	1150.8	incongruent	Block3	incongruent/STIM_013.jpg	99
2658.212	1.061	1061.0	incongruent	Block3	incongruent/STIM_013.jpg	100
2661.273	1.016	1016.4	incongruent	Block3	incongruent/STIM_013.jpg	99
2666.072	0.827	827.2	incongruent	Block3	incongruent/STIM_013.jpg	100
2669.755	1.157	1156.6	incongruent	Block3	incongruent/STIM_014.jpg	99
2673.388	1.025	1024.9	incongruent	Block3	incongruent/STIM_014.jpg	100
2677.486	1.093	1092.8	incongruent	Block3	incongruent/STIM_014.jpg	100
2681.536	0.853	853.1	incongruent	Block3	incongruent/STIM_014.jpg	99
2685.047	0.635	634.6	incongruent	Block3	incongruent/STIM_014.jpg	100
2689.282	0.975	975.1	incongruent	Block3	incongruent/STIM_015.jpg	100
2694.005	0.781	780.9	incongruent	Block3	incongruent/STIM_015.jpg	100
2698.187	0.779	778.8	incongruent	Block3	incongruent/STIM_015.jpg	99
2701.25	0.782	782.3	incongruent	Block3	incongruent/STIM_015.jpg	100
2704.496	0.838	838.0	incongruent	Block3	incongruent/STIM_015.jpg	100
2709.04	1.053	1052.8	incongruent	Block3	incongruent/STIM_016.jpg	99
2713.261	0.753	752.8	incongruent	Block3	incongruent/STIM_016.jpg	100
2717.645	1.017	1017.1	incongruent	Block3	incongruent/STIM_016.jpg	99
2721.509	0.988	988.3	incongruent	Block3	incongruent/STIM_016.jpg	100
2724.589	0.953	953.3	incongruent	Block3	incongruent/STIM_016.jpg	99
2729.512	0.925	925.1	incongruent	Block3	incongruent/STIM_017.jpg	100
2733.388	0.687	686.7	incongruent	Block3	incongruent/STIM_017.jpg	100
2737.122	0.952	951.5	incongruent	Block3	incongruent/STIM_017.jpg	99
2740.56	0.646	645.7	incongruent	Block3	incongruent/STIM_017.jpg	99
2744.82	0.877	876.9	incongruent	Block3	incongruent/STIM_017.jpg	99
2749.341	0.883	883.1	incongruent	Block3	incongruent/STIM_018.jpg	99
2752.954	1.0	999.7	incongruent	Block3	incongruent/STIM_018.jpg	100
2756.536	0.71	709.5	incongruent	Block3	incongruent/STIM_018.jpg	100
2759.968	0.738	738.0	incongruent	Block3	incongruent/STIM_018.jpg	99
2763.055	0.853	853.2	incongruent	Block3	incongruent/STIM_018.jpg	99
2767.584	1.008	1008.4	incongruent	Block3	incongruent/STIM_019.jpg	99
2772.471	1.207	1206.8	incongruent	Block3	incongruent/STIM_019.jpg	99
2776.859	0.76	759.5	incongruent	Block3	incongruent/STIM_019.jpg	100
2780.532	1.202	1202.4	incongruent	Block3	incongruent/STIM_019.jpg	100
2784.513	0.982	982.2	incongruent	Block3	incongruent/STIM_019.jpg	99
2789.001	1.022	1021.7	incongruent	Block3	incongruent/STIM_020.jpg	100
2793.273	0.903	902.7	incongruent	Block3	incongruent/STIM_020.jpg	99
2797.973	0.732	731.7	incongruent	Block3	incongruent/STIM_020.jpg	99
2802.029	0.939	939.4	incongruent	Block3	incongruent/STIM_020.jpg	99
2806.14	1.115	1115.2	incongruent	Block3	incongruent/STIM_020.jpg	99
2809.508	1.05	1049.7	incongruent	Block3	incongruent/STIM_021.jpg	99
2813.501	1.168	1168.3	incongruent	Block3	incongruent/STIM_021.jpg	100
2816.988	0.818	818.2	incongruent	Block3	incongruent/STIM_021.jpg	100
2820.892	1.163	1162.9	incongruent	Block3	incongruent/STIM_021.jpg	99
2824.793	1.05	1049.6	incongruent	Block3	incongruent/STIM_021.jpg	100
2828.483	0.81	810.3	incongruent	Block3	incongruent/STIM_022.jpg	100
2832.049	0.809	808.7	incongruent	Block3	incongruent/STIM_022.jpg	99
2834.998	1.18	1179.6	incongruent	Block3	incongruent/STIM_022.jpg	99
2838.442	1.053	1053.3	incongruent	Block3	incongruent/STIM_022.jpg	99
2841.559	1.074	1074.4	incongruent	Block3	incongruent/STIM_022.jpg	100
2845.065	0.861	861.0	incongruent	Block3	incongruent/STIM_023.jpg	100
2848.648	0.735	735.0	incongruent	Block3	incongruent/STIM_023.jpg	99
2852.504	0.729	728.7	incongruent	Block3	incongruent/STIM_023.jpg	100
2855.772	0.864	863.5	incongruent	Block3	incongruent/STIM_023.jpg	100
2860.402	0.69	689.7	incongruent	Block3	incongruent/STIM_023.jpg	99
2863.838	0.606	605.5	incongruent	Block3	incongruent/STIM_024.jpg	99
2866.896	0.672	671.5	incongruent	Block3	incongruent/STIM_024.jpg	99
2871.423	0.978	978.3	incongruent	Block3	incongruent/STIM_024.jpg	100
2875.784	0.779	779.2	incongruent	Block3	incongruent/STIM_024.jpg	99
2878.701	1.128	1127.5	incongruent	Block3	incongruent/STIM_024.jpg	99
2882.583	0.849	848.6	incongruent	Block3	incongruent/STIM_025.jpg	99
2886.764	0.579	579.4	incongruent	Block3	incongruent/STIM_025.jpg	100
2890.793	0.93	930.0	incongruent	Block3	incongruent/STIM_025.jpg	100
2894.213	0.86	860.2	incongruent	Block3	incongruent/STIM_025.jpg	99
2897.573	0.736	736.2	incongruent	Block3	incongruent/STIM_025.jpg	99
2901.01	1.217	1217.3	incongruent	Block3	incongruent/STIM_026.jpg	100
2905.793	0.939	939.3	incongruent	Block3	incongruent/STIM_026.jpg	100
2909.5	0.822	822.3	incongruent	Block3	incongruent/STIM_026.jpg	100
2913.024	0.578	578.0	incongruent	Block3	incongruent/STIM_026.jpg	100
2916.279	0.78	780.4	incongruent	Block3	incongruent/STIM_026.jpg	100
2920.855	0.979	978.8	incongruent	Block3	incongruent/STIM_027.jpg	99
2923.866	0.872	871.5	incongruent	Block3	incongruent/STIM_027.jpg	99
2928.593	0.655	655.4	incongruent	Block3	incongruent/STIM_027.jpg	99
2932.062	1.225	1224.7	incongruent	Block3	incongruent/STIM_027.jpg	100
2937.18	0.92	919.7	incongruent	Block3	incongruent/STIM_027.jpg	100
2941.744	0.733	732.6	incongruent	Block3	incongruent/STIM_028.jpg	100
2945.394	0.75	749.8	incongruent	Block3	incongruent/STIM_028.jpg	99
2949.431	1.108	1108.5	incongruent	Block3	incongruent/STIM_028.jpg	99
2953.402	0.739	739.2	incongruent	Block3	incongruent/STIM_028.jpg	100
2956.316	0.794	793.7	incongruent	Block3	incongruent/STIM_028.jpg	99
2959.442	0.928	928.5	incongruent	Block3	incongruent/STIM_029.jpg	100
2962.654	0.742	742.4	incongruent	Block3	incongruent/STIM_029.jpg	100
2966.219	0.765	765.3	incongruent	Block3	incongruent/STIM_029.jpg	100
2970.453	0.816	816.3	incongruent	Block3	incongruent/STIM_029.jpg	99
2975.177	0.712	711.7	incongruent	Block3	incongruent/STIM_029.jpg	99
2978.76	0.591	591.1	congruent	Block3	congruent/STIM_000.jpg	99
2982.35	0.887	886.7	congruent	Block3	congruent/STIM_000.jpg	100
2985.802	0.856	856.1	congruent	Block3	congruent/STIM_000.jpg	100
2989.815	0.779	779.2	congruent	Block3	congruent/STIM_000.jpg	99
2994.046	0.627	626.8	congruent	Block3	congruent/STIM_000.jpg	99
2998.333	1.042	1042.4	congruent	Block3	congruent/STIM_001.jpg	100
3002.983	0.678	677.7	congruent	Block3	congruent/STIM_001.jpg	100
3006.383	0.736	735.7	congruent	Block3	congruent/STIM_001.jpg	99
3009.884	0.624	623.6	congruent	Block3	congruent/STIM_001.jpg	100
3013.898	0.84	840.5	congruent	Block3	congruent/STIM_001.jpg	99
3016.846	0.65	649.5	congruent	Block3	congruent/STIM_002.jpg	100
3019.939	1.03	1030.3	congruent	Block3	congruent/STIM_002.jpg	100
3024.679	0.937	936.6	congruent	Block3	congruent/STIM_002.jpg	100
3029.205	0.989	988.9	congruent	Block3	congruent/STIM_002.jpg	99
3032.353	0.914	914.4	congruent	Block3	congruent/STIM_002.jpg	100
3036.649	0.913	913.3	congruent	Block3	congruent/STIM_003.jpg	100
3041.198	0.817	817.3	congruent	Block3	congruent/STIM_003.jpg	100
3045.99	1.032	1031.8	congruent	Block3	congruent/STIM_003.jpg	99
3050.447	1.024	1024.4	congruent	Block3	congruent/STIM_003.jpg	100
3054.082	0.638	638.0	congruent	Block3	congruent/STIM_003.jpg	100
3058.005	0.836	835.6	congruent	Block3	congruent/STIM_004.jpg	99
3062.276	0.688	688.5	congruent	Block3	congruent/STIM_004.jpg	100
3066.226	0.793	793.1	congruent	Block3	congruent/STIM_004.jpg	100
3070.279	0.646	646.3	congruent	Block3	congruent/STIM_004.jpg	99
3073.581	0.962	962.5	congruent	Block3	congruent/STIM_004.jpg	100
3077.333	0.678	678.1	congruent	Block3	congruent/STIM_005.jpg	99
3081.223	1.001	1000.9	congruent	Block3	congruent/STIM_005.jpg	100
3086.022	0.99	989.6	congruent	Block3	congruent/STIM_005.jpg	99
3090.809	0.856	855.7	congruent	Block3	congruent/STIM_005.jpg	100
3094.727	0.641	641.0	congruent	Block3	congruent/STIM_005.jpg	100
3097.909	0.881	880.8	congruent	Block3	congruent/STIM_006.jpg	99
3101.797	0.673	672.7	congruent	Block3	congruent/STIM_006.jpg	100
3104.848	0.934	934.3	congruent	Block3	congruent/STIM_006.jpg	100
3108.459	0.907	907.4	congruent	Block3	congruent/STIM_006.jpg	100
3113.34	0.909	909.4	congruent	Block3	congruent/STIM_006.jpg	100
3117.34	0.67	669.9	congruent	Block3	congruent/STIM_007.jpg	100
3120.85	0.696	696.5	congruent	Block3	congruent/STIM_007.jpg	99
3123.982	0.728	728.4	congruent	Block3	congruent/STIM_007.jpg	99
3126.793	0.673	672.6	congruent	Block3	congruent/STIM_007.jpg	99
3129.929	0.817	816.9	congruent	Block3	congruent/STIM_007.jpg	100
3134.107	0.87	870.2	congruent	Block3	congruent/STIM_008.jpg	100
3137.59	0.67	669.6	congruent	Block3	congruent/STIM_008.jpg	100
3140.497	0.77	770.2	congruent	Block3	congruent/STIM_008.jpg	100
3143.901	0.714	714.5	congruent	Block3	congruent/STIM_008.jpg	100
3147.006	0.785	784.8	congruent	Block3	congruent/STIM_008.jpg	100
3151.007	0.629	629.4	congruent	Block3	congruent/STIM_009.jpg	99
3155.604	0.857	857.4	congruent	Block3	congruent/STIM_009.jpg	99
3159.585	0.639	639.0	congruent	Block3	congruent/STIM_009.jpg	100
3163.743	0.798	798.5	congruent	Block3	congruent/STIM_009.jpg	99
3168.144	0.947	946.8	congruent	Block3	congruent/STIM_009.jpg	99
3171.642	0.786	785.7	congruent	Block3	congruent/STIM_010.jpg	100
3175.007	0.999	999.4	congruent	Block3	congruent/STIM_010.jpg	100
3178.984	0.881	880.6	congruent	Block3	congruent/STIM_010.jpg	100
3182.348	0.756	756.1	congruent	Block3	congruent/STIM_010.jpg	100
3186.476	0.714	713.6	congruent	Block3	congruent/STIM_010.jpg	100
3190.118	0.859	859.3	congruent	Block3	congruent/STIM_011.jpg	100
3193.105	1.05	1050.5	congruent	Block3	congruent/STIM_011.jpg	99
3196.17	0.694	693.8	congruent	Block3	congruent/STIM_011.jpg	99
3200.72	0.785	785.4	congruent	Block3	congruent/STIM_011.jpg	100
3203.745	0.615	614.8	congruent	Block3	congruent/STIM_011.jpg	100
3206.628	0.921	921.0	congruent	Block3	congruent/STIM_012.jpg	99
3210.988	0.775	774.8	congruent	Block3	congruent/STIM_012.jpg	99
3215.307	0.662	661.9	congruent	Block3	congruent/STIM_012.jpg	100
3218.709	0.82	819.6	congruent	Block3	congruent/STIM_012.jpg	100
3222.278	1.042	1041.5	congruent	Block3	congruent/STIM_012.jpg	100
3226.552	0.96	960.0	congruent	Block3	congruent/STIM_013.jpg	99
3230.869	0.862	861.7	congruent	Block3	congruent/STIM_013.jpg	100
3235.499	0.873	872.9	congruent	Block3	congruent/STIM_013.jpg	100
3239.243	1.012	1011.6	congruent	Block3	congruent/STIM_013.jpg	100
3243.321	0.627	626.6	congruent	Block3	congruent/STIM_013.jpg	99
3247.453	1.004	1003.8	congruent	Block3	congruent/STIM_014.jpg	100
3250.681	0.784	783.7	congruent	Block3	congruent/STIM_014.jpg	100
3253.837	0.682	682.1	congruent	Block3	congruent/STIM_014.jpg	100
3256.93	0.844	843.9	congruent	Block3	congruent/STIM_014.jpg	99
3260.299	0.601	601.1	congruent	Block3	congruent/STIM_014.jpg	99
3264.139	0.605	604.9	congruent	Block3	congruent/STIM_015.jpg	99
3268.578	0.633	633.2	congruent	Block3	congruent/STIM_015.jpg	99
3271.836	0.755	754.7	congruent	Block3	congruent/STIM_015.jpg	100
3276.325	0.779	778.7	congruent	Block3	congruent/STIM_015.jpg	99
3281.024	0.837	836.8	congruent	Block3	congruent/STIM_015.jpg	100
3284.574	0.838	838.0	congruent	Block3	congruent/STIM_016.jpg	99
3288.061	0.643	642.7	congruent	Block3	congruent/STIM_016.jpg	100
3292.075	0.853	853.1	congruent	Block3	congruent/STIM_016.jpg	99
3295.626	0.944	944.5	congruent	Block3	congruent/STIM_016.jpg	100
3300.419	1.024	1023.5	congruent	Block3	congruent/STIM_016.jpg	99
3303.864	0.876	875.9	congruent	Block3	congruent/STIM_017.jpg	100
3307.931	0.663	663.2	congruent	Block3	congruent/STIM_017.jpg	100
3310.673	0.596	596.5	congruent	Block3	congruent/STIM_017.jpg	99
3314.34	0.858	858.0	congruent	Block3	congruent/STIM_017.jpg	100
3318.982	0.711	711.1	congruent	Block3	congruent/STIM_017.jpg	99
3323.501	0.881	880.8	congruent	Block3	congruent/STIM_018.jpg	99
3327.161	0.884	884.2	congruent	Block3	congruent/STIM_018.jpg	99
3331.676	0.943	942.9	congruent	Block3	congruent/STIM_018.jpg	99
3335.825	0.71	709.8	congruent	Block3	congruent/STIM_018.jpg	99
3339.854	0.79	790.1	congruent	Block3	congruent/STIM_018.jpg	100
3344.262	0.74	740.4	congruent	Block3	congruent/STIM_019.jpg	99
3347.312	0.672	671.5	congruent	Block3	congruent/STIM_019.jpg	100
3350.133	0.913	913.0	congruent	Block3	congruent/STIM_019.jpg	99
3353.388	0.911	910.7	congruent	Block3	congruent/STIM_019.jpg	100
3357.721	0.977	977.0	congruent	Block3	congruent/STIM_019.jpg	99
3361.688	0.616	615.8	congruent	Block3	congruent/STIM_020.jpg	99
3365.953	0.917	917.4	congruent	Block3	congruent/STIM_020.jpg	100
3370.47	0.998	998.3	congruent	Block3	congruent/STIM_020.jpg	100
3375.22	0.61	609.7	congruent	Block3	congruent/STIM_020.jpg	99
3378.619	0.791	791.3	congruent	Block3	congruent/STIM_020.jpg	100
3381.881	0.731	730.9	congruent	Block3	congruent/STIM_021.jpg	100
3385.111	0.63	630.3	congruent	Block3	congruent/STIM_021.jpg	100
3389.133	0.732	732.5	congruent	Block3	congruent/STIM_021.jpg	99
3391.899	0.587	587.4	congruent	Block3	congruent/STIM_021.jpg	99
3395.872	0.878	878.3	congruent	Block3	congruent/STIM_021.jpg	100
3400.01	0.796	795.8	congruent	Block3	congruent/STIM_022.jpg	99
3403.154	0.837	837.2	congruent	Block3	congruent/STIM_022.jpg	99
3406.469	0.992	991.8	congruent	Block3	congruent/STIM_022.jpg	99
3410.052	0.811	810.8	congruent	Block3	congruent/STIM_022.jpg	100
3414.172	0.628	628.3	congruent	Block3	congruent/STIM_022.jpg	99
3417.455	0.736	735.9	congruent	Block3	congruent/STIM_023.jpg	100
3421.899	1.051	1050.7	congruent	Block3	congruent/STIM_023.jpg	99
3425.714	1.029	1028.6	congruent	Block3	congruent/STIM_023.jpg	99
3429.779	0.95	950.5	congruent	Block3	congruent/STIM_023.jpg	99
3433.502	0.928	928.2	congruent	Block3	congruent/STIM_023.jpg	100
3438.291	0.987	986.8	congruent	Block3	congruent/STIM_024.jpg	99
3441.662	0.96	960.2	congruent	Block3	congruent/STIM_024.jpg	100
3445.905	0.865	864.7	congruent	Block3	congruent/STIM_024.jpg	100
3450.324	0.776	775.7	congruent	Block3	congruent/STIM_024.jpg	99
3453.763	0.902	901.7	congruent	Block3	congruent/STIM_024.jpg	99
3457.677	0.83	830.0	congruent	Block3	congruent/STIM_025.jpg	99
3462.504	0.733	733.4	congruent	Block3	congruent/STIM_025.jpg	100
3466.571	0.942	942.5	congruent	Block3	congruent/STIM_025.jpg	99
3471.368	0.766	765.9	congruent	Block3	congruent/STIM_025.jpg	100
3474.261	0.906	905.7	congruent	Block3	congruent/STIM_025.jpg	100
3479.024	0.932	932.0	congruent	Block3	congruent/STIM_026.jpg	99
3482.278	1.011	1011.0	congruent	Block3	congruent/STIM_026.jpg	99
3485.87	0.863	862.7	congruent	Block3	congruent/STIM_026.jpg	99
3488.758	0.898	898.1	congruent	Block3	congruent/STIM_026.jpg	100
3493.292	0.864	863.9	congruent	Block3	congruent/STIM_026.jpg	99
3496.522	0.619	619.4	congruent	Block3	congruent/STIM_027.jpg	99
3500.879	0.885	885.3	congruent	Block3	congruent/STIM_027.jpg	99
3504.797	0.937	936.8	congruent	Block3	congruent/STIM_027.jpg	99
3508.555	0.973	973.2	congruent	Block3	congruent/STIM_027.jpg	99
3511.63	1.039	1038.8	congruent	Block3	congruent/STIM_027.jpg	99
3516.183	0.807	806.7	congruent	Block3	congruent/STIM_028.jpg	99
3519.563	0.85	849.7	congruent	Block3	congruent/STIM_028.jpg	99
3523.038	0.612	611.5	congruent	Block3	congruent/STIM_028.jpg	99
3527.622	0.951	951.4	congruent	Block3	congruent/STIM_028.jpg	100
3531.905	0.84	840.5	congruent	Block3	congruent/STIM_028.jpg	99
3536.547	0.619	618.6	congruent	Block3	congruent/STIM_029.jpg	100
3539.259	0.655	654.7	congruent	Block3	congruent/STIM_029.jpg	100
3543.095	0.851	850.6	congruent	Block3	congruent/STIM_029.jpg	99
3546.309	1.031	1030.9	congruent	Block3	congruent/STIM_029.jpg	100
3549.548	0.821	821.3	congruent	Block3	congruent/STIM_029.jpg	99
