onset	duration	response_time_ms	trial_type	learning_stage	stimulus	response_port
0.0	1.086	1085.8	incongruent	Block1	incongruent/STIM_000.jpg	99
4.927	0.687	687.1	incongruent	Block1	incongruent/STIM_000.jpg	100
9.42	0.887	886.8	incongruent	Block1	incongruent/STIM_000.jpg	100
13.571	0.9	900.2	incongruent	Block1	incongruent/STIM_000.jpg	99
17.404	0.57	570.1	incongruent	Block1	incongruent/STIM_000.jpg	99
20.726	1.385	1385.1	incongruent	Block1	incongruent/STIM_001.jpg	100
24.903	1.022	1022.4	incongruent	Block1	incongruent/STIM_001.jpg	99
29.059	0.987	987.2	incongruent	Block1	incongruent/STIM_001.jpg	99
33.022	0.967	966.7	incongruent	Block1	incongruent/STIM_001.jpg	100
36.807	0.671	670.6	incongruent	Block1	incongruent/STIM_001.jpg	100
40.553	1.244	1244.4	incongruent	Block1	incongruent/STIM_002.jpg	100
44.57	0.875	875.0	incongruent	Block1	incongruent/STIM_002.jpg	100
48.099	1.006	1006.0	incongruent	Block1	incongruent/STIM_002.jpg	99
52.564	0.706	705.8	incongruent	Block1	incongruent/STIM_002.jpg	100
56.342	0.678	678.1	incongruent	Block1	incongruent/STIM_002.jpg	99
60.224	0.799	798.9	incongruent	Block1	incongruent/STIM_003.jpg	100
64.89	1.028	1027.9	incongruent	Block1	incongruent/STIM_003.jpg	99
69.391	0.776	775.9	incongruent	Block1	incongruent/STIM_003.jpg	100
72.758	1.143	1143.0	incongruent	Block1	incongruent/STIM_003.jpg	99
77.323	0.586	586.2	incongruent	Block1	incongruent/STIM_003.jpg	100
81.077	1.316	1316.4	incongruent	Block1	incongruent/STIM_004.jpg	99
86.122	0.992	991.8	incongruent	Block1	incongruent/STIM_004.jpg	100
90.818	0.734	733.6	incongruent	Block1	incongruent/STIM_004.jpg	100
94.931	0.953	953.4	incongruent	Block1	incongruent/STIM_004.jpg	100
99.614	1.034	1033.9	incongruent	Block1	incongruent/STIM_004.jpg	100
103.319	1.115	1115.1	incongruent	Block1	incongruent/STIM_005.jpg	99
106.91	0.955	954.8	incongruent	Block1	incongruent/STIM_005.jpg	100
111.287	0.669	669.2	incongruent	Block1	incongruent/STIM_005.jpg	99
115.886	0.795	794.7	incongruent	Block1	incongruent/STIM_005.jpg	100
118.795	1.138	1137.6	incongruent	Block1	incongruent/STIM_005.jpg	99
123.681	0.862	862.1	incongruent	Block1	incongruent/STIM_006.jpg	100
126.573	1.215	1215.1	incongruent	Block1	incongruent/STIM_006.jpg	99
130.327	1.271	1270.8	incongruent	Block1	incongruent/STIM_006.jpg	99
134.93	1.111	1111.0	incongruent	Block1	incongruent/STIM_006.jpg	99
139.09	0.842	841.9	incongruent	Block1	incongruent/STIM_006.jpg	100
143.842	0.722	721.7	incongruent	Block1	incongruent/STIM_007.jpg	100
148.502	0.773	772.7	incongruent	Block1	incongruent/STIM_007.jpg	100
152.081	1.118	1118.4	incongruent	Block1	incongruent/STIM_007.jpg	99
156.49	1.032	1032.2	incongruent	Block1	incongruent/STIM_007.jpg	100
161.162	0.638	638.5	incongruent	Block1	incongruent/STIM_007.jpg	99
164.426	0.961	961.0	incongruent	Block1	incongruent/STIM_008.jpg	100
168.839	1.365	1365.3	incongruent	Block1	incongruent/STIM_008.jpg	100
172.814	1.04	1039.7	incongruent	Block1	incongruent/STIM_008.jpg	100
177.061	0.851	850.6	incongruent	Block1	incongruent/STIM_008.jpg	100
180.771	0.986	985.6	incongruent	Block1	incongruent/STIM_008.jpg	99
184.065	0.79	790.5	incongruent	Block1	incongruent/STIM_009.jpg	99
188.324	1.274	1273.8	incongruent	Block1	incongruent/STIM_009.jpg	100
192.889	1.132	1132.5	incongruent	Block1	incongruent/STIM_009.jpg	100
196.529	0.646	646.4	incongruent	Block1	incongruent/STIM_009.jpg	99
200.912	0.628	627.9	incongruent	Block1	incongruent/STIM_009.jpg	99
205.067	0.75	749.5	incongruent	Block1	incongruent/STIM_010.jpg	100
209.584	0.719	718.6	incongruent	Block1	incongruent/STIM_010.jpg	100
212.721	1.094	1093.7	incongruent	Block1	incongruent/STIM_010.jpg	99
216.27	0.971	971.0	incongruent	Block1	incongruent/STIM_010.jpg	100
219.377	1.003	1002.9	incongruent	Block1	incongruent/STIM_010.jpg	100
222.789	1.078	1078.4	incongruent	Block1	incongruent/STIM_011.jpg	99
225.94	0.91	910.0	incongruent	Block1	incongruent/STIM_011.jpg	99
230.703	1.072	1071.7	incongruent	Block1	incongruent/STIM_011.jpg	100
235.222	0.666	666.5	incongruent	Block1	incongruent/STIM_011.jpg	100
237.944	1.07	1070.3	incongruent	Block1	incongruent/STIM_011.jpg	99
241.489	0.686	686.4	incongruent	Block1	incongruent/STIM_012.jpg	100
244.331	0.916	916.5	incongruent	Block1	incongruent/STIM_012.jpg	99
249.179	0.615	615.1	incongruent	Block1	incongruent/STIM_012.jpg	99
252.878	1.076	1076.5	incongruent	Block1	incongruent/STIM_012.jpg	100
256.709	1.155	1154.6	incongruent	Block1	incongruent/STIM_012.jpg	99
260.625	1.296	1296.1	incongruent	Block1	incongruent/STIM_013.jpg	99
265.358	0.868	867.6	incongruent	Block1	incongruent/STIM_013.jpg	99
270.04	1.217	1217.3	incongruent	Block1	incongruent/STIM_013.jpg	99
273.948	0.702	701.9	incongruent	Block1	incongruent/STIM_013.jpg	99
278.486	0.854	854.1	incongruent	Block1	incongruent/STIM_013.jpg	99
282.056	0.729	729.1	incongruent	Block1	incongruent/STIM_014.jpg	100
286.787	1.086	1085.8	incongruent	Block1	incongruent/STIM_014.jpg	99
291.585	0.871	870.9	incongruent	Block1	incongruent/STIM_014.jpg	99
295.424	0.837	837.4	incongruent	Block1	incongruent/STIM_014.jpg	99
299.902	0.771	770.7	incongruent	Block1	incongruent/STIM_014.jpg	100
303.963	0.741	740.9	incongruent	Block1	incongruent/STIM_015.jpg	100
308.608	0.674	674.0	incongruent	Block1	incongruent/STIM_015.jpg	100
311.663	1.024	1024.0	incongruent	Block1	incongruent/STIM_015.jpg	99
316.115	0.615	615.1	incongruent	Block1	incongruent/STIM_015.jpg	99
319.787	1.138	1137.7	incongruent	Block1	incongruent/STIM_015.jpg	99
323.351	0.796	795.6	incongruent	Block1	incongruent/STIM_016.jpg	99
328.014	1.172	1171.5	incongruent	Block1	incongruent/STIM_016.jpg	99
332.12	1.006	1006.5	incongruent	Block1	incongruent/STIM_016.jpg	100
336.082	0.94	940.5	incongruent	Block1	incongruent/STIM_016.jpg	99
340.923	0.894	893.9	incongruent	Block1	incongruent/STIM_016.jpg	99
344.952	1.203	1203.2	incongruent	Block1	incongruent/STIM_017.jpg	99
349.269	1.198	1197.6	incongruent	Block1	incongruent/STIM_017.jpg	100
354.386	0.787	787.1	incongruent	Block1	incongruent/STIM_017.jpg	99
358.338	0.898	898.1	incongruent	Block1	incongruent/STIM_017.jpg	99
361.266	0.766	766.3	incongruent	Block1	incongruent/STIM_017.jpg	100
365.363	1.225	1225.3	incongruent	Block1	incongruent/STIM_018.jpg	99
368.741	0.751	750.7	incongruent	Block1	incongruent/STIM_018.jpg	99
373.053	1.18	1179.5	incongruent	Block1	incongruent/STIM_018.jpg	100
376.585	0.889	889.2	incongruent	Block1	incongruent/STIM_018.jpg	99
379.946	0.595	595.0	incongruent	Block1	incongruent/STIM_018.jpg	99
383.54	1.262	1262.2	incongruent	Block1	incongruent/STIM_019.jpg	99
388.252	1.224	1224.5	incongruent	Block1	incongruent/STIM_019.jpg	99
391.938	0.752	752.2	incongruent	Block1	incongruent/STIM_019.jpg	100
395.955	1.136	1135.8	incongruent	Block1	incongruent/STIM_019.jpg	100
399.88	0.568	568.1	incongruent	Block1	incongruent/STIM_019.jpg	99
402.644	1.028	1027.7	incongruent	Block1	incongruent/STIM_020.jpg	99
406.128	0.995	995.0	incongruent	Block1	incongruent/STIM_020.jpg	99
410.165	1.306	1305.7	incongruent	Block1	incongruent/STIM_020.jpg	100
414.314	1.228	1228.5	incongruent	Block1	incongruent/STIM_020.jpg	100
418.522	0.812	811.8	incongruent	Block1	incongruent/STIM_020.jpg	100
423.275	1.047	1046.9	incongruent	Block1	incongruent/STIM_021.jpg	100
427.168	1.162	1161.7	incongruent	Block1	incongruent/STIM_021.jpg	99
432.306	0.891	891.2	incongruent	Block1	incongruent/STIM_021.jpg	99
436.14	1.121	1120.9	incongruent	Block1	incongruent/STIM_021.jpg	99
440.526	0.751	751.0	incongruent	Block1	incongruent/STIM_021.jpg	99
444.789	0.904	903.9	incongruent	Block1	incongruent/STIM_022.jpg	100
448.582	1.077	1077.3	incongruent	Block1	incongruent/STIM_022.jpg	99
453.353	1.04	1040.1	incongruent	Block1	incongruent/STIM_022.jpg	99
457.193	1.116	1115.8	incongruent	Block1	incongruent/STIM_022.jpg	100
462.291	0.706	706.1	incongruent	Block1	incongruent/STIM_022.jpg	100
465.877	0.892	891.9	incongruent	Block1	incongruent/STIM_023.jpg	99
469.664	0.995	995.4	incongruent	Block1	incongruent/STIM_023.jpg	100
474.209	0.826	825.5	incongruent	Block1	incongruent/STIM_023.jpg	100
478.572	0.954	954.2	incongruent	Block1	incongruent/STIM_023.jpg	99
483.037	0.657	657.0	incongruent	Block1	incongruent/STIM_023.jpg	100
487.553	0.872	872.4	incongruent	Block1	incongruent/STIM_024.jpg	99
491.022	1.197	1197.2	incongruent	Block1	incongruent/STIM_024.jpg	100
495.524	0.722	721.5	incongruent	Block1	incongruent/STIM_024.jpg	99
499.308	0.849	849.4	incongruent	Block1	incongruent/STIM_024.jpg	99
502.99	0.772	772.3	incongruent	Block1	incongruent/STIM_024.jpg	100
505.972	0.964	963.6	incongruent	Block1	incongruent/STIM_025.jpg	99
510.552	1.204	1203.7	incongruent	Block1	incongruent/STIM_025.jpg	100
514.33	0.926	925.8	incongruent	Block1	incongruent/STIM_025.jpg	99
518.375	0.594	594.3	incongruent	Block1	incongruent/STIM_025.jpg	100
522.845	0.892	892.2	incongruent	Block1	incongruent/STIM_025.jpg	100
526.255	0.883	882.6	incongruent	Block1	incongruent/STIM_026.jpg	100
530.721	0.863	863.1	incongruent	Block1	incongruent/STIM_026.jpg	100
533.947	1.017	1017.0	incongruent	Block1	incongruent/STIM_026.jpg	100
538.832	1.018	1018.1	incongruent	Block1	incongruent/STIM_026.jpg	100
542.919	1.015	1015.3	incongruent	Block1	incongruent/STIM_026.jpg	99
547.761	1.337	1336.7	incongruent	Block1	incongruent/STIM_027.jpg	99
552.952	1.288	1287.5	incongruent	Block1	incongruent/STIM_027.jpg	100
557.872	1.058	1058.2	incongruent	Block1	incongruent/STIM_027.jpg	99
561.803	0.936	936.3	incongruent	Block1	incongruent/STIM_027.jpg	99
565.189	0.914	913.6	incongruent	Block1	incongruent/STIM_027.jpg	100
568.794	0.693	693.0	incongruent	Block1	incongruent/STIM_028.jpg	99
571.915	1.125	1124.8	incongruent	Block1	incongruent/STIM_028.jpg	99
576.166	0.962	962.2	incongruent	Block1	incongruent/STIM_028.jpg	100
581.116	1.221	1220.6	incongruent	Block1	incongruent/STIM_028.jpg	100
584.762	1.143	1142.8	incongruent	Block1	incongruent/STIM_028.jpg	99
588.77	1.241	1240.6	incongruent	Block1	incongruent/STIM_029.jpg	100
592.181	0.808	808.5	incongruent	Block1	incongruent/STIM_029.jpg	99
596.836	0.847	846.7	incongruent	Block1	incongruent/STIM_029.jpg	99
601.434	1.204	1203.8	incongruent	Block1	incongruent/STIM_029.jpg	99
604.738	0.653	652.8	incongruent	Block1	incongruent/STIM_029.jpg	99
608.572	0.832	831.9	congruent	Block1	congruent/STIM_000.jpg	99
613.255	0.789	788.7	congruent	Block1	congruent/STIM_000.jpg	99
616.195	0.579	578.8	congruent	Block1	congruent/STIM_000.jpg	100
619.329	0.508	508.0	congruent	Block1	congruent/STIM_000.jpg	100
623.414	0.862	861.8	congruent	Block1	congruent/STIM_000.jpg	99
627.329	0.499	499.0	congruent	Block1	congruent/STIM_001.jpg	99
630.388	0.635	634.6	congruent	Block1	congruent/STIM_001.jpg	99
634.69	0.706	706.4	congruent	Block1	congruent/STIM_001.jpg	99
637.559	0.804	804.0	congruent	Block1	congruent/STIM_001.jpg	99
641.263	0.67	670.0	congruent	Block1	congruent/STIM_001.jpg	100
645.671	0.812	812.2	congruent	Block1	congruent/STIM_002.jpg	100
649.985	0.645	644.8	congruent	Block1	congruent/STIM_002.jpg	99
654.631	0.76	760.3	congruent	Block1	congruent/STIM_002.jpg	100
658.869	0.558	557.9	congruent	Block1	congruent/STIM_002.jpg	100
662.118	0.865	864.7	congruent	Block1	congruent/STIM_002.jpg	99
666.742	0.797	796.6	congruent	Block1	congruent/STIM_003.jpg	100
670.082	0.708	707.9	congruent	Block1	congruent/STIM_003.jpg	99
674.104	0.671	671.0	congruent	Block1	congruent/STIM_003.jpg	100
678.043	0.725	724.7	congruent	Block1	congruent/STIM_003.jpg	100
681.303	0.787	786.7	congruent	Block1	congruent/STIM_003.jpg	100
685.48	0.807	807.4	congruent	Block1	congruent/STIM_004.jpg	100
688.382	0.562	562.5	congruent	Block1	congruent/STIM_004.jpg	100
691.217	0.837	837.1	congruent	Block1	congruent/STIM_004.jpg	100
694.94	0.682	681.5	congruent	Block1	congruent/STIM_004.jpg	100
699.165	0.633	633.2	congruent	Block1	congruent/STIM_004.jpg	100
702.299	0.524	524.0	congruent	Block1	congruent/STIM_005.jpg	99
705.262	0.627	626.8	congruent	Block1	congruent/STIM_005.jpg	99
709.172	0.846	845.8	congruent	Block1	congruent/STIM_005.jpg	99
713.403	0.621	621.2	congruent	Block1	congruent/STIM_005.jpg	99
716.596	0.796	796.3	congruent	Block1	congruent/STIM_005.jpg	99
720.992	0.867	867.2	congruent	Block1	congruent/STIM_006.jpg	99
724.081	0.67	669.6	congruent	Block1	congruent/STIM_006.jpg	99
726.787	0.597	597.3	congruent	Block1	congruent/STIM_006.jpg	100
729.439	0.688	687.7	congruent	Block1	congruent/STIM_006.jpg	100
732.65	0.809	809.0	congruent	Block1	congruent/STIM_006.jpg	99
737.034	0.825	825.3	congruent	Block1	congruent/STIM_007.jpg	100
740.96	0.861	861.1	congruent	Block1	congruent/STIM_007.jpg	100
745.096	0.497	496.8	congruent	Block1	congruent/STIM_007.jpg	100
748.234	0.666	666.0	congruent	Block1	congruent/STIM_007.jpg	100
752.723	0.806	805.6	congruent	Block1	congruent/STIM_007.jpg	100
757.136	0.847	846.9	congruent	Block1	congruent/STIM_008.jpg	99
760.231	0.812	812.3	congruent	Block1	congruent/STIM_008.jpg	100
763.13	0.796	795.7	congruent	Block1	congruent/STIM_008.jpg	100
767.656	0.648	647.6	congruent	Block1	congruent/STIM_008.jpg	100
772.106	0.509	509.0	congruent	Block1	congruent/STIM_008.jpg	99
774.985	0.776	776.3	congruent	Block1	congruent/STIM_009.jpg	100
779.717	0.851	851.1	congruent	Block1	congruent/STIM_009.jpg	99
784.499	0.53	530.3	congruent	Block1	congruent/STIM_009.jpg	99
787.34	0.733	733.4	congruent	Block1	congruent/STIM_009.jpg	100
792.047	0.686	685.7	congruent	Block1	congruent/STIM_009.jpg	99
795.339	0.78	780.1	congruent	Block1	congruent/STIM_010.jpg	99
798.616	0.642	641.6	congruent	Block1	congruent/STIM_010.jpg	99
802.313	0.512	511.8	congruent	Block1	congruent/STIM_010.jpg	100
805.089	0.807	806.6	congruent	Block1	congruent/STIM_010.jpg	100
809.673	0.821	821.1	congruent	Block1	congruent/STIM_010.jpg	100
813.768	0.494	493.7	congruent	Block1	congruent/STIM_011.jpg	100
817.445	0.486	486.0	congruent	Block1	congruent/STIM_011.jpg	99
820.875	0.536	536.3	congruent	Block1	congruent/STIM_011.jpg	99
824.087	0.536	535.6	congruent	Block1	congruent/STIM_011.jpg	100
828.244	0.629	628.7	congruent	Block1	congruent/STIM_011.jpg	99
831.071	0.653	652.6	congruent	Block1	congruent/STIM_012.jpg	100
834.405	0.534	534.2	congruent	Block1	congruent/STIM_012.jpg	99
837.398	0.739	739.3	congruent	Block1	congruent/STIM_012.jpg	100
840.64	0.633	632.6	congruent	Block1	congruent/STIM_012.jpg	99
845.185	0.551	551.0	congruent	Block1	congruent/STIM_012.jpg	99
848.775	0.649	648.6	congruent	Block1	congruent/STIM_013.jpg	99
851.536	0.643	643.3	congruent	Block1	congruent/STIM_013.jpg	100
855.276	0.762	762.4	congruent	Block1	congruent/STIM_013.jpg	99
858.118	0.797	796.8	congruent	Block1	congruent/STIM_013.jpg	99
862.394	0.513	513.2	congruent	Block1	congruent/STIM_013.jpg	100
866.22	0.578	577.7	congruent	Block1	congruent/STIM_014.jpg	100
869.438	0.583	583.2	congruent	Block1	congruent/STIM_014.jpg	99
872.76	0.581	581.2	congruent	Block1	congruent/STIM_014.jpg	100
875.751	0.612	611.6	congruent	Block1	congruent/STIM_014.jpg	99
879.261	0.506	506.2	congruent	Block1	congruent/STIM_014.jpg	99
883.244	0.584	583.6	congruent	Block1	congruent/STIM_015.jpg	99
886.301	0.613	613.4	congruent	Block1	congruent/STIM_015.jpg	100
890.364	0.53	529.9	congruent	Block1	congruent/STIM_015.jpg	99
894.113	0.641	641.4	congruent	Block1	congruent/STIM_015.jpg	99
897.581	0.826	825.6	congruent	Block1	congruent/STIM_015.jpg	100
901.03	0.509	509.1	congruent	Block1	congruent/STIM_016.jpg	100
904.14	0.598	598.4	congruent	Block1	congruent/STIM_016.jpg	100
907.079	0.558	557.5	congruent	Block1	congruent/STIM_016.jpg	99
910.115	0.586	585.6	congruent	Block1	congruent/STIM_016.jpg	99
913.727	0.796	795.5	congruent	Block1	congruent/STIM_016.jpg	99
918.094	0.575	574.6	congruent	Block1	congruent/STIM_017.jpg	99
921.949	0.69	690.5	congruent	Block1	congruent/STIM_017.jpg	99
925.538	0.501	500.7	congruent	Block1	congruent/STIM_017.jpg	100
929.474	0.645	644.8	congruent	Block1	congruent/STIM_017.jpg	100
932.251	0.654	653.7	congruent	Block1	congruent/STIM_017.jpg	100
935.032	0.679	679.2	congruent	Block1	congruent/STIM_018.jpg	100
939.46	0.74	740.0	congruent	Block1	congruent/STIM_018.jpg	99
942.312	0.543	542.7	congruent	Block1	congruent/STIM_018.jpg	100
945.215	0.561	561.2	congruent	Block1	congruent/STIM_018.jpg	100
949.077	0.694	693.5	congruent	Block1	congruent/STIM_018.jpg	100
952.769	0.544	544.2	congruent	Block1	congruent/STIM_019.jpg	100
956.694	0.647	647.4	congruent	Block1	congruent/STIM_019.jpg	100
960.649	0.77	770.0	congruent	Block1	congruent/STIM_019.jpg	99
964.987	0.589	589.1	congruent	Block1	congruent/STIM_019.jpg	100
969.358	0.72	720.2	congruent	Block1	congruent/STIM_019.jpg	100
972.244	0.679	678.9	congruent	Block1	congruent/STIM_020.jpg	99
975.576	0.509	509.0	congruent	Block1	congruent/STIM_020.jpg	99
978.54	0.76	760.2	congruent	Block1	congruent/STIM_020.jpg	99
982.99	0.578	577.5	congruent	Block1	congruent/STIM_020.jpg	99
986.512	0.505	504.9	congruent	Block1	congruent/STIM_020.jpg	100
989.378	0.664	664.4	congruent	Block1	congruent/STIM_021.jpg	99
992.807	0.851	851.0	congruent	Block1	congruent/STIM_021.jpg	99
995.952	0.68	680.2	congruent	Block1	congruent/STIM_021.jpg	99
1000.559	0.789	788.8	congruent	Block1	congruent/STIM_021.jpg	99
1004.555	0.858	857.7	congruent	Block1	congruent/STIM_021.jpg	99
1008.899	0.797	797.2	congruent	Block1	congruent/STIM_022.jpg	100
1012.201	0.871	871.4	congruent	Block1	congruent/STIM_022.jpg	100
1015.22	0.813	813.3	congruent	Block1	congruent/STIM_022.jpg	100
1019.696	0.537	536.9	congruent	Block1	congruent/STIM_022.jpg	100
1023.819	0.542	542.4	congruent	Block1	congruent/STIM_022.jpg	100
1027.701	0.77	769.7	congruent	Block1	congruent/STIM_023.jpg	100
1031.372	0.796	796.5	congruent	Block1	congruent/STIM_023.jpg	99
1036.084	0.564	563.8	congruent	Block1	congruent/STIM_023.jpg	99
1040.608	0.501	500.6	congruent	Block1	congruent/STIM_023.jpg	99
1044.731	0.547	546.8	congruent	Block1	congruent/STIM_023.jpg	99
1047.396	0.672	671.9	congruent	Block1	congruent/STIM_024.jpg	99
1051.108	0.708	707.6	congruent	Block1	congruent/STIM_024.jpg	99
1055.323	0.583	583.0	congruent	Block1	congruent/STIM_024.jpg	99
1058.847	0.793	792.8	congruent	Block1	congruent/STIM_024.jpg	99
1062.512	0.708	708.2	congruent	Block1	congruent/STIM_024.jpg	99
1066.014	0.649	648.8	congruent	Block1	congruent/STIM_025.jpg	100
1069.391	0.618	618.5	congruent	Block1	congruent/STIM_025.jpg	99
1072.817	0.526	526.4	congruent	Block1	congruent/STIM_025.jpg	99
1077.033	0.873	872.9	congruent	Block1	congruent/STIM_025.jpg	100
1080.094	0.87	870.3	congruent	Block1	congruent/STIM_025.jpg	99
1083.793	0.486	485.8	congruent	Block1	congruent/STIM_026.jpg	99
1087.6	0.598	597.5	congruent	Block1	congruent/STIM_026.jpg	100
1091.264	0.558	557.8	congruent	Block1	congruent/STIM_026.jpg	100
1095.599	0.79	789.7	congruent	Block1	congruent/STIM_026.jpg	99
1098.604	0.6	600.1	congruent	Block1	congruent/STIM_026.jpg	100
1102.925	0.859	858.8	congruent	Block1	congruent/STIM_027.jpg	100
1106.215	0.794	794.5	congruent	Block1	congruent/STIM_027.jpg	99
1109.213	0.524	523.9	congruent	Block1	congruent/STIM_027.jpg	99
1112.477	0.514	513.9	congruent	Block1	congruent/STIM_027.jpg	100
1115.58	0.773	772.7	congruent	Block1	congruent/STIM_027.jpg	99
1119.942	0.818	818.0	congruent	Block1	congruent/STIM_028.jpg	99
1124.335	0.69	690.0	congruent	Block1	congruent/STIM_028.jpg	99
1127.598	0.791	791.3	congruent	Block1	congruent/STIM_028.jpg	100
1131.897	0.839	838.9	congruent	Block1	congruent/STIM_028.jpg	100
1136.586	0.84	840.0	congruent	Block1	congruent/STIM_028.jpg	100
1140.552	0.672	671.5	congruent	Block1	congruent/STIM_029.jpg	100
1143.461	0.612	612.2	congruent	Block1	congruent/STIM_029.jpg	100
1147.479	0.516	516.4	congruent	Block1	congruent/STIM_029.jpg	100
1151.367	0.612	611.9	congruent	Block1	congruent/STIM_029.jpg	99
1155.953	0.71	710.3	congruent	Block1	congruent/STIM_029.jpg	99
1160.503	0.74	740.0	incongruent	Block2	incongruent/STIM_000.jpg	100
1165.26	0.789	789.0	incongruent	Block2	incongruent/STIM_000.jpg	100
1169.722	0.656	656.4	incongruent	Block2	incongruent/STIM_000.jpg	100
1174.187	0.572	572.4	incongruent	Block2	incongruent/STIM_000.jpg	100
1177.233	0.806	805.5	incongruent	Block2	incongruent/STIM_000.jpg	99
1181.549	0.962	962.5	incongruent	Block2	incongruent/STIM_001.jpg	99
1186.266	0.996	996.1	incongruent	Block2	incongruent/STIM_001.jpg	99
1190.588	0.984	983.5	incongruent	Block2	incongruent/STIM_001.jpg	100
1194.648	0.918	917.5	incongruent	Block2	incongruent/STIM_001.jpg	99
1198.585	0.9	899.6	incongruent	Block2	incongruent/STIM_001.jpg	100
1201.621	0.627	626.6	incongruent	Block2	incongruent/STIM_002.jpg	100
1205.299	0.558	558.4	incongruent	Block2	incongruent/STIM_002.jpg	100
1208.177	1.079	1079.0	incongruent	Block2	incongruent/STIM_002.jpg	100
1212.716	0.507	507.3	incongruent	Block2	incongruent/STIM_002.jpg	100
1217.23	0.694	693.5	incongruent	Block2	incongruent/STIM_002.jpg	99
1220.824	0.621	620.7	incongruent	Block2	incongruent/STIM_003.jpg	99
1223.838	0.629	628.9	incongruent	Block2	incongruent/STIM_003.jpg	100
1227.014	0.696	696.5	incongruent	Block2	incongruent/STIM_003.jpg	100
1230.938	0.504	504.5	incongruent	Block2	incongruent/STIM_003.jpg	100
1233.942	0.488	487.9	incongruent	Block2	incongruent/STIM_003.jpg	100
1238.414	0.602	601.9	incongruent	Block2	incongruent/STIM_004.jpg	99
1241.426	0.873	872.9	incongruent	Block2	incongruent/STIM_004.jpg	100
1245.024	0.717	717.1	incongruent	Block2	incongruent/STIM_004.jpg	99
1249.577	0.564	564.0	incongruent	Block2	incongruent/STIM_004.jpg	100
1253.89	0.978	977.9	incongruent	Block2	incongruent/STIM_004.jpg	100
1257.952	0.617	616.9	incongruent	Block2	incongruent/STIM_005.jpg	100
1262.08	0.576	576.5	incongruent	Block2	incongruent/STIM_005.jpg	100
1265.195	0.716	716.3	incongruent	Block2	incongruent/STIM_005.jpg	99
1268.339	0.672	672.4	incongruent	Block2	incongruent/STIM_005.jpg	100
1272.52	0.58	579.9	incongruent	Block2	incongruent/STIM_005.jpg	99
1276.001	0.673	672.6	incongruent	Block2	incongruent/STIM_006.jpg	99
1278.766	1.084	1084.4	incongruent	Block2	incongruent/STIM_006.jpg	100
1282.936	0.899	898.8	incongruent	Block2	incongruent/STIM_006.jpg	99
1287.784	0.705	704.8	incongruent	Block2	incongruent/STIM_006.jpg	100
1291.662	0.628	628.5	incongruent	Block2	incongruent/STIM_006.jpg	100
1295.997	0.701	700.8	incongruent	Block2	incongruent/STIM_007.jpg	99
1299.792	0.75	749.7	incongruent	Block2	incongruent/STIM_007.jpg	99
1303.235	0.675	674.9	incongruent	Block2	incongruent/STIM_007.jpg	99
1306.236	0.558	557.9	incongruent	Block2	incongruent/STIM_007.jpg	99
1309.011	0.476	476.3	incongruent	Block2	incongruent/STIM_007.jpg	100
1312.716	0.739	739.4	incongruent	Block2	incongruent/STIM_008.jpg	99
1315.563	0.775	775.0	incongruent	Block2	incongruent/STIM_008.jpg	99
1320.196	0.956	956.4	incongruent	Block2	incongruent/STIM_008.jpg	99
1323.907	0.631	630.8	incongruent	Block2	incongruent/STIM_008.jpg	99
1327.544	0.6	600.2	incongruent	Block2	incongruent/STIM_008.jpg	100
1331.846	1.138	1138.2	incongruent	Block2	incongruent/STIM_009.jpg	99
1336.452	0.753	753.3	incongruent	Block2	incongruent/STIM_009.jpg	99
1339.482	0.769	769.0	incongruent	Block2	incongruent/STIM_009.jpg	100
1342.683	0.482	482.4	incongruent	Block2	incongruent/STIM_009.jpg	100
1347.096	0.716	715.9	incongruent	Block2	incongruent/STIM_009.jpg	99
1350.746	0.744	743.7	incongruent	Block2	incongruent/STIM_010.jpg	100
1355.067	0.814	813.6	incongruent	Block2	incongruent/STIM_010.jpg	100
1358.123	0.827	826.8	incongruent	Block2	incongruent/STIM_010.jpg	100
1361.594	0.509	508.6	incongruent	Block2	incongruent/STIM_010.jpg	100
1365.345	0.684	684.3	incongruent	Block2	incongruent/STIM_010.jpg	99
1368.071	0.965	965.3	incongruent	Block2	incongruent/STIM_011.jpg	99
1372.973	0.792	792.2	incongruent	Block2	incongruent/STIM_011.jpg	100
1377.441	0.911	910.7	incongruent	Block2	incongruent/STIM_011.jpg	99
1381.838	0.516	515.5	incongruent	Block2	incongruent/STIM_011.jpg	100
1384.715	0.495	495.2	incongruent	Block2	incongruent/STIM_011.jpg	99
1387.464	1.059	1059.3	incongruent	Block2	incongruent/STIM_012.jpg	99
1391.728	0.925	925.3	incongruent	Block2	incongruent/STIM_012.jpg	99
1394.701	0.841	840.7	incongruent	Block2	incongruent/STIM_012.jpg	100
1398.787	0.949	949.3	incongruent	Block2	incongruent/STIM_012.jpg	100
1402.907	0.63	629.7	incongruent	Block2	incongruent/STIM_012.jpg	100
1406.878	1.06	1060.1	incongruent	Block2	incongruent/STIM_013.jpg	99
1409.973	0.984	984.3	incongruent	Block2	incongruent/STIM_013.jpg	100
1414.082	0.8	800.2	incongruent	Block2	incongruent/STIM_013.jpg	100
1418.409	0.605	604.6	incongruent	Block2	incongruent/STIM_013.jpg	100
1421.619	0.906	906.0	incongruent	Block2	incongruent/STIM_013.jpg	99
1425.506	0.619	618.6	incongruent	Block2	incongruent/STIM_014.jpg	99
1429.746	0.848	848.5	incongruent	Block2	incongruent/STIM_014.jpg	100
1433.109	0.949	949.1	incongruent	Block2	incongruent/STIM_014.jpg	100
1437.201	0.496	495.7	incongruent	Block2	incongruent/STIM_014.jpg	99
1439.926	0.976	976.1	incongruent	Block2	incongruent/STIM_014.jpg	100
1444.287	0.678	678.2	incongruent	Block2	incongruent/STIM_015.jpg	100
1447.055	1.06	1059.9	incongruent	Block2	incongruent/STIM_015.jpg	100
1451.11	0.963	962.9	incongruent	Block2	incongruent/STIM_015.jpg	99
1454.811	0.648	647.9	incongruent	Block2	incongruent/STIM_015.jpg	100
1457.774	0.501	501.2	incongruent	Block2	incongruent/STIM_015.jpg	99
1460.551	1.122	1121.8	incongruent	Block2	incongruent/STIM_016.jpg	99
1465.558	0.665	665.4	incongruent	Block2	incongruent/STIM_016.jpg	100
1468.306	0.99	989.7	incongruent	Block2	incongruent/STIM_016.jpg	100
1471.408	0.578	577.5	incongruent	Block2	incongruent/STIM_016.jpg	100
1475.978	0.902	901.7	incongruent	Block2	incongruent/STIM_016.jpg	99
1479.634	1.079	1079.0	incongruent	Block2	incongruent/STIM_017.jpg	99
1484.482	0.834	834.0	incongruent	Block2	incongruent/STIM_017.jpg	100
1488.139	0.823	823.3	incongruent	Block2	incongruent/STIM_017.jpg	100
1492.619	0.867	866.9	incongruent	Block2	incongruent/STIM_017.jpg	100
1496.643	0.507	507.3	incongruent	Block2	incongruent/STIM_017.jpg	100
1501.053	0.907	907.2	incongruent	Block2	incongruent/STIM_018.jpg	100
1505.772	0.834	834.1	incongruent	Block2	incongruent/STIM_018.jpg	100
1509.013	0.684	684.4	incongruent	Block2	incongruent/STIM_018.jpg	100
1511.951	0.813	813.0	incongruent	Block2	incongruent/STIM_018.jpg	99
1516.53	0.93	930.3	incongruent	Block2	incongruent/STIM_018.jpg	100
1520.494	1.094	1094.1	incongruent	Block2	incongruent/STIM_019.jpg	99
1524.715	0.738	738.0	incongruent	Block2	incongruent/STIM_019.jpg	100
1528.834	0.686	686.4	incongruent	Block2	incongruent/STIM_019.jpg	99
1531.673	0.799	798.6	incongruent	Block2	incongruent/STIM_019.jpg	99
1535.083	0.982	982.2	incongruent	Block2	incongruent/STIM_019.jpg	100
1539.945	0.695	695.3	incongruent	Block2	incongruent/STIM_020.jpg	100
1544.622	0.814	813.9	incongruent	Block2	incongruent/STIM_020.jpg	99
1548.213	0.946	945.6	incongruent	Block2	incongruent/STIM_020.jpg	100
1552.94	0.931	931.1	incongruent	Block2	incongruent/STIM_020.jpg	100
1557.236	0.928	927.9	incongruent	Block2	incongruent/STIM_020.jpg	99
1560.508	0.773	773.4	incongruent	Block2	incongruent/STIM_021.jpg	99
1564.591	0.584	584.3	incongruent	Block2	incongruent/STIM_021.jpg	100
1568.167	0.529	528.9	incongruent	Block2	incongruent/STIM_021.jpg	99
1572.035	0.642	642.1	incongruent	Block2	incongruent/STIM_021.jpg	99
1574.734	0.93	929.9	incongruent	Block2	incongruent/STIM_021.jpg	100
1579.343	0.736	735.5	incongruent	Block2	incongruent/STIM_022.jpg	100
1582.782	0.997	997.4	incongruent	Block2	incongruent/STIM_022.jpg	100
1587.175	1.07	1070.2	incongruent	Block2	incongruent/STIM_022.jpg	100
1592.146	0.811	811.0	incongruent	Block2	incongruent/STIM_022.jpg	99
1595.432	1.0	1000.1	incongruent	Block2	incongruent/STIM_022.jpg	99
1599.158	1.195	1194.9	incongruent	Block2	incongruent/STIM_023.jpg	99
1603.519	1.057	1056.9	incongruent	Block2	incongruent/STIM_023.jpg	99
1606.621	0.687	687.2	incongruent	Block2	incongruent/STIM_023.jpg	100
1610.798	0.673	672.7	incongruent	Block2	incongruent/STIM_023.jpg	99
1614.248	0.69	689.8	incongruent	Block2	incongruent/STIM_023.jpg	99
1618.778	0.719	718.8	incongruent	Block2	incongruent/STIM_024.jpg	99
1622.255	0.836	836.2	incongruent	Block2	incongruent/STIM_024.jpg	99
1626.902	0.894	894.5	incongruent	Block2	incongruent/STIM_024.jpg	100
1630.087	0.915	914.8	incongruent	Block2	incongruent/STIM_024.jpg	99
1633.15	0.74	740.5	incongruent	Block2	incongruent/STIM_024.jpg	99
1636.696	1.135	1134.9	incongruent	Block2	incongruent/STIM_025.jpg	99
1640.46	0.646	645.5	incongruent	Block2	incongruent/STIM_025.jpg	100
1644.948	0.904	904.0	incongruent	Block2	incongruent/STIM_025.jpg	99
1648.901	0.549	549.4	incongruent	Block2	incongruent/STIM_025.jpg	99
1652.539	0.897	896.7	incongruent	Block2	incongruent/STIM_025.jpg	100
1656.246	0.986	985.5	incongruent	Block2	incongruent/STIM_026.jpg	99
1659.274	0.953	952.9	incongruent	Block2	incongruent/STIM_026.jpg	100
1664.188	0.833	833.2	incongruent	Block2	incongruent/STIM_026.jpg	100
1668.675	0.535	535.0	incongruent	Block2	incongruent/STIM_026.jpg	100
1672.594	0.778	778.3	incongruent	Block2	incongruent/STIM_026.jpg	99
1677.29	0.599	599.3	incongruent	Block2	incongruent/STIM_027.jpg	100
1680.821	0.668	667.9	incongruent	Block2	incongruent/STIM_027.jpg	100
1685.228	0.863	863.0	incongruent	Block2	incongruent/STIM_027.jpg	99
1688.41	0.555	555.2	incongruent	Block2	incongruent/STIM_027.jpg	99
1692.691	0.689	689.0	incongruent	Block2	incongruent/STIM_027.jpg	99
1697.134	0.68	679.6	incongruent	Block2	incongruent/STIM_028.jpg	100
1700.294	0.879	878.6	incongruent	Block2	incongruent/STIM_028.jpg	99
1704.034	1.012	1011.9	incongruent	Block2	incongruent/STIM_028.jpg	100
1707.202	0.594	594.1	incongruent	Block2	incongruent/STIM_028.jpg	99
1710.594	0.988	987.9	incongruent	Block2	incongruent/STIM_028.jpg	100
1714.844	1.163	1163.0	incongruent	Block2	incongruent/STIM_029.jpg	100
1719.864	1.008	1008.3	incongruent	Block2	incongruent/STIM_029.jpg	100
1723.412	0.865	865.0	incongruent	Block2	incongruent/STIM_029.jpg	100
1728.188	0.868	868.3	incongruent	Block2	incongruent/STIM_029.jpg	99
1731.672	0.954	953.5	incongruent	Block2	incongruent/STIM_029.jpg	100
1734.924	0.528	528.5	congruent	Block2	congruent/STIM_000.jpg	100
1739.244	0.858	857.8	congruent	Block2	congruent/STIM_000.jpg	99
1743.776	0.731	731.4	congruent	Block2	congruent/STIM_000.jpg	100
1746.673	0.549	548.6	congruent	Block2	congruent/STIM_000.jpg	99
1750.309	0.738	738.3	congruent	Block2	congruent/STIM_000.jpg	100
1754.804	0.58	580.1	congruent	Block2	congruent/STIM_001.jpg	99
1759.335	0.685	685.1	congruent	Block2	congruent/STIM_001.jpg	100
1764.029	0.691	691.0	congruent	Block2	congruent/STIM_001.jpg	99
1767.503	0.766	766.3	congruent	Block2	congruent/STIM_001.jpg	99
1770.618	0.66	659.7	congruent	Block2	congruent/STIM_001.jpg	100
1774.713	0.661	660.7	congruent	Block2	congruent/STIM_002.jpg	99
1778.257	0.561	560.9	congruent	Block2	congruent/STIM_002.jpg	100
1782.505	0.83	830.4	congruent	Block2	congruent/STIM_002.jpg	100
1785.567	0.7	700.4	congruent	Block2	congruent/STIM_002.jpg	99
1789.97	0.785	785.1	congruent	Block2	congruent/STIM_002.jpg	99
1794.759	0.873	873.1	congruent	Block2	congruent/STIM_003.jpg	99
1799.595	0.864	864.1	congruent	Block2	congruent/STIM_003.jpg	99
1804.297	0.856	856.4	congruent	Block2	congruent/STIM_003.jpg	99
1808.0	0.819	818.9	congruent	Block2	congruent/STIM_003.jpg	100
1812.754	0.777	777.4	congruent	Block2	congruent/STIM_003.jpg	99
1816.24	0.56	559.6	congruent	Block2	congruent/STIM_004.jpg	99
1819.349	0.769	769.2	congruent	Block2	congruent/STIM_004.jpg	99
1823.933	0.5	500.1	congruent	Block2	congruent/STIM_004.jpg	99
1827.489	0.784	783.5	congruent	Block2	congruent/STIM_004.jpg	99
1830.619	0.613	612.9	congruent	Block2	congruent/STIM_004.jpg	99
1834.687	0.84	840.0	congruent	Block2	congruent/STIM_005.jpg	100
1838.184	0.486	486.1	congruent	Block2	congruent/STIM_005.jpg	99
1842.318	0.675	675.3	congruent	Block2	congruent/STIM_005.jpg	100
1845.519	0.528	527.5	congruent	Block2	congruent/STIM_005.jpg	99
1849.625	0.512	512.4	congruent	Block2	congruent/STIM_005.jpg	99
1853.473	0.559	558.7	congruent	Block2	congruent/STIM_006.jpg	100
1857.751	0.844	844.3	congruent	Block2	congruent/STIM_006.jpg	99
1862.276	0.745	745.1	congruent	Block2	congruent/STIM_006.jpg	99
1866.0	0.596	595.6	congruent	Block2	congruent/STIM_006.jpg	99
1870.148	0.585	585.0	congruent	Block2	congruent/STIM_006.jpg	100
1874.263	0.76	759.7	congruent	Block2	congruent/STIM_007.jpg	100
1877.517	0.662	661.8	congruent	Block2	congruent/STIM_007.jpg	99
1880.887	0.518	518.0	congruent	Block2	congruent/STIM_007.jpg	100
1884.288	0.758	758.1	congruent	Block2	congruent/STIM_007.jpg	100
1887.198	0.558	558.1	congruent	Block2	congruent/STIM_007.jpg	100
1891.046	0.508	508.4	congruent	Block2	congruent/STIM_008.jpg	100
1894.307	0.87	870.5	congruent	Block2	congruent/STIM_008.jpg	99
1897.688	0.734	734.4	congruent	Block2	congruent/STIM_008.jpg	99
1901.171	0.537	536.8	congruent	Block2	congruent/STIM_008.jpg	100
1905.344	0.639	638.7	congruent	Block2	congruent/STIM_008.jpg	99
1909.584	0.818	818.4	congruent	Block2	congruent/STIM_009.jpg	100
1912.907	0.837	836.6	congruent	Block2	congruent/STIM_009.jpg	100
1917.218	0.795	795.4	congruent	Block2	congruent/STIM_009.jpg	100
1920.805	0.712	711.6	congruent	Block2	congruent/STIM_009.jpg	99
1925.395	0.722	722.3	congruent	Block2	congruent/STIM_009.jpg	100
1929.171	0.676	675.6	congruent	Block2	congruent/STIM_010.jpg	100
1933.672	0.695	695.4	congruent	Block2	congruent/STIM_010.jpg	100
1937.061	0.569	568.8	congruent	Block2	congruent/STIM_010.jpg	99
1940.424	0.532	531.7	congruent	Block2	congruent/STIM_010.jpg	99
1944.099	0.769	768.8	congruent	Block2	congruent/STIM_010.jpg	99
1947.538	0.622	621.5	congruent	Block2	congruent/STIM_011.jpg	99
1951.31	0.79	790.2	congruent	Block2	congruent/STIM_011.jpg	99
1954.658	0.57	570.2	congruent	Block2	congruent/STIM_011.jpg	99
1958.414	0.826	826.2	congruent	Block2	congruent/STIM_011.jpg	100
1962.88	0.728	727.6	congruent	Block2	congruent/STIM_011.jpg	100
1967.116	0.767	766.6	congruent	Block2	congruent/STIM_012.jpg	99
1971.822	0.741	740.7	congruent	Block2	congruent/STIM_012.jpg	100
1975.059	0.812	811.8	congruent	Block2	congruent/STIM_012.jpg	99
1979.78	0.861	861.2	congruent	Block2	congruent/STIM_012.jpg	99
1982.811	0.634	634.5	congruent	Block2	congruent/STIM_012.jpg	100
1987.171	0.698	698.0	congruent	Block2	congruent/STIM_013.jpg	99
1990.089	0.636	635.5	congruent	Block2	congruent/STIM_013.jpg	100
1993.167	0.73	729.8	congruent	Block2	congruent/STIM_013.jpg	99
1996.247	0.793	792.6	congruent	Block2	congruent/STIM_013.jpg	100
2000.52	0.57	569.6	congruent	Block2	congruent/STIM_013.jpg	100
2004.209	0.508	508.1	congruent	Block2	congruent/STIM_014.jpg	100
2008.351	0.792	792.5	congruent	Block2	congruent/STIM_014.jpg	99
2011.41	0.773	773.0	congruent	Block2	congruent/STIM_014.jpg	99
2014.554	0.668	668.5	congruent	Block2	congruent/STIM_014.jpg	100
2019.114	0.849	848.7	congruent	Block2	congruent/STIM_014.jpg	100
2023.378	0.62	620.1	congruent	Block2	congruent/STIM_015.jpg	99
2026.37	0.594	593.6	congruent	Block2	congruent/STIM_015.jpg	100
2029.321	0.791	790.7	congruent	Block2	congruent/STIM_015.jpg	100
2032.209	0.668	668.4	congruent	Block2	congruent/STIM_015.jpg	99
2035.787	0.659	659.3	congruent	Block2	congruent/STIM_015.jpg	99
2040.175	0.585	585.4	congruent	Block2	congruent/STIM_016.jpg	100
2044.411	0.691	691.0	congruent	Block2	congruent/STIM_016.jpg	100
2047.585	0.775	775.4	congruent	Block2	congruent/STIM_016.jpg	100
2051.293	0.734	733.9	congruent	Block2	congruent/STIM_016.jpg	100
2055.338	0.562	562.4	congruent	Block2	congruent/STIM_016.jpg	99
2058.872	0.611	611.3	congruent	Block2	congruent/STIM_017.jpg	100
2063.284	0.748	747.8	congruent	Block2	congruent/STIM_017.jpg	100
2066.287	0.63	630.5	congruent	Block2	congruent/STIM_017.jpg	100
2069.356	0.72	719.8	congruent	Block2	congruent/STIM_017.jpg	99
2072.169	0.68	680.4	congruent	Block2	congruent/STIM_017.jpg	100
2075.218	0.512	512.2	congruent	Block2	congruent/STIM_018.jpg	99
2078.231	0.704	704.1	congruent	Block2	congruent/STIM_018.jpg	100
2081.605	0.84	839.7	congruent	Block2	congruent/STIM_018.jpg	100
2086.039	0.579	579.3	congruent	Block2	congruent/STIM_018.jpg	100
2089.645	0.708	707.6	congruent	Block2	congruent/STIM_018.jpg	100
2093.712	0.58	579.9	congruent	Block2	congruent/STIM_019.jpg	99
2098.266	0.848	848.3	congruent	Block2	congruent/STIM_019.jpg	99
2103.043	0.787	787.4	congruent	Block2	congruent/STIM_019.jpg	99
2107.044	0.737	736.9	congruent	Block2	congruent/STIM_019.jpg	100
2111.596	0.815	815.2	congruent	Block2	congruent/STIM_019.jpg	99
2115.848	0.768	768.2	congruent	Block2	congruent/STIM_020.jpg	100
2120.559	0.612	612.3	congruent	Block2	congruent/STIM_020.jpg	100
2124.317	0.49	490.3	congruent	Block2	congruent/STIM_020.jpg	100
2128.63	0.763	762.7	congruent	Block2	congruent/STIM_020.jpg	100
2133.407	0.534	533.7	congruent	Block2	congruent/STIM_020.jpg	99
2137.192	0.644	643.9	congruent	Block2	congruent/STIM_021.jpg	100
2141.218	0.848	848.0	congruent	Block2	congruent/STIM_021.jpg	100
2144.707	0.612	612.2	congruent	Block2	congruent/STIM_021.jpg	100
2147.89	0.584	583.6	congruent	Block2	congruent/STIM_021.jpg	99
2152.297	0.863	862.7	congruent	Block2	congruent/STIM_021.jpg	99
2156.337	0.609	608.6	congruent	Block2	congruent/STIM_022.jpg	99
2159.502	0.581	580.7	congruent	Block2	congruent/STIM_022.jpg	100
2162.841	0.582	581.6	congruent	Block2	congruent/STIM_022.jpg	100
2166.293	0.826	825.7	congruent	Block2	congruent/STIM_022.jpg	100
2169.335	0.584	583.7	congruent	Block2	congruent/STIM_022.jpg	100
2173.058	0.851	850.8	congruent	Block2	congruent/STIM_023.jpg	99
2176.205	0.615	614.9	congruent	Block2	congruent/STIM_023.jpg	100
2179.381	0.684	683.7	congruent	Block2	congruent/STIM_023.jpg	99
2182.608	0.832	832.2	congruent	Block2	congruent/STIM_023.jpg	100
2187.179	0.773	773.0	congruent	Block2	congruent/STIM_023.jpg	100
2190.551	0.743	742.9	congruent	Block2	congruent/STIM_024.jpg	99
2194.817	0.851	851.3	congruent	Block2	congruent/STIM_024.jpg	99
2197.935	0.827	827.2	congruent	Block2	congruent/STIM_024.jpg	99
2201.477	0.746	746.0	congruent	Block2	congruent/STIM_024.jpg	99
2205.466	0.563	563.1	congruent	Block2	congruent/STIM_024.jpg	100
2209.202	0.678	678.2	congruent	Block2	congruent/STIM_025.jpg	100
2212.371	0.845	845.0	congruent	Block2	congruent/STIM_025.jpg	99
2216.104	0.56	560.4	congruent	Block2	congruent/STIM_025.jpg	99
2219.168	0.659	658.8	congruent	Block2	congruent/STIM_025.jpg	100
2222.931	0.755	755.4	congruent	Block2	congruent/STIM_025.jpg	99
2227.694	0.621	620.8	congruent	Block2	congruent/STIM_026.jpg	100
2231.465	0.726	725.7	congruent	Block2	congruent/STIM_026.jpg	99
2235.915	0.675	674.7	congruent	Block2	congruent/STIM_026.jpg	99
2238.912	0.5	499.6	congruent	Block2	congruent/STIM_026.jpg	100
2242.398	0.845	845.0	congruent	Block2	congruent/STIM_026.jpg	100
2245.389	0.694	693.8	congruent	Block2	congruent/STIM_027.jpg	99
2249.588	0.568	567.8	congruent	Block2	congruent/STIM_027.jpg	100
2252.629	0.621	620.6	congruent	Block2	congruent/STIM_027.jpg	99
2256.81	0.74	740.1	congruent	Block2	congruent/STIM_027.jpg	99
2260.746	0.703	702.6	congruent	Block2	congruent/STIM_027.jpg	100
2263.992	0.616	616.4	congruent	Block2	congruent/STIM_028.jpg	99
2268.395	0.512	512.5	congruent	Block2	congruent/STIM_028.jpg	100
2271.333	0.496	495.9	congruent	Block2	congruent/STIM_028.jpg	99
2274.907	0.607	606.7	congruent	Block2	congruent/STIM_028.jpg	100
2278.741	0.64	639.9	congruent	Block2	congruent/STIM_028.jpg	100
2282.169	0.8	799.6	congruent	Block2	congruent/STIM_029.jpg	99
2286.709	0.832	832.4	congruent	Block2	congruent/STIM_029.jpg	99
2290.775	0.847	847.3	congruent	Block2	congruent/STIM_029.jpg	100
2294.016	0.62	620.5	congruent	Block2	congruent/STIM_029.jpg	100
2298.475	0.52	520.2	congruent	Block2	congruent/STIM_029.jpg	99
2302.192	0.976	976.0	incongruent	Block3	incongruent/STIM_000.jpg	100
2306.899	0.656	656.0	incongruent	Block3	incongruent/STIM_000.jpg	100
2310.711	0.728	728.2	incongruent	Block3	incongruent/STIM_000.jpg	99
2315.096	0.95	950.0	incongruent	Block3	incongruent/STIM_000.jpg	99
2320.031	0.477	477.1	incongruent	Block3	incongruent/STIM_000.jpg	99
2323.214	0.791	790.9	incongruent	Block3	incongruent/STIM_001.jpg	99
2327.413	0.756	755.7	incongruent	Block3	incongruent/STIM_001.jpg	100
2331.8	0.963	963.2	incongruent	Block3	incongruent/STIM_001.jpg	99
2335.667	0.904	903.7	incongruent	Block3	incongruent/STIM_001.jpg	100
2339.635	0.612	612.1	incongruent	Block3	incongruent/STIM_001.jpg	99
2342.958	0.508	508.1	incongruent	Block3	incongruent/STIM_002.jpg	99
2346.641	0.898	898.1	incongruent	Block3	incongruent/STIM_002.jpg	100
2350.736	0.927	926.6	incongruent	Block3	incongruent/STIM_002.jpg	99
2354.668	0.632	632.5	incongruent	Block3	incongruent/STIM_002.jpg	100
2359.212	0.657	657.0	incongruent	Block3	incongruent/STIM_002.jpg	100
2363.329	0.482	482.5	incongruent	Block3	incongruent/STIM_003.jpg	99
2367.636	0.882	882.5	incongruent	Block3	incongruent/STIM_003.jpg	100
2371.838	0.66	660.2	incongruent	Block3	incongruent/STIM_003.jpg	100
2375.974	0.516	515.5	incongruent	Block3	incongruent/STIM_003.jpg	99
2378.759	0.747	747.1	incongruent	Block3	incongruent/STIM_003.jpg	100
2382.834	0.765	765.1	incongruent	Block3	incongruent/STIM_004.jpg	100
2387.121	0.72	720.1	incongruent	Block3	incongruent/STIM_004.jpg	100
2390.103	0.714	713.6	incongruent	Block3	incongruent/STIM_004.jpg	100
2394.332	0.726	725.9	incongruent	Block3	incongruent/STIM_004.jpg	100
2398.2	0.859	859.3	incongruent	Block3	incongruent/STIM_004.jpg	100
2402.311	0.799	798.6	incongruent	Block3	incongruent/STIM_005.jpg	100
2405.741	0.929	929.2	incongruent	Block3	incongruent/STIM_005.jpg	99
2409.961	0.721	720.7	incongruent	Block3	incongruent/STIM_005.jpg	100
2414.379	0.798	798.1	incongruent	Block3	incongruent/STIM_005.jpg	100
2417.743	0.792	792.4	incongruent	Block3	incongruent/STIM_005.jpg	100
2421.237	0.54	539.8	incongruent	Block3	incongruent/STIM_006.jpg	100
2425.097	0.796	796.0	incongruent	Block3	incongruent/STIM_006.jpg	99
2428.251	0.52	520.3	incongruent	Block3	incongruent/STIM_006.jpg	100
2431.215	0.498	498.0	incongruent	Block3	incongruent/STIM_006.jpg	100
2435.717	0.907	907.2	incongruent	Block3	incongruent/STIM_006.jpg	100
2440.511	0.737	736.9	incongruent	Block3	incongruent/STIM_007.jpg	100
2443.911	0.773	773.0	incongruent	Block3	incongruent/STIM_007.jpg	99
2447.433	0.537	536.7	incongruent	Block3	incongruent/STIM_007.jpg	100
2451.566	0.814	813.6	incongruent	Block3	incongruent/STIM_007.jpg	100
2454.409	0.939	938.9	incongruent	Block3	incongruent/STIM_007.jpg	100
2457.602	0.661	661.1	incongruent	Block3	incongruent/STIM_008.jpg	100
2461.198	0.564	564.5	incongruent	Block3	incongruent/STIM_008.jpg	99
2463.876	0.606	606.3	incongruent	Block3	incongruent/STIM_008.jpg	100
2467.977	0.763	763.0	incongruent	Block3	incongruent/STIM_008.jpg	100
2471.408	0.677	676.8	incongruent	Block3	incongruent/STIM_008.jpg	99
2474.505	0.712	711.9	incongruent	Block3	incongruent/STIM_009.jpg	99
2477.839	0.863	863.2	incongruent	Block3	incongruent/STIM_009.jpg	100
2480.96	0.894	894.1	incongruent	Block3	incongruent/STIM_009.jpg	99
2485.076	0.564	564.5	incongruent	Block3	incongruent/STIM_009.jpg	99
2488.712	0.532	531.8	incongruent	Block3	incongruent/STIM_009.jpg	99
2492.632	0.588	587.7	incongruent	Block3	incongruent/STIM_010.jpg	99
2495.546	0.702	702.4	incongruent	Block3	incongruent/STIM_010.jpg	100
2500.262	0.707	707.1	incongruent	Block3	incongruent/STIM_010.jpg	100
2504.469	0.479	479.4	incongruent	Block3	incongruent/STIM_010.jpg	100
2507.463	0.651	651.3	incongruent	Block3	incongruent/STIM_010.jpg	99
2510.838	0.704	704.4	incongruent	Block3	incongruent/STIM_011.jpg	99
2514.754	0.696	696.5	incongruent	Block3	incongruent/STIM_011.jpg	99
2519.082	0.895	895.0	incongruent	Block3	incongruent/STIM_011.jpg	99
2522.527	0.537	536.8	incongruent	Block3	incongruent/STIM_011.jpg	99
2525.222	0.746	745.8	incongruent	Block3	incongruent/STIM_011.jpg	100
2529.593	0.562	561.9	incongruent	Block3	incongruent/STIM_012.jpg	99
2533.255	0.74	739.8	incongruent	Block3	incongruent/STIM_012.jpg	100
2537.079	0.928	927.6	incongruent	Block3	incongruent/STIM_012.jpg	100
2541.272	0.635	634.6	incongruent	Block3	incongruent/STIM_012.jpg	99
2545.606	0.645	644.9	incongruent	Block3	incongruent/STIM_012.jpg	99
2549.185	0.951	950.7	incongruent	Block3	incongruent/STIM_013.jpg	99
2553.29	0.733	732.8	incongruent	Block3	incongruent/STIM_013.jpg	99
2556.881	0.85	850.5	incongruent	Block3	incongruent/STIM_013.jpg	100
2561.604	0.548	547.8	incongruent	Block3	incongruent/STIM_013.jpg	99
2564.836	0.855	855.1	incongruent	Block3	incongruent/STIM_013.jpg	100
2569.349	0.838	837.9	incongruent	Block3	incongruent/STIM_014.jpg	99
2573.189	0.975	974.8	incongruent	Block3	incongruent/STIM_014.jpg	100
2578.148	0.999	998.9	incongruent	Block3	incongruent/STIM_014.jpg	100
2582.79	0.849	848.7	incongruent	Block3	incongruent/STIM_014.jpg	99
2587.516	0.998	997.8	incongruent	Block3	incongruent/STIM_014.jpg	100
2590.704	0.782	781.9	incongruent	Block3	incongruent/STIM_015.jpg	100
2594.336	0.628	627.9	incongruent	Block3	incongruent/STIM_015.jpg	100
2597.757	0.707	707.1	incongruent	Block3	incongruent/STIM_015.jpg	99
2601.104	0.664	664.4	incongruent	Block3	incongruent/STIM_015.jpg	100
2604.764	0.774	774.0	incongruent	Block3	incongruent/STIM_015.jpg	100
2607.818	0.765	764.8	incongruent	Block3	incongruent/STIM_016.jpg	99
2611.811	0.559	558.7	incongruent	Block3	incongruent/STIM_016.jpg	100
2616.16	0.74	739.8	incongruent	Block3	incongruent/STIM_016.jpg	99
2620.764	0.578	577.5	incongruent	Block3	incongruent/STIM_016.jpg	100
2624.933	0.897	897.3	incongruent	Block3	incongruent/STIM_016.jpg	99
2629.71	0.994	993.6	incongruent	Block3	incongruent/STIM_017.jpg	100
2633.558	0.667	666.6	incongruent	Block3	incongruent/STIM_017.jpg	100
2637.984	0.753	752.6	incongruent	Block3	incongruent/STIM_017.jpg	99
2641.415	0.477	477.3	incongruent	Block3	incongruent/STIM_017.jpg	99
2645.113	0.79	789.8	incongruent	Block3	incongruent/STIM_017.jpg	99
2648.846	0.711	710.6	incongruent	Block3	incongruent/STIM_018.jpg	99
2652.63	0.493	493.0	incongruent	Block3	incongruent/STIM_018.jpg	100
2655.179	0.881	881.4	incongruent	Block3	incongruent/STIM_018.jpg	100
2658.508	0.905	905.3	incongruent	Block3	incongruent/STIM_018.jpg	99
2662.082	0.983	983.1	incongruent	Block3	incongruent/STIM_018.jpg	99
2666.211	0.712	712.1	incongruent	Block3	incongruent/STIM_019.jpg	99
2669.308	0.55	549.8	incongruent	Block3	incongruent/STIM_019.jpg	99
2673.303	0.55	550.3	incongruent	Block3	incongruent/STIM_019.jpg	100
2676.304	0.984	983.8	incongruent	Block3	incongruent/STIM_019.jpg	100
2680.982	0.94	940.0	incongruent	Block3	incongruent/STIM_019.jpg	99
2685.719	0.686	685.6	incongruent	Block3	incongruent/STIM_020.jpg	100
2689.527	0.692	692.5	incongruent	Block3	incongruent/STIM_020.jpg	99
2693.332	0.493	492.7	incongruent	Block3	incongruent/STIM_020.jpg	99
2696.811	0.954	954.5	incongruent	Block3	incongruent/STIM_020.jpg	99
2701.348	0.96	959.9	incongruent	Block3	incongruent/STIM_020.jpg	99
2706.288	0.631	630.9	incongruent	Block3	incongruent/STIM_021.jpg	99
2708.975	0.733	732.8	incongruent	Block3	incongruent/STIM_021.jpg	100
2712.746	0.719	718.9	incongruent	Block3	incongruent/STIM_021.jpg	100
2716.275	0.62	620.5	incongruent	Block3	incongruent/STIM_021.jpg	99
2719.771	0.576	575.9	incongruent	Block3	incongruent/STIM_021.jpg	100
2724.223	0.992	992.0	incongruent	Block3	incongruent/STIM_022.jpg	100
2727.813	0.777	777.3	incongruent	Block3	incongruent/STIM_022.jpg	99
2730.707	0.781	781.2	incongruent	Block3	incongruent/STIM_022.jpg	99
2734.979	0.611	610.7	incongruent	Block3	incongruent/STIM_022.jpg	99
2739.313	0.795	794.9	incongruent	Block3	incongruent/STIM_022.jpg	100
2743.224	0.675	675.3	incongruent	Block3	incongruent/STIM_023.jpg	100
2746.756	0.862	861.8	incongruent	Block3	incongruent/STIM_023.jpg	99
2751.419	0.543	542.7	incongruent	Block3	incongruent/STIM_023.jpg	100
2755.183	0.654	654.5	incongruent	Block3	incongruent/STIM_023.jpg	100
2759.299	0.705	705.2	incongruent	Block3	incongruent/STIM_023.jpg	99
2763.14	0.522	521.8	incongruent	Block3	incongruent/STIM_024.jpg	99
2767.572	0.908	907.7	incongruent	Block3	incongruent/STIM_024.jpg	99
2772.166	0.776	775.7	incongruent	Block3	incongruent/STIM_024.jpg	100
2775.595	0.845	844.9	incongruent	Block3	incongruent/STIM_024.jpg	99
2780.227	0.657	657.4	incongruent	Block3	incongruent/STIM_024.jpg	99
2783.045	0.781	781.4	incongruent	Block3	incongruent/STIM_025.jpg	99
2787.658	0.674	674.4	incongruent	Block3	incongruent/STIM_025.jpg	100
2791.214	0.888	888.0	incongruent	Block3	incongruent/STIM_025.jpg	100
2794.496	0.865	865.3	incongruent	Block3	incongruent/STIM_025.jpg	99
2798.709	0.702	701.7	incongruent	Block3	incongruent/STIM_025.jpg	99
2801.578	0.711	710.6	incongruent	Block3	incongruent/STIM_026.jpg	100
2806.014	0.617	617.2	incongruent	Block3	incongruent/STIM_026.jpg	100
2810.373	0.897	897.0	incongruent	Block3	incongruent/STIM_026.jpg	100
2813.905	0.656	656.5	incongruent	Block3	incongruent/STIM_026.jpg	100
2818.214	0.564	563.6	incongruent	Block3	incongruent/STIM_026.jpg	100
2821.629	0.927	927.4	incongruent	Block3	incongruent/STIM_027.jpg	99
2824.906	0.623	622.7	incongruent	Block3	incongruent/STIM_027.jpg	99
2829.5	0.736	735.7	incongruent	Block3	incongruent/STIM_027.jpg	99
2834.084	0.972	971.9	incongruent	Block3	incongruent/STIM_027.jpg	100
2837.956	0.64	640.3	incongruent	Block3	incongruent/STIM_027.jpg	100
2841.108	0.532	531.5	incongruent	Block3	incongruent/STIM_028.jpg	100
2844.117	0.732	731.7	incongruent	Block3	incongruent/STIM_028.jpg	99
2846.977	0.511	511.4	incongruent	Block3	incongruent/STIM_028.jpg	99
2850.838	0.853	853.4	incongruent	Block3	incongruent/STIM_028.jpg	100
2855.151	0.57	570.3	incongruent	Block3	incongruent/STIM_028.jpg	99
2859.39	0.902	902.4	incongruent	Block3	incongruent/STIM_029.jpg	100
2863.85	0.972	971.7	incongruent	Block3	incongruent/STIM_029.jpg	100
2867.047	0.574	573.5	incongruent	Block3	incongruent/STIM_029.jpg	100
2870.851	0.829	828.7	incongruent	Block3	incongruent/STIM_029.jpg	99
2873.982	0.86	860.4	incongruent	Block3	incongruent/STIM_029.jpg	99
2877.757	0.586	586.5	congruent	Block3	congruent/STIM_000.jpg	99
2881.7	0.615	614.7	congruent	Block3	congruent/STIM_000.jpg	100
2886.175	0.867	867.1	congruent	Block3	congruent/STIM_000.jpg	100
2890.345	0.728	727.8	congruent	Block3	congruent/STIM_000.jpg	99
2893.586	0.735	734.6	congruent	Block3	congruent/STIM_000.jpg	99
2898.044	0.771	771.0	congruent	Block3	congruent/STIM_001.jpg	100
2902.151	0.682	682.5	congruent	Block3	congruent/STIM_001.jpg	100
2905.27	0.614	613.6	congruent	Block3	congruent/STIM_001.jpg	99
2908.133	0.557	557.0	congruent	Block3	congruent/STIM_001.jpg	100
2912.431	0.683	682.9	congruent	Block3	congruent/STIM_001.jpg	99
2916.343	0.795	795.0	congruent	Block3	congruent/STIM_002.jpg	100
2920.906	0.671	671.4	congruent	Block3	congruent/STIM_002.jpg	100
2925.447	0.838	838.3	congruent	Block3	congruent/STIM_002.jpg	100
2929.988	0.814	814.0	congruent	Block3	congruent/STIM_002.jpg	99
2933.192	0.726	725.8	congruent	Block3	congruent/STIM_002.jpg	100
2937.698	0.595	595.0	congruent	Block3	congruent/STIM_003.jpg	100
2940.865	0.771	770.9	congruent	Block3	congruent/STIM_003.jpg	100
2944.465	0.652	651.6	congruent	Block3	congruent/STIM_003.jpg	99
2947.162	0.803	803.1	congruent	Block3	congruent/STIM_003.jpg	100
2951.057	0.54	539.5	congruent	Block3	congruent/STIM_003.jpg	100
2954.435	0.815	814.9	congruent	Block3	congruent/STIM_004.jpg	99
2957.79	0.648	647.6	congruent	Block3	congruent/STIM_004.jpg	100
2960.909	0.597	596.7	congruent	Block3	congruent/STIM_004.jpg	100
2964.029	0.639	638.9	congruent	Block3	congruent/STIM_004.jpg	99
2968.544	0.821	821.4	congruent	Block3	congruent/STIM_004.jpg	100
2973.053	0.531	531.1	congruent	Block3	congruent/STIM_005.jpg	99
2977.525	0.508	508.5	congruent	Block3	congruent/STIM_005.jpg	100
2981.359	0.833	832.9	congruent	Block3	congruent/STIM_005.jpg	99
2985.341	0.722	722.5	congruent	Block3	congruent/STIM_005.jpg	100
2989.545	0.567	567.0	congruent	Block3	congruent/STIM_005.jpg	100
2993.22	0.621	620.8	congruent	Block3	congruent/STIM_006.jpg	99
2996.456	0.756	756.4	congruent	Block3	congruent/STIM_006.jpg	100
2999.597	0.659	659.0	congruent	Block3	congruent/STIM_006.jpg	100
3004.26	0.513	513.2	congruent	Block3	congruent/STIM_006.jpg	100
3008.236	0.758	757.8	congruent	Block3	congruent/STIM_006.jpg	100
3011.842	0.678	678.3	congruent	Block3	congruent/STIM_007.jpg	100
3016.12	0.507	506.8	congruent	Block3	congruent/STIM_007.jpg	99
3019.554	0.572	572.0	congruent	Block3	congruent/STIM_007.jpg	99
3024.133	0.582	582.4	congruent	Block3	congruent/STIM_007.jpg	99
3028.626	0.536	535.5	congruent	Block3	congruent/STIM_007.jpg	100
3032.523	0.785	784.6	congruent	Block3	congruent/STIM_008.jpg	100
3035.417	0.514	514.4	congruent	Block3	congruent/STIM_008.jpg	100
3038.778	0.612	612.0	congruent	Block3	congruent/STIM_008.jpg	100
3042.226	0.665	665.1	congruent	Block3	congruent/STIM_008.jpg	100
3045.514	0.854	853.8	congruent	Block3	congruent/STIM_008.jpg	100
3049.442	0.83	829.5	congruent	Block3	congruent/STIM_009.jpg	99
3053.141	0.543	543.4	congruent	Block3	congruent/STIM_009.jpg	99
3057.107	0.705	705.0	congruent	Block3	congruent/STIM_009.jpg	100
3060.295	0.859	858.7	congruent	Block3	congruent/STIM_009.jpg	99
3065.093	0.773	772.6	congruent	Block3	congruent/STIM_009.jpg	99
3069.779	0.84	839.7	congruent	Block3	congruent/STIM_010.jpg	100
3072.758	0.527	527.2	congruent	Block3	congruent/STIM_010.jpg	100
3076.147	0.864	864.2	congruent	Block3	congruent/STIM_010.jpg	100
3080.038	0.842	841.5	congruent	Block3	congruent/STIM_010.jpg	100
3083.51	0.76	759.6	congruent	Block3	congruent/STIM_010.jpg	100
3086.775	0.488	487.5	congruent	Block3	congruent/STIM_011.jpg	100
3089.616	0.508	508.4	congruent	Block3	congruent/STIM_011.jpg	99
3093.401	0.682	682.1	congruent	Block3	congruent/STIM_011.jpg	99
3097.515	0.503	503.0	congruent	Block3	congruent/STIM_011.jpg	100
3101.877	0.685	685.4	congruent	Block3	congruent/STIM_011.jpg	100
3105.383	0.581	580.8	congruent	Block3	congruent/STIM_012.jpg	99
3109.756	0.832	831.5	congruent	Block3	congruent/STIM_012.jpg	99
3112.758	0.595	595.0	congruent	Block3	congruent/STIM_012.jpg	100
3116.105	0.682	682.2	congruent	Block3	congruent/STIM_012.jpg	100
3120.22	0.836	835.7	congruent	Block3	congruent/STIM_012.jpg	100
3124.698	0.705	705.1	congruent	Block3	congruent/STIM_013.jpg	99
3128.383	0.492	491.9	congruent	Block3	congruent/STIM_013.jpg	100
3132.422	0.843	843.0	congruent	Block3	congruent/STIM_013.jpg	100
3135.363	0.741	741.0	congruent	Block3	congruent/STIM_013.jpg	100
3139.515	0.667	666.9	congruent	Block3	congruent/STIM_013.jpg	99
3143.752	0.696	695.8	congruent	Block3	congruent/STIM_014.jpg	100
3147.324	0.65	650.5	congruent	Block3	congruent/STIM_014.jpg	100
3150.151	0.833	833.4	congruent	Block3	congruent/STIM_014.jpg	100
3154.114	0.77	770.5	congruent	Block3	congruent/STIM_014.jpg	99
3156.956	0.832	832.2	congruent	Block3	congruent/STIM_014.jpg	99
3160.364	0.537	536.9	congruent	Block3	congruent/STIM_015.jpg	99
3164.251	0.862	861.6	congruent	Block3	congruent/STIM_015.jpg	99
3168.632	0.865	865.1	congruent	Block3	congruent/STIM_015.jpg	100
3172.381	0.572	572.4	congruent	Block3	congruent/STIM_015.jpg	99
3176.716	0.634	633.9	congruent	Block3	congruent/STIM_015.jpg	100
3181.347	0.589	589.0	congruent	Block3	congruent/STIM_016.jpg	99
3185.035	0.833	832.7	congruent	Block3	congruent/STIM_016.jpg	100
3189.137	0.574	574.0	congruent	Block3	congruent/STIM_016.jpg	99
3193.71	0.698	698.1	congruent	Block3	congruent/STIM_016.jpg	100
3197.543	0.51	510.1	congruent	Block3	congruent/STIM_016.jpg	99
3201.406	0.547	547.3	congruent	Block3	congruent/STIM_017.jpg	100
3204.837	0.577	577.0	congruent	Block3	congruent/STIM_017.jpg	100
3209.041	0.745	745.4	congruent	Block3	congruent/STIM_017.jpg	99
3213.55	0.626	625.9	congruent	Block3	congruent/STIM_017.jpg	100
3217.674	0.553	553.2	congruent	Block3	congruent/STIM_017.jpg	99
3220.518	0.597	597.2	congruent	Block3	congruent/STIM_018.jpg	99
3223.238	0.824	823.9	congruent	Block3	congruent/STIM_018.jpg	99
3228.033	0.757	757.4	congruent	Block3	congruent/STIM_018.jpg	99
3231.835	0.678	678.5	congruent	Block3	congruent/STIM_018.jpg	99
3236.161	0.623	622.6	congruent	Block3	congruent/STIM_018.jpg	100
3239.327	0.576	575.5	congruent	Block3	congruent/STIM_019.jpg	99
3243.363	0.647	646.9	congruent	Block3	congruent/STIM_019.jpg	100
3246.456	0.853	852.9	congruent	Block3	congruent/STIM_019.jpg	99
3250.527	0.648	647.6	congruent	Block3	congruent/STIM_019.jpg	100
3253.455	0.662	662.4	congruent	Block3	congruent/STIM_019.jpg	99
3257.404	0.562	561.9	congruent	Block3	congruent/STIM_020.jpg	99
3261.227	0.742	741.5	congruent	Block3	congruent/STIM_020.jpg	100
3265.858	0.506	505.6	congruent	Block3	congruent/STIM_020.jpg	100
3269.818	0.851	851.1	congruent	Block3	congruent/STIM_020.jpg	99
3272.969	0.873	872.6	congruent	Block3	congruent/STIM_020.jpg	100
3276.203	0.535	535.2	congruent	Block3	congruent/STIM_021.jpg	100
3279.081	0.535	534.7	congruent	Block3	congruent/STIM_021.jpg	100
3283.056	0.704	704.4	congruent	Block3	congruent/STIM_021.jpg	99
3287.241	0.727	727.4	congruent	Block3	congruent/STIM_021.jpg	99
3291.874	0.833	832.8	congruent	Block3	congruent/STIM_021.jpg	100
3296.081	0.487	487.0	congruent	Block3	congruent/STIM_022.jpg	99
3299.542	0.74	739.9	congruent	Block3	congruent/STIM_022.jpg	99
3303.889	0.653	653.0	congruent	Block3	congruent/STIM_022.jpg	99
3306.63	0.72	719.5	congruent	Block3	congruent/STIM_022.jpg	100
3310.186	0.508	508.5	congruent	Block3	congruent/STIM_022.jpg	99
3313.438	0.498	497.7	congruent	Block3	congruent/STIM_023.jpg	100
3317.615	0.648	648.4	congruent	Block3	congruent/STIM_023.jpg	99
3321.517	0.544	543.7	congruent	Block3	congruent/STIM_023.jpg	99
3324.59	0.557	557.4	congruent	Block3	congruent/STIM_023.jpg	99
3328.288	0.659	658.9	congruent	Block3	congruent/STIM_023.jpg	100
3331.235	0.707	707.4	congruent	Block3	congruent/STIM_024.jpg	99
3334.372	0.813	812.9	congruent	Block3	congruent/STIM_024.jpg	100
3337.387	0.812	812.4	congruent	Block3	congruent/STIM_024.jpg	100
3340.763	0.729	728.8	congruent	Block3	congruent/STIM_024.jpg	99
3343.726	0.544	544.2	congruent	Block3	congruent/STIM_024.jpg	99
3348.014	0.564	564.0	congruent	Block3	congruent/STIM_025.jpg	99
3351.816	0.578	577.5	congruent	Block3	congruent/STIM_025.jpg	100
3356.322	0.59	589.7	congruent	Block3	congruent/STIM_025.jpg	99
3359.577	0.713	713.3	congruent	Block3	congruent/STIM_025.jpg	100
3362.662	0.762	761.5	congruent	Block3	congruent/STIM_025.jpg	100
3366.708	0.706	705.9	congruent	Block3	congruent/STIM_026.jpg	99
3370.673	0.784	784.4	congruent	Block3	congruent/STIM_026.jpg	99
3373.902	0.756	755.9	congruent	Block3	congruent/STIM_026.jpg	99
3377.487	0.736	736.0	congruent	Block3	congruent/STIM_026.jpg	100
3382.089	0.572	572.2	congruent	Block3	congruent/STIM_026.jpg	99
3386.581	0.66	659.8	congruent	Block3	congruent/STIM_027.jpg	99
3390.712	0.642	642.1	congruent	Block3	congruent/STIM_027.jpg	99
3394.45	0.662	662.4	congruent	Block3	congruent/STIM_027.jpg	99
3397.79	0.504	504.2	congruent	Block3	congruent/STIM_027.jpg	99
3401.792	0.712	711.6	congruent	Block3	congruent/STIM_027.jpg	99
3404.626	0.787	786.8	congruent	Block3	congruent/STIM_028.jpg	99
3409.311	0.65	649.8	congruent	Block3	congruent/STIM_028.jpg	99
3411.986	0.516	516.2	congruent	Block3	congruent/STIM_028.jpg	99
3416.247	0.745	744.6	congruent	Block3	congruent/STIM_028.jpg	100
3421.006	0.635	634.9	congruent	Block3	congruent/STIM_028.jpg	99
3424.438	0.651	651.3	congruent	Block3	congruent/STIM_029.jpg	100
3427.623	0.578	578.2	congruent	Block3	congruent/STIM_029.jpg	100
3431.979	0.862	862.4	congruent	Block3	congruent/STIM_029.jpg	99
3436.6	0.66	660.3	congruent	Block3	congruent/STIM_029.jpg	100
3439.603	0.685	685.4	congruent	Block3	congruent/STIM_029.jpg	99
