onset	duration	accuracy_binary	trial_type	learning_stage	stimulus
0.0	1.086	0	incongruent	Block1	incongruent/STIM_000.jpg
4.927	0.687	1	incongruent	Block1	incongruent/STIM_000.jpg
9.42	0.887	1	incongruent	Block1	incongruent/STIM_000.jpg
13.571	0.9	1	incongruent	Block1	incongruent/STIM_000.jpg
17.404	0.57	1	incongruent	Block1	incongruent/STIM_000.jpg
20.726	1.385	1	incongruent	Block1	incongruent/STIM_001.jpg
24.903	1.022	1	incongruent	Block1	incongruent/STIM_001.jpg
29.059	0.987	1	incongruent	Block1	incongruent/STIM_001.jpg
33.022	0.967	0	incongruent	Block1	incongruent/STIM_001.jpg
36.807	0.671	1	incongruent	Block1	incongruent/STIM_001.jpg
40.553	1.244	1	incongruent	Block1	incongruent/STIM_002.jpg
44.57	0.875	1	incongruent	Block1	incongruent/STIM_002.jpg
48.099	1.006	1	incongruent	Block1	incongruent/STIM_002.jpg
52.564	0.706	1	incongruent	Block1	incongruent/STIM_002.jpg
56.342	0.678	1	incongruent	Block1	incongruent/STIM_002.jpg
60.224	0.799	1	incongruent	Block1	incongruent/STIM_003.jpg
64.89	1.028	1	incongruent	Block1	incongruent/STIM_003.jpg
69.391	0.776	1	incongruent	Block1	incongruent/STIM_003.jpg
72.758	1.143	0	incongruent	Block1	incongruent/STIM_003.jpg
77.323	0.586	1	incongruent	Block1	incongruent/STIM_003.jpg
81.077	1.316	1	incongruent	Block1	incongruent/STIM_004.jpg
86.122	0.992	1	incongruent	Block1	incongruent/STIM_004.jpg
90.818	0.734	1	incongruent	Block1	incongruent/STIM_004.jpg
94.931	0.953	1	incongruent	Block1	incongruent/STIM_004.jpg
99.614	1.034	1	incongruent	Block1	incongruent/STIM_004.jpg
103.319	1.115	1	incongruent	Block1	incongruent/STIM_005.jpg
106.91	0.955	1	incongruent	Block1	incongruent/STIM_005.jpg
111.287	0.669	1	incongruent	Block1	incongruent/STIM_005.jpg
115.886	0.795	1	incongruent	Block1	incongruent/STIM_005.jpg
118.795	1.138	1	incongruent	Block1	incongruent/STIM_005.jpg
123.681	0.862	1	incongruent	Block1	incongruent/STIM_006.jpg
126.573	1.215	1	incongruent	Block1	incongruent/STIM_006.jpg
130.327	1.271	1	incongruent	Block1	incongruent/STIM_006.jpg
134.93	1.111	1	incongruent	Block1	incongruent/STIM_006.jpg
139.09	0.842	1	incongruent	Block1	incongruent/STIM_006.jpg
143.842	0.722	1	incongruent	Block1	incongruent/STIM_007.jpg
148.502	0.773	1	incongruent	Block1	incongruent/STIM_007.jpg
152.081	1.118	1	incongruent	Block1	incongruent/STIM_007.jpg
156.49	1.032	1	incongruent	Block1	incongruent/STIM_007.jpg
161.162	0.638	1	incongruent	Block1	incongruent/STIM_007.jpg
164.426	0.961	1	incongruent	Block1	incongruent/STIM_008.jpg
168.839	1.365	0	incongruent	Block1	incongruent/STIM_008.jpg
172.814	1.04	1	incongruent	Block1	incongruent/STIM_008.jpg
177.061	0.851	1	incongruent	Block1	incongruent/STIM_008.jpg
180.771	0.986	1	incongruent	Block1	incongruent/STIM_008.jpg
184.065	0.79	1	incongruent	Block1	incongruent/STIM_009.jpg
188.324	1.274	1	incongruent	Block1	incongruent/STIM_009.jpg
192.889	1.132	1	incongruent	Block1	incongruent/STIM_009.jpg
196.529	0.646	1	incongruent	Block1	incongruent/STIM_009.jpg
200.912	0.628	1	incongruent	Block1	incongruent/STIM_009.jpg
205.067	0.75	1	incongruent	Block1	incongruent/STIM_010.jpg
209.584	0.719	1	incongruent	Block1	incongruent/STIM_010.jpg
212.721	1.094	0	incongruent	Block1	incongruent/STIM_010.jpg
216.27	0.971	0	incongruent	Block1	incongruent/STIM_010.jpg
219.377	1.003	1	incongruent	Block1	incongruent/STIM_010.jpg
222.789	1.078	0	incongruent	Block1	incongruent/STIM_011.jpg
225.94	0.91	1	incongruent	Block1	incongruent/STIM_011.jpg
230.703	1.072	0	incongruent	Block1	incongruent/STIM_011.jpg
235.222	0.666	1	incongruent	Block1	incongruent/STIM_011.jpg
237.944	1.07	1	incongruent	Block1	incongruent/STIM_011.jpg
241.489	0.686	1	incongruent	Block1	incongruent/STIM_012.jpg
244.331	0.916	1	incongruent	Block1	incongruent/STIM_012.jpg
249.179	0.615	1	incongruent	Block1	incongruent/STIM_012.jpg
252.878	1.076	1	incongruent	Block1	incongruent/STIM_012.jpg
256.709	1.155	0	incongruent	Block1	incongruent/STIM_012.jpg
260.625	1.296	1	incongruent	Block1	incongruent/STIM_013.jpg
265.358	0.868	0	incongruent	Block1	incongruent/STIM_013.jpg
270.04	1.217	0	incongruent	Block1	incongruent/STIM_013.jpg
273.948	0.702	1	incongruent	Block1	incongruent/STIM_013.jpg
278.486	0.854	1	incongruent	Block1	incongruent/STIM_013.jpg
282.056	0.729	1	incongruent	Block1	incongruent/STIM_014.jpg
286.787	1.086	1	incongruent	Block1	incongruent/STIM_014.jpg
291.585	0.871	1	incongruent	Block1	incongruent/STIM_014.jpg
295.424	0.837	0	incongruent	Block1	incongruent/STIM_014.jpg
299.902	0.771	1	incongruent	Block1	incongruent/STIM_014.jpg
303.963	0.741	1	incongruent	Block1	incongruent/STIM_015.jpg
308.608	0.674	1	incongruent	Block1	incongruent/STIM_015.jpg
311.663	1.024	1	incongruent	Block1	incongruent/STIM_015.jpg
316.115	0.615	1	incongruent	Block1	incongruent/STIM_015.jpg
319.787	1.138	1	incongruent	Block1	incongruent/STIM_015.jpg
323.351	0.796	1	incongruent	Block1	incongruent/STIM_016.jpg
328.014	1.172	1	incongruent	Block1	incongruent/STIM_016.jpg
332.12	1.006	1	incongruent	Block1	incongruent/STIM_016.jpg
336.082	0.94	1	incongruent	Block1	incongruent/STIM_016.jpg
340.923	0.894	1	incongruent	Block1	incongruent/STIM_016.jpg
344.952	1.203	1	incongruent	Block1	incongruent/STIM_017.jpg
349.269	1.198	0	incongruent	Block1	incongruent/STIM_017.jpg
354.386	0.787	1	incongruent	Block1	incongruent/STIM_017.jpg
358.338	0.898	1	incongruent	Block1	incongruent/STIM_017.jpg
361.266	0.766	1	incongruent	Block1	incongruent/STIM_017.jpg
365.363	1.225	1	incongruent	Block1	incongruent/STIM_018.jpg
368.741	0.751	1	incongruent	Block1	incongruent/STIM_018.jpg
373.053	1.18	1	incongruent	Block1	incongruent/STIM_018.jpg
376.585	0.889	1	incongruent	Block1	incongruent/STIM_018.jpg
379.946	0.595	1	incongruent	Block1	incongruent/STIM_018.jpg
383.54	1.262	1	incongruent	Block1	incongruent/STIM_019.jpg
388.252	1.224	1	incongruent	Block1	incongruent/STIM_019.jpg
391.938	0.752	1	incongruent	Block1	incongruent/STIM_019.jpg
395.955	1.136	1	incongruent	Block1	incongruent/STIM_019.jpg
399.88	0.568	1	incongruent	Block1	incongruent/STIM_019.jpg
402.644	1.028	1	incongruent	Block1	incongruent/STIM_020.jpg
406.128	0.995	1	incongruent	Block1	incongruent/STIM_020.jpg
410.165	1.306	1	incongruent	Block1	incongruent/STIM_020.jpg
414.314	1.228	1	incongruent	Block1	incongruent/STIM_020.jpg
418.522	0.812	1	incongruent	Block1	incongruent/STIM_020.jpg
423.275	1.047	1	incongruent	Block1	incongruent/STIM_021.jpg
427.168	1.162	1	incongruent	Block1	incongruent/STIM_021.jpg
432.306	0.891	0	incongruent	Block1	incongruent/STIM_021.jpg
436.14	1.121	1	incongruent	Block1	incongruent/STIM_021.jpg
440.526	0.751	1	incongruent	Block1	incongruent/STIM_021.jpg
444.789	0.904	1	incongruent	Block1	incongruent/STIM_022.jpg
448.582	1.077	1	incongruent	Block1	incongruent/STIM_022.jpg
453.353	1.04	1	incongruent	Block1	incongruent/STIM_022.jpg
457.193	1.116	1	incongruent	Block1	incongruent/STIM_022.jpg
462.291	0.706	1	incongruent	Block1	incongruent/STIM_022.jpg
465.877	0.892	1	incongruent	Block1	incongruent/STIM_023.jpg
469.664	0.995	0	incongruent	Block1	incongruent/STIM_023.jpg
474.209	0.826	1	incongruent	Block1	incongruent/STIM_023.jpg
478.572	0.954	1	incongruent	Block1	incongruent/STIM_023.jpg
483.037	0.657	1	incongruent	Block1	incongruent/STIM_023.jpg
487.553	0.872	1	incongruent	Block1	incongruent/STIM_024.jpg
491.022	1.197	0	incongruent	Block1	incongruent/STIM_024.jpg
495.524	0.722	1	incongruent	Block1	incongruent/STIM_024.jpg
499.308	0.849	1	incongruent	Block1	incongruent/STIM_024.jpg
502.99	0.772	1	incongruent	Block1	incongruent/STIM_024.jpg
505.972	0.964	1	incongruent	Block1	incongruent/STIM_025.jpg
510.552	1.204	1	incongruent	Block1	incongruent/STIM_025.jpg
514.33	0.926	1	incongruent	Block1	incongruent/STIM_025.jpg
518.375	0.594	1	incongruent	Block1	incongruent/STIM_025.jpg
522.845	0.892	1	incongruent	Block1	incongruent/STIM_025.jpg
526.255	0.883	1	incongruent	Block1	incongruent/STIM_026.jpg
530.721	0.863	1	incongruent	Block1	incongruent/STIM_026.jpg
533.947	1.017	1	incongruent	Block1	incongruent/STIM_026.jpg
538.832	1.018	1	incongruent	Block1	incongruent/STIM_026.jpg
542.919	1.015	1	incongruent	Block1	incongruent/STIM_026.jpg
547.761	1.337	1	incongruent	Block1	incongruent/STIM_027.jpg
552.952	1.288	1	incongruent	Block1	incongruent/STIM_027.jpg
557.872	1.058	1	incongruent	Block1	incongruent/STIM_027.jpg
561.803	0.936	1	incongruent	Block1	incongruent/STIM_027.jpg
565.189	0.914	1	incongruent	Block1	incongruent/STIM_027.jpg
568.794	0.693	1	incongruent	Block1	incongruent/STIM_028.jpg
571.915	1.125	1	incongruent	Block1	incongruent/STIM_028.jpg
576.166	0.962	1	incongruent	Block1	incongruent/STIM_028.jpg
581.116	1.221	1	incongruent	Block1	incongruent/STIM_028.jpg
584.762	1.143	1	incongruent	Block1	incongruent/STIM_028.jpg
588.77	1.241	1	incongruent	Block1	incongruent/STIM_029.jpg
592.181	0.808	1	incongruent	Block1	incongruent/STIM_029.jpg
596.836	0.847	1	incongruent	Block1	incongruent/STIM_029.jpg
601.434	1.204	1	incongruent	Block1	incongruent/STIM_029.jpg
604.738	0.653	1	incongruent	Block1	incongruent/STIM_029.jpg
608.572	0.832	1	congruent	Block1	congruent/STIM_000.jpg
613.255	0.789	1	congruent	Block1	congruent/STIM_000.jpg
616.195	0.579	1	congruent	Block1	congruent/STIM_000.jpg
619.329	0.508	1	congruent	Block1	congruent/STIM_000.jpg
623.414	0.862	1	congruent	Block1	congruent/STIM_000.jpg
627.329	0.499	1	congruent	Block1	congruent/STIM_001.jpg
630.388	0.635	1	congruent	Block1	congruent/STIM_001.jpg
634.69	0.706	1	congruent	Block1	congruent/STIM_001.jpg
637.559	0.804	0	congruent	Block1	congruent/STIM_001.jpg
641.263	0.67	1	congruent	Block1	congruent/STIM_001.jpg
645.671	0.812	1	congruent	Block1	congruent/STIM_002.jpg
649.985	0.645	1	congruent	Block1	congruent/STIM_002.jpg
654.631	0.76	1	congruent	Block1	congruent/STIM_002.jpg
658.869	0.558	1	congruent	Block1	congruent/STIM_002.jpg
662.118	0.865	1	congruent	Block1	congruent/STIM_002.jpg
666.742	0.797	1	congruent	Block1	congruent/STIM_003.jpg
670.082	0.708	1	congruent	Block1	congruent/STIM_003.jpg
674.104	0.671	1	congruent	Block1	congruent/STIM_003.jpg
678.043	0.725	1	congruent	Block1	congruent/STIM_003.jpg
681.303	0.787	1	congruent	Block1	congruent/STIM_003.jpg
685.48	0.807	1	congruent	Block1	congruent/STIM_004.jpg
688.382	0.562	1	congruent	Block1	congruent/STIM_004.jpg
691.217	0.837	1	congruent	Block1	congruent/STIM_004.jpg
694.94	0.682	1	congruent	Block1	congruent/STIM_004.jpg
699.165	0.633	1	congruent	Block1	congruent/STIM_004.jpg
702.299	0.524	1	congruent	Block1	congruent/STIM_005.jpg
705.262	0.627	1	congruent	Block1	congruent/STIM_005.jpg
709.172	0.846	1	congruent	Block1	congruent/STIM_005.jpg
713.403	0.621	1	congruent	Block1	congruent/STIM_005.jpg
716.596	0.796	1	congruent	Block1	congruent/STIM_005.jpg
720.992	0.867	1	congruent	Block1	congruent/STIM_006.jpg
724.081	0.67	1	congruent	Block1	congruent/STIM_006.jpg
726.787	0.597	1	congruent	Block1	congruent/STIM_006.jpg
729.439	0.688	1	congruent	Block1	congruent/STIM_006.jpg
732.65	0.809	1	congruent	Block1	congruent/STIM_006.jpg
737.034	0.825	1	congruent	Block1	congruent/STIM_007.jpg
740.96	0.861	1	congruent	Block1	congruent/STIM_007.jpg
745.096	0.497	1	congruent	Block1	congruent/STIM_007.jpg
748.234	0.666	1	congruent	Block1	congruent/STIM_007.jpg
752.723	0.806	1	congruent	Block1	congruent/STIM_007.jpg
757.136	0.847	1	congruent	Block1	congruent/STIM_008.jpg
760.231	0.812	1	congruent	Block1	congruent/STIM_008.jpg
763.13	0.796	1	congruent	Block1	congruent/STIM_008.jpg
767.656	0.648	1	congruent	Block1	congruent/STIM_008.jpg
772.106	0.509	1	congruent	Block1	congruent/STIM_008.jpg
774.985	0.776	1	congruent	Block1	congruent/STIM_009.jpg
779.717	0.851	1	congruent	Block1	congruent/STIM_009.jpg
784.499	0.53	1	congruent	Block1	congruent/STIM_009.jpg
787.34	0.733	1	congruent	Block1	congruent/STIM_009.jpg
792.047	0.686	1	congruent	Block1	congruent/STIM_009.jpg
795.339	0.78	0	congruent	Block1	congruent/STIM_010.jpg
798.616	0.642	1	congruent	Block1	congruent/STIM_010.jpg
802.313	0.512	1	congruent	Block1	congruent/STIM_010.jpg
805.089	0.807	1	congruent	Block1	congruent/STIM_010.jpg
809.673	0.821	1	congruent	Block1	congruent/STIM_010.jpg
813.768	0.494	1	congruent	Block1	congruent/STIM_011.jpg
817.445	0.486	1	congruent	Block1	congruent/STIM_011.jpg
820.875	0.536	1	congruent	Block1	congruent/STIM_011.jpg
824.087	0.536	1	congruent	Block1	congruent/STIM_011.jpg
828.244	0.629	1	congruent	Block1	congruent/STIM_011.jpg
831.071	0.653	0	congruent	Block1	congruent/STIM_012.jpg
834.405	0.534	1	congruent	Block1	congruent/STIM_012.jpg
837.398	0.739	1	congruent	Block1	congruent/STIM_012.jpg
840.64	0.633	1	congruent	Block1	congruent/STIM_012.jpg
845.185	0.551	1	congruent	Block1	congruent/STIM_012.jpg
848.775	0.649	1	congruent	Block1	congruent/STIM_013.jpg
851.536	0.643	1	congruent	Block1	congruent/STIM_013.jpg
855.276	0.762	1	congruent	Block1	congruent/STIM_013.jpg
858.118	0.797	1	congruent	Block1	congruent/STIM_013.jpg
862.394	0.513	1	congruent	Block1	congruent/STIM_013.jpg
866.22	0.578	1	congruent	Block1	congruent/STIM_014.jpg
869.438	0.583	1	congruent	Block1	congruent/STIM_014.jpg
872.76	0.581	1	congruent	Block1	congruent/STIM_014.jpg
875.751	0.612	1	congruent	Block1	congruent/STIM_014.jpg
879.261	0.506	1	congruent	Block1	congruent/STIM_014.jpg
883.244	0.584	1	congruent	Block1	congruent/STIM_015.jpg
886.301	0.613	1	congruent	Block1	congruent/STIM_015.jpg
890.364	0.53	1	congruent	Block1	congruent/STIM_015.jpg
894.113	0.641	1	congruent	Block1	congruent/STIM_015.jpg
897.581	0.826	1	congruent	Block1	congruent/STIM_015.jpg
901.03	0.509	1	congruent	Block1	congruent/STIM_016.jpg
904.14	0.598	1	congruent	Block1	congruent/STIM_016.jpg
907.079	0.558	1	congruent	Block1	congruent/STIM_016.jpg
910.115	0.586	1	congruent	Block1	congruent/STIM_016.jpg
913.727	0.796	1	congruent	Block1	congruent/STIM_016.jpg
918.094	0.575	1	congruent	Block1	congruent/STIM_017.jpg
921.949	0.69	0	congruent	Block1	congruent/STIM_017.jpg
925.538	0.501	1	congruent	Block1	congruent/STIM_017.jpg
929.474	0.645	1	congruent	Block1	congruent/STIM_017.jpg
932.251	0.654	1	congruent	Block1	congruent/STIM_017.jpg
935.032	0.679	1	congruent	Block1	congruent/STIM_018.jpg
939.46	0.74	1	congruent	Block1	congruent/STIM_018.jpg
942.312	0.543	1	congruent	Block1	congruent/STIM_018.jpg
945.215	0.561	1	congruent	Block1	congruent/STIM_018.jpg
949.077	0.694	1	congruent	Block1	congruent/STIM_018.jpg
952.769	0.544	1	congruent	Block1	congruent/STIM_019.jpg
956.694	0.647	1	congruent	Block1	congruent/STIM_019.jpg
960.649	0.77	1	congruent	Block1	congruent/STIM_019.jpg
964.987	0.589	1	congruent	Block1	congruent/STIM_019.jpg
969.358	0.72	1	congruent	Block1	congruent/STIM_019.jpg
972.244	0.679	1	congruent	Block1	congruent/STIM_020.jpg
975.576	0.509	1	congruent	Block1	congruent/STIM_020.jpg
978.54	0.76	1	congruent	Block1	congruent/STIM_020.jpg
982.99	0.578	1	congruent	Block1	congruent/STIM_020.jpg
986.512	0.505	1	congruent	Block1	congruent/STIM_020.jpg
989.378	0.664	1	congruent	Block1	congruent/STIM_021.jpg
992.807	0.851	1	congruent	Block1	congruent/STIM_021.jpg
995.952	0.68	1	congruent	Block1	congruent/STIM_021.jpg
1000.559	0.789	1	congruent	Block1	congruent/STIM_021.jpg
1004.555	0.858	1	congruent	Block1	congruent/STIM_021.jpg
1008.899	0.797	1	congruent	Block1	congruent/STIM_022.jpg
1012.201	0.871	1	congruent	Block1	congruent/STIM_022.jpg
1015.22	0.813	1	congruent	Block1	congruent/STIM_022.jpg
1019.696	0.537	1	congruent	Block1	congruent/STIM_022.jpg
1023.819	0.542	1	congruent	Block1	congruent/STIM_022.jpg
1027.701	0.77	1	congruent	Block1	congruent/STIM_023.jpg
1031.372	0.796	1	congruent	Block1	congruent/STIM_023.jpg
1036.084	0.564	1	congruent	Block1	congruent/STIM_023.jpg
1040.608	0.501	1	congruent	Block1	congruent/STIM_023.jpg
1044.731	0.547	1	congruent	Block1	congruent/STIM_023.jpg
1047.396	0.672	1	congruent	Block1	congruent/STIM_024.jpg
1051.108	0.708	1	congruent	Block1	congruent/STIM_024.jpg
1055.323	0.583	1	congruent	Block1	congruent/STIM_024.jpg
1058.847	0.793	1	congruent	Block1	congruent/STIM_024.jpg
1062.512	0.708	1	congruent	Block1	congruent/STIM_024.jpg
1066.014	0.649	1	congruent	Block1	congruent/STIM_025.jpg
1069.391	0.618	1	congruent	Block1	congruent/STIM_025.jpg
1072.817	0.526	1	congruent	Block1	congruent/STIM_025.jpg
1077.033	0.873	1	congruent	Block1	congruent/STIM_025.jpg
1080.094	0.87	1	congruent	Block1	congruent/STIM_025.jpg
1083.793	0.486	1	congruent	Block1	congruent/STIM_026.jpg
1087.6	0.598	1	congruent	Block1	congruent/STIM_026.jpg
1091.264	0.558	1	congruent	Block1	congruent/STIM_026.jpg
1095.599	0.79	1	congruent	Block1	congruent/STIM_026.jpg
1098.604	0.6	1	congruent	Block1	congruent/STIM_026.jpg
1102.925	0.859	1	congruent	Block1	congruent/STIM_027.jpg
1106.215	0.794	1	congruent	Block1	congruent/STIM_027.jpg
1109.213	0.524	1	congruent	Block1	congruent/STIM_027.jpg
1112.477	0.514	1	congruent	Block1	congruent/STIM_027.jpg
1115.58	0.773	1	congruent	Block1	congruent/STIM_027.jpg
1119.942	0.818	1	congruent	Block1	congruent/STIM_028.jpg
1124.335	0.69	1	congruent	Block1	congruent/STIM_028.jpg
1127.598	0.791	1	congruent	Block1	congruent/STIM_028.jpg
1131.897	0.839	1	congruent	Block1	congruent/STIM_028.jpg
1136.586	0.84	1	congruent	Block1	congruent/STIM_028.jpg
1140.552	0.672	1	congruent	Block1	congruent/STIM_029.jpg
1143.461	0.612	1	congruent	Block1	congruent/STIM_029.jpg
1147.479	0.516	1	congruent	Block1	congruent/STIM_029.jpg
1151.367	0.612	1	congruent	Block1	congruent/STIM_029.jpg
1155.953	0.71	1	congruent	Block1	congruent/STIM_029.jpg
1160.503	0.74	1	incongruent	Block2	incongruent/STIM_000.jpg
1165.26	0.789	1	incongruent	Block2	incongruent/STIM_000.jpg
1169.722	0.656	1	incongruent	Block2	incongruent/STIM_000.jpg
1174.187	0.572	1	incongruent	Block2	incongruent/STIM_000.jpg
1177.233	0.806	1	incongruent	Block2	incongruent/STIM_000.jpg
1181.549	0.962	1	incongruent	Block2	incongruent/STIM_001.jpg
1186.266	0.996	1	incongruent	Block2	incongruent/STIM_001.jpg
1190.588	0.984	1	incongruent	Block2	incongruent/STIM_001.jpg
1194.648	0.918	1	incongruent	Block2	incongruent/STIM_001.jpg
1198.585	0.9	1	incongruent	Block2	incongruent/STIM_001.jpg
1201.621	0.627	1	incongruent	Block2	incongruent/STIM_002.jpg
1205.299	0.558	1	incongruent	Block2	incongruent/STIM_002.jpg
1208.177	1.079	1	incongruent	Block2	incongruent/STIM_002.jpg
1212.716	0.507	1	incongruent	Block2	incongruent/STIM_002.jpg
1217.23	0.694	1	incongruent	Block2	incongruent/STIM_002.jpg
1220.824	0.621	1	incongruent	Block2	incongruent/STIM_003.jpg
1223.838	0.629	0	incongruent	Block2	incongruent/STIM_003.jpg
1227.014	0.696	1	incongruent	Block2	incongruent/STIM_003.jpg
1230.938	0.504	1	incongruent	Block2	incongruent/STIM_003.jpg
1233.942	0.488	1	incongruent	Block2	incongruent/STIM_003.jpg
1238.414	0.602	1	incongruent	Block2	incongruent/STIM_004.jpg
1241.426	0.873	1	incongruent	Block2	incongruent/STIM_004.jpg
1245.024	0.717	1	incongruent	Block2	incongruent/STIM_004.jpg
1249.577	0.564	1	incongruent	Block2	incongruent/STIM_004.jpg
1253.89	0.978	1	incongruent	Block2	incongruent/STIM_004.jpg
1257.952	0.617	1	incongruent	Block2	incongruent/STIM_005.jpg
1262.08	0.576	1	incongruent	Block2	incongruent/STIM_005.jpg
1265.195	0.716	1	incongruent	Block2	incongruent/STIM_005.jpg
1268.339	0.672	1	incongruent	Block2	incongruent/STIM_005.jpg
1272.52	0.58	1	incongruent	Block2	incongruent/STIM_005.jpg
1276.001	0.673	1	incongruent	Block2	incongruent/STIM_006.jpg
1278.766	1.084	1	incongruent	Block2	incongruent/STIM_006.jpg
1282.936	0.899	1	incongruent	Block2	incongruent/STIM_006.jpg
1287.784	0.705	1	incongruent	Block2	incongruent/STIM_006.jpg
1291.662	0.628	1	incongruent	Block2	incongruent/STIM_006.jpg
1295.997	0.701	1	incongruent	Block2	incongruent/STIM_007.jpg
1299.792	0.75	1	incongruent	Block2	incongruent/STIM_007.jpg
1303.235	0.675	1	incongruent	Block2	incongruent/STIM_007.jpg
1306.236	0.558	1	incongruent	Block2	incongruent/STIM_007.jpg
1309.011	0.476	1	incongruent	Block2	incongruent/STIM_007.jpg
1312.716	0.739	1	incongruent	Block2	incongruent/STIM_008.jpg
1315.563	0.775	1	incongruent	Block2	incongruent/STIM_008.jpg
1320.196	0.956	1	incongruent	Block2	incongruent/STIM_008.jpg
1323.907	0.631	1	incongruent	Block2	incongruent/STIM_008.jpg
1327.544	0.6	1	incongruent	Block2	incongruent/STIM_008.jpg
1331.846	1.138	1	incongruent	Block2	incongruent/STIM_009.jpg
1336.452	0.753	1	incongruent	Block2	incongruent/STIM_009.jpg
1339.482	0.769	1	incongruent	Block2	incongruent/STIM_009.jpg
1342.683	0.482	1	incongruent	Block2	incongruent/STIM_009.jpg
1347.096	0.716	1	incongruent	Block2	incongruent/STIM_009.jpg
1350.746	0.744	1	incongruent	Block2	incongruent/STIM_010.jpg
1355.067	0.814	1	incongruent	Block2	incongruent/STIM_010.jpg
1358.123	0.827	1	incongruent	Block2	incongruent/STIM_010.jpg
1361.594	0.509	1	incongruent	Block2	incongruent/STIM_010.jpg
1365.345	0.684	1	incongruent	Block2	incongruent/STIM_010.jpg
1368.071	0.965	1	incongruent	Block2	incongruent/STIM_011.jpg
1372.973	0.792	1	incongruent	Block2	incongruent/STIM_011.jpg
1377.441	0.911	1	incongruent	Block2	incongruent/STIM_011.jpg
1381.838	0.516	1	incongruent	Block2	incongruent/STIM_011.jpg
1384.715	0.495	1	incongruent	Block2	incongruent/STIM_011.jpg
1387.464	1.059	1	incongruent	Block2	incongruent/STIM_012.jpg
1391.728	0.925	1	incongruent	Block2	incongruent/STIM_012.jpg
1394.701	0.841	1	incongruent	Block2	incongruent/STIM_012.jpg
1398.787	0.949	1	incongruent	Block2	incongruent/STIM_012.jpg
1402.907	0.63	1	incongruent	Block2	incongruent/STIM_012.jpg
1406.878	1.06	1	incongruent	Block2	incongruent/STIM_013.jpg
1409.973	0.984	1	incongruent	Block2	incongruent/STIM_013.jpg
1414.082	0.8	1	incongruent	Block2	incongruent/STIM_013.jpg
1418.409	0.605	1	incongruent	Block2	incongruent/STIM_013.jpg
1421.619	0.906	1	incongruent	Block2	incongruent/STIM_013.jpg
1425.506	0.619	1	incongruent	Block2	incongruent/STIM_014.jpg
1429.746	0.848	1	incongruent	Block2	incongruent/STIM_014.jpg
1433.109	0.949	1	incongruent	Block2	incongruent/STIM_014.jpg
1437.201	0.496	1	incongruent	Block2	incongruent/STIM_014.jpg
1439.926	0.976	1	incongruent	Block2	incongruent/STIM_014.jpg
1444.287	0.678	1	incongruent	Block2	incongruent/STIM_015.jpg
1447.055	1.06	1	incongruent	Block2	incongruent/STIM_015.jpg
1451.11	0.963	1	incongruent	Block2	incongruent/STIM_015.jpg
1454.811	0.648	1	incongruent	Block2	incongruent/STIM_015.jpg
1457.774	0.501	0	incongruent	Block2	incongruent/STIM_015.jpg
1460.551	1.122	1	incongruent	Block2	incongruent/STIM_016.jpg
1465.558	0.665	1	incongruent	Block2	incongruent/STIM_016.jpg
1468.306	0.99	1	incongruent	Block2	incongruent/STIM_016.jpg
1471.408	0.578	1	incongruent	Block2	incongruent/STIM_016.jpg
1475.978	0.902	1	incongruent	Block2	incongruent/STIM_016.jpg
1479.634	1.079	1	incongruent	Block2	incongruent/STIM_017.jpg
1484.482	0.834	1	incongruent	Block2	incongruent/STIM_017.jpg
1488.139	0.823	0	incongruent	Block2	incongruent/STIM_017.jpg
1492.619	0.867	1	incongruent	Block2	incongruent/STIM_017.jpg
1496.643	0.507	1	incongruent	Block2	incongruent/STIM_017.jpg
1501.053	0.907	1	incongruent	Block2	incongruent/STIM_018.jpg
1505.772	0.834	1	incongruent	Block2	incongruent/STIM_018.jpg
1509.013	0.684	1	incongruent	Block2	incongruent/STIM_018.jpg
1511.951	0.813	1	incongruent	Block2	incongruent/STIM_018.jpg
1516.53	0.93	1	incongruent	Block2	incongruent/STIM_018.jpg
1520.494	1.094	1	incongruent	Block2	incongruent/STIM_019.jpg
1524.715	0.738	1	incongruent	Block2	incongruent/STIM_019.jpg
1528.834	0.686	1	incongruent	Block2	incongruent/STIM_019.jpg
1531.673	0.799	1	incongruent	Block2	incongruent/STIM_019.jpg
1535.083	0.982	1	incongruent	Block2	incongruent/STIM_019.jpg
1539.945	0.695	1	incongruent	Block2	incongruent/STIM_020.jpg
1544.622	0.814	1	incongruent	Block2	incongruent/STIM_020.jpg
1548.213	0.946	1	incongruent	Block2	incongruent/STIM_020.jpg
1552.94	0.931	1	incongruent	Block2	incongruent/STIM_020.jpg
1557.236	0.928	1	incongruent	Block2	incongruent/STIM_020.jpg
1560.508	0.773	1	incongruent	Block2	incongruent/STIM_021.jpg
1564.591	0.584	1	incongruent	Block2	incongruent/STIM_021.jpg
1568.167	0.529	1	incongruent	Block2	incongruent/STIM_021.jpg
1572.035	0.642	1	incongruent	Block2	incongruent/STIM_021.jpg
1574.734	0.93	1	incongruent	Block2	incongruent/STIM_021.jpg
1579.343	0.736	1	incongruent	Block2	incongruent/STIM_022.jpg
1582.782	0.997	1	incongruent	Block2	incongruent/STIM_022.jpg
1587.175	1.07	1	incongruent	Block2	incongruent/STIM_022.jpg
1592.146	0.811	1	incongruent	Block2	incongruent/STIM_022.jpg
1595.432	1.0	1	incongruent	Block2	incongruent/STIM_022.jpg
1599.158	1.195	1	incongruent	Block2	incongruent/STIM_023.jpg
1603.519	1.057	1	incongruent	Block2	incongruent/STIM_023.jpg
1606.621	0.687	1	incongruent	Block2	incongruent/STIM_023.jpg
1610.798	0.673	1	incongruent	Block2	incongruent/STIM_023.jpg
1614.248	0.69	1	incongruent	Block2	incongruent/STIM_023.jpg
1618.778	0.719	1	incongruent	Block2	incongruent/STIM_024.jpg
1622.255	0.836	1	incongruent	Block2	incongruent/STIM_024.jpg
1626.902	0.894	0	incongruent	Block2	incongruent/STIM_024.jpg
1630.087	0.915	1	incongruent	Block2	incongruent/STIM_024.jpg
1633.15	0.74	1	incongruent	Block2	incongruent/STIM_024.jpg
1636.696	1.135	1	incongruent	Block2	incongruent/STIM_025.jpg
1640.46	0.646	1	incongruent	Block2	incongruent/STIM_025.jpg
1644.948	0.904	1	incongruent	Block2	incongruent/STIM_025.jpg
1648.901	0.549	1	incongruent	Block2	incongruent/STIM_025.jpg
1652.539	0.897	1	incongruent	Block2	incongruent/STIM_025.jpg
1656.246	0.986	1	incongruent	Block2	incongruent/STIM_026.jpg
1659.274	0.953	1	incongruent	Block2	incongruent/STIM_026.jpg
1664.188	0.833	1	incongruent	Block2	incongruent/STIM_026.jpg
1668.675	0.535	1	incongruent	Block2	incongruent/STIM_026.jpg
1672.594	0.778	1	incongruent	Block2	incongruent/STIM_026.jpg
1677.29	0.599	0	incongruent	Block2	incongruent/STIM_027.jpg
1680.821	0.668	1	incongruent	Block2	incongruent/STIM_027.jpg
1685.228	0.863	1	incongruent	Block2	incongruent/STIM_027.jpg
1688.41	0.555	1	incongruent	Block2	incongruent/STIM_027.jpg
1692.691	0.689	1	incongruent	Block2	incongruent/STIM_027.jpg
1697.134	0.68	1	incongruent	Block2	incongruent/STIM_028.jpg
1700.294	0.879	1	incongruent	Block2	incongruent/STIM_028.jpg
1704.034	1.012	1	incongruent	Block2	incongruent/STIM_028.jpg
1707.202	0.594	1	incongruent	Block2	incongruent/STIM_028.jpg
1710.594	0.988	1	incongruent	Block2	incongruent/STIM_028.jpg
1714.844	1.163	1	incongruent	Block2	incongruent/STIM_029.jpg
1719.864	1.008	1	incongruent	Block2	incongruent/STIM_029.jpg
1723.412	0.865	1	incongruent	Block2	incongruent/STIM_029.jpg
1728.188	0.868	1	incongruent	Block2	incongruent/STIM_029.jpg
1731.672	0.954	1	incongruent	Block2	incongruent/STIM_029.jpg
1734.924	0.528	1	congruent	Block2	congruent/STIM_000.jpg
1739.244	0.858	1	congruent	Block2	congruent/STIM_000.jpg
1743.776	0.731	1	congruent	Block2	congruent/STIM_000.jpg
1746.673	0.549	1	congruent	Block2	congruent/STIM_000.jpg
1750.309	0.738	1	congruent	Block2	congruent/STIM_000.jpg
1754.804	0.58	1	congruent	Block2	congruent/STIM_001.jpg
1759.335	0.685	1	congruent	Block2	congruent/STIM_001.jpg
1764.029	0.691	1	congruent	Block2	congruent/STIM_001.jpg
1767.503	0.766	1	congruent	Block2	congruent/STIM_001.jpg
1770.618	0.66	1	congruent	Block2	congruent/STIM_001.jpg
1774.713	0.661	1	congruent	Block2	congruent/STIM_002.jpg
1778.257	0.561	1	congruent	Block2	congruent/STIM_002.jpg
1782.505	0.83	1	congruent	Block2	congruent/STIM_002.jpg
1785.567	0.7	0	congruent	Block2	congruent/STIM_002.jpg
1789.97	0.785	1	congruent	Block2	congruent/STIM_002.jpg
1794.759	0.873	1	congruent	Block2	congruent/STIM_003.jpg
1799.595	0.864	1	congruent	Block2	congruent/STIM_003.jpg
1804.297	0.856	1	congruent	Block2	congruent/STIM_003.jpg
1808.0	0.819	1	congruent	Block2	congruent/STIM_003.jpg
1812.754	0.777	1	congruent	Block2	congruent/STIM_003.jpg
1816.24	0.56	1	congruent	Block2	congruent/STIM_004.jpg
1819.349	0.769	1	congruent	Block2	congruent/STIM_004.jpg
1823.933	0.5	1	congruent	Block2	congruent/STIM_004.jpg
1827.489	0.784	1	congruent	Block2	congruent/STIM_004.jpg
1830.619	0.613	1	congruent	Block2	congruent/STIM_004.jpg
1834.687	0.84	1	congruent	Block2	congruent/STIM_005.jpg
1838.184	0.486	1	congruent	Block2	congruent/STIM_005.jpg
1842.318	0.675	1	congruent	Block2	congruent/STIM_005.jpg
1845.519	0.528	0	congruent	Block2	congruent/STIM_005.jpg
1849.625	0.512	1	congruent	Block2	congruent/STIM_005.jpg
1853.473	0.559	1	congruent	Block2	congruent/STIM_006.jpg
1857.751	0.844	1	congruent	Block2	congruent/STIM_006.jpg
1862.276	0.745	1	congruent	Block2	congruent/STIM_006.jpg
1866.0	0.596	1	congruent	Block2	congruent/STIM_006.jpg
1870.148	0.585	1	congruent	Block2	congruent/STIM_006.jpg
1874.263	0.76	1	congruent	Block2	congruent/STIM_007.jpg
1877.517	0.662	1	congruent	Block2	congruent/STIM_007.jpg
1880.887	0.518	1	congruent	Block2	congruent/STIM_007.jpg
1884.288	0.758	1	congruent	Block2	congruent/STIM_007.jpg
1887.198	0.558	1	congruent	Block2	congruent/STIM_007.jpg
1891.046	0.508	1	congruent	Block2	congruent/STIM_008.jpg
1894.307	0.87	1	congruent	Block2	congruent/STIM_008.jpg
1897.688	0.734	1	congruent	Block2	congruent/STIM_008.jpg
1901.171	0.537	1	congruent	Block2	congruent/STIM_008.jpg
1905.344	0.639	1	congruent	Block2	congruent/STIM_008.jpg
1909.584	0.818	1	congruent	Block2	congruent/STIM_009.jpg
1912.907	0.837	1	congruent	Block2	congruent/STIM_009.jpg
1917.218	0.795	1	congruent	Block2	congruent/STIM_009.jpg
1920.805	0.712	1	congruent	Block2	congruent/STIM_009.jpg
1925.395	0.722	1	congruent	Block2	congruent/STIM_009.jpg
1929.171	0.676	1	congruent	Block2	congruent/STIM_010.jpg
1933.672	0.695	1	congruent	Block2	congruent/STIM_010.jpg
1937.061	0.569	1	congruent	Block2	congruent/STIM_010.jpg
1940.424	0.532	1	congruent	Block2	congruent/STIM_010.jpg
1944.099	0.769	1	congruent	Block2	congruent/STIM_010.jpg
1947.538	0.622	1	congruent	Block2	congruent/STIM_011.jpg
1951.31	0.79	1	congruent	Block2	congruent/STIM_011.jpg
1954.658	0.57	1	congruent	Block2	congruent/STIM_011.jpg
1958.414	0.826	1	congruent	Block2	congruent/STIM_011.jpg
1962.88	0.728	1	congruent	Block2	congruent/STIM_011.jpg
1967.116	0.767	1	congruent	Block2	congruent/STIM_012.jpg
1971.822	0.741	1	congruent	Block2	congruent/STIM_012.jpg
1975.059	0.812	1	congruent	Block2	congruent/STIM_012.jpg
1979.78	0.861	1	congruent	Block2	congruent/STIM_012.jpg
1982.811	0.634	1	congruent	Block2	congruent/STIM_012.jpg
1987.171	0.698	1	congruent	Block2	congruent/STIM_013.jpg
1990.089	0.636	1	congruent	Block2	congruent/STIM_013.jpg
1993.167	0.73	1	congruent	Block2	congruent/STIM_013.jpg
1996.247	0.793	1	congruent	Block2	congruent/STIM_013.jpg
2000.52	0.57	1	congruent	Block2	congruent/STIM_013.jpg
2004.209	0.508	1	congruent	Block2	congruent/STIM_014.jpg
2008.351	0.792	1	congruent	Block2	congruent/STIM_014.jpg
2011.41	0.773	1	congruent	Block2	congruent/STIM_014.jpg
2014.554	0.668	1	congruent	Block2	congruent/STIM_014.jpg
2019.114	0.849	1	congruent	Block2	congruent/STIM_014.jpg
2023.378	0.62	1	congruent	Block2	congruent/STIM_015.jpg
2026.37	0.594	1	congruent	Block2	congruent/STIM_015.jpg
2029.321	0.791	1	congruent	Block2	congruent/STIM_015.jpg
2032.209	0.668	1	congruent	Block2	congruent/STIM_015.jpg
2035.787	0.659	1	congruent	Block2	congruent/STIM_015.jpg
2040.175	0.585	1	congruent	Block2	congruent/STIM_016.jpg
2044.411	0.691	1	congruent	Block2	congruent/STIM_016.jpg
2047.585	0.775	1	congruent	Block2	congruent/STIM_016.jpg
2051.293	0.734	1	congruent	Block2	congruent/STIM_016.jpg
2055.338	0.562	1	congruent	Block2	congruent/STIM_016.jpg
2058.872	0.611	1	congruent	Block2	congruent/STIM_017.jpg
2063.284	0.748	1	congruent	Block2	congruent/STIM_017.jpg
2066.287	0.63	1	congruent	Block2	congruent/STIM_017.jpg
2069.356	0.72	1	congruent	Block2	congruent/STIM_017.jpg
2072.169	0.68	1	congruent	Block2	congruent/STIM_017.jpg
2075.218	0.512	1	congruent	Block2	congruent/STIM_018.jpg
2078.231	0.704	0	congruent	Block2	congruent/STIM_018.jpg
2081.605	0.84	1	congruent	Block2	congruent/STIM_018.jpg
2086.039	0.579	1	congruent	Block2	congruent/STIM_018.jpg
2089.645	0.708	1	congruent	Block2	congruent/STIM_018.jpg
2093.712	0.58	1	congruent	Block2	congruent/STIM_019.jpg
2098.266	0.848	1	congruent	Block2	congruent/STIM_019.jpg
2103.043	0.787	1	congruent	Block2	congruent/STIM_019.jpg
2107.044	0.737	1	congruent	Block2	congruent/STIM_019.jpg
2111.596	0.815	1	congruent	Block2	congruent/STIM_019.jpg
2115.848	0.768	1	congruent	Block2	congruent/STIM_020.jpg
2120.559	0.612	1	congruent	Block2	congruent/STIM_020.jpg
2124.317	0.49	1	congruent	Block2	congruent/STIM_020.jpg
2128.63	0.763	1	congruent	Block2	congruent/STIM_020.jpg
2133.407	0.534	1	congruent	Block2	congruent/STIM_020.jpg
2137.192	0.644	1	congruent	Block2	congruent/STIM_021.jpg
2141.218	0.848	1	congruent	Block2	congruent/STIM_021.jpg
2144.707	0.612	1	congruent	Block2	congruent/STIM_021.jpg
2147.89	0.584	1	congruent	Block2	congruent/STIM_021.jpg
2152.297	0.863	0	congruent	Block2	congruent/STIM_021.jpg
2156.337	0.609	1	congruent	Block2	congruent/STIM_022.jpg
2159.502	0.581	1	congruent	Block2	congruent/STIM_022.jpg
2162.841	0.582	1	congruent	Block2	congruent/STIM_022.jpg
2166.293	0.826	1	congruent	Block2	congruent/STIM_022.jpg
2169.335	0.584	1	congruent	Block2	congruent/STIM_022.jpg
2173.058	0.851	1	congruent	Block2	congruent/STIM_023.jpg
2176.205	0.615	0	congruent	Block2	congruent/STIM_023.jpg
2179.381	0.684	1	congruent	Block2	congruent/STIM_023.jpg
2182.608	0.832	1	congruent	Block2	congruent/STIM_023.jpg
2187.179	0.773	1	congruent	Block2	congruent/STIM_023.jpg
2190.551	0.743	1	congruent	Block2	congruent/STIM_024.jpg
2194.817	0.851	1	congruent	Block2	congruent/STIM_024.jpg
2197.935	0.827	1	congruent	Block2	congruent/STIM_024.jpg
2201.477	0.746	1	congruent	Block2	congruent/STIM_024.jpg
2205.466	0.563	1	congruent	Block2	congruent/STIM_024.jpg
2209.202	0.678	1	congruent	Block2	congruent/STIM_025.jpg
2212.371	0.845	1	congruent	Block2	congruent/STIM_025.jpg
2216.104	0.56	1	congruent	Block2	congruent/STIM_025.jpg
2219.168	0.659	1	congruent	Block2	congruent/STIM_025.jpg
2222.931	0.755	1	congruent	Block2	congruent/STIM_025.jpg
2227.694	0.621	1	congruent	Block2	congruent/STIM_026.jpg
2231.465	0.726	1	congruent	Block2	congruent/STIM_026.jpg
2235.915	0.675	1	congruent	Block2	congruent/STIM_026.jpg
2238.912	0.5	1	congruent	Block2	congruent/STIM_026.jpg
2242.398	0.845	1	congruent	Block2	congruent/STIM_026.jpg
2245.389	0.694	1	congruent	Block2	congruent/STIM_027.jpg
2249.588	0.568	1	congruent	Block2	congruent/STIM_027.jpg
2252.629	0.621	1	congruent	Block2	congruent/STIM_027.jpg
2256.81	0.74	1	congruent	Block2	congruent/STIM_027.jpg
2260.746	0.703	1	congruent	Block2	congruent/STIM_027.jpg
2263.992	0.616	1	congruent	Block2	congruent/STIM_028.jpg
2268.395	0.512	1	congruent	Block2	congruent/STIM_028.jpg
2271.333	0.496	1	congruent	Block2	congruent/STIM_028.jpg
2274.907	0.607	0	congruent	Block2	congruent/STIM_028.jpg
2278.741	0.64	1	congruent	Block2	congruent/STIM_028.jpg
2282.169	0.8	1	congruent	Block2	congruent/STIM_029.jpg
2286.709	0.832	0	congruent	Block2	congruent/STIM_029.jpg
2290.775	0.847	1	congruent	Block2	congruent/STIM_029.jpg
2294.016	0.62	0	congruent	Block2	congruent/STIM_029.jpg
2298.475	0.52	1	congruent	Block2	congruent/STIM_029.jpg
2302.192	0.976	1	incongruent	Block3	incongruent/STIM_000.jpg
2306.899	0.656	1	incongruent	Block3	incongruent/STIM_000.jpg
2310.711	0.728	1	incongruent	Block3	incongruent/STIM_000.jpg
2315.096	0.95	1	incongruent	Block3	incongruent/STIM_000.jpg
2320.031	0.477	1	incongruent	Block3	incongruent/STIM_000.jpg
2323.214	0.791	1	incongruent	Block3	incongruent/STIM_001.jpg
2327.413	0.756	1	incongruent	Block3	incongruent/STIM_001.jpg
2331.8	0.963	1	incongruent	Block3	incongruent/STIM_001.jpg
2335.667	0.904	1	incongruent	Block3	incongruent/STIM_001.jpg
2339.635	0.612	1	incongruent	Block3	incongruent/STIM_001.jpg
2342.958	0.508	1	incongruent	Block3	incongruent/STIM_002.jpg
2346.641	0.898	1	incongruent	Block3	incongruent/STIM_002.jpg
2350.736	0.927	1	incongruent	Block3	incongruent/STIM_002.jpg
2354.668	0.632	1	incongruent	Block3	incongruent/STIM_002.jpg
2359.212	0.657	1	incongruent	Block3	incongruent/STIM_002.jpg
2363.329	0.482	1	incongruent	Block3	incongruent/STIM_003.jpg
2367.636	0.882	1	incongruent	Block3	incongruent/STIM_003.jpg
2371.838	0.66	1	incongruent	Block3	incongruent/STIM_003.jpg
2375.974	0.516	1	incongruent	Block3	incongruent/STIM_003.jpg
2378.759	0.747	1	incongruent	Block3	incongruent/STIM_003.jpg
2382.834	0.765	1	incongruent	Block3	incongruent/STIM_004.jpg
2387.121	0.72	1	incongruent	Block3	incongruent/STIM_004.jpg
2390.103	0.714	1	incongruent	Block3	incongruent/STIM_004.jpg
2394.332	0.726	1	incongruent	Block3	incongruent/STIM_004.jpg
2398.2	0.859	1	incongruent	Block3	incongruent/STIM_004.jpg
2402.311	0.799	1	incongruent	Block3	incongruent/STIM_005.jpg
2405.741	0.929	1	incongruent	Block3	incongruent/STIM_005.jpg
2409.961	0.721	1	incongruent	Block3	incongruent/STIM_005.jpg
2414.379	0.798	1	incongruent	Block3	incongruent/STIM_005.jpg
2417.743	0.792	1	incongruent	Block3	incongruent/STIM_005.jpg
2421.237	0.54	1	incongruent	Block3	incongruent/STIM_006.jpg
2425.097	0.796	1	incongruent	Block3	incongruent/STIM_006.jpg
2428.251	0.52	1	incongruent	Block3	incongruent/STIM_006.jpg
2431.215	0.498	1	incongruent	Block3	incongruent/STIM_006.jpg
2435.717	0.907	1	incongruent	Block3	incongruent/STIM_006.jpg
2440.511	0.737	1	incongruent	Block3	incongruent/STIM_007.jpg
2443.911	0.773	1	incongruent	Block3	incongruent/STIM_007.jpg
2447.433	0.537	1	incongruent	Block3	incongruent/STIM_007.jpg
2451.566	0.814	1	incongruent	Block3	incongruent/STIM_007.jpg
2454.409	0.939	1	incongruent	Block3	incongruent/STIM_007.jpg
2457.602	0.661	1	incongruent	Block3	incongruent/STIM_008.jpg
2461.198	0.564	1	incongruent	Block3	incongruent/STIM_008.jpg
2463.876	0.606	1	incongruent	Block3	incongruent/STIM_008.jpg
2467.977	0.763	0	incongruent	Block3	incongruent/STIM_008.jpg
2471.408	0.677	1	incongruent	Block3	incongruent/STIM_008.jpg
2474.505	0.712	1	incongruent	Block3	incongruent/STIM_009.jpg
2477.839	0.863	1	incongruent	Block3	incongruent/STIM_009.jpg
2480.96	0.894	1	incongruent	Block3	incongruent/STIM_009.jpg
2485.076	0.564	1	incongruent	Block3	incongruent/STIM_009.jpg
2488.712	0.532	1	incongruent	Block3	incongruent/STIM_009.jpg
2492.632	0.588	1	incongruent	Block3	incongruent/STIM_010.jpg
2495.546	0.702	1	incongruent	Block3	incongruent/STIM_010.jpg
2500.262	0.707	1	incongruent	Block3	incongruent/STIM_010.jpg
2504.469	0.479	1	incongruent	Block3	incongruent/STIM_010.jpg
2507.463	0.651	1	incongruent	Block3	incongruent/STIM_010.jpg
2510.838	0.704	1	incongruent	Block3	incongruent/STIM_011.jpg
2514.754	0.696	1	incongruent	Block3	incongruent/STIM_011.jpg
2519.082	0.895	1	incongruent	Block3	incongruent/STIM_011.jpg
2522.527	0.537	1	incongruent	Block3	incongruent/STIM_011.jpg
2525.222	0.746	1	incongruent	Block3	incongruent/STIM_011.jpg
2529.593	0.562	1	incongruent	Block3	incongruent/STIM_012.jpg
2533.255	0.74	1	incongruent	Block3	incongruent/STIM_012.jpg
2537.079	0.928	1	incongruent	Block3	incongruent/STIM_012.jpg
2541.272	0.635	1	incongruent	Block3	incongruent/STIM_012.jpg
2545.606	0.645	1	incongruent	Block3	incongruent/STIM_012.jpg
2549.185	0.951	1	incongruent	Block3	incongruent/STIM_013.jpg
2553.29	0.733	1	incongruent	Block3	incongruent/STIM_013.jpg
2556.881	0.85	1	incongruent	Block3	incongruent/STIM_013.jpg
2561.604	0.548	1	incongruent	Block3	incongruent/STIM_013.jpg
2564.836	0.855	1	incongruent	Block3	incongruent/STIM_013.jpg
2569.349	0.838	1	incongruent	Block3	incongruent/STIM_014.jpg
2573.189	0.975	1	incongruent	Block3	incongruent/STIM_014.jpg
2578.148	0.999	1	incongruent	Block3	incongruent/STIM_014.jpg
2582.79	0.849	1	incongruent	Block3	incongruent/STIM_014.jpg
2587.516	0.998	1	incongruent	Block3	incongruent/STIM_014.jpg
2590.704	0.782	1	incongruent	Block3	incongruent/STIM_015.jpg
2594.336	0.628	1	incongruent	Block3	incongruent/STIM_015.jpg
2597.757	0.707	1	incongruent	Block3	incongruent/STIM_015.jpg
2601.104	0.664	1	incongruent	Block3	incongruent/STIM_015.jpg
2604.764	0.774	1	incongruent	Block3	incongruent/STIM_015.jpg
2607.818	0.765	1	incongruent	Block3	incongruent/STIM_016.jpg
2611.811	0.559	1	incongruent	Block3	incongruent/STIM_016.jpg
2616.16	0.74	1	incongruent	Block3	incongruent/STIM_016.jpg
2620.764	0.578	1	incongruent	Block3	incongruent/STIM_016.jpg
2624.933	0.897	1	incongruent	Block3	incongruent/STIM_016.jpg
2629.71	0.994	1	incongruent	Block3	incongruent/STIM_017.jpg
2633.558	0.667	1	incongruent	Block3	incongruent/STIM_017.jpg
2637.984	0.753	1	incongruent	Block3	incongruent/STIM_017.jpg
2641.415	0.477	1	incongruent	Block3	incongruent/STIM_017.jpg
2645.113	0.79	1	incongruent	Block3	incongruent/STIM_017.jpg
2648.846	0.711	1	incongruent	Block3	incongruent/STIM_018.jpg
2652.63	0.493	1	incongruent	Block3	incongruent/STIM_018.jpg
2655.179	0.881	1	incongruent	Block3	incongruent/STIM_018.jpg
2658.508	0.905	1	incongruent	Block3	incongruent/STIM_018.jpg
2662.082	0.983	1	incongruent	Block3	incongruent/STIM_018.jpg
2666.211	0.712	1	incongruent	Block3	incongruent/STIM_019.jpg
2669.308	0.55	1	incongruent	Block3	incongruent/STIM_019.jpg
2673.303	0.55	1	incongruent	Block3	incongruent/STIM_019.jpg
2676.304	0.984	1	incongruent	Block3	incongruent/STIM_019.jpg
2680.982	0.94	1	incongruent	Block3	incongruent/STIM_019.jpg
2685.719	0.686	1	incongruent	Block3	incongruent/STIM_020.jpg
2689.527	0.692	1	incongruent	Block3	incongruent/STIM_020.jpg
2693.332	0.493	1	incongruent	Block3	incongruent/STIM_020.jpg
2696.811	0.954	1	incongruent	Block3	incongruent/STIM_020.jpg
2701.348	0.96	1	incongruent	Block3	incongruent/STIM_020.jpg
2706.288	0.631	1	incongruent	Block3	incongruent/STIM_021.jpg
2708.975	0.733	1	incongruent	Block3	incongruent/STIM_021.jpg
2712.746	0.719	1	incongruent	Block3	incongruent/STIM_021.jpg
2716.275	0.62	1	incongruent	Block3	incongruent/STIM_021.jpg
2719.771	0.576	1	incongruent	Block3	incongruent/STIM_021.jpg
2724.223	0.992	1	incongruent	Block3	incongruent/STIM_022.jpg
2727.813	0.777	1	incongruent	Block3	incongruent/STIM_022.jpg
2730.707	0.781	1	incongruent	Block3	incongruent/STIM_022.jpg
2734.979	0.611	1	incongruent	Block3	incongruent/STIM_022.jpg
2739.313	0.795	1	incongruent	Block3	incongruent/STIM_022.jpg
2743.224	0.675	1	incongruent	Block3	incongruent/STIM_023.jpg
2746.756	0.862	1	incongruent	Block3	incongruent/STIM_023.jpg
2751.419	0.543	1	incongruent	Block3	incongruent/STIM_023.jpg
2755.183	0.654	1	incongruent	Block3	incongruent/STIM_023.jpg
2759.299	0.705	1	incongruent	Block3	incongruent/STIM_023.jpg
2763.14	0.522	1	incongruent	Block3	incongruent/STIM_024.jpg
2767.572	0.908	1	incongruent	Block3	incongruent/STIM_024.jpg
2772.166	0.776	1	incongruent	Block3	incongruent/STIM_024.jpg
2775.595	0.845	1	incongruent	Block3	incongruent/STIM_024.jpg
2780.227	0.657	1	incongruent	Block3	incongruent/STIM_024.jpg
2783.045	0.781	1	incongruent	Block3	incongruent/STIM_025.jpg
2787.658	0.674	1	incongruent	Block3	incongruent/STIM_025.jpg
2791.214	0.888	1	incongruent	Block3	incongruent/STIM_025.jpg
2794.496	0.865	1	incongruent	Block3	incongruent/STIM_025.jpg
2798.709	0.702	1	incongruent	Block3	incongruent/STIM_025.jpg
2801.578	0.711	1	incongruent	Block3	incongruent/STIM_026.jpg
2806.014	0.617	1	incongruent	Block3	incongruent/STIM_026.jpg
2810.373	0.897	1	incongruent	Block3	incongruent/STIM_026.jpg
2813.905	0.656	1	incongruent	Block3	incongruent/STIM_026.jpg
2818.214	0.564	1	incongruent	Block3	incongruent/STIM_026.jpg
2821.629	0.927	1	incongruent	Block3	incongruent/STIM_027.jpg
2824.906	0.623	1	incongruent	Block3	incongruent/STIM_027.jpg
2829.5	0.736	1	incongruent	Block3	incongruent/STIM_027.jpg
2834.084	0.972	1	incongruent	Block3	incongruent/STIM_027.jpg
2837.956	0.64	1	incongruent	Block3	incongruent/STIM_027.jpg
2841.108	0.532	1	incongruent	Block3	incongruent/STIM_028.jpg
2844.117	0.732	1	incongruent	Block3	incongruent/STIM_028.jpg
2846.977	0.511	1	incongruent	Block3	incongruent/STIM_028.jpg
2850.838	0.853	1	incongruent	Block3	incongruent/STIM_028.jpg
2855.151	0.57	1	incongruent	Block3	incongruent/STIM_028.jpg
2859.39	0.902	1	incongruent	Block3	incongruent/STIM_029.jpg
2863.85	0.972	1	incongruent	Block3	incongruent/STIM_029.jpg
2867.047	0.574	1	incongruent	Block3	incongruent/STIM_029.jpg
2870.851	0.829	1	incongruent	Block3	incongruent/STIM_029.jpg
2873.982	0.86	1	incongruent	Block3	incongruent/STIM_029.jpg
2877.757	0.586	0	congruent	Block3	congruent/STIM_000.jpg
2881.7	0.615	1	congruent	Block3	congruent/STIM_000.jpg
2886.175	0.867	1	congruent	Block3	congruent/STIM_000.jpg
2890.345	0.728	1	congruent	Block3	congruent/STIM_000.jpg
2893.586	0.735	1	congruent	Block3	congruent/STIM_000.jpg
2898.044	0.771	1	congruent	Block3	congruent/STIM_001.jpg
2902.151	0.682	1	congruent	Block3	congruent/STIM_001.jpg
2905.27	0.614	1	congruent	Block3	congruent/STIM_001.jpg
2908.133	0.557	1	congruent	Block3	congruent/STIM_001.jpg
2912.431	0.683	1	congruent	Block3	congruent/STIM_001.jpg
2916.343	0.795	1	congruent	Block3	congruent/STIM_002.jpg
2920.906	0.671	1	congruent	Block3	congruent/STIM_002.jpg
2925.447	0.838	1	congruent	Block3	congruent/STIM_002.jpg
2929.988	0.814	1	congruent	Block3	congruent/STIM_002.jpg
2933.192	0.726	1	congruent	Block3	congruent/STIM_002.jpg
2937.698	0.595	1	congruent	Block3	congruent/STIM_003.jpg
2940.865	0.771	1	congruent	Block3	congruent/STIM_003.jpg
2944.465	0.652	1	congruent	Block3	congruent/STIM_003.jpg
2947.162	0.803	1	congruent	Block3	congruent/STIM_003.jpg
2951.057	0.54	1	congruent	Block3	congruent/STIM_003.jpg
2954.435	0.815	1	congruent	Block3	congruent/STIM_004.jpg
2957.79	0.648	1	congruent	Block3	congruent/STIM_004.jpg
2960.909	0.597	1	congruent	Block3	congruent/STIM_004.jpg
2964.029	0.639	1	congruent	Block3	congruent/STIM_004.jpg
2968.544	0.821	1	congruent	Block3	congruent/STIM_004.jpg
2973.053	0.531	1	congruent	Block3	congruent/STIM_005.jpg
2977.525	0.508	1	congruent	Block3	congruent/STIM_005.jpg
2981.359	0.833	1	congruent	Block3	congruent/STIM_005.jpg
2985.341	0.722	1	congruent	Block3	congruent/STIM_005.jpg
2989.545	0.567	1	congruent	Block3	congruent/STIM_005.jpg
2993.22	0.621	1	congruent	Block3	congruent/STIM_006.jpg
2996.456	0.756	1	congruent	Block3	congruent/STIM_006.jpg
2999.597	0.659	1	congruent	Block3	congruent/STIM_006.jpg
3004.26	0.513	1	congruent	Block3	congruent/STIM_006.jpg
3008.236	0.758	1	congruent	Block3	congruent/STIM_006.jpg
3011.842	0.678	1	congruent	Block3	congruent/STIM_007.jpg
3016.12	0.507	1	congruent	Block3	congruent/STIM_007.jpg
3019.554	0.572	1	congruent	Block3	congruent/STIM_007.jpg
3024.133	0.582	1	congruent	Block3	congruent/STIM_007.jpg
3028.626	0.536	1	congruent	Block3	congruent/STIM_007.jpg
3032.523	0.785	1	congruent	Block3	congruent/STIM_008.jpg
3035.417	0.514	1	congruent	Block3	congruent/STIM_008.jpg
3038.778	0.612	1	congruent	Block3	congruent/STIM_008.jpg
3042.226	0.665	1	congruent	Block3	congruent/STIM_008.jpg
3045.514	0.854	1	congruent	Block3	congruent/STIM_008.jpg
3049.442	0.83	1	congruent	Block3	congruent/STIM_009.jpg
3053.141	0.543	1	congruent	Block3	congruent/STIM_009.jpg
3057.107	0.705	1	congruent	Block3	congruent/STIM_009.jpg
3060.295	0.859	1	congruent	Block3	congruent/STIM_009.jpg
3065.093	0.773	1	congruent	Block3	congruent/STIM_009.jpg
3069.779	0.84	1	congruent	Block3	congruent/STIM_010.jpg
3072.758	0.527	1	congruent	Block3	congruent/STIM_010.jpg
3076.147	0.864	1	congruent	Block3	congruent/STIM_010.jpg
3080.038	0.842	1	congruent	Block3	congruent/STIM_010.jpg
3083.51	0.76	1	congruent	Block3	congruent/STIM_010.jpg
3086.775	0.488	1	congruent	Block3	congruent/STIM_011.jpg
3089.616	0.508	0	congruent	Block3	congruent/STIM_011.jpg
3093.401	0.682	1	congruent	Block3	congruent/STIM_011.jpg
3097.515	0.503	1	congruent	Block3	congruent/STIM_011.jpg
3101.877	0.685	1	congruent	Block3	congruent/STIM_011.jpg
3105.383	0.581	1	congruent	Block3	congruent/STIM_012.jpg
3109.756	0.832	1	congruent	Block3	congruent/STIM_012.jpg
3112.758	0.595	1	congruent	Block3	congruent/STIM_012.jpg
3116.105	0.682	1	congruent	Block3	congruent/STIM_012.jpg
3120.22	0.836	1	congruent	Block3	congruent/STIM_012.jpg
3124.698	0.705	1	congruent	Block3	congruent/STIM_013.jpg
3128.383	0.492	1	congruent	Block3	congruent/STIM_013.jpg
3132.422	0.843	1	congruent	Block3	congruent/STIM_013.jpg
3135.363	0.741	1	congruent	Block3	congruent/STIM_013.jpg
3139.515	0.667	1	congruent	Block3	congruent/STIM_013.jpg
3143.752	0.696	1	congruent	Block3	congruent/STIM_014.jpg
3147.324	0.65	1	congruent	Block3	congruent/STIM_014.jpg
3150.151	0.833	1	congruent	Block3	congruent/STIM_014.jpg
3154.114	0.77	1	congruent	Block3	congruent/STIM_014.jpg
3156.956	0.832	1	congruent	Block3	congruent/STIM_014.jpg
3160.364	0.537	1	congruent	Block3	congruent/STIM_015.jpg
3164.251	0.862	1	congruent	Block3	congruent/STIM_015.jpg
3168.632	0.865	1	congruent	Block3	congruent/STIM_015.jpg
3172.381	0.572	1	congruent	Block3	congruent/STIM_015.jpg
3176.716	0.634	0	congruent	Block3	congruent/STIM_015.jpg
3181.347	0.589	0	congruent	Block3	congruent/STIM_016.jpg
3185.035	0.833	1	congruent	Block3	congruent/STIM_016.jpg
3189.137	0.574	1	congruent	Block3	congruent/STIM_016.jpg
3193.71	0.698	1	congruent	Block3	congruent/STIM_016.jpg
3197.543	0.51	1	congruent	Block3	congruent/STIM_016.jpg
3201.406	0.547	1	congruent	Block3	congruent/STIM_017.jpg
3204.837	0.577	1	congruent	Block3	congruent/STIM_017.jpg
3209.041	0.745	1	congruent	Block3	congruent/STIM_017.jpg
3213.55	0.626	1	congruent	Block3	congruent/STIM_017.jpg
3217.674	0.553	1	congruent	Block3	congruent/STIM_017.jpg
3220.518	0.597	1	congruent	Block3	congruent/STIM_018.jpg
3223.238	0.824	1	congruent	Block3	congruent/STIM_018.jpg
3228.033	0.757	1	congruent	Block3	congruent/STIM_018.jpg
3231.835	0.678	1	congruent	Block3	congruent/STIM_018.jpg
3236.161	0.623	1	congruent	Block3	congruent/STIM_018.jpg
3239.327	0.576	1	congruent	Block3	congruent/STIM_019.jpg
3243.363	0.647	1	congruent	Block3	congruent/STIM_019.jpg
3246.456	0.853	1	congruent	Block3	congruent/STIM_019.jpg
3250.527	0.648	1	congruent	Block3	congruent/STIM_019.jpg
3253.455	0.662	1	congruent	Block3	congruent/STIM_019.jpg
3257.404	0.562	1	congruent	Block3	congruent/STIM_020.jpg
3261.227	0.742	1	congruent	Block3	congruent/STIM_020.jpg
3265.858	0.506	1	congruent	Block3	congruent/STIM_020.jpg
3269.818	0.851	1	congruent	Block3	congruent/STIM_020.jpg
3272.969	0.873	1	congruent	Block3	congruent/STIM_020.jpg
3276.203	0.535	1	congruent	Block3	congruent/STIM_021.jpg
3279.081	0.535	1	congruent	Block3	congruent/STIM_021.jpg
3283.056	0.704	1	congruent	Block3	congruent/STIM_021.jpg
3287.241	0.727	1	congruent	Block3	congruent/STIM_021.jpg
3291.874	0.833	1	congruent	Block3	congruent/STIM_021.jpg
3296.081	0.487	1	congruent	Block3	congruent/STIM_022.jpg
3299.542	0.74	1	congruent	Block3	congruent/STIM_022.jpg
3303.889	0.653	1	congruent	Block3	congruent/STIM_022.jpg
3306.63	0.72	1	congruent	Block3	congruent/STIM_022.jpg
3310.186	0.508	1	congruent	Block3	congruent/STIM_022.jpg
3313.438	0.498	1	congruent	Block3	congruent/STIM_023.jpg
3317.615	0.648	1	congruent	Block3	congruent/STIM_023.jpg
3321.517	0.544	1	congruent	Block3	congruent/STIM_023.jpg
3324.59	0.557	1	congruent	Block3	congruent/STIM_023.jpg
3328.288	0.659	1	congruent	Block3	congruent/STIM_023.jpg
3331.235	0.707	1	congruent	Block3	congruent/STIM_024.jpg
3334.372	0.813	1	congruent	Block3	congruent/STIM_024.jpg
3337.387	0.812	1	congruent	Block3	congruent/STIM_024.jpg
3340.763	0.729	0	congruent	Block3	congruent/STIM_024.jpg
3343.726	0.544	1	congruent	Block3	congruent/STIM_024.jpg
3348.014	0.564	1	congruent	Block3	congruent/STIM_025.jpg
3351.816	0.578	0	congruent	Block3	congruent/STIM_025.jpg
3356.322	0.59	1	congruent	Block3	congruent/STIM_025.jpg
3359.577	0.713	1	congruent	Block3	congruent/STIM_025.jpg
3362.662	0.762	1	congruent	Block3	congruent/STIM_025.jpg
3366.708	0.706	1	congruent	Block3	congruent/STIM_026.jpg
3370.673	0.784	1	congruent	Block3	congruent/STIM_026.jpg
3373.902	0.756	1	congruent	Block3	congruent/STIM_026.jpg
3377.487	0.736	1	congruent	Block3	congruent/STIM_026.jpg
3382.089	0.572	1	congruent	Block3	congruent/STIM_026.jpg
3386.581	0.66	1	congruent	Block3	congruent/STIM_027.jpg
3390.712	0.642	1	congruent	Block3	congruent/STIM_027.jpg
3394.45	0.662	1	congruent	Block3	congruent/STIM_027.jpg
3397.79	0.504	1	congruent	Block3	congruent/STIM_027.jpg
3401.792	0.712	1	congruent	Block3	congruent/STIM_027.jpg
3404.626	0.787	1	congruent	Block3	congruent/STIM_028.jpg
3409.311	0.65	1	congruent	Block3	congruent/STIM_028.jpg
3411.986	0.516	1	congruent	Block3	congruent/STIM_028.jpg
3416.247	0.745	1	congruent	Block3	congruent/STIM_028.jpg
3421.006	0.635	1	congruent	Block3	congruent/STIM_028.jpg
3424.438	0.651	1	congruent	Block3	congruent/STIM_029.jpg
3427.623	0.578	1	congruent	Block3	congruent/STIM_029.jpg
3431.979	0.862	1	congruent	Block3	congruent/STIM_029.jpg
3436.6	0.66	1	congruent	Block3	congruent/STIM_029.jpg
3439.603	0.685	1	congruent	Block3	congruent/STIM_029.jpg
