onset	duration	response_time_ms	trial_type	learning_stage	stimulus	response_port
0.0	0.718	718.0	incongruent	Block1	incongruent/STIM_000.jpg	99
4.2	0.786	785.5	incongruent	Block1	incongruent/STIM_000.jpg	100
8.935	1.154	1154.3	incongruent	Block1	incongruent/STIM_000.jpg	99
13.662	0.754	754.1	incongruent	Block1	incongruent/STIM_000.jpg	99
18.178	0.891	890.6	incongruent	Block1	incongruent/STIM_000.jpg	100
22.606	1.316	1315.6	incongruent	Block1	incongruent/STIM_001.jpg	100
26.953	0.823	822.6	incongruent	Block1	incongruent/STIM_001.jpg	100
31.231	0.836	836.1	incongruent	Block1	incongruent/STIM_001.jpg	99
35.49	0.75	749.9	incongruent	Block1	incongruent/STIM_001.jpg	99
38.367	0.563	563.2	incongruent	Block1	incongruent/STIM_001.jpg	99
41.332	0.923	922.9	incongruent	Block1	incongruent/STIM_002.jpg	99
45.294	1.03	1029.6	incongruent	Block1	incongruent/STIM_002.jpg	100
49.951	0.864	863.8	incongruent	Block1	incongruent/STIM_002.jpg	100
54.194	1.028	1028.2	incongruent	Block1	incongruent/STIM_002.jpg	100
58.679	1.106	1105.5	incongruent	Block1	incongruent/STIM_002.jpg	100
63.379	1.243	1243.2	incongruent	Block1	incongruent/STIM_003.jpg	100
68.252	1.348	1347.9	incongruent	Block1	incongruent/STIM_003.jpg	100
72.002	0.968	968.0	incongruent	Block1	incongruent/STIM_003.jpg	99
75.675	1.118	1118.1	incongruent	Block1	incongruent/STIM_003.jpg	99
79.174	0.734	734.1	incongruent	Block1	incongruent/STIM_003.jpg	99
82.399	1.227	1227.2	incongruent	Block1	incongruent/STIM_004.jpg	100
85.922	0.848	847.5	incongruent	Block1	incongruent/STIM_004.jpg	100
90.333	0.867	866.7	incongruent	Block1	incongruent/STIM_004.jpg	100
93.947	1.192	1192.1	incongruent	Block1	incongruent/STIM_004.jpg	100
97.768	0.616	616.2	incongruent	Block1	incongruent/STIM_004.jpg	99
102.009	1.157	1157.0	incongruent	Block1	incongruent/STIM_005.jpg	99
105.756	1.196	1196.5	incongruent	Block1	incongruent/STIM_005.jpg	99
110.064	1.15	1150.0	incongruent	Block1	incongruent/STIM_005.jpg	100
114.481	1.028	1027.9	incongruent	Block1	incongruent/STIM_005.jpg	99
117.6	0.828	827.6	incongruent	Block1	incongruent/STIM_005.jpg	100
121.026	1.343	1343.4	incongruent	Block1	incongruent/STIM_006.jpg	100
125.369	1.27	1270.1	incongruent	Block1	incongruent/STIM_006.jpg	100
129.275	0.828	827.7	incongruent	Block1	incongruent/STIM_006.jpg	100
134.086	1.201	1201.1	incongruent	Block1	incongruent/STIM_006.jpg	100
138.069	0.622	622.3	incongruent	Block1	incongruent/STIM_006.jpg	100
141.58	1.086	1086.0	incongruent	Block1	incongruent/STIM_007.jpg	100
144.935	1.09	1090.1	incongruent	Block1	incongruent/STIM_007.jpg	100
148.345	0.802	802.3	incongruent	Block1	incongruent/STIM_007.jpg	100
151.734	0.802	801.5	incongruent	Block1	incongruent/STIM_007.jpg	99
154.869	0.835	834.9	incongruent	Block1	incongruent/STIM_007.jpg	100
159.323	1.268	1267.8	incongruent	Block1	incongruent/STIM_008.jpg	100
164.04	0.743	742.9	incongruent	Block1	incongruent/STIM_008.jpg	99
167.93	0.875	874.6	incongruent	Block1	incongruent/STIM_008.jpg	100
172.606	0.702	701.7	incongruent	Block1	incongruent/STIM_008.jpg	100
176.841	1.043	1043.4	incongruent	Block1	incongruent/STIM_008.jpg	100
180.942	0.864	863.8	incongruent	Block1	incongruent/STIM_009.jpg	100
185.088	1.004	1004.3	incongruent	Block1	incongruent/STIM_009.jpg	100
188.637	0.674	674.5	incongruent	Block1	incongruent/STIM_009.jpg	100
193.305	0.922	921.5	incongruent	Block1	incongruent/STIM_009.jpg	99
198.078	1.03	1030.0	incongruent	Block1	incongruent/STIM_009.jpg	100
201.713	1.167	1166.7	incongruent	Block1	incongruent/STIM_010.jpg	99
206.258	1.062	1061.6	incongruent	Block1	incongruent/STIM_010.jpg	99
210.703	0.702	702.5	incongruent	Block1	incongruent/STIM_010.jpg	99
215.072	0.768	767.6	incongruent	Block1	incongruent/STIM_010.jpg	99
218.477	1.038	1037.6	incongruent	Block1	incongruent/STIM_010.jpg	100
223.122	0.793	793.2	incongruent	Block1	incongruent/STIM_011.jpg	100
226.998	1.253	1253.2	incongruent	Block1	incongruent/STIM_011.jpg	100
232.035	0.637	636.6	incongruent	Block1	incongruent/STIM_011.jpg	99
235.978	0.582	581.9	incongruent	Block1	incongruent/STIM_011.jpg	100
239.618	0.968	968.4	incongruent	Block1	incongruent/STIM_011.jpg	99
244.547	1.028	1027.5	incongruent	Block1	incongruent/STIM_012.jpg	100
248.87	0.654	654.4	incongruent	Block1	incongruent/STIM_012.jpg	99
252.031	1.065	1064.9	incongruent	Block1	incongruent/STIM_012.jpg	100
256.193	1.166	1166.5	incongruent	Block1	incongruent/STIM_012.jpg	99
259.997	0.855	855.1	incongruent	Block1	incongruent/STIM_012.jpg	99
263.195	1.178	1178.0	incongruent	Block1	incongruent/STIM_013.jpg	100
267.042	1.208	1207.6	incongruent	Block1	incongruent/STIM_013.jpg	100
271.158	1.06	1060.3	incongruent	Block1	incongruent/STIM_013.jpg	99
275.026	1.035	1034.6	incongruent	Block1	incongruent/STIM_013.jpg	100
278.604	0.95	950.2	incongruent	Block1	incongruent/STIM_013.jpg	99
283.19	0.71	710.5	incongruent	Block1	incongruent/STIM_014.jpg	100
286.091	1.195	1195.2	incongruent	Block1	incongruent/STIM_014.jpg	99
290.956	1.227	1226.7	incongruent	Block1	incongruent/STIM_014.jpg	100
294.864	0.692	691.6	incongruent	Block1	incongruent/STIM_014.jpg	99
298.12	0.931	930.8	incongruent	Block1	incongruent/STIM_014.jpg	100
301.314	1.367	1366.6	incongruent	Block1	incongruent/STIM_015.jpg	99
306.29	1.101	1101.1	incongruent	Block1	incongruent/STIM_015.jpg	100
311.019	1.206	1206.4	incongruent	Block1	incongruent/STIM_015.jpg	100
314.844	1.005	1005.2	incongruent	Block1	incongruent/STIM_015.jpg	100
319.015	0.711	711.4	incongruent	Block1	incongruent/STIM_015.jpg	99
323.351	0.855	855.4	incongruent	Block1	incongruent/STIM_016.jpg	100
328.001	0.737	736.7	incongruent	Block1	incongruent/STIM_016.jpg	100
330.742	1.252	1252.1	incongruent	Block1	incongruent/STIM_016.jpg	99
335.492	1.166	1166.3	incongruent	Block1	incongruent/STIM_016.jpg	100
340.335	0.868	867.6	incongruent	Block1	incongruent/STIM_016.jpg	99
343.386	1.137	1136.7	incongruent	Block1	incongruent/STIM_017.jpg	99
347.186	0.7	700.5	incongruent	Block1	incongruent/STIM_017.jpg	99
350.884	0.686	686.0	incongruent	Block1	incongruent/STIM_017.jpg	100
354.308	1.087	1086.7	incongruent	Block1	incongruent/STIM_017.jpg	99
359.314	0.996	995.6	incongruent	Block1	incongruent/STIM_017.jpg	100
363.665	0.84	839.9	incongruent	Block1	incongruent/STIM_018.jpg	99
367.069	1.191	1190.9	incongruent	Block1	incongruent/STIM_018.jpg	99
371.402	1.275	1275.1	incongruent	Block1	incongruent/STIM_018.jpg	100
375.353	0.981	981.0	incongruent	Block1	incongruent/STIM_018.jpg	100
378.374	0.866	865.7	incongruent	Block1	incongruent/STIM_018.jpg	99
381.616	1.362	1362.1	incongruent	Block1	incongruent/STIM_019.jpg	100
385.244	1.178	1177.8	incongruent	Block1	incongruent/STIM_019.jpg	99
388.698	1.157	1156.9	incongruent	Block1	incongruent/STIM_019.jpg	99
392.145	1.046	1046.2	incongruent	Block1	incongruent/STIM_019.jpg	99
395.244	0.642	641.6	incongruent	Block1	incongruent/STIM_019.jpg	99
397.987	1.07	1070.1	incongruent	Block1	incongruent/STIM_020.jpg	99
401.646	0.816	815.6	incongruent	Block1	incongruent/STIM_020.jpg	100
405.962	0.644	644.4	incongruent	Block1	incongruent/STIM_020.jpg	100
409.404	0.893	892.9	incongruent	Block1	incongruent/STIM_020.jpg	100
414.155	0.657	656.8	incongruent	Block1	incongruent/STIM_020.jpg	99
418.004	1.336	1335.8	incongruent	Block1	incongruent/STIM_021.jpg	100
423.001	0.694	693.9	incongruent	Block1	incongruent/STIM_021.jpg	99
426.891	0.777	776.6	incongruent	Block1	incongruent/STIM_021.jpg	100
429.99	1.057	1056.6	incongruent	Block1	incongruent/STIM_021.jpg	99
434.304	1.12	1120.4	incongruent	Block1	incongruent/STIM_021.jpg	100
438.08	0.735	734.8	incongruent	Block1	incongruent/STIM_022.jpg	100
441.984	0.994	993.8	incongruent	Block1	incongruent/STIM_022.jpg	100
446.295	0.754	754.4	incongruent	Block1	incongruent/STIM_022.jpg	100
450.347	1.055	1054.6	incongruent	Block1	incongruent/STIM_022.jpg	100
454.995	0.975	975.4	incongruent	Block1	incongruent/STIM_022.jpg	100
459.839	0.808	808.2	incongruent	Block1	incongruent/STIM_023.jpg	99
463.41	0.703	702.8	incongruent	Block1	incongruent/STIM_023.jpg	99
466.435	1.04	1039.7	incongruent	Block1	incongruent/STIM_023.jpg	100
469.611	0.9	900.2	incongruent	Block1	incongruent/STIM_023.jpg	99
473.261	0.896	895.5	incongruent	Block1	incongruent/STIM_023.jpg	99
476.825	0.904	903.9	incongruent	Block1	incongruent/STIM_024.jpg	99
480.55	1.233	1232.9	incongruent	Block1	incongruent/STIM_024.jpg	99
485.662	1.131	1131.3	incongruent	Block1	incongruent/STIM_024.jpg	99
490.718	1.127	1127.4	incongruent	Block1	incongruent/STIM_024.jpg	100
495.056	0.723	723.1	incongruent	Block1	incongruent/STIM_024.jpg	100
497.967	0.692	692.3	incongruent	Block1	incongruent/STIM_025.jpg	99
501.053	1.158	1158.3	incongruent	Block1	incongruent/STIM_025.jpg	100
504.306	1.107	1107.3	incongruent	Block1	incongruent/STIM_025.jpg	99
508.636	1.064	1063.6	incongruent	Block1	incongruent/STIM_025.jpg	99
513.52	1.045	1045.0	incongruent	Block1	incongruent/STIM_025.jpg	99
516.933	0.709	709.0	incongruent	Block1	incongruent/STIM_026.jpg	100
521.214	1.249	1248.6	incongruent	Block1	incongruent/STIM_026.jpg	100
526.401	1.164	1163.5	incongruent	Block1	incongruent/STIM_026.jpg	99
529.603	0.846	845.7	incongruent	Block1	incongruent/STIM_026.jpg	99
532.834	1.097	1097.1	incongruent	Block1	incongruent/STIM_026.jpg	99
537.299	1.274	1274.5	incongruent	Block1	incongruent/STIM_027.jpg	100
540.881	1.254	1253.8	incongruent	Block1	incongruent/STIM_027.jpg	99
545.78	0.966	965.6	incongruent	Block1	incongruent/STIM_027.jpg	100
548.775	0.914	913.7	incongruent	Block1	incongruent/STIM_027.jpg	100
552.608	0.888	888.5	incongruent	Block1	incongruent/STIM_027.jpg	100
556.904	1.038	1037.7	incongruent	Block1	incongruent/STIM_028.jpg	100
561.748	0.685	685.4	incongruent	Block1	incongruent/STIM_028.jpg	100
565.177	1.132	1131.5	incongruent	Block1	incongruent/STIM_028.jpg	99
569.906	0.855	855.1	incongruent	Block1	incongruent/STIM_028.jpg	100
574.189	1.006	1006.1	incongruent	Block1	incongruent/STIM_028.jpg	100
577.957	1.148	1148.2	incongruent	Block1	incongruent/STIM_029.jpg	99
581.271	1.205	1204.8	incongruent	Block1	incongruent/STIM_029.jpg	99
585.566	0.757	756.7	incongruent	Block1	incongruent/STIM_029.jpg	100
588.348	0.862	862.1	incongruent	Block1	incongruent/STIM_029.jpg	100
593.011	1.012	1011.5	incongruent	Block1	incongruent/STIM_029.jpg	99
597.187	0.678	678.0	congruent	Block1	congruent/STIM_000.jpg	100
601.174	0.514	513.5	congruent	Block1	congruent/STIM_000.jpg	100
603.874	0.542	542.5	congruent	Block1	congruent/STIM_000.jpg	99
606.492	0.704	703.7	congruent	Block1	congruent/STIM_000.jpg	100
611.184	0.486	486.2	congruent	Block1	congruent/STIM_000.jpg	100
614.033	0.756	756.4	congruent	Block1	congruent/STIM_001.jpg	99
618.518	0.792	792.3	congruent	Block1	congruent/STIM_001.jpg	99
621.617	0.634	634.5	congruent	Block1	congruent/STIM_001.jpg	100
626.225	0.615	614.8	congruent	Block1	congruent/STIM_001.jpg	100
629.495	0.68	680.3	congruent	Block1	congruent/STIM_001.jpg	99
633.949	0.765	765.1	congruent	Block1	congruent/STIM_002.jpg	99
637.187	0.639	638.9	congruent	Block1	congruent/STIM_002.jpg	100
639.965	0.541	541.4	congruent	Block1	congruent/STIM_002.jpg	99
643.165	0.476	476.5	congruent	Block1	congruent/STIM_002.jpg	100
647.404	0.703	703.0	congruent	Block1	congruent/STIM_002.jpg	100
651.912	0.592	592.5	congruent	Block1	congruent/STIM_003.jpg	100
656.237	0.663	663.4	congruent	Block1	congruent/STIM_003.jpg	100
660.62	0.774	774.4	congruent	Block1	congruent/STIM_003.jpg	100
665.193	0.694	693.9	congruent	Block1	congruent/STIM_003.jpg	100
668.76	0.678	677.9	congruent	Block1	congruent/STIM_003.jpg	99
672.197	0.698	698.0	congruent	Block1	congruent/STIM_004.jpg	100
676.803	0.58	579.7	congruent	Block1	congruent/STIM_004.jpg	99
681.11	0.514	514.4	congruent	Block1	congruent/STIM_004.jpg	99
684.09	0.518	517.7	congruent	Block1	congruent/STIM_004.jpg	100
688.102	0.496	495.9	congruent	Block1	congruent/STIM_004.jpg	100
691.586	0.821	821.1	congruent	Block1	congruent/STIM_005.jpg	100
694.769	0.52	519.9	congruent	Block1	congruent/STIM_005.jpg	99
697.79	0.598	597.8	congruent	Block1	congruent/STIM_005.jpg	99
700.43	0.73	730.3	congruent	Block1	congruent/STIM_005.jpg	99
703.277	0.653	653.1	congruent	Block1	congruent/STIM_005.jpg	100
706.031	0.742	742.1	congruent	Block1	congruent/STIM_006.jpg	99
709.435	0.777	776.9	congruent	Block1	congruent/STIM_006.jpg	100
712.269	0.758	757.7	congruent	Block1	congruent/STIM_006.jpg	100
717.018	0.578	578.3	congruent	Block1	congruent/STIM_006.jpg	100
720.569	0.838	838.2	congruent	Block1	congruent/STIM_006.jpg	99
725.39	0.501	500.8	congruent	Block1	congruent/STIM_007.jpg	99
728.794	0.518	518.3	congruent	Block1	congruent/STIM_007.jpg	99
732.207	0.562	562.2	congruent	Block1	congruent/STIM_007.jpg	99
736.277	0.823	823.3	congruent	Block1	congruent/STIM_007.jpg	99
739.694	0.576	576.0	congruent	Block1	congruent/STIM_007.jpg	100
743.41	0.785	784.9	congruent	Block1	congruent/STIM_008.jpg	100
747.023	0.691	690.9	congruent	Block1	congruent/STIM_008.jpg	99
750.223	0.687	686.6	congruent	Block1	congruent/STIM_008.jpg	100
753.486	0.492	492.1	congruent	Block1	congruent/STIM_008.jpg	99
756.978	0.657	657.0	congruent	Block1	congruent/STIM_008.jpg	99
760.804	0.586	586.2	congruent	Block1	congruent/STIM_009.jpg	100
764.604	0.747	747.1	congruent	Block1	congruent/STIM_009.jpg	99
767.978	0.528	527.5	congruent	Block1	congruent/STIM_009.jpg	99
771.629	0.633	632.9	congruent	Block1	congruent/STIM_009.jpg	99
774.955	0.784	783.9	congruent	Block1	congruent/STIM_009.jpg	99
779.187	0.558	558.1	congruent	Block1	congruent/STIM_010.jpg	100
783.091	0.695	695.4	congruent	Block1	congruent/STIM_010.jpg	100
786.464	0.553	553.0	congruent	Block1	congruent/STIM_010.jpg	100
789.684	0.516	516.5	congruent	Block1	congruent/STIM_010.jpg	100
793.614	0.482	482.0	congruent	Block1	congruent/STIM_010.jpg	99
797.317	0.506	506.3	congruent	Block1	congruent/STIM_011.jpg	100
800.752	0.546	545.6	congruent	Block1	congruent/STIM_011.jpg	99
804.4	0.654	653.9	congruent	Block1	congruent/STIM_011.jpg	100
807.937	0.475	474.8	congruent	Block1	congruent/STIM_011.jpg	99
811.919	0.485	484.9	congruent	Block1	congruent/STIM_011.jpg	99
816.01	0.823	822.6	congruent	Block1	congruent/STIM_012.jpg	99
819.141	0.474	474.2	congruent	Block1	congruent/STIM_012.jpg	100
823.151	0.745	745.1	congruent	Block1	congruent/STIM_012.jpg	99
826.039	0.496	495.8	congruent	Block1	congruent/STIM_012.jpg	99
828.593	0.668	668.0	congruent	Block1	congruent/STIM_012.jpg	99
833.136	0.628	627.6	congruent	Block1	congruent/STIM_013.jpg	99
836.057	0.683	683.0	congruent	Block1	congruent/STIM_013.jpg	100
840.119	0.659	659.3	congruent	Block1	congruent/STIM_013.jpg	99
844.649	0.732	731.8	congruent	Block1	congruent/STIM_013.jpg	99
848.45	0.82	820.5	congruent	Block1	congruent/STIM_013.jpg	100
852.281	0.483	482.8	congruent	Block1	congruent/STIM_014.jpg	100
856.71	0.568	568.3	congruent	Block1	congruent/STIM_014.jpg	100
859.82	0.844	844.1	congruent	Block1	congruent/STIM_014.jpg	99
863.367	0.494	494.0	congruent	Block1	congruent/STIM_014.jpg	100
867.352	0.542	541.5	congruent	Block1	congruent/STIM_014.jpg	100
871.018	0.597	597.0	congruent	Block1	congruent/STIM_015.jpg	100
875.172	0.618	618.4	congruent	Block1	congruent/STIM_015.jpg	100
879.029	0.557	556.9	congruent	Block1	congruent/STIM_015.jpg	100
883.41	0.556	555.8	congruent	Block1	congruent/STIM_015.jpg	100
887.031	0.606	605.5	congruent	Block1	congruent/STIM_015.jpg	99
890.271	0.552	552.0	congruent	Block1	congruent/STIM_016.jpg	100
893.653	0.52	520.3	congruent	Block1	congruent/STIM_016.jpg	100
896.497	0.748	747.5	congruent	Block1	congruent/STIM_016.jpg	100
899.423	0.784	783.8	congruent	Block1	congruent/STIM_016.jpg	99
903.084	0.721	720.6	congruent	Block1	congruent/STIM_016.jpg	99
907.172	0.847	847.1	congruent	Block1	congruent/STIM_017.jpg	100
911.177	0.727	727.4	congruent	Block1	congruent/STIM_017.jpg	99
914.532	0.798	797.7	congruent	Block1	congruent/STIM_017.jpg	99
918.397	0.529	528.7	congruent	Block1	congruent/STIM_017.jpg	99
922.39	0.837	836.7	congruent	Block1	congruent/STIM_017.jpg	99
927.163	0.478	477.8	congruent	Block1	congruent/STIM_018.jpg	100
930.961	0.745	744.6	congruent	Block1	congruent/STIM_018.jpg	99
935.627	0.633	632.7	congruent	Block1	congruent/STIM_018.jpg	99
940.138	0.653	653.4	congruent	Block1	congruent/STIM_018.jpg	99
943.377	0.754	754.3	congruent	Block1	congruent/STIM_018.jpg	99
946.497	0.52	520.3	congruent	Block1	congruent/STIM_019.jpg	100
949.98	0.586	586.1	congruent	Block1	congruent/STIM_019.jpg	99
954.545	0.648	647.8	congruent	Block1	congruent/STIM_019.jpg	100
958.116	0.75	749.6	congruent	Block1	congruent/STIM_019.jpg	100
961.085	0.818	817.9	congruent	Block1	congruent/STIM_019.jpg	100
964.626	0.526	526.1	congruent	Block1	congruent/STIM_020.jpg	100
968.574	0.62	619.5	congruent	Block1	congruent/STIM_020.jpg	99
972.384	0.776	776.1	congruent	Block1	congruent/STIM_020.jpg	99
976.819	0.493	493.4	congruent	Block1	congruent/STIM_020.jpg	100
981.281	0.826	825.7	congruent	Block1	congruent/STIM_020.jpg	100
985.133	0.615	614.6	congruent	Block1	congruent/STIM_021.jpg	99
988.616	0.795	794.7	congruent	Block1	congruent/STIM_021.jpg	100
992.395	0.801	800.6	congruent	Block1	congruent/STIM_021.jpg	100
996.471	0.792	792.0	congruent	Block1	congruent/STIM_021.jpg	100
1000.424	0.508	508.3	congruent	Block1	congruent/STIM_021.jpg	100
1004.782	0.732	732.2	congruent	Block1	congruent/STIM_022.jpg	100
1008.15	0.802	802.1	congruent	Block1	congruent/STIM_022.jpg	99
1012.268	0.58	579.5	congruent	Block1	congruent/STIM_022.jpg	99
1015.306	0.743	742.7	congruent	Block1	congruent/STIM_022.jpg	99
1019.18	0.706	705.8	congruent	Block1	congruent/STIM_022.jpg	100
1022.238	0.812	812.3	congruent	Block1	congruent/STIM_023.jpg	99
1026.06	0.558	558.4	congruent	Block1	congruent/STIM_023.jpg	99
1030.056	0.696	695.6	congruent	Block1	congruent/STIM_023.jpg	100
1032.767	0.794	793.5	congruent	Block1	congruent/STIM_023.jpg	100
1035.796	0.836	835.7	congruent	Block1	congruent/STIM_023.jpg	100
1038.772	0.758	758.5	congruent	Block1	congruent/STIM_024.jpg	100
1042.56	0.657	657.2	congruent	Block1	congruent/STIM_024.jpg	99
1047.113	0.647	647.1	congruent	Block1	congruent/STIM_024.jpg	100
1049.882	0.827	827.2	congruent	Block1	congruent/STIM_024.jpg	100
1053.329	0.65	649.7	congruent	Block1	congruent/STIM_024.jpg	100
1056.244	0.845	844.8	congruent	Block1	congruent/STIM_025.jpg	100
1059.825	0.478	478.3	congruent	Block1	congruent/STIM_025.jpg	100
1062.433	0.744	743.8	congruent	Block1	congruent/STIM_025.jpg	99
1066.929	0.531	530.9	congruent	Block1	congruent/STIM_025.jpg	100
1070.615	0.582	582.4	congruent	Block1	congruent/STIM_025.jpg	99
1074.762	0.566	566.0	congruent	Block1	congruent/STIM_026.jpg	100
1078.058	0.503	503.5	congruent	Block1	congruent/STIM_026.jpg	100
1081.108	0.702	701.8	congruent	Block1	congruent/STIM_026.jpg	99
1085.718	0.785	785.1	congruent	Block1	congruent/STIM_026.jpg	100
1088.779	0.72	719.7	congruent	Block1	congruent/STIM_026.jpg	99
1093.081	0.795	795.4	congruent	Block1	congruent/STIM_027.jpg	100
1096.568	0.77	770.5	congruent	Block1	congruent/STIM_027.jpg	100
1100.133	0.727	727.1	congruent	Block1	congruent/STIM_027.jpg	100
1103.182	0.592	591.6	congruent	Block1	congruent/STIM_027.jpg	99
1107.065	0.841	840.7	congruent	Block1	congruent/STIM_027.jpg	100
1111.236	0.602	601.5	congruent	Block1	congruent/STIM_028.jpg	100
1115.633	0.734	733.5	congruent	Block1	congruent/STIM_028.jpg	99
1118.466	0.505	504.7	congruent	Block1	congruent/STIM_028.jpg	100
1122.422	0.717	716.7	congruent	Block1	congruent/STIM_028.jpg	99
1126.051	0.671	671.0	congruent	Block1	congruent/STIM_028.jpg	100
1130.147	0.683	683.1	congruent	Block1	congruent/STIM_029.jpg	100
1133.888	0.511	510.7	congruent	Block1	congruent/STIM_029.jpg	99
1136.871	0.516	515.8	congruent	Block1	congruent/STIM_029.jpg	99
1140.529	0.585	585.1	congruent	Block1	congruent/STIM_029.jpg	99
1143.654	0.7	699.6	congruent	Block1	congruent/STIM_029.jpg	100
1147.643	1.094	1094.0	incongruent	Block2	incongruent/STIM_000.jpg	99
1150.925	1.068	1068.0	incongruent	Block2	incongruent/STIM_000.jpg	100
1155.535	0.784	784.4	incongruent	Block2	incongruent/STIM_000.jpg	100
1158.358	0.584	584.2	incongruent	Block2	incongruent/STIM_000.jpg	99
1162.597	0.593	592.8	incongruent	Block2	incongruent/STIM_000.jpg	100
1166.261	0.724	724.1	incongruent	Block2	incongruent/STIM_001.jpg	99
1169.258	1.106	1106.1	incongruent	Block2	incongruent/STIM_001.jpg	99
1172.377	0.846	846.2	incongruent	Block2	incongruent/STIM_001.jpg	100
1176.172	0.981	980.8	incongruent	Block2	incongruent/STIM_001.jpg	100
1181.107	0.753	753.0	incongruent	Block2	incongruent/STIM_001.jpg	100
1184.433	0.706	706.0	incongruent	Block2	incongruent/STIM_002.jpg	100
1188.197	0.672	671.9	incongruent	Block2	incongruent/STIM_002.jpg	99
1191.32	0.876	875.9	incongruent	Block2	incongruent/STIM_002.jpg	100
1196.081	0.989	989.1	incongruent	Block2	incongruent/STIM_002.jpg	100
1200.22	0.502	502.4	incongruent	Block2	incongruent/STIM_002.jpg	100
1204.152	0.736	736.3	incongruent	Block2	incongruent/STIM_003.jpg	100
1207.548	0.802	801.5	incongruent	Block2	incongruent/STIM_003.jpg	99
1210.843	0.636	636.4	incongruent	Block2	incongruent/STIM_003.jpg	99
1213.915	0.91	909.9	incongruent	Block2	incongruent/STIM_003.jpg	100
1217.807	0.503	502.7	incongruent	Block2	incongruent/STIM_003.jpg	99
1221.027	0.767	766.6	incongruent	Block2	incongruent/STIM_004.jpg	100
1224.097	1.108	1108.2	incongruent	Block2	incongruent/STIM_004.jpg	100
1227.879	0.736	736.1	incongruent	Block2	incongruent/STIM_004.jpg	100
1231.417	0.915	915.0	incongruent	Block2	incongruent/STIM_004.jpg	99
1235.02	0.476	475.8	incongruent	Block2	incongruent/STIM_004.jpg	100
1239.399	0.718	718.2	incongruent	Block2	incongruent/STIM_005.jpg	99
1242.254	0.821	821.4	incongruent	Block2	incongruent/STIM_005.jpg	100
1245.109	1.033	1033.2	incongruent	Block2	incongruent/STIM_005.jpg	100
1248.581	0.68	679.8	incongruent	Block2	incongruent/STIM_005.jpg	100
1251.646	0.708	708.2	incongruent	Block2	incongruent/STIM_005.jpg	100
1254.874	1.032	1032.5	incongruent	Block2	incongruent/STIM_006.jpg	99
1259.265	0.901	901.4	incongruent	Block2	incongruent/STIM_006.jpg	99
1263.167	0.924	923.5	incongruent	Block2	incongruent/STIM_006.jpg	99
1266.319	0.611	610.9	incongruent	Block2	incongruent/STIM_006.jpg	99
1269.073	0.727	726.6	incongruent	Block2	incongruent/STIM_006.jpg	100
1273.387	0.851	851.0	incongruent	Block2	incongruent/STIM_007.jpg	99
1277.454	0.574	573.6	incongruent	Block2	incongruent/STIM_007.jpg	100
1281.697	0.884	883.6	incongruent	Block2	incongruent/STIM_007.jpg	100
1285.737	0.595	595.3	incongruent	Block2	incongruent/STIM_007.jpg	99
1288.509	0.962	961.8	incongruent	Block2	incongruent/STIM_007.jpg	100
1293.41	0.697	696.9	incongruent	Block2	incongruent/STIM_008.jpg	100
1296.2	1.129	1129.0	incongruent	Block2	incongruent/STIM_008.jpg	100
1299.74	0.88	880.5	incongruent	Block2	incongruent/STIM_008.jpg	99
1304.074	0.675	674.6	incongruent	Block2	incongruent/STIM_008.jpg	99
1307.657	0.591	590.9	incongruent	Block2	incongruent/STIM_008.jpg	100
1311.519	0.668	667.5	incongruent	Block2	incongruent/STIM_009.jpg	100
1316.154	1.022	1022.3	incongruent	Block2	incongruent/STIM_009.jpg	99
1320.559	0.784	783.6	incongruent	Block2	incongruent/STIM_009.jpg	100
1324.398	0.547	547.0	incongruent	Block2	incongruent/STIM_009.jpg	100
1328.558	0.662	661.6	incongruent	Block2	incongruent/STIM_009.jpg	100
1332.865	0.615	615.0	incongruent	Block2	incongruent/STIM_010.jpg	100
1337.118	1.038	1038.1	incongruent	Block2	incongruent/STIM_010.jpg	100
1341.913	0.507	506.8	incongruent	Block2	incongruent/STIM_010.jpg	100
1346.04	0.902	902.3	incongruent	Block2	incongruent/STIM_010.jpg	100
1349.774	0.542	542.5	incongruent	Block2	incongruent/STIM_010.jpg	100
1352.464	1.157	1157.2	incongruent	Block2	incongruent/STIM_011.jpg	99
1356.543	0.708	708.3	incongruent	Block2	incongruent/STIM_011.jpg	99
1359.886	0.872	871.6	incongruent	Block2	incongruent/STIM_011.jpg	99
1363.5	0.937	936.8	incongruent	Block2	incongruent/STIM_011.jpg	100
1368.388	0.64	640.5	incongruent	Block2	incongruent/STIM_011.jpg	99
1371.984	0.824	823.5	incongruent	Block2	incongruent/STIM_012.jpg	99
1375.766	1.125	1125.2	incongruent	Block2	incongruent/STIM_012.jpg	99
1379.486	0.692	691.9	incongruent	Block2	incongruent/STIM_012.jpg	100
1383.976	0.681	680.7	incongruent	Block2	incongruent/STIM_012.jpg	100
1387.752	0.745	745.3	incongruent	Block2	incongruent/STIM_012.jpg	99
1390.551	1.068	1067.7	incongruent	Block2	incongruent/STIM_013.jpg	100
1394.394	0.776	775.9	incongruent	Block2	incongruent/STIM_013.jpg	100
1398.033	0.938	937.8	incongruent	Block2	incongruent/STIM_013.jpg	100
1401.02	0.608	608.3	incongruent	Block2	incongruent/STIM_013.jpg	99
1404.933	0.589	588.8	incongruent	Block2	incongruent/STIM_013.jpg	99
1409.346	1.07	1070.2	incongruent	Block2	incongruent/STIM_014.jpg	100
1413.31	1.123	1123.4	incongruent	Block2	incongruent/STIM_014.jpg	99
1417.658	1.049	1048.8	incongruent	Block2	incongruent/STIM_014.jpg	100
1421.507	0.562	561.6	incongruent	Block2	incongruent/STIM_014.jpg	99
1425.007	0.991	990.8	incongruent	Block2	incongruent/STIM_014.jpg	100
1428.83	0.572	571.7	incongruent	Block2	incongruent/STIM_015.jpg	99
1432.136	0.894	893.7	incongruent	Block2	incongruent/STIM_015.jpg	99
1435.601	1.025	1025.4	incongruent	Block2	incongruent/STIM_015.jpg	100
1438.721	0.51	510.5	incongruent	Block2	incongruent/STIM_015.jpg	99
1442.294	0.496	495.8	incongruent	Block2	incongruent/STIM_015.jpg	100
1446.34	1.143	1142.9	incongruent	Block2	incongruent/STIM_016.jpg	99
1451.061	0.77	770.4	incongruent	Block2	incongruent/STIM_016.jpg	100
1455.203	0.532	532.5	incongruent	Block2	incongruent/STIM_016.jpg	99
1459.604	0.535	534.8	incongruent	Block2	incongruent/STIM_016.jpg	99
1462.719	0.72	719.5	incongruent	Block2	incongruent/STIM_016.jpg	99
1465.885	0.872	872.3	incongruent	Block2	incongruent/STIM_017.jpg	100
1470.499	0.832	831.6	incongruent	Block2	incongruent/STIM_017.jpg	99
1474.172	0.82	819.6	incongruent	Block2	incongruent/STIM_017.jpg	100
1478.311	0.99	989.6	incongruent	Block2	incongruent/STIM_017.jpg	100
1483.086	0.52	520.2	incongruent	Block2	incongruent/STIM_017.jpg	99
1487.223	0.988	988.2	incongruent	Block2	incongruent/STIM_018.jpg	99
1490.264	1.046	1046.1	incongruent	Block2	incongruent/STIM_018.jpg	100
1494.206	0.555	554.9	incongruent	Block2	incongruent/STIM_018.jpg	100
1497.722	0.483	482.6	incongruent	Block2	incongruent/STIM_018.jpg	100
1500.595	0.732	731.8	incongruent	Block2	incongruent/STIM_018.jpg	100
1503.969	1.16	1160.3	incongruent	Block2	incongruent/STIM_019.jpg	99
1507.503	0.645	644.8	incongruent	Block2	incongruent/STIM_019.jpg	100
1511.431	1.033	1032.9	incongruent	Block2	incongruent/STIM_019.jpg	99
1516.211	0.512	512.2	incongruent	Block2	incongruent/STIM_019.jpg	99
1520.582	0.919	918.9	incongruent	Block2	incongruent/STIM_019.jpg	99
1525.02	0.686	686.2	incongruent	Block2	incongruent/STIM_020.jpg	99
1528.346	0.584	583.9	incongruent	Block2	incongruent/STIM_020.jpg	99
1531.25	0.515	515.1	incongruent	Block2	incongruent/STIM_020.jpg	99
1534.18	0.695	694.7	incongruent	Block2	incongruent/STIM_020.jpg	100
1537.482	0.662	662.2	incongruent	Block2	incongruent/STIM_020.jpg	100
1542.061	1.008	1007.7	incongruent	Block2	incongruent/STIM_021.jpg	99
1545.233	0.99	989.8	incongruent	Block2	incongruent/STIM_021.jpg	100
1550.206	0.743	742.8	incongruent	Block2	incongruent/STIM_021.jpg	100
1553.894	0.904	903.9	incongruent	Block2	incongruent/STIM_021.jpg	100
1558.095	0.705	704.9	incongruent	Block2	incongruent/STIM_021.jpg	100
1561.901	1.163	1162.9	incongruent	Block2	incongruent/STIM_022.jpg	99
1566.053	0.618	617.8	incongruent	Block2	incongruent/STIM_022.jpg	99
1569.633	0.522	521.7	incongruent	Block2	incongruent/STIM_022.jpg	99
1573.124	0.629	629.0	incongruent	Block2	incongruent/STIM_022.jpg	99
1577.091	0.608	607.8	incongruent	Block2	incongruent/STIM_022.jpg	99
1581.436	0.673	672.9	incongruent	Block2	incongruent/STIM_023.jpg	99
1584.521	1.105	1105.0	incongruent	Block2	incongruent/STIM_023.jpg	99
1588.644	0.763	762.9	incongruent	Block2	incongruent/STIM_023.jpg	100
1592.466	0.886	885.6	incongruent	Block2	incongruent/STIM_023.jpg	99
1597.023	0.552	551.7	incongruent	Block2	incongruent/STIM_023.jpg	99
1600.231	1.108	1107.6	incongruent	Block2	incongruent/STIM_024.jpg	99
1603.569	1.006	1005.9	incongruent	Block2	incongruent/STIM_024.jpg	100
1607.765	0.984	983.7	incongruent	Block2	incongruent/STIM_024.jpg	100
1612.63	0.774	773.9	incongruent	Block2	incongruent/STIM_024.jpg	100
1616.169	0.69	690.5	incongruent	Block2	incongruent/STIM_024.jpg	99
1619.162	0.71	709.5	incongruent	Block2	incongruent/STIM_025.jpg	99
1621.989	1.032	1032.5	incongruent	Block2	incongruent/STIM_025.jpg	99
1626.495	0.685	685.2	incongruent	Block2	incongruent/STIM_025.jpg	99
1630.35	0.509	508.8	incongruent	Block2	incongruent/STIM_025.jpg	99
1634.12	0.84	839.7	incongruent	Block2	incongruent/STIM_025.jpg	100
1637.037	1.066	1066.3	incongruent	Block2	incongruent/STIM_026.jpg	99
1640.754	0.905	904.8	incongruent	Block2	incongruent/STIM_026.jpg	100
1645.387	1.055	1055.3	incongruent	Block2	incongruent/STIM_026.jpg	99
1650.035	0.548	548.5	incongruent	Block2	incongruent/STIM_026.jpg	100
1653.161	0.48	479.5	incongruent	Block2	incongruent/STIM_026.jpg	100
1656.265	0.598	597.5	incongruent	Block2	incongruent/STIM_027.jpg	99
1659.999	0.574	574.2	incongruent	Block2	incongruent/STIM_027.jpg	99
1663.908	0.617	617.4	incongruent	Block2	incongruent/STIM_027.jpg	100
1666.836	0.543	543.4	incongruent	Block2	incongruent/STIM_027.jpg	100
1671.108	0.585	585.4	incongruent	Block2	incongruent/STIM_027.jpg	100
1673.999	0.583	582.6	incongruent	Block2	incongruent/STIM_028.jpg	99
1677.824	0.602	602.5	incongruent	Block2	incongruent/STIM_028.jpg	99
1682.275	0.9	900.2	incongruent	Block2	incongruent/STIM_028.jpg	99
1686.834	0.524	524.0	incongruent	Block2	incongruent/STIM_028.jpg	100
1689.873	0.552	552.3	incongruent	Block2	incongruent/STIM_028.jpg	99
1694.292	1.055	1054.7	incongruent	Block2	incongruent/STIM_029.jpg	100
1697.603	0.697	696.6	incongruent	Block2	incongruent/STIM_029.jpg	100
1702.019	0.635	635.3	incongruent	Block2	incongruent/STIM_029.jpg	100
1705.636	0.718	717.6	incongruent	Block2	incongruent/STIM_029.jpg	99
1708.421	0.679	678.8	incongruent	Block2	incongruent/STIM_029.jpg	99
1711.111	0.58	580.3	congruent	Block2	congruent/STIM_000.jpg	99
1714.321	0.525	525.3	congruent	Block2	congruent/STIM_000.jpg	100
1718.031	0.679	679.3	congruent	Block2	congruent/STIM_000.jpg	100
1721.725	0.726	726.0	congruent	Block2	congruent/STIM_000.jpg	100
1724.935	0.791	790.6	congruent	Block2	congruent/STIM_000.jpg	100
1728.441	0.564	564.4	congruent	Block2	congruent/STIM_001.jpg	100
1732.506	0.71	709.9	congruent	Block2	congruent/STIM_001.jpg	100
1736.153	0.486	486.0	congruent	Block2	congruent/STIM_001.jpg	100
1740.106	0.747	747.3	congruent	Block2	congruent/STIM_001.jpg	100
1744.616	0.63	630.0	congruent	Block2	congruent/STIM_001.jpg	100
1748.889	0.775	775.0	congruent	Block2	congruent/STIM_002.jpg	99
1753.609	0.515	514.9	congruent	Block2	congruent/STIM_002.jpg	99
1757.892	0.844	843.7	congruent	Block2	congruent/STIM_002.jpg	100
1762.54	0.724	723.6	congruent	Block2	congruent/STIM_002.jpg	100
1766.624	0.738	737.9	congruent	Block2	congruent/STIM_002.jpg	100
1770.045	0.709	709.1	congruent	Block2	congruent/STIM_003.jpg	99
1774.133	0.77	770.4	congruent	Block2	congruent/STIM_003.jpg	99
1778.006	0.627	626.7	congruent	Block2	congruent/STIM_003.jpg	100
1782.344	0.563	563.0	congruent	Block2	congruent/STIM_003.jpg	100
1785.082	0.509	508.6	congruent	Block2	congruent/STIM_003.jpg	100
1789.462	0.479	479.4	congruent	Block2	congruent/STIM_004.jpg	99
1792.612	0.629	629.2	congruent	Block2	congruent/STIM_004.jpg	99
1796.015	0.744	743.5	congruent	Block2	congruent/STIM_004.jpg	99
1799.772	0.733	733.1	congruent	Block2	congruent/STIM_004.jpg	99
1803.63	0.707	706.7	congruent	Block2	congruent/STIM_004.jpg	99
1808.136	0.741	741.1	congruent	Block2	congruent/STIM_005.jpg	99
1811.895	0.775	775.1	congruent	Block2	congruent/STIM_005.jpg	99
1814.81	0.549	549.2	congruent	Block2	congruent/STIM_005.jpg	99
1817.492	0.742	741.8	congruent	Block2	congruent/STIM_005.jpg	99
1820.753	0.839	839.3	congruent	Block2	congruent/STIM_005.jpg	99
1824.198	0.652	651.8	congruent	Block2	congruent/STIM_006.jpg	99
1827.069	0.752	751.8	congruent	Block2	congruent/STIM_006.jpg	100
1830.447	0.648	647.7	congruent	Block2	congruent/STIM_006.jpg	100
1834.143	0.706	706.1	congruent	Block2	congruent/STIM_006.jpg	99
1838.416	0.716	715.9	congruent	Block2	congruent/STIM_006.jpg	99
1842.873	0.592	592.5	congruent	Block2	congruent/STIM_007.jpg	100
1845.77	0.553	553.2	congruent	Block2	congruent/STIM_007.jpg	99
1848.934	0.507	507.4	congruent	Block2	congruent/STIM_007.jpg	99
1851.706	0.81	809.5	congruent	Block2	congruent/STIM_007.jpg	100
1856.085	0.666	666.4	congruent	Block2	congruent/STIM_007.jpg	100
1858.776	0.661	661.1	congruent	Block2	congruent/STIM_008.jpg	100
1863.371	0.662	662.2	congruent	Block2	congruent/STIM_008.jpg	99
1867.134	0.668	668.1	congruent	Block2	congruent/STIM_008.jpg	99
1870.502	0.5	499.7	congruent	Block2	congruent/STIM_008.jpg	99
1874.825	0.705	705.1	congruent	Block2	congruent/STIM_008.jpg	100
1877.587	0.837	836.9	congruent	Block2	congruent/STIM_009.jpg	100
1881.163	0.505	504.8	congruent	Block2	congruent/STIM_009.jpg	100
1884.433	0.6	600.5	congruent	Block2	congruent/STIM_009.jpg	100
1888.06	0.535	534.6	congruent	Block2	congruent/STIM_009.jpg	100
1891.769	0.59	590.4	congruent	Block2	congruent/STIM_009.jpg	99
1896.354	0.708	707.8	congruent	Block2	congruent/STIM_010.jpg	99
1899.257	0.834	834.0	congruent	Block2	congruent/STIM_010.jpg	99
1902.173	0.633	633.3	congruent	Block2	congruent/STIM_010.jpg	100
1906.155	0.663	663.3	congruent	Block2	congruent/STIM_010.jpg	100
1910.701	0.552	551.8	congruent	Block2	congruent/STIM_010.jpg	99
1913.333	0.606	606.0	congruent	Block2	congruent/STIM_011.jpg	99
1916.587	0.563	563.0	congruent	Block2	congruent/STIM_011.jpg	99
1921.062	0.546	546.2	congruent	Block2	congruent/STIM_011.jpg	99
1924.596	0.477	476.9	congruent	Block2	congruent/STIM_011.jpg	100
1928.585	0.633	632.7	congruent	Block2	congruent/STIM_011.jpg	100
1931.466	0.634	633.9	congruent	Block2	congruent/STIM_012.jpg	99
1935.745	0.692	692.1	congruent	Block2	congruent/STIM_012.jpg	99
1938.458	0.602	601.9	congruent	Block2	congruent/STIM_012.jpg	100
1942.968	0.805	804.7	congruent	Block2	congruent/STIM_012.jpg	100
1946.72	0.507	506.7	congruent	Block2	congruent/STIM_012.jpg	99
1949.774	0.52	520.3	congruent	Block2	congruent/STIM_013.jpg	99
1954.067	0.68	680.3	congruent	Block2	congruent/STIM_013.jpg	100
1958.606	0.725	724.8	congruent	Block2	congruent/STIM_013.jpg	100
1961.729	0.627	627.0	congruent	Block2	congruent/STIM_013.jpg	100
1965.944	0.789	789.1	congruent	Block2	congruent/STIM_013.jpg	100
1969.943	0.633	633.0	congruent	Block2	congruent/STIM_014.jpg	100
1973.601	0.483	483.4	congruent	Block2	congruent/STIM_014.jpg	99
1976.097	0.563	562.7	congruent	Block2	congruent/STIM_014.jpg	100
1980.551	0.832	831.9	congruent	Block2	congruent/STIM_014.jpg	99
1984.34	0.683	683.4	congruent	Block2	congruent/STIM_014.jpg	99
1987.129	0.696	696.0	congruent	Block2	congruent/STIM_015.jpg	100
1990.189	0.841	841.4	congruent	Block2	congruent/STIM_015.jpg	100
1993.545	0.638	637.5	congruent	Block2	congruent/STIM_015.jpg	100
1996.427	0.504	504.3	congruent	Block2	congruent/STIM_015.jpg	99
2000.757	0.483	483.2	congruent	Block2	congruent/STIM_015.jpg	99
2003.842	0.839	838.8	congruent	Block2	congruent/STIM_016.jpg	99
2006.993	0.59	590.2	congruent	Block2	congruent/STIM_016.jpg	100
2009.819	0.535	535.0	congruent	Block2	congruent/STIM_016.jpg	100
2014.321	0.646	646.0	congruent	Block2	congruent/STIM_016.jpg	100
2018.531	0.724	724.0	congruent	Block2	congruent/STIM_016.jpg	100
2021.934	0.618	618.2	congruent	Block2	congruent/STIM_017.jpg	100
2024.713	0.65	650.2	congruent	Block2	congruent/STIM_017.jpg	100
2027.775	0.667	666.9	congruent	Block2	congruent/STIM_017.jpg	100
2032.101	0.739	738.8	congruent	Block2	congruent/STIM_017.jpg	99
2035.716	0.544	543.7	congruent	Block2	congruent/STIM_017.jpg	99
2038.628	0.606	606.0	congruent	Block2	congruent/STIM_018.jpg	99
2042.384	0.82	819.9	congruent	Block2	congruent/STIM_018.jpg	99
2046.363	0.814	813.6	congruent	Block2	congruent/STIM_018.jpg	99
2050.622	0.513	513.1	congruent	Block2	congruent/STIM_018.jpg	100
2053.26	0.648	648.0	congruent	Block2	congruent/STIM_018.jpg	100
2056.024	0.726	725.7	congruent	Block2	congruent/STIM_019.jpg	99
2060.399	0.688	688.4	congruent	Block2	congruent/STIM_019.jpg	99
2064.373	0.715	714.7	congruent	Block2	congruent/STIM_019.jpg	100
2067.779	0.754	754.3	congruent	Block2	congruent/STIM_019.jpg	99
2070.74	0.578	577.5	congruent	Block2	congruent/STIM_019.jpg	99
2074.635	0.548	548.3	congruent	Block2	congruent/STIM_020.jpg	99
2078.694	0.808	807.5	congruent	Block2	congruent/STIM_020.jpg	100
2082.311	0.572	571.6	congruent	Block2	congruent/STIM_020.jpg	99
2085.374	0.782	782.4	congruent	Block2	congruent/STIM_020.jpg	99
2089.318	0.85	850.2	congruent	Block2	congruent/STIM_020.jpg	100
2092.542	0.8	800.0	congruent	Block2	congruent/STIM_021.jpg	99
2096.967	0.597	597.0	congruent	Block2	congruent/STIM_021.jpg	99
2101.362	0.477	477.1	congruent	Block2	congruent/STIM_021.jpg	99
2105.657	0.746	745.7	congruent	Block2	congruent/STIM_021.jpg	99
2108.47	0.65	649.9	congruent	Block2	congruent/STIM_021.jpg	100
2112.584	0.812	812.5	congruent	Block2	congruent/STIM_022.jpg	100
2116.222	0.804	804.0	congruent	Block2	congruent/STIM_022.jpg	100
2120.359	0.798	797.9	congruent	Block2	congruent/STIM_022.jpg	99
2124.017	0.748	748.2	congruent	Block2	congruent/STIM_022.jpg	99
2128.269	0.628	628.4	congruent	Block2	congruent/STIM_022.jpg	100
2131.276	0.844	843.6	congruent	Block2	congruent/STIM_023.jpg	99
2134.419	0.695	695.2	congruent	Block2	congruent/STIM_023.jpg	99
2137.876	0.763	763.3	congruent	Block2	congruent/STIM_023.jpg	99
2142.243	0.511	510.9	congruent	Block2	congruent/STIM_023.jpg	99
2145.698	0.628	627.6	congruent	Block2	congruent/STIM_023.jpg	99
2150.192	0.829	828.8	congruent	Block2	congruent/STIM_024.jpg	99
2153.222	0.771	770.9	congruent	Block2	congruent/STIM_024.jpg	100
2156.29	0.664	664.4	congruent	Block2	congruent/STIM_024.jpg	99
2160.04	0.776	775.6	congruent	Block2	congruent/STIM_024.jpg	99
2163.245	0.78	779.9	congruent	Block2	congruent/STIM_024.jpg	100
2166.944	0.838	838.0	congruent	Block2	congruent/STIM_025.jpg	99
2170.37	0.63	630.3	congruent	Block2	congruent/STIM_025.jpg	99
2173.009	0.672	672.5	congruent	Block2	congruent/STIM_025.jpg	99
2176.549	0.771	770.8	congruent	Block2	congruent/STIM_025.jpg	99
2180.265	0.669	668.6	congruent	Block2	congruent/STIM_025.jpg	100
2183.556	0.488	487.5	congruent	Block2	congruent/STIM_026.jpg	99
2186.613	0.668	668.2	congruent	Block2	congruent/STIM_026.jpg	100
2189.737	0.502	502.1	congruent	Block2	congruent/STIM_026.jpg	99
2193.696	0.821	821.2	congruent	Block2	congruent/STIM_026.jpg	100
2198.3	0.503	503.0	congruent	Block2	congruent/STIM_026.jpg	100
2201.553	0.622	622.4	congruent	Block2	congruent/STIM_027.jpg	99
2204.772	0.85	849.7	congruent	Block2	congruent/STIM_027.jpg	99
2208.167	0.705	705.4	congruent	Block2	congruent/STIM_027.jpg	99
2211.412	0.596	596.2	congruent	Block2	congruent/STIM_027.jpg	100
2215.627	0.687	687.1	congruent	Block2	congruent/STIM_027.jpg	99
2218.347	0.625	624.7	congruent	Block2	congruent/STIM_028.jpg	100
2222.296	0.565	565.4	congruent	Block2	congruent/STIM_028.jpg	99
2226.317	0.532	532.3	congruent	Block2	congruent/STIM_028.jpg	99
2229.847	0.63	629.9	congruent	Block2	congruent/STIM_028.jpg	99
2232.802	0.773	773.0	congruent	Block2	congruent/STIM_028.jpg	99
2236.579	0.812	811.5	congruent	Block2	congruent/STIM_029.jpg	100
2239.523	0.666	666.5	congruent	Block2	congruent/STIM_029.jpg	99
2243.086	0.579	578.9	congruent	Block2	congruent/STIM_029.jpg	100
2245.875	0.491	491.0	congruent	Block2	congruent/STIM_029.jpg	100
2250.034	0.504	504.4	congruent	Block2	congruent/STIM_029.jpg	99
2253.275	0.906	905.8	incongruent	Block3	incongruent/STIM_000.jpg	99
2258.0	0.484	483.7	incongruent	Block3	incongruent/STIM_000.jpg	100
2262.457	0.694	693.8	incongruent	Block3	incongruent/STIM_000.jpg	99
2266.453	0.486	486.5	incongruent	Block3	incongruent/STIM_000.jpg	100
2270.894	0.937	937.3	incongruent	Block3	incongruent/STIM_000.jpg	99
2273.964	0.92	920.4	incongruent	Block3	incongruent/STIM_001.jpg	99
2277.248	0.961	961.0	incongruent	Block3	incongruent/STIM_001.jpg	100
2281.974	0.984	984.3	incongruent	Block3	incongruent/STIM_001.jpg	99
2285.897	0.518	517.6	incongruent	Block3	incongruent/STIM_001.jpg	99
2290.267	0.985	984.6	incongruent	Block3	incongruent/STIM_001.jpg	99
2294.238	0.516	515.8	incongruent	Block3	incongruent/STIM_002.jpg	99
2298.645	0.812	811.7	incongruent	Block3	incongruent/STIM_002.jpg	100
2302.411	0.736	735.6	incongruent	Block3	incongruent/STIM_002.jpg	99
2306.69	0.97	970.4	incongruent	Block3	incongruent/STIM_002.jpg	99
2311.534	0.571	570.6	incongruent	Block3	incongruent/STIM_002.jpg	99
2315.413	0.863	862.8	incongruent	Block3	incongruent/STIM_003.jpg	99
2318.621	0.854	853.5	incongruent	Block3	incongruent/STIM_003.jpg	99
2323.151	0.972	971.8	incongruent	Block3	incongruent/STIM_003.jpg	99
2326.292	0.939	939.3	incongruent	Block3	incongruent/STIM_003.jpg	99
2330.046	0.467	467.0	incongruent	Block3	incongruent/STIM_003.jpg	99
2334.417	0.95	949.8	incongruent	Block3	incongruent/STIM_004.jpg	99
2338.478	0.47	470.2	incongruent	Block3	incongruent/STIM_004.jpg	100
2341.208	0.66	659.8	incongruent	Block3	incongruent/STIM_004.jpg	100
2344.231	0.803	802.6	incongruent	Block3	incongruent/STIM_004.jpg	99
2347.475	0.734	733.8	incongruent	Block3	incongruent/STIM_004.jpg	99
2351.01	0.646	645.8	incongruent	Block3	incongruent/STIM_005.jpg	100
2355.36	0.894	893.9	incongruent	Block3	incongruent/STIM_005.jpg	100
2358.632	0.494	493.6	incongruent	Block3	incongruent/STIM_005.jpg	100
2361.708	0.816	815.5	incongruent	Block3	incongruent/STIM_005.jpg	99
2365.372	0.843	843.3	incongruent	Block3	incongruent/STIM_005.jpg	99
2368.26	0.465	465.0	incongruent	Block3	incongruent/STIM_006.jpg	100
2371.306	0.982	982.3	incongruent	Block3	incongruent/STIM_006.jpg	99
2376.089	0.721	721.2	incongruent	Block3	incongruent/STIM_006.jpg	99
2379.275	0.465	465.4	incongruent	Block3	incongruent/STIM_006.jpg	100
2383.233	0.935	935.1	incongruent	Block3	incongruent/STIM_006.jpg	100
2386.515	0.721	721.0	incongruent	Block3	incongruent/STIM_007.jpg	99
2390.923	0.969	969.2	incongruent	Block3	incongruent/STIM_007.jpg	100
2394.792	0.964	964.1	incongruent	Block3	incongruent/STIM_007.jpg	100
2399.594	0.942	941.9	incongruent	Block3	incongruent/STIM_007.jpg	100
2404.119	0.848	847.5	incongruent	Block3	incongruent/STIM_007.jpg	100
2407.46	0.818	818.1	incongruent	Block3	incongruent/STIM_008.jpg	100
2411.225	0.971	971.4	incongruent	Block3	incongruent/STIM_008.jpg	99
2415.317	0.649	648.7	incongruent	Block3	incongruent/STIM_008.jpg	100
2419.785	0.625	624.8	incongruent	Block3	incongruent/STIM_008.jpg	99
2423.931	0.811	810.7	incongruent	Block3	incongruent/STIM_008.jpg	99
2427.311	0.683	683.0	incongruent	Block3	incongruent/STIM_009.jpg	99
2430.728	0.514	514.5	incongruent	Block3	incongruent/STIM_009.jpg	100
2433.407	0.984	984.0	incongruent	Block3	incongruent/STIM_009.jpg	100
2437.544	0.519	519.3	incongruent	Block3	incongruent/STIM_009.jpg	100
2441.415	0.989	989.2	incongruent	Block3	incongruent/STIM_009.jpg	100
2444.802	0.677	677.1	incongruent	Block3	incongruent/STIM_010.jpg	99
2447.802	0.781	781.0	incongruent	Block3	incongruent/STIM_010.jpg	100
2450.947	0.82	820.2	incongruent	Block3	incongruent/STIM_010.jpg	100
2455.328	0.59	589.8	incongruent	Block3	incongruent/STIM_010.jpg	99
2459.307	0.601	600.9	incongruent	Block3	incongruent/STIM_010.jpg	100
2463.239	0.868	867.9	incongruent	Block3	incongruent/STIM_011.jpg	100
2467.78	0.531	531.3	incongruent	Block3	incongruent/STIM_011.jpg	100
2471.34	0.605	604.6	incongruent	Block3	incongruent/STIM_011.jpg	99
2475.516	0.669	669.1	incongruent	Block3	incongruent/STIM_011.jpg	99
2478.661	0.803	803.2	incongruent	Block3	incongruent/STIM_011.jpg	99
2483.065	0.861	860.7	incongruent	Block3	incongruent/STIM_012.jpg	99
2487.021	0.576	576.1	incongruent	Block3	incongruent/STIM_012.jpg	99
2489.913	0.958	958.0	incongruent	Block3	incongruent/STIM_012.jpg	100
2494.575	0.568	568.5	incongruent	Block3	incongruent/STIM_012.jpg	100
2497.865	0.617	617.4	incongruent	Block3	incongruent/STIM_012.jpg	100
2501.056	0.945	945.1	incongruent	Block3	incongruent/STIM_013.jpg	100
2504.816	0.633	633.4	incongruent	Block3	incongruent/STIM_013.jpg	99
2509.292	0.668	667.7	incongruent	Block3	incongruent/STIM_013.jpg	99
2513.376	0.821	820.8	incongruent	Block3	incongruent/STIM_013.jpg	100
2517.312	0.495	495.2	incongruent	Block3	incongruent/STIM_013.jpg	100
2520.612	0.583	582.8	incongruent	Block3	incongruent/STIM_014.jpg	100
2525.103	0.806	806.1	incongruent	Block3	incongruent/STIM_014.jpg	99
2528.381	0.577	576.8	incongruent	Block3	incongruent/STIM_014.jpg	100
2531.362	0.964	964.2	incongruent	Block3	incongruent/STIM_014.jpg	100
2534.559	0.707	707.2	incongruent	Block3	incongruent/STIM_014.jpg	99
2538.063	0.558	558.4	incongruent	Block3	incongruent/STIM_015.jpg	99
2540.696	0.817	817.1	incongruent	Block3	incongruent/STIM_015.jpg	99
2545.141	0.64	639.6	incongruent	Block3	incongruent/STIM_015.jpg	99
2548.237	0.791	791.3	incongruent	Block3	incongruent/STIM_015.jpg	100
2552.001	0.807	807.0	incongruent	Block3	incongruent/STIM_015.jpg	100
2555.048	0.67	669.6	incongruent	Block3	incongruent/STIM_016.jpg	100
2559.182	0.639	639.4	incongruent	Block3	incongruent/STIM_016.jpg	99
2562.554	0.897	897.1	incongruent	Block3	incongruent/STIM_016.jpg	100
2566.777	0.877	876.6	incongruent	Block3	incongruent/STIM_016.jpg	99
2570.841	0.868	868.2	incongruent	Block3	incongruent/STIM_016.jpg	100
2574.393	0.935	935.1	incongruent	Block3	incongruent/STIM_017.jpg	100
2577.752	0.477	477.1	incongruent	Block3	incongruent/STIM_017.jpg	99
2581.667	0.813	813.2	incongruent	Block3	incongruent/STIM_017.jpg	100
2586.099	0.943	943.2	incongruent	Block3	incongruent/STIM_017.jpg	99
2589.079	0.965	964.9	incongruent	Block3	incongruent/STIM_017.jpg	100
2592.812	0.677	676.7	incongruent	Block3	incongruent/STIM_018.jpg	100
2596.228	0.676	676.2	incongruent	Block3	incongruent/STIM_018.jpg	100
2599.661	0.747	747.0	incongruent	Block3	incongruent/STIM_018.jpg	100
2602.593	0.894	893.6	incongruent	Block3	incongruent/STIM_018.jpg	100
2607.453	0.535	535.4	incongruent	Block3	incongruent/STIM_018.jpg	100
2611.381	0.6	600.3	incongruent	Block3	incongruent/STIM_019.jpg	100
2614.252	0.644	644.3	incongruent	Block3	incongruent/STIM_019.jpg	100
2618.531	0.512	512.3	incongruent	Block3	incongruent/STIM_019.jpg	99
2622.255	0.871	871.3	incongruent	Block3	incongruent/STIM_019.jpg	99
2626.782	0.673	673.4	incongruent	Block3	incongruent/STIM_019.jpg	100
2631.27	0.942	942.1	incongruent	Block3	incongruent/STIM_020.jpg	99
2635.582	0.606	606.5	incongruent	Block3	incongruent/STIM_020.jpg	100
2639.75	0.909	909.4	incongruent	Block3	incongruent/STIM_020.jpg	100
2643.194	0.599	598.9	incongruent	Block3	incongruent/STIM_020.jpg	99
2646.639	0.693	692.9	incongruent	Block3	incongruent/STIM_020.jpg	100
2649.609	0.641	641.3	incongruent	Block3	incongruent/STIM_021.jpg	99
2652.278	0.845	844.6	incongruent	Block3	incongruent/STIM_021.jpg	100
2656.239	0.864	864.5	incongruent	Block3	incongruent/STIM_021.jpg	100
2661.009	0.749	748.6	incongruent	Block3	incongruent/STIM_021.jpg	100
2664.895	0.817	817.0	incongruent	Block3	incongruent/STIM_021.jpg	100
2668.505	0.572	571.8	incongruent	Block3	incongruent/STIM_022.jpg	99
2672.132	0.498	497.7	incongruent	Block3	incongruent/STIM_022.jpg	99
2675.905	0.719	718.6	incongruent	Block3	incongruent/STIM_022.jpg	99
2679.86	0.898	898.2	incongruent	Block3	incongruent/STIM_022.jpg	99
2683.528	0.895	895.3	incongruent	Block3	incongruent/STIM_022.jpg	100
2688.167	0.938	937.5	incongruent	Block3	incongruent/STIM_023.jpg	99
2692.329	0.858	858.4	incongruent	Block3	incongruent/STIM_023.jpg	100
2695.239	0.815	815.0	incongruent	Block3	incongruent/STIM_023.jpg	100
2699.555	0.653	652.7	incongruent	Block3	incongruent/STIM_023.jpg	100
2702.974	0.897	897.4	incongruent	Block3	incongruent/STIM_023.jpg	100
2706.041	0.596	596.4	incongruent	Block3	incongruent/STIM_024.jpg	99
2708.638	0.92	919.6	incongruent	Block3	incongruent/STIM_024.jpg	99
2713.067	0.74	740.1	incongruent	Block3	incongruent/STIM_024.jpg	99
2717.129	0.819	818.8	incongruent	Block3	incongruent/STIM_024.jpg	99
2720.026	0.663	662.7	incongruent	Block3	incongruent/STIM_024.jpg	99
2723.192	0.542	542.5	incongruent	Block3	incongruent/STIM_025.jpg	99
2726.928	0.829	829.2	incongruent	Block3	incongruent/STIM_025.jpg	99
2730.699	0.716	715.9	incongruent	Block3	incongruent/STIM_025.jpg	100
2734.716	0.75	750.5	incongruent	Block3	incongruent/STIM_025.jpg	100
2738.541	0.538	537.7	incongruent	Block3	incongruent/STIM_025.jpg	99
2741.936	0.701	701.1	incongruent	Block3	incongruent/STIM_026.jpg	100
2746.161	0.991	991.1	incongruent	Block3	incongruent/STIM_026.jpg	100
2751.069	0.985	984.6	incongruent	Block3	incongruent/STIM_026.jpg	99
2755.543	0.473	472.7	incongruent	Block3	incongruent/STIM_026.jpg	99
2759.867	0.912	912.1	incongruent	Block3	incongruent/STIM_026.jpg	100
2763.676	0.776	776.0	incongruent	Block3	incongruent/STIM_027.jpg	99
2768.261	0.528	527.6	incongruent	Block3	incongruent/STIM_027.jpg	100
2771.526	0.626	625.9	incongruent	Block3	incongruent/STIM_027.jpg	100
2775.796	0.477	477.4	incongruent	Block3	incongruent/STIM_027.jpg	100
2779.814	0.871	870.8	incongruent	Block3	incongruent/STIM_027.jpg	99
2784.36	0.841	841.2	incongruent	Block3	incongruent/STIM_028.jpg	99
2788.858	0.986	985.8	incongruent	Block3	incongruent/STIM_028.jpg	100
2792.146	0.768	768.1	incongruent	Block3	incongruent/STIM_028.jpg	100
2794.945	0.584	583.8	incongruent	Block3	incongruent/STIM_028.jpg	100
2798.553	0.978	977.5	incongruent	Block3	incongruent/STIM_028.jpg	99
2801.708	0.612	611.9	incongruent	Block3	incongruent/STIM_029.jpg	100
2805.496	0.628	628.3	incongruent	Block3	incongruent/STIM_029.jpg	99
2809.052	0.787	787.4	incongruent	Block3	incongruent/STIM_029.jpg	99
2812.037	0.475	475.1	incongruent	Block3	incongruent/STIM_029.jpg	99
2814.55	0.47	469.8	incongruent	Block3	incongruent/STIM_029.jpg	100
2818.004	0.759	758.6	congruent	Block3	congruent/STIM_000.jpg	100
2821.033	0.691	690.8	congruent	Block3	congruent/STIM_000.jpg	100
2824.545	0.577	577.1	congruent	Block3	congruent/STIM_000.jpg	99
2828.209	0.83	829.5	congruent	Block3	congruent/STIM_000.jpg	100
2832.167	0.795	795.4	congruent	Block3	congruent/STIM_000.jpg	100
2835.568	0.517	517.3	congruent	Block3	congruent/STIM_001.jpg	99
2839.519	0.731	731.4	congruent	Block3	congruent/STIM_001.jpg	100
2843.435	0.593	592.9	congruent	Block3	congruent/STIM_001.jpg	100
2847.929	0.53	530.0	congruent	Block3	congruent/STIM_001.jpg	100
2850.664	0.699	698.6	congruent	Block3	congruent/STIM_001.jpg	100
2854.411	0.526	525.7	congruent	Block3	congruent/STIM_002.jpg	100
2857.688	0.778	778.4	congruent	Block3	congruent/STIM_002.jpg	100
2861.53	0.828	827.8	congruent	Block3	congruent/STIM_002.jpg	100
2866.141	0.736	735.8	congruent	Block3	congruent/STIM_002.jpg	100
2869.75	0.765	765.4	congruent	Block3	congruent/STIM_002.jpg	99
2874.063	0.595	595.1	congruent	Block3	congruent/STIM_003.jpg	99
2878.3	0.773	773.1	congruent	Block3	congruent/STIM_003.jpg	100
2883.061	0.77	770.0	congruent	Block3	congruent/STIM_003.jpg	99
2886.692	0.636	635.9	congruent	Block3	congruent/STIM_003.jpg	100
2890.546	0.603	602.9	congruent	Block3	congruent/STIM_003.jpg	100
2894.09	0.508	507.7	congruent	Block3	congruent/STIM_004.jpg	99
2897.147	0.523	523.0	congruent	Block3	congruent/STIM_004.jpg	100
2901.19	0.769	768.6	congruent	Block3	congruent/STIM_004.jpg	100
2904.56	0.626	625.6	congruent	Block3	congruent/STIM_004.jpg	100
2908.144	0.708	707.8	congruent	Block3	congruent/STIM_004.jpg	100
2912.797	0.488	487.7	congruent	Block3	congruent/STIM_005.jpg	100
2916.701	0.672	671.5	congruent	Block3	congruent/STIM_005.jpg	100
2919.764	0.483	482.6	congruent	Block3	congruent/STIM_005.jpg	100
2922.285	0.618	617.9	congruent	Block3	congruent/STIM_005.jpg	99
2926.057	0.639	639.2	congruent	Block3	congruent/STIM_005.jpg	99
2930.013	0.737	737.4	congruent	Block3	congruent/STIM_006.jpg	99
2934.499	0.666	666.5	congruent	Block3	congruent/STIM_006.jpg	99
2938.379	0.552	551.6	congruent	Block3	congruent/STIM_006.jpg	100
2941.434	0.509	509.0	congruent	Block3	congruent/STIM_006.jpg	100
2943.971	0.604	604.2	congruent	Block3	congruent/STIM_006.jpg	100
2947.781	0.824	824.4	congruent	Block3	congruent/STIM_007.jpg	99
2951.279	0.824	824.1	congruent	Block3	congruent/STIM_007.jpg	100
2954.375	0.616	615.5	congruent	Block3	congruent/STIM_007.jpg	99
2958.398	0.776	776.5	congruent	Block3	congruent/STIM_007.jpg	99
2962.695	0.495	495.3	congruent	Block3	congruent/STIM_007.jpg	99
2965.655	0.51	510.5	congruent	Block3	congruent/STIM_008.jpg	100
2969.774	0.563	562.7	congruent	Block3	congruent/STIM_008.jpg	99
2973.544	0.525	525.4	congruent	Block3	congruent/STIM_008.jpg	100
2977.976	0.665	665.2	congruent	Block3	congruent/STIM_008.jpg	100
2981.672	0.815	814.9	congruent	Block3	congruent/STIM_008.jpg	100
2985.43	0.587	587.2	congruent	Block3	congruent/STIM_009.jpg	99
2988.09	0.719	719.1	congruent	Block3	congruent/STIM_009.jpg	100
2992.166	0.677	676.8	congruent	Block3	congruent/STIM_009.jpg	99
2995.176	0.58	579.5	congruent	Block3	congruent/STIM_009.jpg	100
2998.83	0.692	691.7	congruent	Block3	congruent/STIM_009.jpg	99
3001.921	0.674	673.8	congruent	Block3	congruent/STIM_010.jpg	99
3005.069	0.592	592.4	congruent	Block3	congruent/STIM_010.jpg	100
3008.674	0.61	609.5	congruent	Block3	congruent/STIM_010.jpg	99
3013.008	0.694	694.5	congruent	Block3	congruent/STIM_010.jpg	100
3016.815	0.57	569.6	congruent	Block3	congruent/STIM_010.jpg	100
3021.094	0.81	809.6	congruent	Block3	congruent/STIM_011.jpg	99
3024.144	0.788	788.3	congruent	Block3	congruent/STIM_011.jpg	99
3028.091	0.657	657.0	congruent	Block3	congruent/STIM_011.jpg	100
3031.935	0.666	665.8	congruent	Block3	congruent/STIM_011.jpg	99
3035.075	0.659	659.0	congruent	Block3	congruent/STIM_011.jpg	99
3037.885	0.625	624.6	congruent	Block3	congruent/STIM_012.jpg	100
3040.958	0.62	619.6	congruent	Block3	congruent/STIM_012.jpg	100
3044.632	0.58	579.6	congruent	Block3	congruent/STIM_012.jpg	100
3048.035	0.791	791.2	congruent	Block3	congruent/STIM_012.jpg	100
3051.521	0.846	846.4	congruent	Block3	congruent/STIM_012.jpg	99
3055.325	0.68	679.5	congruent	Block3	congruent/STIM_013.jpg	99
3059.258	0.764	764.1	congruent	Block3	congruent/STIM_013.jpg	100
3062.266	0.677	676.7	congruent	Block3	congruent/STIM_013.jpg	99
3066.149	0.749	748.6	congruent	Block3	congruent/STIM_013.jpg	99
3069.883	0.682	682.1	congruent	Block3	congruent/STIM_013.jpg	99
3073.898	0.488	488.0	congruent	Block3	congruent/STIM_014.jpg	99
3076.704	0.494	494.2	congruent	Block3	congruent/STIM_014.jpg	100
3080.557	0.543	543.3	congruent	Block3	congruent/STIM_014.jpg	100
3084.121	0.778	778.3	congruent	Block3	congruent/STIM_014.jpg	99
3087.886	0.624	624.3	congruent	Block3	congruent/STIM_014.jpg	99
3091.756	0.511	510.9	congruent	Block3	congruent/STIM_015.jpg	99
3095.338	0.755	755.1	congruent	Block3	congruent/STIM_015.jpg	99
3098.536	0.723	723.2	congruent	Block3	congruent/STIM_015.jpg	99
3101.449	0.649	649.2	congruent	Block3	congruent/STIM_015.jpg	99
3105.321	0.509	509.1	congruent	Block3	congruent/STIM_015.jpg	100
3108.63	0.762	761.5	congruent	Block3	congruent/STIM_016.jpg	99
3111.672	0.612	612.1	congruent	Block3	congruent/STIM_016.jpg	100
3114.432	0.794	794.0	congruent	Block3	congruent/STIM_016.jpg	99
3117.45	0.79	790.1	congruent	Block3	congruent/STIM_016.jpg	100
3120.447	0.505	505.4	congruent	Block3	congruent/STIM_016.jpg	100
3124.471	0.587	587.4	congruent	Block3	congruent/STIM_017.jpg	100
3127.969	0.603	602.7	congruent	Block3	congruent/STIM_017.jpg	99
3131.639	0.534	534.3	congruent	Block3	congruent/STIM_017.jpg	100
3134.228	0.831	830.6	congruent	Block3	congruent/STIM_017.jpg	99
3138.512	0.493	492.8	congruent	Block3	congruent/STIM_017.jpg	99
3142.435	0.84	840.2	congruent	Block3	congruent/STIM_018.jpg	100
3145.891	0.588	588.5	congruent	Block3	congruent/STIM_018.jpg	100
3150.112	0.606	606.1	congruent	Block3	congruent/STIM_018.jpg	99
3154.204	0.773	772.9	congruent	Block3	congruent/STIM_018.jpg	100
3158.41	0.642	642.5	congruent	Block3	congruent/STIM_018.jpg	99
3161.264	0.647	646.8	congruent	Block3	congruent/STIM_019.jpg	100
3164.127	0.598	597.6	congruent	Block3	congruent/STIM_019.jpg	99
3168.556	0.782	781.7	congruent	Block3	congruent/STIM_019.jpg	99
3171.87	0.624	623.5	congruent	Block3	congruent/STIM_019.jpg	99
3175.25	0.586	585.6	congruent	Block3	congruent/STIM_019.jpg	100
3179.476	0.656	656.2	congruent	Block3	congruent/STIM_020.jpg	100
3182.856	0.852	851.5	congruent	Block3	congruent/STIM_020.jpg	100
3186.277	0.627	626.6	congruent	Block3	congruent/STIM_020.jpg	99
3190.721	0.504	503.9	congruent	Block3	congruent/STIM_020.jpg	100
3193.388	0.8	799.6	congruent	Block3	congruent/STIM_020.jpg	100
3196.868	0.681	681.2	congruent	Block3	congruent/STIM_021.jpg	99
3199.708	0.696	695.6	congruent	Block3	congruent/STIM_021.jpg	100
3203.463	0.706	706.2	congruent	Block3	congruent/STIM_021.jpg	100
3208.038	0.53	530.2	congruent	Block3	congruent/STIM_021.jpg	99
3212.504	0.704	704.5	congruent	Block3	congruent/STIM_021.jpg	100
3216.842	0.672	672.1	congruent	Block3	congruent/STIM_022.jpg	100
3220.781	0.676	676.4	congruent	Block3	congruent/STIM_022.jpg	100
3224.563	0.574	574.5	congruent	Block3	congruent/STIM_022.jpg	100
3227.7	0.765	764.6	congruent	Block3	congruent/STIM_022.jpg	100
3231.629	0.816	816.3	congruent	Block3	congruent/STIM_022.jpg	100
3235.574	0.775	775.4	congruent	Block3	congruent/STIM_023.jpg	99
3240.336	0.52	519.8	congruent	Block3	congruent/STIM_023.jpg	100
3244.251	0.584	583.5	congruent	Block3	congruent/STIM_023.jpg	100
3248.485	0.837	836.8	congruent	Block3	congruent/STIM_023.jpg	100
3251.557	0.557	556.9	congruent	Block3	congruent/STIM_023.jpg	100
3254.273	0.829	828.7	congruent	Block3	congruent/STIM_024.jpg	100
3257.706	0.528	528.3	congruent	Block3	congruent/STIM_024.jpg	99
3261.224	0.846	846.3	congruent	Block3	congruent/STIM_024.jpg	99
3265.53	0.532	532.3	congruent	Block3	congruent/STIM_024.jpg	99
3268.554	0.607	606.8	congruent	Block3	congruent/STIM_024.jpg	100
3271.922	0.703	703.4	congruent	Block3	congruent/STIM_025.jpg	100
3275.202	0.484	484.3	congruent	Block3	congruent/STIM_025.jpg	99
3277.738	0.776	775.9	congruent	Block3	congruent/STIM_025.jpg	99
3280.714	0.695	694.8	congruent	Block3	congruent/STIM_025.jpg	100
3284.034	0.513	513.2	congruent	Block3	congruent/STIM_025.jpg	100
3287.582	0.526	525.6	congruent	Block3	congruent/STIM_026.jpg	99
3290.514	0.482	482.2	congruent	Block3	congruent/STIM_026.jpg	99
3294.063	0.766	766.4	congruent	Block3	congruent/STIM_026.jpg	100
3297.032	0.614	613.6	congruent	Block3	congruent/STIM_026.jpg	99
3299.951	0.507	507.3	congruent	Block3	congruent/STIM_026.jpg	100
3302.51	0.66	659.6	congruent	Block3	congruent/STIM_027.jpg	100
3305.555	0.534	533.6	congruent	Block3	congruent/STIM_027.jpg	99
3308.847	0.507	507.5	congruent	Block3	congruent/STIM_027.jpg	99
3312.834	0.622	622.0	congruent	Block3	congruent/STIM_027.jpg	100
3315.538	0.56	559.9	congruent	Block3	congruent/STIM_027.jpg	100
3319.555	0.58	580.5	congruent	Block3	congruent/STIM_028.jpg	100
3323.975	0.693	692.9	congruent	Block3	congruent/STIM_028.jpg	99
3327.953	0.738	738.5	congruent	Block3	congruent/STIM_028.jpg	99
3331.607	0.706	706.2	congruent	Block3	congruent/STIM_028.jpg	100
3335.024	0.568	568.0	congruent	Block3	congruent/STIM_028.jpg	100
3338.442	0.601	601.4	congruent	Block3	congruent/STIM_029.jpg	99
3342.741	0.822	822.0	congruent	Block3	congruent/STIM_029.jpg	99
3346.774	0.729	729.0	congruent	Block3	congruent/STIM_029.jpg	99
3349.777	0.693	693.2	congruent	Block3	congruent/STIM_029.jpg	100
3354.46	0.619	618.8	congruent	Block3	congruent/STIM_029.jpg	99
