onset	duration	accuracy_binary	trial_type	learning_stage	stimulus
0.0	1.261	1	incongruent	Block1	incongruent/STIM_000.jpg
3.439	1.498	1	incongruent	Block1	incongruent/STIM_000.jpg
7.592	0.789	1	incongruent	Block1	incongruent/STIM_000.jpg
12.32	0.85	1	incongruent	Block1	incongruent/STIM_000.jpg
15.12	1.135	1	incongruent	Block1	incongruent/STIM_000.jpg
19.691	0.827	1	incongruent	Block1	incongruent/STIM_001.jpg
22.52	1.082	1	incongruent	Block1	incongruent/STIM_001.jpg
27.118	0.886	1	incongruent	Block1	incongruent/STIM_001.jpg
29.966	1.244	1	incongruent	Block1	incongruent/STIM_001.jpg
34.41	1.062	1	incongruent	Block1	incongruent/STIM_001.jpg
37.675	1.654	1	incongruent	Block1	incongruent/STIM_002.jpg
41.219	1.516	1	incongruent	Block1	incongruent/STIM_002.jpg
45.348	1.168	0	incongruent	Block1	incongruent/STIM_002.jpg
49.381	1.055	1	incongruent	Block1	incongruent/STIM_002.jpg
53.327	0.619	1	incongruent	Block1	incongruent/STIM_002.jpg
57.241	1.52	1	incongruent	Block1	incongruent/STIM_003.jpg
62.126	1.196	1	incongruent	Block1	incongruent/STIM_003.jpg
66.162	0.842	1	incongruent	Block1	incongruent/STIM_003.jpg
69.628	1.446	1	incongruent	Block1	incongruent/STIM_003.jpg
74.373	1.117	1	incongruent	Block1	incongruent/STIM_003.jpg
78.64	1.358	1	incongruent	Block1	incongruent/STIM_004.jpg
82.092	1.525	1	incongruent	Block1	incongruent/STIM_004.jpg
87.067	1.266	1	incongruent	Block1	incongruent/STIM_004.jpg
90.181	1.326	1	incongruent	Block1	incongruent/STIM_004.jpg
93.656	1.34	1	incongruent	Block1	incongruent/STIM_004.jpg
97.329	1.31	1	incongruent	Block1	incongruent/STIM_005.jpg
101.664	1.458	1	incongruent	Block1	incongruent/STIM_005.jpg
106.135	1.032	1	incongruent	Block1	incongruent/STIM_005.jpg
110.0	0.851	1	incongruent	Block1	incongruent/STIM_005.jpg
114.557	0.939	1	incongruent	Block1	incongruent/STIM_005.jpg
118.367	0.943	0	incongruent	Block1	incongruent/STIM_006.jpg
121.29	1.058	1	incongruent	Block1	incongruent/STIM_006.jpg
124.756	1.132	1	incongruent	Block1	incongruent/STIM_006.jpg
127.966	0.758	1	incongruent	Block1	incongruent/STIM_006.jpg
132.393	1.21	1	incongruent	Block1	incongruent/STIM_006.jpg
136.737	1.251	1	incongruent	Block1	incongruent/STIM_007.jpg
140.247	0.867	1	incongruent	Block1	incongruent/STIM_007.jpg
144.512	1.474	1	incongruent	Block1	incongruent/STIM_007.jpg
149.394	0.93	1	incongruent	Block1	incongruent/STIM_007.jpg
153.509	1.217	1	incongruent	Block1	incongruent/STIM_007.jpg
157.842	0.958	1	incongruent	Block1	incongruent/STIM_008.jpg
161.84	1.472	1	incongruent	Block1	incongruent/STIM_008.jpg
166.045	1.068	1	incongruent	Block1	incongruent/STIM_008.jpg
169.173	0.798	1	incongruent	Block1	incongruent/STIM_008.jpg
173.467	1.404	1	incongruent	Block1	incongruent/STIM_008.jpg
178.03	1.63	1	incongruent	Block1	incongruent/STIM_009.jpg
182.747	1.577	1	incongruent	Block1	incongruent/STIM_009.jpg
186.963	1.008	1	incongruent	Block1	incongruent/STIM_009.jpg
190.392	1.514	1	incongruent	Block1	incongruent/STIM_009.jpg
193.927	1.25	1	incongruent	Block1	incongruent/STIM_009.jpg
198.217	1.605	1	incongruent	Block1	incongruent/STIM_010.jpg
203.035	1.639	1	incongruent	Block1	incongruent/STIM_010.jpg
206.656	1.372	1	incongruent	Block1	incongruent/STIM_010.jpg
211.071	1.336	1	incongruent	Block1	incongruent/STIM_010.jpg
214.482	0.778	1	incongruent	Block1	incongruent/STIM_010.jpg
217.65	1.638	1	incongruent	Block1	incongruent/STIM_011.jpg
221.405	1.377	1	incongruent	Block1	incongruent/STIM_011.jpg
225.497	0.793	1	incongruent	Block1	incongruent/STIM_011.jpg
229.415	0.776	1	incongruent	Block1	incongruent/STIM_011.jpg
232.259	1.149	0	incongruent	Block1	incongruent/STIM_011.jpg
237.137	1.426	1	incongruent	Block1	incongruent/STIM_012.jpg
241.215	1.17	0	incongruent	Block1	incongruent/STIM_012.jpg
246.018	1.223	1	incongruent	Block1	incongruent/STIM_012.jpg
250.202	1.12	0	incongruent	Block1	incongruent/STIM_012.jpg
254.308	1.059	0	incongruent	Block1	incongruent/STIM_012.jpg
258.985	1.228	1	incongruent	Block1	incongruent/STIM_013.jpg
263.957	1.272	1	incongruent	Block1	incongruent/STIM_013.jpg
268.818	1.334	1	incongruent	Block1	incongruent/STIM_013.jpg
272.71	1.178	1	incongruent	Block1	incongruent/STIM_013.jpg
275.991	0.784	0	incongruent	Block1	incongruent/STIM_013.jpg
279.288	0.926	1	incongruent	Block1	incongruent/STIM_014.jpg
283.36	1.38	0	incongruent	Block1	incongruent/STIM_014.jpg
287.251	1.236	1	incongruent	Block1	incongruent/STIM_014.jpg
290.521	0.836	1	incongruent	Block1	incongruent/STIM_014.jpg
293.293	0.81	1	incongruent	Block1	incongruent/STIM_014.jpg
297.995	0.989	1	incongruent	Block1	incongruent/STIM_015.jpg
301.625	1.515	1	incongruent	Block1	incongruent/STIM_015.jpg
306.285	1.392	1	incongruent	Block1	incongruent/STIM_015.jpg
309.675	1.233	1	incongruent	Block1	incongruent/STIM_015.jpg
314.498	1.226	1	incongruent	Block1	incongruent/STIM_015.jpg
318.634	1.221	1	incongruent	Block1	incongruent/STIM_016.jpg
323.306	0.859	1	incongruent	Block1	incongruent/STIM_016.jpg
326.268	1.527	1	incongruent	Block1	incongruent/STIM_016.jpg
330.369	1.502	1	incongruent	Block1	incongruent/STIM_016.jpg
334.061	0.84	1	incongruent	Block1	incongruent/STIM_016.jpg
338.494	1.426	1	incongruent	Block1	incongruent/STIM_017.jpg
343.123	0.948	0	incongruent	Block1	incongruent/STIM_017.jpg
347.908	0.83	1	incongruent	Block1	incongruent/STIM_017.jpg
351.514	0.883	1	incongruent	Block1	incongruent/STIM_017.jpg
354.802	1.274	1	incongruent	Block1	incongruent/STIM_017.jpg
359.611	0.856	1	incongruent	Block1	incongruent/STIM_018.jpg
364.048	0.912	1	incongruent	Block1	incongruent/STIM_018.jpg
367.646	0.935	1	incongruent	Block1	incongruent/STIM_018.jpg
371.455	0.694	1	incongruent	Block1	incongruent/STIM_018.jpg
375.093	1.194	1	incongruent	Block1	incongruent/STIM_018.jpg
378.728	1.257	1	incongruent	Block1	incongruent/STIM_019.jpg
383.228	1.218	1	incongruent	Block1	incongruent/STIM_019.jpg
388.102	0.7	1	incongruent	Block1	incongruent/STIM_019.jpg
391.956	1.272	1	incongruent	Block1	incongruent/STIM_019.jpg
396.383	1.13	1	incongruent	Block1	incongruent/STIM_019.jpg
399.679	1.269	1	incongruent	Block1	incongruent/STIM_020.jpg
403.614	1.128	1	incongruent	Block1	incongruent/STIM_020.jpg
406.807	0.987	1	incongruent	Block1	incongruent/STIM_020.jpg
411.393	1.351	1	incongruent	Block1	incongruent/STIM_020.jpg
414.968	1.271	1	incongruent	Block1	incongruent/STIM_020.jpg
418.938	0.932	1	incongruent	Block1	incongruent/STIM_021.jpg
422.882	1.195	1	incongruent	Block1	incongruent/STIM_021.jpg
426.9	0.859	1	incongruent	Block1	incongruent/STIM_021.jpg
429.951	0.942	1	incongruent	Block1	incongruent/STIM_021.jpg
434.177	0.776	1	incongruent	Block1	incongruent/STIM_021.jpg
437.441	1.077	1	incongruent	Block1	incongruent/STIM_022.jpg
441.81	1.235	1	incongruent	Block1	incongruent/STIM_022.jpg
445.897	1.005	1	incongruent	Block1	incongruent/STIM_022.jpg
450.412	0.869	1	incongruent	Block1	incongruent/STIM_022.jpg
454.311	0.671	0	incongruent	Block1	incongruent/STIM_022.jpg
458.792	0.872	1	incongruent	Block1	incongruent/STIM_023.jpg
462.931	1.549	1	incongruent	Block1	incongruent/STIM_023.jpg
466.973	1.275	1	incongruent	Block1	incongruent/STIM_023.jpg
471.055	1.2	1	incongruent	Block1	incongruent/STIM_023.jpg
475.875	0.942	1	incongruent	Block1	incongruent/STIM_023.jpg
479.411	1.539	1	incongruent	Block1	incongruent/STIM_024.jpg
483.382	0.932	1	incongruent	Block1	incongruent/STIM_024.jpg
487.02	1.622	1	incongruent	Block1	incongruent/STIM_024.jpg
490.802	1.203	1	incongruent	Block1	incongruent/STIM_024.jpg
494.714	1.221	1	incongruent	Block1	incongruent/STIM_024.jpg
498.732	0.898	1	incongruent	Block1	incongruent/STIM_025.jpg
502.216	1.462	1	incongruent	Block1	incongruent/STIM_025.jpg
507.283	1.061	1	incongruent	Block1	incongruent/STIM_025.jpg
510.847	0.981	1	incongruent	Block1	incongruent/STIM_025.jpg
514.518	1.069	1	incongruent	Block1	incongruent/STIM_025.jpg
518.536	0.894	1	incongruent	Block1	incongruent/STIM_026.jpg
522.071	0.941	1	incongruent	Block1	incongruent/STIM_026.jpg
526.859	1.32	1	incongruent	Block1	incongruent/STIM_026.jpg
531.419	0.942	1	incongruent	Block1	incongruent/STIM_026.jpg
534.549	1.181	1	incongruent	Block1	incongruent/STIM_026.jpg
537.969	1.182	1	incongruent	Block1	incongruent/STIM_027.jpg
540.977	1.543	1	incongruent	Block1	incongruent/STIM_027.jpg
546.327	0.863	1	incongruent	Block1	incongruent/STIM_027.jpg
550.899	1.414	1	incongruent	Block1	incongruent/STIM_027.jpg
556.074	1.069	1	incongruent	Block1	incongruent/STIM_027.jpg
560.44	0.98	1	incongruent	Block1	incongruent/STIM_028.jpg
563.418	1.158	0	incongruent	Block1	incongruent/STIM_028.jpg
567.8	1.142	1	incongruent	Block1	incongruent/STIM_028.jpg
571.544	0.796	1	incongruent	Block1	incongruent/STIM_028.jpg
575.535	0.869	1	incongruent	Block1	incongruent/STIM_028.jpg
578.345	0.797	1	incongruent	Block1	incongruent/STIM_029.jpg
582.597	1.65	1	incongruent	Block1	incongruent/STIM_029.jpg
586.264	0.852	1	incongruent	Block1	incongruent/STIM_029.jpg
589.589	1.216	1	incongruent	Block1	incongruent/STIM_029.jpg
593.313	1.344	1	incongruent	Block1	incongruent/STIM_029.jpg
596.723	0.498	1	congruent	Block1	congruent/STIM_000.jpg
600.671	0.672	1	congruent	Block1	congruent/STIM_000.jpg
604.327	0.586	1	congruent	Block1	congruent/STIM_000.jpg
608.084	0.962	1	congruent	Block1	congruent/STIM_000.jpg
612.733	0.949	1	congruent	Block1	congruent/STIM_000.jpg
617.13	0.82	1	congruent	Block1	congruent/STIM_001.jpg
620.524	0.947	1	congruent	Block1	congruent/STIM_001.jpg
623.587	0.931	1	congruent	Block1	congruent/STIM_001.jpg
626.784	0.745	1	congruent	Block1	congruent/STIM_001.jpg
630.023	1.003	1	congruent	Block1	congruent/STIM_001.jpg
633.083	1.005	1	congruent	Block1	congruent/STIM_002.jpg
637.165	0.863	1	congruent	Block1	congruent/STIM_002.jpg
641.662	0.675	1	congruent	Block1	congruent/STIM_002.jpg
645.284	0.644	1	congruent	Block1	congruent/STIM_002.jpg
648.735	1.018	1	congruent	Block1	congruent/STIM_002.jpg
653.477	0.956	1	congruent	Block1	congruent/STIM_003.jpg
657.051	0.92	0	congruent	Block1	congruent/STIM_003.jpg
661.773	0.948	1	congruent	Block1	congruent/STIM_003.jpg
665.456	0.682	1	congruent	Block1	congruent/STIM_003.jpg
669.785	0.829	1	congruent	Block1	congruent/STIM_003.jpg
673.682	0.678	0	congruent	Block1	congruent/STIM_004.jpg
678.116	0.86	1	congruent	Block1	congruent/STIM_004.jpg
681.735	0.856	1	congruent	Block1	congruent/STIM_004.jpg
684.959	0.897	1	congruent	Block1	congruent/STIM_004.jpg
687.958	0.698	1	congruent	Block1	congruent/STIM_004.jpg
690.628	0.695	1	congruent	Block1	congruent/STIM_005.jpg
693.359	0.798	1	congruent	Block1	congruent/STIM_005.jpg
696.904	0.605	1	congruent	Block1	congruent/STIM_005.jpg
701.512	0.865	1	congruent	Block1	congruent/STIM_005.jpg
704.52	0.654	1	congruent	Block1	congruent/STIM_005.jpg
707.867	0.859	1	congruent	Block1	congruent/STIM_006.jpg
711.051	0.738	1	congruent	Block1	congruent/STIM_006.jpg
714.896	0.801	1	congruent	Block1	congruent/STIM_006.jpg
717.71	0.785	1	congruent	Block1	congruent/STIM_006.jpg
721.333	0.564	1	congruent	Block1	congruent/STIM_006.jpg
725.623	0.763	1	congruent	Block1	congruent/STIM_007.jpg
729.047	0.714	1	congruent	Block1	congruent/STIM_007.jpg
733.04	0.792	1	congruent	Block1	congruent/STIM_007.jpg
737.14	0.825	1	congruent	Block1	congruent/STIM_007.jpg
740.046	0.797	1	congruent	Block1	congruent/STIM_007.jpg
743.327	0.858	1	congruent	Block1	congruent/STIM_008.jpg
746.697	0.722	1	congruent	Block1	congruent/STIM_008.jpg
749.405	0.725	1	congruent	Block1	congruent/STIM_008.jpg
752.858	0.918	1	congruent	Block1	congruent/STIM_008.jpg
757.18	1.01	1	congruent	Block1	congruent/STIM_008.jpg
760.933	0.863	1	congruent	Block1	congruent/STIM_009.jpg
765.467	0.671	1	congruent	Block1	congruent/STIM_009.jpg
769.418	0.692	1	congruent	Block1	congruent/STIM_009.jpg
773.607	0.767	1	congruent	Block1	congruent/STIM_009.jpg
777.353	0.751	1	congruent	Block1	congruent/STIM_009.jpg
781.72	0.79	1	congruent	Block1	congruent/STIM_010.jpg
785.323	0.989	1	congruent	Block1	congruent/STIM_010.jpg
789.024	0.786	1	congruent	Block1	congruent/STIM_010.jpg
792.572	0.548	1	congruent	Block1	congruent/STIM_010.jpg
795.748	0.71	1	congruent	Block1	congruent/STIM_010.jpg
799.597	0.938	1	congruent	Block1	congruent/STIM_011.jpg
803.622	0.85	1	congruent	Block1	congruent/STIM_011.jpg
807.669	0.82	1	congruent	Block1	congruent/STIM_011.jpg
812.003	0.665	1	congruent	Block1	congruent/STIM_011.jpg
814.885	0.706	1	congruent	Block1	congruent/STIM_011.jpg
817.8	0.636	1	congruent	Block1	congruent/STIM_012.jpg
821.747	0.792	1	congruent	Block1	congruent/STIM_012.jpg
824.708	1.024	1	congruent	Block1	congruent/STIM_012.jpg
828.46	0.917	1	congruent	Block1	congruent/STIM_012.jpg
833.042	0.573	1	congruent	Block1	congruent/STIM_012.jpg
837.114	0.72	1	congruent	Block1	congruent/STIM_013.jpg
841.158	0.569	1	congruent	Block1	congruent/STIM_013.jpg
844.465	0.673	1	congruent	Block1	congruent/STIM_013.jpg
847.029	0.932	1	congruent	Block1	congruent/STIM_013.jpg
851.559	0.652	1	congruent	Block1	congruent/STIM_013.jpg
854.422	0.602	1	congruent	Block1	congruent/STIM_014.jpg
857.867	0.553	1	congruent	Block1	congruent/STIM_014.jpg
862.39	0.618	1	congruent	Block1	congruent/STIM_014.jpg
866.314	0.902	1	congruent	Block1	congruent/STIM_014.jpg
870.961	0.698	1	congruent	Block1	congruent/STIM_014.jpg
875.103	0.722	1	congruent	Block1	congruent/STIM_015.jpg
879.214	0.841	1	congruent	Block1	congruent/STIM_015.jpg
882.222	0.697	1	congruent	Block1	congruent/STIM_015.jpg
884.804	0.591	1	congruent	Block1	congruent/STIM_015.jpg
887.837	0.688	1	congruent	Block1	congruent/STIM_015.jpg
892.445	0.842	1	congruent	Block1	congruent/STIM_016.jpg
895.322	0.721	1	congruent	Block1	congruent/STIM_016.jpg
898.381	0.832	1	congruent	Block1	congruent/STIM_016.jpg
901.943	0.885	0	congruent	Block1	congruent/STIM_016.jpg
905.835	0.677	1	congruent	Block1	congruent/STIM_016.jpg
909.681	0.958	1	congruent	Block1	congruent/STIM_017.jpg
913.275	1.079	1	congruent	Block1	congruent/STIM_017.jpg
917.07	0.93	1	congruent	Block1	congruent/STIM_017.jpg
920.426	0.938	1	congruent	Block1	congruent/STIM_017.jpg
923.918	0.644	1	congruent	Block1	congruent/STIM_017.jpg
927.365	0.94	1	congruent	Block1	congruent/STIM_018.jpg
931.65	0.823	1	congruent	Block1	congruent/STIM_018.jpg
934.561	0.964	0	congruent	Block1	congruent/STIM_018.jpg
937.95	0.745	1	congruent	Block1	congruent/STIM_018.jpg
941.361	0.732	1	congruent	Block1	congruent/STIM_018.jpg
944.335	0.858	1	congruent	Block1	congruent/STIM_019.jpg
947.49	0.71	1	congruent	Block1	congruent/STIM_019.jpg
951.308	0.637	1	congruent	Block1	congruent/STIM_019.jpg
955.112	0.758	0	congruent	Block1	congruent/STIM_019.jpg
959.32	0.944	1	congruent	Block1	congruent/STIM_019.jpg
964.081	0.635	1	congruent	Block1	congruent/STIM_020.jpg
968.015	0.63	1	congruent	Block1	congruent/STIM_020.jpg
972.368	0.915	1	congruent	Block1	congruent/STIM_020.jpg
975.943	0.916	1	congruent	Block1	congruent/STIM_020.jpg
979.984	0.71	1	congruent	Block1	congruent/STIM_020.jpg
984.125	0.711	1	congruent	Block1	congruent/STIM_021.jpg
988.326	0.994	1	congruent	Block1	congruent/STIM_021.jpg
992.499	0.595	1	congruent	Block1	congruent/STIM_021.jpg
997.1	0.788	1	congruent	Block1	congruent/STIM_021.jpg
1001.359	0.678	1	congruent	Block1	congruent/STIM_021.jpg
1004.758	0.795	1	congruent	Block1	congruent/STIM_022.jpg
1007.686	0.963	1	congruent	Block1	congruent/STIM_022.jpg
1010.736	0.806	1	congruent	Block1	congruent/STIM_022.jpg
1014.951	0.725	1	congruent	Block1	congruent/STIM_022.jpg
1018.258	0.983	0	congruent	Block1	congruent/STIM_022.jpg
1021.134	1.01	1	congruent	Block1	congruent/STIM_023.jpg
1025.002	0.705	1	congruent	Block1	congruent/STIM_023.jpg
1027.819	1.013	1	congruent	Block1	congruent/STIM_023.jpg
1031.844	0.958	1	congruent	Block1	congruent/STIM_023.jpg
1036.621	0.607	1	congruent	Block1	congruent/STIM_023.jpg
1040.05	0.825	1	congruent	Block1	congruent/STIM_024.jpg
1043.544	0.808	1	congruent	Block1	congruent/STIM_024.jpg
1048.213	0.909	1	congruent	Block1	congruent/STIM_024.jpg
1052.917	0.88	1	congruent	Block1	congruent/STIM_024.jpg
1055.674	0.776	1	congruent	Block1	congruent/STIM_024.jpg
1059.966	0.852	1	congruent	Block1	congruent/STIM_025.jpg
1062.849	0.91	1	congruent	Block1	congruent/STIM_025.jpg
1066.913	0.727	1	congruent	Block1	congruent/STIM_025.jpg
1070.779	0.672	1	congruent	Block1	congruent/STIM_025.jpg
1075.007	0.964	1	congruent	Block1	congruent/STIM_025.jpg
1079.093	0.756	1	congruent	Block1	congruent/STIM_026.jpg
1082.832	0.731	1	congruent	Block1	congruent/STIM_026.jpg
1086.125	0.525	1	congruent	Block1	congruent/STIM_026.jpg
1089.865	0.566	1	congruent	Block1	congruent/STIM_026.jpg
1092.779	0.603	1	congruent	Block1	congruent/STIM_026.jpg
1096.268	0.617	1	congruent	Block1	congruent/STIM_027.jpg
1100.501	0.89	0	congruent	Block1	congruent/STIM_027.jpg
1104.111	0.738	1	congruent	Block1	congruent/STIM_027.jpg
1108.283	0.99	1	congruent	Block1	congruent/STIM_027.jpg
1112.451	0.707	1	congruent	Block1	congruent/STIM_027.jpg
1116.825	0.647	0	congruent	Block1	congruent/STIM_028.jpg
1120.778	0.828	1	congruent	Block1	congruent/STIM_028.jpg
1123.934	0.724	1	congruent	Block1	congruent/STIM_028.jpg
1127.167	0.84	1	congruent	Block1	congruent/STIM_028.jpg
1130.571	0.647	1	congruent	Block1	congruent/STIM_028.jpg
1134.311	0.676	1	congruent	Block1	congruent/STIM_029.jpg
1138.263	0.697	1	congruent	Block1	congruent/STIM_029.jpg
1141.285	0.842	1	congruent	Block1	congruent/STIM_029.jpg
1144.72	0.929	1	congruent	Block1	congruent/STIM_029.jpg
1149.158	0.798	1	congruent	Block1	congruent/STIM_029.jpg
1152.569	0.815	1	incongruent	Block2	incongruent/STIM_000.jpg
1156.839	0.715	1	incongruent	Block2	incongruent/STIM_000.jpg
1160.482	1.038	1	incongruent	Block2	incongruent/STIM_000.jpg
1164.84	1.222	1	incongruent	Block2	incongruent/STIM_000.jpg
1169.838	0.959	1	incongruent	Block2	incongruent/STIM_000.jpg
1173.046	1.303	1	incongruent	Block2	incongruent/STIM_001.jpg
1177.847	1.224	1	incongruent	Block2	incongruent/STIM_001.jpg
1182.809	1.151	1	incongruent	Block2	incongruent/STIM_001.jpg
1186.758	0.866	1	incongruent	Block2	incongruent/STIM_001.jpg
1189.778	0.678	1	incongruent	Block2	incongruent/STIM_001.jpg
1193.013	1.168	1	incongruent	Block2	incongruent/STIM_002.jpg
1197.276	0.987	1	incongruent	Block2	incongruent/STIM_002.jpg
1201.614	1.086	1	incongruent	Block2	incongruent/STIM_002.jpg
1205.356	0.747	1	incongruent	Block2	incongruent/STIM_002.jpg
1208.13	1.118	1	incongruent	Block2	incongruent/STIM_002.jpg
1212.343	1.238	1	incongruent	Block2	incongruent/STIM_003.jpg
1217.145	1.003	0	incongruent	Block2	incongruent/STIM_003.jpg
1220.707	0.608	1	incongruent	Block2	incongruent/STIM_003.jpg
1224.927	0.614	1	incongruent	Block2	incongruent/STIM_003.jpg
1227.55	0.566	1	incongruent	Block2	incongruent/STIM_003.jpg
1230.953	0.915	1	incongruent	Block2	incongruent/STIM_004.jpg
1234.994	1.05	1	incongruent	Block2	incongruent/STIM_004.jpg
1238.47	0.763	1	incongruent	Block2	incongruent/STIM_004.jpg
1241.415	0.623	1	incongruent	Block2	incongruent/STIM_004.jpg
1244.462	0.548	1	incongruent	Block2	incongruent/STIM_004.jpg
1248.506	1.161	1	incongruent	Block2	incongruent/STIM_005.jpg
1253.206	1.247	1	incongruent	Block2	incongruent/STIM_005.jpg
1258.241	0.917	0	incongruent	Block2	incongruent/STIM_005.jpg
1261.524	0.964	1	incongruent	Block2	incongruent/STIM_005.jpg
1264.905	0.818	1	incongruent	Block2	incongruent/STIM_005.jpg
1268.143	0.828	1	incongruent	Block2	incongruent/STIM_006.jpg
1271.018	0.852	1	incongruent	Block2	incongruent/STIM_006.jpg
1273.902	0.889	1	incongruent	Block2	incongruent/STIM_006.jpg
1277.168	1.01	1	incongruent	Block2	incongruent/STIM_006.jpg
1280.605	0.61	1	incongruent	Block2	incongruent/STIM_006.jpg
1283.598	1.222	1	incongruent	Block2	incongruent/STIM_007.jpg
1288.25	1.268	1	incongruent	Block2	incongruent/STIM_007.jpg
1291.402	0.582	1	incongruent	Block2	incongruent/STIM_007.jpg
1295.47	1.018	0	incongruent	Block2	incongruent/STIM_007.jpg
1299.734	1.167	1	incongruent	Block2	incongruent/STIM_007.jpg
1303.026	0.965	1	incongruent	Block2	incongruent/STIM_008.jpg
1306.774	1.321	1	incongruent	Block2	incongruent/STIM_008.jpg
1310.462	0.866	1	incongruent	Block2	incongruent/STIM_008.jpg
1313.306	0.876	1	incongruent	Block2	incongruent/STIM_008.jpg
1316.82	1.072	1	incongruent	Block2	incongruent/STIM_008.jpg
1320.968	0.904	1	incongruent	Block2	incongruent/STIM_009.jpg
1324.045	1.34	1	incongruent	Block2	incongruent/STIM_009.jpg
1328.055	1.163	1	incongruent	Block2	incongruent/STIM_009.jpg
1331.075	0.688	1	incongruent	Block2	incongruent/STIM_009.jpg
1334.697	0.946	1	incongruent	Block2	incongruent/STIM_009.jpg
1338.34	0.673	1	incongruent	Block2	incongruent/STIM_010.jpg
1341.466	0.666	1	incongruent	Block2	incongruent/STIM_010.jpg
1345.672	1.191	1	incongruent	Block2	incongruent/STIM_010.jpg
1350.344	0.731	1	incongruent	Block2	incongruent/STIM_010.jpg
1353.179	0.56	1	incongruent	Block2	incongruent/STIM_010.jpg
1357.586	1.358	1	incongruent	Block2	incongruent/STIM_011.jpg
1362.65	0.569	1	incongruent	Block2	incongruent/STIM_011.jpg
1365.826	1.297	1	incongruent	Block2	incongruent/STIM_011.jpg
1369.439	1.07	1	incongruent	Block2	incongruent/STIM_011.jpg
1373.921	0.587	1	incongruent	Block2	incongruent/STIM_011.jpg
1376.483	1.039	1	incongruent	Block2	incongruent/STIM_012.jpg
1379.933	0.821	1	incongruent	Block2	incongruent/STIM_012.jpg
1383.199	0.832	1	incongruent	Block2	incongruent/STIM_012.jpg
1387.148	0.938	1	incongruent	Block2	incongruent/STIM_012.jpg
1390.575	0.991	1	incongruent	Block2	incongruent/STIM_012.jpg
1393.801	1.042	1	incongruent	Block2	incongruent/STIM_013.jpg
1396.835	0.908	1	incongruent	Block2	incongruent/STIM_013.jpg
1401.213	0.64	1	incongruent	Block2	incongruent/STIM_013.jpg
1404.116	0.606	1	incongruent	Block2	incongruent/STIM_013.jpg
1408.591	0.666	1	incongruent	Block2	incongruent/STIM_013.jpg
1412.746	0.722	1	incongruent	Block2	incongruent/STIM_014.jpg
1416.753	0.882	1	incongruent	Block2	incongruent/STIM_014.jpg
1421.079	1.133	1	incongruent	Block2	incongruent/STIM_014.jpg
1425.568	0.534	1	incongruent	Block2	incongruent/STIM_014.jpg
1428.87	1.153	1	incongruent	Block2	incongruent/STIM_014.jpg
1432.373	1.093	1	incongruent	Block2	incongruent/STIM_015.jpg
1436.019	1.292	1	incongruent	Block2	incongruent/STIM_015.jpg
1440.697	1.34	1	incongruent	Block2	incongruent/STIM_015.jpg
1443.859	1.177	1	incongruent	Block2	incongruent/STIM_015.jpg
1447.055	1.092	1	incongruent	Block2	incongruent/STIM_015.jpg
1451.612	0.949	1	incongruent	Block2	incongruent/STIM_016.jpg
1455.829	1.064	1	incongruent	Block2	incongruent/STIM_016.jpg
1460.498	0.584	1	incongruent	Block2	incongruent/STIM_016.jpg
1463.646	0.759	1	incongruent	Block2	incongruent/STIM_016.jpg
1467.714	0.666	1	incongruent	Block2	incongruent/STIM_016.jpg
1472.129	0.727	1	incongruent	Block2	incongruent/STIM_017.jpg
1476.765	1.022	1	incongruent	Block2	incongruent/STIM_017.jpg
1480.24	0.858	1	incongruent	Block2	incongruent/STIM_017.jpg
1484.458	0.618	1	incongruent	Block2	incongruent/STIM_017.jpg
1488.525	0.872	1	incongruent	Block2	incongruent/STIM_017.jpg
1492.8	1.48	1	incongruent	Block2	incongruent/STIM_018.jpg
1497.176	1.351	1	incongruent	Block2	incongruent/STIM_018.jpg
1500.564	1.008	1	incongruent	Block2	incongruent/STIM_018.jpg
1504.593	0.703	1	incongruent	Block2	incongruent/STIM_018.jpg
1507.66	1.036	1	incongruent	Block2	incongruent/STIM_018.jpg
1510.705	1.444	1	incongruent	Block2	incongruent/STIM_019.jpg
1514.347	1.335	1	incongruent	Block2	incongruent/STIM_019.jpg
1517.76	1.01	1	incongruent	Block2	incongruent/STIM_019.jpg
1520.984	0.81	1	incongruent	Block2	incongruent/STIM_019.jpg
1525.662	0.88	1	incongruent	Block2	incongruent/STIM_019.jpg
1529.458	0.752	1	incongruent	Block2	incongruent/STIM_020.jpg
1532.931	1.1	1	incongruent	Block2	incongruent/STIM_020.jpg
1536.745	1.187	1	incongruent	Block2	incongruent/STIM_020.jpg
1541.671	0.727	1	incongruent	Block2	incongruent/STIM_020.jpg
1545.851	1.001	1	incongruent	Block2	incongruent/STIM_020.jpg
1549.783	1.119	1	incongruent	Block2	incongruent/STIM_021.jpg
1554.239	0.625	1	incongruent	Block2	incongruent/STIM_021.jpg
1557.039	1.222	1	incongruent	Block2	incongruent/STIM_021.jpg
1560.163	0.689	1	incongruent	Block2	incongruent/STIM_021.jpg
1563.67	1.046	1	incongruent	Block2	incongruent/STIM_021.jpg
1567.622	1.136	1	incongruent	Block2	incongruent/STIM_022.jpg
1571.912	1.081	1	incongruent	Block2	incongruent/STIM_022.jpg
1575.666	0.84	1	incongruent	Block2	incongruent/STIM_022.jpg
1580.095	0.983	1	incongruent	Block2	incongruent/STIM_022.jpg
1583.732	0.592	1	incongruent	Block2	incongruent/STIM_022.jpg
1587.078	1.19	0	incongruent	Block2	incongruent/STIM_023.jpg
1590.737	0.98	1	incongruent	Block2	incongruent/STIM_023.jpg
1594.919	1.14	1	incongruent	Block2	incongruent/STIM_023.jpg
1598.369	0.98	1	incongruent	Block2	incongruent/STIM_023.jpg
1602.052	0.919	1	incongruent	Block2	incongruent/STIM_023.jpg
1605.914	0.971	1	incongruent	Block2	incongruent/STIM_024.jpg
1610.145	1.45	1	incongruent	Block2	incongruent/STIM_024.jpg
1613.923	1.202	1	incongruent	Block2	incongruent/STIM_024.jpg
1618.656	0.714	1	incongruent	Block2	incongruent/STIM_024.jpg
1622.244	0.966	1	incongruent	Block2	incongruent/STIM_024.jpg
1625.664	0.958	0	incongruent	Block2	incongruent/STIM_025.jpg
1630.108	0.893	1	incongruent	Block2	incongruent/STIM_025.jpg
1633.882	0.74	1	incongruent	Block2	incongruent/STIM_025.jpg
1637.485	1.009	1	incongruent	Block2	incongruent/STIM_025.jpg
1640.771	1.077	1	incongruent	Block2	incongruent/STIM_025.jpg
1645.313	1.037	0	incongruent	Block2	incongruent/STIM_026.jpg
1649.196	0.611	1	incongruent	Block2	incongruent/STIM_026.jpg
1653.305	0.775	1	incongruent	Block2	incongruent/STIM_026.jpg
1656.255	0.522	1	incongruent	Block2	incongruent/STIM_026.jpg
1660.329	0.521	1	incongruent	Block2	incongruent/STIM_026.jpg
1664.194	0.994	1	incongruent	Block2	incongruent/STIM_027.jpg
1668.051	1.357	1	incongruent	Block2	incongruent/STIM_027.jpg
1671.695	1.283	1	incongruent	Block2	incongruent/STIM_027.jpg
1675.15	1.216	1	incongruent	Block2	incongruent/STIM_027.jpg
1678.767	1.104	1	incongruent	Block2	incongruent/STIM_027.jpg
1682.685	0.77	1	incongruent	Block2	incongruent/STIM_028.jpg
1686.145	1.236	1	incongruent	Block2	incongruent/STIM_028.jpg
1690.792	1.227	1	incongruent	Block2	incongruent/STIM_028.jpg
1694.567	0.788	1	incongruent	Block2	incongruent/STIM_028.jpg
1699.215	1.073	1	incongruent	Block2	incongruent/STIM_028.jpg
1703.037	1.339	1	incongruent	Block2	incongruent/STIM_029.jpg
1706.677	1.156	1	incongruent	Block2	incongruent/STIM_029.jpg
1709.688	0.706	1	incongruent	Block2	incongruent/STIM_029.jpg
1712.636	1.15	1	incongruent	Block2	incongruent/STIM_029.jpg
1716.041	0.947	1	incongruent	Block2	incongruent/STIM_029.jpg
1719.411	0.587	1	congruent	Block2	congruent/STIM_000.jpg
1723.531	0.91	1	congruent	Block2	congruent/STIM_000.jpg
1727.711	0.984	1	congruent	Block2	congruent/STIM_000.jpg
1732.185	0.96	1	congruent	Block2	congruent/STIM_000.jpg
1736.426	0.7	1	congruent	Block2	congruent/STIM_000.jpg
1740.826	0.581	1	congruent	Block2	congruent/STIM_001.jpg
1744.874	0.508	1	congruent	Block2	congruent/STIM_001.jpg
1748.129	1.05	1	congruent	Block2	congruent/STIM_001.jpg
1751.414	0.712	1	congruent	Block2	congruent/STIM_001.jpg
1755.856	0.712	1	congruent	Block2	congruent/STIM_001.jpg
1758.619	0.99	1	congruent	Block2	congruent/STIM_002.jpg
1762.972	0.956	1	congruent	Block2	congruent/STIM_002.jpg
1766.402	0.674	1	congruent	Block2	congruent/STIM_002.jpg
1769.484	0.86	0	congruent	Block2	congruent/STIM_002.jpg
1772.845	0.83	1	congruent	Block2	congruent/STIM_002.jpg
1777.376	0.856	1	congruent	Block2	congruent/STIM_003.jpg
1781.425	0.856	1	congruent	Block2	congruent/STIM_003.jpg
1785.955	0.687	1	congruent	Block2	congruent/STIM_003.jpg
1790.04	0.656	0	congruent	Block2	congruent/STIM_003.jpg
1792.777	1.004	1	congruent	Block2	congruent/STIM_003.jpg
1796.874	0.73	1	congruent	Block2	congruent/STIM_004.jpg
1800.89	0.888	1	congruent	Block2	congruent/STIM_004.jpg
1804.282	1.002	1	congruent	Block2	congruent/STIM_004.jpg
1807.885	0.626	1	congruent	Block2	congruent/STIM_004.jpg
1810.885	0.715	1	congruent	Block2	congruent/STIM_004.jpg
1815.276	0.667	1	congruent	Block2	congruent/STIM_005.jpg
1818.275	0.919	1	congruent	Block2	congruent/STIM_005.jpg
1821.967	0.908	1	congruent	Block2	congruent/STIM_005.jpg
1826.307	0.895	1	congruent	Block2	congruent/STIM_005.jpg
1829.586	0.9	1	congruent	Block2	congruent/STIM_005.jpg
1833.615	0.788	1	congruent	Block2	congruent/STIM_006.jpg
1837.935	0.605	1	congruent	Block2	congruent/STIM_006.jpg
1842.437	1.031	1	congruent	Block2	congruent/STIM_006.jpg
1845.823	0.803	1	congruent	Block2	congruent/STIM_006.jpg
1850.305	0.853	0	congruent	Block2	congruent/STIM_006.jpg
1853.126	0.695	1	congruent	Block2	congruent/STIM_007.jpg
1857.677	0.786	1	congruent	Block2	congruent/STIM_007.jpg
1861.604	0.648	1	congruent	Block2	congruent/STIM_007.jpg
1865.291	0.62	1	congruent	Block2	congruent/STIM_007.jpg
1868.442	0.954	1	congruent	Block2	congruent/STIM_007.jpg
1871.857	0.618	1	congruent	Block2	congruent/STIM_008.jpg
1875.943	0.707	1	congruent	Block2	congruent/STIM_008.jpg
1879.822	0.974	1	congruent	Block2	congruent/STIM_008.jpg
1884.312	0.804	1	congruent	Block2	congruent/STIM_008.jpg
1888.713	0.82	1	congruent	Block2	congruent/STIM_008.jpg
1891.921	0.664	1	congruent	Block2	congruent/STIM_009.jpg
1894.82	0.717	1	congruent	Block2	congruent/STIM_009.jpg
1898.981	0.74	1	congruent	Block2	congruent/STIM_009.jpg
1902.766	0.682	1	congruent	Block2	congruent/STIM_009.jpg
1906.3	0.742	1	congruent	Block2	congruent/STIM_009.jpg
1909.258	1.06	1	congruent	Block2	congruent/STIM_010.jpg
1914.055	0.682	1	congruent	Block2	congruent/STIM_010.jpg
1918.008	0.975	1	congruent	Block2	congruent/STIM_010.jpg
1921.737	0.646	1	congruent	Block2	congruent/STIM_010.jpg
1925.674	0.85	1	congruent	Block2	congruent/STIM_010.jpg
1929.438	0.938	1	congruent	Block2	congruent/STIM_011.jpg
1932.866	0.932	1	congruent	Block2	congruent/STIM_011.jpg
1937.619	0.63	1	congruent	Block2	congruent/STIM_011.jpg
1941.684	0.694	1	congruent	Block2	congruent/STIM_011.jpg
1945.758	0.672	1	congruent	Block2	congruent/STIM_011.jpg
1948.719	0.818	1	congruent	Block2	congruent/STIM_012.jpg
1952.476	0.898	1	congruent	Block2	congruent/STIM_012.jpg
1956.476	0.844	1	congruent	Block2	congruent/STIM_012.jpg
1960.7	0.947	1	congruent	Block2	congruent/STIM_012.jpg
1964.229	0.49	1	congruent	Block2	congruent/STIM_012.jpg
1968.721	0.727	1	congruent	Block2	congruent/STIM_013.jpg
1973.325	0.611	1	congruent	Block2	congruent/STIM_013.jpg
1977.723	0.698	1	congruent	Block2	congruent/STIM_013.jpg
1981.722	0.784	1	congruent	Block2	congruent/STIM_013.jpg
1986.152	0.667	1	congruent	Block2	congruent/STIM_013.jpg
1989.369	1.044	1	congruent	Block2	congruent/STIM_014.jpg
1993.442	0.558	1	congruent	Block2	congruent/STIM_014.jpg
1995.981	0.679	1	congruent	Block2	congruent/STIM_014.jpg
1999.825	0.92	1	congruent	Block2	congruent/STIM_014.jpg
2003.491	0.723	1	congruent	Block2	congruent/STIM_014.jpg
2007.378	0.87	1	congruent	Block2	congruent/STIM_015.jpg
2010.986	0.999	1	congruent	Block2	congruent/STIM_015.jpg
2015.334	0.782	1	congruent	Block2	congruent/STIM_015.jpg
2019.602	0.858	0	congruent	Block2	congruent/STIM_015.jpg
2022.712	1.009	1	congruent	Block2	congruent/STIM_015.jpg
2027.466	0.879	1	congruent	Block2	congruent/STIM_016.jpg
2030.637	0.888	1	congruent	Block2	congruent/STIM_016.jpg
2034.645	0.803	1	congruent	Block2	congruent/STIM_016.jpg
2038.815	0.956	1	congruent	Block2	congruent/STIM_016.jpg
2041.711	1.016	1	congruent	Block2	congruent/STIM_016.jpg
2046.529	0.948	0	congruent	Block2	congruent/STIM_017.jpg
2050.433	1.027	1	congruent	Block2	congruent/STIM_017.jpg
2053.316	0.982	1	congruent	Block2	congruent/STIM_017.jpg
2056.588	0.612	1	congruent	Block2	congruent/STIM_017.jpg
2059.143	0.595	1	congruent	Block2	congruent/STIM_017.jpg
2062.424	0.966	1	congruent	Block2	congruent/STIM_018.jpg
2067.076	0.618	1	congruent	Block2	congruent/STIM_018.jpg
2070.4	0.88	1	congruent	Block2	congruent/STIM_018.jpg
2074.164	0.782	1	congruent	Block2	congruent/STIM_018.jpg
2077.726	0.76	0	congruent	Block2	congruent/STIM_018.jpg
2080.963	0.639	1	congruent	Block2	congruent/STIM_019.jpg
2084.593	0.803	1	congruent	Block2	congruent/STIM_019.jpg
2087.795	0.943	1	congruent	Block2	congruent/STIM_019.jpg
2091.514	0.752	1	congruent	Block2	congruent/STIM_019.jpg
2095.822	0.711	1	congruent	Block2	congruent/STIM_019.jpg
2098.84	0.906	1	congruent	Block2	congruent/STIM_020.jpg
2102.626	0.808	1	congruent	Block2	congruent/STIM_020.jpg
2105.524	0.601	1	congruent	Block2	congruent/STIM_020.jpg
2108.19	0.614	1	congruent	Block2	congruent/STIM_020.jpg
2110.739	0.795	1	congruent	Block2	congruent/STIM_020.jpg
2113.729	0.682	1	congruent	Block2	congruent/STIM_021.jpg
2117.78	1.087	0	congruent	Block2	congruent/STIM_021.jpg
2122.452	0.916	1	congruent	Block2	congruent/STIM_021.jpg
2125.801	0.776	1	congruent	Block2	congruent/STIM_021.jpg
2128.827	0.701	1	congruent	Block2	congruent/STIM_021.jpg
2133.091	0.873	1	congruent	Block2	congruent/STIM_022.jpg
2137.573	0.925	1	congruent	Block2	congruent/STIM_022.jpg
2140.959	0.625	1	congruent	Block2	congruent/STIM_022.jpg
2143.905	1.14	1	congruent	Block2	congruent/STIM_022.jpg
2148.426	0.927	1	congruent	Block2	congruent/STIM_022.jpg
2151.363	0.861	1	congruent	Block2	congruent/STIM_023.jpg
2155.787	1.085	1	congruent	Block2	congruent/STIM_023.jpg
2160.346	1.009	1	congruent	Block2	congruent/STIM_023.jpg
2164.977	0.547	1	congruent	Block2	congruent/STIM_023.jpg
2169.125	0.889	1	congruent	Block2	congruent/STIM_023.jpg
2173.487	0.937	1	congruent	Block2	congruent/STIM_024.jpg
2178.133	0.971	1	congruent	Block2	congruent/STIM_024.jpg
2181.508	0.795	1	congruent	Block2	congruent/STIM_024.jpg
2184.467	0.859	1	congruent	Block2	congruent/STIM_024.jpg
2188.7	0.573	1	congruent	Block2	congruent/STIM_024.jpg
2192.632	0.636	1	congruent	Block2	congruent/STIM_025.jpg
2195.206	0.875	1	congruent	Block2	congruent/STIM_025.jpg
2198.283	1.011	1	congruent	Block2	congruent/STIM_025.jpg
2202.074	0.642	1	congruent	Block2	congruent/STIM_025.jpg
2205.887	0.983	1	congruent	Block2	congruent/STIM_025.jpg
2210.389	1.041	1	congruent	Block2	congruent/STIM_026.jpg
2214.333	0.624	1	congruent	Block2	congruent/STIM_026.jpg
2218.339	0.855	1	congruent	Block2	congruent/STIM_026.jpg
2221.56	0.639	1	congruent	Block2	congruent/STIM_026.jpg
2225.909	0.703	1	congruent	Block2	congruent/STIM_026.jpg
2230.307	0.848	1	congruent	Block2	congruent/STIM_027.jpg
2233.734	0.624	1	congruent	Block2	congruent/STIM_027.jpg
2237.888	0.558	1	congruent	Block2	congruent/STIM_027.jpg
2241.513	0.861	1	congruent	Block2	congruent/STIM_027.jpg
2245.002	0.964	1	congruent	Block2	congruent/STIM_027.jpg
2248.904	0.587	0	congruent	Block2	congruent/STIM_028.jpg
2252.583	0.89	1	congruent	Block2	congruent/STIM_028.jpg
2256.416	0.813	1	congruent	Block2	congruent/STIM_028.jpg
2261.11	1.046	1	congruent	Block2	congruent/STIM_028.jpg
2264.734	0.494	1	congruent	Block2	congruent/STIM_028.jpg
2269.176	0.678	0	congruent	Block2	congruent/STIM_029.jpg
2273.32	0.772	1	congruent	Block2	congruent/STIM_029.jpg
2276.662	1.0	1	congruent	Block2	congruent/STIM_029.jpg
2279.639	0.75	1	congruent	Block2	congruent/STIM_029.jpg
2283.664	0.595	1	congruent	Block2	congruent/STIM_029.jpg
2286.328	0.664	1	incongruent	Block3	incongruent/STIM_000.jpg
2290.751	0.977	1	incongruent	Block3	incongruent/STIM_000.jpg
2294.79	0.795	1	incongruent	Block3	incongruent/STIM_000.jpg
2298.571	0.859	1	incongruent	Block3	incongruent/STIM_000.jpg
2302.716	0.725	1	incongruent	Block3	incongruent/STIM_000.jpg
2307.065	0.526	1	incongruent	Block3	incongruent/STIM_001.jpg
2310.429	1.107	1	incongruent	Block3	incongruent/STIM_001.jpg
2314.82	0.739	1	incongruent	Block3	incongruent/STIM_001.jpg
2318.256	0.716	1	incongruent	Block3	incongruent/STIM_001.jpg
2321.683	0.921	1	incongruent	Block3	incongruent/STIM_001.jpg
2325.208	0.682	1	incongruent	Block3	incongruent/STIM_002.jpg
2328.252	0.639	1	incongruent	Block3	incongruent/STIM_002.jpg
2332.29	0.678	1	incongruent	Block3	incongruent/STIM_002.jpg
2335.057	0.983	1	incongruent	Block3	incongruent/STIM_002.jpg
2338.016	0.841	1	incongruent	Block3	incongruent/STIM_002.jpg
2341.953	0.725	1	incongruent	Block3	incongruent/STIM_003.jpg
2345.337	0.893	1	incongruent	Block3	incongruent/STIM_003.jpg
2348.626	1.2	1	incongruent	Block3	incongruent/STIM_003.jpg
2352.745	0.997	1	incongruent	Block3	incongruent/STIM_003.jpg
2357.575	1.13	1	incongruent	Block3	incongruent/STIM_003.jpg
2361.23	0.74	1	incongruent	Block3	incongruent/STIM_004.jpg
2365.297	0.656	1	incongruent	Block3	incongruent/STIM_004.jpg
2368.533	1.118	1	incongruent	Block3	incongruent/STIM_004.jpg
2371.974	0.674	1	incongruent	Block3	incongruent/STIM_004.jpg
2375.954	1.104	1	incongruent	Block3	incongruent/STIM_004.jpg
2379.219	0.948	1	incongruent	Block3	incongruent/STIM_005.jpg
2383.557	1.057	1	incongruent	Block3	incongruent/STIM_005.jpg
2386.568	0.846	1	incongruent	Block3	incongruent/STIM_005.jpg
2391.137	0.833	1	incongruent	Block3	incongruent/STIM_005.jpg
2395.473	0.63	1	incongruent	Block3	incongruent/STIM_005.jpg
2398.138	1.042	1	incongruent	Block3	incongruent/STIM_006.jpg
2402.61	0.651	1	incongruent	Block3	incongruent/STIM_006.jpg
2405.226	0.857	1	incongruent	Block3	incongruent/STIM_006.jpg
2408.605	0.788	1	incongruent	Block3	incongruent/STIM_006.jpg
2411.48	0.699	1	incongruent	Block3	incongruent/STIM_006.jpg
2414.752	1.036	1	incongruent	Block3	incongruent/STIM_007.jpg
2418.918	0.789	1	incongruent	Block3	incongruent/STIM_007.jpg
2423.187	1.166	1	incongruent	Block3	incongruent/STIM_007.jpg
2426.272	1.247	1	incongruent	Block3	incongruent/STIM_007.jpg
2429.333	1.13	1	incongruent	Block3	incongruent/STIM_007.jpg
2432.763	1.172	1	incongruent	Block3	incongruent/STIM_008.jpg
2436.265	1.077	1	incongruent	Block3	incongruent/STIM_008.jpg
2439.928	0.666	1	incongruent	Block3	incongruent/STIM_008.jpg
2444.464	0.998	1	incongruent	Block3	incongruent/STIM_008.jpg
2449.263	0.63	1	incongruent	Block3	incongruent/STIM_008.jpg
2451.967	0.674	1	incongruent	Block3	incongruent/STIM_009.jpg
2455.267	0.834	1	incongruent	Block3	incongruent/STIM_009.jpg
2459.125	1.051	1	incongruent	Block3	incongruent/STIM_009.jpg
2462.593	0.67	1	incongruent	Block3	incongruent/STIM_009.jpg
2465.562	1.184	1	incongruent	Block3	incongruent/STIM_009.jpg
2469.769	0.518	0	incongruent	Block3	incongruent/STIM_010.jpg
2474.202	1.1	1	incongruent	Block3	incongruent/STIM_010.jpg
2479.082	0.854	1	incongruent	Block3	incongruent/STIM_010.jpg
2483.505	0.841	1	incongruent	Block3	incongruent/STIM_010.jpg
2486.862	0.95	1	incongruent	Block3	incongruent/STIM_010.jpg
2489.768	0.784	1	incongruent	Block3	incongruent/STIM_011.jpg
2492.971	0.739	1	incongruent	Block3	incongruent/STIM_011.jpg
2496.992	0.908	1	incongruent	Block3	incongruent/STIM_011.jpg
2500.57	0.865	1	incongruent	Block3	incongruent/STIM_011.jpg
2504.16	0.483	1	incongruent	Block3	incongruent/STIM_011.jpg
2507.736	0.919	1	incongruent	Block3	incongruent/STIM_012.jpg
2512.444	0.786	1	incongruent	Block3	incongruent/STIM_012.jpg
2516.344	0.524	1	incongruent	Block3	incongruent/STIM_012.jpg
2520.787	0.662	1	incongruent	Block3	incongruent/STIM_012.jpg
2524.717	1.149	1	incongruent	Block3	incongruent/STIM_012.jpg
2528.498	0.611	1	incongruent	Block3	incongruent/STIM_013.jpg
2531.691	0.795	1	incongruent	Block3	incongruent/STIM_013.jpg
2535.822	0.96	1	incongruent	Block3	incongruent/STIM_013.jpg
2538.816	1.116	1	incongruent	Block3	incongruent/STIM_013.jpg
2543.047	1.199	1	incongruent	Block3	incongruent/STIM_013.jpg
2546.822	0.987	1	incongruent	Block3	incongruent/STIM_014.jpg
2550.24	1.21	1	incongruent	Block3	incongruent/STIM_014.jpg
2553.187	0.952	1	incongruent	Block3	incongruent/STIM_014.jpg
2557.62	1.061	1	incongruent	Block3	incongruent/STIM_014.jpg
2562.158	0.735	1	incongruent	Block3	incongruent/STIM_014.jpg
2566.124	0.595	1	incongruent	Block3	incongruent/STIM_015.jpg
2569.55	0.689	1	incongruent	Block3	incongruent/STIM_015.jpg
2572.658	1.182	1	incongruent	Block3	incongruent/STIM_015.jpg
2576.898	0.871	1	incongruent	Block3	incongruent/STIM_015.jpg
2580.951	0.777	1	incongruent	Block3	incongruent/STIM_015.jpg
2584.663	1.128	1	incongruent	Block3	incongruent/STIM_016.jpg
2589.397	1.13	1	incongruent	Block3	incongruent/STIM_016.jpg
2593.056	0.713	1	incongruent	Block3	incongruent/STIM_016.jpg
2597.499	0.955	1	incongruent	Block3	incongruent/STIM_016.jpg
2601.151	0.642	1	incongruent	Block3	incongruent/STIM_016.jpg
2605.171	1.018	1	incongruent	Block3	incongruent/STIM_017.jpg
2608.439	1.109	1	incongruent	Block3	incongruent/STIM_017.jpg
2612.879	0.746	1	incongruent	Block3	incongruent/STIM_017.jpg
2617.255	0.834	1	incongruent	Block3	incongruent/STIM_017.jpg
2620.735	0.787	1	incongruent	Block3	incongruent/STIM_017.jpg
2625.243	1.238	1	incongruent	Block3	incongruent/STIM_018.jpg
2629.713	0.982	1	incongruent	Block3	incongruent/STIM_018.jpg
2634.173	0.846	1	incongruent	Block3	incongruent/STIM_018.jpg
2638.249	0.677	1	incongruent	Block3	incongruent/STIM_018.jpg
2641.472	1.139	1	incongruent	Block3	incongruent/STIM_018.jpg
2644.524	1.031	1	incongruent	Block3	incongruent/STIM_019.jpg
2648.405	0.865	1	incongruent	Block3	incongruent/STIM_019.jpg
2652.381	0.993	1	incongruent	Block3	incongruent/STIM_019.jpg
2656.203	0.705	1	incongruent	Block3	incongruent/STIM_019.jpg
2658.861	1.159	1	incongruent	Block3	incongruent/STIM_019.jpg
2663.247	0.737	1	incongruent	Block3	incongruent/STIM_020.jpg
2667.358	1.092	1	incongruent	Block3	incongruent/STIM_020.jpg
2671.136	0.688	1	incongruent	Block3	incongruent/STIM_020.jpg
2674.684	0.605	1	incongruent	Block3	incongruent/STIM_020.jpg
2678.88	0.918	1	incongruent	Block3	incongruent/STIM_020.jpg
2681.767	0.784	1	incongruent	Block3	incongruent/STIM_021.jpg
2686.067	1.113	1	incongruent	Block3	incongruent/STIM_021.jpg
2690.544	0.6	1	incongruent	Block3	incongruent/STIM_021.jpg
2693.707	0.831	1	incongruent	Block3	incongruent/STIM_021.jpg
2697.907	1.107	1	incongruent	Block3	incongruent/STIM_021.jpg
2701.616	0.843	1	incongruent	Block3	incongruent/STIM_022.jpg
2705.419	0.971	1	incongruent	Block3	incongruent/STIM_022.jpg
2709.313	0.765	1	incongruent	Block3	incongruent/STIM_022.jpg
2712.502	0.978	1	incongruent	Block3	incongruent/STIM_022.jpg
2716.347	0.974	1	incongruent	Block3	incongruent/STIM_022.jpg
2720.343	0.862	1	incongruent	Block3	incongruent/STIM_023.jpg
2724.581	0.815	0	incongruent	Block3	incongruent/STIM_023.jpg
2729.021	0.889	1	incongruent	Block3	incongruent/STIM_023.jpg
2731.919	0.798	1	incongruent	Block3	incongruent/STIM_023.jpg
2734.596	0.785	1	incongruent	Block3	incongruent/STIM_023.jpg
2737.65	0.612	1	incongruent	Block3	incongruent/STIM_024.jpg
2741.913	0.699	1	incongruent	Block3	incongruent/STIM_024.jpg
2746.178	0.868	1	incongruent	Block3	incongruent/STIM_024.jpg
2749.224	0.974	1	incongruent	Block3	incongruent/STIM_024.jpg
2753.058	0.532	1	incongruent	Block3	incongruent/STIM_024.jpg
2755.987	0.683	1	incongruent	Block3	incongruent/STIM_025.jpg
2759.207	0.606	1	incongruent	Block3	incongruent/STIM_025.jpg
2763.157	0.687	1	incongruent	Block3	incongruent/STIM_025.jpg
2766.177	1.04	1	incongruent	Block3	incongruent/STIM_025.jpg
2771.094	0.77	1	incongruent	Block3	incongruent/STIM_025.jpg
2774.552	1.034	1	incongruent	Block3	incongruent/STIM_026.jpg
2777.985	1.08	1	incongruent	Block3	incongruent/STIM_026.jpg
2781.864	0.93	1	incongruent	Block3	incongruent/STIM_026.jpg
2784.981	1.055	1	incongruent	Block3	incongruent/STIM_026.jpg
2788.882	1.137	1	incongruent	Block3	incongruent/STIM_026.jpg
2792.334	0.781	1	incongruent	Block3	incongruent/STIM_027.jpg
2795.627	0.75	1	incongruent	Block3	incongruent/STIM_027.jpg
2800.154	0.947	1	incongruent	Block3	incongruent/STIM_027.jpg
2804.363	1.044	1	incongruent	Block3	incongruent/STIM_027.jpg
2808.502	1.102	1	incongruent	Block3	incongruent/STIM_027.jpg
2812.826	1.164	1	incongruent	Block3	incongruent/STIM_028.jpg
2817.608	1.144	1	incongruent	Block3	incongruent/STIM_028.jpg
2821.841	0.67	1	incongruent	Block3	incongruent/STIM_028.jpg
2826.069	0.645	1	incongruent	Block3	incongruent/STIM_028.jpg
2828.745	0.939	1	incongruent	Block3	incongruent/STIM_028.jpg
2832.115	0.973	1	incongruent	Block3	incongruent/STIM_029.jpg
2836.801	0.726	1	incongruent	Block3	incongruent/STIM_029.jpg
2841.15	0.882	1	incongruent	Block3	incongruent/STIM_029.jpg
2844.667	0.695	1	incongruent	Block3	incongruent/STIM_029.jpg
2848.17	0.659	1	incongruent	Block3	incongruent/STIM_029.jpg
2851.397	0.805	1	congruent	Block3	congruent/STIM_000.jpg
2854.332	0.877	1	congruent	Block3	congruent/STIM_000.jpg
2857.441	0.696	1	congruent	Block3	congruent/STIM_000.jpg
2861.624	0.887	1	congruent	Block3	congruent/STIM_000.jpg
2864.449	0.552	1	congruent	Block3	congruent/STIM_000.jpg
2867.675	1.046	1	congruent	Block3	congruent/STIM_001.jpg
2871.384	0.656	1	congruent	Block3	congruent/STIM_001.jpg
2875.166	0.706	1	congruent	Block3	congruent/STIM_001.jpg
2878.881	0.912	1	congruent	Block3	congruent/STIM_001.jpg
2883.464	0.83	1	congruent	Block3	congruent/STIM_001.jpg
2888.166	0.978	1	congruent	Block3	congruent/STIM_002.jpg
2891.32	0.95	1	congruent	Block3	congruent/STIM_002.jpg
2894.503	0.987	1	congruent	Block3	congruent/STIM_002.jpg
2899.012	0.746	1	congruent	Block3	congruent/STIM_002.jpg
2902.768	0.815	1	congruent	Block3	congruent/STIM_002.jpg
2905.775	0.867	1	congruent	Block3	congruent/STIM_003.jpg
2908.995	0.995	1	congruent	Block3	congruent/STIM_003.jpg
2912.249	0.91	1	congruent	Block3	congruent/STIM_003.jpg
2916.086	0.86	1	congruent	Block3	congruent/STIM_003.jpg
2920.62	0.921	1	congruent	Block3	congruent/STIM_003.jpg
2924.138	0.607	1	congruent	Block3	congruent/STIM_004.jpg
2927.535	0.813	1	congruent	Block3	congruent/STIM_004.jpg
2931.759	0.832	1	congruent	Block3	congruent/STIM_004.jpg
2935.31	0.716	1	congruent	Block3	congruent/STIM_004.jpg
2938.122	0.868	1	congruent	Block3	congruent/STIM_004.jpg
2941.2	0.845	1	congruent	Block3	congruent/STIM_005.jpg
2943.93	0.675	1	congruent	Block3	congruent/STIM_005.jpg
2946.459	1.007	1	congruent	Block3	congruent/STIM_005.jpg
2950.268	1.006	1	congruent	Block3	congruent/STIM_005.jpg
2953.467	0.562	1	congruent	Block3	congruent/STIM_005.jpg
2957.423	0.93	0	congruent	Block3	congruent/STIM_006.jpg
2962.229	0.678	1	congruent	Block3	congruent/STIM_006.jpg
2966.183	0.833	0	congruent	Block3	congruent/STIM_006.jpg
2969.467	0.949	1	congruent	Block3	congruent/STIM_006.jpg
2974.125	0.693	1	congruent	Block3	congruent/STIM_006.jpg
2977.807	0.746	1	congruent	Block3	congruent/STIM_007.jpg
2981.574	0.795	1	congruent	Block3	congruent/STIM_007.jpg
2985.299	0.677	1	congruent	Block3	congruent/STIM_007.jpg
2988.411	1.019	1	congruent	Block3	congruent/STIM_007.jpg
2992.287	0.917	1	congruent	Block3	congruent/STIM_007.jpg
2997.057	0.621	1	congruent	Block3	congruent/STIM_008.jpg
3000.842	0.793	1	congruent	Block3	congruent/STIM_008.jpg
3005.033	0.912	1	congruent	Block3	congruent/STIM_008.jpg
3008.598	0.83	1	congruent	Block3	congruent/STIM_008.jpg
3013.064	0.925	1	congruent	Block3	congruent/STIM_008.jpg
3016.967	0.758	1	congruent	Block3	congruent/STIM_009.jpg
3021.212	0.892	1	congruent	Block3	congruent/STIM_009.jpg
3024.258	0.945	1	congruent	Block3	congruent/STIM_009.jpg
3028.161	0.609	1	congruent	Block3	congruent/STIM_009.jpg
3031.029	0.868	1	congruent	Block3	congruent/STIM_009.jpg
3035.399	0.933	0	congruent	Block3	congruent/STIM_010.jpg
3038.218	0.595	1	congruent	Block3	congruent/STIM_010.jpg
3041.453	0.991	1	congruent	Block3	congruent/STIM_010.jpg
3045.319	0.579	1	congruent	Block3	congruent/STIM_010.jpg
3049.756	0.866	1	congruent	Block3	congruent/STIM_010.jpg
3053.864	0.821	1	congruent	Block3	congruent/STIM_011.jpg
3058.582	0.605	1	congruent	Block3	congruent/STIM_011.jpg
3062.103	0.902	1	congruent	Block3	congruent/STIM_011.jpg
3065.53	0.784	1	congruent	Block3	congruent/STIM_011.jpg
3070.137	1.014	1	congruent	Block3	congruent/STIM_011.jpg
3073.034	0.928	1	congruent	Block3	congruent/STIM_012.jpg
3076.499	0.858	1	congruent	Block3	congruent/STIM_012.jpg
3080.244	1.044	1	congruent	Block3	congruent/STIM_012.jpg
3084.617	0.714	1	congruent	Block3	congruent/STIM_012.jpg
3088.764	0.895	1	congruent	Block3	congruent/STIM_012.jpg
3093.493	0.676	1	congruent	Block3	congruent/STIM_013.jpg
3096.994	0.778	1	congruent	Block3	congruent/STIM_013.jpg
3100.147	0.745	1	congruent	Block3	congruent/STIM_013.jpg
3103.733	0.651	1	congruent	Block3	congruent/STIM_013.jpg
3107.144	0.77	1	congruent	Block3	congruent/STIM_013.jpg
3111.663	0.869	1	congruent	Block3	congruent/STIM_014.jpg
3115.614	1.132	1	congruent	Block3	congruent/STIM_014.jpg
3120.09	0.958	1	congruent	Block3	congruent/STIM_014.jpg
3123.342	0.536	1	congruent	Block3	congruent/STIM_014.jpg
3126.218	0.716	1	congruent	Block3	congruent/STIM_014.jpg
3130.744	0.834	1	congruent	Block3	congruent/STIM_015.jpg
3134.323	0.927	1	congruent	Block3	congruent/STIM_015.jpg
3137.929	0.931	1	congruent	Block3	congruent/STIM_015.jpg
3141.554	0.958	1	congruent	Block3	congruent/STIM_015.jpg
3145.485	0.684	1	congruent	Block3	congruent/STIM_015.jpg
3148.301	1.019	1	congruent	Block3	congruent/STIM_016.jpg
3151.218	0.954	1	congruent	Block3	congruent/STIM_016.jpg
3155.213	0.886	1	congruent	Block3	congruent/STIM_016.jpg
3157.916	0.981	1	congruent	Block3	congruent/STIM_016.jpg
3160.859	0.991	1	congruent	Block3	congruent/STIM_016.jpg
3164.433	0.805	1	congruent	Block3	congruent/STIM_017.jpg
3168.73	0.688	1	congruent	Block3	congruent/STIM_017.jpg
3172.303	0.707	1	congruent	Block3	congruent/STIM_017.jpg
3175.607	0.902	1	congruent	Block3	congruent/STIM_017.jpg
3179.225	0.986	1	congruent	Block3	congruent/STIM_017.jpg
3182.814	0.723	1	congruent	Block3	congruent/STIM_018.jpg
3186.412	0.935	1	congruent	Block3	congruent/STIM_018.jpg
3190.858	0.853	1	congruent	Block3	congruent/STIM_018.jpg
3194.202	0.727	1	congruent	Block3	congruent/STIM_018.jpg
3198.802	0.682	1	congruent	Block3	congruent/STIM_018.jpg
3202.721	0.786	1	congruent	Block3	congruent/STIM_019.jpg
3205.693	0.954	1	congruent	Block3	congruent/STIM_019.jpg
3209.781	0.89	1	congruent	Block3	congruent/STIM_019.jpg
3214.058	0.86	1	congruent	Block3	congruent/STIM_019.jpg
3218.224	0.686	1	congruent	Block3	congruent/STIM_019.jpg
3220.871	0.734	1	congruent	Block3	congruent/STIM_020.jpg
3223.667	0.922	0	congruent	Block3	congruent/STIM_020.jpg
3227.871	0.714	1	congruent	Block3	congruent/STIM_020.jpg
3230.813	0.712	1	congruent	Block3	congruent/STIM_020.jpg
3235.143	0.68	1	congruent	Block3	congruent/STIM_020.jpg
3239.065	0.971	1	congruent	Block3	congruent/STIM_021.jpg
3243.214	0.91	1	congruent	Block3	congruent/STIM_021.jpg
3246.673	0.854	1	congruent	Block3	congruent/STIM_021.jpg
3251.341	1.057	1	congruent	Block3	congruent/STIM_021.jpg
3255.71	0.684	1	congruent	Block3	congruent/STIM_021.jpg
3259.413	0.562	1	congruent	Block3	congruent/STIM_022.jpg
3263.692	0.671	1	congruent	Block3	congruent/STIM_022.jpg
3267.325	0.588	1	congruent	Block3	congruent/STIM_022.jpg
3270.481	0.789	1	congruent	Block3	congruent/STIM_022.jpg
3275.021	0.744	1	congruent	Block3	congruent/STIM_022.jpg
3279.253	0.696	1	congruent	Block3	congruent/STIM_023.jpg
3283.639	0.746	1	congruent	Block3	congruent/STIM_023.jpg
3287.485	0.944	1	congruent	Block3	congruent/STIM_023.jpg
3291.171	0.953	1	congruent	Block3	congruent/STIM_023.jpg
3295.86	0.983	1	congruent	Block3	congruent/STIM_023.jpg
3300.541	0.964	1	congruent	Block3	congruent/STIM_024.jpg
3305.232	0.636	1	congruent	Block3	congruent/STIM_024.jpg
3309.22	0.645	1	congruent	Block3	congruent/STIM_024.jpg
3313.455	0.835	1	congruent	Block3	congruent/STIM_024.jpg
3316.89	1.016	1	congruent	Block3	congruent/STIM_024.jpg
3320.576	0.848	1	congruent	Block3	congruent/STIM_025.jpg
3323.638	0.939	1	congruent	Block3	congruent/STIM_025.jpg
3327.953	0.836	0	congruent	Block3	congruent/STIM_025.jpg
3332.682	0.882	1	congruent	Block3	congruent/STIM_025.jpg
3335.833	0.726	1	congruent	Block3	congruent/STIM_025.jpg
3339.489	0.694	0	congruent	Block3	congruent/STIM_026.jpg
3343.264	0.824	1	congruent	Block3	congruent/STIM_026.jpg
3346.465	0.873	1	congruent	Block3	congruent/STIM_026.jpg
3351.352	0.762	0	congruent	Block3	congruent/STIM_026.jpg
3354.593	0.702	1	congruent	Block3	congruent/STIM_026.jpg
3358.945	0.996	1	congruent	Block3	congruent/STIM_027.jpg
3361.987	0.749	1	congruent	Block3	congruent/STIM_027.jpg
3366.034	0.998	1	congruent	Block3	congruent/STIM_027.jpg
3369.728	0.634	1	congruent	Block3	congruent/STIM_027.jpg
3372.83	0.685	1	congruent	Block3	congruent/STIM_027.jpg
3376.906	0.911	1	congruent	Block3	congruent/STIM_028.jpg
3379.791	0.619	1	congruent	Block3	congruent/STIM_028.jpg
3383.558	0.782	1	congruent	Block3	congruent/STIM_028.jpg
3386.808	0.634	1	congruent	Block3	congruent/STIM_028.jpg
3390.731	0.582	1	congruent	Block3	congruent/STIM_028.jpg
3395.065	0.701	1	congruent	Block3	congruent/STIM_029.jpg
3399.083	0.944	1	congruent	Block3	congruent/STIM_029.jpg
3403.43	0.988	1	congruent	Block3	congruent/STIM_029.jpg
3407.326	0.739	1	congruent	Block3	congruent/STIM_029.jpg
3411.285	0.957	1	congruent	Block3	congruent/STIM_029.jpg
