onset	duration	accuracy	trial_type	learning_stage	stimulus
0.0	0.718	correct	incongruent	Block1	incongruent/STIM_000.jpg
4.2	0.786	correct	incongruent	Block1	incongruent/STIM_000.jpg
8.935	1.154	correct	incongruent	Block1	incongruent/STIM_000.jpg
13.662	0.754	correct	incongruent	Block1	incongruent/STIM_000.jpg
18.178	0.891	incorrect	incongruent	Block1	incongruent/STIM_000.jpg
22.606	1.316	correct	incongruent	Block1	incongruent/STIM_001.jpg
26.953	0.823	correct	incongruent	Block1	incongruent/STIM_001.jpg
31.231	0.836	correct	incongruent	Block1	incongruent/STIM_001.jpg
35.49	0.75	correct	incongruent	Block1	incongruent/STIM_001.jpg
38.367	0.563	correct	incongruent	Block1	incongruent/STIM_001.jpg
41.332	0.923	correct	incongruent	Block1	incongruent/STIM_002.jpg
45.294	1.03	correct	incongruent	Block1	incongruent/STIM_002.jpg
49.951	0.864	incorrect	incongruent	Block1	incongruent/STIM_002.jpg
54.194	1.028	correct	incongruent	Block1	incongruent/STIM_002.jpg
58.679	1.106	incorrect	incongruent	Block1	incongruent/STIM_002.jpg
63.379	1.243	correct	incongruent	Block1	incongruent/STIM_003.jpg
68.252	1.348	correct	incongruent	Block1	incongruent/STIM_003.jpg
72.002	0.968	incorrect	incongruent	Block1	incongruent/STIM_003.jpg
75.675	1.118	correct	incongruent	Block1	incongruent/STIM_003.jpg
79.174	0.734	correct	incongruent	Block1	incongruent/STIM_003.jpg
82.399	1.227	correct	incongruent	Block1	incongruent/STIM_004.jpg
85.922	0.848	correct	incongruent	Block1	incongruent/STIM_004.jpg
90.333	0.867	correct	incongruent	Block1	incongruent/STIM_004.jpg
93.947	1.192	correct	incongruent	Block1	incongruent/STIM_004.jpg
97.768	0.616	correct	incongruent	Block1	incongruent/STIM_004.jpg
102.009	1.157	correct	incongruent	Block1	incongruent/STIM_005.jpg
105.756	1.196	correct	incongruent	Block1	incongruent/STIM_005.jpg
110.064	1.15	correct	incongruent	Block1	incongruent/STIM_005.jpg
114.481	1.028	correct	incongruent	Block1	incongruent/STIM_005.jpg
117.6	0.828	incorrect	incongruent	Block1	incongruent/STIM_005.jpg
121.026	1.343	incorrect	incongruent	Block1	incongruent/STIM_006.jpg
125.369	1.27	correct	incongruent	Block1	incongruent/STIM_006.jpg
129.275	0.828	correct	incongruent	Block1	incongruent/STIM_006.jpg
134.086	1.201	correct	incongruent	Block1	incongruent/STIM_006.jpg
138.069	0.622	correct	incongruent	Block1	incongruent/STIM_006.jpg
141.58	1.086	correct	incongruent	Block1	incongruent/STIM_007.jpg
144.935	1.09	correct	incongruent	Block1	incongruent/STIM_007.jpg
148.345	0.802	correct	incongruent	Block1	incongruent/STIM_007.jpg
151.734	0.802	correct	incongruent	Block1	incongruent/STIM_007.jpg
154.869	0.835	correct	incongruent	Block1	incongruent/STIM_007.jpg
159.323	1.268	correct	incongruent	Block1	incongruent/STIM_008.jpg
164.04	0.743	correct	incongruent	Block1	incongruent/STIM_008.jpg
167.93	0.875	correct	incongruent	Block1	incongruent/STIM_008.jpg
172.606	0.702	correct	incongruent	Block1	incongruent/STIM_008.jpg
176.841	1.043	correct	incongruent	Block1	incongruent/STIM_008.jpg
180.942	0.864	correct	incongruent	Block1	incongruent/STIM_009.jpg
185.088	1.004	correct	incongruent	Block1	incongruent/STIM_009.jpg
188.637	0.674	correct	incongruent	Block1	incongruent/STIM_009.jpg
193.305	0.922	correct	incongruent	Block1	incongruent/STIM_009.jpg
198.078	1.03	correct	incongruent	Block1	incongruent/STIM_009.jpg
201.713	1.167	correct	incongruent	Block1	incongruent/STIM_010.jpg
206.258	1.062	correct	incongruent	Block1	incongruent/STIM_010.jpg
210.703	0.702	correct	incongruent	Block1	incongruent/STIM_010.jpg
215.072	0.768	correct	incongruent	Block1	incongruent/STIM_010.jpg
218.477	1.038	correct	incongruent	Block1	incongruent/STIM_010.jpg
223.122	0.793	correct	incongruent	Block1	incongruent/STIM_011.jpg
226.998	1.253	correct	incongruent	Block1	incongruent/STIM_011.jpg
232.035	0.637	correct	incongruent	Block1	incongruent/STIM_011.jpg
235.978	0.582	correct	incongruent	Block1	incongruent/STIM_011.jpg
239.618	0.968	incorrect	incongruent	Block1	incongruent/STIM_011.jpg
244.547	1.028	correct	incongruent	Block1	incongruent/STIM_012.jpg
248.87	0.654	incorrect	incongruent	Block1	incongruent/STIM_012.jpg
252.031	1.065	correct	incongruent	Block1	incongruent/STIM_012.jpg
256.193	1.166	incorrect	incongruent	Block1	incongruent/STIM_012.jpg
259.997	0.855	incorrect	incongruent	Block1	incongruent/STIM_012.jpg
263.195	1.178	correct	incongruent	Block1	incongruent/STIM_013.jpg
267.042	1.208	correct	incongruent	Block1	incongruent/STIM_013.jpg
271.158	1.06	correct	incongruent	Block1	incongruent/STIM_013.jpg
275.026	1.035	correct	incongruent	Block1	incongruent/STIM_013.jpg
278.604	0.95	incorrect	incongruent	Block1	incongruent/STIM_013.jpg
283.19	0.71	correct	incongruent	Block1	incongruent/STIM_014.jpg
286.091	1.195	incorrect	incongruent	Block1	incongruent/STIM_014.jpg
290.956	1.227	correct	incongruent	Block1	incongruent/STIM_014.jpg
294.864	0.692	correct	incongruent	Block1	incongruent/STIM_014.jpg
298.12	0.931	correct	incongruent	Block1	incongruent/STIM_014.jpg
301.314	1.367	correct	incongruent	Block1	incongruent/STIM_015.jpg
306.29	1.101	correct	incongruent	Block1	incongruent/STIM_015.jpg
311.019	1.206	correct	incongruent	Block1	incongruent/STIM_015.jpg
314.844	1.005	incorrect	incongruent	Block1	incongruent/STIM_015.jpg
319.015	0.711	correct	incongruent	Block1	incongruent/STIM_015.jpg
323.351	0.855	correct	incongruent	Block1	incongruent/STIM_016.jpg
328.001	0.737	correct	incongruent	Block1	incongruent/STIM_016.jpg
330.742	1.252	correct	incongruent	Block1	incongruent/STIM_016.jpg
335.492	1.166	correct	incongruent	Block1	incongruent/STIM_016.jpg
340.335	0.868	correct	incongruent	Block1	incongruent/STIM_016.jpg
343.386	1.137	correct	incongruent	Block1	incongruent/STIM_017.jpg
347.186	0.7	incorrect	incongruent	Block1	incongruent/STIM_017.jpg
350.884	0.686	correct	incongruent	Block1	incongruent/STIM_017.jpg
354.308	1.087	correct	incongruent	Block1	incongruent/STIM_017.jpg
359.314	0.996	correct	incongruent	Block1	incongruent/STIM_017.jpg
363.665	0.84	correct	incongruent	Block1	incongruent/STIM_018.jpg
367.069	1.191	incorrect	incongruent	Block1	incongruent/STIM_018.jpg
371.402	1.275	correct	incongruent	Block1	incongruent/STIM_018.jpg
375.353	0.981	correct	incongruent	Block1	incongruent/STIM_018.jpg
378.374	0.866	correct	incongruent	Block1	incongruent/STIM_018.jpg
381.616	1.362	correct	incongruent	Block1	incongruent/STIM_019.jpg
385.244	1.178	correct	incongruent	Block1	incongruent/STIM_019.jpg
388.698	1.157	correct	incongruent	Block1	incongruent/STIM_019.jpg
392.145	1.046	correct	incongruent	Block1	incongruent/STIM_019.jpg
395.244	0.642	correct	incongruent	Block1	incongruent/STIM_019.jpg
397.987	1.07	correct	incongruent	Block1	incongruent/STIM_020.jpg
401.646	0.816	correct	incongruent	Block1	incongruent/STIM_020.jpg
405.962	0.644	correct	incongruent	Block1	incongruent/STIM_020.jpg
409.404	0.893	correct	incongruent	Block1	incongruent/STIM_020.jpg
414.155	0.657	correct	incongruent	Block1	incongruent/STIM_020.jpg
418.004	1.336	correct	incongruent	Block1	incongruent/STIM_021.jpg
423.001	0.694	correct	incongruent	Block1	incongruent/STIM_021.jpg
426.891	0.777	correct	incongruent	Block1	incongruent/STIM_021.jpg
429.99	1.057	correct	incongruent	Block1	incongruent/STIM_021.jpg
434.304	1.12	incorrect	incongruent	Block1	incongruent/STIM_021.jpg
438.08	0.735	correct	incongruent	Block1	incongruent/STIM_022.jpg
441.984	0.994	incorrect	incongruent	Block1	incongruent/STIM_022.jpg
446.295	0.754	correct	incongruent	Block1	incongruent/STIM_022.jpg
450.347	1.055	correct	incongruent	Block1	incongruent/STIM_022.jpg
454.995	0.975	incorrect	incongruent	Block1	incongruent/STIM_022.jpg
459.839	0.808	correct	incongruent	Block1	incongruent/STIM_023.jpg
463.41	0.703	correct	incongruent	Block1	incongruent/STIM_023.jpg
466.435	1.04	correct	incongruent	Block1	incongruent/STIM_023.jpg
469.611	0.9	correct	incongruent	Block1	incongruent/STIM_023.jpg
473.261	0.896	correct	incongruent	Block1	incongruent/STIM_023.jpg
476.825	0.904	correct	incongruent	Block1	incongruent/STIM_024.jpg
480.55	1.233	correct	incongruent	Block1	incongruent/STIM_024.jpg
485.662	1.131	correct	incongruent	Block1	incongruent/STIM_024.jpg
490.718	1.127	correct	incongruent	Block1	incongruent/STIM_024.jpg
495.056	0.723	correct	incongruent	Block1	incongruent/STIM_024.jpg
497.967	0.692	correct	incongruent	Block1	incongruent/STIM_025.jpg
501.053	1.158	correct	incongruent	Block1	incongruent/STIM_025.jpg
504.306	1.107	correct	incongruent	Block1	incongruent/STIM_025.jpg
508.636	1.064	correct	incongruent	Block1	incongruent/STIM_025.jpg
513.52	1.045	correct	incongruent	Block1	incongruent/STIM_025.jpg
516.933	0.709	correct	incongruent	Block1	incongruent/STIM_026.jpg
521.214	1.249	incorrect	incongruent	Block1	incongruent/STIM_026.jpg
526.401	1.164	correct	incongruent	Block1	incongruent/STIM_026.jpg
529.603	0.846	correct	incongruent	Block1	incongruent/STIM_026.jpg
532.834	1.097	incorrect	incongruent	Block1	incongruent/STIM_026.jpg
537.299	1.274	correct	incongruent	Block1	incongruent/STIM_027.jpg
540.881	1.254	correct	incongruent	Block1	incongruent/STIM_027.jpg
545.78	0.966	correct	incongruent	Block1	incongruent/STIM_027.jpg
548.775	0.914	correct	incongruent	Block1	incongruent/STIM_027.jpg
552.608	0.888	correct	incongruent	Block1	incongruent/STIM_027.jpg
556.904	1.038	correct	incongruent	Block1	incongruent/STIM_028.jpg
561.748	0.685	incorrect	incongruent	Block1	incongruent/STIM_028.jpg
565.177	1.132	correct	incongruent	Block1	incongruent/STIM_028.jpg
569.906	0.855	correct	incongruent	Block1	incongruent/STIM_028.jpg
574.189	1.006	correct	incongruent	Block1	incongruent/STIM_028.jpg
577.957	1.148	correct	incongruent	Block1	incongruent/STIM_029.jpg
581.271	1.205	correct	incongruent	Block1	incongruent/STIM_029.jpg
585.566	0.757	correct	incongruent	Block1	incongruent/STIM_029.jpg
588.348	0.862	correct	incongruent	Block1	incongruent/STIM_029.jpg
593.011	1.012	correct	incongruent	Block1	incongruent/STIM_029.jpg
597.187	0.678	correct	congruent	Block1	congruent/STIM_000.jpg
601.174	0.514	correct	congruent	Block1	congruent/STIM_000.jpg
603.874	0.542	incorrect	congruent	Block1	congruent/STIM_000.jpg
606.492	0.704	correct	congruent	Block1	congruent/STIM_000.jpg
611.184	0.486	correct	congruent	Block1	congruent/STIM_000.jpg
614.033	0.756	incorrect	congruent	Block1	congruent/STIM_001.jpg
618.518	0.792	correct	congruent	Block1	congruent/STIM_001.jpg
621.617	0.634	correct	congruent	Block1	congruent/STIM_001.jpg
626.225	0.615	correct	congruent	Block1	congruent/STIM_001.jpg
629.495	0.68	correct	congruent	Block1	congruent/STIM_001.jpg
633.949	0.765	correct	congruent	Block1	congruent/STIM_002.jpg
637.187	0.639	correct	congruent	Block1	congruent/STIM_002.jpg
639.965	0.541	incorrect	congruent	Block1	congruent/STIM_002.jpg
643.165	0.476	correct	congruent	Block1	congruent/STIM_002.jpg
647.404	0.703	correct	congruent	Block1	congruent/STIM_002.jpg
651.912	0.592	correct	congruent	Block1	congruent/STIM_003.jpg
656.237	0.663	incorrect	congruent	Block1	congruent/STIM_003.jpg
660.62	0.774	correct	congruent	Block1	congruent/STIM_003.jpg
665.193	0.694	correct	congruent	Block1	congruent/STIM_003.jpg
668.76	0.678	incorrect	congruent	Block1	congruent/STIM_003.jpg
672.197	0.698	incorrect	congruent	Block1	congruent/STIM_004.jpg
676.803	0.58	correct	congruent	Block1	congruent/STIM_004.jpg
681.11	0.514	incorrect	congruent	Block1	congruent/STIM_004.jpg
684.09	0.518	correct	congruent	Block1	congruent/STIM_004.jpg
688.102	0.496	correct	congruent	Block1	congruent/STIM_004.jpg
691.586	0.821	correct	congruent	Block1	congruent/STIM_005.jpg
694.769	0.52	correct	congruent	Block1	congruent/STIM_005.jpg
697.79	0.598	correct	congruent	Block1	congruent/STIM_005.jpg
700.43	0.73	correct	congruent	Block1	congruent/STIM_005.jpg
703.277	0.653	correct	congruent	Block1	congruent/STIM_005.jpg
706.031	0.742	correct	congruent	Block1	congruent/STIM_006.jpg
709.435	0.777	incorrect	congruent	Block1	congruent/STIM_006.jpg
712.269	0.758	correct	congruent	Block1	congruent/STIM_006.jpg
717.018	0.578	correct	congruent	Block1	congruent/STIM_006.jpg
720.569	0.838	correct	congruent	Block1	congruent/STIM_006.jpg
725.39	0.501	incorrect	congruent	Block1	congruent/STIM_007.jpg
728.794	0.518	correct	congruent	Block1	congruent/STIM_007.jpg
732.207	0.562	correct	congruent	Block1	congruent/STIM_007.jpg
736.277	0.823	correct	congruent	Block1	congruent/STIM_007.jpg
739.694	0.576	correct	congruent	Block1	congruent/STIM_007.jpg
743.41	0.785	correct	congruent	Block1	congruent/STIM_008.jpg
747.023	0.691	correct	congruent	Block1	congruent/STIM_008.jpg
750.223	0.687	correct	congruent	Block1	congruent/STIM_008.jpg
753.486	0.492	correct	congruent	Block1	congruent/STIM_008.jpg
756.978	0.657	correct	congruent	Block1	congruent/STIM_008.jpg
760.804	0.586	correct	congruent	Block1	congruent/STIM_009.jpg
764.604	0.747	correct	congruent	Block1	congruent/STIM_009.jpg
767.978	0.528	incorrect	congruent	Block1	congruent/STIM_009.jpg
771.629	0.633	correct	congruent	Block1	congruent/STIM_009.jpg
774.955	0.784	correct	congruent	Block1	congruent/STIM_009.jpg
779.187	0.558	correct	congruent	Block1	congruent/STIM_010.jpg
783.091	0.695	correct	congruent	Block1	congruent/STIM_010.jpg
786.464	0.553	correct	congruent	Block1	congruent/STIM_010.jpg
789.684	0.516	incorrect	congruent	Block1	congruent/STIM_010.jpg
793.614	0.482	correct	congruent	Block1	congruent/STIM_010.jpg
797.317	0.506	correct	congruent	Block1	congruent/STIM_011.jpg
800.752	0.546	correct	congruent	Block1	congruent/STIM_011.jpg
804.4	0.654	correct	congruent	Block1	congruent/STIM_011.jpg
807.937	0.475	correct	congruent	Block1	congruent/STIM_011.jpg
811.919	0.485	correct	congruent	Block1	congruent/STIM_011.jpg
816.01	0.823	correct	congruent	Block1	congruent/STIM_012.jpg
819.141	0.474	correct	congruent	Block1	congruent/STIM_012.jpg
823.151	0.745	correct	congruent	Block1	congruent/STIM_012.jpg
826.039	0.496	correct	congruent	Block1	congruent/STIM_012.jpg
828.593	0.668	correct	congruent	Block1	congruent/STIM_012.jpg
833.136	0.628	correct	congruent	Block1	congruent/STIM_013.jpg
836.057	0.683	correct	congruent	Block1	congruent/STIM_013.jpg
840.119	0.659	correct	congruent	Block1	congruent/STIM_013.jpg
844.649	0.732	correct	congruent	Block1	congruent/STIM_013.jpg
848.45	0.82	correct	congruent	Block1	congruent/STIM_013.jpg
852.281	0.483	correct	congruent	Block1	congruent/STIM_014.jpg
856.71	0.568	correct	congruent	Block1	congruent/STIM_014.jpg
859.82	0.844	correct	congruent	Block1	congruent/STIM_014.jpg
863.367	0.494	correct	congruent	Block1	congruent/STIM_014.jpg
867.352	0.542	correct	congruent	Block1	congruent/STIM_014.jpg
871.018	0.597	correct	congruent	Block1	congruent/STIM_015.jpg
875.172	0.618	incorrect	congruent	Block1	congruent/STIM_015.jpg
879.029	0.557	correct	congruent	Block1	congruent/STIM_015.jpg
883.41	0.556	correct	congruent	Block1	congruent/STIM_015.jpg
887.031	0.606	correct	congruent	Block1	congruent/STIM_015.jpg
890.271	0.552	correct	congruent	Block1	congruent/STIM_016.jpg
893.653	0.52	correct	congruent	Block1	congruent/STIM_016.jpg
896.497	0.748	correct	congruent	Block1	congruent/STIM_016.jpg
899.423	0.784	incorrect	congruent	Block1	congruent/STIM_016.jpg
903.084	0.721	correct	congruent	Block1	congruent/STIM_016.jpg
907.172	0.847	correct	congruent	Block1	congruent/STIM_017.jpg
911.177	0.727	correct	congruent	Block1	congruent/STIM_017.jpg
914.532	0.798	correct	congruent	Block1	congruent/STIM_017.jpg
918.397	0.529	correct	congruent	Block1	congruent/STIM_017.jpg
922.39	0.837	incorrect	congruent	Block1	congruent/STIM_017.jpg
927.163	0.478	correct	congruent	Block1	congruent/STIM_018.jpg
930.961	0.745	correct	congruent	Block1	congruent/STIM_018.jpg
935.627	0.633	incorrect	congruent	Block1	congruent/STIM_018.jpg
940.138	0.653	correct	congruent	Block1	congruent/STIM_018.jpg
943.377	0.754	correct	congruent	Block1	congruent/STIM_018.jpg
946.497	0.52	correct	congruent	Block1	congruent/STIM_019.jpg
949.98	0.586	correct	congruent	Block1	congruent/STIM_019.jpg
954.545	0.648	correct	congruent	Block1	congruent/STIM_019.jpg
958.116	0.75	incorrect	congruent	Block1	congruent/STIM_019.jpg
961.085	0.818	correct	congruent	Block1	congruent/STIM_019.jpg
964.626	0.526	correct	congruent	Block1	congruent/STIM_020.jpg
968.574	0.62	correct	congruent	Block1	congruent/STIM_020.jpg
972.384	0.776	correct	congruent	Block1	congruent/STIM_020.jpg
976.819	0.493	incorrect	congruent	Block1	congruent/STIM_020.jpg
981.281	0.826	correct	congruent	Block1	congruent/STIM_020.jpg
985.133	0.615	correct	congruent	Block1	congruent/STIM_021.jpg
988.616	0.795	correct	congruent	Block1	congruent/STIM_021.jpg
992.395	0.801	correct	congruent	Block1	congruent/STIM_021.jpg
996.471	0.792	correct	congruent	Block1	congruent/STIM_021.jpg
1000.424	0.508	incorrect	congruent	Block1	congruent/STIM_021.jpg
1004.782	0.732	correct	congruent	Block1	congruent/STIM_022.jpg
1008.15	0.802	correct	congruent	Block1	congruent/STIM_022.jpg
1012.268	0.58	correct	congruent	Block1	congruent/STIM_022.jpg
1015.306	0.743	correct	congruent	Block1	congruent/STIM_022.jpg
1019.18	0.706	incorrect	congruent	Block1	congruent/STIM_022.jpg
1022.238	0.812	correct	congruent	Block1	congruent/STIM_023.jpg
1026.06	0.558	correct	congruent	Block1	congruent/STIM_023.jpg
1030.056	0.696	correct	congruent	Block1	congruent/STIM_023.jpg
1032.767	0.794	correct	congruent	Block1	congruent/STIM_023.jpg
1035.796	0.836	correct	congruent	Block1	congruent/STIM_023.jpg
1038.772	0.758	correct	congruent	Block1	congruent/STIM_024.jpg
1042.56	0.657	correct	congruent	Block1	congruent/STIM_024.jpg
1047.113	0.647	correct	congruent	Block1	congruent/STIM_024.jpg
1049.882	0.827	incorrect	congruent	Block1	congruent/STIM_024.jpg
1053.329	0.65	correct	congruent	Block1	congruent/STIM_024.jpg
1056.244	0.845	correct	congruent	Block1	congruent/STIM_025.jpg
1059.825	0.478	correct	congruent	Block1	congruent/STIM_025.jpg
1062.433	0.744	incorrect	congruent	Block1	congruent/STIM_025.jpg
1066.929	0.531	correct	congruent	Block1	congruent/STIM_025.jpg
1070.615	0.582	correct	congruent	Block1	congruent/STIM_025.jpg
1074.762	0.566	correct	congruent	Block1	congruent/STIM_026.jpg
1078.058	0.503	correct	congruent	Block1	congruent/STIM_026.jpg
1081.108	0.702	incorrect	congruent	Block1	congruent/STIM_026.jpg
1085.718	0.785	incorrect	congruent	Block1	congruent/STIM_026.jpg
1088.779	0.72	correct	congruent	Block1	congruent/STIM_026.jpg
1093.081	0.795	correct	congruent	Block1	congruent/STIM_027.jpg
1096.568	0.77	incorrect	congruent	Block1	congruent/STIM_027.jpg
1100.133	0.727	correct	congruent	Block1	congruent/STIM_027.jpg
1103.182	0.592	correct	congruent	Block1	congruent/STIM_027.jpg
1107.065	0.841	incorrect	congruent	Block1	congruent/STIM_027.jpg
1111.236	0.602	incorrect	congruent	Block1	congruent/STIM_028.jpg
1115.633	0.734	correct	congruent	Block1	congruent/STIM_028.jpg
1118.466	0.505	correct	congruent	Block1	congruent/STIM_028.jpg
1122.422	0.717	correct	congruent	Block1	congruent/STIM_028.jpg
1126.051	0.671	correct	congruent	Block1	congruent/STIM_028.jpg
1130.147	0.683	correct	congruent	Block1	congruent/STIM_029.jpg
1133.888	0.511	correct	congruent	Block1	congruent/STIM_029.jpg
1136.871	0.516	correct	congruent	Block1	congruent/STIM_029.jpg
1140.529	0.585	correct	congruent	Block1	congruent/STIM_029.jpg
1143.654	0.7	incorrect	congruent	Block1	congruent/STIM_029.jpg
1147.643	1.094	correct	incongruent	Block2	incongruent/STIM_000.jpg
1150.925	1.068	correct	incongruent	Block2	incongruent/STIM_000.jpg
1155.535	0.784	correct	incongruent	Block2	incongruent/STIM_000.jpg
1158.358	0.584	correct	incongruent	Block2	incongruent/STIM_000.jpg
1162.597	0.593	correct	incongruent	Block2	incongruent/STIM_000.jpg
1166.261	0.724	correct	incongruent	Block2	incongruent/STIM_001.jpg
1169.258	1.106	correct	incongruent	Block2	incongruent/STIM_001.jpg
1172.377	0.846	correct	incongruent	Block2	incongruent/STIM_001.jpg
1176.172	0.981	correct	incongruent	Block2	incongruent/STIM_001.jpg
1181.107	0.753	correct	incongruent	Block2	incongruent/STIM_001.jpg
1184.433	0.706	correct	incongruent	Block2	incongruent/STIM_002.jpg
1188.197	0.672	correct	incongruent	Block2	incongruent/STIM_002.jpg
1191.32	0.876	correct	incongruent	Block2	incongruent/STIM_002.jpg
1196.081	0.989	correct	incongruent	Block2	incongruent/STIM_002.jpg
1200.22	0.502	correct	incongruent	Block2	incongruent/STIM_002.jpg
1204.152	0.736	correct	incongruent	Block2	incongruent/STIM_003.jpg
1207.548	0.802	incorrect	incongruent	Block2	incongruent/STIM_003.jpg
1210.843	0.636	correct	incongruent	Block2	incongruent/STIM_003.jpg
1213.915	0.91	correct	incongruent	Block2	incongruent/STIM_003.jpg
1217.807	0.503	correct	incongruent	Block2	incongruent/STIM_003.jpg
1221.027	0.767	correct	incongruent	Block2	incongruent/STIM_004.jpg
1224.097	1.108	correct	incongruent	Block2	incongruent/STIM_004.jpg
1227.879	0.736	correct	incongruent	Block2	incongruent/STIM_004.jpg
1231.417	0.915	correct	incongruent	Block2	incongruent/STIM_004.jpg
1235.02	0.476	correct	incongruent	Block2	incongruent/STIM_004.jpg
1239.399	0.718	correct	incongruent	Block2	incongruent/STIM_005.jpg
1242.254	0.821	correct	incongruent	Block2	incongruent/STIM_005.jpg
1245.109	1.033	incorrect	incongruent	Block2	incongruent/STIM_005.jpg
1248.581	0.68	correct	incongruent	Block2	incongruent/STIM_005.jpg
1251.646	0.708	correct	incongruent	Block2	incongruent/STIM_005.jpg
1254.874	1.032	correct	incongruent	Block2	incongruent/STIM_006.jpg
1259.265	0.901	correct	incongruent	Block2	incongruent/STIM_006.jpg
1263.167	0.924	correct	incongruent	Block2	incongruent/STIM_006.jpg
1266.319	0.611	correct	incongruent	Block2	incongruent/STIM_006.jpg
1269.073	0.727	correct	incongruent	Block2	incongruent/STIM_006.jpg
1273.387	0.851	correct	incongruent	Block2	incongruent/STIM_007.jpg
1277.454	0.574	incorrect	incongruent	Block2	incongruent/STIM_007.jpg
1281.697	0.884	correct	incongruent	Block2	incongruent/STIM_007.jpg
1285.737	0.595	incorrect	incongruent	Block2	incongruent/STIM_007.jpg
1288.509	0.962	correct	incongruent	Block2	incongruent/STIM_007.jpg
1293.41	0.697	correct	incongruent	Block2	incongruent/STIM_008.jpg
1296.2	1.129	correct	incongruent	Block2	incongruent/STIM_008.jpg
1299.74	0.88	incorrect	incongruent	Block2	incongruent/STIM_008.jpg
1304.074	0.675	correct	incongruent	Block2	incongruent/STIM_008.jpg
1307.657	0.591	correct	incongruent	Block2	incongruent/STIM_008.jpg
1311.519	0.668	correct	incongruent	Block2	incongruent/STIM_009.jpg
1316.154	1.022	correct	incongruent	Block2	incongruent/STIM_009.jpg
1320.559	0.784	correct	incongruent	Block2	incongruent/STIM_009.jpg
1324.398	0.547	correct	incongruent	Block2	incongruent/STIM_009.jpg
1328.558	0.662	correct	incongruent	Block2	incongruent/STIM_009.jpg
1332.865	0.615	correct	incongruent	Block2	incongruent/STIM_010.jpg
1337.118	1.038	correct	incongruent	Block2	incongruent/STIM_010.jpg
1341.913	0.507	correct	incongruent	Block2	incongruent/STIM_010.jpg
1346.04	0.902	correct	incongruent	Block2	incongruent/STIM_010.jpg
1349.774	0.542	incorrect	incongruent	Block2	incongruent/STIM_010.jpg
1352.464	1.157	correct	incongruent	Block2	incongruent/STIM_011.jpg
1356.543	0.708	correct	incongruent	Block2	incongruent/STIM_011.jpg
1359.886	0.872	correct	incongruent	Block2	incongruent/STIM_011.jpg
1363.5	0.937	correct	incongruent	Block2	incongruent/STIM_011.jpg
1368.388	0.64	correct	incongruent	Block2	incongruent/STIM_011.jpg
1371.984	0.824	correct	incongruent	Block2	incongruent/STIM_012.jpg
1375.766	1.125	incorrect	incongruent	Block2	incongruent/STIM_012.jpg
1379.486	0.692	correct	incongruent	Block2	incongruent/STIM_012.jpg
1383.976	0.681	correct	incongruent	Block2	incongruent/STIM_012.jpg
1387.752	0.745	correct	incongruent	Block2	incongruent/STIM_012.jpg
1390.551	1.068	correct	incongruent	Block2	incongruent/STIM_013.jpg
1394.394	0.776	correct	incongruent	Block2	incongruent/STIM_013.jpg
1398.033	0.938	correct	incongruent	Block2	incongruent/STIM_013.jpg
1401.02	0.608	correct	incongruent	Block2	incongruent/STIM_013.jpg
1404.933	0.589	correct	incongruent	Block2	incongruent/STIM_013.jpg
1409.346	1.07	correct	incongruent	Block2	incongruent/STIM_014.jpg
1413.31	1.123	correct	incongruent	Block2	incongruent/STIM_014.jpg
1417.658	1.049	correct	incongruent	Block2	incongruent/STIM_014.jpg
1421.507	0.562	incorrect	incongruent	Block2	incongruent/STIM_014.jpg
1425.007	0.991	correct	incongruent	Block2	incongruent/STIM_014.jpg
1428.83	0.572	correct	incongruent	Block2	incongruent/STIM_015.jpg
1432.136	0.894	correct	incongruent	Block2	incongruent/STIM_015.jpg
1435.601	1.025	correct	incongruent	Block2	incongruent/STIM_015.jpg
1438.721	0.51	correct	incongruent	Block2	incongruent/STIM_015.jpg
1442.294	0.496	correct	incongruent	Block2	incongruent/STIM_015.jpg
1446.34	1.143	correct	incongruent	Block2	incongruent/STIM_016.jpg
1451.061	0.77	correct	incongruent	Block2	incongruent/STIM_016.jpg
1455.203	0.532	correct	incongruent	Block2	incongruent/STIM_016.jpg
1459.604	0.535	correct	incongruent	Block2	incongruent/STIM_016.jpg
1462.719	0.72	correct	incongruent	Block2	incongruent/STIM_016.jpg
1465.885	0.872	correct	incongruent	Block2	incongruent/STIM_017.jpg
1470.499	0.832	correct	incongruent	Block2	incongruent/STIM_017.jpg
1474.172	0.82	correct	incongruent	Block2	incongruent/STIM_017.jpg
1478.311	0.99	correct	incongruent	Block2	incongruent/STIM_017.jpg
1483.086	0.52	correct	incongruent	Block2	incongruent/STIM_017.jpg
1487.223	0.988	incorrect	incongruent	Block2	incongruent/STIM_018.jpg
1490.264	1.046	correct	incongruent	Block2	incongruent/STIM_018.jpg
1494.206	0.555	correct	incongruent	Block2	incongruent/STIM_018.jpg
1497.722	0.483	correct	incongruent	Block2	incongruent/STIM_018.jpg
1500.595	0.732	correct	incongruent	Block2	incongruent/STIM_018.jpg
1503.969	1.16	correct	incongruent	Block2	incongruent/STIM_019.jpg
1507.503	0.645	correct	incongruent	Block2	incongruent/STIM_019.jpg
1511.431	1.033	correct	incongruent	Block2	incongruent/STIM_019.jpg
1516.211	0.512	correct	incongruent	Block2	incongruent/STIM_019.jpg
1520.582	0.919	correct	incongruent	Block2	incongruent/STIM_019.jpg
1525.02	0.686	correct	incongruent	Block2	incongruent/STIM_020.jpg
1528.346	0.584	correct	incongruent	Block2	incongruent/STIM_020.jpg
1531.25	0.515	correct	incongruent	Block2	incongruent/STIM_020.jpg
1534.18	0.695	correct	incongruent	Block2	incongruent/STIM_020.jpg
1537.482	0.662	correct	incongruent	Block2	incongruent/STIM_020.jpg
1542.061	1.008	correct	incongruent	Block2	incongruent/STIM_021.jpg
1545.233	0.99	correct	incongruent	Block2	incongruent/STIM_021.jpg
1550.206	0.743	correct	incongruent	Block2	incongruent/STIM_021.jpg
1553.894	0.904	correct	incongruent	Block2	incongruent/STIM_021.jpg
1558.095	0.705	correct	incongruent	Block2	incongruent/STIM_021.jpg
1561.901	1.163	correct	incongruent	Block2	incongruent/STIM_022.jpg
1566.053	0.618	correct	incongruent	Block2	incongruent/STIM_022.jpg
1569.633	0.522	correct	incongruent	Block2	incongruent/STIM_022.jpg
1573.124	0.629	correct	incongruent	Block2	incongruent/STIM_022.jpg
1577.091	0.608	correct	incongruent	Block2	incongruent/STIM_022.jpg
1581.436	0.673	correct	incongruent	Block2	incongruent/STIM_023.jpg
1584.521	1.105	correct	incongruent	Block2	incongruent/STIM_023.jpg
1588.644	0.763	correct	incongruent	Block2	incongruent/STIM_023.jpg
1592.466	0.886	correct	incongruent	Block2	incongruent/STIM_023.jpg
1597.023	0.552	correct	incongruent	Block2	incongruent/STIM_023.jpg
1600.231	1.108	correct	incongruent	Block2	incongruent/STIM_024.jpg
1603.569	1.006	correct	incongruent	Block2	incongruent/STIM_024.jpg
1607.765	0.984	correct	incongruent	Block2	incongruent/STIM_024.jpg
1612.63	0.774	correct	incongruent	Block2	incongruent/STIM_024.jpg
1616.169	0.69	correct	incongruent	Block2	incongruent/STIM_024.jpg
1619.162	0.71	incorrect	incongruent	Block2	incongruent/STIM_025.jpg
1621.989	1.032	correct	incongruent	Block2	incongruent/STIM_025.jpg
1626.495	0.685	correct	incongruent	Block2	incongruent/STIM_025.jpg
1630.35	0.509	correct	incongruent	Block2	incongruent/STIM_025.jpg
1634.12	0.84	correct	incongruent	Block2	incongruent/STIM_025.jpg
1637.037	1.066	incorrect	incongruent	Block2	incongruent/STIM_026.jpg
1640.754	0.905	correct	incongruent	Block2	incongruent/STIM_026.jpg
1645.387	1.055	incorrect	incongruent	Block2	incongruent/STIM_026.jpg
1650.035	0.548	correct	incongruent	Block2	incongruent/STIM_026.jpg
1653.161	0.48	incorrect	incongruent	Block2	incongruent/STIM_026.jpg
1656.265	0.598	correct	incongruent	Block2	incongruent/STIM_027.jpg
1659.999	0.574	correct	incongruent	Block2	incongruent/STIM_027.jpg
1663.908	0.617	correct	incongruent	Block2	incongruent/STIM_027.jpg
1666.836	0.543	correct	incongruent	Block2	incongruent/STIM_027.jpg
1671.108	0.585	correct	incongruent	Block2	incongruent/STIM_027.jpg
1673.999	0.583	correct	incongruent	Block2	incongruent/STIM_028.jpg
1677.824	0.602	incorrect	incongruent	Block2	incongruent/STIM_028.jpg
1682.275	0.9	correct	incongruent	Block2	incongruent/STIM_028.jpg
1686.834	0.524	correct	incongruent	Block2	incongruent/STIM_028.jpg
1689.873	0.552	correct	incongruent	Block2	incongruent/STIM_028.jpg
1694.292	1.055	correct	incongruent	Block2	incongruent/STIM_029.jpg
1697.603	0.697	correct	incongruent	Block2	incongruent/STIM_029.jpg
1702.019	0.635	correct	incongruent	Block2	incongruent/STIM_029.jpg
1705.636	0.718	correct	incongruent	Block2	incongruent/STIM_029.jpg
1708.421	0.679	correct	incongruent	Block2	incongruent/STIM_029.jpg
1711.111	0.58	correct	congruent	Block2	congruent/STIM_000.jpg
1714.321	0.525	correct	congruent	Block2	congruent/STIM_000.jpg
1718.031	0.679	correct	congruent	Block2	congruent/STIM_000.jpg
1721.725	0.726	correct	congruent	Block2	congruent/STIM_000.jpg
1724.935	0.791	correct	congruent	Block2	congruent/STIM_000.jpg
1728.441	0.564	correct	congruent	Block2	congruent/STIM_001.jpg
1732.506	0.71	correct	congruent	Block2	congruent/STIM_001.jpg
1736.153	0.486	correct	congruent	Block2	congruent/STIM_001.jpg
1740.106	0.747	correct	congruent	Block2	congruent/STIM_001.jpg
1744.616	0.63	correct	congruent	Block2	congruent/STIM_001.jpg
1748.889	0.775	correct	congruent	Block2	congruent/STIM_002.jpg
1753.609	0.515	correct	congruent	Block2	congruent/STIM_002.jpg
1757.892	0.844	correct	congruent	Block2	congruent/STIM_002.jpg
1762.54	0.724	incorrect	congruent	Block2	congruent/STIM_002.jpg
1766.624	0.738	correct	congruent	Block2	congruent/STIM_002.jpg
1770.045	0.709	incorrect	congruent	Block2	congruent/STIM_003.jpg
1774.133	0.77	correct	congruent	Block2	congruent/STIM_003.jpg
1778.006	0.627	correct	congruent	Block2	congruent/STIM_003.jpg
1782.344	0.563	incorrect	congruent	Block2	congruent/STIM_003.jpg
1785.082	0.509	correct	congruent	Block2	congruent/STIM_003.jpg
1789.462	0.479	correct	congruent	Block2	congruent/STIM_004.jpg
1792.612	0.629	correct	congruent	Block2	congruent/STIM_004.jpg
1796.015	0.744	incorrect	congruent	Block2	congruent/STIM_004.jpg
1799.772	0.733	correct	congruent	Block2	congruent/STIM_004.jpg
1803.63	0.707	correct	congruent	Block2	congruent/STIM_004.jpg
1808.136	0.741	correct	congruent	Block2	congruent/STIM_005.jpg
1811.895	0.775	correct	congruent	Block2	congruent/STIM_005.jpg
1814.81	0.549	correct	congruent	Block2	congruent/STIM_005.jpg
1817.492	0.742	correct	congruent	Block2	congruent/STIM_005.jpg
1820.753	0.839	correct	congruent	Block2	congruent/STIM_005.jpg
1824.198	0.652	correct	congruent	Block2	congruent/STIM_006.jpg
1827.069	0.752	correct	congruent	Block2	congruent/STIM_006.jpg
1830.447	0.648	correct	congruent	Block2	congruent/STIM_006.jpg
1834.143	0.706	correct	congruent	Block2	congruent/STIM_006.jpg
1838.416	0.716	incorrect	congruent	Block2	congruent/STIM_006.jpg
1842.873	0.592	correct	congruent	Block2	congruent/STIM_007.jpg
1845.77	0.553	correct	congruent	Block2	congruent/STIM_007.jpg
1848.934	0.507	correct	congruent	Block2	congruent/STIM_007.jpg
1851.706	0.81	correct	congruent	Block2	congruent/STIM_007.jpg
1856.085	0.666	correct	congruent	Block2	congruent/STIM_007.jpg
1858.776	0.661	correct	congruent	Block2	congruent/STIM_008.jpg
1863.371	0.662	correct	congruent	Block2	congruent/STIM_008.jpg
1867.134	0.668	correct	congruent	Block2	congruent/STIM_008.jpg
1870.502	0.5	correct	congruent	Block2	congruent/STIM_008.jpg
1874.825	0.705	correct	congruent	Block2	congruent/STIM_008.jpg
1877.587	0.837	correct	congruent	Block2	congruent/STIM_009.jpg
1881.163	0.505	correct	congruent	Block2	congruent/STIM_009.jpg
1884.433	0.6	incorrect	congruent	Block2	congruent/STIM_009.jpg
1888.06	0.535	correct	congruent	Block2	congruent/STIM_009.jpg
1891.769	0.59	correct	congruent	Block2	congruent/STIM_009.jpg
1896.354	0.708	correct	congruent	Block2	congruent/STIM_010.jpg
1899.257	0.834	correct	congruent	Block2	congruent/STIM_010.jpg
1902.173	0.633	correct	congruent	Block2	congruent/STIM_010.jpg
1906.155	0.663	correct	congruent	Block2	congruent/STIM_010.jpg
1910.701	0.552	correct	congruent	Block2	congruent/STIM_010.jpg
1913.333	0.606	incorrect	congruent	Block2	congruent/STIM_011.jpg
1916.587	0.563	correct	congruent	Block2	congruent/STIM_011.jpg
1921.062	0.546	incorrect	congruent	Block2	congruent/STIM_011.jpg
1924.596	0.477	correct	congruent	Block2	congruent/STIM_011.jpg
1928.585	0.633	correct	congruent	Block2	congruent/STIM_011.jpg
1931.466	0.634	correct	congruent	Block2	congruent/STIM_012.jpg
1935.745	0.692	correct	congruent	Block2	congruent/STIM_012.jpg
1938.458	0.602	correct	congruent	Block2	congruent/STIM_012.jpg
1942.968	0.805	correct	congruent	Block2	congruent/STIM_012.jpg
1946.72	0.507	correct	congruent	Block2	congruent/STIM_012.jpg
1949.774	0.52	correct	congruent	Block2	congruent/STIM_013.jpg
1954.067	0.68	incorrect	congruent	Block2	congruent/STIM_013.jpg
1958.606	0.725	incorrect	congruent	Block2	congruent/STIM_013.jpg
1961.729	0.627	correct	congruent	Block2	congruent/STIM_013.jpg
1965.944	0.789	correct	congruent	Block2	congruent/STIM_013.jpg
1969.943	0.633	correct	congruent	Block2	congruent/STIM_014.jpg
1973.601	0.483	correct	congruent	Block2	congruent/STIM_014.jpg
1976.097	0.563	correct	congruent	Block2	congruent/STIM_014.jpg
1980.551	0.832	correct	congruent	Block2	congruent/STIM_014.jpg
1984.34	0.683	correct	congruent	Block2	congruent/STIM_014.jpg
1987.129	0.696	correct	congruent	Block2	congruent/STIM_015.jpg
1990.189	0.841	correct	congruent	Block2	congruent/STIM_015.jpg
1993.545	0.638	correct	congruent	Block2	congruent/STIM_015.jpg
1996.427	0.504	incorrect	congruent	Block2	congruent/STIM_015.jpg
2000.757	0.483	incorrect	congruent	Block2	congruent/STIM_015.jpg
2003.842	0.839	correct	congruent	Block2	congruent/STIM_016.jpg
2006.993	0.59	correct	congruent	Block2	congruent/STIM_016.jpg
2009.819	0.535	incorrect	congruent	Block2	congruent/STIM_016.jpg
2014.321	0.646	correct	congruent	Block2	congruent/STIM_016.jpg
2018.531	0.724	correct	congruent	Block2	congruent/STIM_016.jpg
2021.934	0.618	incorrect	congruent	Block2	congruent/STIM_017.jpg
2024.713	0.65	correct	congruent	Block2	congruent/STIM_017.jpg
2027.775	0.667	correct	congruent	Block2	congruent/STIM_017.jpg
2032.101	0.739	correct	congruent	Block2	congruent/STIM_017.jpg
2035.716	0.544	correct	congruent	Block2	congruent/STIM_017.jpg
2038.628	0.606	correct	congruent	Block2	congruent/STIM_018.jpg
2042.384	0.82	correct	congruent	Block2	congruent/STIM_018.jpg
2046.363	0.814	correct	congruent	Block2	congruent/STIM_018.jpg
2050.622	0.513	correct	congruent	Block2	congruent/STIM_018.jpg
2053.26	0.648	incorrect	congruent	Block2	congruent/STIM_018.jpg
2056.024	0.726	incorrect	congruent	Block2	congruent/STIM_019.jpg
2060.399	0.688	correct	congruent	Block2	congruent/STIM_019.jpg
2064.373	0.715	correct	congruent	Block2	congruent/STIM_019.jpg
2067.779	0.754	correct	congruent	Block2	congruent/STIM_019.jpg
2070.74	0.578	correct	congruent	Block2	congruent/STIM_019.jpg
2074.635	0.548	correct	congruent	Block2	congruent/STIM_020.jpg
2078.694	0.808	correct	congruent	Block2	congruent/STIM_020.jpg
2082.311	0.572	correct	congruent	Block2	congruent/STIM_020.jpg
2085.374	0.782	correct	congruent	Block2	congruent/STIM_020.jpg
2089.318	0.85	correct	congruent	Block2	congruent/STIM_020.jpg
2092.542	0.8	correct	congruent	Block2	congruent/STIM_021.jpg
2096.967	0.597	incorrect	congruent	Block2	congruent/STIM_021.jpg
2101.362	0.477	correct	congruent	Block2	congruent/STIM_021.jpg
2105.657	0.746	correct	congruent	Block2	congruent/STIM_021.jpg
2108.47	0.65	correct	congruent	Block2	congruent/STIM_021.jpg
2112.584	0.812	correct	congruent	Block2	congruent/STIM_022.jpg
2116.222	0.804	correct	congruent	Block2	congruent/STIM_022.jpg
2120.359	0.798	correct	congruent	Block2	congruent/STIM_022.jpg
2124.017	0.748	correct	congruent	Block2	congruent/STIM_022.jpg
2128.269	0.628	correct	congruent	Block2	congruent/STIM_022.jpg
2131.276	0.844	correct	congruent	Block2	congruent/STIM_023.jpg
2134.419	0.695	correct	congruent	Block2	congruent/STIM_023.jpg
2137.876	0.763	correct	congruent	Block2	congruent/STIM_023.jpg
2142.243	0.511	correct	congruent	Block2	congruent/STIM_023.jpg
2145.698	0.628	correct	congruent	Block2	congruent/STIM_023.jpg
2150.192	0.829	correct	congruent	Block2	congruent/STIM_024.jpg
2153.222	0.771	correct	congruent	Block2	congruent/STIM_024.jpg
2156.29	0.664	correct	congruent	Block2	congruent/STIM_024.jpg
2160.04	0.776	correct	congruent	Block2	congruent/STIM_024.jpg
2163.245	0.78	correct	congruent	Block2	congruent/STIM_024.jpg
2166.944	0.838	correct	congruent	Block2	congruent/STIM_025.jpg
2170.37	0.63	correct	congruent	Block2	congruent/STIM_025.jpg
2173.009	0.672	correct	congruent	Block2	congruent/STIM_025.jpg
2176.549	0.771	correct	congruent	Block2	congruent/STIM_025.jpg
2180.265	0.669	incorrect	congruent	Block2	congruent/STIM_025.jpg
2183.556	0.488	correct	congruent	Block2	congruent/STIM_026.jpg
2186.613	0.668	correct	congruent	Block2	congruent/STIM_026.jpg
2189.737	0.502	correct	congruent	Block2	congruent/STIM_026.jpg
2193.696	0.821	correct	congruent	Block2	congruent/STIM_026.jpg
2198.3	0.503	incorrect	congruent	Block2	congruent/STIM_026.jpg
2201.553	0.622	correct	congruent	Block2	congruent/STIM_027.jpg
2204.772	0.85	correct	congruent	Block2	congruent/STIM_027.jpg
2208.167	0.705	correct	congruent	Block2	congruent/STIM_027.jpg
2211.412	0.596	correct	congruent	Block2	congruent/STIM_027.jpg
2215.627	0.687	correct	congruent	Block2	congruent/STIM_027.jpg
2218.347	0.625	incorrect	congruent	Block2	congruent/STIM_028.jpg
2222.296	0.565	correct	congruent	Block2	congruent/STIM_028.jpg
2226.317	0.532	incorrect	congruent	Block2	congruent/STIM_028.jpg
2229.847	0.63	correct	congruent	Block2	congruent/STIM_028.jpg
2232.802	0.773	correct	congruent	Block2	congruent/STIM_028.jpg
2236.579	0.812	incorrect	congruent	Block2	congruent/STIM_029.jpg
2239.523	0.666	correct	congruent	Block2	congruent/STIM_029.jpg
2243.086	0.579	correct	congruent	Block2	congruent/STIM_029.jpg
2245.875	0.491	correct	congruent	Block2	congruent/STIM_029.jpg
2250.034	0.504	correct	congruent	Block2	congruent/STIM_029.jpg
2253.275	0.906	correct	incongruent	Block3	incongruent/STIM_000.jpg
2258.0	0.484	correct	incongruent	Block3	incongruent/STIM_000.jpg
2262.457	0.694	correct	incongruent	Block3	incongruent/STIM_000.jpg
2266.453	0.486	correct	incongruent	Block3	incongruent/STIM_000.jpg
2270.894	0.937	correct	incongruent	Block3	incongruent/STIM_000.jpg
2273.964	0.92	correct	incongruent	Block3	incongruent/STIM_001.jpg
2277.248	0.961	correct	incongruent	Block3	incongruent/STIM_001.jpg
2281.974	0.984	correct	incongruent	Block3	incongruent/STIM_001.jpg
2285.897	0.518	correct	incongruent	Block3	incongruent/STIM_001.jpg
2290.267	0.985	correct	incongruent	Block3	incongruent/STIM_001.jpg
2294.238	0.516	correct	incongruent	Block3	incongruent/STIM_002.jpg
2298.645	0.812	correct	incongruent	Block3	incongruent/STIM_002.jpg
2302.411	0.736	correct	incongruent	Block3	incongruent/STIM_002.jpg
2306.69	0.97	correct	incongruent	Block3	incongruent/STIM_002.jpg
2311.534	0.571	correct	incongruent	Block3	incongruent/STIM_002.jpg
2315.413	0.863	correct	incongruent	Block3	incongruent/STIM_003.jpg
2318.621	0.854	correct	incongruent	Block3	incongruent/STIM_003.jpg
2323.151	0.972	correct	incongruent	Block3	incongruent/STIM_003.jpg
2326.292	0.939	correct	incongruent	Block3	incongruent/STIM_003.jpg
2330.046	0.467	correct	incongruent	Block3	incongruent/STIM_003.jpg
2334.417	0.95	correct	incongruent	Block3	incongruent/STIM_004.jpg
2338.478	0.47	correct	incongruent	Block3	incongruent/STIM_004.jpg
2341.208	0.66	correct	incongruent	Block3	incongruent/STIM_004.jpg
2344.231	0.803	correct	incongruent	Block3	incongruent/STIM_004.jpg
2347.475	0.734	correct	incongruent	Block3	incongruent/STIM_004.jpg
2351.01	0.646	correct	incongruent	Block3	incongruent/STIM_005.jpg
2355.36	0.894	correct	incongruent	Block3	incongruent/STIM_005.jpg
2358.632	0.494	correct	incongruent	Block3	incongruent/STIM_005.jpg
2361.708	0.816	correct	incongruent	Block3	incongruent/STIM_005.jpg
2365.372	0.843	correct	incongruent	Block3	incongruent/STIM_005.jpg
2368.26	0.465	correct	incongruent	Block3	incongruent/STIM_006.jpg
2371.306	0.982	correct	incongruent	Block3	incongruent/STIM_006.jpg
2376.089	0.721	correct	incongruent	Block3	incongruent/STIM_006.jpg
2379.275	0.465	correct	incongruent	Block3	incongruent/STIM_006.jpg
2383.233	0.935	correct	incongruent	Block3	incongruent/STIM_006.jpg
2386.515	0.721	correct	incongruent	Block3	incongruent/STIM_007.jpg
2390.923	0.969	correct	incongruent	Block3	incongruent/STIM_007.jpg
2394.792	0.964	correct	incongruent	Block3	incongruent/STIM_007.jpg
2399.594	0.942	correct	incongruent	Block3	incongruent/STIM_007.jpg
2404.119	0.848	correct	incongruent	Block3	incongruent/STIM_007.jpg
2407.46	0.818	correct	incongruent	Block3	incongruent/STIM_008.jpg
2411.225	0.971	correct	incongruent	Block3	incongruent/STIM_008.jpg
2415.317	0.649	correct	incongruent	Block3	incongruent/STIM_008.jpg
2419.785	0.625	correct	incongruent	Block3	incongruent/STIM_008.jpg
2423.931	0.811	correct	incongruent	Block3	incongruent/STIM_008.jpg
2427.311	0.683	correct	incongruent	Block3	incongruent/STIM_009.jpg
2430.728	0.514	correct	incongruent	Block3	incongruent/STIM_009.jpg
2433.407	0.984	correct	incongruent	Block3	incongruent/STIM_009.jpg
2437.544	0.519	correct	incongruent	Block3	incongruent/STIM_009.jpg
2441.415	0.989	correct	incongruent	Block3	incongruent/STIM_009.jpg
2444.802	0.677	incorrect	incongruent	Block3	incongruent/STIM_010.jpg
2447.802	0.781	correct	incongruent	Block3	incongruent/STIM_010.jpg
2450.947	0.82	correct	incongruent	Block3	incongruent/STIM_010.jpg
2455.328	0.59	correct	incongruent	Block3	incongruent/STIM_010.jpg
2459.307	0.601	correct	incongruent	Block3	incongruent/STIM_010.jpg
2463.239	0.868	correct	incongruent	Block3	incongruent/STIM_011.jpg
2467.78	0.531	incorrect	incongruent	Block3	incongruent/STIM_011.jpg
2471.34	0.605	correct	incongruent	Block3	incongruent/STIM_011.jpg
2475.516	0.669	correct	incongruent	Block3	incongruent/STIM_011.jpg
2478.661	0.803	correct	incongruent	Block3	incongruent/STIM_011.jpg
2483.065	0.861	correct	incongruent	Block3	incongruent/STIM_012.jpg
2487.021	0.576	correct	incongruent	Block3	incongruent/STIM_012.jpg
2489.913	0.958	correct	incongruent	Block3	incongruent/STIM_012.jpg
2494.575	0.568	correct	incongruent	Block3	incongruent/STIM_012.jpg
2497.865	0.617	correct	incongruent	Block3	incongruent/STIM_012.jpg
2501.056	0.945	correct	incongruent	Block3	incongruent/STIM_013.jpg
2504.816	0.633	correct	incongruent	Block3	incongruent/STIM_013.jpg
2509.292	0.668	correct	incongruent	Block3	incongruent/STIM_013.jpg
2513.376	0.821	correct	incongruent	Block3	incongruent/STIM_013.jpg
2517.312	0.495	correct	incongruent	Block3	incongruent/STIM_013.jpg
2520.612	0.583	correct	incongruent	Block3	incongruent/STIM_014.jpg
2525.103	0.806	correct	incongruent	Block3	incongruent/STIM_014.jpg
2528.381	0.577	correct	incongruent	Block3	incongruent/STIM_014.jpg
2531.362	0.964	correct	incongruent	Block3	incongruent/STIM_014.jpg
2534.559	0.707	correct	incongruent	Block3	incongruent/STIM_014.jpg
2538.063	0.558	correct	incongruent	Block3	incongruent/STIM_015.jpg
2540.696	0.817	correct	incongruent	Block3	incongruent/STIM_015.jpg
2545.141	0.64	correct	incongruent	Block3	incongruent/STIM_015.jpg
2548.237	0.791	correct	incongruent	Block3	incongruent/STIM_015.jpg
2552.001	0.807	correct	incongruent	Block3	incongruent/STIM_015.jpg
2555.048	0.67	correct	incongruent	Block3	incongruent/STIM_016.jpg
2559.182	0.639	correct	incongruent	Block3	incongruent/STIM_016.jpg
2562.554	0.897	correct	incongruent	Block3	incongruent/STIM_016.jpg
2566.777	0.877	correct	incongruent	Block3	incongruent/STIM_016.jpg
2570.841	0.868	correct	incongruent	Block3	incongruent/STIM_016.jpg
2574.393	0.935	correct	incongruent	Block3	incongruent/STIM_017.jpg
2577.752	0.477	correct	incongruent	Block3	incongruent/STIM_017.jpg
2581.667	0.813	incorrect	incongruent	Block3	incongruent/STIM_017.jpg
2586.099	0.943	correct	incongruent	Block3	incongruent/STIM_017.jpg
2589.079	0.965	correct	incongruent	Block3	incongruent/STIM_017.jpg
2592.812	0.677	correct	incongruent	Block3	incongruent/STIM_018.jpg
2596.228	0.676	correct	incongruent	Block3	incongruent/STIM_018.jpg
2599.661	0.747	correct	incongruent	Block3	incongruent/STIM_018.jpg
2602.593	0.894	correct	incongruent	Block3	incongruent/STIM_018.jpg
2607.453	0.535	correct	incongruent	Block3	incongruent/STIM_018.jpg
2611.381	0.6	correct	incongruent	Block3	incongruent/STIM_019.jpg
2614.252	0.644	correct	incongruent	Block3	incongruent/STIM_019.jpg
2618.531	0.512	incorrect	incongruent	Block3	incongruent/STIM_019.jpg
2622.255	0.871	correct	incongruent	Block3	incongruent/STIM_019.jpg
2626.782	0.673	correct	incongruent	Block3	incongruent/STIM_019.jpg
2631.27	0.942	correct	incongruent	Block3	incongruent/STIM_020.jpg
2635.582	0.606	correct	incongruent	Block3	incongruent/STIM_020.jpg
2639.75	0.909	correct	incongruent	Block3	incongruent/STIM_020.jpg
2643.194	0.599	correct	incongruent	Block3	incongruent/STIM_020.jpg
2646.639	0.693	correct	incongruent	Block3	incongruent/STIM_020.jpg
2649.609	0.641	correct	incongruent	Block3	incongruent/STIM_021.jpg
2652.278	0.845	correct	incongruent	Block3	incongruent/STIM_021.jpg
2656.239	0.864	correct	incongruent	Block3	incongruent/STIM_021.jpg
2661.009	0.749	correct	incongruent	Block3	incongruent/STIM_021.jpg
2664.895	0.817	correct	incongruent	Block3	incongruent/STIM_021.jpg
2668.505	0.572	correct	incongruent	Block3	incongruent/STIM_022.jpg
2672.132	0.498	correct	incongruent	Block3	incongruent/STIM_022.jpg
2675.905	0.719	incorrect	incongruent	Block3	incongruent/STIM_022.jpg
2679.86	0.898	correct	incongruent	Block3	incongruent/STIM_022.jpg
2683.528	0.895	correct	incongruent	Block3	incongruent/STIM_022.jpg
2688.167	0.938	correct	incongruent	Block3	incongruent/STIM_023.jpg
2692.329	0.858	incorrect	incongruent	Block3	incongruent/STIM_023.jpg
2695.239	0.815	correct	incongruent	Block3	incongruent/STIM_023.jpg
2699.555	0.653	correct	incongruent	Block3	incongruent/STIM_023.jpg
2702.974	0.897	correct	incongruent	Block3	incongruent/STIM_023.jpg
2706.041	0.596	correct	incongruent	Block3	incongruent/STIM_024.jpg
2708.638	0.92	correct	incongruent	Block3	incongruent/STIM_024.jpg
2713.067	0.74	correct	incongruent	Block3	incongruent/STIM_024.jpg
2717.129	0.819	correct	incongruent	Block3	incongruent/STIM_024.jpg
2720.026	0.663	correct	incongruent	Block3	incongruent/STIM_024.jpg
2723.192	0.542	correct	incongruent	Block3	incongruent/STIM_025.jpg
2726.928	0.829	correct	incongruent	Block3	incongruent/STIM_025.jpg
2730.699	0.716	correct	incongruent	Block3	incongruent/STIM_025.jpg
2734.716	0.75	correct	incongruent	Block3	incongruent/STIM_025.jpg
2738.541	0.538	correct	incongruent	Block3	incongruent/STIM_025.jpg
2741.936	0.701	correct	incongruent	Block3	incongruent/STIM_026.jpg
2746.161	0.991	correct	incongruent	Block3	incongruent/STIM_026.jpg
2751.069	0.985	correct	incongruent	Block3	incongruent/STIM_026.jpg
2755.543	0.473	correct	incongruent	Block3	incongruent/STIM_026.jpg
2759.867	0.912	correct	incongruent	Block3	incongruent/STIM_026.jpg
2763.676	0.776	correct	incongruent	Block3	incongruent/STIM_027.jpg
2768.261	0.528	correct	incongruent	Block3	incongruent/STIM_027.jpg
2771.526	0.626	incorrect	incongruent	Block3	incongruent/STIM_027.jpg
2775.796	0.477	correct	incongruent	Block3	incongruent/STIM_027.jpg
2779.814	0.871	correct	incongruent	Block3	incongruent/STIM_027.jpg
2784.36	0.841	correct	incongruent	Block3	incongruent/STIM_028.jpg
2788.858	0.986	correct	incongruent	Block3	incongruent/STIM_028.jpg
2792.146	0.768	correct	incongruent	Block3	incongruent/STIM_028.jpg
2794.945	0.584	correct	incongruent	Block3	incongruent/STIM_028.jpg
2798.553	0.978	correct	incongruent	Block3	incongruent/STIM_028.jpg
2801.708	0.612	correct	incongruent	Block3	incongruent/STIM_029.jpg
2805.496	0.628	correct	incongruent	Block3	incongruent/STIM_029.jpg
2809.052	0.787	correct	incongruent	Block3	incongruent/STIM_029.jpg
2812.037	0.475	correct	incongruent	Block3	incongruent/STIM_029.jpg
2814.55	0.47	correct	incongruent	Block3	incongruent/STIM_029.jpg
2818.004	0.759	correct	congruent	Block3	congruent/STIM_000.jpg
2821.033	0.691	correct	congruent	Block3	congruent/STIM_000.jpg
2824.545	0.577	correct	congruent	Block3	congruent/STIM_000.jpg
2828.209	0.83	incorrect	congruent	Block3	congruent/STIM_000.jpg
2832.167	0.795	correct	congruent	Block3	congruent/STIM_000.jpg
2835.568	0.517	correct	congruent	Block3	congruent/STIM_001.jpg
2839.519	0.731	correct	congruent	Block3	congruent/STIM_001.jpg
2843.435	0.593	correct	congruent	Block3	congruent/STIM_001.jpg
2847.929	0.53	correct	congruent	Block3	congruent/STIM_001.jpg
2850.664	0.699	correct	congruent	Block3	congruent/STIM_001.jpg
2854.411	0.526	incorrect	congruent	Block3	congruent/STIM_002.jpg
2857.688	0.778	incorrect	congruent	Block3	congruent/STIM_002.jpg
2861.53	0.828	correct	congruent	Block3	congruent/STIM_002.jpg
2866.141	0.736	correct	congruent	Block3	congruent/STIM_002.jpg
2869.75	0.765	correct	congruent	Block3	congruent/STIM_002.jpg
2874.063	0.595	correct	congruent	Block3	congruent/STIM_003.jpg
2878.3	0.773	correct	congruent	Block3	congruent/STIM_003.jpg
2883.061	0.77	correct	congruent	Block3	congruent/STIM_003.jpg
2886.692	0.636	correct	congruent	Block3	congruent/STIM_003.jpg
2890.546	0.603	correct	congruent	Block3	congruent/STIM_003.jpg
2894.09	0.508	correct	congruent	Block3	congruent/STIM_004.jpg
2897.147	0.523	correct	congruent	Block3	congruent/STIM_004.jpg
2901.19	0.769	incorrect	congruent	Block3	congruent/STIM_004.jpg
2904.56	0.626	correct	congruent	Block3	congruent/STIM_004.jpg
2908.144	0.708	correct	congruent	Block3	congruent/STIM_004.jpg
2912.797	0.488	correct	congruent	Block3	congruent/STIM_005.jpg
2916.701	0.672	correct	congruent	Block3	congruent/STIM_005.jpg
2919.764	0.483	correct	congruent	Block3	congruent/STIM_005.jpg
2922.285	0.618	correct	congruent	Block3	congruent/STIM_005.jpg
2926.057	0.639	correct	congruent	Block3	congruent/STIM_005.jpg
2930.013	0.737	incorrect	congruent	Block3	congruent/STIM_006.jpg
2934.499	0.666	correct	congruent	Block3	congruent/STIM_006.jpg
2938.379	0.552	incorrect	congruent	Block3	congruent/STIM_006.jpg
2941.434	0.509	correct	congruent	Block3	congruent/STIM_006.jpg
2943.971	0.604	correct	congruent	Block3	congruent/STIM_006.jpg
2947.781	0.824	correct	congruent	Block3	congruent/STIM_007.jpg
2951.279	0.824	correct	congruent	Block3	congruent/STIM_007.jpg
2954.375	0.616	correct	congruent	Block3	congruent/STIM_007.jpg
2958.398	0.776	correct	congruent	Block3	congruent/STIM_007.jpg
2962.695	0.495	correct	congruent	Block3	congruent/STIM_007.jpg
2965.655	0.51	correct	congruent	Block3	congruent/STIM_008.jpg
2969.774	0.563	correct	congruent	Block3	congruent/STIM_008.jpg
2973.544	0.525	correct	congruent	Block3	congruent/STIM_008.jpg
2977.976	0.665	correct	congruent	Block3	congruent/STIM_008.jpg
2981.672	0.815	correct	congruent	Block3	congruent/STIM_008.jpg
2985.43	0.587	correct	congruent	Block3	congruent/STIM_009.jpg
2988.09	0.719	correct	congruent	Block3	congruent/STIM_009.jpg
2992.166	0.677	correct	congruent	Block3	congruent/STIM_009.jpg
2995.176	0.58	correct	congruent	Block3	congruent/STIM_009.jpg
2998.83	0.692	correct	congruent	Block3	congruent/STIM_009.jpg
3001.921	0.674	incorrect	congruent	Block3	congruent/STIM_010.jpg
3005.069	0.592	correct	congruent	Block3	congruent/STIM_010.jpg
3008.674	0.61	correct	congruent	Block3	congruent/STIM_010.jpg
3013.008	0.694	correct	congruent	Block3	congruent/STIM_010.jpg
3016.815	0.57	correct	congruent	Block3	congruent/STIM_010.jpg
3021.094	0.81	correct	congruent	Block3	congruent/STIM_011.jpg
3024.144	0.788	correct	congruent	Block3	congruent/STIM_011.jpg
3028.091	0.657	correct	congruent	Block3	congruent/STIM_011.jpg
3031.935	0.666	correct	congruent	Block3	congruent/STIM_011.jpg
3035.075	0.659	correct	congruent	Block3	congruent/STIM_011.jpg
3037.885	0.625	correct	congruent	Block3	congruent/STIM_012.jpg
3040.958	0.62	correct	congruent	Block3	congruent/STIM_012.jpg
3044.632	0.58	correct	congruent	Block3	congruent/STIM_012.jpg
3048.035	0.791	incorrect	congruent	Block3	congruent/STIM_012.jpg
3051.521	0.846	correct	congruent	Block3	congruent/STIM_012.jpg
3055.325	0.68	correct	congruent	Block3	congruent/STIM_013.jpg
3059.258	0.764	incorrect	congruent	Block3	congruent/STIM_013.jpg
3062.266	0.677	correct	congruent	Block3	congruent/STIM_013.jpg
3066.149	0.749	correct	congruent	Block3	congruent/STIM_013.jpg
3069.883	0.682	correct	congruent	Block3	congruent/STIM_013.jpg
3073.898	0.488	correct	congruent	Block3	congruent/STIM_014.jpg
3076.704	0.494	incorrect	congruent	Block3	congruent/STIM_014.jpg
3080.557	0.543	incorrect	congruent	Block3	congruent/STIM_014.jpg
3084.121	0.778	correct	congruent	Block3	congruent/STIM_014.jpg
3087.886	0.624	correct	congruent	Block3	congruent/STIM_014.jpg
3091.756	0.511	correct	congruent	Block3	congruent/STIM_015.jpg
3095.338	0.755	correct	congruent	Block3	congruent/STIM_015.jpg
3098.536	0.723	correct	congruent	Block3	congruent/STIM_015.jpg
3101.449	0.649	correct	congruent	Block3	congruent/STIM_015.jpg
3105.321	0.509	correct	congruent	Block3	congruent/STIM_015.jpg
3108.63	0.762	incorrect	congruent	Block3	congruent/STIM_016.jpg
3111.672	0.612	incorrect	congruent	Block3	congruent/STIM_016.jpg
3114.432	0.794	correct	congruent	Block3	congruent/STIM_016.jpg
3117.45	0.79	correct	congruent	Block3	congruent/STIM_016.jpg
3120.447	0.505	correct	congruent	Block3	congruent/STIM_016.jpg
3124.471	0.587	correct	congruent	Block3	congruent/STIM_017.jpg
3127.969	0.603	correct	congruent	Block3	congruent/STIM_017.jpg
3131.639	0.534	correct	congruent	Block3	congruent/STIM_017.jpg
3134.228	0.831	correct	congruent	Block3	congruent/STIM_017.jpg
3138.512	0.493	correct	congruent	Block3	congruent/STIM_017.jpg
3142.435	0.84	correct	congruent	Block3	congruent/STIM_018.jpg
3145.891	0.588	correct	congruent	Block3	congruent/STIM_018.jpg
3150.112	0.606	correct	congruent	Block3	congruent/STIM_018.jpg
3154.204	0.773	correct	congruent	Block3	congruent/STIM_018.jpg
3158.41	0.642	correct	congruent	Block3	congruent/STIM_018.jpg
3161.264	0.647	correct	congruent	Block3	congruent/STIM_019.jpg
3164.127	0.598	correct	congruent	Block3	congruent/STIM_019.jpg
3168.556	0.782	correct	congruent	Block3	congruent/STIM_019.jpg
3171.87	0.624	correct	congruent	Block3	congruent/STIM_019.jpg
3175.25	0.586	correct	congruent	Block3	congruent/STIM_019.jpg
3179.476	0.656	incorrect	congruent	Block3	congruent/STIM_020.jpg
3182.856	0.852	incorrect	congruent	Block3	congruent/STIM_020.jpg
3186.277	0.627	correct	congruent	Block3	congruent/STIM_020.jpg
3190.721	0.504	correct	congruent	Block3	congruent/STIM_020.jpg
3193.388	0.8	correct	congruent	Block3	congruent/STIM_020.jpg
3196.868	0.681	correct	congruent	Block3	congruent/STIM_021.jpg
3199.708	0.696	correct	congruent	Block3	congruent/STIM_021.jpg
3203.463	0.706	correct	congruent	Block3	congruent/STIM_021.jpg
3208.038	0.53	correct	congruent	Block3	congruent/STIM_021.jpg
3212.504	0.704	correct	congruent	Block3	congruent/STIM_021.jpg
3216.842	0.672	correct	congruent	Block3	congruent/STIM_022.jpg
3220.781	0.676	correct	congruent	Block3	congruent/STIM_022.jpg
3224.563	0.574	correct	congruent	Block3	congruent/STIM_022.jpg
3227.7	0.765	correct	congruent	Block3	congruent/STIM_022.jpg
3231.629	0.816	correct	congruent	Block3	congruent/STIM_022.jpg
3235.574	0.775	correct	congruent	Block3	congruent/STIM_023.jpg
3240.336	0.52	correct	congruent	Block3	congruent/STIM_023.jpg
3244.251	0.584	incorrect	congruent	Block3	congruent/STIM_023.jpg
3248.485	0.837	correct	congruent	Block3	congruent/STIM_023.jpg
3251.557	0.557	correct	congruent	Block3	congruent/STIM_023.jpg
3254.273	0.829	correct	congruent	Block3	congruent/STIM_024.jpg
3257.706	0.528	incorrect	congruent	Block3	congruent/STIM_024.jpg
3261.224	0.846	correct	congruent	Block3	congruent/STIM_024.jpg
3265.53	0.532	incorrect	congruent	Block3	congruent/STIM_024.jpg
3268.554	0.607	correct	congruent	Block3	congruent/STIM_024.jpg
3271.922	0.703	correct	congruent	Block3	congruent/STIM_025.jpg
3275.202	0.484	correct	congruent	Block3	congruent/STIM_025.jpg
3277.738	0.776	incorrect	congruent	Block3	congruent/STIM_025.jpg
3280.714	0.695	correct	congruent	Block3	congruent/STIM_025.jpg
3284.034	0.513	correct	congruent	Block3	congruent/STIM_025.jpg
3287.582	0.526	incorrect	congruent	Block3	congruent/STIM_026.jpg
3290.514	0.482	correct	congruent	Block3	congruent/STIM_026.jpg
3294.063	0.766	correct	congruent	Block3	congruent/STIM_026.jpg
3297.032	0.614	incorrect	congruent	Block3	congruent/STIM_026.jpg
3299.951	0.507	incorrect	congruent	Block3	congruent/STIM_026.jpg
3302.51	0.66	correct	congruent	Block3	congruent/STIM_027.jpg
3305.555	0.534	correct	congruent	Block3	congruent/STIM_027.jpg
3308.847	0.507	correct	congruent	Block3	congruent/STIM_027.jpg
3312.834	0.622	correct	congruent	Block3	congruent/STIM_027.jpg
3315.538	0.56	correct	congruent	Block3	congruent/STIM_027.jpg
3319.555	0.58	correct	congruent	Block3	congruent/STIM_028.jpg
3323.975	0.693	correct	congruent	Block3	congruent/STIM_028.jpg
3327.953	0.738	correct	congruent	Block3	congruent/STIM_028.jpg
3331.607	0.706	correct	congruent	Block3	congruent/STIM_028.jpg
3335.024	0.568	correct	congruent	Block3	congruent/STIM_028.jpg
3338.442	0.601	correct	congruent	Block3	congruent/STIM_029.jpg
3342.741	0.822	correct	congruent	Block3	congruent/STIM_029.jpg
3346.774	0.729	correct	congruent	Block3	congruent/STIM_029.jpg
3349.777	0.693	correct	congruent	Block3	congruent/STIM_029.jpg
3354.46	0.619	incorrect	congruent	Block3	congruent/STIM_029.jpg
