onset	duration	response_time_ms	trial_type	learning_stage	stimulus	response_port
0.0	1.261	1261.3	incongruent	Block1	incongruent/STIM_000.jpg	99
3.439	1.498	1497.7	incongruent	Block1	incongruent/STIM_000.jpg	100
7.592	0.789	789.0	incongruent	Block1	incongruent/STIM_000.jpg	99
12.32	0.85	850.2	incongruent	Block1	incongruent/STIM_000.jpg	99
15.12	1.135	1134.6	incongruent	Block1	incongruent/STIM_000.jpg	100
19.691	0.827	827.0	incongruent	Block1	incongruent/STIM_001.jpg	100
22.52	1.082	1082.1	incongruent	Block1	incongruent/STIM_001.jpg	100
27.118	0.886	886.2	incongruent	Block1	incongruent/STIM_001.jpg	99
29.966	1.244	1243.5	incongruent	Block1	incongruent/STIM_001.jpg	99
34.41	1.062	1061.7	incongruent	Block1	incongruent/STIM_001.jpg	99
37.675	1.654	1654.3	incongruent	Block1	incongruent/STIM_002.jpg	99
41.219	1.516	1515.9	incongruent	Block1	incongruent/STIM_002.jpg	100
45.348	1.168	1168.1	incongruent	Block1	incongruent/STIM_002.jpg	100
49.381	1.055	1055.2	incongruent	Block1	incongruent/STIM_002.jpg	100
53.327	0.619	619.1	incongruent	Block1	incongruent/STIM_002.jpg	100
57.241	1.52	1519.5	incongruent	Block1	incongruent/STIM_003.jpg	100
62.126	1.196	1196.5	incongruent	Block1	incongruent/STIM_003.jpg	100
66.162	0.842	842.0	incongruent	Block1	incongruent/STIM_003.jpg	99
69.628	1.446	1445.8	incongruent	Block1	incongruent/STIM_003.jpg	99
74.373	1.117	1117.2	incongruent	Block1	incongruent/STIM_003.jpg	99
78.64	1.358	1357.8	incongruent	Block1	incongruent/STIM_004.jpg	100
82.092	1.525	1525.0	incongruent	Block1	incongruent/STIM_004.jpg	100
87.067	1.266	1266.5	incongruent	Block1	incongruent/STIM_004.jpg	100
90.181	1.326	1326.4	incongruent	Block1	incongruent/STIM_004.jpg	100
93.656	1.34	1340.0	incongruent	Block1	incongruent/STIM_004.jpg	99
97.329	1.31	1309.6	incongruent	Block1	incongruent/STIM_005.jpg	99
101.664	1.458	1458.5	incongruent	Block1	incongruent/STIM_005.jpg	99
106.135	1.032	1032.5	incongruent	Block1	incongruent/STIM_005.jpg	100
110.0	0.851	851.1	incongruent	Block1	incongruent/STIM_005.jpg	99
114.557	0.939	939.4	incongruent	Block1	incongruent/STIM_005.jpg	100
118.367	0.943	942.9	incongruent	Block1	incongruent/STIM_006.jpg	100
121.29	1.058	1057.7	incongruent	Block1	incongruent/STIM_006.jpg	100
124.756	1.132	1131.5	incongruent	Block1	incongruent/STIM_006.jpg	100
127.966	0.758	757.7	incongruent	Block1	incongruent/STIM_006.jpg	100
132.393	1.21	1210.4	incongruent	Block1	incongruent/STIM_006.jpg	100
136.737	1.251	1251.4	incongruent	Block1	incongruent/STIM_007.jpg	100
140.247	0.867	867.0	incongruent	Block1	incongruent/STIM_007.jpg	100
144.512	1.474	1474.1	incongruent	Block1	incongruent/STIM_007.jpg	100
149.394	0.93	930.3	incongruent	Block1	incongruent/STIM_007.jpg	99
153.509	1.217	1217.3	incongruent	Block1	incongruent/STIM_007.jpg	100
157.842	0.958	957.7	incongruent	Block1	incongruent/STIM_008.jpg	100
161.84	1.472	1472.3	incongruent	Block1	incongruent/STIM_008.jpg	99
166.045	1.068	1068.3	incongruent	Block1	incongruent/STIM_008.jpg	100
169.173	0.798	798.1	incongruent	Block1	incongruent/STIM_008.jpg	100
173.467	1.404	1404.1	incongruent	Block1	incongruent/STIM_008.jpg	100
178.03	1.63	1630.5	incongruent	Block1	incongruent/STIM_009.jpg	100
182.747	1.577	1577.2	incongruent	Block1	incongruent/STIM_009.jpg	100
186.963	1.008	1008.5	incongruent	Block1	incongruent/STIM_009.jpg	100
190.392	1.514	1514.5	incongruent	Block1	incongruent/STIM_009.jpg	99
193.927	1.25	1249.9	incongruent	Block1	incongruent/STIM_009.jpg	100
198.217	1.605	1605.4	incongruent	Block1	incongruent/STIM_010.jpg	99
203.035	1.639	1638.7	incongruent	Block1	incongruent/STIM_010.jpg	99
206.656	1.372	1372.4	incongruent	Block1	incongruent/STIM_010.jpg	99
211.071	1.336	1335.5	incongruent	Block1	incongruent/STIM_010.jpg	99
214.482	0.778	778.0	incongruent	Block1	incongruent/STIM_010.jpg	100
217.65	1.638	1637.8	incongruent	Block1	incongruent/STIM_011.jpg	100
221.405	1.377	1377.0	incongruent	Block1	incongruent/STIM_011.jpg	100
225.497	0.793	793.2	incongruent	Block1	incongruent/STIM_011.jpg	99
229.415	0.776	776.4	incongruent	Block1	incongruent/STIM_011.jpg	100
232.259	1.149	1149.3	incongruent	Block1	incongruent/STIM_011.jpg	99
237.137	1.426	1425.9	incongruent	Block1	incongruent/STIM_012.jpg	100
241.215	1.17	1170.5	incongruent	Block1	incongruent/STIM_012.jpg	99
246.018	1.223	1223.4	incongruent	Block1	incongruent/STIM_012.jpg	100
250.202	1.12	1120.3	incongruent	Block1	incongruent/STIM_012.jpg	99
254.308	1.059	1059.0	incongruent	Block1	incongruent/STIM_012.jpg	99
258.985	1.228	1227.7	incongruent	Block1	incongruent/STIM_013.jpg	100
263.957	1.272	1271.9	incongruent	Block1	incongruent/STIM_013.jpg	100
268.818	1.334	1333.6	incongruent	Block1	incongruent/STIM_013.jpg	99
272.71	1.178	1177.9	incongruent	Block1	incongruent/STIM_013.jpg	100
275.991	0.784	783.6	incongruent	Block1	incongruent/STIM_013.jpg	99
279.288	0.926	925.9	incongruent	Block1	incongruent/STIM_014.jpg	100
283.36	1.38	1380.3	incongruent	Block1	incongruent/STIM_014.jpg	99
287.251	1.236	1235.7	incongruent	Block1	incongruent/STIM_014.jpg	100
290.521	0.836	836.4	incongruent	Block1	incongruent/STIM_014.jpg	99
293.293	0.81	809.5	incongruent	Block1	incongruent/STIM_014.jpg	100
297.995	0.989	988.9	incongruent	Block1	incongruent/STIM_015.jpg	99
301.625	1.515	1515.2	incongruent	Block1	incongruent/STIM_015.jpg	100
306.285	1.392	1391.5	incongruent	Block1	incongruent/STIM_015.jpg	100
309.675	1.233	1232.9	incongruent	Block1	incongruent/STIM_015.jpg	100
314.498	1.226	1225.9	incongruent	Block1	incongruent/STIM_015.jpg	99
318.634	1.221	1220.9	incongruent	Block1	incongruent/STIM_016.jpg	100
323.306	0.859	859.4	incongruent	Block1	incongruent/STIM_016.jpg	100
326.268	1.527	1527.3	incongruent	Block1	incongruent/STIM_016.jpg	99
330.369	1.502	1501.8	incongruent	Block1	incongruent/STIM_016.jpg	100
334.061	0.84	840.0	incongruent	Block1	incongruent/STIM_016.jpg	99
338.494	1.426	1426.2	incongruent	Block1	incongruent/STIM_017.jpg	99
343.123	0.948	948.0	incongruent	Block1	incongruent/STIM_017.jpg	99
347.908	0.83	829.8	incongruent	Block1	incongruent/STIM_017.jpg	100
351.514	0.883	882.6	incongruent	Block1	incongruent/STIM_017.jpg	99
354.802	1.274	1274.3	incongruent	Block1	incongruent/STIM_017.jpg	100
359.611	0.856	855.8	incongruent	Block1	incongruent/STIM_018.jpg	99
364.048	0.912	911.5	incongruent	Block1	incongruent/STIM_018.jpg	99
367.646	0.935	935.3	incongruent	Block1	incongruent/STIM_018.jpg	100
371.455	0.694	694.5	incongruent	Block1	incongruent/STIM_018.jpg	100
375.093	1.194	1194.3	incongruent	Block1	incongruent/STIM_018.jpg	99
378.728	1.257	1256.8	incongruent	Block1	incongruent/STIM_019.jpg	100
383.228	1.218	1218.4	incongruent	Block1	incongruent/STIM_019.jpg	99
388.102	0.7	699.6	incongruent	Block1	incongruent/STIM_019.jpg	99
391.956	1.272	1272.5	incongruent	Block1	incongruent/STIM_019.jpg	99
396.383	1.13	1130.1	incongruent	Block1	incongruent/STIM_019.jpg	99
399.679	1.269	1269.2	incongruent	Block1	incongruent/STIM_020.jpg	99
403.614	1.128	1128.5	incongruent	Block1	incongruent/STIM_020.jpg	100
406.807	0.987	987.2	incongruent	Block1	incongruent/STIM_020.jpg	100
411.393	1.351	1351.1	incongruent	Block1	incongruent/STIM_020.jpg	100
414.968	1.271	1270.6	incongruent	Block1	incongruent/STIM_020.jpg	99
418.938	0.932	932.2	incongruent	Block1	incongruent/STIM_021.jpg	100
422.882	1.195	1194.9	incongruent	Block1	incongruent/STIM_021.jpg	99
426.9	0.859	859.4	incongruent	Block1	incongruent/STIM_021.jpg	100
429.951	0.942	942.3	incongruent	Block1	incongruent/STIM_021.jpg	99
434.177	0.776	776.2	incongruent	Block1	incongruent/STIM_021.jpg	100
437.441	1.077	1077.3	incongruent	Block1	incongruent/STIM_022.jpg	100
441.81	1.235	1234.7	incongruent	Block1	incongruent/STIM_022.jpg	100
445.897	1.005	1005.3	incongruent	Block1	incongruent/STIM_022.jpg	100
450.412	0.869	868.7	incongruent	Block1	incongruent/STIM_022.jpg	100
454.311	0.671	670.8	incongruent	Block1	incongruent/STIM_022.jpg	100
458.792	0.872	871.5	incongruent	Block1	incongruent/STIM_023.jpg	99
462.931	1.549	1548.7	incongruent	Block1	incongruent/STIM_023.jpg	99
466.973	1.275	1275.2	incongruent	Block1	incongruent/STIM_023.jpg	100
471.055	1.2	1200.1	incongruent	Block1	incongruent/STIM_023.jpg	99
475.875	0.942	942.4	incongruent	Block1	incongruent/STIM_023.jpg	99
479.411	1.539	1539.0	incongruent	Block1	incongruent/STIM_024.jpg	99
483.382	0.932	931.7	incongruent	Block1	incongruent/STIM_024.jpg	99
487.02	1.622	1622.3	incongruent	Block1	incongruent/STIM_024.jpg	99
490.802	1.203	1203.4	incongruent	Block1	incongruent/STIM_024.jpg	100
494.714	1.221	1221.3	incongruent	Block1	incongruent/STIM_024.jpg	100
498.732	0.898	897.7	incongruent	Block1	incongruent/STIM_025.jpg	99
502.216	1.462	1461.9	incongruent	Block1	incongruent/STIM_025.jpg	100
507.283	1.061	1060.8	incongruent	Block1	incongruent/STIM_025.jpg	99
510.847	0.981	981.0	incongruent	Block1	incongruent/STIM_025.jpg	99
514.518	1.069	1069.4	incongruent	Block1	incongruent/STIM_025.jpg	99
518.536	0.894	893.9	incongruent	Block1	incongruent/STIM_026.jpg	100
522.071	0.941	941.4	incongruent	Block1	incongruent/STIM_026.jpg	100
526.859	1.32	1320.4	incongruent	Block1	incongruent/STIM_026.jpg	99
531.419	0.942	942.4	incongruent	Block1	incongruent/STIM_026.jpg	99
534.549	1.181	1181.0	incongruent	Block1	incongruent/STIM_026.jpg	99
537.969	1.182	1182.0	incongruent	Block1	incongruent/STIM_027.jpg	100
540.977	1.543	1542.8	incongruent	Block1	incongruent/STIM_027.jpg	99
546.327	0.863	862.8	incongruent	Block1	incongruent/STIM_027.jpg	100
550.899	1.414	1414.5	incongruent	Block1	incongruent/STIM_027.jpg	100
556.074	1.069	1068.6	incongruent	Block1	incongruent/STIM_027.jpg	100
560.44	0.98	979.6	incongruent	Block1	incongruent/STIM_028.jpg	100
563.418	1.158	1157.6	incongruent	Block1	incongruent/STIM_028.jpg	100
567.8	1.142	1141.6	incongruent	Block1	incongruent/STIM_028.jpg	99
571.544	0.796	796.3	incongruent	Block1	incongruent/STIM_028.jpg	100
575.535	0.869	868.7	incongruent	Block1	incongruent/STIM_028.jpg	100
578.345	0.797	797.1	incongruent	Block1	incongruent/STIM_029.jpg	99
582.597	1.65	1650.3	incongruent	Block1	incongruent/STIM_029.jpg	99
586.264	0.852	852.2	incongruent	Block1	incongruent/STIM_029.jpg	100
589.589	1.216	1215.8	incongruent	Block1	incongruent/STIM_029.jpg	100
593.313	1.344	1343.5	incongruent	Block1	incongruent/STIM_029.jpg	99
596.723	0.498	498.3	congruent	Block1	congruent/STIM_000.jpg	100
600.671	0.672	672.2	congruent	Block1	congruent/STIM_000.jpg	100
604.327	0.586	586.5	congruent	Block1	congruent/STIM_000.jpg	99
608.084	0.962	961.8	congruent	Block1	congruent/STIM_000.jpg	100
612.733	0.949	949.3	congruent	Block1	congruent/STIM_000.jpg	100
617.13	0.82	819.6	congruent	Block1	congruent/STIM_001.jpg	99
620.524	0.947	947.2	congruent	Block1	congruent/STIM_001.jpg	99
623.587	0.931	931.1	congruent	Block1	congruent/STIM_001.jpg	100
626.784	0.745	745.3	congruent	Block1	congruent/STIM_001.jpg	100
630.023	1.003	1003.1	congruent	Block1	congruent/STIM_001.jpg	99
633.083	1.005	1004.8	congruent	Block1	congruent/STIM_002.jpg	99
637.165	0.863	862.9	congruent	Block1	congruent/STIM_002.jpg	100
641.662	0.675	675.1	congruent	Block1	congruent/STIM_002.jpg	99
645.284	0.644	644.4	congruent	Block1	congruent/STIM_002.jpg	100
648.735	1.018	1018.3	congruent	Block1	congruent/STIM_002.jpg	100
653.477	0.956	956.1	congruent	Block1	congruent/STIM_003.jpg	100
657.051	0.92	920.5	congruent	Block1	congruent/STIM_003.jpg	100
661.773	0.948	947.7	congruent	Block1	congruent/STIM_003.jpg	100
665.456	0.682	682.0	congruent	Block1	congruent/STIM_003.jpg	100
669.785	0.829	828.6	congruent	Block1	congruent/STIM_003.jpg	99
673.682	0.678	677.7	congruent	Block1	congruent/STIM_004.jpg	100
678.116	0.86	859.9	congruent	Block1	congruent/STIM_004.jpg	99
681.735	0.856	855.9	congruent	Block1	congruent/STIM_004.jpg	99
684.959	0.897	896.9	congruent	Block1	congruent/STIM_004.jpg	100
687.958	0.698	698.1	congruent	Block1	congruent/STIM_004.jpg	100
690.628	0.695	695.2	congruent	Block1	congruent/STIM_005.jpg	100
693.359	0.798	797.8	congruent	Block1	congruent/STIM_005.jpg	99
696.904	0.605	605.2	congruent	Block1	congruent/STIM_005.jpg	99
701.512	0.865	865.3	congruent	Block1	congruent/STIM_005.jpg	99
704.52	0.654	654.4	congruent	Block1	congruent/STIM_005.jpg	100
707.867	0.859	859.4	congruent	Block1	congruent/STIM_006.jpg	99
711.051	0.738	738.3	congruent	Block1	congruent/STIM_006.jpg	100
714.896	0.801	801.0	congruent	Block1	congruent/STIM_006.jpg	100
717.71	0.785	784.7	congruent	Block1	congruent/STIM_006.jpg	100
721.333	0.564	563.7	congruent	Block1	congruent/STIM_006.jpg	99
725.623	0.763	763.3	congruent	Block1	congruent/STIM_007.jpg	99
729.047	0.714	714.4	congruent	Block1	congruent/STIM_007.jpg	99
733.04	0.792	791.6	congruent	Block1	congruent/STIM_007.jpg	99
737.14	0.825	825.1	congruent	Block1	congruent/STIM_007.jpg	99
740.046	0.797	797.4	congruent	Block1	congruent/STIM_007.jpg	100
743.327	0.858	857.7	congruent	Block1	congruent/STIM_008.jpg	100
746.697	0.722	722.5	congruent	Block1	congruent/STIM_008.jpg	99
749.405	0.725	725.1	congruent	Block1	congruent/STIM_008.jpg	100
752.858	0.918	918.4	congruent	Block1	congruent/STIM_008.jpg	99
757.18	1.01	1009.5	congruent	Block1	congruent/STIM_008.jpg	99
760.933	0.863	863.3	congruent	Block1	congruent/STIM_009.jpg	100
765.467	0.671	670.7	congruent	Block1	congruent/STIM_009.jpg	99
769.418	0.692	692.5	congruent	Block1	congruent/STIM_009.jpg	99
773.607	0.767	766.7	congruent	Block1	congruent/STIM_009.jpg	99
777.353	0.751	750.8	congruent	Block1	congruent/STIM_009.jpg	99
781.72	0.79	790.5	congruent	Block1	congruent/STIM_010.jpg	100
785.323	0.989	989.0	congruent	Block1	congruent/STIM_010.jpg	100
789.024	0.786	785.5	congruent	Block1	congruent/STIM_010.jpg	100
792.572	0.548	548.1	congruent	Block1	congruent/STIM_010.jpg	100
795.748	0.71	710.2	congruent	Block1	congruent/STIM_010.jpg	99
799.597	0.938	938.0	congruent	Block1	congruent/STIM_011.jpg	100
803.622	0.85	850.1	congruent	Block1	congruent/STIM_011.jpg	99
807.669	0.82	819.9	congruent	Block1	congruent/STIM_011.jpg	100
812.003	0.665	665.2	congruent	Block1	congruent/STIM_011.jpg	99
814.885	0.706	706.3	congruent	Block1	congruent/STIM_011.jpg	99
817.8	0.636	635.8	congruent	Block1	congruent/STIM_012.jpg	99
821.747	0.792	792.3	congruent	Block1	congruent/STIM_012.jpg	100
824.708	1.024	1024.5	congruent	Block1	congruent/STIM_012.jpg	99
828.46	0.917	917.1	congruent	Block1	congruent/STIM_012.jpg	99
833.042	0.573	572.6	congruent	Block1	congruent/STIM_012.jpg	99
837.114	0.72	719.8	congruent	Block1	congruent/STIM_013.jpg	99
841.158	0.569	569.3	congruent	Block1	congruent/STIM_013.jpg	100
844.465	0.673	673.3	congruent	Block1	congruent/STIM_013.jpg	99
847.029	0.932	932.4	congruent	Block1	congruent/STIM_013.jpg	99
851.559	0.652	652.1	congruent	Block1	congruent/STIM_013.jpg	100
854.422	0.602	601.5	congruent	Block1	congruent/STIM_014.jpg	100
857.867	0.553	553.1	congruent	Block1	congruent/STIM_014.jpg	100
862.39	0.618	617.8	congruent	Block1	congruent/STIM_014.jpg	99
866.314	0.902	901.7	congruent	Block1	congruent/STIM_014.jpg	100
870.961	0.698	697.8	congruent	Block1	congruent/STIM_014.jpg	100
875.103	0.722	722.3	congruent	Block1	congruent/STIM_015.jpg	100
879.214	0.841	840.6	congruent	Block1	congruent/STIM_015.jpg	100
882.222	0.697	697.3	congruent	Block1	congruent/STIM_015.jpg	100
884.804	0.591	591.3	congruent	Block1	congruent/STIM_015.jpg	100
887.837	0.688	687.9	congruent	Block1	congruent/STIM_015.jpg	99
892.445	0.842	841.5	congruent	Block1	congruent/STIM_016.jpg	100
895.322	0.721	721.3	congruent	Block1	congruent/STIM_016.jpg	100
898.381	0.832	831.9	congruent	Block1	congruent/STIM_016.jpg	100
901.943	0.885	885.3	congruent	Block1	congruent/STIM_016.jpg	99
905.835	0.677	677.3	congruent	Block1	congruent/STIM_016.jpg	99
909.681	0.958	957.7	congruent	Block1	congruent/STIM_017.jpg	100
913.275	1.079	1079.1	congruent	Block1	congruent/STIM_017.jpg	99
917.07	0.93	930.0	congruent	Block1	congruent/STIM_017.jpg	99
920.426	0.938	937.5	congruent	Block1	congruent/STIM_017.jpg	99
923.918	0.644	644.5	congruent	Block1	congruent/STIM_017.jpg	99
927.365	0.94	940.0	congruent	Block1	congruent/STIM_018.jpg	100
931.65	0.823	822.6	congruent	Block1	congruent/STIM_018.jpg	99
934.561	0.964	964.4	congruent	Block1	congruent/STIM_018.jpg	99
937.95	0.745	744.7	congruent	Block1	congruent/STIM_018.jpg	99
941.361	0.732	732.3	congruent	Block1	congruent/STIM_018.jpg	99
944.335	0.858	857.8	congruent	Block1	congruent/STIM_019.jpg	100
947.49	0.71	710.1	congruent	Block1	congruent/STIM_019.jpg	99
951.308	0.637	636.6	congruent	Block1	congruent/STIM_019.jpg	100
955.112	0.758	757.5	congruent	Block1	congruent/STIM_019.jpg	100
959.32	0.944	943.5	congruent	Block1	congruent/STIM_019.jpg	100
964.081	0.635	635.3	congruent	Block1	congruent/STIM_020.jpg	100
968.015	0.63	630.0	congruent	Block1	congruent/STIM_020.jpg	99
972.368	0.915	915.0	congruent	Block1	congruent/STIM_020.jpg	99
975.943	0.916	915.9	congruent	Block1	congruent/STIM_020.jpg	100
979.984	0.71	710.2	congruent	Block1	congruent/STIM_020.jpg	100
984.125	0.711	710.6	congruent	Block1	congruent/STIM_021.jpg	99
988.326	0.994	994.1	congruent	Block1	congruent/STIM_021.jpg	100
992.499	0.595	594.7	congruent	Block1	congruent/STIM_021.jpg	100
997.1	0.788	788.2	congruent	Block1	congruent/STIM_021.jpg	100
1001.359	0.678	677.8	congruent	Block1	congruent/STIM_021.jpg	100
1004.758	0.795	795.1	congruent	Block1	congruent/STIM_022.jpg	100
1007.686	0.963	963.2	congruent	Block1	congruent/STIM_022.jpg	99
1010.736	0.806	806.5	congruent	Block1	congruent/STIM_022.jpg	99
1014.951	0.725	724.9	congruent	Block1	congruent/STIM_022.jpg	99
1018.258	0.983	982.8	congruent	Block1	congruent/STIM_022.jpg	100
1021.134	1.01	1009.6	congruent	Block1	congruent/STIM_023.jpg	99
1025.002	0.705	704.6	congruent	Block1	congruent/STIM_023.jpg	99
1027.819	1.013	1012.9	congruent	Block1	congruent/STIM_023.jpg	100
1031.844	0.958	957.8	congruent	Block1	congruent/STIM_023.jpg	100
1036.621	0.607	607.4	congruent	Block1	congruent/STIM_023.jpg	100
1040.05	0.825	824.9	congruent	Block1	congruent/STIM_024.jpg	100
1043.544	0.808	807.9	congruent	Block1	congruent/STIM_024.jpg	99
1048.213	0.909	908.8	congruent	Block1	congruent/STIM_024.jpg	100
1052.917	0.88	879.9	congruent	Block1	congruent/STIM_024.jpg	100
1055.674	0.776	775.9	congruent	Block1	congruent/STIM_024.jpg	100
1059.966	0.852	852.1	congruent	Block1	congruent/STIM_025.jpg	100
1062.849	0.91	909.9	congruent	Block1	congruent/STIM_025.jpg	100
1066.913	0.727	727.1	congruent	Block1	congruent/STIM_025.jpg	99
1070.779	0.672	672.1	congruent	Block1	congruent/STIM_025.jpg	100
1075.007	0.964	964.5	congruent	Block1	congruent/STIM_025.jpg	99
1079.093	0.756	755.6	congruent	Block1	congruent/STIM_026.jpg	100
1082.832	0.731	731.2	congruent	Block1	congruent/STIM_026.jpg	100
1086.125	0.525	525.2	congruent	Block1	congruent/STIM_026.jpg	99
1089.865	0.566	565.8	congruent	Block1	congruent/STIM_026.jpg	100
1092.779	0.603	603.4	congruent	Block1	congruent/STIM_026.jpg	99
1096.268	0.617	617.2	congruent	Block1	congruent/STIM_027.jpg	100
1100.501	0.89	890.4	congruent	Block1	congruent/STIM_027.jpg	100
1104.111	0.738	738.0	congruent	Block1	congruent/STIM_027.jpg	100
1108.283	0.99	989.8	congruent	Block1	congruent/STIM_027.jpg	99
1112.451	0.707	706.7	congruent	Block1	congruent/STIM_027.jpg	100
1116.825	0.647	647.3	congruent	Block1	congruent/STIM_028.jpg	100
1120.778	0.828	828.2	congruent	Block1	congruent/STIM_028.jpg	99
1123.934	0.724	723.5	congruent	Block1	congruent/STIM_028.jpg	100
1127.167	0.84	839.9	congruent	Block1	congruent/STIM_028.jpg	99
1130.571	0.647	646.8	congruent	Block1	congruent/STIM_028.jpg	100
1134.311	0.676	675.9	congruent	Block1	congruent/STIM_029.jpg	100
1138.263	0.697	696.6	congruent	Block1	congruent/STIM_029.jpg	99
1141.285	0.842	842.4	congruent	Block1	congruent/STIM_029.jpg	99
1144.72	0.929	929.4	congruent	Block1	congruent/STIM_029.jpg	99
1149.158	0.798	797.7	congruent	Block1	congruent/STIM_029.jpg	100
1152.569	0.815	815.3	incongruent	Block2	incongruent/STIM_000.jpg	99
1156.839	0.715	715.2	incongruent	Block2	incongruent/STIM_000.jpg	100
1160.482	1.038	1037.8	incongruent	Block2	incongruent/STIM_000.jpg	100
1164.84	1.222	1222.3	incongruent	Block2	incongruent/STIM_000.jpg	99
1169.838	0.959	959.1	incongruent	Block2	incongruent/STIM_000.jpg	100
1173.046	1.303	1303.2	incongruent	Block2	incongruent/STIM_001.jpg	99
1177.847	1.224	1223.7	incongruent	Block2	incongruent/STIM_001.jpg	99
1182.809	1.151	1150.7	incongruent	Block2	incongruent/STIM_001.jpg	100
1186.758	0.866	866.5	incongruent	Block2	incongruent/STIM_001.jpg	100
1189.778	0.678	677.7	incongruent	Block2	incongruent/STIM_001.jpg	100
1193.013	1.168	1167.9	incongruent	Block2	incongruent/STIM_002.jpg	100
1197.276	0.987	986.8	incongruent	Block2	incongruent/STIM_002.jpg	99
1201.614	1.086	1085.8	incongruent	Block2	incongruent/STIM_002.jpg	100
1205.356	0.747	747.4	incongruent	Block2	incongruent/STIM_002.jpg	100
1208.13	1.118	1118.0	incongruent	Block2	incongruent/STIM_002.jpg	100
1212.343	1.238	1238.2	incongruent	Block2	incongruent/STIM_003.jpg	100
1217.145	1.003	1003.1	incongruent	Block2	incongruent/STIM_003.jpg	99
1220.707	0.608	608.3	incongruent	Block2	incongruent/STIM_003.jpg	99
1224.927	0.614	613.6	incongruent	Block2	incongruent/STIM_003.jpg	100
1227.55	0.566	566.5	incongruent	Block2	incongruent/STIM_003.jpg	99
1230.953	0.915	914.9	incongruent	Block2	incongruent/STIM_004.jpg	100
1234.994	1.05	1050.4	incongruent	Block2	incongruent/STIM_004.jpg	100
1238.47	0.763	762.6	incongruent	Block2	incongruent/STIM_004.jpg	100
1241.415	0.623	622.8	incongruent	Block2	incongruent/STIM_004.jpg	99
1244.462	0.548	548.4	incongruent	Block2	incongruent/STIM_004.jpg	100
1248.506	1.161	1160.6	incongruent	Block2	incongruent/STIM_005.jpg	99
1253.206	1.247	1246.9	incongruent	Block2	incongruent/STIM_005.jpg	100
1258.241	0.917	917.4	incongruent	Block2	incongruent/STIM_005.jpg	100
1261.524	0.964	964.1	incongruent	Block2	incongruent/STIM_005.jpg	100
1264.905	0.818	817.8	incongruent	Block2	incongruent/STIM_005.jpg	100
1268.143	0.828	828.0	incongruent	Block2	incongruent/STIM_006.jpg	99
1271.018	0.852	852.5	incongruent	Block2	incongruent/STIM_006.jpg	99
1273.902	0.889	889.0	incongruent	Block2	incongruent/STIM_006.jpg	99
1277.168	1.01	1009.9	incongruent	Block2	incongruent/STIM_006.jpg	99
1280.605	0.61	609.5	incongruent	Block2	incongruent/STIM_006.jpg	100
1283.598	1.222	1222.2	incongruent	Block2	incongruent/STIM_007.jpg	99
1288.25	1.268	1267.7	incongruent	Block2	incongruent/STIM_007.jpg	100
1291.402	0.582	582.5	incongruent	Block2	incongruent/STIM_007.jpg	100
1295.47	1.018	1018.3	incongruent	Block2	incongruent/STIM_007.jpg	99
1299.734	1.167	1167.0	incongruent	Block2	incongruent/STIM_007.jpg	100
1303.026	0.965	965.0	incongruent	Block2	incongruent/STIM_008.jpg	100
1306.774	1.321	1321.2	incongruent	Block2	incongruent/STIM_008.jpg	100
1310.462	0.866	866.5	incongruent	Block2	incongruent/STIM_008.jpg	99
1313.306	0.876	875.7	incongruent	Block2	incongruent/STIM_008.jpg	99
1316.82	1.072	1072.5	incongruent	Block2	incongruent/STIM_008.jpg	100
1320.968	0.904	904.1	incongruent	Block2	incongruent/STIM_009.jpg	100
1324.045	1.34	1339.9	incongruent	Block2	incongruent/STIM_009.jpg	99
1328.055	1.163	1162.6	incongruent	Block2	incongruent/STIM_009.jpg	100
1331.075	0.688	687.7	incongruent	Block2	incongruent/STIM_009.jpg	100
1334.697	0.946	945.8	incongruent	Block2	incongruent/STIM_009.jpg	100
1338.34	0.673	673.2	incongruent	Block2	incongruent/STIM_010.jpg	100
1341.466	0.666	665.9	incongruent	Block2	incongruent/STIM_010.jpg	100
1345.672	1.191	1191.4	incongruent	Block2	incongruent/STIM_010.jpg	100
1350.344	0.731	731.4	incongruent	Block2	incongruent/STIM_010.jpg	100
1353.179	0.56	560.0	incongruent	Block2	incongruent/STIM_010.jpg	100
1357.586	1.358	1358.0	incongruent	Block2	incongruent/STIM_011.jpg	99
1362.65	0.569	568.8	incongruent	Block2	incongruent/STIM_011.jpg	99
1365.826	1.297	1296.8	incongruent	Block2	incongruent/STIM_011.jpg	99
1369.439	1.07	1070.1	incongruent	Block2	incongruent/STIM_011.jpg	100
1373.921	0.587	586.6	incongruent	Block2	incongruent/STIM_011.jpg	99
1376.483	1.039	1039.3	incongruent	Block2	incongruent/STIM_012.jpg	99
1379.933	0.821	820.6	incongruent	Block2	incongruent/STIM_012.jpg	99
1383.199	0.832	831.7	incongruent	Block2	incongruent/STIM_012.jpg	100
1387.148	0.938	937.8	incongruent	Block2	incongruent/STIM_012.jpg	100
1390.575	0.991	990.6	incongruent	Block2	incongruent/STIM_012.jpg	99
1393.801	1.042	1041.6	incongruent	Block2	incongruent/STIM_013.jpg	100
1396.835	0.908	907.5	incongruent	Block2	incongruent/STIM_013.jpg	100
1401.213	0.64	640.3	incongruent	Block2	incongruent/STIM_013.jpg	100
1404.116	0.606	605.5	incongruent	Block2	incongruent/STIM_013.jpg	99
1408.591	0.666	666.3	incongruent	Block2	incongruent/STIM_013.jpg	99
1412.746	0.722	722.3	incongruent	Block2	incongruent/STIM_014.jpg	100
1416.753	0.882	881.6	incongruent	Block2	incongruent/STIM_014.jpg	99
1421.079	1.133	1133.4	incongruent	Block2	incongruent/STIM_014.jpg	100
1425.568	0.534	533.8	incongruent	Block2	incongruent/STIM_014.jpg	99
1428.87	1.153	1153.4	incongruent	Block2	incongruent/STIM_014.jpg	100
1432.373	1.093	1092.7	incongruent	Block2	incongruent/STIM_015.jpg	99
1436.019	1.292	1291.5	incongruent	Block2	incongruent/STIM_015.jpg	99
1440.697	1.34	1340.0	incongruent	Block2	incongruent/STIM_015.jpg	100
1443.859	1.177	1177.3	incongruent	Block2	incongruent/STIM_015.jpg	99
1447.055	1.092	1092.3	incongruent	Block2	incongruent/STIM_015.jpg	100
1451.612	0.949	948.7	incongruent	Block2	incongruent/STIM_016.jpg	99
1455.829	1.064	1063.5	incongruent	Block2	incongruent/STIM_016.jpg	100
1460.498	0.584	583.9	incongruent	Block2	incongruent/STIM_016.jpg	99
1463.646	0.759	759.2	incongruent	Block2	incongruent/STIM_016.jpg	99
1467.714	0.666	666.1	incongruent	Block2	incongruent/STIM_016.jpg	99
1472.129	0.727	726.8	incongruent	Block2	incongruent/STIM_017.jpg	100
1476.765	1.022	1022.3	incongruent	Block2	incongruent/STIM_017.jpg	99
1480.24	0.858	858.1	incongruent	Block2	incongruent/STIM_017.jpg	100
1484.458	0.618	618.5	incongruent	Block2	incongruent/STIM_017.jpg	100
1488.525	0.872	871.6	incongruent	Block2	incongruent/STIM_017.jpg	99
1492.8	1.48	1479.9	incongruent	Block2	incongruent/STIM_018.jpg	99
1497.176	1.351	1350.7	incongruent	Block2	incongruent/STIM_018.jpg	100
1500.564	1.008	1007.8	incongruent	Block2	incongruent/STIM_018.jpg	100
1504.593	0.703	703.3	incongruent	Block2	incongruent/STIM_018.jpg	100
1507.66	1.036	1036.5	incongruent	Block2	incongruent/STIM_018.jpg	100
1510.705	1.444	1444.2	incongruent	Block2	incongruent/STIM_019.jpg	99
1514.347	1.335	1334.7	incongruent	Block2	incongruent/STIM_019.jpg	100
1517.76	1.01	1009.9	incongruent	Block2	incongruent/STIM_019.jpg	99
1520.984	0.81	809.6	incongruent	Block2	incongruent/STIM_019.jpg	99
1525.662	0.88	879.7	incongruent	Block2	incongruent/STIM_019.jpg	99
1529.458	0.752	752.1	incongruent	Block2	incongruent/STIM_020.jpg	99
1532.931	1.1	1100.2	incongruent	Block2	incongruent/STIM_020.jpg	99
1536.745	1.187	1187.4	incongruent	Block2	incongruent/STIM_020.jpg	99
1541.671	0.727	727.4	incongruent	Block2	incongruent/STIM_020.jpg	100
1545.851	1.001	1001.3	incongruent	Block2	incongruent/STIM_020.jpg	100
1549.783	1.119	1118.6	incongruent	Block2	incongruent/STIM_021.jpg	99
1554.239	0.625	624.6	incongruent	Block2	incongruent/STIM_021.jpg	100
1557.039	1.222	1222.1	incongruent	Block2	incongruent/STIM_021.jpg	100
1560.163	0.689	689.4	incongruent	Block2	incongruent/STIM_021.jpg	100
1563.67	1.046	1045.8	incongruent	Block2	incongruent/STIM_021.jpg	100
1567.622	1.136	1136.0	incongruent	Block2	incongruent/STIM_022.jpg	99
1571.912	1.081	1080.7	incongruent	Block2	incongruent/STIM_022.jpg	99
1575.666	0.84	840.3	incongruent	Block2	incongruent/STIM_022.jpg	99
1580.095	0.983	982.6	incongruent	Block2	incongruent/STIM_022.jpg	99
1583.732	0.592	592.5	incongruent	Block2	incongruent/STIM_022.jpg	99
1587.078	1.19	1190.1	incongruent	Block2	incongruent/STIM_023.jpg	99
1590.737	0.98	979.5	incongruent	Block2	incongruent/STIM_023.jpg	99
1594.919	1.14	1140.0	incongruent	Block2	incongruent/STIM_023.jpg	100
1598.369	0.98	980.4	incongruent	Block2	incongruent/STIM_023.jpg	99
1602.052	0.919	918.6	incongruent	Block2	incongruent/STIM_023.jpg	99
1605.914	0.971	971.2	incongruent	Block2	incongruent/STIM_024.jpg	99
1610.145	1.45	1449.7	incongruent	Block2	incongruent/STIM_024.jpg	100
1613.923	1.202	1202.2	incongruent	Block2	incongruent/STIM_024.jpg	100
1618.656	0.714	714.1	incongruent	Block2	incongruent/STIM_024.jpg	100
1622.244	0.966	965.6	incongruent	Block2	incongruent/STIM_024.jpg	99
1625.664	0.958	958.4	incongruent	Block2	incongruent/STIM_025.jpg	99
1630.108	0.893	893.3	incongruent	Block2	incongruent/STIM_025.jpg	99
1633.882	0.74	740.1	incongruent	Block2	incongruent/STIM_025.jpg	99
1637.485	1.009	1009.1	incongruent	Block2	incongruent/STIM_025.jpg	99
1640.771	1.077	1076.9	incongruent	Block2	incongruent/STIM_025.jpg	100
1645.313	1.037	1036.6	incongruent	Block2	incongruent/STIM_026.jpg	99
1649.196	0.611	610.6	incongruent	Block2	incongruent/STIM_026.jpg	100
1653.305	0.775	775.1	incongruent	Block2	incongruent/STIM_026.jpg	99
1656.255	0.522	521.5	incongruent	Block2	incongruent/STIM_026.jpg	100
1660.329	0.521	521.0	incongruent	Block2	incongruent/STIM_026.jpg	100
1664.194	0.994	993.5	incongruent	Block2	incongruent/STIM_027.jpg	99
1668.051	1.357	1357.0	incongruent	Block2	incongruent/STIM_027.jpg	99
1671.695	1.283	1283.0	incongruent	Block2	incongruent/STIM_027.jpg	100
1675.15	1.216	1216.2	incongruent	Block2	incongruent/STIM_027.jpg	100
1678.767	1.104	1103.9	incongruent	Block2	incongruent/STIM_027.jpg	100
1682.685	0.77	769.6	incongruent	Block2	incongruent/STIM_028.jpg	99
1686.145	1.236	1235.5	incongruent	Block2	incongruent/STIM_028.jpg	99
1690.792	1.227	1226.7	incongruent	Block2	incongruent/STIM_028.jpg	99
1694.567	0.788	787.9	incongruent	Block2	incongruent/STIM_028.jpg	100
1699.215	1.073	1073.0	incongruent	Block2	incongruent/STIM_028.jpg	99
1703.037	1.339	1339.0	incongruent	Block2	incongruent/STIM_029.jpg	100
1706.677	1.156	1155.8	incongruent	Block2	incongruent/STIM_029.jpg	100
1709.688	0.706	706.0	incongruent	Block2	incongruent/STIM_029.jpg	100
1712.636	1.15	1149.8	incongruent	Block2	incongruent/STIM_029.jpg	99
1716.041	0.947	947.2	incongruent	Block2	incongruent/STIM_029.jpg	99
1719.411	0.587	587.3	congruent	Block2	congruent/STIM_000.jpg	99
1723.531	0.91	909.6	congruent	Block2	congruent/STIM_000.jpg	100
1727.711	0.984	983.7	congruent	Block2	congruent/STIM_000.jpg	100
1732.185	0.96	960.4	congruent	Block2	congruent/STIM_000.jpg	100
1736.426	0.7	700.4	congruent	Block2	congruent/STIM_000.jpg	100
1740.826	0.581	581.2	congruent	Block2	congruent/STIM_001.jpg	100
1744.874	0.508	508.4	congruent	Block2	congruent/STIM_001.jpg	100
1748.129	1.05	1050.0	congruent	Block2	congruent/STIM_001.jpg	100
1751.414	0.712	711.5	congruent	Block2	congruent/STIM_001.jpg	100
1755.856	0.712	711.9	congruent	Block2	congruent/STIM_001.jpg	100
1758.619	0.99	990.2	congruent	Block2	congruent/STIM_002.jpg	99
1762.972	0.956	956.4	congruent	Block2	congruent/STIM_002.jpg	99
1766.402	0.674	673.8	congruent	Block2	congruent/STIM_002.jpg	100
1769.484	0.86	859.8	congruent	Block2	congruent/STIM_002.jpg	100
1772.845	0.83	829.6	congruent	Block2	congruent/STIM_002.jpg	100
1777.376	0.856	855.6	congruent	Block2	congruent/STIM_003.jpg	99
1781.425	0.856	856.3	congruent	Block2	congruent/STIM_003.jpg	99
1785.955	0.687	686.9	congruent	Block2	congruent/STIM_003.jpg	100
1790.04	0.656	655.8	congruent	Block2	congruent/STIM_003.jpg	100
1792.777	1.004	1003.8	congruent	Block2	congruent/STIM_003.jpg	100
1796.874	0.73	729.5	congruent	Block2	congruent/STIM_004.jpg	99
1800.89	0.888	888.1	congruent	Block2	congruent/STIM_004.jpg	99
1804.282	1.002	1001.6	congruent	Block2	congruent/STIM_004.jpg	99
1807.885	0.626	626.0	congruent	Block2	congruent/STIM_004.jpg	99
1810.885	0.715	714.9	congruent	Block2	congruent/STIM_004.jpg	99
1815.276	0.667	667.3	congruent	Block2	congruent/STIM_005.jpg	99
1818.275	0.919	918.8	congruent	Block2	congruent/STIM_005.jpg	99
1821.967	0.908	907.5	congruent	Block2	congruent/STIM_005.jpg	99
1826.307	0.895	895.1	congruent	Block2	congruent/STIM_005.jpg	99
1829.586	0.9	900.2	congruent	Block2	congruent/STIM_005.jpg	99
1833.615	0.788	788.0	congruent	Block2	congruent/STIM_006.jpg	99
1837.935	0.605	605.4	congruent	Block2	congruent/STIM_006.jpg	100
1842.437	1.031	1031.0	congruent	Block2	congruent/STIM_006.jpg	100
1845.823	0.803	802.6	congruent	Block2	congruent/STIM_006.jpg	99
1850.305	0.853	853.1	congruent	Block2	congruent/STIM_006.jpg	99
1853.126	0.695	695.0	congruent	Block2	congruent/STIM_007.jpg	100
1857.677	0.786	786.1	congruent	Block2	congruent/STIM_007.jpg	99
1861.604	0.648	648.5	congruent	Block2	congruent/STIM_007.jpg	99
1865.291	0.62	620.5	congruent	Block2	congruent/STIM_007.jpg	100
1868.442	0.954	953.6	congruent	Block2	congruent/STIM_007.jpg	100
1871.857	0.618	618.4	congruent	Block2	congruent/STIM_008.jpg	100
1875.943	0.707	707.3	congruent	Block2	congruent/STIM_008.jpg	99
1879.822	0.974	974.3	congruent	Block2	congruent/STIM_008.jpg	99
1884.312	0.804	804.5	congruent	Block2	congruent/STIM_008.jpg	99
1888.713	0.82	819.9	congruent	Block2	congruent/STIM_008.jpg	100
1891.921	0.664	663.8	congruent	Block2	congruent/STIM_009.jpg	100
1894.82	0.717	716.8	congruent	Block2	congruent/STIM_009.jpg	100
1898.981	0.74	739.6	congruent	Block2	congruent/STIM_009.jpg	100
1902.766	0.682	681.8	congruent	Block2	congruent/STIM_009.jpg	100
1906.3	0.742	742.3	congruent	Block2	congruent/STIM_009.jpg	99
1909.258	1.06	1060.5	congruent	Block2	congruent/STIM_010.jpg	99
1914.055	0.682	681.6	congruent	Block2	congruent/STIM_010.jpg	99
1918.008	0.975	975.2	congruent	Block2	congruent/STIM_010.jpg	100
1921.737	0.646	646.1	congruent	Block2	congruent/STIM_010.jpg	100
1925.674	0.85	849.8	congruent	Block2	congruent/STIM_010.jpg	99
1929.438	0.938	937.5	congruent	Block2	congruent/STIM_011.jpg	99
1932.866	0.932	932.0	congruent	Block2	congruent/STIM_011.jpg	99
1937.619	0.63	630.3	congruent	Block2	congruent/STIM_011.jpg	99
1941.684	0.694	693.5	congruent	Block2	congruent/STIM_011.jpg	100
1945.758	0.672	672.2	congruent	Block2	congruent/STIM_011.jpg	100
1948.719	0.818	817.5	congruent	Block2	congruent/STIM_012.jpg	99
1952.476	0.898	898.4	congruent	Block2	congruent/STIM_012.jpg	99
1956.476	0.844	844.0	congruent	Block2	congruent/STIM_012.jpg	100
1960.7	0.947	947.3	congruent	Block2	congruent/STIM_012.jpg	100
1964.229	0.49	490.5	congruent	Block2	congruent/STIM_012.jpg	99
1968.721	0.727	727.3	congruent	Block2	congruent/STIM_013.jpg	99
1973.325	0.611	611.4	congruent	Block2	congruent/STIM_013.jpg	100
1977.723	0.698	697.8	congruent	Block2	congruent/STIM_013.jpg	100
1981.722	0.784	783.7	congruent	Block2	congruent/STIM_013.jpg	100
1986.152	0.667	667.3	congruent	Block2	congruent/STIM_013.jpg	100
1989.369	1.044	1044.3	congruent	Block2	congruent/STIM_014.jpg	100
1993.442	0.558	558.0	congruent	Block2	congruent/STIM_014.jpg	99
1995.981	0.679	678.6	congruent	Block2	congruent/STIM_014.jpg	100
1999.825	0.92	920.0	congruent	Block2	congruent/STIM_014.jpg	99
2003.491	0.723	722.8	congruent	Block2	congruent/STIM_014.jpg	99
2007.378	0.87	870.1	congruent	Block2	congruent/STIM_015.jpg	100
2010.986	0.999	999.2	congruent	Block2	congruent/STIM_015.jpg	100
2015.334	0.782	782.2	congruent	Block2	congruent/STIM_015.jpg	100
2019.602	0.858	857.9	congruent	Block2	congruent/STIM_015.jpg	99
2022.712	1.009	1008.7	congruent	Block2	congruent/STIM_015.jpg	99
2027.466	0.879	878.8	congruent	Block2	congruent/STIM_016.jpg	99
2030.637	0.888	888.5	congruent	Block2	congruent/STIM_016.jpg	100
2034.645	0.803	803.2	congruent	Block2	congruent/STIM_016.jpg	100
2038.815	0.956	956.5	congruent	Block2	congruent/STIM_016.jpg	100
2041.711	1.016	1015.6	congruent	Block2	congruent/STIM_016.jpg	100
2046.529	0.948	947.6	congruent	Block2	congruent/STIM_017.jpg	100
2050.433	1.027	1027.1	congruent	Block2	congruent/STIM_017.jpg	100
2053.316	0.982	981.7	congruent	Block2	congruent/STIM_017.jpg	100
2056.588	0.612	612.4	congruent	Block2	congruent/STIM_017.jpg	99
2059.143	0.595	595.4	congruent	Block2	congruent/STIM_017.jpg	99
2062.424	0.966	965.8	congruent	Block2	congruent/STIM_018.jpg	99
2067.076	0.618	617.5	congruent	Block2	congruent/STIM_018.jpg	99
2070.4	0.88	880.2	congruent	Block2	congruent/STIM_018.jpg	99
2074.164	0.782	782.1	congruent	Block2	congruent/STIM_018.jpg	100
2077.726	0.76	760.5	congruent	Block2	congruent/STIM_018.jpg	100
2080.963	0.639	639.3	congruent	Block2	congruent/STIM_019.jpg	99
2084.593	0.803	802.9	congruent	Block2	congruent/STIM_019.jpg	99
2087.795	0.943	942.6	congruent	Block2	congruent/STIM_019.jpg	100
2091.514	0.752	751.6	congruent	Block2	congruent/STIM_019.jpg	99
2095.822	0.711	710.6	congruent	Block2	congruent/STIM_019.jpg	99
2098.84	0.906	905.5	congruent	Block2	congruent/STIM_020.jpg	99
2102.626	0.808	808.1	congruent	Block2	congruent/STIM_020.jpg	100
2105.524	0.601	601.2	congruent	Block2	congruent/STIM_020.jpg	99
2108.19	0.614	613.6	congruent	Block2	congruent/STIM_020.jpg	99
2110.739	0.795	795.3	congruent	Block2	congruent/STIM_020.jpg	100
2113.729	0.682	681.7	congruent	Block2	congruent/STIM_021.jpg	99
2117.78	1.087	1086.8	congruent	Block2	congruent/STIM_021.jpg	99
2122.452	0.916	916.5	congruent	Block2	congruent/STIM_021.jpg	99
2125.801	0.776	776.1	congruent	Block2	congruent/STIM_021.jpg	99
2128.827	0.701	701.0	congruent	Block2	congruent/STIM_021.jpg	100
2133.091	0.873	873.2	congruent	Block2	congruent/STIM_022.jpg	100
2137.573	0.925	925.0	congruent	Block2	congruent/STIM_022.jpg	100
2140.959	0.625	624.6	congruent	Block2	congruent/STIM_022.jpg	99
2143.905	1.14	1140.1	congruent	Block2	congruent/STIM_022.jpg	99
2148.426	0.927	927.1	congruent	Block2	congruent/STIM_022.jpg	100
2151.363	0.861	860.8	congruent	Block2	congruent/STIM_023.jpg	99
2155.787	1.085	1084.9	congruent	Block2	congruent/STIM_023.jpg	99
2160.346	1.009	1009.0	congruent	Block2	congruent/STIM_023.jpg	99
2164.977	0.547	546.8	congruent	Block2	congruent/STIM_023.jpg	99
2169.125	0.889	889.3	congruent	Block2	congruent/STIM_023.jpg	99
2173.487	0.937	937.4	congruent	Block2	congruent/STIM_024.jpg	99
2178.133	0.971	971.1	congruent	Block2	congruent/STIM_024.jpg	100
2181.508	0.795	794.8	congruent	Block2	congruent/STIM_024.jpg	99
2184.467	0.859	858.7	congruent	Block2	congruent/STIM_024.jpg	99
2188.7	0.573	573.1	congruent	Block2	congruent/STIM_024.jpg	100
2192.632	0.636	635.7	congruent	Block2	congruent/STIM_025.jpg	99
2195.206	0.875	874.9	congruent	Block2	congruent/STIM_025.jpg	99
2198.283	1.011	1011.2	congruent	Block2	congruent/STIM_025.jpg	99
2202.074	0.642	642.0	congruent	Block2	congruent/STIM_025.jpg	99
2205.887	0.983	982.7	congruent	Block2	congruent/STIM_025.jpg	100
2210.389	1.041	1041.4	congruent	Block2	congruent/STIM_026.jpg	99
2214.333	0.624	623.7	congruent	Block2	congruent/STIM_026.jpg	100
2218.339	0.855	854.8	congruent	Block2	congruent/STIM_026.jpg	99
2221.56	0.639	639.2	congruent	Block2	congruent/STIM_026.jpg	100
2225.909	0.703	702.8	congruent	Block2	congruent/STIM_026.jpg	100
2230.307	0.848	848.3	congruent	Block2	congruent/STIM_027.jpg	99
2233.734	0.624	623.8	congruent	Block2	congruent/STIM_027.jpg	99
2237.888	0.558	558.1	congruent	Block2	congruent/STIM_027.jpg	99
2241.513	0.861	860.6	congruent	Block2	congruent/STIM_027.jpg	100
2245.002	0.964	964.4	congruent	Block2	congruent/STIM_027.jpg	99
2248.904	0.587	586.8	congruent	Block2	congruent/STIM_028.jpg	100
2252.583	0.89	890.5	congruent	Block2	congruent/STIM_028.jpg	99
2256.416	0.813	812.9	congruent	Block2	congruent/STIM_028.jpg	99
2261.11	1.046	1046.1	congruent	Block2	congruent/STIM_028.jpg	99
2264.734	0.494	493.6	congruent	Block2	congruent/STIM_028.jpg	99
2269.176	0.678	678.4	congruent	Block2	congruent/STIM_029.jpg	100
2273.32	0.772	772.5	congruent	Block2	congruent/STIM_029.jpg	99
2276.662	1.0	999.7	congruent	Block2	congruent/STIM_029.jpg	100
2279.639	0.75	749.7	congruent	Block2	congruent/STIM_029.jpg	100
2283.664	0.595	594.7	congruent	Block2	congruent/STIM_029.jpg	99
2286.328	0.664	663.5	incongruent	Block3	incongruent/STIM_000.jpg	99
2290.751	0.977	976.6	incongruent	Block3	incongruent/STIM_000.jpg	100
2294.79	0.795	795.3	incongruent	Block3	incongruent/STIM_000.jpg	99
2298.571	0.859	858.9	incongruent	Block3	incongruent/STIM_000.jpg	100
2302.716	0.725	724.8	incongruent	Block3	incongruent/STIM_000.jpg	99
2307.065	0.526	525.9	incongruent	Block3	incongruent/STIM_001.jpg	99
2310.429	1.107	1106.7	incongruent	Block3	incongruent/STIM_001.jpg	100
2314.82	0.739	739.2	incongruent	Block3	incongruent/STIM_001.jpg	99
2318.256	0.716	715.9	incongruent	Block3	incongruent/STIM_001.jpg	99
2321.683	0.921	920.7	incongruent	Block3	incongruent/STIM_001.jpg	99
2325.208	0.682	681.5	incongruent	Block3	incongruent/STIM_002.jpg	99
2328.252	0.639	638.7	incongruent	Block3	incongruent/STIM_002.jpg	100
2332.29	0.678	678.0	incongruent	Block3	incongruent/STIM_002.jpg	99
2335.057	0.983	982.8	incongruent	Block3	incongruent/STIM_002.jpg	99
2338.016	0.841	841.0	incongruent	Block3	incongruent/STIM_002.jpg	99
2341.953	0.725	724.8	incongruent	Block3	incongruent/STIM_003.jpg	99
2345.337	0.893	892.8	incongruent	Block3	incongruent/STIM_003.jpg	99
2348.626	1.2	1199.6	incongruent	Block3	incongruent/STIM_003.jpg	99
2352.745	0.997	997.4	incongruent	Block3	incongruent/STIM_003.jpg	99
2357.575	1.13	1129.5	incongruent	Block3	incongruent/STIM_003.jpg	99
2361.23	0.74	739.5	incongruent	Block3	incongruent/STIM_004.jpg	99
2365.297	0.656	656.5	incongruent	Block3	incongruent/STIM_004.jpg	100
2368.533	1.118	1117.7	incongruent	Block3	incongruent/STIM_004.jpg	100
2371.974	0.674	673.5	incongruent	Block3	incongruent/STIM_004.jpg	99
2375.954	1.104	1103.7	incongruent	Block3	incongruent/STIM_004.jpg	99
2379.219	0.948	947.6	incongruent	Block3	incongruent/STIM_005.jpg	100
2383.557	1.057	1057.4	incongruent	Block3	incongruent/STIM_005.jpg	100
2386.568	0.846	845.6	incongruent	Block3	incongruent/STIM_005.jpg	100
2391.137	0.833	833.2	incongruent	Block3	incongruent/STIM_005.jpg	99
2395.473	0.63	630.4	incongruent	Block3	incongruent/STIM_005.jpg	99
2398.138	1.042	1041.6	incongruent	Block3	incongruent/STIM_006.jpg	100
2402.61	0.651	651.2	incongruent	Block3	incongruent/STIM_006.jpg	99
2405.226	0.857	856.7	incongruent	Block3	incongruent/STIM_006.jpg	99
2408.605	0.788	787.5	incongruent	Block3	incongruent/STIM_006.jpg	100
2411.48	0.699	699.1	incongruent	Block3	incongruent/STIM_006.jpg	100
2414.752	1.036	1035.9	incongruent	Block3	incongruent/STIM_007.jpg	99
2418.918	0.789	788.6	incongruent	Block3	incongruent/STIM_007.jpg	100
2423.187	1.166	1166.2	incongruent	Block3	incongruent/STIM_007.jpg	100
2426.272	1.247	1246.9	incongruent	Block3	incongruent/STIM_007.jpg	100
2429.333	1.13	1129.7	incongruent	Block3	incongruent/STIM_007.jpg	100
2432.763	1.172	1172.5	incongruent	Block3	incongruent/STIM_008.jpg	100
2436.265	1.077	1076.6	incongruent	Block3	incongruent/STIM_008.jpg	99
2439.928	0.666	666.5	incongruent	Block3	incongruent/STIM_008.jpg	100
2444.464	0.998	998.4	incongruent	Block3	incongruent/STIM_008.jpg	99
2449.263	0.63	629.6	incongruent	Block3	incongruent/STIM_008.jpg	99
2451.967	0.674	674.3	incongruent	Block3	incongruent/STIM_009.jpg	99
2455.267	0.834	833.9	incongruent	Block3	incongruent/STIM_009.jpg	100
2459.125	1.051	1051.4	incongruent	Block3	incongruent/STIM_009.jpg	100
2462.593	0.67	669.8	incongruent	Block3	incongruent/STIM_009.jpg	100
2465.562	1.184	1183.9	incongruent	Block3	incongruent/STIM_009.jpg	100
2469.769	0.518	517.7	incongruent	Block3	incongruent/STIM_010.jpg	99
2474.202	1.1	1099.7	incongruent	Block3	incongruent/STIM_010.jpg	100
2479.082	0.854	854.4	incongruent	Block3	incongruent/STIM_010.jpg	100
2483.505	0.841	840.6	incongruent	Block3	incongruent/STIM_010.jpg	99
2486.862	0.95	949.5	incongruent	Block3	incongruent/STIM_010.jpg	100
2489.768	0.784	783.7	incongruent	Block3	incongruent/STIM_011.jpg	100
2492.971	0.739	739.1	incongruent	Block3	incongruent/STIM_011.jpg	100
2496.992	0.908	907.7	incongruent	Block3	incongruent/STIM_011.jpg	99
2500.57	0.865	865.0	incongruent	Block3	incongruent/STIM_011.jpg	99
2504.16	0.483	483.3	incongruent	Block3	incongruent/STIM_011.jpg	99
2507.736	0.919	919.3	incongruent	Block3	incongruent/STIM_012.jpg	99
2512.444	0.786	786.5	incongruent	Block3	incongruent/STIM_012.jpg	99
2516.344	0.524	523.6	incongruent	Block3	incongruent/STIM_012.jpg	100
2520.787	0.662	662.3	incongruent	Block3	incongruent/STIM_012.jpg	100
2524.717	1.149	1148.6	incongruent	Block3	incongruent/STIM_012.jpg	100
2528.498	0.611	610.9	incongruent	Block3	incongruent/STIM_013.jpg	100
2531.691	0.795	794.7	incongruent	Block3	incongruent/STIM_013.jpg	99
2535.822	0.96	960.0	incongruent	Block3	incongruent/STIM_013.jpg	99
2538.816	1.116	1115.8	incongruent	Block3	incongruent/STIM_013.jpg	100
2543.047	1.199	1198.8	incongruent	Block3	incongruent/STIM_013.jpg	100
2546.822	0.987	986.9	incongruent	Block3	incongruent/STIM_014.jpg	100
2550.24	1.21	1209.9	incongruent	Block3	incongruent/STIM_014.jpg	99
2553.187	0.952	952.0	incongruent	Block3	incongruent/STIM_014.jpg	100
2557.62	1.061	1061.0	incongruent	Block3	incongruent/STIM_014.jpg	100
2562.158	0.735	735.4	incongruent	Block3	incongruent/STIM_014.jpg	99
2566.124	0.595	594.7	incongruent	Block3	incongruent/STIM_015.jpg	99
2569.55	0.689	689.1	incongruent	Block3	incongruent/STIM_015.jpg	99
2572.658	1.182	1182.1	incongruent	Block3	incongruent/STIM_015.jpg	99
2576.898	0.871	871.3	incongruent	Block3	incongruent/STIM_015.jpg	100
2580.951	0.777	777.4	incongruent	Block3	incongruent/STIM_015.jpg	100
2584.663	1.128	1127.9	incongruent	Block3	incongruent/STIM_016.jpg	100
2589.397	1.13	1130.4	incongruent	Block3	incongruent/STIM_016.jpg	99
2593.056	0.713	713.1	incongruent	Block3	incongruent/STIM_016.jpg	100
2597.499	0.955	955.4	incongruent	Block3	incongruent/STIM_016.jpg	99
2601.151	0.642	642.4	incongruent	Block3	incongruent/STIM_016.jpg	100
2605.171	1.018	1017.9	incongruent	Block3	incongruent/STIM_017.jpg	100
2608.439	1.109	1109.4	incongruent	Block3	incongruent/STIM_017.jpg	99
2612.879	0.746	746.0	incongruent	Block3	incongruent/STIM_017.jpg	100
2617.255	0.834	833.9	incongruent	Block3	incongruent/STIM_017.jpg	99
2620.735	0.787	787.1	incongruent	Block3	incongruent/STIM_017.jpg	100
2625.243	1.238	1237.7	incongruent	Block3	incongruent/STIM_018.jpg	100
2629.713	0.982	981.7	incongruent	Block3	incongruent/STIM_018.jpg	100
2634.173	0.846	845.9	incongruent	Block3	incongruent/STIM_018.jpg	100
2638.249	0.677	677.1	incongruent	Block3	incongruent/STIM_018.jpg	100
2641.472	1.139	1138.9	incongruent	Block3	incongruent/STIM_018.jpg	100
2644.524	1.031	1030.9	incongruent	Block3	incongruent/STIM_019.jpg	100
2648.405	0.865	864.8	incongruent	Block3	incongruent/STIM_019.jpg	100
2652.381	0.993	992.9	incongruent	Block3	incongruent/STIM_019.jpg	99
2656.203	0.705	705.1	incongruent	Block3	incongruent/STIM_019.jpg	99
2658.861	1.159	1158.6	incongruent	Block3	incongruent/STIM_019.jpg	100
2663.247	0.737	737.0	incongruent	Block3	incongruent/STIM_020.jpg	99
2667.358	1.092	1092.0	incongruent	Block3	incongruent/STIM_020.jpg	100
2671.136	0.688	688.1	incongruent	Block3	incongruent/STIM_020.jpg	100
2674.684	0.605	605.1	incongruent	Block3	incongruent/STIM_020.jpg	99
2678.88	0.918	917.9	incongruent	Block3	incongruent/STIM_020.jpg	100
2681.767	0.784	784.1	incongruent	Block3	incongruent/STIM_021.jpg	99
2686.067	1.113	1112.7	incongruent	Block3	incongruent/STIM_021.jpg	100
2690.544	0.6	600.3	incongruent	Block3	incongruent/STIM_021.jpg	100
2693.707	0.831	831.2	incongruent	Block3	incongruent/STIM_021.jpg	100
2697.907	1.107	1107.3	incongruent	Block3	incongruent/STIM_021.jpg	100
2701.616	0.843	843.2	incongruent	Block3	incongruent/STIM_022.jpg	99
2705.419	0.971	970.7	incongruent	Block3	incongruent/STIM_022.jpg	99
2709.313	0.765	765.2	incongruent	Block3	incongruent/STIM_022.jpg	99
2712.502	0.978	977.6	incongruent	Block3	incongruent/STIM_022.jpg	99
2716.347	0.974	974.2	incongruent	Block3	incongruent/STIM_022.jpg	100
2720.343	0.862	861.9	incongruent	Block3	incongruent/STIM_023.jpg	99
2724.581	0.815	815.0	incongruent	Block3	incongruent/STIM_023.jpg	100
2729.021	0.889	888.8	incongruent	Block3	incongruent/STIM_023.jpg	100
2731.919	0.798	798.5	incongruent	Block3	incongruent/STIM_023.jpg	100
2734.596	0.785	785.2	incongruent	Block3	incongruent/STIM_023.jpg	100
2737.65	0.612	611.5	incongruent	Block3	incongruent/STIM_024.jpg	99
2741.913	0.699	699.3	incongruent	Block3	incongruent/STIM_024.jpg	99
2746.178	0.868	867.6	incongruent	Block3	incongruent/STIM_024.jpg	99
2749.224	0.974	973.8	incongruent	Block3	incongruent/STIM_024.jpg	99
2753.058	0.532	531.8	incongruent	Block3	incongruent/STIM_024.jpg	99
2755.987	0.683	682.8	incongruent	Block3	incongruent/STIM_025.jpg	99
2759.207	0.606	606.1	incongruent	Block3	incongruent/STIM_025.jpg	99
2763.157	0.687	686.7	incongruent	Block3	incongruent/STIM_025.jpg	100
2766.177	1.04	1040.3	incongruent	Block3	incongruent/STIM_025.jpg	100
2771.094	0.77	770.5	incongruent	Block3	incongruent/STIM_025.jpg	99
2774.552	1.034	1033.7	incongruent	Block3	incongruent/STIM_026.jpg	100
2777.985	1.08	1079.9	incongruent	Block3	incongruent/STIM_026.jpg	100
2781.864	0.93	930.1	incongruent	Block3	incongruent/STIM_026.jpg	99
2784.981	1.055	1055.0	incongruent	Block3	incongruent/STIM_026.jpg	99
2788.882	1.137	1137.3	incongruent	Block3	incongruent/STIM_026.jpg	100
2792.334	0.781	781.2	incongruent	Block3	incongruent/STIM_027.jpg	99
2795.627	0.75	750.1	incongruent	Block3	incongruent/STIM_027.jpg	100
2800.154	0.947	947.0	incongruent	Block3	incongruent/STIM_027.jpg	100
2804.363	1.044	1043.9	incongruent	Block3	incongruent/STIM_027.jpg	100
2808.502	1.102	1101.6	incongruent	Block3	incongruent/STIM_027.jpg	99
2812.826	1.164	1164.3	incongruent	Block3	incongruent/STIM_028.jpg	99
2817.608	1.144	1143.9	incongruent	Block3	incongruent/STIM_028.jpg	100
2821.841	0.67	670.1	incongruent	Block3	incongruent/STIM_028.jpg	100
2826.069	0.645	644.6	incongruent	Block3	incongruent/STIM_028.jpg	100
2828.745	0.939	938.9	incongruent	Block3	incongruent/STIM_028.jpg	99
2832.115	0.973	972.6	incongruent	Block3	incongruent/STIM_029.jpg	100
2836.801	0.726	726.2	incongruent	Block3	incongruent/STIM_029.jpg	99
2841.15	0.882	881.5	incongruent	Block3	incongruent/STIM_029.jpg	99
2844.667	0.695	694.6	incongruent	Block3	incongruent/STIM_029.jpg	99
2848.17	0.659	658.6	incongruent	Block3	incongruent/STIM_029.jpg	100
2851.397	0.805	805.2	congruent	Block3	congruent/STIM_000.jpg	100
2854.332	0.877	877.0	congruent	Block3	congruent/STIM_000.jpg	100
2857.441	0.696	696.2	congruent	Block3	congruent/STIM_000.jpg	99
2861.624	0.887	886.6	congruent	Block3	congruent/STIM_000.jpg	100
2864.449	0.552	552.4	congruent	Block3	congruent/STIM_000.jpg	100
2867.675	1.046	1045.8	congruent	Block3	congruent/STIM_001.jpg	99
2871.384	0.656	655.7	congruent	Block3	congruent/STIM_001.jpg	100
2875.166	0.706	705.9	congruent	Block3	congruent/STIM_001.jpg	100
2878.881	0.912	911.9	congruent	Block3	congruent/STIM_001.jpg	100
2883.464	0.83	830.4	congruent	Block3	congruent/STIM_001.jpg	100
2888.166	0.978	977.8	congruent	Block3	congruent/STIM_002.jpg	100
2891.32	0.95	950.0	congruent	Block3	congruent/STIM_002.jpg	100
2894.503	0.987	986.7	congruent	Block3	congruent/STIM_002.jpg	100
2899.012	0.746	745.9	congruent	Block3	congruent/STIM_002.jpg	100
2902.768	0.815	815.1	congruent	Block3	congruent/STIM_002.jpg	99
2905.775	0.867	866.6	congruent	Block3	congruent/STIM_003.jpg	99
2908.995	0.995	994.8	congruent	Block3	congruent/STIM_003.jpg	100
2912.249	0.91	909.6	congruent	Block3	congruent/STIM_003.jpg	99
2916.086	0.86	859.5	congruent	Block3	congruent/STIM_003.jpg	100
2920.62	0.921	921.1	congruent	Block3	congruent/STIM_003.jpg	100
2924.138	0.607	606.9	congruent	Block3	congruent/STIM_004.jpg	99
2927.535	0.813	813.4	congruent	Block3	congruent/STIM_004.jpg	100
2931.759	0.832	832.5	congruent	Block3	congruent/STIM_004.jpg	100
2935.31	0.716	716.0	congruent	Block3	congruent/STIM_004.jpg	100
2938.122	0.868	868.1	congruent	Block3	congruent/STIM_004.jpg	100
2941.2	0.845	844.6	congruent	Block3	congruent/STIM_005.jpg	100
2943.93	0.675	675.4	congruent	Block3	congruent/STIM_005.jpg	100
2946.459	1.007	1007.3	congruent	Block3	congruent/STIM_005.jpg	100
2950.268	1.006	1006.5	congruent	Block3	congruent/STIM_005.jpg	99
2953.467	0.562	562.5	congruent	Block3	congruent/STIM_005.jpg	99
2957.423	0.93	929.7	congruent	Block3	congruent/STIM_006.jpg	99
2962.229	0.678	678.5	congruent	Block3	congruent/STIM_006.jpg	99
2966.183	0.833	833.1	congruent	Block3	congruent/STIM_006.jpg	100
2969.467	0.949	949.3	congruent	Block3	congruent/STIM_006.jpg	100
2974.125	0.693	693.2	congruent	Block3	congruent/STIM_006.jpg	100
2977.807	0.746	746.1	congruent	Block3	congruent/STIM_007.jpg	99
2981.574	0.795	795.2	congruent	Block3	congruent/STIM_007.jpg	100
2985.299	0.677	676.6	congruent	Block3	congruent/STIM_007.jpg	99
2988.411	1.019	1019.3	congruent	Block3	congruent/STIM_007.jpg	99
2992.287	0.917	917.2	congruent	Block3	congruent/STIM_007.jpg	99
2997.057	0.621	621.4	congruent	Block3	congruent/STIM_008.jpg	100
3000.842	0.793	792.7	congruent	Block3	congruent/STIM_008.jpg	99
3005.033	0.912	911.5	congruent	Block3	congruent/STIM_008.jpg	100
3008.598	0.83	830.0	congruent	Block3	congruent/STIM_008.jpg	100
3013.064	0.925	925.3	congruent	Block3	congruent/STIM_008.jpg	100
3016.967	0.758	758.5	congruent	Block3	congruent/STIM_009.jpg	99
3021.212	0.892	891.5	congruent	Block3	congruent/STIM_009.jpg	100
3024.258	0.945	944.8	congruent	Block3	congruent/STIM_009.jpg	99
3028.161	0.609	609.0	congruent	Block3	congruent/STIM_009.jpg	100
3031.029	0.868	868.2	congruent	Block3	congruent/STIM_009.jpg	99
3035.399	0.933	932.6	congruent	Block3	congruent/STIM_010.jpg	99
3038.218	0.595	595.4	congruent	Block3	congruent/STIM_010.jpg	100
3041.453	0.991	990.9	congruent	Block3	congruent/STIM_010.jpg	99
3045.319	0.579	578.7	congruent	Block3	congruent/STIM_010.jpg	100
3049.756	0.866	866.0	congruent	Block3	congruent/STIM_010.jpg	100
3053.864	0.821	821.3	congruent	Block3	congruent/STIM_011.jpg	99
3058.582	0.605	604.6	congruent	Block3	congruent/STIM_011.jpg	99
3062.103	0.902	902.3	congruent	Block3	congruent/STIM_011.jpg	100
3065.53	0.784	784.2	congruent	Block3	congruent/STIM_011.jpg	99
3070.137	1.014	1013.8	congruent	Block3	congruent/STIM_011.jpg	99
3073.034	0.928	928.4	congruent	Block3	congruent/STIM_012.jpg	100
3076.499	0.858	858.5	congruent	Block3	congruent/STIM_012.jpg	100
3080.244	1.044	1044.5	congruent	Block3	congruent/STIM_012.jpg	100
3084.617	0.714	713.6	congruent	Block3	congruent/STIM_012.jpg	100
3088.764	0.895	895.4	congruent	Block3	congruent/STIM_012.jpg	99
3093.493	0.676	675.6	congruent	Block3	congruent/STIM_013.jpg	99
3096.994	0.778	778.0	congruent	Block3	congruent/STIM_013.jpg	100
3100.147	0.745	745.0	congruent	Block3	congruent/STIM_013.jpg	99
3103.733	0.651	650.9	congruent	Block3	congruent/STIM_013.jpg	99
3107.144	0.77	769.8	congruent	Block3	congruent/STIM_013.jpg	99
3111.663	0.869	869.1	congruent	Block3	congruent/STIM_014.jpg	99
3115.614	1.132	1131.8	congruent	Block3	congruent/STIM_014.jpg	100
3120.09	0.958	958.1	congruent	Block3	congruent/STIM_014.jpg	100
3123.342	0.536	536.5	congruent	Block3	congruent/STIM_014.jpg	99
3126.218	0.716	716.3	congruent	Block3	congruent/STIM_014.jpg	99
3130.744	0.834	834.5	congruent	Block3	congruent/STIM_015.jpg	99
3134.323	0.927	927.4	congruent	Block3	congruent/STIM_015.jpg	99
3137.929	0.931	930.6	congruent	Block3	congruent/STIM_015.jpg	99
3141.554	0.958	958.0	congruent	Block3	congruent/STIM_015.jpg	99
3145.485	0.684	683.6	congruent	Block3	congruent/STIM_015.jpg	100
3148.301	1.019	1019.4	congruent	Block3	congruent/STIM_016.jpg	99
3151.218	0.954	953.6	congruent	Block3	congruent/STIM_016.jpg	100
3155.213	0.886	885.7	congruent	Block3	congruent/STIM_016.jpg	99
3157.916	0.981	981.3	congruent	Block3	congruent/STIM_016.jpg	100
3160.859	0.991	991.0	congruent	Block3	congruent/STIM_016.jpg	100
3164.433	0.805	805.0	congruent	Block3	congruent/STIM_017.jpg	100
3168.73	0.688	687.6	congruent	Block3	congruent/STIM_017.jpg	99
3172.303	0.707	707.4	congruent	Block3	congruent/STIM_017.jpg	100
3175.607	0.902	902.3	congruent	Block3	congruent/STIM_017.jpg	99
3179.225	0.986	986.3	congruent	Block3	congruent/STIM_017.jpg	99
3182.814	0.723	723.3	congruent	Block3	congruent/STIM_018.jpg	100
3186.412	0.935	935.1	congruent	Block3	congruent/STIM_018.jpg	100
3190.858	0.853	853.4	congruent	Block3	congruent/STIM_018.jpg	99
3194.202	0.727	726.8	congruent	Block3	congruent/STIM_018.jpg	100
3198.802	0.682	681.7	congruent	Block3	congruent/STIM_018.jpg	99
3202.721	0.786	786.5	congruent	Block3	congruent/STIM_019.jpg	100
3205.693	0.954	953.6	congruent	Block3	congruent/STIM_019.jpg	99
3209.781	0.89	889.6	congruent	Block3	congruent/STIM_019.jpg	99
3214.058	0.86	859.8	congruent	Block3	congruent/STIM_019.jpg	99
3218.224	0.686	686.4	congruent	Block3	congruent/STIM_019.jpg	100
3220.871	0.734	734.1	congruent	Block3	congruent/STIM_020.jpg	100
3223.667	0.922	921.9	congruent	Block3	congruent/STIM_020.jpg	100
3227.871	0.714	713.5	congruent	Block3	congruent/STIM_020.jpg	99
3230.813	0.712	711.9	congruent	Block3	congruent/STIM_020.jpg	100
3235.143	0.68	680.3	congruent	Block3	congruent/STIM_020.jpg	100
3239.065	0.971	971.3	congruent	Block3	congruent/STIM_021.jpg	99
3243.214	0.91	909.7	congruent	Block3	congruent/STIM_021.jpg	100
3246.673	0.854	853.8	congruent	Block3	congruent/STIM_021.jpg	100
3251.341	1.057	1056.6	congruent	Block3	congruent/STIM_021.jpg	99
3255.71	0.684	683.7	congruent	Block3	congruent/STIM_021.jpg	100
3259.413	0.562	562.5	congruent	Block3	congruent/STIM_022.jpg	100
3263.692	0.671	670.7	congruent	Block3	congruent/STIM_022.jpg	100
3267.325	0.588	588.5	congruent	Block3	congruent/STIM_022.jpg	100
3270.481	0.789	789.3	congruent	Block3	congruent/STIM_022.jpg	100
3275.021	0.744	743.5	congruent	Block3	congruent/STIM_022.jpg	100
3279.253	0.696	696.0	congruent	Block3	congruent/STIM_023.jpg	99
3283.639	0.746	745.5	congruent	Block3	congruent/STIM_023.jpg	100
3287.485	0.944	944.4	congruent	Block3	congruent/STIM_023.jpg	100
3291.171	0.953	952.8	congruent	Block3	congruent/STIM_023.jpg	100
3295.86	0.983	983.1	congruent	Block3	congruent/STIM_023.jpg	100
3300.541	0.964	964.3	congruent	Block3	congruent/STIM_024.jpg	100
3305.232	0.636	635.6	congruent	Block3	congruent/STIM_024.jpg	99
3309.22	0.645	645.2	congruent	Block3	congruent/STIM_024.jpg	99
3313.455	0.835	835.4	congruent	Block3	congruent/STIM_024.jpg	99
3316.89	1.016	1015.6	congruent	Block3	congruent/STIM_024.jpg	100
3320.576	0.848	848.4	congruent	Block3	congruent/STIM_025.jpg	100
3323.638	0.939	939.1	congruent	Block3	congruent/STIM_025.jpg	99
3327.953	0.836	835.8	congruent	Block3	congruent/STIM_025.jpg	99
3332.682	0.882	882.3	congruent	Block3	congruent/STIM_025.jpg	100
3335.833	0.726	726.2	congruent	Block3	congruent/STIM_025.jpg	100
3339.489	0.694	693.7	congruent	Block3	congruent/STIM_026.jpg	99
3343.264	0.824	824.3	congruent	Block3	congruent/STIM_026.jpg	99
3346.465	0.873	872.9	congruent	Block3	congruent/STIM_026.jpg	100
3351.352	0.762	762.3	congruent	Block3	congruent/STIM_026.jpg	99
3354.593	0.702	702.1	congruent	Block3	congruent/STIM_026.jpg	100
3358.945	0.996	996.1	congruent	Block3	congruent/STIM_027.jpg	100
3361.987	0.749	748.8	congruent	Block3	congruent/STIM_027.jpg	99
3366.034	0.998	998.3	congruent	Block3	congruent/STIM_027.jpg	99
3369.728	0.634	633.6	congruent	Block3	congruent/STIM_027.jpg	100
3372.83	0.685	684.7	congruent	Block3	congruent/STIM_027.jpg	100
3376.906	0.911	910.9	congruent	Block3	congruent/STIM_028.jpg	100
3379.791	0.619	619.4	congruent	Block3	congruent/STIM_028.jpg	99
3383.558	0.782	782.4	congruent	Block3	congruent/STIM_028.jpg	99
3386.808	0.634	633.6	congruent	Block3	congruent/STIM_028.jpg	100
3390.731	0.582	582.3	congruent	Block3	congruent/STIM_028.jpg	100
3395.065	0.701	701.4	congruent	Block3	congruent/STIM_029.jpg	99
3399.083	0.944	944.4	congruent	Block3	congruent/STIM_029.jpg	99
3403.43	0.988	987.9	congruent	Block3	congruent/STIM_029.jpg	99
3407.326	0.739	738.9	congruent	Block3	congruent/STIM_029.jpg	100
3411.285	0.957	956.6	congruent	Block3	congruent/STIM_029.jpg	99
