onset	duration	accuracy_binary	trial_type	learning_stage	stimulus
0.0	2.32	0	generate	Run1	generate/STIM_000.jpg
4.618	1.364	1	generate	Run1	generate/STIM_000.jpg
8.234	0.991	1	generate	Run1	generate/STIM_000.jpg
11.572	2.148	1	generate	Run1	generate/STIM_000.jpg
16.28	1.239	1	generate	Run1	generate/STIM_000.jpg
21.115	1.354	1	generate	Run1	generate/STIM_001.jpg
25.041	1.909	0	generate	Run1	generate/STIM_001.jpg
30.383	1.756	1	generate	Run1	generate/STIM_001.jpg
34.524	1.801	0	generate	Run1	generate/STIM_001.jpg
39.877	1.19	0	generate	Run1	generate/STIM_001.jpg
43.527	2.612	1	generate	Run1	generate/STIM_002.jpg
48.922	1.215	1	generate	Run1	generate/STIM_002.jpg
53.393	2.436	0	generate	Run1	generate/STIM_002.jpg
59.359	1.352	0	generate	Run1	generate/STIM_002.jpg
64.263	1.907	1	generate	Run1	generate/STIM_002.jpg
69.241	1.358	1	generate	Run1	generate/STIM_003.jpg
72.84	1.31	1	generate	Run1	generate/STIM_003.jpg
77.042	1.989	1	generate	Run1	generate/STIM_003.jpg
82.899	1.256	0	generate	Run1	generate/STIM_003.jpg
88.114	1.0	1	generate	Run1	generate/STIM_003.jpg
91.46	2.013	1	generate	Run1	generate/STIM_004.jpg
95.706	1.741	1	generate	Run1	generate/STIM_004.jpg
100.145	1.058	1	generate	Run1	generate/STIM_004.jpg
104.255	1.117	1	generate	Run1	generate/STIM_004.jpg
109.317	1.674	0	generate	Run1	generate/STIM_004.jpg
113.001	2.684	1	generate	Run1	generate/STIM_005.jpg
119.359	2.429	0	generate	Run1	generate/STIM_005.jpg
125.743	1.415	1	generate	Run1	generate/STIM_005.jpg
130.227	2.038	1	generate	Run1	generate/STIM_005.jpg
135.582	1.197	1	generate	Run1	generate/STIM_005.jpg
139.244	1.812	0	generate	Run1	generate/STIM_006.jpg
144.561	1.102	1	generate	Run1	generate/STIM_006.jpg
149.447	1.421	1	generate	Run1	generate/STIM_006.jpg
153.343	2.168	1	generate	Run1	generate/STIM_006.jpg
157.813	2.137	1	generate	Run1	generate/STIM_006.jpg
162.686	1.25	0	generate	Run1	generate/STIM_007.jpg
166.168	1.714	1	generate	Run1	generate/STIM_007.jpg
170.663	2.162	1	generate	Run1	generate/STIM_007.jpg
175.193	1.437	1	generate	Run1	generate/STIM_007.jpg
179.238	1.016	0	generate	Run1	generate/STIM_007.jpg
182.359	2.376	1	generate	Run1	generate/STIM_008.jpg
188.697	2.149	0	generate	Run1	generate/STIM_008.jpg
193.883	2.449	0	generate	Run1	generate/STIM_008.jpg
198.906	2.045	1	generate	Run1	generate/STIM_008.jpg
204.695	1.044	1	generate	Run1	generate/STIM_008.jpg
209.165	1.286	0	generate	Run1	generate/STIM_009.jpg
212.91	1.39	1	generate	Run1	generate/STIM_009.jpg
217.435	1.634	1	generate	Run1	generate/STIM_009.jpg
222.332	1.005	1	generate	Run1	generate/STIM_009.jpg
227.154	2.107	0	generate	Run1	generate/STIM_009.jpg
232.681	1.226	1	generate	Run1	generate/STIM_010.jpg
236.711	2.002	0	generate	Run1	generate/STIM_010.jpg
241.516	2.458	1	generate	Run1	generate/STIM_010.jpg
247.589	1.841	1	generate	Run1	generate/STIM_010.jpg
252.45	1.888	0	generate	Run1	generate/STIM_010.jpg
256.607	2.348	1	generate	Run1	generate/STIM_011.jpg
261.637	2.168	1	generate	Run1	generate/STIM_011.jpg
267.524	1.913	1	generate	Run1	generate/STIM_011.jpg
271.776	1.349	1	generate	Run1	generate/STIM_011.jpg
276.985	0.973	1	generate	Run1	generate/STIM_011.jpg
281.912	2.314	1	generate	Run1	generate/STIM_012.jpg
286.719	1.714	1	generate	Run1	generate/STIM_012.jpg
291.835	2.015	1	generate	Run1	generate/STIM_012.jpg
297.84	1.167	1	generate	Run1	generate/STIM_012.jpg
302.031	2.042	1	generate	Run1	generate/STIM_012.jpg
307.326	2.0	0	generate	Run1	generate/STIM_013.jpg
312.968	1.321	0	generate	Run1	generate/STIM_013.jpg
317.273	2.224	0	generate	Run1	generate/STIM_013.jpg
322.797	1.8	1	generate	Run1	generate/STIM_013.jpg
327.437	0.886	0	generate	Run1	generate/STIM_013.jpg
331.057	2.523	1	generate	Run1	generate/STIM_014.jpg
336.55	2.092	0	generate	Run1	generate/STIM_014.jpg
341.686	1.516	0	generate	Run1	generate/STIM_014.jpg
346.842	1.623	1	generate	Run1	generate/STIM_014.jpg
351.713	1.812	1	generate	Run1	generate/STIM_014.jpg
355.551	2.258	1	generate	Run1	generate/STIM_015.jpg
361.66	2.478	0	generate	Run1	generate/STIM_015.jpg
367.235	1.947	1	generate	Run1	generate/STIM_015.jpg
371.712	1.795	1	generate	Run1	generate/STIM_015.jpg
375.565	0.883	1	generate	Run1	generate/STIM_015.jpg
379.732	1.986	1	generate	Run1	generate/STIM_016.jpg
383.773	1.226	0	generate	Run1	generate/STIM_016.jpg
387.937	1.738	0	generate	Run1	generate/STIM_016.jpg
392.925	1.66	0	generate	Run1	generate/STIM_016.jpg
397.454	1.489	0	generate	Run1	generate/STIM_016.jpg
401.113	1.124	1	generate	Run1	generate/STIM_017.jpg
406.008	2.039	1	generate	Run1	generate/STIM_017.jpg
411.404	1.609	1	generate	Run1	generate/STIM_017.jpg
416.016	1.644	1	generate	Run1	generate/STIM_017.jpg
420.019	2.1	1	generate	Run1	generate/STIM_017.jpg
424.808	2.522	0	generate	Run1	generate/STIM_018.jpg
429.629	2.124	1	generate	Run1	generate/STIM_018.jpg
434.778	1.651	0	generate	Run1	generate/STIM_018.jpg
439.499	2.051	0	generate	Run1	generate/STIM_018.jpg
444.522	1.885	1	generate	Run1	generate/STIM_018.jpg
449.144	2.544	1	generate	Run1	generate/STIM_019.jpg
454.426	1.447	1	generate	Run1	generate/STIM_019.jpg
458.463	1.291	1	generate	Run1	generate/STIM_019.jpg
463.469	2.12	1	generate	Run1	generate/STIM_019.jpg
469.142	1.171	1	generate	Run1	generate/STIM_019.jpg
474.119	1.57	1	generate	Run1	generate/STIM_020.jpg
477.743	1.966	1	generate	Run1	generate/STIM_020.jpg
481.867	2.35	1	generate	Run1	generate/STIM_020.jpg
486.44	0.959	1	generate	Run1	generate/STIM_020.jpg
490.874	1.158	1	generate	Run1	generate/STIM_020.jpg
495.184	2.594	1	generate	Run1	generate/STIM_021.jpg
501.371	2.372	1	generate	Run1	generate/STIM_021.jpg
506.389	1.417	0	generate	Run1	generate/STIM_021.jpg
511.365	1.841	1	generate	Run1	generate/STIM_021.jpg
515.745	1.444	1	generate	Run1	generate/STIM_021.jpg
520.628	1.313	0	generate	Run1	generate/STIM_022.jpg
525.878	2.232	1	generate	Run1	generate/STIM_022.jpg
531.506	2.046	0	generate	Run1	generate/STIM_022.jpg
536.309	1.878	1	generate	Run1	generate/STIM_022.jpg
541.467	1.925	1	generate	Run1	generate/STIM_022.jpg
545.415	2.101	0	generate	Run1	generate/STIM_023.jpg
549.924	1.399	0	generate	Run1	generate/STIM_023.jpg
553.441	2.145	0	generate	Run1	generate/STIM_023.jpg
558.093	2.152	0	generate	Run1	generate/STIM_023.jpg
563.119	2.174	1	generate	Run1	generate/STIM_023.jpg
568.49	1.115	1	generate	Run1	generate/STIM_024.jpg
573.076	1.437	0	generate	Run1	generate/STIM_024.jpg
576.726	1.75	1	generate	Run1	generate/STIM_024.jpg
581.937	1.436	1	generate	Run1	generate/STIM_024.jpg
586.157	1.165	1	generate	Run1	generate/STIM_024.jpg
590.592	0.561	1	repeat	Run1	repeat/STIM_000.jpg
593.279	0.746	1	repeat	Run1	repeat/STIM_000.jpg
597.001	0.674	1	repeat	Run1	repeat/STIM_000.jpg
599.748	0.484	1	repeat	Run1	repeat/STIM_000.jpg
602.872	0.597	1	repeat	Run1	repeat/STIM_000.jpg
606.757	0.914	1	repeat	Run1	repeat/STIM_001.jpg
610.847	0.645	1	repeat	Run1	repeat/STIM_001.jpg
615.475	0.606	1	repeat	Run1	repeat/STIM_001.jpg
619.804	0.593	1	repeat	Run1	repeat/STIM_001.jpg
623.307	0.47	1	repeat	Run1	repeat/STIM_001.jpg
627.173	0.704	1	repeat	Run1	repeat/STIM_002.jpg
631.014	0.538	0	repeat	Run1	repeat/STIM_002.jpg
635.441	0.836	1	repeat	Run1	repeat/STIM_002.jpg
640.05	0.771	1	repeat	Run1	repeat/STIM_002.jpg
643.969	0.823	1	repeat	Run1	repeat/STIM_002.jpg
648.491	0.508	1	repeat	Run1	repeat/STIM_003.jpg
652.663	0.72	1	repeat	Run1	repeat/STIM_003.jpg
655.457	0.812	1	repeat	Run1	repeat/STIM_003.jpg
660.083	0.587	1	repeat	Run1	repeat/STIM_003.jpg
663.147	0.742	1	repeat	Run1	repeat/STIM_003.jpg
667.407	0.479	1	repeat	Run1	repeat/STIM_004.jpg
669.9	0.465	0	repeat	Run1	repeat/STIM_004.jpg
673.654	0.504	1	repeat	Run1	repeat/STIM_004.jpg
678.131	0.843	1	repeat	Run1	repeat/STIM_004.jpg
681.777	0.785	1	repeat	Run1	repeat/STIM_004.jpg
685.682	0.571	1	repeat	Run1	repeat/STIM_005.jpg
688.961	0.877	1	repeat	Run1	repeat/STIM_005.jpg
692.315	0.879	0	repeat	Run1	repeat/STIM_005.jpg
696.0	0.762	1	repeat	Run1	repeat/STIM_005.jpg
700.207	0.798	1	repeat	Run1	repeat/STIM_005.jpg
703.356	0.491	0	repeat	Run1	repeat/STIM_006.jpg
707.067	0.872	1	repeat	Run1	repeat/STIM_006.jpg
711.363	0.802	1	repeat	Run1	repeat/STIM_006.jpg
715.0	0.865	1	repeat	Run1	repeat/STIM_006.jpg
718.248	0.797	1	repeat	Run1	repeat/STIM_006.jpg
722.075	0.621	1	repeat	Run1	repeat/STIM_007.jpg
726.372	0.663	1	repeat	Run1	repeat/STIM_007.jpg
729.422	0.766	0	repeat	Run1	repeat/STIM_007.jpg
732.511	0.812	1	repeat	Run1	repeat/STIM_007.jpg
737.215	0.517	1	repeat	Run1	repeat/STIM_007.jpg
740.54	0.552	0	repeat	Run1	repeat/STIM_008.jpg
744.611	0.524	1	repeat	Run1	repeat/STIM_008.jpg
747.934	0.872	1	repeat	Run1	repeat/STIM_008.jpg
751.801	0.873	1	repeat	Run1	repeat/STIM_008.jpg
755.83	0.53	1	repeat	Run1	repeat/STIM_008.jpg
759.194	0.698	1	repeat	Run1	repeat/STIM_009.jpg
762.36	0.798	1	repeat	Run1	repeat/STIM_009.jpg
766.275	0.502	1	repeat	Run1	repeat/STIM_009.jpg
769.413	0.541	1	repeat	Run1	repeat/STIM_009.jpg
773.01	0.893	1	repeat	Run1	repeat/STIM_009.jpg
777.106	0.831	1	repeat	Run1	repeat/STIM_010.jpg
781.178	0.703	0	repeat	Run1	repeat/STIM_010.jpg
785.711	0.512	1	repeat	Run1	repeat/STIM_010.jpg
789.322	0.626	1	repeat	Run1	repeat/STIM_010.jpg
793.69	0.908	1	repeat	Run1	repeat/STIM_010.jpg
796.626	0.914	1	repeat	Run1	repeat/STIM_011.jpg
801.471	0.663	1	repeat	Run1	repeat/STIM_011.jpg
805.873	0.644	1	repeat	Run1	repeat/STIM_011.jpg
808.987	0.864	1	repeat	Run1	repeat/STIM_011.jpg
812.114	0.775	0	repeat	Run1	repeat/STIM_011.jpg
815.908	0.839	1	repeat	Run1	repeat/STIM_012.jpg
820.177	0.698	1	repeat	Run1	repeat/STIM_012.jpg
823.167	0.63	1	repeat	Run1	repeat/STIM_012.jpg
826.137	0.532	1	repeat	Run1	repeat/STIM_012.jpg
829.39	0.577	1	repeat	Run1	repeat/STIM_012.jpg
832.377	0.682	1	repeat	Run1	repeat/STIM_013.jpg
835.068	0.835	1	repeat	Run1	repeat/STIM_013.jpg
838.723	0.837	1	repeat	Run1	repeat/STIM_013.jpg
843.218	0.514	1	repeat	Run1	repeat/STIM_013.jpg
847.324	0.798	1	repeat	Run1	repeat/STIM_013.jpg
851.026	0.722	1	repeat	Run1	repeat/STIM_014.jpg
854.513	0.853	1	repeat	Run1	repeat/STIM_014.jpg
858.144	0.608	1	repeat	Run1	repeat/STIM_014.jpg
861.991	0.825	1	repeat	Run1	repeat/STIM_014.jpg
865.494	0.638	1	repeat	Run1	repeat/STIM_014.jpg
870.038	1.03	1	generate	Run2	generate/STIM_000.jpg
874.922	1.717	1	generate	Run2	generate/STIM_000.jpg
879.418	1.986	1	generate	Run2	generate/STIM_000.jpg
884.74	1.526	0	generate	Run2	generate/STIM_000.jpg
889.209	0.865	1	generate	Run2	generate/STIM_000.jpg
893.528	2.302	1	generate	Run2	generate/STIM_001.jpg
899.805	1.73	0	generate	Run2	generate/STIM_001.jpg
904.547	1.044	1	generate	Run2	generate/STIM_001.jpg
909.293	1.541	1	generate	Run2	generate/STIM_001.jpg
913.149	1.524	1	generate	Run2	generate/STIM_001.jpg
917.065	2.148	1	generate	Run2	generate/STIM_002.jpg
922.777	1.328	1	generate	Run2	generate/STIM_002.jpg
927.372	0.984	1	generate	Run2	generate/STIM_002.jpg
931.781	1.789	0	generate	Run2	generate/STIM_002.jpg
937.08	1.665	1	generate	Run2	generate/STIM_002.jpg
942.207	0.939	1	generate	Run2	generate/STIM_003.jpg
946.771	1.515	1	generate	Run2	generate/STIM_003.jpg
950.786	0.836	1	generate	Run2	generate/STIM_003.jpg
954.7	1.597	1	generate	Run2	generate/STIM_003.jpg
959.686	1.119	1	generate	Run2	generate/STIM_003.jpg
964.552	1.564	1	generate	Run2	generate/STIM_004.jpg
970.113	1.628	1	generate	Run2	generate/STIM_004.jpg
975.622	1.661	1	generate	Run2	generate/STIM_004.jpg
979.971	1.293	1	generate	Run2	generate/STIM_004.jpg
984.824	0.908	1	generate	Run2	generate/STIM_004.jpg
989.202	1.703	1	generate	Run2	generate/STIM_005.jpg
992.98	2.005	1	generate	Run2	generate/STIM_005.jpg
997.498	0.933	1	generate	Run2	generate/STIM_005.jpg
1002.081	1.271	0	generate	Run2	generate/STIM_005.jpg
1006.67	0.924	1	generate	Run2	generate/STIM_005.jpg
1011.143	1.506	1	generate	Run2	generate/STIM_006.jpg
1014.839	2.056	1	generate	Run2	generate/STIM_006.jpg
1019.579	1.277	1	generate	Run2	generate/STIM_006.jpg
1023.066	1.718	1	generate	Run2	generate/STIM_006.jpg
1027.584	1.352	1	generate	Run2	generate/STIM_006.jpg
1032.359	1.015	1	generate	Run2	generate/STIM_007.jpg
1035.402	1.478	1	generate	Run2	generate/STIM_007.jpg
1039.87	2.002	0	generate	Run2	generate/STIM_007.jpg
1044.67	1.913	1	generate	Run2	generate/STIM_007.jpg
1050.002	1.387	1	generate	Run2	generate/STIM_007.jpg
1054.204	1.866	1	generate	Run2	generate/STIM_008.jpg
1058.497	1.358	1	generate	Run2	generate/STIM_008.jpg
1062.864	1.959	1	generate	Run2	generate/STIM_008.jpg
1068.808	1.627	1	generate	Run2	generate/STIM_008.jpg
1073.814	1.714	1	generate	Run2	generate/STIM_008.jpg
1078.504	1.828	1	generate	Run2	generate/STIM_009.jpg
1082.979	1.942	1	generate	Run2	generate/STIM_009.jpg
1088.369	1.911	0	generate	Run2	generate/STIM_009.jpg
1093.464	1.28	1	generate	Run2	generate/STIM_009.jpg
1098.037	1.156	1	generate	Run2	generate/STIM_009.jpg
1101.447	1.038	1	generate	Run2	generate/STIM_010.jpg
1105.182	1.335	1	generate	Run2	generate/STIM_010.jpg
1109.986	2.024	0	generate	Run2	generate/STIM_010.jpg
1114.673	1.299	1	generate	Run2	generate/STIM_010.jpg
1118.002	1.67	1	generate	Run2	generate/STIM_010.jpg
1122.225	1.565	0	generate	Run2	generate/STIM_011.jpg
1126.214	1.453	1	generate	Run2	generate/STIM_011.jpg
1129.765	1.499	1	generate	Run2	generate/STIM_011.jpg
1133.522	1.631	0	generate	Run2	generate/STIM_011.jpg
1137.724	1.715	1	generate	Run2	generate/STIM_011.jpg
1143.313	2.108	1	generate	Run2	generate/STIM_012.jpg
1149.192	2.189	1	generate	Run2	generate/STIM_012.jpg
1154.779	0.984	1	generate	Run2	generate/STIM_012.jpg
1158.998	0.92	1	generate	Run2	generate/STIM_012.jpg
1162.196	0.85	1	generate	Run2	generate/STIM_012.jpg
1166.984	2.06	1	generate	Run2	generate/STIM_013.jpg
1171.633	1.923	1	generate	Run2	generate/STIM_013.jpg
1177.024	1.604	0	generate	Run2	generate/STIM_013.jpg
1181.812	1.354	0	generate	Run2	generate/STIM_013.jpg
1186.168	1.472	1	generate	Run2	generate/STIM_013.jpg
1191.279	0.943	1	generate	Run2	generate/STIM_014.jpg
1195.463	1.268	0	generate	Run2	generate/STIM_014.jpg
1200.535	1.403	1	generate	Run2	generate/STIM_014.jpg
1204.033	1.156	1	generate	Run2	generate/STIM_014.jpg
1207.768	1.266	1	generate	Run2	generate/STIM_014.jpg
1212.505	1.666	0	generate	Run2	generate/STIM_015.jpg
1217.341	0.89	1	generate	Run2	generate/STIM_015.jpg
1222.185	1.357	1	generate	Run2	generate/STIM_015.jpg
1226.739	1.216	1	generate	Run2	generate/STIM_015.jpg
1231.733	1.486	1	generate	Run2	generate/STIM_015.jpg
1235.222	1.184	0	generate	Run2	generate/STIM_016.jpg
1239.903	1.677	1	generate	Run2	generate/STIM_016.jpg
1243.637	0.899	1	generate	Run2	generate/STIM_016.jpg
1247.75	0.774	0	generate	Run2	generate/STIM_016.jpg
1251.12	1.026	1	generate	Run2	generate/STIM_016.jpg
1256.016	1.199	1	generate	Run2	generate/STIM_017.jpg
1259.587	1.596	1	generate	Run2	generate/STIM_017.jpg
1263.538	1.005	1	generate	Run2	generate/STIM_017.jpg
1267.542	1.535	1	generate	Run2	generate/STIM_017.jpg
1271.213	0.769	0	generate	Run2	generate/STIM_017.jpg
1274.681	1.685	0	generate	Run2	generate/STIM_018.jpg
1279.799	1.595	1	generate	Run2	generate/STIM_018.jpg
1285.192	1.067	1	generate	Run2	generate/STIM_018.jpg
1288.84	1.814	0	generate	Run2	generate/STIM_018.jpg
1292.933	1.054	1	generate	Run2	generate/STIM_018.jpg
1296.614	1.212	1	generate	Run2	generate/STIM_019.jpg
1300.164	2.088	1	generate	Run2	generate/STIM_019.jpg
1305.213	1.439	1	generate	Run2	generate/STIM_019.jpg
1309.766	1.205	0	generate	Run2	generate/STIM_019.jpg
1314.589	1.577	1	generate	Run2	generate/STIM_019.jpg
1318.975	1.536	1	generate	Run2	generate/STIM_020.jpg
1323.48	1.933	1	generate	Run2	generate/STIM_020.jpg
1328.174	1.828	0	generate	Run2	generate/STIM_020.jpg
1333.984	1.192	0	generate	Run2	generate/STIM_020.jpg
1338.805	1.92	1	generate	Run2	generate/STIM_020.jpg
1344.293	2.326	0	generate	Run2	generate/STIM_021.jpg
1348.634	1.369	1	generate	Run2	generate/STIM_021.jpg
1352.775	1.888	1	generate	Run2	generate/STIM_021.jpg
1356.901	1.512	1	generate	Run2	generate/STIM_021.jpg
1361.509	1.673	1	generate	Run2	generate/STIM_021.jpg
1365.467	2.317	1	generate	Run2	generate/STIM_022.jpg
1369.834	2.149	1	generate	Run2	generate/STIM_022.jpg
1374.047	1.384	1	generate	Run2	generate/STIM_022.jpg
1379.297	0.796	1	generate	Run2	generate/STIM_022.jpg
1382.752	0.88	0	generate	Run2	generate/STIM_022.jpg
1387.611	2.235	1	generate	Run2	generate/STIM_023.jpg
1393.224	1.472	0	generate	Run2	generate/STIM_023.jpg
1398.442	1.165	1	generate	Run2	generate/STIM_023.jpg
1403.502	1.522	1	generate	Run2	generate/STIM_023.jpg
1407.919	1.0	1	generate	Run2	generate/STIM_023.jpg
1412.102	1.78	1	generate	Run2	generate/STIM_024.jpg
1417.844	1.608	1	generate	Run2	generate/STIM_024.jpg
1421.506	1.544	0	generate	Run2	generate/STIM_024.jpg
1426.076	1.154	1	generate	Run2	generate/STIM_024.jpg
1430.48	1.067	0	generate	Run2	generate/STIM_024.jpg
1435.285	0.585	1	repeat	Run2	repeat/STIM_000.jpg
1437.907	0.692	1	repeat	Run2	repeat/STIM_000.jpg
1440.673	0.722	0	repeat	Run2	repeat/STIM_000.jpg
1443.641	0.514	1	repeat	Run2	repeat/STIM_000.jpg
1447.036	0.482	1	repeat	Run2	repeat/STIM_000.jpg
1450.781	0.532	1	repeat	Run2	repeat/STIM_001.jpg
1453.999	0.868	1	repeat	Run2	repeat/STIM_001.jpg
1456.93	0.578	1	repeat	Run2	repeat/STIM_001.jpg
1461.434	0.62	1	repeat	Run2	repeat/STIM_001.jpg
1465.715	0.714	1	repeat	Run2	repeat/STIM_001.jpg
1469.086	0.517	1	repeat	Run2	repeat/STIM_002.jpg
1472.411	0.56	1	repeat	Run2	repeat/STIM_002.jpg
1476.239	0.896	1	repeat	Run2	repeat/STIM_002.jpg
1480.1	0.704	1	repeat	Run2	repeat/STIM_002.jpg
1483.88	0.616	1	repeat	Run2	repeat/STIM_002.jpg
1486.567	0.838	1	repeat	Run2	repeat/STIM_003.jpg
1489.793	0.811	1	repeat	Run2	repeat/STIM_003.jpg
1494.064	0.854	0	repeat	Run2	repeat/STIM_003.jpg
1498.645	0.619	0	repeat	Run2	repeat/STIM_003.jpg
1502.245	0.638	0	repeat	Run2	repeat/STIM_003.jpg
1505.575	0.602	0	repeat	Run2	repeat/STIM_004.jpg
1509.731	0.744	1	repeat	Run2	repeat/STIM_004.jpg
1513.678	0.508	1	repeat	Run2	repeat/STIM_004.jpg
1517.067	0.768	1	repeat	Run2	repeat/STIM_004.jpg
1520.32	0.518	1	repeat	Run2	repeat/STIM_004.jpg
1523.764	0.602	1	repeat	Run2	repeat/STIM_005.jpg
1526.581	0.853	1	repeat	Run2	repeat/STIM_005.jpg
1530.824	0.606	1	repeat	Run2	repeat/STIM_005.jpg
1535.121	0.539	1	repeat	Run2	repeat/STIM_005.jpg
1538.596	0.873	1	repeat	Run2	repeat/STIM_005.jpg
1542.07	0.841	1	repeat	Run2	repeat/STIM_006.jpg
1546.261	0.721	1	repeat	Run2	repeat/STIM_006.jpg
1549.89	0.885	1	repeat	Run2	repeat/STIM_006.jpg
1554.179	0.753	1	repeat	Run2	repeat/STIM_006.jpg
1558.464	0.597	1	repeat	Run2	repeat/STIM_006.jpg
1562.728	0.68	1	repeat	Run2	repeat/STIM_007.jpg
1567.136	0.501	1	repeat	Run2	repeat/STIM_007.jpg
1571.127	0.684	1	repeat	Run2	repeat/STIM_007.jpg
1574.35	0.91	1	repeat	Run2	repeat/STIM_007.jpg
1577.927	0.671	0	repeat	Run2	repeat/STIM_007.jpg
1582.342	0.894	1	repeat	Run2	repeat/STIM_008.jpg
1586.482	0.665	1	repeat	Run2	repeat/STIM_008.jpg
1589.968	0.616	1	repeat	Run2	repeat/STIM_008.jpg
1594.417	0.74	1	repeat	Run2	repeat/STIM_008.jpg
1598.723	0.856	1	repeat	Run2	repeat/STIM_008.jpg
1602.396	0.631	1	repeat	Run2	repeat/STIM_009.jpg
1606.595	0.503	1	repeat	Run2	repeat/STIM_009.jpg
1609.858	0.835	1	repeat	Run2	repeat/STIM_009.jpg
1613.402	0.611	0	repeat	Run2	repeat/STIM_009.jpg
1617.56	0.531	1	repeat	Run2	repeat/STIM_009.jpg
1621.151	0.793	1	repeat	Run2	repeat/STIM_010.jpg
1624.09	0.585	1	repeat	Run2	repeat/STIM_010.jpg
1626.759	0.52	0	repeat	Run2	repeat/STIM_010.jpg
1631.056	0.632	1	repeat	Run2	repeat/STIM_010.jpg
1634.091	0.603	1	repeat	Run2	repeat/STIM_010.jpg
1637.504	0.804	1	repeat	Run2	repeat/STIM_011.jpg
1642.136	0.59	1	repeat	Run2	repeat/STIM_011.jpg
1646.401	0.895	0	repeat	Run2	repeat/STIM_011.jpg
1649.952	0.677	0	repeat	Run2	repeat/STIM_011.jpg
1654.023	0.672	0	repeat	Run2	repeat/STIM_011.jpg
1657.198	0.823	1	repeat	Run2	repeat/STIM_012.jpg
1661.837	0.628	1	repeat	Run2	repeat/STIM_012.jpg
1664.635	0.681	1	repeat	Run2	repeat/STIM_012.jpg
1667.705	0.711	1	repeat	Run2	repeat/STIM_012.jpg
1671.588	0.783	1	repeat	Run2	repeat/STIM_012.jpg
1675.009	0.872	1	repeat	Run2	repeat/STIM_013.jpg
1678.913	0.782	1	repeat	Run2	repeat/STIM_013.jpg
1683.024	0.488	1	repeat	Run2	repeat/STIM_013.jpg
1685.596	0.673	1	repeat	Run2	repeat/STIM_013.jpg
1688.668	0.704	1	repeat	Run2	repeat/STIM_013.jpg
1692.915	0.573	1	repeat	Run2	repeat/STIM_014.jpg
1695.884	0.463	0	repeat	Run2	repeat/STIM_014.jpg
1699.797	0.558	1	repeat	Run2	repeat/STIM_014.jpg
1702.831	0.522	1	repeat	Run2	repeat/STIM_014.jpg
1707.291	0.7	1	repeat	Run2	repeat/STIM_014.jpg
1710.575	1.864	1	generate	Run3	generate/STIM_000.jpg
1715.674	1.42	1	generate	Run3	generate/STIM_000.jpg
1720.007	1.21	1	generate	Run3	generate/STIM_000.jpg
1724.661	1.78	1	generate	Run3	generate/STIM_000.jpg
1728.847	1.771	1	generate	Run3	generate/STIM_000.jpg
1732.65	0.971	1	generate	Run3	generate/STIM_001.jpg
1735.799	1.886	1	generate	Run3	generate/STIM_001.jpg
1741.443	0.88	1	generate	Run3	generate/STIM_001.jpg
1745.405	1.269	0	generate	Run3	generate/STIM_001.jpg
1749.946	1.443	1	generate	Run3	generate/STIM_001.jpg
1754.998	1.394	0	generate	Run3	generate/STIM_002.jpg
1760.318	1.912	1	generate	Run3	generate/STIM_002.jpg
1766.086	1.54	1	generate	Run3	generate/STIM_002.jpg
1770.197	1.859	1	generate	Run3	generate/STIM_002.jpg
1774.236	1.325	1	generate	Run3	generate/STIM_002.jpg
1778.756	1.13	1	generate	Run3	generate/STIM_003.jpg
1783.601	0.782	1	generate	Run3	generate/STIM_003.jpg
1787.471	1.708	1	generate	Run3	generate/STIM_003.jpg
1791.589	1.716	1	generate	Run3	generate/STIM_003.jpg
1796.605	0.78	1	generate	Run3	generate/STIM_003.jpg
1801.287	1.162	1	generate	Run3	generate/STIM_004.jpg
1805.922	1.085	1	generate	Run3	generate/STIM_004.jpg
1810.431	0.885	1	generate	Run3	generate/STIM_004.jpg
1815.225	1.609	1	generate	Run3	generate/STIM_004.jpg
1818.943	1.261	1	generate	Run3	generate/STIM_004.jpg
1822.524	1.504	1	generate	Run3	generate/STIM_005.jpg
1827.043	1.51	1	generate	Run3	generate/STIM_005.jpg
1831.954	0.882	1	generate	Run3	generate/STIM_005.jpg
1836.338	0.877	1	generate	Run3	generate/STIM_005.jpg
1839.831	1.647	1	generate	Run3	generate/STIM_005.jpg
1845.276	1.245	1	generate	Run3	generate/STIM_006.jpg
1849.472	1.122	1	generate	Run3	generate/STIM_006.jpg
1854.342	1.262	0	generate	Run3	generate/STIM_006.jpg
1859.251	1.92	1	generate	Run3	generate/STIM_006.jpg
1863.468	1.142	0	generate	Run3	generate/STIM_006.jpg
1868.011	1.16	1	generate	Run3	generate/STIM_007.jpg
1871.478	1.848	1	generate	Run3	generate/STIM_007.jpg
1876.531	1.8	1	generate	Run3	generate/STIM_007.jpg
1881.81	1.218	1	generate	Run3	generate/STIM_007.jpg
1886.239	0.777	0	generate	Run3	generate/STIM_007.jpg
1889.061	1.531	0	generate	Run3	generate/STIM_008.jpg
1894.122	1.53	1	generate	Run3	generate/STIM_008.jpg
1899.057	0.944	0	generate	Run3	generate/STIM_008.jpg
1903.809	1.262	1	generate	Run3	generate/STIM_008.jpg
1908.37	1.918	1	generate	Run3	generate/STIM_008.jpg
1912.639	1.364	1	generate	Run3	generate/STIM_009.jpg
1916.611	1.598	1	generate	Run3	generate/STIM_009.jpg
1921.594	1.618	1	generate	Run3	generate/STIM_009.jpg
1925.612	0.883	1	generate	Run3	generate/STIM_009.jpg
1928.545	0.937	1	generate	Run3	generate/STIM_009.jpg
1932.518	1.098	1	generate	Run3	generate/STIM_010.jpg
1936.236	1.573	0	generate	Run3	generate/STIM_010.jpg
1940.14	1.361	0	generate	Run3	generate/STIM_010.jpg
1944.174	1.768	1	generate	Run3	generate/STIM_010.jpg
1948.757	1.07	1	generate	Run3	generate/STIM_010.jpg
1953.294	1.642	0	generate	Run3	generate/STIM_011.jpg
1958.403	1.018	0	generate	Run3	generate/STIM_011.jpg
1962.359	1.39	1	generate	Run3	generate/STIM_011.jpg
1967.313	0.988	1	generate	Run3	generate/STIM_011.jpg
1970.832	1.098	1	generate	Run3	generate/STIM_011.jpg
1975.804	1.33	1	generate	Run3	generate/STIM_012.jpg
1980.617	1.71	1	generate	Run3	generate/STIM_012.jpg
1985.531	1.564	0	generate	Run3	generate/STIM_012.jpg
1990.337	1.389	1	generate	Run3	generate/STIM_012.jpg
1993.901	1.266	1	generate	Run3	generate/STIM_012.jpg
1998.499	1.883	1	generate	Run3	generate/STIM_013.jpg
2003.798	1.186	0	generate	Run3	generate/STIM_013.jpg
2007.501	1.442	1	generate	Run3	generate/STIM_013.jpg
2011.423	1.531	1	generate	Run3	generate/STIM_013.jpg
2016.156	1.743	1	generate	Run3	generate/STIM_013.jpg
2021.465	1.528	1	generate	Run3	generate/STIM_014.jpg
2025.883	0.844	1	generate	Run3	generate/STIM_014.jpg
2029.281	1.202	1	generate	Run3	generate/STIM_014.jpg
2032.902	1.08	0	generate	Run3	generate/STIM_014.jpg
2036.639	0.988	1	generate	Run3	generate/STIM_014.jpg
2039.983	1.578	1	generate	Run3	generate/STIM_015.jpg
2043.951	1.298	1	generate	Run3	generate/STIM_015.jpg
2047.661	0.825	1	generate	Run3	generate/STIM_015.jpg
2051.034	0.833	1	generate	Run3	generate/STIM_015.jpg
2054.97	1.506	1	generate	Run3	generate/STIM_015.jpg
2058.738	0.924	1	generate	Run3	generate/STIM_016.jpg
2062.793	1.275	0	generate	Run3	generate/STIM_016.jpg
2067.526	1.123	0	generate	Run3	generate/STIM_016.jpg
2071.884	1.627	0	generate	Run3	generate/STIM_016.jpg
2076.483	1.287	1	generate	Run3	generate/STIM_016.jpg
2081.61	1.416	1	generate	Run3	generate/STIM_017.jpg
2086.112	0.904	1	generate	Run3	generate/STIM_017.jpg
2089.189	1.08	1	generate	Run3	generate/STIM_017.jpg
2093.981	0.844	1	generate	Run3	generate/STIM_017.jpg
2097.962	1.491	1	generate	Run3	generate/STIM_017.jpg
2102.118	1.79	0	generate	Run3	generate/STIM_018.jpg
2106.249	1.439	1	generate	Run3	generate/STIM_018.jpg
2111.368	0.907	1	generate	Run3	generate/STIM_018.jpg
2115.721	1.155	0	generate	Run3	generate/STIM_018.jpg
2119.012	1.565	1	generate	Run3	generate/STIM_018.jpg
2123.08	1.374	1	generate	Run3	generate/STIM_019.jpg
2126.761	1.089	1	generate	Run3	generate/STIM_019.jpg
2131.843	1.4	0	generate	Run3	generate/STIM_019.jpg
2136.669	1.806	1	generate	Run3	generate/STIM_019.jpg
2141.314	1.261	0	generate	Run3	generate/STIM_019.jpg
2144.958	1.669	0	generate	Run3	generate/STIM_020.jpg
2150.617	1.814	1	generate	Run3	generate/STIM_020.jpg
2154.494	1.782	1	generate	Run3	generate/STIM_020.jpg
2159.456	1.358	1	generate	Run3	generate/STIM_020.jpg
2164.079	1.83	1	generate	Run3	generate/STIM_020.jpg
2169.144	1.475	0	generate	Run3	generate/STIM_021.jpg
2174.008	0.868	1	generate	Run3	generate/STIM_021.jpg
2178.792	1.676	1	generate	Run3	generate/STIM_021.jpg
2182.599	1.345	1	generate	Run3	generate/STIM_021.jpg
2187.543	1.377	1	generate	Run3	generate/STIM_021.jpg
2191.626	1.015	1	generate	Run3	generate/STIM_022.jpg
2195.936	1.188	1	generate	Run3	generate/STIM_022.jpg
2200.158	1.752	1	generate	Run3	generate/STIM_022.jpg
2204.67	1.859	1	generate	Run3	generate/STIM_022.jpg
2209.675	1.604	1	generate	Run3	generate/STIM_022.jpg
2213.848	1.299	1	generate	Run3	generate/STIM_023.jpg
2217.984	0.944	1	generate	Run3	generate/STIM_023.jpg
2222.148	0.867	0	generate	Run3	generate/STIM_023.jpg
2225.238	1.051	1	generate	Run3	generate/STIM_023.jpg
2229.455	1.697	1	generate	Run3	generate/STIM_023.jpg
2233.746	1.05	0	generate	Run3	generate/STIM_024.jpg
2238.15	1.302	1	generate	Run3	generate/STIM_024.jpg
2241.936	0.955	0	generate	Run3	generate/STIM_024.jpg
2245.298	1.865	0	generate	Run3	generate/STIM_024.jpg
2250.972	1.608	1	generate	Run3	generate/STIM_024.jpg
2254.961	0.6	1	repeat	Run3	repeat/STIM_000.jpg
2257.944	0.711	1	repeat	Run3	repeat/STIM_000.jpg
2261.102	0.806	1	repeat	Run3	repeat/STIM_000.jpg
2264.949	0.717	0	repeat	Run3	repeat/STIM_000.jpg
2268.418	0.807	1	repeat	Run3	repeat/STIM_000.jpg
2271.356	0.494	1	repeat	Run3	repeat/STIM_001.jpg
2274.775	0.816	1	repeat	Run3	repeat/STIM_001.jpg
2277.617	0.897	1	repeat	Run3	repeat/STIM_001.jpg
2280.7	0.754	1	repeat	Run3	repeat/STIM_001.jpg
2284.636	0.532	1	repeat	Run3	repeat/STIM_001.jpg
2287.339	0.847	1	repeat	Run3	repeat/STIM_002.jpg
2290.703	0.777	1	repeat	Run3	repeat/STIM_002.jpg
2294.063	0.472	1	repeat	Run3	repeat/STIM_002.jpg
2296.821	0.634	0	repeat	Run3	repeat/STIM_002.jpg
2300.479	0.782	1	repeat	Run3	repeat/STIM_002.jpg
2303.47	0.502	1	repeat	Run3	repeat/STIM_003.jpg
2307.041	0.6	0	repeat	Run3	repeat/STIM_003.jpg
2310.885	0.669	1	repeat	Run3	repeat/STIM_003.jpg
2315.081	0.618	1	repeat	Run3	repeat/STIM_003.jpg
2318.825	0.689	1	repeat	Run3	repeat/STIM_003.jpg
2323.122	0.773	1	repeat	Run3	repeat/STIM_004.jpg
2326.184	0.748	1	repeat	Run3	repeat/STIM_004.jpg
2330.063	0.753	1	repeat	Run3	repeat/STIM_004.jpg
2334.645	0.592	1	repeat	Run3	repeat/STIM_004.jpg
2338.404	0.465	1	repeat	Run3	repeat/STIM_004.jpg
2342.317	0.685	1	repeat	Run3	repeat/STIM_005.jpg
2346.82	0.797	1	repeat	Run3	repeat/STIM_005.jpg
2349.947	0.79	1	repeat	Run3	repeat/STIM_005.jpg
2353.232	0.624	1	repeat	Run3	repeat/STIM_005.jpg
2356.26	0.679	0	repeat	Run3	repeat/STIM_005.jpg
2359.143	0.642	1	repeat	Run3	repeat/STIM_006.jpg
2363.095	0.472	1	repeat	Run3	repeat/STIM_006.jpg
2366.628	0.581	1	repeat	Run3	repeat/STIM_006.jpg
2371.144	0.739	0	repeat	Run3	repeat/STIM_006.jpg
2374.418	0.523	0	repeat	Run3	repeat/STIM_006.jpg
2378.807	0.542	1	repeat	Run3	repeat/STIM_007.jpg
2381.427	0.569	1	repeat	Run3	repeat/STIM_007.jpg
2384.538	0.629	0	repeat	Run3	repeat/STIM_007.jpg
2388.382	0.681	1	repeat	Run3	repeat/STIM_007.jpg
2392.944	0.629	1	repeat	Run3	repeat/STIM_007.jpg
2396.324	0.849	1	repeat	Run3	repeat/STIM_008.jpg
2399.478	0.674	1	repeat	Run3	repeat/STIM_008.jpg
2402.522	0.85	0	repeat	Run3	repeat/STIM_008.jpg
2406.571	0.619	1	repeat	Run3	repeat/STIM_008.jpg
2409.464	0.552	1	repeat	Run3	repeat/STIM_008.jpg
2413.893	0.781	1	repeat	Run3	repeat/STIM_009.jpg
2417.045	0.761	1	repeat	Run3	repeat/STIM_009.jpg
2419.813	0.824	0	repeat	Run3	repeat/STIM_009.jpg
2424.233	0.529	1	repeat	Run3	repeat/STIM_009.jpg
2427.738	0.795	0	repeat	Run3	repeat/STIM_009.jpg
2430.914	0.541	1	repeat	Run3	repeat/STIM_010.jpg
2434.974	0.641	1	repeat	Run3	repeat/STIM_010.jpg
2438.519	0.586	0	repeat	Run3	repeat/STIM_010.jpg
2441.445	0.914	1	repeat	Run3	repeat/STIM_010.jpg
2444.571	0.568	1	repeat	Run3	repeat/STIM_010.jpg
2448.304	0.617	1	repeat	Run3	repeat/STIM_011.jpg
2451.634	0.702	1	repeat	Run3	repeat/STIM_011.jpg
2454.949	0.768	1	repeat	Run3	repeat/STIM_011.jpg
2459.09	0.668	1	repeat	Run3	repeat/STIM_011.jpg
2462.759	0.724	1	repeat	Run3	repeat/STIM_011.jpg
2467.235	0.705	0	repeat	Run3	repeat/STIM_012.jpg
2471.582	0.824	1	repeat	Run3	repeat/STIM_012.jpg
2475.475	0.875	1	repeat	Run3	repeat/STIM_012.jpg
2480.142	0.904	0	repeat	Run3	repeat/STIM_012.jpg
2484.494	0.492	1	repeat	Run3	repeat/STIM_012.jpg
2488.061	0.694	1	repeat	Run3	repeat/STIM_013.jpg
2491.768	0.78	1	repeat	Run3	repeat/STIM_013.jpg
2494.709	0.849	1	repeat	Run3	repeat/STIM_013.jpg
2499.524	0.7	0	repeat	Run3	repeat/STIM_013.jpg
2502.935	0.568	1	repeat	Run3	repeat/STIM_013.jpg
2506.394	0.523	1	repeat	Run3	repeat/STIM_014.jpg
2510.777	0.613	1	repeat	Run3	repeat/STIM_014.jpg
2513.947	0.812	1	repeat	Run3	repeat/STIM_014.jpg
2518.401	0.643	1	repeat	Run3	repeat/STIM_014.jpg
2521.469	0.499	1	repeat	Run3	repeat/STIM_014.jpg
2525.873	1.636	1	generate	Run4	generate/STIM_000.jpg
2531.352	0.829	1	generate	Run4	generate/STIM_000.jpg
2534.24	1.664	1	generate	Run4	generate/STIM_000.jpg
2539.67	1.845	0	generate	Run4	generate/STIM_000.jpg
2544.813	0.868	1	generate	Run4	generate/STIM_000.jpg
2548.861	1.059	1	generate	Run4	generate/STIM_001.jpg
2551.952	1.145	1	generate	Run4	generate/STIM_001.jpg
2555.835	1.575	0	generate	Run4	generate/STIM_001.jpg
2561.345	1.649	0	generate	Run4	generate/STIM_001.jpg
2566.244	0.929	1	generate	Run4	generate/STIM_001.jpg
2569.494	1.794	1	generate	Run4	generate/STIM_002.jpg
2574.045	0.956	1	generate	Run4	generate/STIM_002.jpg
2578.623	1.334	1	generate	Run4	generate/STIM_002.jpg
2583.281	1.867	1	generate	Run4	generate/STIM_002.jpg
2588.653	0.924	1	generate	Run4	generate/STIM_002.jpg
2593.386	1.777	1	generate	Run4	generate/STIM_003.jpg
2597.748	1.41	1	generate	Run4	generate/STIM_003.jpg
2602.269	1.03	1	generate	Run4	generate/STIM_003.jpg
2606.649	1.555	1	generate	Run4	generate/STIM_003.jpg
2612.113	1.806	1	generate	Run4	generate/STIM_003.jpg
2616.171	0.855	1	generate	Run4	generate/STIM_004.jpg
2620.223	1.444	1	generate	Run4	generate/STIM_004.jpg
2625.322	1.591	0	generate	Run4	generate/STIM_004.jpg
2629.4	1.05	1	generate	Run4	generate/STIM_004.jpg
2632.74	1.436	1	generate	Run4	generate/STIM_004.jpg
2637.446	1.303	1	generate	Run4	generate/STIM_005.jpg
2642.013	1.797	1	generate	Run4	generate/STIM_005.jpg
2646.397	0.85	1	generate	Run4	generate/STIM_005.jpg
2651.137	1.301	1	generate	Run4	generate/STIM_005.jpg
2656.436	1.021	1	generate	Run4	generate/STIM_005.jpg
2660.815	1.102	1	generate	Run4	generate/STIM_006.jpg
2665.092	1.919	1	generate	Run4	generate/STIM_006.jpg
2670.293	1.702	1	generate	Run4	generate/STIM_006.jpg
2674.283	1.688	1	generate	Run4	generate/STIM_006.jpg
2679.306	1.616	1	generate	Run4	generate/STIM_006.jpg
2683.763	1.906	1	generate	Run4	generate/STIM_007.jpg
2689.593	1.785	1	generate	Run4	generate/STIM_007.jpg
2694.802	1.45	1	generate	Run4	generate/STIM_007.jpg
2698.852	1.497	1	generate	Run4	generate/STIM_007.jpg
2704.168	0.917	1	generate	Run4	generate/STIM_007.jpg
2708.562	1.699	1	generate	Run4	generate/STIM_008.jpg
2713.641	1.454	1	generate	Run4	generate/STIM_008.jpg
2718.206	1.595	1	generate	Run4	generate/STIM_008.jpg
2723.485	1.126	1	generate	Run4	generate/STIM_008.jpg
2728.08	0.928	1	generate	Run4	generate/STIM_008.jpg
2731.159	1.473	1	generate	Run4	generate/STIM_009.jpg
2736.397	0.892	1	generate	Run4	generate/STIM_009.jpg
2740.257	1.048	1	generate	Run4	generate/STIM_009.jpg
2744.714	1.763	1	generate	Run4	generate/STIM_009.jpg
2749.452	1.47	1	generate	Run4	generate/STIM_009.jpg
2753.202	1.166	0	generate	Run4	generate/STIM_010.jpg
2757.29	0.816	1	generate	Run4	generate/STIM_010.jpg
2761.533	1.008	1	generate	Run4	generate/STIM_010.jpg
2764.892	1.235	1	generate	Run4	generate/STIM_010.jpg
2768.748	1.666	1	generate	Run4	generate/STIM_010.jpg
2774.074	1.025	1	generate	Run4	generate/STIM_011.jpg
2777.297	1.387	0	generate	Run4	generate/STIM_011.jpg
2782.394	0.796	1	generate	Run4	generate/STIM_011.jpg
2785.79	1.562	1	generate	Run4	generate/STIM_011.jpg
2791.096	1.616	1	generate	Run4	generate/STIM_011.jpg
2795.515	1.547	0	generate	Run4	generate/STIM_012.jpg
2801.017	1.263	1	generate	Run4	generate/STIM_012.jpg
2805.871	1.321	1	generate	Run4	generate/STIM_012.jpg
2810.304	1.02	0	generate	Run4	generate/STIM_012.jpg
2814.255	1.18	1	generate	Run4	generate/STIM_012.jpg
2818.072	1.642	1	generate	Run4	generate/STIM_013.jpg
2822.38	0.8	1	generate	Run4	generate/STIM_013.jpg
2826.405	1.653	1	generate	Run4	generate/STIM_013.jpg
2831.14	1.197	1	generate	Run4	generate/STIM_013.jpg
2834.345	1.07	1	generate	Run4	generate/STIM_013.jpg
2838.86	1.646	1	generate	Run4	generate/STIM_014.jpg
2844.352	1.398	1	generate	Run4	generate/STIM_014.jpg
2848.6	1.451	1	generate	Run4	generate/STIM_014.jpg
2853.578	1.55	1	generate	Run4	generate/STIM_014.jpg
2857.243	1.116	1	generate	Run4	generate/STIM_014.jpg
2862.043	1.43	1	generate	Run4	generate/STIM_015.jpg
2865.53	1.306	1	generate	Run4	generate/STIM_015.jpg
2870.182	1.626	1	generate	Run4	generate/STIM_015.jpg
2874.192	1.849	1	generate	Run4	generate/STIM_015.jpg
2879.23	1.018	1	generate	Run4	generate/STIM_015.jpg
2883.201	0.983	1	generate	Run4	generate/STIM_016.jpg
2887.659	1.001	1	generate	Run4	generate/STIM_016.jpg
2891.882	0.972	1	generate	Run4	generate/STIM_016.jpg
2896.466	1.322	1	generate	Run4	generate/STIM_016.jpg
2900.669	1.253	1	generate	Run4	generate/STIM_016.jpg
2904.271	0.9	1	generate	Run4	generate/STIM_017.jpg
2908.666	1.722	1	generate	Run4	generate/STIM_017.jpg
2912.515	0.826	1	generate	Run4	generate/STIM_017.jpg
2916.467	1.816	1	generate	Run4	generate/STIM_017.jpg
2920.563	1.051	1	generate	Run4	generate/STIM_017.jpg
2925.017	1.087	0	generate	Run4	generate/STIM_018.jpg
2929.358	1.635	1	generate	Run4	generate/STIM_018.jpg
2933.392	1.862	0	generate	Run4	generate/STIM_018.jpg
2939.219	1.583	1	generate	Run4	generate/STIM_018.jpg
2943.739	1.069	1	generate	Run4	generate/STIM_018.jpg
2948.312	1.363	1	generate	Run4	generate/STIM_019.jpg
2951.98	1.619	1	generate	Run4	generate/STIM_019.jpg
2956.552	1.92	1	generate	Run4	generate/STIM_019.jpg
2960.818	1.908	1	generate	Run4	generate/STIM_019.jpg
2965.851	0.953	1	generate	Run4	generate/STIM_019.jpg
2968.957	1.704	1	generate	Run4	generate/STIM_020.jpg
2973.735	1.19	1	generate	Run4	generate/STIM_020.jpg
2977.43	1.243	0	generate	Run4	generate/STIM_020.jpg
2981.934	1.916	1	generate	Run4	generate/STIM_020.jpg
2987.804	1.645	1	generate	Run4	generate/STIM_020.jpg
2992.125	0.884	1	generate	Run4	generate/STIM_021.jpg
2995.646	0.814	0	generate	Run4	generate/STIM_021.jpg
2998.902	1.219	1	generate	Run4	generate/STIM_021.jpg
3003.726	1.661	1	generate	Run4	generate/STIM_021.jpg
3008.282	1.369	1	generate	Run4	generate/STIM_021.jpg
3013.25	1.841	1	generate	Run4	generate/STIM_022.jpg
3017.228	1.524	1	generate	Run4	generate/STIM_022.jpg
3021.907	1.854	1	generate	Run4	generate/STIM_022.jpg
3025.919	1.391	1	generate	Run4	generate/STIM_022.jpg
3029.433	0.794	1	generate	Run4	generate/STIM_022.jpg
3032.329	1.338	1	generate	Run4	generate/STIM_023.jpg
3037.008	1.226	1	generate	Run4	generate/STIM_023.jpg
3042.194	1.862	0	generate	Run4	generate/STIM_023.jpg
3047.099	1.057	1	generate	Run4	generate/STIM_023.jpg
3050.797	1.819	1	generate	Run4	generate/STIM_023.jpg
3056.248	0.973	1	generate	Run4	generate/STIM_024.jpg
3059.368	0.979	1	generate	Run4	generate/STIM_024.jpg
3064.01	1.107	1	generate	Run4	generate/STIM_024.jpg
3068.069	1.601	1	generate	Run4	generate/STIM_024.jpg
3073.643	0.801	1	generate	Run4	generate/STIM_024.jpg
3077.572	0.633	1	repeat	Run4	repeat/STIM_000.jpg
3080.753	0.679	1	repeat	Run4	repeat/STIM_000.jpg
3084.75	0.54	1	repeat	Run4	repeat/STIM_000.jpg
3088.427	0.458	1	repeat	Run4	repeat/STIM_000.jpg
3091.024	0.743	1	repeat	Run4	repeat/STIM_000.jpg
3093.97	0.88	0	repeat	Run4	repeat/STIM_001.jpg
3097.502	0.672	0	repeat	Run4	repeat/STIM_001.jpg
3101.628	0.566	0	repeat	Run4	repeat/STIM_001.jpg
3104.791	0.861	1	repeat	Run4	repeat/STIM_001.jpg
3107.791	0.837	1	repeat	Run4	repeat/STIM_001.jpg
3112.481	0.9	1	repeat	Run4	repeat/STIM_002.jpg
3115.761	0.647	1	repeat	Run4	repeat/STIM_002.jpg
3118.917	0.596	1	repeat	Run4	repeat/STIM_002.jpg
3122.982	0.706	1	repeat	Run4	repeat/STIM_002.jpg
3126.704	0.722	1	repeat	Run4	repeat/STIM_002.jpg
3130.284	0.688	1	repeat	Run4	repeat/STIM_003.jpg
3134.688	0.862	1	repeat	Run4	repeat/STIM_003.jpg
3137.927	0.803	1	repeat	Run4	repeat/STIM_003.jpg
3142.258	0.873	1	repeat	Run4	repeat/STIM_003.jpg
3146.6	0.646	1	repeat	Run4	repeat/STIM_003.jpg
3151.146	0.914	1	repeat	Run4	repeat/STIM_004.jpg
3154.689	0.561	1	repeat	Run4	repeat/STIM_004.jpg
3157.385	0.488	1	repeat	Run4	repeat/STIM_004.jpg
3161.515	0.744	1	repeat	Run4	repeat/STIM_004.jpg
3165.649	0.638	1	repeat	Run4	repeat/STIM_004.jpg
3169.09	0.595	1	repeat	Run4	repeat/STIM_005.jpg
3172.147	0.484	1	repeat	Run4	repeat/STIM_005.jpg
3176.157	0.541	1	repeat	Run4	repeat/STIM_005.jpg
3180.139	0.879	1	repeat	Run4	repeat/STIM_005.jpg
3184.313	0.572	0	repeat	Run4	repeat/STIM_005.jpg
3188.47	0.613	0	repeat	Run4	repeat/STIM_006.jpg
3191.472	0.805	1	repeat	Run4	repeat/STIM_006.jpg
3195.641	0.464	0	repeat	Run4	repeat/STIM_006.jpg
3198.202	0.482	1	repeat	Run4	repeat/STIM_006.jpg
3200.712	0.822	1	repeat	Run4	repeat/STIM_006.jpg
3205.379	0.624	1	repeat	Run4	repeat/STIM_007.jpg
3208.661	0.656	1	repeat	Run4	repeat/STIM_007.jpg
3211.388	0.579	1	repeat	Run4	repeat/STIM_007.jpg
3214.595	0.91	1	repeat	Run4	repeat/STIM_007.jpg
3218.794	0.79	1	repeat	Run4	repeat/STIM_007.jpg
3221.671	0.833	1	repeat	Run4	repeat/STIM_008.jpg
3225.006	0.564	1	repeat	Run4	repeat/STIM_008.jpg
3229.379	0.894	1	repeat	Run4	repeat/STIM_008.jpg
3233.676	0.684	1	repeat	Run4	repeat/STIM_008.jpg
3237.49	0.807	0	repeat	Run4	repeat/STIM_008.jpg
3242.073	0.88	1	repeat	Run4	repeat/STIM_009.jpg
3246.547	0.475	1	repeat	Run4	repeat/STIM_009.jpg
3249.254	0.66	1	repeat	Run4	repeat/STIM_009.jpg
3252.266	0.805	1	repeat	Run4	repeat/STIM_009.jpg
3256.845	0.651	1	repeat	Run4	repeat/STIM_009.jpg
3261.198	0.478	1	repeat	Run4	repeat/STIM_010.jpg
3265.322	0.821	1	repeat	Run4	repeat/STIM_010.jpg
3268.189	0.86	1	repeat	Run4	repeat/STIM_010.jpg
3272.599	0.766	1	repeat	Run4	repeat/STIM_010.jpg
3276.081	0.788	1	repeat	Run4	repeat/STIM_010.jpg
3279.182	0.674	1	repeat	Run4	repeat/STIM_011.jpg
3282.262	0.677	1	repeat	Run4	repeat/STIM_011.jpg
3285.93	0.576	1	repeat	Run4	repeat/STIM_011.jpg
3288.944	0.478	1	repeat	Run4	repeat/STIM_011.jpg
3292.528	0.903	1	repeat	Run4	repeat/STIM_011.jpg
3296.352	0.544	1	repeat	Run4	repeat/STIM_012.jpg
3299.076	0.816	1	repeat	Run4	repeat/STIM_012.jpg
3302.495	0.688	0	repeat	Run4	repeat/STIM_012.jpg
3305.661	0.844	0	repeat	Run4	repeat/STIM_012.jpg
3309.266	0.649	1	repeat	Run4	repeat/STIM_012.jpg
3312.076	0.729	1	repeat	Run4	repeat/STIM_013.jpg
3316.253	0.744	1	repeat	Run4	repeat/STIM_013.jpg
3320.009	0.468	1	repeat	Run4	repeat/STIM_013.jpg
3323.879	0.67	1	repeat	Run4	repeat/STIM_013.jpg
3327.815	0.676	1	repeat	Run4	repeat/STIM_013.jpg
3331.068	0.744	1	repeat	Run4	repeat/STIM_014.jpg
3335.257	0.671	1	repeat	Run4	repeat/STIM_014.jpg
3338.633	0.654	1	repeat	Run4	repeat/STIM_014.jpg
3342.275	0.674	1	repeat	Run4	repeat/STIM_014.jpg
3346.024	0.826	0	repeat	Run4	repeat/STIM_014.jpg
