onset	duration	accuracy	trial_type	learning_stage	stimulus
0.0	2.32	incorrect	generate	Run1	generate/STIM_000.jpg
4.618	1.364	correct	generate	Run1	generate/STIM_000.jpg
8.234	0.991	correct	generate	Run1	generate/STIM_000.jpg
11.572	2.148	correct	generate	Run1	generate/STIM_000.jpg
16.28	1.239	correct	generate	Run1	generate/STIM_000.jpg
21.115	1.354	correct	generate	Run1	generate/STIM_001.jpg
25.041	1.909	incorrect	generate	Run1	generate/STIM_001.jpg
30.383	1.756	correct	generate	Run1	generate/STIM_001.jpg
34.524	1.801	incorrect	generate	Run1	generate/STIM_001.jpg
39.877	1.19	incorrect	generate	Run1	generate/STIM_001.jpg
43.527	2.612	correct	generate	Run1	generate/STIM_002.jpg
48.922	1.215	correct	generate	Run1	generate/STIM_002.jpg
53.393	2.436	incorrect	generate	Run1	generate/STIM_002.jpg
59.359	1.352	incorrect	generate	Run1	generate/STIM_002.jpg
64.263	1.907	correct	generate	Run1	generate/STIM_002.jpg
69.241	1.358	correct	generate	Run1	generate/STIM_003.jpg
72.84	1.31	correct	generate	Run1	generate/STIM_003.jpg
77.042	1.989	correct	generate	Run1	generate/STIM_003.jpg
82.899	1.256	incorrect	generate	Run1	generate/STIM_003.jpg
88.114	1.0	correct	generate	Run1	generate/STIM_003.jpg
91.46	2.013	correct	generate	Run1	generate/STIM_004.jpg
95.706	1.741	correct	generate	Run1	generate/STIM_004.jpg
100.145	1.058	correct	generate	Run1	generate/STIM_004.jpg
104.255	1.117	correct	generate	Run1	generate/STIM_004.jpg
109.317	1.674	incorrect	generate	Run1	generate/STIM_004.jpg
113.001	2.684	correct	generate	Run1	generate/STIM_005.jpg
119.359	2.429	incorrect	generate	Run1	generate/STIM_005.jpg
125.743	1.415	correct	generate	Run1	generate/STIM_005.jpg
130.227	2.038	correct	generate	Run1	generate/STIM_005.jpg
135.582	1.197	correct	generate	Run1	generate/STIM_005.jpg
139.244	1.812	incorrect	generate	Run1	generate/STIM_006.jpg
144.561	1.102	correct	generate	Run1	generate/STIM_006.jpg
149.447	1.421	correct	generate	Run1	generate/STIM_006.jpg
153.343	2.168	correct	generate	Run1	generate/STIM_006.jpg
157.813	2.137	correct	generate	Run1	generate/STIM_006.jpg
162.686	1.25	incorrect	generate	Run1	generate/STIM_007.jpg
166.168	1.714	correct	generate	Run1	generate/STIM_007.jpg
170.663	2.162	correct	generate	Run1	generate/STIM_007.jpg
175.193	1.437	correct	generate	Run1	generate/STIM_007.jpg
179.238	1.016	incorrect	generate	Run1	generate/STIM_007.jpg
182.359	2.376	correct	generate	Run1	generate/STIM_008.jpg
188.697	2.149	incorrect	generate	Run1	generate/STIM_008.jpg
193.883	2.449	incorrect	generate	Run1	generate/STIM_008.jpg
198.906	2.045	correct	generate	Run1	generate/STIM_008.jpg
204.695	1.044	correct	generate	Run1	generate/STIM_008.jpg
209.165	1.286	incorrect	generate	Run1	generate/STIM_009.jpg
212.91	1.39	correct	generate	Run1	generate/STIM_009.jpg
217.435	1.634	correct	generate	Run1	generate/STIM_009.jpg
222.332	1.005	correct	generate	Run1	generate/STIM_009.jpg
227.154	2.107	incorrect	generate	Run1	generate/STIM_009.jpg
232.681	1.226	correct	generate	Run1	generate/STIM_010.jpg
236.711	2.002	incorrect	generate	Run1	generate/STIM_010.jpg
241.516	2.458	correct	generate	Run1	generate/STIM_010.jpg
247.589	1.841	correct	generate	Run1	generate/STIM_010.jpg
252.45	1.888	incorrect	generate	Run1	generate/STIM_010.jpg
256.607	2.348	correct	generate	Run1	generate/STIM_011.jpg
261.637	2.168	correct	generate	Run1	generate/STIM_011.jpg
267.524	1.913	correct	generate	Run1	generate/STIM_011.jpg
271.776	1.349	correct	generate	Run1	generate/STIM_011.jpg
276.985	0.973	correct	generate	Run1	generate/STIM_011.jpg
281.912	2.314	correct	generate	Run1	generate/STIM_012.jpg
286.719	1.714	correct	generate	Run1	generate/STIM_012.jpg
291.835	2.015	correct	generate	Run1	generate/STIM_012.jpg
297.84	1.167	correct	generate	Run1	generate/STIM_012.jpg
302.031	2.042	correct	generate	Run1	generate/STIM_012.jpg
307.326	2.0	incorrect	generate	Run1	generate/STIM_013.jpg
312.968	1.321	incorrect	generate	Run1	generate/STIM_013.jpg
317.273	2.224	incorrect	generate	Run1	generate/STIM_013.jpg
322.797	1.8	correct	generate	Run1	generate/STIM_013.jpg
327.437	0.886	incorrect	generate	Run1	generate/STIM_013.jpg
331.057	2.523	correct	generate	Run1	generate/STIM_014.jpg
336.55	2.092	incorrect	generate	Run1	generate/STIM_014.jpg
341.686	1.516	incorrect	generate	Run1	generate/STIM_014.jpg
346.842	1.623	correct	generate	Run1	generate/STIM_014.jpg
351.713	1.812	correct	generate	Run1	generate/STIM_014.jpg
355.551	2.258	correct	generate	Run1	generate/STIM_015.jpg
361.66	2.478	incorrect	generate	Run1	generate/STIM_015.jpg
367.235	1.947	correct	generate	Run1	generate/STIM_015.jpg
371.712	1.795	correct	generate	Run1	generate/STIM_015.jpg
375.565	0.883	correct	generate	Run1	generate/STIM_015.jpg
379.732	1.986	correct	generate	Run1	generate/STIM_016.jpg
383.773	1.226	incorrect	generate	Run1	generate/STIM_016.jpg
387.937	1.738	incorrect	generate	Run1	generate/STIM_016.jpg
392.925	1.66	incorrect	generate	Run1	generate/STIM_016.jpg
397.454	1.489	incorrect	generate	Run1	generate/STIM_016.jpg
401.113	1.124	correct	generate	Run1	generate/STIM_017.jpg
406.008	2.039	correct	generate	Run1	generate/STIM_017.jpg
411.404	1.609	correct	generate	Run1	generate/STIM_017.jpg
416.016	1.644	correct	generate	Run1	generate/STIM_017.jpg
420.019	2.1	correct	generate	Run1	generate/STIM_017.jpg
424.808	2.522	incorrect	generate	Run1	generate/STIM_018.jpg
429.629	2.124	correct	generate	Run1	generate/STIM_018.jpg
434.778	1.651	incorrect	generate	Run1	generate/STIM_018.jpg
439.499	2.051	incorrect	generate	Run1	generate/STIM_018.jpg
444.522	1.885	correct	generate	Run1	generate/STIM_018.jpg
449.144	2.544	correct	generate	Run1	generate/STIM_019.jpg
454.426	1.447	correct	generate	Run1	generate/STIM_019.jpg
458.463	1.291	correct	generate	Run1	generate/STIM_019.jpg
463.469	2.12	correct	generate	Run1	generate/STIM_019.jpg
469.142	1.171	correct	generate	Run1	generate/STIM_019.jpg
474.119	1.57	correct	generate	Run1	generate/STIM_020.jpg
477.743	1.966	correct	generate	Run1	generate/STIM_020.jpg
481.867	2.35	correct	generate	Run1	generate/STIM_020.jpg
486.44	0.959	correct	generate	Run1	generate/STIM_020.jpg
490.874	1.158	correct	generate	Run1	generate/STIM_020.jpg
495.184	2.594	correct	generate	Run1	generate/STIM_021.jpg
501.371	2.372	correct	generate	Run1	generate/STIM_021.jpg
506.389	1.417	incorrect	generate	Run1	generate/STIM_021.jpg
511.365	1.841	correct	generate	Run1	generate/STIM_021.jpg
515.745	1.444	correct	generate	Run1	generate/STIM_021.jpg
520.628	1.313	incorrect	generate	Run1	generate/STIM_022.jpg
525.878	2.232	correct	generate	Run1	generate/STIM_022.jpg
531.506	2.046	incorrect	generate	Run1	generate/STIM_022.jpg
536.309	1.878	correct	generate	Run1	generate/STIM_022.jpg
541.467	1.925	correct	generate	Run1	generate/STIM_022.jpg
545.415	2.101	incorrect	generate	Run1	generate/STIM_023.jpg
549.924	1.399	incorrect	generate	Run1	generate/STIM_023.jpg
553.441	2.145	incorrect	generate	Run1	generate/STIM_023.jpg
558.093	2.152	incorrect	generate	Run1	generate/STIM_023.jpg
563.119	2.174	correct	generate	Run1	generate/STIM_023.jpg
568.49	1.115	correct	generate	Run1	generate/STIM_024.jpg
573.076	1.437	incorrect	generate	Run1	generate/STIM_024.jpg
576.726	1.75	correct	generate	Run1	generate/STIM_024.jpg
581.937	1.436	correct	generate	Run1	generate/STIM_024.jpg
586.157	1.165	correct	generate	Run1	generate/STIM_024.jpg
590.592	0.561	correct	repeat	Run1	repeat/STIM_000.jpg
593.279	0.746	correct	repeat	Run1	repeat/STIM_000.jpg
597.001	0.674	correct	repeat	Run1	repeat/STIM_000.jpg
599.748	0.484	correct	repeat	Run1	repeat/STIM_000.jpg
602.872	0.597	correct	repeat	Run1	repeat/STIM_000.jpg
606.757	0.914	correct	repeat	Run1	repeat/STIM_001.jpg
610.847	0.645	correct	repeat	Run1	repeat/STIM_001.jpg
615.475	0.606	correct	repeat	Run1	repeat/STIM_001.jpg
619.804	0.593	correct	repeat	Run1	repeat/STIM_001.jpg
623.307	0.47	correct	repeat	Run1	repeat/STIM_001.jpg
627.173	0.704	correct	repeat	Run1	repeat/STIM_002.jpg
631.014	0.538	incorrect	repeat	Run1	repeat/STIM_002.jpg
635.441	0.836	correct	repeat	Run1	repeat/STIM_002.jpg
640.05	0.771	correct	repeat	Run1	repeat/STIM_002.jpg
643.969	0.823	correct	repeat	Run1	repeat/STIM_002.jpg
648.491	0.508	correct	repeat	Run1	repeat/STIM_003.jpg
652.663	0.72	correct	repeat	Run1	repeat/STIM_003.jpg
655.457	0.812	correct	repeat	Run1	repeat/STIM_003.jpg
660.083	0.587	correct	repeat	Run1	repeat/STIM_003.jpg
663.147	0.742	correct	repeat	Run1	repeat/STIM_003.jpg
667.407	0.479	correct	repeat	Run1	repeat/STIM_004.jpg
669.9	0.465	incorrect	repeat	Run1	repeat/STIM_004.jpg
673.654	0.504	correct	repeat	Run1	repeat/STIM_004.jpg
678.131	0.843	correct	repeat	Run1	repeat/STIM_004.jpg
681.777	0.785	correct	repeat	Run1	repeat/STIM_004.jpg
685.682	0.571	correct	repeat	Run1	repeat/STIM_005.jpg
688.961	0.877	correct	repeat	Run1	repeat/STIM_005.jpg
692.315	0.879	incorrect	repeat	Run1	repeat/STIM_005.jpg
696.0	0.762	correct	repeat	Run1	repeat/STIM_005.jpg
700.207	0.798	correct	repeat	Run1	repeat/STIM_005.jpg
703.356	0.491	incorrect	repeat	Run1	repeat/STIM_006.jpg
707.067	0.872	correct	repeat	Run1	repeat/STIM_006.jpg
711.363	0.802	correct	repeat	Run1	repeat/STIM_006.jpg
715.0	0.865	correct	repeat	Run1	repeat/STIM_006.jpg
718.248	0.797	correct	repeat	Run1	repeat/STIM_006.jpg
722.075	0.621	correct	repeat	Run1	repeat/STIM_007.jpg
726.372	0.663	correct	repeat	Run1	repeat/STIM_007.jpg
729.422	0.766	incorrect	repeat	Run1	repeat/STIM_007.jpg
732.511	0.812	correct	repeat	Run1	repeat/STIM_007.jpg
737.215	0.517	correct	repeat	Run1	repeat/STIM_007.jpg
740.54	0.552	incorrect	repeat	Run1	repeat/STIM_008.jpg
744.611	0.524	correct	repeat	Run1	repeat/STIM_008.jpg
747.934	0.872	correct	repeat	Run1	repeat/STIM_008.jpg
751.801	0.873	correct	repeat	Run1	repeat/STIM_008.jpg
755.83	0.53	correct	repeat	Run1	repeat/STIM_008.jpg
759.194	0.698	correct	repeat	Run1	repeat/STIM_009.jpg
762.36	0.798	correct	repeat	Run1	repeat/STIM_009.jpg
766.275	0.502	correct	repeat	Run1	repeat/STIM_009.jpg
769.413	0.541	correct	repeat	Run1	repeat/STIM_009.jpg
773.01	0.893	correct	repeat	Run1	repeat/STIM_009.jpg
777.106	0.831	correct	repeat	Run1	repeat/STIM_010.jpg
781.178	0.703	incorrect	repeat	Run1	repeat/STIM_010.jpg
785.711	0.512	correct	repeat	Run1	repeat/STIM_010.jpg
789.322	0.626	correct	repeat	Run1	repeat/STIM_010.jpg
793.69	0.908	correct	repeat	Run1	repeat/STIM_010.jpg
796.626	0.914	correct	repeat	Run1	repeat/STIM_011.jpg
801.471	0.663	correct	repeat	Run1	repeat/STIM_011.jpg
805.873	0.644	correct	repeat	Run1	repeat/STIM_011.jpg
808.987	0.864	correct	repeat	Run1	repeat/STIM_011.jpg
812.114	0.775	incorrect	repeat	Run1	repeat/STIM_011.jpg
815.908	0.839	correct	repeat	Run1	repeat/STIM_012.jpg
820.177	0.698	correct	repeat	Run1	repeat/STIM_012.jpg
823.167	0.63	correct	repeat	Run1	repeat/STIM_012.jpg
826.137	0.532	correct	repeat	Run1	repeat/STIM_012.jpg
829.39	0.577	correct	repeat	Run1	repeat/STIM_012.jpg
832.377	0.682	correct	repeat	Run1	repeat/STIM_013.jpg
835.068	0.835	correct	repeat	Run1	repeat/STIM_013.jpg
838.723	0.837	correct	repeat	Run1	repeat/STIM_013.jpg
843.218	0.514	correct	repeat	Run1	repeat/STIM_013.jpg
847.324	0.798	correct	repeat	Run1	repeat/STIM_013.jpg
851.026	0.722	correct	repeat	Run1	repeat/STIM_014.jpg
854.513	0.853	correct	repeat	Run1	repeat/STIM_014.jpg
858.144	0.608	correct	repeat	Run1	repeat/STIM_014.jpg
861.991	0.825	correct	repeat	Run1	repeat/STIM_014.jpg
865.494	0.638	correct	repeat	Run1	repeat/STIM_014.jpg
870.038	1.03	correct	generate	Run2	generate/STIM_000.jpg
874.922	1.717	correct	generate	Run2	generate/STIM_000.jpg
879.418	1.986	correct	generate	Run2	generate/STIM_000.jpg
884.74	1.526	incorrect	generate	Run2	generate/STIM_000.jpg
889.209	0.865	correct	generate	Run2	generate/STIM_000.jpg
893.528	2.302	correct	generate	Run2	generate/STIM_001.jpg
899.805	1.73	incorrect	generate	Run2	generate/STIM_001.jpg
904.547	1.044	correct	generate	Run2	generate/STIM_001.jpg
909.293	1.541	correct	generate	Run2	generate/STIM_001.jpg
913.149	1.524	correct	generate	Run2	generate/STIM_001.jpg
917.065	2.148	correct	generate	Run2	generate/STIM_002.jpg
922.777	1.328	correct	generate	Run2	generate/STIM_002.jpg
927.372	0.984	correct	generate	Run2	generate/STIM_002.jpg
931.781	1.789	incorrect	generate	Run2	generate/STIM_002.jpg
937.08	1.665	correct	generate	Run2	generate/STIM_002.jpg
942.207	0.939	correct	generate	Run2	generate/STIM_003.jpg
946.771	1.515	correct	generate	Run2	generate/STIM_003.jpg
950.786	0.836	correct	generate	Run2	generate/STIM_003.jpg
954.7	1.597	correct	generate	Run2	generate/STIM_003.jpg
959.686	1.119	correct	generate	Run2	generate/STIM_003.jpg
964.552	1.564	correct	generate	Run2	generate/STIM_004.jpg
970.113	1.628	correct	generate	Run2	generate/STIM_004.jpg
975.622	1.661	correct	generate	Run2	generate/STIM_004.jpg
979.971	1.293	correct	generate	Run2	generate/STIM_004.jpg
984.824	0.908	correct	generate	Run2	generate/STIM_004.jpg
989.202	1.703	correct	generate	Run2	generate/STIM_005.jpg
992.98	2.005	correct	generate	Run2	generate/STIM_005.jpg
997.498	0.933	correct	generate	Run2	generate/STIM_005.jpg
1002.081	1.271	incorrect	generate	Run2	generate/STIM_005.jpg
1006.67	0.924	correct	generate	Run2	generate/STIM_005.jpg
1011.143	1.506	correct	generate	Run2	generate/STIM_006.jpg
1014.839	2.056	correct	generate	Run2	generate/STIM_006.jpg
1019.579	1.277	correct	generate	Run2	generate/STIM_006.jpg
1023.066	1.718	correct	generate	Run2	generate/STIM_006.jpg
1027.584	1.352	correct	generate	Run2	generate/STIM_006.jpg
1032.359	1.015	correct	generate	Run2	generate/STIM_007.jpg
1035.402	1.478	correct	generate	Run2	generate/STIM_007.jpg
1039.87	2.002	incorrect	generate	Run2	generate/STIM_007.jpg
1044.67	1.913	correct	generate	Run2	generate/STIM_007.jpg
1050.002	1.387	correct	generate	Run2	generate/STIM_007.jpg
1054.204	1.866	correct	generate	Run2	generate/STIM_008.jpg
1058.497	1.358	correct	generate	Run2	generate/STIM_008.jpg
1062.864	1.959	correct	generate	Run2	generate/STIM_008.jpg
1068.808	1.627	correct	generate	Run2	generate/STIM_008.jpg
1073.814	1.714	correct	generate	Run2	generate/STIM_008.jpg
1078.504	1.828	correct	generate	Run2	generate/STIM_009.jpg
1082.979	1.942	correct	generate	Run2	generate/STIM_009.jpg
1088.369	1.911	incorrect	generate	Run2	generate/STIM_009.jpg
1093.464	1.28	correct	generate	Run2	generate/STIM_009.jpg
1098.037	1.156	correct	generate	Run2	generate/STIM_009.jpg
1101.447	1.038	correct	generate	Run2	generate/STIM_010.jpg
1105.182	1.335	correct	generate	Run2	generate/STIM_010.jpg
1109.986	2.024	incorrect	generate	Run2	generate/STIM_010.jpg
1114.673	1.299	correct	generate	Run2	generate/STIM_010.jpg
1118.002	1.67	correct	generate	Run2	generate/STIM_010.jpg
1122.225	1.565	incorrect	generate	Run2	generate/STIM_011.jpg
1126.214	1.453	correct	generate	Run2	generate/STIM_011.jpg
1129.765	1.499	correct	generate	Run2	generate/STIM_011.jpg
1133.522	1.631	incorrect	generate	Run2	generate/STIM_011.jpg
1137.724	1.715	correct	generate	Run2	generate/STIM_011.jpg
1143.313	2.108	correct	generate	Run2	generate/STIM_012.jpg
1149.192	2.189	correct	generate	Run2	generate/STIM_012.jpg
1154.779	0.984	correct	generate	Run2	generate/STIM_012.jpg
1158.998	0.92	correct	generate	Run2	generate/STIM_012.jpg
1162.196	0.85	correct	generate	Run2	generate/STIM_012.jpg
1166.984	2.06	correct	generate	Run2	generate/STIM_013.jpg
1171.633	1.923	correct	generate	Run2	generate/STIM_013.jpg
1177.024	1.604	incorrect	generate	Run2	generate/STIM_013.jpg
1181.812	1.354	incorrect	generate	Run2	generate/STIM_013.jpg
1186.168	1.472	correct	generate	Run2	generate/STIM_013.jpg
1191.279	0.943	correct	generate	Run2	generate/STIM_014.jpg
1195.463	1.268	incorrect	generate	Run2	generate/STIM_014.jpg
1200.535	1.403	correct	generate	Run2	generate/STIM_014.jpg
1204.033	1.156	correct	generate	Run2	generate/STIM_014.jpg
1207.768	1.266	correct	generate	Run2	generate/STIM_014.jpg
1212.505	1.666	incorrect	generate	Run2	generate/STIM_015.jpg
1217.341	0.89	correct	generate	Run2	generate/STIM_015.jpg
1222.185	1.357	correct	generate	Run2	generate/STIM_015.jpg
1226.739	1.216	correct	generate	Run2	generate/STIM_015.jpg
1231.733	1.486	correct	generate	Run2	generate/STIM_015.jpg
1235.222	1.184	incorrect	generate	Run2	generate/STIM_016.jpg
1239.903	1.677	correct	generate	Run2	generate/STIM_016.jpg
1243.637	0.899	correct	generate	Run2	generate/STIM_016.jpg
1247.75	0.774	incorrect	generate	Run2	generate/STIM_016.jpg
1251.12	1.026	correct	generate	Run2	generate/STIM_016.jpg
1256.016	1.199	correct	generate	Run2	generate/STIM_017.jpg
1259.587	1.596	correct	generate	Run2	generate/STIM_017.jpg
1263.538	1.005	correct	generate	Run2	generate/STIM_017.jpg
1267.542	1.535	correct	generate	Run2	generate/STIM_017.jpg
1271.213	0.769	incorrect	generate	Run2	generate/STIM_017.jpg
1274.681	1.685	incorrect	generate	Run2	generate/STIM_018.jpg
1279.799	1.595	correct	generate	Run2	generate/STIM_018.jpg
1285.192	1.067	correct	generate	Run2	generate/STIM_018.jpg
1288.84	1.814	incorrect	generate	Run2	generate/STIM_018.jpg
1292.933	1.054	correct	generate	Run2	generate/STIM_018.jpg
1296.614	1.212	correct	generate	Run2	generate/STIM_019.jpg
1300.164	2.088	correct	generate	Run2	generate/STIM_019.jpg
1305.213	1.439	correct	generate	Run2	generate/STIM_019.jpg
1309.766	1.205	incorrect	generate	Run2	generate/STIM_019.jpg
1314.589	1.577	correct	generate	Run2	generate/STIM_019.jpg
1318.975	1.536	correct	generate	Run2	generate/STIM_020.jpg
1323.48	1.933	correct	generate	Run2	generate/STIM_020.jpg
1328.174	1.828	incorrect	generate	Run2	generate/STIM_020.jpg
1333.984	1.192	incorrect	generate	Run2	generate/STIM_020.jpg
1338.805	1.92	correct	generate	Run2	generate/STIM_020.jpg
1344.293	2.326	incorrect	generate	Run2	generate/STIM_021.jpg
1348.634	1.369	correct	generate	Run2	generate/STIM_021.jpg
1352.775	1.888	correct	generate	Run2	generate/STIM_021.jpg
1356.901	1.512	correct	generate	Run2	generate/STIM_021.jpg
1361.509	1.673	correct	generate	Run2	generate/STIM_021.jpg
1365.467	2.317	correct	generate	Run2	generate/STIM_022.jpg
1369.834	2.149	correct	generate	Run2	generate/STIM_022.jpg
1374.047	1.384	correct	generate	Run2	generate/STIM_022.jpg
1379.297	0.796	correct	generate	Run2	generate/STIM_022.jpg
1382.752	0.88	incorrect	generate	Run2	generate/STIM_022.jpg
1387.611	2.235	correct	generate	Run2	generate/STIM_023.jpg
1393.224	1.472	incorrect	generate	Run2	generate/STIM_023.jpg
1398.442	1.165	correct	generate	Run2	generate/STIM_023.jpg
1403.502	1.522	correct	generate	Run2	generate/STIM_023.jpg
1407.919	1.0	correct	generate	Run2	generate/STIM_023.jpg
1412.102	1.78	correct	generate	Run2	generate/STIM_024.jpg
1417.844	1.608	correct	generate	Run2	generate/STIM_024.jpg
1421.506	1.544	incorrect	generate	Run2	generate/STIM_024.jpg
1426.076	1.154	correct	generate	Run2	generate/STIM_024.jpg
1430.48	1.067	incorrect	generate	Run2	generate/STIM_024.jpg
1435.285	0.585	correct	repeat	Run2	repeat/STIM_000.jpg
1437.907	0.692	correct	repeat	Run2	repeat/STIM_000.jpg
1440.673	0.722	incorrect	repeat	Run2	repeat/STIM_000.jpg
1443.641	0.514	correct	repeat	Run2	repeat/STIM_000.jpg
1447.036	0.482	correct	repeat	Run2	repeat/STIM_000.jpg
1450.781	0.532	correct	repeat	Run2	repeat/STIM_001.jpg
1453.999	0.868	correct	repeat	Run2	repeat/STIM_001.jpg
1456.93	0.578	correct	repeat	Run2	repeat/STIM_001.jpg
1461.434	0.62	correct	repeat	Run2	repeat/STIM_001.jpg
1465.715	0.714	correct	repeat	Run2	repeat/STIM_001.jpg
1469.086	0.517	correct	repeat	Run2	repeat/STIM_002.jpg
1472.411	0.56	correct	repeat	Run2	repeat/STIM_002.jpg
1476.239	0.896	correct	repeat	Run2	repeat/STIM_002.jpg
1480.1	0.704	correct	repeat	Run2	repeat/STIM_002.jpg
1483.88	0.616	correct	repeat	Run2	repeat/STIM_002.jpg
1486.567	0.838	correct	repeat	Run2	repeat/STIM_003.jpg
1489.793	0.811	correct	repeat	Run2	repeat/STIM_003.jpg
1494.064	0.854	incorrect	repeat	Run2	repeat/STIM_003.jpg
1498.645	0.619	incorrect	repeat	Run2	repeat/STIM_003.jpg
1502.245	0.638	incorrect	repeat	Run2	repeat/STIM_003.jpg
1505.575	0.602	incorrect	repeat	Run2	repeat/STIM_004.jpg
1509.731	0.744	correct	repeat	Run2	repeat/STIM_004.jpg
1513.678	0.508	correct	repeat	Run2	repeat/STIM_004.jpg
1517.067	0.768	correct	repeat	Run2	repeat/STIM_004.jpg
1520.32	0.518	correct	repeat	Run2	repeat/STIM_004.jpg
1523.764	0.602	correct	repeat	Run2	repeat/STIM_005.jpg
1526.581	0.853	correct	repeat	Run2	repeat/STIM_005.jpg
1530.824	0.606	correct	repeat	Run2	repeat/STIM_005.jpg
1535.121	0.539	correct	repeat	Run2	repeat/STIM_005.jpg
1538.596	0.873	correct	repeat	Run2	repeat/STIM_005.jpg
1542.07	0.841	correct	repeat	Run2	repeat/STIM_006.jpg
1546.261	0.721	correct	repeat	Run2	repeat/STIM_006.jpg
1549.89	0.885	correct	repeat	Run2	repeat/STIM_006.jpg
1554.179	0.753	correct	repeat	Run2	repeat/STIM_006.jpg
1558.464	0.597	correct	repeat	Run2	repeat/STIM_006.jpg
1562.728	0.68	correct	repeat	Run2	repeat/STIM_007.jpg
1567.136	0.501	correct	repeat	Run2	repeat/STIM_007.jpg
1571.127	0.684	correct	repeat	Run2	repeat/STIM_007.jpg
1574.35	0.91	correct	repeat	Run2	repeat/STIM_007.jpg
1577.927	0.671	incorrect	repeat	Run2	repeat/STIM_007.jpg
1582.342	0.894	correct	repeat	Run2	repeat/STIM_008.jpg
1586.482	0.665	correct	repeat	Run2	repeat/STIM_008.jpg
1589.968	0.616	correct	repeat	Run2	repeat/STIM_008.jpg
1594.417	0.74	correct	repeat	Run2	repeat/STIM_008.jpg
1598.723	0.856	correct	repeat	Run2	repeat/STIM_008.jpg
1602.396	0.631	correct	repeat	Run2	repeat/STIM_009.jpg
1606.595	0.503	correct	repeat	Run2	repeat/STIM_009.jpg
1609.858	0.835	correct	repeat	Run2	repeat/STIM_009.jpg
1613.402	0.611	incorrect	repeat	Run2	repeat/STIM_009.jpg
1617.56	0.531	correct	repeat	Run2	repeat/STIM_009.jpg
1621.151	0.793	correct	repeat	Run2	repeat/STIM_010.jpg
1624.09	0.585	correct	repeat	Run2	repeat/STIM_010.jpg
1626.759	0.52	incorrect	repeat	Run2	repeat/STIM_010.jpg
1631.056	0.632	correct	repeat	Run2	repeat/STIM_010.jpg
1634.091	0.603	correct	repeat	Run2	repeat/STIM_010.jpg
1637.504	0.804	correct	repeat	Run2	repeat/STIM_011.jpg
1642.136	0.59	correct	repeat	Run2	repeat/STIM_011.jpg
1646.401	0.895	incorrect	repeat	Run2	repeat/STIM_011.jpg
1649.952	0.677	incorrect	repeat	Run2	repeat/STIM_011.jpg
1654.023	0.672	incorrect	repeat	Run2	repeat/STIM_011.jpg
1657.198	0.823	correct	repeat	Run2	repeat/STIM_012.jpg
1661.837	0.628	correct	repeat	Run2	repeat/STIM_012.jpg
1664.635	0.681	correct	repeat	Run2	repeat/STIM_012.jpg
1667.705	0.711	correct	repeat	Run2	repeat/STIM_012.jpg
1671.588	0.783	correct	repeat	Run2	repeat/STIM_012.jpg
1675.009	0.872	correct	repeat	Run2	repeat/STIM_013.jpg
1678.913	0.782	correct	repeat	Run2	repeat/STIM_013.jpg
1683.024	0.488	correct	repeat	Run2	repeat/STIM_013.jpg
1685.596	0.673	correct	repeat	Run2	repeat/STIM_013.jpg
1688.668	0.704	correct	repeat	Run2	repeat/STIM_013.jpg
1692.915	0.573	correct	repeat	Run2	repeat/STIM_014.jpg
1695.884	0.463	incorrect	repeat	Run2	repeat/STIM_014.jpg
1699.797	0.558	correct	repeat	Run2	repeat/STIM_014.jpg
1702.831	0.522	correct	repeat	Run2	repeat/STIM_014.jpg
1707.291	0.7	correct	repeat	Run2	repeat/STIM_014.jpg
1710.575	1.864	correct	generate	Run3	generate/STIM_000.jpg
1715.674	1.42	correct	generate	Run3	generate/STIM_000.jpg
1720.007	1.21	correct	generate	Run3	generate/STIM_000.jpg
1724.661	1.78	correct	generate	Run3	generate/STIM_000.jpg
1728.847	1.771	correct	generate	Run3	generate/STIM_000.jpg
1732.65	0.971	correct	generate	Run3	generate/STIM_001.jpg
1735.799	1.886	correct	generate	Run3	generate/STIM_001.jpg
1741.443	0.88	correct	generate	Run3	generate/STIM_001.jpg
1745.405	1.269	incorrect	generate	Run3	generate/STIM_001.jpg
1749.946	1.443	correct	generate	Run3	generate/STIM_001.jpg
1754.998	1.394	incorrect	generate	Run3	generate/STIM_002.jpg
1760.318	1.912	correct	generate	Run3	generate/STIM_002.jpg
1766.086	1.54	correct	generate	Run3	generate/STIM_002.jpg
1770.197	1.859	correct	generate	Run3	generate/STIM_002.jpg
1774.236	1.325	correct	generate	Run3	generate/STIM_002.jpg
1778.756	1.13	correct	generate	Run3	generate/STIM_003.jpg
1783.601	0.782	correct	generate	Run3	generate/STIM_003.jpg
1787.471	1.708	correct	generate	Run3	generate/STIM_003.jpg
1791.589	1.716	correct	generate	Run3	generate/STIM_003.jpg
1796.605	0.78	correct	generate	Run3	generate/STIM_003.jpg
1801.287	1.162	correct	generate	Run3	generate/STIM_004.jpg
1805.922	1.085	correct	generate	Run3	generate/STIM_004.jpg
1810.431	0.885	correct	generate	Run3	generate/STIM_004.jpg
1815.225	1.609	correct	generate	Run3	generate/STIM_004.jpg
1818.943	1.261	correct	generate	Run3	generate/STIM_004.jpg
1822.524	1.504	correct	generate	Run3	generate/STIM_005.jpg
1827.043	1.51	correct	generate	Run3	generate/STIM_005.jpg
1831.954	0.882	correct	generate	Run3	generate/STIM_005.jpg
1836.338	0.877	correct	generate	Run3	generate/STIM_005.jpg
1839.831	1.647	correct	generate	Run3	generate/STIM_005.jpg
1845.276	1.245	correct	generate	Run3	generate/STIM_006.jpg
1849.472	1.122	correct	generate	Run3	generate/STIM_006.jpg
1854.342	1.262	incorrect	generate	Run3	generate/STIM_006.jpg
1859.251	1.92	correct	generate	Run3	generate/STIM_006.jpg
1863.468	1.142	incorrect	generate	Run3	generate/STIM_006.jpg
1868.011	1.16	correct	generate	Run3	generate/STIM_007.jpg
1871.478	1.848	correct	generate	Run3	generate/STIM_007.jpg
1876.531	1.8	correct	generate	Run3	generate/STIM_007.jpg
1881.81	1.218	correct	generate	Run3	generate/STIM_007.jpg
1886.239	0.777	incorrect	generate	Run3	generate/STIM_007.jpg
1889.061	1.531	incorrect	generate	Run3	generate/STIM_008.jpg
1894.122	1.53	correct	generate	Run3	generate/STIM_008.jpg
1899.057	0.944	incorrect	generate	Run3	generate/STIM_008.jpg
1903.809	1.262	correct	generate	Run3	generate/STIM_008.jpg
1908.37	1.918	correct	generate	Run3	generate/STIM_008.jpg
1912.639	1.364	correct	generate	Run3	generate/STIM_009.jpg
1916.611	1.598	correct	generate	Run3	generate/STIM_009.jpg
1921.594	1.618	correct	generate	Run3	generate/STIM_009.jpg
1925.612	0.883	correct	generate	Run3	generate/STIM_009.jpg
1928.545	0.937	correct	generate	Run3	generate/STIM_009.jpg
1932.518	1.098	correct	generate	Run3	generate/STIM_010.jpg
1936.236	1.573	incorrect	generate	Run3	generate/STIM_010.jpg
1940.14	1.361	incorrect	generate	Run3	generate/STIM_010.jpg
1944.174	1.768	correct	generate	Run3	generate/STIM_010.jpg
1948.757	1.07	correct	generate	Run3	generate/STIM_010.jpg
1953.294	1.642	incorrect	generate	Run3	generate/STIM_011.jpg
1958.403	1.018	incorrect	generate	Run3	generate/STIM_011.jpg
1962.359	1.39	correct	generate	Run3	generate/STIM_011.jpg
1967.313	0.988	correct	generate	Run3	generate/STIM_011.jpg
1970.832	1.098	correct	generate	Run3	generate/STIM_011.jpg
1975.804	1.33	correct	generate	Run3	generate/STIM_012.jpg
1980.617	1.71	correct	generate	Run3	generate/STIM_012.jpg
1985.531	1.564	incorrect	generate	Run3	generate/STIM_012.jpg
1990.337	1.389	correct	generate	Run3	generate/STIM_012.jpg
1993.901	1.266	correct	generate	Run3	generate/STIM_012.jpg
1998.499	1.883	correct	generate	Run3	generate/STIM_013.jpg
2003.798	1.186	incorrect	generate	Run3	generate/STIM_013.jpg
2007.501	1.442	correct	generate	Run3	generate/STIM_013.jpg
2011.423	1.531	correct	generate	Run3	generate/STIM_013.jpg
2016.156	1.743	correct	generate	Run3	generate/STIM_013.jpg
2021.465	1.528	correct	generate	Run3	generate/STIM_014.jpg
2025.883	0.844	correct	generate	Run3	generate/STIM_014.jpg
2029.281	1.202	correct	generate	Run3	generate/STIM_014.jpg
2032.902	1.08	incorrect	generate	Run3	generate/STIM_014.jpg
2036.639	0.988	correct	generate	Run3	generate/STIM_014.jpg
2039.983	1.578	correct	generate	Run3	generate/STIM_015.jpg
2043.951	1.298	correct	generate	Run3	generate/STIM_015.jpg
2047.661	0.825	correct	generate	Run3	generate/STIM_015.jpg
2051.034	0.833	correct	generate	Run3	generate/STIM_015.jpg
2054.97	1.506	correct	generate	Run3	generate/STIM_015.jpg
2058.738	0.924	correct	generate	Run3	generate/STIM_016.jpg
2062.793	1.275	incorrect	generate	Run3	generate/STIM_016.jpg
2067.526	1.123	incorrect	generate	Run3	generate/STIM_016.jpg
2071.884	1.627	incorrect	generate	Run3	generate/STIM_016.jpg
2076.483	1.287	correct	generate	Run3	generate/STIM_016.jpg
2081.61	1.416	correct	generate	Run3	generate/STIM_017.jpg
2086.112	0.904	correct	generate	Run3	generate/STIM_017.jpg
2089.189	1.08	correct	generate	Run3	generate/STIM_017.jpg
2093.981	0.844	correct	generate	Run3	generate/STIM_017.jpg
2097.962	1.491	correct	generate	Run3	generate/STIM_017.jpg
2102.118	1.79	incorrect	generate	Run3	generate/STIM_018.jpg
2106.249	1.439	correct	generate	Run3	generate/STIM_018.jpg
2111.368	0.907	correct	generate	Run3	generate/STIM_018.jpg
2115.721	1.155	incorrect	generate	Run3	generate/STIM_018.jpg
2119.012	1.565	correct	generate	Run3	generate/STIM_018.jpg
2123.08	1.374	correct	generate	Run3	generate/STIM_019.jpg
2126.761	1.089	correct	generate	Run3	generate/STIM_019.jpg
2131.843	1.4	incorrect	generate	Run3	generate/STIM_019.jpg
2136.669	1.806	correct	generate	Run3	generate/STIM_019.jpg
2141.314	1.261	incorrect	generate	Run3	generate/STIM_019.jpg
2144.958	1.669	incorrect	generate	Run3	generate/STIM_020.jpg
2150.617	1.814	correct	generate	Run3	generate/STIM_020.jpg
2154.494	1.782	correct	generate	Run3	generate/STIM_020.jpg
2159.456	1.358	correct	generate	Run3	generate/STIM_020.jpg
2164.079	1.83	correct	generate	Run3	generate/STIM_020.jpg
2169.144	1.475	incorrect	generate	Run3	generate/STIM_021.jpg
2174.008	0.868	correct	generate	Run3	generate/STIM_021.jpg
2178.792	1.676	correct	generate	Run3	generate/STIM_021.jpg
2182.599	1.345	correct	generate	Run3	generate/STIM_021.jpg
2187.543	1.377	correct	generate	Run3	generate/STIM_021.jpg
2191.626	1.015	correct	generate	Run3	generate/STIM_022.jpg
2195.936	1.188	correct	generate	Run3	generate/STIM_022.jpg
2200.158	1.752	correct	generate	Run3	generate/STIM_022.jpg
2204.67	1.859	correct	generate	Run3	generate/STIM_022.jpg
2209.675	1.604	correct	generate	Run3	generate/STIM_022.jpg
2213.848	1.299	correct	generate	Run3	generate/STIM_023.jpg
2217.984	0.944	correct	generate	Run3	generate/STIM_023.jpg
2222.148	0.867	incorrect	generate	Run3	generate/STIM_023.jpg
2225.238	1.051	correct	generate	Run3	generate/STIM_023.jpg
2229.455	1.697	correct	generate	Run3	generate/STIM_023.jpg
2233.746	1.05	incorrect	generate	Run3	generate/STIM_024.jpg
2238.15	1.302	correct	generate	Run3	generate/STIM_024.jpg
2241.936	0.955	incorrect	generate	Run3	generate/STIM_024.jpg
2245.298	1.865	incorrect	generate	Run3	generate/STIM_024.jpg
2250.972	1.608	correct	generate	Run3	generate/STIM_024.jpg
2254.961	0.6	correct	repeat	Run3	repeat/STIM_000.jpg
2257.944	0.711	correct	repeat	Run3	repeat/STIM_000.jpg
2261.102	0.806	correct	repeat	Run3	repeat/STIM_000.jpg
2264.949	0.717	incorrect	repeat	Run3	repeat/STIM_000.jpg
2268.418	0.807	correct	repeat	Run3	repeat/STIM_000.jpg
2271.356	0.494	correct	repeat	Run3	repeat/STIM_001.jpg
2274.775	0.816	correct	repeat	Run3	repeat/STIM_001.jpg
2277.617	0.897	correct	repeat	Run3	repeat/STIM_001.jpg
2280.7	0.754	correct	repeat	Run3	repeat/STIM_001.jpg
2284.636	0.532	correct	repeat	Run3	repeat/STIM_001.jpg
2287.339	0.847	correct	repeat	Run3	repeat/STIM_002.jpg
2290.703	0.777	correct	repeat	Run3	repeat/STIM_002.jpg
2294.063	0.472	correct	repeat	Run3	repeat/STIM_002.jpg
2296.821	0.634	incorrect	repeat	Run3	repeat/STIM_002.jpg
2300.479	0.782	correct	repeat	Run3	repeat/STIM_002.jpg
2303.47	0.502	correct	repeat	Run3	repeat/STIM_003.jpg
2307.041	0.6	incorrect	repeat	Run3	repeat/STIM_003.jpg
2310.885	0.669	correct	repeat	Run3	repeat/STIM_003.jpg
2315.081	0.618	correct	repeat	Run3	repeat/STIM_003.jpg
2318.825	0.689	correct	repeat	Run3	repeat/STIM_003.jpg
2323.122	0.773	correct	repeat	Run3	repeat/STIM_004.jpg
2326.184	0.748	correct	repeat	Run3	repeat/STIM_004.jpg
2330.063	0.753	correct	repeat	Run3	repeat/STIM_004.jpg
2334.645	0.592	correct	repeat	Run3	repeat/STIM_004.jpg
2338.404	0.465	correct	repeat	Run3	repeat/STIM_004.jpg
2342.317	0.685	correct	repeat	Run3	repeat/STIM_005.jpg
2346.82	0.797	correct	repeat	Run3	repeat/STIM_005.jpg
2349.947	0.79	correct	repeat	Run3	repeat/STIM_005.jpg
2353.232	0.624	correct	repeat	Run3	repeat/STIM_005.jpg
2356.26	0.679	incorrect	repeat	Run3	repeat/STIM_005.jpg
2359.143	0.642	correct	repeat	Run3	repeat/STIM_006.jpg
2363.095	0.472	correct	repeat	Run3	repeat/STIM_006.jpg
2366.628	0.581	correct	repeat	Run3	repeat/STIM_006.jpg
2371.144	0.739	incorrect	repeat	Run3	repeat/STIM_006.jpg
2374.418	0.523	incorrect	repeat	Run3	repeat/STIM_006.jpg
2378.807	0.542	correct	repeat	Run3	repeat/STIM_007.jpg
2381.427	0.569	correct	repeat	Run3	repeat/STIM_007.jpg
2384.538	0.629	incorrect	repeat	Run3	repeat/STIM_007.jpg
2388.382	0.681	correct	repeat	Run3	repeat/STIM_007.jpg
2392.944	0.629	correct	repeat	Run3	repeat/STIM_007.jpg
2396.324	0.849	correct	repeat	Run3	repeat/STIM_008.jpg
2399.478	0.674	correct	repeat	Run3	repeat/STIM_008.jpg
2402.522	0.85	incorrect	repeat	Run3	repeat/STIM_008.jpg
2406.571	0.619	correct	repeat	Run3	repeat/STIM_008.jpg
2409.464	0.552	correct	repeat	Run3	repeat/STIM_008.jpg
2413.893	0.781	correct	repeat	Run3	repeat/STIM_009.jpg
2417.045	0.761	correct	repeat	Run3	repeat/STIM_009.jpg
2419.813	0.824	incorrect	repeat	Run3	repeat/STIM_009.jpg
2424.233	0.529	correct	repeat	Run3	repeat/STIM_009.jpg
2427.738	0.795	incorrect	repeat	Run3	repeat/STIM_009.jpg
2430.914	0.541	correct	repeat	Run3	repeat/STIM_010.jpg
2434.974	0.641	correct	repeat	Run3	repeat/STIM_010.jpg
2438.519	0.586	incorrect	repeat	Run3	repeat/STIM_010.jpg
2441.445	0.914	correct	repeat	Run3	repeat/STIM_010.jpg
2444.571	0.568	correct	repeat	Run3	repeat/STIM_010.jpg
2448.304	0.617	correct	repeat	Run3	repeat/STIM_011.jpg
2451.634	0.702	correct	repeat	Run3	repeat/STIM_011.jpg
2454.949	0.768	correct	repeat	Run3	repeat/STIM_011.jpg
2459.09	0.668	correct	repeat	Run3	repeat/STIM_011.jpg
2462.759	0.724	correct	repeat	Run3	repeat/STIM_011.jpg
2467.235	0.705	incorrect	repeat	Run3	repeat/STIM_012.jpg
2471.582	0.824	correct	repeat	Run3	repeat/STIM_012.jpg
2475.475	0.875	correct	repeat	Run3	repeat/STIM_012.jpg
2480.142	0.904	incorrect	repeat	Run3	repeat/STIM_012.jpg
2484.494	0.492	correct	repeat	Run3	repeat/STIM_012.jpg
2488.061	0.694	correct	repeat	Run3	repeat/STIM_013.jpg
2491.768	0.78	correct	repeat	Run3	repeat/STIM_013.jpg
2494.709	0.849	correct	repeat	Run3	repeat/STIM_013.jpg
2499.524	0.7	incorrect	repeat	Run3	repeat/STIM_013.jpg
2502.935	0.568	correct	repeat	Run3	repeat/STIM_013.jpg
2506.394	0.523	correct	repeat	Run3	repeat/STIM_014.jpg
2510.777	0.613	correct	repeat	Run3	repeat/STIM_014.jpg
2513.947	0.812	correct	repeat	Run3	repeat/STIM_014.jpg
2518.401	0.643	correct	repeat	Run3	repeat/STIM_014.jpg
2521.469	0.499	correct	repeat	Run3	repeat/STIM_014.jpg
2525.873	1.636	correct	generate	Run4	generate/STIM_000.jpg
2531.352	0.829	correct	generate	Run4	generate/STIM_000.jpg
2534.24	1.664	correct	generate	Run4	generate/STIM_000.jpg
2539.67	1.845	incorrect	generate	Run4	generate/STIM_000.jpg
2544.813	0.868	correct	generate	Run4	generate/STIM_000.jpg
2548.861	1.059	correct	generate	Run4	generate/STIM_001.jpg
2551.952	1.145	correct	generate	Run4	generate/STIM_001.jpg
2555.835	1.575	incorrect	generate	Run4	generate/STIM_001.jpg
2561.345	1.649	incorrect	generate	Run4	generate/STIM_001.jpg
2566.244	0.929	correct	generate	Run4	generate/STIM_001.jpg
2569.494	1.794	correct	generate	Run4	generate/STIM_002.jpg
2574.045	0.956	correct	generate	Run4	generate/STIM_002.jpg
2578.623	1.334	correct	generate	Run4	generate/STIM_002.jpg
2583.281	1.867	correct	generate	Run4	generate/STIM_002.jpg
2588.653	0.924	correct	generate	Run4	generate/STIM_002.jpg
2593.386	1.777	correct	generate	Run4	generate/STIM_003.jpg
2597.748	1.41	correct	generate	Run4	generate/STIM_003.jpg
2602.269	1.03	correct	generate	Run4	generate/STIM_003.jpg
2606.649	1.555	correct	generate	Run4	generate/STIM_003.jpg
2612.113	1.806	correct	generate	Run4	generate/STIM_003.jpg
2616.171	0.855	correct	generate	Run4	generate/STIM_004.jpg
2620.223	1.444	correct	generate	Run4	generate/STIM_004.jpg
2625.322	1.591	incorrect	generate	Run4	generate/STIM_004.jpg
2629.4	1.05	correct	generate	Run4	generate/STIM_004.jpg
2632.74	1.436	correct	generate	Run4	generate/STIM_004.jpg
2637.446	1.303	correct	generate	Run4	generate/STIM_005.jpg
2642.013	1.797	correct	generate	Run4	generate/STIM_005.jpg
2646.397	0.85	correct	generate	Run4	generate/STIM_005.jpg
2651.137	1.301	correct	generate	Run4	generate/STIM_005.jpg
2656.436	1.021	correct	generate	Run4	generate/STIM_005.jpg
2660.815	1.102	correct	generate	Run4	generate/STIM_006.jpg
2665.092	1.919	correct	generate	Run4	generate/STIM_006.jpg
2670.293	1.702	correct	generate	Run4	generate/STIM_006.jpg
2674.283	1.688	correct	generate	Run4	generate/STIM_006.jpg
2679.306	1.616	correct	generate	Run4	generate/STIM_006.jpg
2683.763	1.906	correct	generate	Run4	generate/STIM_007.jpg
2689.593	1.785	correct	generate	Run4	generate/STIM_007.jpg
2694.802	1.45	correct	generate	Run4	generate/STIM_007.jpg
2698.852	1.497	correct	generate	Run4	generate/STIM_007.jpg
2704.168	0.917	correct	generate	Run4	generate/STIM_007.jpg
2708.562	1.699	correct	generate	Run4	generate/STIM_008.jpg
2713.641	1.454	correct	generate	Run4	generate/STIM_008.jpg
2718.206	1.595	correct	generate	Run4	generate/STIM_008.jpg
2723.485	1.126	correct	generate	Run4	generate/STIM_008.jpg
2728.08	0.928	correct	generate	Run4	generate/STIM_008.jpg
2731.159	1.473	correct	generate	Run4	generate/STIM_009.jpg
2736.397	0.892	correct	generate	Run4	generate/STIM_009.jpg
2740.257	1.048	correct	generate	Run4	generate/STIM_009.jpg
2744.714	1.763	correct	generate	Run4	generate/STIM_009.jpg
2749.452	1.47	correct	generate	Run4	generate/STIM_009.jpg
2753.202	1.166	incorrect	generate	Run4	generate/STIM_010.jpg
2757.29	0.816	correct	generate	Run4	generate/STIM_010.jpg
2761.533	1.008	correct	generate	Run4	generate/STIM_010.jpg
2764.892	1.235	correct	generate	Run4	generate/STIM_010.jpg
2768.748	1.666	correct	generate	Run4	generate/STIM_010.jpg
2774.074	1.025	correct	generate	Run4	generate/STIM_011.jpg
2777.297	1.387	incorrect	generate	Run4	generate/STIM_011.jpg
2782.394	0.796	correct	generate	Run4	generate/STIM_011.jpg
2785.79	1.562	correct	generate	Run4	generate/STIM_011.jpg
2791.096	1.616	correct	generate	Run4	generate/STIM_011.jpg
2795.515	1.547	incorrect	generate	Run4	generate/STIM_012.jpg
2801.017	1.263	correct	generate	Run4	generate/STIM_012.jpg
2805.871	1.321	correct	generate	Run4	generate/STIM_012.jpg
2810.304	1.02	incorrect	generate	Run4	generate/STIM_012.jpg
2814.255	1.18	correct	generate	Run4	generate/STIM_012.jpg
2818.072	1.642	correct	generate	Run4	generate/STIM_013.jpg
2822.38	0.8	correct	generate	Run4	generate/STIM_013.jpg
2826.405	1.653	correct	generate	Run4	generate/STIM_013.jpg
2831.14	1.197	correct	generate	Run4	generate/STIM_013.jpg
2834.345	1.07	correct	generate	Run4	generate/STIM_013.jpg
2838.86	1.646	correct	generate	Run4	generate/STIM_014.jpg
2844.352	1.398	correct	generate	Run4	generate/STIM_014.jpg
2848.6	1.451	correct	generate	Run4	generate/STIM_014.jpg
2853.578	1.55	correct	generate	Run4	generate/STIM_014.jpg
2857.243	1.116	correct	generate	Run4	generate/STIM_014.jpg
2862.043	1.43	correct	generate	Run4	generate/STIM_015.jpg
2865.53	1.306	correct	generate	Run4	generate/STIM_015.jpg
2870.182	1.626	correct	generate	Run4	generate/STIM_015.jpg
2874.192	1.849	correct	generate	Run4	generate/STIM_015.jpg
2879.23	1.018	correct	generate	Run4	generate/STIM_015.jpg
2883.201	0.983	correct	generate	Run4	generate/STIM_016.jpg
2887.659	1.001	correct	generate	Run4	generate/STIM_016.jpg
2891.882	0.972	correct	generate	Run4	generate/STIM_016.jpg
2896.466	1.322	correct	generate	Run4	generate/STIM_016.jpg
2900.669	1.253	correct	generate	Run4	generate/STIM_016.jpg
2904.271	0.9	correct	generate	Run4	generate/STIM_017.jpg
2908.666	1.722	correct	generate	Run4	generate/STIM_017.jpg
2912.515	0.826	correct	generate	Run4	generate/STIM_017.jpg
2916.467	1.816	correct	generate	Run4	generate/STIM_017.jpg
2920.563	1.051	correct	generate	Run4	generate/STIM_017.jpg
2925.017	1.087	incorrect	generate	Run4	generate/STIM_018.jpg
2929.358	1.635	correct	generate	Run4	generate/STIM_018.jpg
2933.392	1.862	incorrect	generate	Run4	generate/STIM_018.jpg
2939.219	1.583	correct	generate	Run4	generate/STIM_018.jpg
2943.739	1.069	correct	generate	Run4	generate/STIM_018.jpg
2948.312	1.363	correct	generate	Run4	generate/STIM_019.jpg
2951.98	1.619	correct	generate	Run4	generate/STIM_019.jpg
2956.552	1.92	correct	generate	Run4	generate/STIM_019.jpg
2960.818	1.908	correct	generate	Run4	generate/STIM_019.jpg
2965.851	0.953	correct	generate	Run4	generate/STIM_019.jpg
2968.957	1.704	correct	generate	Run4	generate/STIM_020.jpg
2973.735	1.19	correct	generate	Run4	generate/STIM_020.jpg
2977.43	1.243	incorrect	generate	Run4	generate/STIM_020.jpg
2981.934	1.916	correct	generate	Run4	generate/STIM_020.jpg
2987.804	1.645	correct	generate	Run4	generate/STIM_020.jpg
2992.125	0.884	correct	generate	Run4	generate/STIM_021.jpg
2995.646	0.814	incorrect	generate	Run4	generate/STIM_021.jpg
2998.902	1.219	correct	generate	Run4	generate/STIM_021.jpg
3003.726	1.661	correct	generate	Run4	generate/STIM_021.jpg
3008.282	1.369	correct	generate	Run4	generate/STIM_021.jpg
3013.25	1.841	correct	generate	Run4	generate/STIM_022.jpg
3017.228	1.524	correct	generate	Run4	generate/STIM_022.jpg
3021.907	1.854	correct	generate	Run4	generate/STIM_022.jpg
3025.919	1.391	correct	generate	Run4	generate/STIM_022.jpg
3029.433	0.794	correct	generate	Run4	generate/STIM_022.jpg
3032.329	1.338	correct	generate	Run4	generate/STIM_023.jpg
3037.008	1.226	correct	generate	Run4	generate/STIM_023.jpg
3042.194	1.862	incorrect	generate	Run4	generate/STIM_023.jpg
3047.099	1.057	correct	generate	Run4	generate/STIM_023.jpg
3050.797	1.819	correct	generate	Run4	generate/STIM_023.jpg
3056.248	0.973	correct	generate	Run4	generate/STIM_024.jpg
3059.368	0.979	correct	generate	Run4	generate/STIM_024.jpg
3064.01	1.107	correct	generate	Run4	generate/STIM_024.jpg
3068.069	1.601	correct	generate	Run4	generate/STIM_024.jpg
3073.643	0.801	correct	generate	Run4	generate/STIM_024.jpg
3077.572	0.633	correct	repeat	Run4	repeat/STIM_000.jpg
3080.753	0.679	correct	repeat	Run4	repeat/STIM_000.jpg
3084.75	0.54	correct	repeat	Run4	repeat/STIM_000.jpg
3088.427	0.458	correct	repeat	Run4	repeat/STIM_000.jpg
3091.024	0.743	correct	repeat	Run4	repeat/STIM_000.jpg
3093.97	0.88	incorrect	repeat	Run4	repeat/STIM_001.jpg
3097.502	0.672	incorrect	repeat	Run4	repeat/STIM_001.jpg
3101.628	0.566	incorrect	repeat	Run4	repeat/STIM_001.jpg
3104.791	0.861	correct	repeat	Run4	repeat/STIM_001.jpg
3107.791	0.837	correct	repeat	Run4	repeat/STIM_001.jpg
3112.481	0.9	correct	repeat	Run4	repeat/STIM_002.jpg
3115.761	0.647	correct	repeat	Run4	repeat/STIM_002.jpg
3118.917	0.596	correct	repeat	Run4	repeat/STIM_002.jpg
3122.982	0.706	correct	repeat	Run4	repeat/STIM_002.jpg
3126.704	0.722	correct	repeat	Run4	repeat/STIM_002.jpg
3130.284	0.688	correct	repeat	Run4	repeat/STIM_003.jpg
3134.688	0.862	correct	repeat	Run4	repeat/STIM_003.jpg
3137.927	0.803	correct	repeat	Run4	repeat/STIM_003.jpg
3142.258	0.873	correct	repeat	Run4	repeat/STIM_003.jpg
3146.6	0.646	correct	repeat	Run4	repeat/STIM_003.jpg
3151.146	0.914	correct	repeat	Run4	repeat/STIM_004.jpg
3154.689	0.561	correct	repeat	Run4	repeat/STIM_004.jpg
3157.385	0.488	correct	repeat	Run4	repeat/STIM_004.jpg
3161.515	0.744	correct	repeat	Run4	repeat/STIM_004.jpg
3165.649	0.638	correct	repeat	Run4	repeat/STIM_004.jpg
3169.09	0.595	correct	repeat	Run4	repeat/STIM_005.jpg
3172.147	0.484	correct	repeat	Run4	repeat/STIM_005.jpg
3176.157	0.541	correct	repeat	Run4	repeat/STIM_005.jpg
3180.139	0.879	correct	repeat	Run4	repeat/STIM_005.jpg
3184.313	0.572	incorrect	repeat	Run4	repeat/STIM_005.jpg
3188.47	0.613	incorrect	repeat	Run4	repeat/STIM_006.jpg
3191.472	0.805	correct	repeat	Run4	repeat/STIM_006.jpg
3195.641	0.464	incorrect	repeat	Run4	repeat/STIM_006.jpg
3198.202	0.482	correct	repeat	Run4	repeat/STIM_006.jpg
3200.712	0.822	correct	repeat	Run4	repeat/STIM_006.jpg
3205.379	0.624	correct	repeat	Run4	repeat/STIM_007.jpg
3208.661	0.656	correct	repeat	Run4	repeat/STIM_007.jpg
3211.388	0.579	correct	repeat	Run4	repeat/STIM_007.jpg
3214.595	0.91	correct	repeat	Run4	repeat/STIM_007.jpg
3218.794	0.79	correct	repeat	Run4	repeat/STIM_007.jpg
3221.671	0.833	correct	repeat	Run4	repeat/STIM_008.jpg
3225.006	0.564	correct	repeat	Run4	repeat/STIM_008.jpg
3229.379	0.894	correct	repeat	Run4	repeat/STIM_008.jpg
3233.676	0.684	correct	repeat	Run4	repeat/STIM_008.jpg
3237.49	0.807	incorrect	repeat	Run4	repeat/STIM_008.jpg
3242.073	0.88	correct	repeat	Run4	repeat/STIM_009.jpg
3246.547	0.475	correct	repeat	Run4	repeat/STIM_009.jpg
3249.254	0.66	correct	repeat	Run4	repeat/STIM_009.jpg
3252.266	0.805	correct	repeat	Run4	repeat/STIM_009.jpg
3256.845	0.651	correct	repeat	Run4	repeat/STIM_009.jpg
3261.198	0.478	correct	repeat	Run4	repeat/STIM_010.jpg
3265.322	0.821	correct	repeat	Run4	repeat/STIM_010.jpg
3268.189	0.86	correct	repeat	Run4	repeat/STIM_010.jpg
3272.599	0.766	correct	repeat	Run4	repeat/STIM_010.jpg
3276.081	0.788	correct	repeat	Run4	repeat/STIM_010.jpg
3279.182	0.674	correct	repeat	Run4	repeat/STIM_011.jpg
3282.262	0.677	correct	repeat	Run4	repeat/STIM_011.jpg
3285.93	0.576	correct	repeat	Run4	repeat/STIM_011.jpg
3288.944	0.478	correct	repeat	Run4	repeat/STIM_011.jpg
3292.528	0.903	correct	repeat	Run4	repeat/STIM_011.jpg
3296.352	0.544	correct	repeat	Run4	repeat/STIM_012.jpg
3299.076	0.816	correct	repeat	Run4	repeat/STIM_012.jpg
3302.495	0.688	incorrect	repeat	Run4	repeat/STIM_012.jpg
3305.661	0.844	incorrect	repeat	Run4	repeat/STIM_012.jpg
3309.266	0.649	correct	repeat	Run4	repeat/STIM_012.jpg
3312.076	0.729	correct	repeat	Run4	repeat/STIM_013.jpg
3316.253	0.744	correct	repeat	Run4	repeat/STIM_013.jpg
3320.009	0.468	correct	repeat	Run4	repeat/STIM_013.jpg
3323.879	0.67	correct	repeat	Run4	repeat/STIM_013.jpg
3327.815	0.676	correct	repeat	Run4	repeat/STIM_013.jpg
3331.068	0.744	correct	repeat	Run4	repeat/STIM_014.jpg
3335.257	0.671	correct	repeat	Run4	repeat/STIM_014.jpg
3338.633	0.654	correct	repeat	Run4	repeat/STIM_014.jpg
3342.275	0.674	correct	repeat	Run4	repeat/STIM_014.jpg
3346.024	0.826	incorrect	repeat	Run4	repeat/STIM_014.jpg
