onset	duration	accuracy	trial_type	learning_stage	stimulus
0.0	1.355	correct	generate	Run1	generate/STIM_000.jpg
4.66	1.646	correct	generate	Run1	generate/STIM_000.jpg
10.038	1.293	correct	generate	Run1	generate/STIM_000.jpg
13.688	1.138	correct	generate	Run1	generate/STIM_000.jpg
17.809	1.133	correct	generate	Run1	generate/STIM_000.jpg
21.615	1.616	correct	generate	Run1	generate/STIM_001.jpg
26.8	2.402	incorrect	generate	Run1	generate/STIM_001.jpg
32.103	1.191	correct	generate	Run1	generate/STIM_001.jpg
35.893	1.024	incorrect	generate	Run1	generate/STIM_001.jpg
39.582	1.89	correct	generate	Run1	generate/STIM_001.jpg
44.619	2.597	correct	generate	Run1	generate/STIM_002.jpg
50.874	1.302	correct	generate	Run1	generate/STIM_002.jpg
54.565	1.934	incorrect	generate	Run1	generate/STIM_002.jpg
59.71	2.287	incorrect	generate	Run1	generate/STIM_002.jpg
64.655	1.237	correct	generate	Run1	generate/STIM_002.jpg
68.71	2.518	correct	generate	Run1	generate/STIM_003.jpg
73.857	1.976	correct	generate	Run1	generate/STIM_003.jpg
79.897	1.944	correct	generate	Run1	generate/STIM_003.jpg
84.007	0.962	correct	generate	Run1	generate/STIM_003.jpg
88.071	1.47	correct	generate	Run1	generate/STIM_003.jpg
91.617	2.386	correct	generate	Run1	generate/STIM_004.jpg
97.315	2.259	correct	generate	Run1	generate/STIM_004.jpg
102.764	1.283	correct	generate	Run1	generate/STIM_004.jpg
106.412	2.245	correct	generate	Run1	generate/STIM_004.jpg
111.029	2.263	correct	generate	Run1	generate/STIM_004.jpg
115.783	2.572	correct	generate	Run1	generate/STIM_005.jpg
121.83	2.495	incorrect	generate	Run1	generate/STIM_005.jpg
128.064	1.732	correct	generate	Run1	generate/STIM_005.jpg
133.37	1.869	correct	generate	Run1	generate/STIM_005.jpg
137.811	1.449	correct	generate	Run1	generate/STIM_005.jpg
142.2	1.59	incorrect	generate	Run1	generate/STIM_006.jpg
146.609	2.471	correct	generate	Run1	generate/STIM_006.jpg
152.784	1.244	correct	generate	Run1	generate/STIM_006.jpg
156.991	1.781	correct	generate	Run1	generate/STIM_006.jpg
161.857	2.083	correct	generate	Run1	generate/STIM_006.jpg
166.643	1.941	incorrect	generate	Run1	generate/STIM_007.jpg
170.786	1.854	correct	generate	Run1	generate/STIM_007.jpg
175.415	2.349	correct	generate	Run1	generate/STIM_007.jpg
179.998	1.497	correct	generate	Run1	generate/STIM_007.jpg
183.659	2.283	correct	generate	Run1	generate/STIM_007.jpg
189.038	2.552	correct	generate	Run1	generate/STIM_008.jpg
194.128	2.197	incorrect	generate	Run1	generate/STIM_008.jpg
198.615	2.142	correct	generate	Run1	generate/STIM_008.jpg
204.029	2.107	correct	generate	Run1	generate/STIM_008.jpg
208.264	1.506	correct	generate	Run1	generate/STIM_008.jpg
212.969	2.518	incorrect	generate	Run1	generate/STIM_009.jpg
218.553	2.346	correct	generate	Run1	generate/STIM_009.jpg
224.438	2.46	correct	generate	Run1	generate/STIM_009.jpg
230.897	1.608	correct	generate	Run1	generate/STIM_009.jpg
235.329	1.498	incorrect	generate	Run1	generate/STIM_009.jpg
238.994	2.82	correct	generate	Run1	generate/STIM_010.jpg
244.929	2.42	correct	generate	Run1	generate/STIM_010.jpg
250.141	1.106	correct	generate	Run1	generate/STIM_010.jpg
253.645	1.404	correct	generate	Run1	generate/STIM_010.jpg
258.851	2.255	correct	generate	Run1	generate/STIM_010.jpg
264.91	1.34	correct	generate	Run1	generate/STIM_011.jpg
269.076	1.271	correct	generate	Run1	generate/STIM_011.jpg
274.367	1.664	correct	generate	Run1	generate/STIM_011.jpg
279.392	2.39	correct	generate	Run1	generate/STIM_011.jpg
284.597	1.33	correct	generate	Run1	generate/STIM_011.jpg
289.443	1.986	correct	generate	Run1	generate/STIM_012.jpg
295.266	1.874	correct	generate	Run1	generate/STIM_012.jpg
301.124	1.639	correct	generate	Run1	generate/STIM_012.jpg
305.413	1.666	correct	generate	Run1	generate/STIM_012.jpg
309.808	1.536	correct	generate	Run1	generate/STIM_012.jpg
314.417	1.536	incorrect	generate	Run1	generate/STIM_013.jpg
320.022	1.333	correct	generate	Run1	generate/STIM_013.jpg
324.337	1.87	incorrect	generate	Run1	generate/STIM_013.jpg
328.745	2.3	correct	generate	Run1	generate/STIM_013.jpg
334.84	1.482	incorrect	generate	Run1	generate/STIM_013.jpg
339.402	1.814	correct	generate	Run1	generate/STIM_014.jpg
344.09	1.858	incorrect	generate	Run1	generate/STIM_014.jpg
349.635	1.299	correct	generate	Run1	generate/STIM_014.jpg
354.463	1.138	correct	generate	Run1	generate/STIM_014.jpg
359.121	1.67	correct	generate	Run1	generate/STIM_014.jpg
363.034	1.467	correct	generate	Run1	generate/STIM_015.jpg
366.753	2.361	incorrect	generate	Run1	generate/STIM_015.jpg
372.985	1.73	correct	generate	Run1	generate/STIM_015.jpg
378.074	2.068	correct	generate	Run1	generate/STIM_015.jpg
382.185	1.066	correct	generate	Run1	generate/STIM_015.jpg
386.348	2.817	correct	generate	Run1	generate/STIM_016.jpg
391.623	2.028	incorrect	generate	Run1	generate/STIM_016.jpg
396.814	2.21	incorrect	generate	Run1	generate/STIM_016.jpg
402.24	1.204	correct	generate	Run1	generate/STIM_016.jpg
406.157	2.285	incorrect	generate	Run1	generate/STIM_016.jpg
412.189	1.567	correct	generate	Run1	generate/STIM_017.jpg
416.749	2.132	correct	generate	Run1	generate/STIM_017.jpg
421.352	2.438	correct	generate	Run1	generate/STIM_017.jpg
426.054	1.818	correct	generate	Run1	generate/STIM_017.jpg
430.29	1.365	correct	generate	Run1	generate/STIM_017.jpg
434.15	2.56	correct	generate	Run1	generate/STIM_018.jpg
439.891	1.9	correct	generate	Run1	generate/STIM_018.jpg
444.777	1.701	correct	generate	Run1	generate/STIM_018.jpg
449.084	1.802	incorrect	generate	Run1	generate/STIM_018.jpg
453.048	1.45	correct	generate	Run1	generate/STIM_018.jpg
457.633	1.711	correct	generate	Run1	generate/STIM_019.jpg
461.806	2.666	correct	generate	Run1	generate/STIM_019.jpg
468.049	2.122	correct	generate	Run1	generate/STIM_019.jpg
473.029	1.032	correct	generate	Run1	generate/STIM_019.jpg
477.672	1.278	correct	generate	Run1	generate/STIM_019.jpg
482.365	1.323	correct	generate	Run1	generate/STIM_020.jpg
487.556	2.439	correct	generate	Run1	generate/STIM_020.jpg
493.414	2.322	correct	generate	Run1	generate/STIM_020.jpg
499.042	1.225	correct	generate	Run1	generate/STIM_020.jpg
503.162	1.887	correct	generate	Run1	generate/STIM_020.jpg
507.285	2.031	correct	generate	Run1	generate/STIM_021.jpg
511.407	1.524	correct	generate	Run1	generate/STIM_021.jpg
516.591	1.087	incorrect	generate	Run1	generate/STIM_021.jpg
520.331	2.218	correct	generate	Run1	generate/STIM_021.jpg
525.247	2.032	correct	generate	Run1	generate/STIM_021.jpg
529.732	1.597	correct	generate	Run1	generate/STIM_022.jpg
534.98	1.745	correct	generate	Run1	generate/STIM_022.jpg
539.131	2.107	incorrect	generate	Run1	generate/STIM_022.jpg
543.471	1.295	correct	generate	Run1	generate/STIM_022.jpg
548.704	1.351	correct	generate	Run1	generate/STIM_022.jpg
552.76	1.347	incorrect	generate	Run1	generate/STIM_023.jpg
556.567	1.541	incorrect	generate	Run1	generate/STIM_023.jpg
561.263	1.382	incorrect	generate	Run1	generate/STIM_023.jpg
564.764	1.541	incorrect	generate	Run1	generate/STIM_023.jpg
569.304	1.375	correct	generate	Run1	generate/STIM_023.jpg
572.878	2.561	correct	generate	Run1	generate/STIM_024.jpg
578.643	2.123	incorrect	generate	Run1	generate/STIM_024.jpg
583.178	1.653	correct	generate	Run1	generate/STIM_024.jpg
588.468	2.462	correct	generate	Run1	generate/STIM_024.jpg
593.897	1.805	correct	generate	Run1	generate/STIM_024.jpg
599.582	0.978	correct	repeat	Run1	repeat/STIM_000.jpg
603.464	0.932	correct	repeat	Run1	repeat/STIM_000.jpg
608.336	0.591	correct	repeat	Run1	repeat/STIM_000.jpg
612.094	0.676	correct	repeat	Run1	repeat/STIM_000.jpg
614.984	0.812	correct	repeat	Run1	repeat/STIM_000.jpg
618.933	0.508	correct	repeat	Run1	repeat/STIM_001.jpg
623.386	0.613	correct	repeat	Run1	repeat/STIM_001.jpg
627.345	0.886	correct	repeat	Run1	repeat/STIM_001.jpg
631.118	0.651	correct	repeat	Run1	repeat/STIM_001.jpg
634.336	0.639	correct	repeat	Run1	repeat/STIM_001.jpg
638.097	0.784	correct	repeat	Run1	repeat/STIM_002.jpg
641.341	0.745	correct	repeat	Run1	repeat/STIM_002.jpg
645.16	0.678	correct	repeat	Run1	repeat/STIM_002.jpg
648.631	0.857	correct	repeat	Run1	repeat/STIM_002.jpg
652.256	0.869	correct	repeat	Run1	repeat/STIM_002.jpg
655.386	0.552	correct	repeat	Run1	repeat/STIM_003.jpg
659.848	0.94	correct	repeat	Run1	repeat/STIM_003.jpg
663.929	0.828	correct	repeat	Run1	repeat/STIM_003.jpg
667.87	0.928	correct	repeat	Run1	repeat/STIM_003.jpg
672.085	0.552	correct	repeat	Run1	repeat/STIM_003.jpg
675.118	0.863	correct	repeat	Run1	repeat/STIM_004.jpg
679.87	0.655	incorrect	repeat	Run1	repeat/STIM_004.jpg
683.265	0.596	correct	repeat	Run1	repeat/STIM_004.jpg
687.483	0.925	correct	repeat	Run1	repeat/STIM_004.jpg
691.82	0.853	correct	repeat	Run1	repeat/STIM_004.jpg
695.115	0.605	correct	repeat	Run1	repeat/STIM_005.jpg
699.147	0.503	correct	repeat	Run1	repeat/STIM_005.jpg
702.613	0.572	correct	repeat	Run1	repeat/STIM_005.jpg
705.67	0.484	correct	repeat	Run1	repeat/STIM_005.jpg
709.456	0.781	correct	repeat	Run1	repeat/STIM_005.jpg
712.924	0.5	correct	repeat	Run1	repeat/STIM_006.jpg
716.621	0.612	correct	repeat	Run1	repeat/STIM_006.jpg
719.982	0.559	correct	repeat	Run1	repeat/STIM_006.jpg
723.003	0.563	correct	repeat	Run1	repeat/STIM_006.jpg
727.009	0.674	correct	repeat	Run1	repeat/STIM_006.jpg
730.255	0.746	correct	repeat	Run1	repeat/STIM_007.jpg
733.153	0.595	correct	repeat	Run1	repeat/STIM_007.jpg
737.348	0.818	correct	repeat	Run1	repeat/STIM_007.jpg
741.839	0.89	correct	repeat	Run1	repeat/STIM_007.jpg
746.318	0.863	correct	repeat	Run1	repeat/STIM_007.jpg
750.996	0.835	correct	repeat	Run1	repeat/STIM_008.jpg
755.468	0.898	correct	repeat	Run1	repeat/STIM_008.jpg
758.57	0.923	correct	repeat	Run1	repeat/STIM_008.jpg
763.165	0.718	correct	repeat	Run1	repeat/STIM_008.jpg
766.857	0.814	correct	repeat	Run1	repeat/STIM_008.jpg
770.497	0.76	correct	repeat	Run1	repeat/STIM_009.jpg
774.231	0.571	correct	repeat	Run1	repeat/STIM_009.jpg
777.12	0.935	correct	repeat	Run1	repeat/STIM_009.jpg
780.311	0.546	correct	repeat	Run1	repeat/STIM_009.jpg
783.673	0.722	correct	repeat	Run1	repeat/STIM_009.jpg
787.025	0.732	correct	repeat	Run1	repeat/STIM_010.jpg
791.575	0.503	incorrect	repeat	Run1	repeat/STIM_010.jpg
794.239	0.551	correct	repeat	Run1	repeat/STIM_010.jpg
798.773	0.546	correct	repeat	Run1	repeat/STIM_010.jpg
802.702	0.643	correct	repeat	Run1	repeat/STIM_010.jpg
807.269	0.799	correct	repeat	Run1	repeat/STIM_011.jpg
811.405	0.599	correct	repeat	Run1	repeat/STIM_011.jpg
814.495	0.52	correct	repeat	Run1	repeat/STIM_011.jpg
817.731	0.387	correct	repeat	Run1	repeat/STIM_011.jpg
820.976	0.915	incorrect	repeat	Run1	repeat/STIM_011.jpg
825.372	0.947	correct	repeat	Run1	repeat/STIM_012.jpg
828.955	0.552	correct	repeat	Run1	repeat/STIM_012.jpg
831.598	0.765	correct	repeat	Run1	repeat/STIM_012.jpg
834.495	0.509	correct	repeat	Run1	repeat/STIM_012.jpg
837.59	0.657	correct	repeat	Run1	repeat/STIM_012.jpg
841.416	0.71	correct	repeat	Run1	repeat/STIM_013.jpg
844.22	0.483	correct	repeat	Run1	repeat/STIM_013.jpg
846.921	0.873	correct	repeat	Run1	repeat/STIM_013.jpg
851.451	0.881	correct	repeat	Run1	repeat/STIM_013.jpg
855.492	0.698	correct	repeat	Run1	repeat/STIM_013.jpg
858.534	0.907	correct	repeat	Run1	repeat/STIM_014.jpg
861.921	0.54	correct	repeat	Run1	repeat/STIM_014.jpg
865.025	0.903	correct	repeat	Run1	repeat/STIM_014.jpg
869.587	0.577	correct	repeat	Run1	repeat/STIM_014.jpg
873.207	0.621	correct	repeat	Run1	repeat/STIM_014.jpg
876.334	1.142	correct	generate	Run2	generate/STIM_000.jpg
880.786	1.617	correct	generate	Run2	generate/STIM_000.jpg
886.184	1.674	correct	generate	Run2	generate/STIM_000.jpg
891.203	1.111	correct	generate	Run2	generate/STIM_000.jpg
895.442	1.671	correct	generate	Run2	generate/STIM_000.jpg
899.883	2.024	correct	generate	Run2	generate/STIM_001.jpg
905.412	1.497	incorrect	generate	Run2	generate/STIM_001.jpg
910.057	1.748	correct	generate	Run2	generate/STIM_001.jpg
914.094	1.956	correct	generate	Run2	generate/STIM_001.jpg
919.076	1.521	correct	generate	Run2	generate/STIM_001.jpg
924.034	2.137	correct	generate	Run2	generate/STIM_002.jpg
929.768	1.964	correct	generate	Run2	generate/STIM_002.jpg
934.414	1.688	correct	generate	Run2	generate/STIM_002.jpg
939.202	1.549	incorrect	generate	Run2	generate/STIM_002.jpg
944.585	1.152	correct	generate	Run2	generate/STIM_002.jpg
949.723	1.331	correct	generate	Run2	generate/STIM_003.jpg
954.034	1.904	correct	generate	Run2	generate/STIM_003.jpg
959.386	1.86	correct	generate	Run2	generate/STIM_003.jpg
963.773	1.869	correct	generate	Run2	generate/STIM_003.jpg
967.996	1.924	correct	generate	Run2	generate/STIM_003.jpg
973.81	1.488	correct	generate	Run2	generate/STIM_004.jpg
979.003	1.803	correct	generate	Run2	generate/STIM_004.jpg
983.849	0.924	correct	generate	Run2	generate/STIM_004.jpg
988.345	1.827	correct	generate	Run2	generate/STIM_004.jpg
992.861	1.787	correct	generate	Run2	generate/STIM_004.jpg
996.922	1.579	correct	generate	Run2	generate/STIM_005.jpg
1001.816	1.778	correct	generate	Run2	generate/STIM_005.jpg
1006.065	1.69	correct	generate	Run2	generate/STIM_005.jpg
1011.169	1.679	correct	generate	Run2	generate/STIM_005.jpg
1016.089	1.565	correct	generate	Run2	generate/STIM_005.jpg
1021.486	1.439	correct	generate	Run2	generate/STIM_006.jpg
1026.644	1.117	correct	generate	Run2	generate/STIM_006.jpg
1030.665	1.779	correct	generate	Run2	generate/STIM_006.jpg
1034.677	1.622	correct	generate	Run2	generate/STIM_006.jpg
1039.334	1.578	correct	generate	Run2	generate/STIM_006.jpg
1043.919	2.006	correct	generate	Run2	generate/STIM_007.jpg
1048.384	1.089	correct	generate	Run2	generate/STIM_007.jpg
1052.528	1.016	incorrect	generate	Run2	generate/STIM_007.jpg
1057.416	1.13	correct	generate	Run2	generate/STIM_007.jpg
1062.293	1.928	correct	generate	Run2	generate/STIM_007.jpg
1068.059	1.198	correct	generate	Run2	generate/STIM_008.jpg
1072.821	2.109	correct	generate	Run2	generate/STIM_008.jpg
1077.808	1.909	correct	generate	Run2	generate/STIM_008.jpg
1082.572	1.673	correct	generate	Run2	generate/STIM_008.jpg
1086.431	1.053	correct	generate	Run2	generate/STIM_008.jpg
1090.558	1.955	correct	generate	Run2	generate/STIM_009.jpg
1096.513	0.999	correct	generate	Run2	generate/STIM_009.jpg
1101.18	1.286	incorrect	generate	Run2	generate/STIM_009.jpg
1105.158	1.848	correct	generate	Run2	generate/STIM_009.jpg
1110.071	1.409	correct	generate	Run2	generate/STIM_009.jpg
1114.474	2.015	correct	generate	Run2	generate/STIM_010.jpg
1120.312	1.983	correct	generate	Run2	generate/STIM_010.jpg
1125.284	1.538	incorrect	generate	Run2	generate/STIM_010.jpg
1128.967	1.47	correct	generate	Run2	generate/STIM_010.jpg
1133.861	1.435	correct	generate	Run2	generate/STIM_010.jpg
1138.536	2.347	incorrect	generate	Run2	generate/STIM_011.jpg
1144.142	1.68	correct	generate	Run2	generate/STIM_011.jpg
1148.413	1.386	correct	generate	Run2	generate/STIM_011.jpg
1152.594	1.69	incorrect	generate	Run2	generate/STIM_011.jpg
1157.017	1.327	correct	generate	Run2	generate/STIM_011.jpg
1162.041	1.527	correct	generate	Run2	generate/STIM_012.jpg
1165.718	1.567	correct	generate	Run2	generate/STIM_012.jpg
1169.859	0.866	correct	generate	Run2	generate/STIM_012.jpg
1174.564	1.513	correct	generate	Run2	generate/STIM_012.jpg
1178.895	1.792	incorrect	generate	Run2	generate/STIM_012.jpg
1183.012	1.952	correct	generate	Run2	generate/STIM_013.jpg
1187.736	1.763	correct	generate	Run2	generate/STIM_013.jpg
1192.574	1.244	incorrect	generate	Run2	generate/STIM_013.jpg
1196.364	1.231	correct	generate	Run2	generate/STIM_013.jpg
1200.915	0.919	correct	generate	Run2	generate/STIM_013.jpg
1205.156	1.526	correct	generate	Run2	generate/STIM_014.jpg
1208.898	0.972	correct	generate	Run2	generate/STIM_014.jpg
1212.756	1.282	correct	generate	Run2	generate/STIM_014.jpg
1217.114	0.955	correct	generate	Run2	generate/STIM_014.jpg
1221.567	1.626	correct	generate	Run2	generate/STIM_014.jpg
1226.971	1.761	incorrect	generate	Run2	generate/STIM_015.jpg
1231.83	1.886	correct	generate	Run2	generate/STIM_015.jpg
1236.282	1.424	correct	generate	Run2	generate/STIM_015.jpg
1240.809	0.983	correct	generate	Run2	generate/STIM_015.jpg
1245.673	1.368	correct	generate	Run2	generate/STIM_015.jpg
1250.104	1.161	incorrect	generate	Run2	generate/STIM_016.jpg
1254.116	1.332	correct	generate	Run2	generate/STIM_016.jpg
1258.091	1.416	correct	generate	Run2	generate/STIM_016.jpg
1263.599	1.091	incorrect	generate	Run2	generate/STIM_016.jpg
1267.193	1.332	correct	generate	Run2	generate/STIM_016.jpg
1272.324	2.061	correct	generate	Run2	generate/STIM_017.jpg
1277.125	1.707	correct	generate	Run2	generate/STIM_017.jpg
1280.886	1.156	correct	generate	Run2	generate/STIM_017.jpg
1286.056	1.04	correct	generate	Run2	generate/STIM_017.jpg
1289.73	1.623	correct	generate	Run2	generate/STIM_017.jpg
1294.771	1.847	incorrect	generate	Run2	generate/STIM_018.jpg
1299.475	1.878	correct	generate	Run2	generate/STIM_018.jpg
1303.462	2.075	correct	generate	Run2	generate/STIM_018.jpg
1309.572	1.152	incorrect	generate	Run2	generate/STIM_018.jpg
1314.095	1.104	correct	generate	Run2	generate/STIM_018.jpg
1317.874	1.672	correct	generate	Run2	generate/STIM_019.jpg
1322.045	1.531	correct	generate	Run2	generate/STIM_019.jpg
1326.477	2.08	correct	generate	Run2	generate/STIM_019.jpg
1332.156	0.814	correct	generate	Run2	generate/STIM_019.jpg
1335.78	1.365	correct	generate	Run2	generate/STIM_019.jpg
1340.076	1.376	correct	generate	Run2	generate/STIM_020.jpg
1343.974	2.059	correct	generate	Run2	generate/STIM_020.jpg
1349.28	1.113	incorrect	generate	Run2	generate/STIM_020.jpg
1354.01	1.114	incorrect	generate	Run2	generate/STIM_020.jpg
1357.555	0.825	correct	generate	Run2	generate/STIM_020.jpg
1362.207	2.251	correct	generate	Run2	generate/STIM_021.jpg
1368.494	2.351	correct	generate	Run2	generate/STIM_021.jpg
1373.195	1.109	correct	generate	Run2	generate/STIM_021.jpg
1376.962	1.695	correct	generate	Run2	generate/STIM_021.jpg
1381.024	1.735	correct	generate	Run2	generate/STIM_021.jpg
1385.973	1.401	correct	generate	Run2	generate/STIM_022.jpg
1389.998	1.112	correct	generate	Run2	generate/STIM_022.jpg
1394.989	1.685	correct	generate	Run2	generate/STIM_022.jpg
1400.143	1.766	correct	generate	Run2	generate/STIM_022.jpg
1404.136	1.1	incorrect	generate	Run2	generate/STIM_022.jpg
1407.563	1.701	correct	generate	Run2	generate/STIM_023.jpg
1412.023	1.11	correct	generate	Run2	generate/STIM_023.jpg
1416.268	0.991	correct	generate	Run2	generate/STIM_023.jpg
1420.548	1.13	correct	generate	Run2	generate/STIM_023.jpg
1425.445	2.009	correct	generate	Run2	generate/STIM_023.jpg
1429.677	2.304	correct	generate	Run2	generate/STIM_024.jpg
1434.527	1.471	correct	generate	Run2	generate/STIM_024.jpg
1439.502	1.506	correct	generate	Run2	generate/STIM_024.jpg
1444.394	0.966	correct	generate	Run2	generate/STIM_024.jpg
1448.694	1.698	incorrect	generate	Run2	generate/STIM_024.jpg
1454.128	0.517	correct	repeat	Run2	repeat/STIM_000.jpg
1456.854	0.808	correct	repeat	Run2	repeat/STIM_000.jpg
1460.62	0.832	correct	repeat	Run2	repeat/STIM_000.jpg
1465.303	0.804	correct	repeat	Run2	repeat/STIM_000.jpg
1469.961	0.788	correct	repeat	Run2	repeat/STIM_000.jpg
1473.6	0.852	correct	repeat	Run2	repeat/STIM_001.jpg
1477.038	1.002	correct	repeat	Run2	repeat/STIM_001.jpg
1481.939	0.817	correct	repeat	Run2	repeat/STIM_001.jpg
1484.813	0.944	correct	repeat	Run2	repeat/STIM_001.jpg
1488.182	0.582	correct	repeat	Run2	repeat/STIM_001.jpg
1490.962	0.486	correct	repeat	Run2	repeat/STIM_002.jpg
1493.974	0.946	correct	repeat	Run2	repeat/STIM_002.jpg
1497.739	0.494	correct	repeat	Run2	repeat/STIM_002.jpg
1501.731	0.553	correct	repeat	Run2	repeat/STIM_002.jpg
1505.426	0.854	correct	repeat	Run2	repeat/STIM_002.jpg
1508.722	0.712	correct	repeat	Run2	repeat/STIM_003.jpg
1512.732	0.826	correct	repeat	Run2	repeat/STIM_003.jpg
1516.228	0.648	incorrect	repeat	Run2	repeat/STIM_003.jpg
1520.526	0.494	correct	repeat	Run2	repeat/STIM_003.jpg
1523.652	0.671	incorrect	repeat	Run2	repeat/STIM_003.jpg
1527.586	0.47	correct	repeat	Run2	repeat/STIM_004.jpg
1530.366	0.785	correct	repeat	Run2	repeat/STIM_004.jpg
1534.064	0.554	correct	repeat	Run2	repeat/STIM_004.jpg
1537.616	0.813	correct	repeat	Run2	repeat/STIM_004.jpg
1540.636	0.781	correct	repeat	Run2	repeat/STIM_004.jpg
1543.615	0.77	correct	repeat	Run2	repeat/STIM_005.jpg
1546.567	0.513	correct	repeat	Run2	repeat/STIM_005.jpg
1549.158	0.634	correct	repeat	Run2	repeat/STIM_005.jpg
1552.555	0.777	correct	repeat	Run2	repeat/STIM_005.jpg
1557.211	0.497	correct	repeat	Run2	repeat/STIM_005.jpg
1560.806	0.539	correct	repeat	Run2	repeat/STIM_006.jpg
1564.998	0.637	correct	repeat	Run2	repeat/STIM_006.jpg
1569.242	0.698	correct	repeat	Run2	repeat/STIM_006.jpg
1572.455	0.844	correct	repeat	Run2	repeat/STIM_006.jpg
1575.998	0.536	correct	repeat	Run2	repeat/STIM_006.jpg
1578.849	0.749	correct	repeat	Run2	repeat/STIM_007.jpg
1582.763	0.767	correct	repeat	Run2	repeat/STIM_007.jpg
1587.172	0.648	correct	repeat	Run2	repeat/STIM_007.jpg
1590.347	0.938	correct	repeat	Run2	repeat/STIM_007.jpg
1595.177	0.754	correct	repeat	Run2	repeat/STIM_007.jpg
1599.958	0.743	correct	repeat	Run2	repeat/STIM_008.jpg
1604.136	1.055	correct	repeat	Run2	repeat/STIM_008.jpg
1608.5	0.95	correct	repeat	Run2	repeat/STIM_008.jpg
1612.518	0.832	correct	repeat	Run2	repeat/STIM_008.jpg
1616.999	0.373	correct	repeat	Run2	repeat/STIM_008.jpg
1620.834	0.475	correct	repeat	Run2	repeat/STIM_009.jpg
1623.865	0.885	correct	repeat	Run2	repeat/STIM_009.jpg
1628.522	0.611	correct	repeat	Run2	repeat/STIM_009.jpg
1631.479	0.84	incorrect	repeat	Run2	repeat/STIM_009.jpg
1635.744	0.789	correct	repeat	Run2	repeat/STIM_009.jpg
1638.822	0.698	correct	repeat	Run2	repeat/STIM_010.jpg
1642.333	0.817	correct	repeat	Run2	repeat/STIM_010.jpg
1645.22	1.011	correct	repeat	Run2	repeat/STIM_010.jpg
1648.471	0.465	correct	repeat	Run2	repeat/STIM_010.jpg
1652.502	0.846	correct	repeat	Run2	repeat/STIM_010.jpg
1655.678	0.736	correct	repeat	Run2	repeat/STIM_011.jpg
1659.185	0.731	correct	repeat	Run2	repeat/STIM_011.jpg
1662.343	0.691	incorrect	repeat	Run2	repeat/STIM_011.jpg
1666.587	0.742	correct	repeat	Run2	repeat/STIM_011.jpg
1669.453	0.607	correct	repeat	Run2	repeat/STIM_011.jpg
1673.683	0.76	correct	repeat	Run2	repeat/STIM_012.jpg
1677.392	0.819	correct	repeat	Run2	repeat/STIM_012.jpg
1680.437	0.644	correct	repeat	Run2	repeat/STIM_012.jpg
1684.926	0.77	correct	repeat	Run2	repeat/STIM_012.jpg
1687.899	0.939	correct	repeat	Run2	repeat/STIM_012.jpg
1692.217	0.456	correct	repeat	Run2	repeat/STIM_013.jpg
1694.962	0.593	correct	repeat	Run2	repeat/STIM_013.jpg
1699.061	0.542	correct	repeat	Run2	repeat/STIM_013.jpg
1703.205	0.891	correct	repeat	Run2	repeat/STIM_013.jpg
1707.419	0.772	correct	repeat	Run2	repeat/STIM_013.jpg
1710.454	0.556	correct	repeat	Run2	repeat/STIM_014.jpg
1714.977	0.782	incorrect	repeat	Run2	repeat/STIM_014.jpg
1719.624	0.648	correct	repeat	Run2	repeat/STIM_014.jpg
1723.043	0.568	correct	repeat	Run2	repeat/STIM_014.jpg
1726.06	0.493	correct	repeat	Run2	repeat/STIM_014.jpg
1728.82	1.046	correct	generate	Run3	generate/STIM_000.jpg
1732.271	1.574	correct	generate	Run3	generate/STIM_000.jpg
1736.091	1.654	correct	generate	Run3	generate/STIM_000.jpg
1740.639	0.884	correct	generate	Run3	generate/STIM_000.jpg
1743.651	1.879	correct	generate	Run3	generate/STIM_000.jpg
1749.246	1.123	correct	generate	Run3	generate/STIM_001.jpg
1753.237	1.818	incorrect	generate	Run3	generate/STIM_001.jpg
1758.669	1.001	correct	generate	Run3	generate/STIM_001.jpg
1762.78	1.717	correct	generate	Run3	generate/STIM_001.jpg
1768.54	1.934	correct	generate	Run3	generate/STIM_001.jpg
1774.517	1.574	incorrect	generate	Run3	generate/STIM_002.jpg
1778.5	0.942	correct	generate	Run3	generate/STIM_002.jpg
1782.651	1.201	correct	generate	Run3	generate/STIM_002.jpg
1786.618	1.895	correct	generate	Run3	generate/STIM_002.jpg
1792.43	1.555	correct	generate	Run3	generate/STIM_002.jpg
1797.69	1.676	correct	generate	Run3	generate/STIM_003.jpg
1801.93	0.819	correct	generate	Run3	generate/STIM_003.jpg
1805.25	1.408	correct	generate	Run3	generate/STIM_003.jpg
1808.896	1.853	correct	generate	Run3	generate/STIM_003.jpg
1814.666	0.952	correct	generate	Run3	generate/STIM_003.jpg
1819.127	1.602	incorrect	generate	Run3	generate/STIM_004.jpg
1824.749	1.509	correct	generate	Run3	generate/STIM_004.jpg
1829.303	1.839	correct	generate	Run3	generate/STIM_004.jpg
1835.161	1.416	correct	generate	Run3	generate/STIM_004.jpg
1840.15	1.159	correct	generate	Run3	generate/STIM_004.jpg
1844.83	1.812	correct	generate	Run3	generate/STIM_005.jpg
1849.928	1.416	correct	generate	Run3	generate/STIM_005.jpg
1854.344	1.648	correct	generate	Run3	generate/STIM_005.jpg
1858.267	1.536	correct	generate	Run3	generate/STIM_005.jpg
1863.517	1.502	correct	generate	Run3	generate/STIM_005.jpg
1867.67	1.093	correct	generate	Run3	generate/STIM_006.jpg
1872.747	0.851	correct	generate	Run3	generate/STIM_006.jpg
1877.164	1.896	correct	generate	Run3	generate/STIM_006.jpg
1882.38	1.945	correct	generate	Run3	generate/STIM_006.jpg
1887.317	1.364	correct	generate	Run3	generate/STIM_006.jpg
1891.784	1.206	correct	generate	Run3	generate/STIM_007.jpg
1896.474	1.658	correct	generate	Run3	generate/STIM_007.jpg
1900.955	1.274	correct	generate	Run3	generate/STIM_007.jpg
1904.633	1.766	correct	generate	Run3	generate/STIM_007.jpg
1908.679	0.964	correct	generate	Run3	generate/STIM_007.jpg
1912.989	1.05	correct	generate	Run3	generate/STIM_008.jpg
1917.196	1.722	correct	generate	Run3	generate/STIM_008.jpg
1922.533	1.552	correct	generate	Run3	generate/STIM_008.jpg
1926.635	1.182	correct	generate	Run3	generate/STIM_008.jpg
1930.066	1.792	correct	generate	Run3	generate/STIM_008.jpg
1934.458	1.42	correct	generate	Run3	generate/STIM_009.jpg
1938.053	0.84	correct	generate	Run3	generate/STIM_009.jpg
1941.367	0.795	correct	generate	Run3	generate/STIM_009.jpg
1946.2	1.62	correct	generate	Run3	generate/STIM_009.jpg
1951.919	1.701	correct	generate	Run3	generate/STIM_009.jpg
1956.64	1.334	correct	generate	Run3	generate/STIM_010.jpg
1960.523	1.006	incorrect	generate	Run3	generate/STIM_010.jpg
1964.898	1.039	correct	generate	Run3	generate/STIM_010.jpg
1968.336	1.319	correct	generate	Run3	generate/STIM_010.jpg
1973.48	1.815	correct	generate	Run3	generate/STIM_010.jpg
1979.09	1.371	correct	generate	Run3	generate/STIM_011.jpg
1983.458	2.011	incorrect	generate	Run3	generate/STIM_011.jpg
1989.378	0.959	correct	generate	Run3	generate/STIM_011.jpg
1993.41	0.913	correct	generate	Run3	generate/STIM_011.jpg
1997.325	1.086	correct	generate	Run3	generate/STIM_011.jpg
2001.056	1.739	correct	generate	Run3	generate/STIM_012.jpg
2005.768	1.355	correct	generate	Run3	generate/STIM_012.jpg
2009.673	1.949	correct	generate	Run3	generate/STIM_012.jpg
2014.083	1.682	correct	generate	Run3	generate/STIM_012.jpg
2018.79	0.949	correct	generate	Run3	generate/STIM_012.jpg
2021.911	1.075	correct	generate	Run3	generate/STIM_013.jpg
2025.785	0.841	correct	generate	Run3	generate/STIM_013.jpg
2028.74	1.008	correct	generate	Run3	generate/STIM_013.jpg
2032.351	1.22	correct	generate	Run3	generate/STIM_013.jpg
2036.657	1.371	correct	generate	Run3	generate/STIM_013.jpg
2040.124	1.734	correct	generate	Run3	generate/STIM_014.jpg
2045.148	1.16	correct	generate	Run3	generate/STIM_014.jpg
2049.6	0.966	correct	generate	Run3	generate/STIM_014.jpg
2052.953	0.924	incorrect	generate	Run3	generate/STIM_014.jpg
2056.347	1.181	correct	generate	Run3	generate/STIM_014.jpg
2060.088	0.99	correct	generate	Run3	generate/STIM_015.jpg
2063.808	1.133	correct	generate	Run3	generate/STIM_015.jpg
2067.759	1.902	correct	generate	Run3	generate/STIM_015.jpg
2072.352	1.202	correct	generate	Run3	generate/STIM_015.jpg
2076.783	1.59	correct	generate	Run3	generate/STIM_015.jpg
2082.201	1.526	correct	generate	Run3	generate/STIM_016.jpg
2086.47	0.896	correct	generate	Run3	generate/STIM_016.jpg
2090.105	1.918	correct	generate	Run3	generate/STIM_016.jpg
2094.443	1.279	correct	generate	Run3	generate/STIM_016.jpg
2099.448	1.519	correct	generate	Run3	generate/STIM_016.jpg
2104.041	1.514	correct	generate	Run3	generate/STIM_017.jpg
2108.839	1.478	correct	generate	Run3	generate/STIM_017.jpg
2112.646	1.042	correct	generate	Run3	generate/STIM_017.jpg
2116.12	1.275	correct	generate	Run3	generate/STIM_017.jpg
2120.383	1.848	correct	generate	Run3	generate/STIM_017.jpg
2125.879	2.079	incorrect	generate	Run3	generate/STIM_018.jpg
2130.909	1.185	correct	generate	Run3	generate/STIM_018.jpg
2134.337	1.935	correct	generate	Run3	generate/STIM_018.jpg
2139.799	2.02	correct	generate	Run3	generate/STIM_018.jpg
2144.46	1.458	correct	generate	Run3	generate/STIM_018.jpg
2148.371	1.716	correct	generate	Run3	generate/STIM_019.jpg
2152.632	1.474	correct	generate	Run3	generate/STIM_019.jpg
2157.85	1.686	correct	generate	Run3	generate/STIM_019.jpg
2162.103	1.742	correct	generate	Run3	generate/STIM_019.jpg
2166.331	1.038	incorrect	generate	Run3	generate/STIM_019.jpg
2169.647	1.875	incorrect	generate	Run3	generate/STIM_020.jpg
2174.394	1.384	correct	generate	Run3	generate/STIM_020.jpg
2178.471	1.43	correct	generate	Run3	generate/STIM_020.jpg
2182.008	1.591	correct	generate	Run3	generate/STIM_020.jpg
2186.407	1.879	correct	generate	Run3	generate/STIM_020.jpg
2191.612	0.957	correct	generate	Run3	generate/STIM_021.jpg
2196.082	0.78	correct	generate	Run3	generate/STIM_021.jpg
2200.176	1.559	correct	generate	Run3	generate/STIM_021.jpg
2204.589	1.764	correct	generate	Run3	generate/STIM_021.jpg
2208.867	1.886	correct	generate	Run3	generate/STIM_021.jpg
2213.608	1.845	correct	generate	Run3	generate/STIM_022.jpg
2218.916	0.771	correct	generate	Run3	generate/STIM_022.jpg
2222.614	1.198	correct	generate	Run3	generate/STIM_022.jpg
2226.991	0.925	correct	generate	Run3	generate/STIM_022.jpg
2230.516	1.014	correct	generate	Run3	generate/STIM_022.jpg
2235.06	1.332	correct	generate	Run3	generate/STIM_023.jpg
2240.264	1.717	correct	generate	Run3	generate/STIM_023.jpg
2245.672	1.841	correct	generate	Run3	generate/STIM_023.jpg
2249.743	1.066	correct	generate	Run3	generate/STIM_023.jpg
2253.361	1.563	correct	generate	Run3	generate/STIM_023.jpg
2257.562	1.136	correct	generate	Run3	generate/STIM_024.jpg
2261.674	1.053	correct	generate	Run3	generate/STIM_024.jpg
2264.888	1.397	incorrect	generate	Run3	generate/STIM_024.jpg
2268.599	1.457	correct	generate	Run3	generate/STIM_024.jpg
2272.325	1.212	correct	generate	Run3	generate/STIM_024.jpg
2277.26	0.637	correct	repeat	Run3	repeat/STIM_000.jpg
2281.745	0.76	correct	repeat	Run3	repeat/STIM_000.jpg
2285.062	0.59	correct	repeat	Run3	repeat/STIM_000.jpg
2288.182	0.759	correct	repeat	Run3	repeat/STIM_000.jpg
2292.198	0.803	correct	repeat	Run3	repeat/STIM_000.jpg
2296.51	0.596	correct	repeat	Run3	repeat/STIM_001.jpg
2300.223	0.683	correct	repeat	Run3	repeat/STIM_001.jpg
2304.156	0.54	correct	repeat	Run3	repeat/STIM_001.jpg
2306.917	0.62	correct	repeat	Run3	repeat/STIM_001.jpg
2309.576	0.479	correct	repeat	Run3	repeat/STIM_001.jpg
2312.348	0.916	correct	repeat	Run3	repeat/STIM_002.jpg
2317.095	0.7	correct	repeat	Run3	repeat/STIM_002.jpg
2321.447	0.686	correct	repeat	Run3	repeat/STIM_002.jpg
2324.493	0.766	incorrect	repeat	Run3	repeat/STIM_002.jpg
2328.469	0.902	correct	repeat	Run3	repeat/STIM_002.jpg
2333.399	0.903	correct	repeat	Run3	repeat/STIM_003.jpg
2336.538	0.512	incorrect	repeat	Run3	repeat/STIM_003.jpg
2340.136	0.534	correct	repeat	Run3	repeat/STIM_003.jpg
2344.578	0.742	correct	repeat	Run3	repeat/STIM_003.jpg
2347.713	0.949	correct	repeat	Run3	repeat/STIM_003.jpg
2352.07	0.795	correct	repeat	Run3	repeat/STIM_004.jpg
2356.75	0.593	correct	repeat	Run3	repeat/STIM_004.jpg
2359.995	0.777	correct	repeat	Run3	repeat/STIM_004.jpg
2363.38	0.6	correct	repeat	Run3	repeat/STIM_004.jpg
2367.639	0.85	correct	repeat	Run3	repeat/STIM_004.jpg
2370.616	0.691	correct	repeat	Run3	repeat/STIM_005.jpg
2374.448	0.602	correct	repeat	Run3	repeat/STIM_005.jpg
2377.429	0.925	correct	repeat	Run3	repeat/STIM_005.jpg
2381.068	0.49	correct	repeat	Run3	repeat/STIM_005.jpg
2384.243	0.536	correct	repeat	Run3	repeat/STIM_005.jpg
2386.939	0.835	correct	repeat	Run3	repeat/STIM_006.jpg
2389.951	0.906	correct	repeat	Run3	repeat/STIM_006.jpg
2393.586	0.676	correct	repeat	Run3	repeat/STIM_006.jpg
2396.651	0.627	incorrect	repeat	Run3	repeat/STIM_006.jpg
2400.566	0.646	correct	repeat	Run3	repeat/STIM_006.jpg
2403.754	0.627	correct	repeat	Run3	repeat/STIM_007.jpg
2407.246	0.825	correct	repeat	Run3	repeat/STIM_007.jpg
2411.747	0.639	correct	repeat	Run3	repeat/STIM_007.jpg
2415.98	0.542	correct	repeat	Run3	repeat/STIM_007.jpg
2419.54	0.642	correct	repeat	Run3	repeat/STIM_007.jpg
2422.412	0.52	correct	repeat	Run3	repeat/STIM_008.jpg
2425.267	0.723	correct	repeat	Run3	repeat/STIM_008.jpg
2428.276	0.805	incorrect	repeat	Run3	repeat/STIM_008.jpg
2431.296	0.604	correct	repeat	Run3	repeat/STIM_008.jpg
2435.267	0.995	correct	repeat	Run3	repeat/STIM_008.jpg
2438.525	0.68	correct	repeat	Run3	repeat/STIM_009.jpg
2441.312	0.772	correct	repeat	Run3	repeat/STIM_009.jpg
2444.664	0.581	correct	repeat	Run3	repeat/STIM_009.jpg
2447.48	0.721	correct	repeat	Run3	repeat/STIM_009.jpg
2452.081	0.839	incorrect	repeat	Run3	repeat/STIM_009.jpg
2456.113	0.846	correct	repeat	Run3	repeat/STIM_010.jpg
2460.148	0.718	correct	repeat	Run3	repeat/STIM_010.jpg
2464.488	0.886	correct	repeat	Run3	repeat/STIM_010.jpg
2469.253	0.675	correct	repeat	Run3	repeat/STIM_010.jpg
2472.566	0.555	correct	repeat	Run3	repeat/STIM_010.jpg
2475.723	0.935	correct	repeat	Run3	repeat/STIM_011.jpg
2478.922	0.711	correct	repeat	Run3	repeat/STIM_011.jpg
2482.757	0.83	correct	repeat	Run3	repeat/STIM_011.jpg
2486.439	0.835	correct	repeat	Run3	repeat/STIM_011.jpg
2490.44	0.469	correct	repeat	Run3	repeat/STIM_011.jpg
2494.907	0.739	incorrect	repeat	Run3	repeat/STIM_012.jpg
2498.188	0.59	correct	repeat	Run3	repeat/STIM_012.jpg
2502.133	0.916	correct	repeat	Run3	repeat/STIM_012.jpg
2505.366	0.752	correct	repeat	Run3	repeat/STIM_012.jpg
2508.415	0.791	correct	repeat	Run3	repeat/STIM_012.jpg
2511.277	0.527	correct	repeat	Run3	repeat/STIM_013.jpg
2515.223	0.933	correct	repeat	Run3	repeat/STIM_013.jpg
2519.066	0.502	correct	repeat	Run3	repeat/STIM_013.jpg
2523.214	0.582	correct	repeat	Run3	repeat/STIM_013.jpg
2527.799	0.638	correct	repeat	Run3	repeat/STIM_013.jpg
2531.621	0.672	correct	repeat	Run3	repeat/STIM_014.jpg
2534.794	0.716	correct	repeat	Run3	repeat/STIM_014.jpg
2538.293	0.843	correct	repeat	Run3	repeat/STIM_014.jpg
2541.394	0.581	correct	repeat	Run3	repeat/STIM_014.jpg
2544.568	0.862	correct	repeat	Run3	repeat/STIM_014.jpg
2547.488	1.667	correct	generate	Run4	generate/STIM_000.jpg
2552.076	1.489	correct	generate	Run4	generate/STIM_000.jpg
2556.019	0.98	correct	generate	Run4	generate/STIM_000.jpg
2559.498	1.791	correct	generate	Run4	generate/STIM_000.jpg
2563.737	1.031	correct	generate	Run4	generate/STIM_000.jpg
2567.223	1.277	correct	generate	Run4	generate/STIM_001.jpg
2571.361	1.277	correct	generate	Run4	generate/STIM_001.jpg
2575.953	1.841	incorrect	generate	Run4	generate/STIM_001.jpg
2581.009	1.566	correct	generate	Run4	generate/STIM_001.jpg
2585.245	1.251	correct	generate	Run4	generate/STIM_001.jpg
2589.769	1.584	correct	generate	Run4	generate/STIM_002.jpg
2595.348	1.011	correct	generate	Run4	generate/STIM_002.jpg
2598.53	1.772	correct	generate	Run4	generate/STIM_002.jpg
2603.437	1.472	correct	generate	Run4	generate/STIM_002.jpg
2608.725	1.232	correct	generate	Run4	generate/STIM_002.jpg
2612.735	1.239	correct	generate	Run4	generate/STIM_003.jpg
2617.42	1.803	correct	generate	Run4	generate/STIM_003.jpg
2623.052	1.914	correct	generate	Run4	generate/STIM_003.jpg
2628.504	1.889	correct	generate	Run4	generate/STIM_003.jpg
2633.044	1.544	correct	generate	Run4	generate/STIM_003.jpg
2637.618	1.195	correct	generate	Run4	generate/STIM_004.jpg
2641.434	0.902	correct	generate	Run4	generate/STIM_004.jpg
2646.222	1.243	incorrect	generate	Run4	generate/STIM_004.jpg
2651.352	1.972	correct	generate	Run4	generate/STIM_004.jpg
2656.622	1.329	correct	generate	Run4	generate/STIM_004.jpg
2661.202	1.935	correct	generate	Run4	generate/STIM_005.jpg
2666.062	1.279	correct	generate	Run4	generate/STIM_005.jpg
2670.662	1.489	correct	generate	Run4	generate/STIM_005.jpg
2675.166	1.321	correct	generate	Run4	generate/STIM_005.jpg
2679.976	1.303	correct	generate	Run4	generate/STIM_005.jpg
2685.084	1.821	correct	generate	Run4	generate/STIM_006.jpg
2689.919	1.007	correct	generate	Run4	generate/STIM_006.jpg
2694.094	1.548	correct	generate	Run4	generate/STIM_006.jpg
2697.779	1.947	correct	generate	Run4	generate/STIM_006.jpg
2703.587	1.238	correct	generate	Run4	generate/STIM_006.jpg
2708.051	1.718	correct	generate	Run4	generate/STIM_007.jpg
2713.139	1.812	correct	generate	Run4	generate/STIM_007.jpg
2717.194	0.861	correct	generate	Run4	generate/STIM_007.jpg
2722.024	1.954	correct	generate	Run4	generate/STIM_007.jpg
2727.247	1.307	correct	generate	Run4	generate/STIM_007.jpg
2732.261	1.222	correct	generate	Run4	generate/STIM_008.jpg
2736.365	1.548	correct	generate	Run4	generate/STIM_008.jpg
2741.135	0.948	correct	generate	Run4	generate/STIM_008.jpg
2745.595	1.292	correct	generate	Run4	generate/STIM_008.jpg
2750.602	1.346	correct	generate	Run4	generate/STIM_008.jpg
2754.646	0.884	correct	generate	Run4	generate/STIM_009.jpg
2759.095	2.013	correct	generate	Run4	generate/STIM_009.jpg
2764.227	1.904	correct	generate	Run4	generate/STIM_009.jpg
2769.147	1.544	correct	generate	Run4	generate/STIM_009.jpg
2773.638	1.174	correct	generate	Run4	generate/STIM_009.jpg
2777.625	1.829	incorrect	generate	Run4	generate/STIM_010.jpg
2782.949	1.238	correct	generate	Run4	generate/STIM_010.jpg
2787.507	1.48	correct	generate	Run4	generate/STIM_010.jpg
2791.279	1.525	correct	generate	Run4	generate/STIM_010.jpg
2796.227	1.387	correct	generate	Run4	generate/STIM_010.jpg
2800.253	1.193	correct	generate	Run4	generate/STIM_011.jpg
2804.861	1.642	correct	generate	Run4	generate/STIM_011.jpg
2810.447	1.647	correct	generate	Run4	generate/STIM_011.jpg
2814.299	1.698	correct	generate	Run4	generate/STIM_011.jpg
2819.592	1.849	correct	generate	Run4	generate/STIM_011.jpg
2823.554	1.326	correct	generate	Run4	generate/STIM_012.jpg
2827.21	1.721	correct	generate	Run4	generate/STIM_012.jpg
2831.822	1.587	correct	generate	Run4	generate/STIM_012.jpg
2836.625	1.879	correct	generate	Run4	generate/STIM_012.jpg
2841.12	0.828	correct	generate	Run4	generate/STIM_012.jpg
2845.957	1.788	correct	generate	Run4	generate/STIM_013.jpg
2851.592	1.882	correct	generate	Run4	generate/STIM_013.jpg
2857.306	1.968	correct	generate	Run4	generate/STIM_013.jpg
2862.421	1.853	correct	generate	Run4	generate/STIM_013.jpg
2867.022	1.135	correct	generate	Run4	generate/STIM_013.jpg
2871.634	1.112	correct	generate	Run4	generate/STIM_014.jpg
2876.627	1.162	correct	generate	Run4	generate/STIM_014.jpg
2881.009	1.138	correct	generate	Run4	generate/STIM_014.jpg
2884.691	1.551	correct	generate	Run4	generate/STIM_014.jpg
2889.65	0.851	correct	generate	Run4	generate/STIM_014.jpg
2893.843	1.575	correct	generate	Run4	generate/STIM_015.jpg
2899.216	1.214	correct	generate	Run4	generate/STIM_015.jpg
2902.546	1.059	correct	generate	Run4	generate/STIM_015.jpg
2906.555	1.574	correct	generate	Run4	generate/STIM_015.jpg
2910.522	1.633	correct	generate	Run4	generate/STIM_015.jpg
2914.628	1.515	correct	generate	Run4	generate/STIM_016.jpg
2918.638	1.084	correct	generate	Run4	generate/STIM_016.jpg
2923.627	1.907	correct	generate	Run4	generate/STIM_016.jpg
2929.432	1.348	correct	generate	Run4	generate/STIM_016.jpg
2934.194	1.661	correct	generate	Run4	generate/STIM_016.jpg
2938.497	1.176	correct	generate	Run4	generate/STIM_017.jpg
2941.754	0.918	correct	generate	Run4	generate/STIM_017.jpg
2944.802	1.933	correct	generate	Run4	generate/STIM_017.jpg
2948.856	1.174	correct	generate	Run4	generate/STIM_017.jpg
2953.311	0.899	correct	generate	Run4	generate/STIM_017.jpg
2957.093	0.947	correct	generate	Run4	generate/STIM_018.jpg
2961.2	0.793	correct	generate	Run4	generate/STIM_018.jpg
2965.415	1.374	correct	generate	Run4	generate/STIM_018.jpg
2970.538	1.832	correct	generate	Run4	generate/STIM_018.jpg
2974.844	0.937	correct	generate	Run4	generate/STIM_018.jpg
2978.274	1.262	correct	generate	Run4	generate/STIM_019.jpg
2982.433	1.577	correct	generate	Run4	generate/STIM_019.jpg
2986.924	1.502	correct	generate	Run4	generate/STIM_019.jpg
2991.052	1.739	correct	generate	Run4	generate/STIM_019.jpg
2996.489	2.005	correct	generate	Run4	generate/STIM_019.jpg
3001.809	1.376	correct	generate	Run4	generate/STIM_020.jpg
3006.655	1.338	correct	generate	Run4	generate/STIM_020.jpg
3011.017	1.015	correct	generate	Run4	generate/STIM_020.jpg
3015.083	1.671	correct	generate	Run4	generate/STIM_020.jpg
3019.273	1.478	correct	generate	Run4	generate/STIM_020.jpg
3024.418	1.505	correct	generate	Run4	generate/STIM_021.jpg
3029.244	1.433	correct	generate	Run4	generate/STIM_021.jpg
3034.254	1.052	correct	generate	Run4	generate/STIM_021.jpg
3038.735	1.043	correct	generate	Run4	generate/STIM_021.jpg
3042.544	1.987	correct	generate	Run4	generate/STIM_021.jpg
3048.548	1.881	correct	generate	Run4	generate/STIM_022.jpg
3053.91	1.851	correct	generate	Run4	generate/STIM_022.jpg
3058.849	1.406	correct	generate	Run4	generate/STIM_022.jpg
3064.159	1.03	correct	generate	Run4	generate/STIM_022.jpg
3068.282	1.83	correct	generate	Run4	generate/STIM_022.jpg
3073.853	0.779	correct	generate	Run4	generate/STIM_023.jpg
3078.387	1.832	correct	generate	Run4	generate/STIM_023.jpg
3083.64	1.29	correct	generate	Run4	generate/STIM_023.jpg
3087.072	1.506	correct	generate	Run4	generate/STIM_023.jpg
3092.489	0.918	correct	generate	Run4	generate/STIM_023.jpg
3096.711	1.044	correct	generate	Run4	generate/STIM_024.jpg
3100.098	0.95	correct	generate	Run4	generate/STIM_024.jpg
3104.257	1.322	correct	generate	Run4	generate/STIM_024.jpg
3107.817	0.829	correct	generate	Run4	generate/STIM_024.jpg
3112.599	1.871	correct	generate	Run4	generate/STIM_024.jpg
3116.871	0.758	correct	repeat	Run4	repeat/STIM_000.jpg
3119.976	0.945	correct	repeat	Run4	repeat/STIM_000.jpg
3124.344	0.969	correct	repeat	Run4	repeat/STIM_000.jpg
3127.877	0.707	correct	repeat	Run4	repeat/STIM_000.jpg
3131.266	0.912	correct	repeat	Run4	repeat/STIM_000.jpg
3135.22	0.92	incorrect	repeat	Run4	repeat/STIM_001.jpg
3138.707	0.552	correct	repeat	Run4	repeat/STIM_001.jpg
3141.598	0.555	incorrect	repeat	Run4	repeat/STIM_001.jpg
3145.595	0.703	correct	repeat	Run4	repeat/STIM_001.jpg
3149.675	0.576	correct	repeat	Run4	repeat/STIM_001.jpg
3153.415	0.975	correct	repeat	Run4	repeat/STIM_002.jpg
3158.299	0.865	correct	repeat	Run4	repeat/STIM_002.jpg
3162.913	0.614	correct	repeat	Run4	repeat/STIM_002.jpg
3165.651	0.849	correct	repeat	Run4	repeat/STIM_002.jpg
3168.682	0.664	correct	repeat	Run4	repeat/STIM_002.jpg
3172.258	0.869	correct	repeat	Run4	repeat/STIM_003.jpg
3175.952	0.909	correct	repeat	Run4	repeat/STIM_003.jpg
3179.702	0.838	correct	repeat	Run4	repeat/STIM_003.jpg
3183.259	0.656	correct	repeat	Run4	repeat/STIM_003.jpg
3187.643	0.876	correct	repeat	Run4	repeat/STIM_003.jpg
3191.281	0.511	correct	repeat	Run4	repeat/STIM_004.jpg
3195.423	0.512	correct	repeat	Run4	repeat/STIM_004.jpg
3198.676	0.473	correct	repeat	Run4	repeat/STIM_004.jpg
3201.442	0.676	correct	repeat	Run4	repeat/STIM_004.jpg
3204.49	0.548	correct	repeat	Run4	repeat/STIM_004.jpg
3208.266	0.759	correct	repeat	Run4	repeat/STIM_005.jpg
3212.64	1.043	correct	repeat	Run4	repeat/STIM_005.jpg
3215.648	0.817	correct	repeat	Run4	repeat/STIM_005.jpg
3218.653	0.617	correct	repeat	Run4	repeat/STIM_005.jpg
3223.291	0.875	correct	repeat	Run4	repeat/STIM_005.jpg
3227.457	0.638	incorrect	repeat	Run4	repeat/STIM_006.jpg
3230.637	0.712	correct	repeat	Run4	repeat/STIM_006.jpg
3234.255	0.6	correct	repeat	Run4	repeat/STIM_006.jpg
3238.819	0.643	correct	repeat	Run4	repeat/STIM_006.jpg
3242.546	0.819	correct	repeat	Run4	repeat/STIM_006.jpg
3246.167	0.783	correct	repeat	Run4	repeat/STIM_007.jpg
3250.291	0.898	correct	repeat	Run4	repeat/STIM_007.jpg
3253.442	0.525	correct	repeat	Run4	repeat/STIM_007.jpg
3258.023	0.913	correct	repeat	Run4	repeat/STIM_007.jpg
3261.516	0.583	correct	repeat	Run4	repeat/STIM_007.jpg
3265.085	0.816	correct	repeat	Run4	repeat/STIM_008.jpg
3267.893	0.808	correct	repeat	Run4	repeat/STIM_008.jpg
3271.147	0.987	correct	repeat	Run4	repeat/STIM_008.jpg
3275.617	0.826	correct	repeat	Run4	repeat/STIM_008.jpg
3278.722	0.866	incorrect	repeat	Run4	repeat/STIM_008.jpg
3282.108	0.721	correct	repeat	Run4	repeat/STIM_009.jpg
3285.311	0.729	correct	repeat	Run4	repeat/STIM_009.jpg
3288.106	0.588	correct	repeat	Run4	repeat/STIM_009.jpg
3291.641	0.693	correct	repeat	Run4	repeat/STIM_009.jpg
3294.417	0.897	correct	repeat	Run4	repeat/STIM_009.jpg
3298.094	0.666	correct	repeat	Run4	repeat/STIM_010.jpg
3300.804	0.622	correct	repeat	Run4	repeat/STIM_010.jpg
3304.008	0.439	correct	repeat	Run4	repeat/STIM_010.jpg
3307.984	0.642	correct	repeat	Run4	repeat/STIM_010.jpg
3312.439	0.617	correct	repeat	Run4	repeat/STIM_010.jpg
3316.083	0.804	correct	repeat	Run4	repeat/STIM_011.jpg
3319.063	0.49	correct	repeat	Run4	repeat/STIM_011.jpg
3322.219	0.564	correct	repeat	Run4	repeat/STIM_011.jpg
3324.848	0.983	correct	repeat	Run4	repeat/STIM_011.jpg
3328.256	0.477	correct	repeat	Run4	repeat/STIM_011.jpg
3332.682	0.94	correct	repeat	Run4	repeat/STIM_012.jpg
3337.015	0.99	correct	repeat	Run4	repeat/STIM_012.jpg
3340.132	0.846	correct	repeat	Run4	repeat/STIM_012.jpg
3343.962	0.886	correct	repeat	Run4	repeat/STIM_012.jpg
3348.386	0.498	correct	repeat	Run4	repeat/STIM_012.jpg
3351.181	0.518	correct	repeat	Run4	repeat/STIM_013.jpg
3354.517	0.792	correct	repeat	Run4	repeat/STIM_013.jpg
3357.667	0.884	correct	repeat	Run4	repeat/STIM_013.jpg
3361.111	0.992	correct	repeat	Run4	repeat/STIM_013.jpg
3364.255	0.539	correct	repeat	Run4	repeat/STIM_013.jpg
3367.004	0.834	correct	repeat	Run4	repeat/STIM_014.jpg
3369.964	0.654	correct	repeat	Run4	repeat/STIM_014.jpg
3374.557	0.759	correct	repeat	Run4	repeat/STIM_014.jpg
3379.211	0.828	correct	repeat	Run4	repeat/STIM_014.jpg
3383.074	1.026	incorrect	repeat	Run4	repeat/STIM_014.jpg
