onset	duration	accuracy	trial_type	learning_stage	stimulus
0.0	2.269	correct	regulate	Run1	regulate/STIM_000.jpg
4.87	2.961	correct	regulate	Run1	regulate/STIM_000.jpg
10.531	2.694	correct	regulate	Run1	regulate/STIM_000.jpg
16.353	2.152	correct	regulate	Run1	regulate/STIM_000.jpg
22.237	2.565	correct	regulate	Run1	regulate/STIM_001.jpg
27.332	1.986	correct	regulate	Run1	regulate/STIM_001.jpg
32.988	1.609	correct	regulate	Run1	regulate/STIM_001.jpg
38.653	2.635	correct	regulate	Run1	regulate/STIM_001.jpg
44.973	1.8	incorrect	regulate	Run1	regulate/STIM_002.jpg
48.978	1.452	correct	regulate	Run1	regulate/STIM_002.jpg
53.958	1.857	correct	regulate	Run1	regulate/STIM_002.jpg
59.564	2.475	correct	regulate	Run1	regulate/STIM_002.jpg
64.578	2.88	correct	regulate	Run1	regulate/STIM_003.jpg
70.479	2.958	incorrect	regulate	Run1	regulate/STIM_003.jpg
76.743	2.267	correct	regulate	Run1	regulate/STIM_003.jpg
82.097	1.207	correct	regulate	Run1	regulate/STIM_003.jpg
87.113	2.392	correct	regulate	Run1	regulate/STIM_004.jpg
92.819	1.31	correct	regulate	Run1	regulate/STIM_004.jpg
96.996	2.264	correct	regulate	Run1	regulate/STIM_004.jpg
102.963	1.733	correct	regulate	Run1	regulate/STIM_004.jpg
108.693	2.255	correct	regulate	Run1	regulate/STIM_005.jpg
113.87	1.929	correct	regulate	Run1	regulate/STIM_005.jpg
119.324	2.597	correct	regulate	Run1	regulate/STIM_005.jpg
125.388	1.707	correct	regulate	Run1	regulate/STIM_005.jpg
129.735	1.537	correct	regulate	Run1	regulate/STIM_006.jpg
133.59	2.729	incorrect	regulate	Run1	regulate/STIM_006.jpg
139.645	1.305	correct	regulate	Run1	regulate/STIM_006.jpg
143.622	1.694	correct	regulate	Run1	regulate/STIM_006.jpg
148.686	2.87	correct	regulate	Run1	regulate/STIM_007.jpg
155.017	2.882	correct	regulate	Run1	regulate/STIM_007.jpg
160.405	2.063	correct	regulate	Run1	regulate/STIM_007.jpg
165.44	2.493	correct	regulate	Run1	regulate/STIM_007.jpg
171.649	2.617	correct	regulate	Run1	regulate/STIM_008.jpg
177.051	2.401	correct	regulate	Run1	regulate/STIM_008.jpg
182.185	2.657	correct	regulate	Run1	regulate/STIM_008.jpg
187.854	2.26	incorrect	regulate	Run1	regulate/STIM_008.jpg
193.929	2.814	correct	regulate	Run1	regulate/STIM_009.jpg
200.18	2.626	correct	regulate	Run1	regulate/STIM_009.jpg
205.571	1.567	correct	regulate	Run1	regulate/STIM_009.jpg
210.424	1.256	correct	regulate	Run1	regulate/STIM_009.jpg
214.625	1.575	incorrect	regulate	Run1	regulate/STIM_010.jpg
219.273	1.618	correct	regulate	Run1	regulate/STIM_010.jpg
224.577	1.566	correct	regulate	Run1	regulate/STIM_010.jpg
229.114	2.059	correct	regulate	Run1	regulate/STIM_010.jpg
235.191	1.671	correct	regulate	Run1	regulate/STIM_011.jpg
239.995	2.001	correct	regulate	Run1	regulate/STIM_011.jpg
244.651	2.473	correct	regulate	Run1	regulate/STIM_011.jpg
250.392	2.589	correct	regulate	Run1	regulate/STIM_011.jpg
256.141	2.646	correct	regulate	Run1	regulate/STIM_012.jpg
261.702	2.441	correct	regulate	Run1	regulate/STIM_012.jpg
267.822	2.8	correct	regulate	Run1	regulate/STIM_012.jpg
273.434	1.577	correct	regulate	Run1	regulate/STIM_012.jpg
278.866	1.785	correct	regulate	Run1	regulate/STIM_013.jpg
283.425	1.93	correct	regulate	Run1	regulate/STIM_013.jpg
289.396	1.769	incorrect	regulate	Run1	regulate/STIM_013.jpg
293.755	2.167	correct	regulate	Run1	regulate/STIM_013.jpg
299.608	1.39	correct	regulate	Run1	regulate/STIM_014.jpg
304.162	2.423	correct	regulate	Run1	regulate/STIM_014.jpg
310.836	2.264	correct	regulate	Run1	regulate/STIM_014.jpg
316.922	2.636	correct	regulate	Run1	regulate/STIM_014.jpg
323.099	3.011	correct	regulate	Run1	regulate/STIM_015.jpg
329.993	2.72	correct	regulate	Run1	regulate/STIM_015.jpg
336.115	2.021	incorrect	regulate	Run1	regulate/STIM_015.jpg
340.558	1.88	correct	regulate	Run1	regulate/STIM_015.jpg
346.027	2.76	correct	regulate	Run1	regulate/STIM_016.jpg
352.794	2.882	correct	regulate	Run1	regulate/STIM_016.jpg
358.805	2.709	correct	regulate	Run1	regulate/STIM_016.jpg
364.383	2.017	incorrect	regulate	Run1	regulate/STIM_016.jpg
369.186	2.04	correct	regulate	Run1	regulate/STIM_017.jpg
374.711	2.076	correct	regulate	Run1	regulate/STIM_017.jpg
380.452	2.46	correct	regulate	Run1	regulate/STIM_017.jpg
386.264	1.346	correct	regulate	Run1	regulate/STIM_017.jpg
390.652	2.384	correct	regulate	Run1	regulate/STIM_018.jpg
396.673	2.075	incorrect	regulate	Run1	regulate/STIM_018.jpg
402.237	1.416	incorrect	regulate	Run1	regulate/STIM_018.jpg
406.735	1.564	correct	regulate	Run1	regulate/STIM_018.jpg
411.277	1.768	correct	regulate	Run1	regulate/STIM_019.jpg
416.419	2.964	correct	regulate	Run1	regulate/STIM_019.jpg
421.996	1.808	correct	regulate	Run1	regulate/STIM_019.jpg
427.017	1.763	correct	regulate	Run1	regulate/STIM_019.jpg
431.104	1.366	correct	regulate	Run1	regulate/STIM_020.jpg
435.327	2.834	correct	regulate	Run1	regulate/STIM_020.jpg
440.72	2.389	correct	regulate	Run1	regulate/STIM_020.jpg
445.645	1.582	correct	regulate	Run1	regulate/STIM_020.jpg
449.423	1.742	correct	regulate	Run1	regulate/STIM_021.jpg
454.15	2.211	correct	regulate	Run1	regulate/STIM_021.jpg
459.092	1.446	correct	regulate	Run1	regulate/STIM_021.jpg
464.516	2.415	correct	regulate	Run1	regulate/STIM_021.jpg
469.27	1.79	correct	regulate	Run1	regulate/STIM_022.jpg
474.153	2.408	incorrect	regulate	Run1	regulate/STIM_022.jpg
480.382	2.817	correct	regulate	Run1	regulate/STIM_022.jpg
486.643	1.531	correct	regulate	Run1	regulate/STIM_022.jpg
490.475	2.22	correct	regulate	Run1	regulate/STIM_023.jpg
495.602	1.948	correct	regulate	Run1	regulate/STIM_023.jpg
500.214	1.65	correct	regulate	Run1	regulate/STIM_023.jpg
504.92	1.783	correct	regulate	Run1	regulate/STIM_023.jpg
510.655	2.476	correct	regulate	Run1	regulate/STIM_024.jpg
517.109	2.623	correct	regulate	Run1	regulate/STIM_024.jpg
522.913	2.042	correct	regulate	Run1	regulate/STIM_024.jpg
527.355	1.862	correct	regulate	Run1	regulate/STIM_024.jpg
532.732	2.193	correct	regulate	Run1	regulate/STIM_025.jpg
537.425	2.589	correct	regulate	Run1	regulate/STIM_025.jpg
543.573	2.515	correct	regulate	Run1	regulate/STIM_025.jpg
549.733	2.458	correct	regulate	Run1	regulate/STIM_025.jpg
554.523	3.086	incorrect	regulate	Run1	regulate/STIM_026.jpg
561.786	2.432	correct	regulate	Run1	regulate/STIM_026.jpg
567.301	2.335	correct	regulate	Run1	regulate/STIM_026.jpg
571.934	1.934	incorrect	regulate	Run1	regulate/STIM_026.jpg
577.23	2.032	correct	regulate	Run1	regulate/STIM_027.jpg
582.267	1.365	incorrect	regulate	Run1	regulate/STIM_027.jpg
585.997	1.733	correct	regulate	Run1	regulate/STIM_027.jpg
590.937	2.404	correct	regulate	Run1	regulate/STIM_027.jpg
596.693	1.468	correct	regulate	Run1	regulate/STIM_028.jpg
601.173	2.627	correct	regulate	Run1	regulate/STIM_028.jpg
606.905	1.956	correct	regulate	Run1	regulate/STIM_028.jpg
612.603	1.995	incorrect	regulate	Run1	regulate/STIM_028.jpg
618.523	2.709	correct	regulate	Run1	regulate/STIM_029.jpg
624.946	2.266	correct	regulate	Run1	regulate/STIM_029.jpg
630.668	2.257	correct	regulate	Run1	regulate/STIM_029.jpg
635.879	2.46	correct	regulate	Run1	regulate/STIM_029.jpg
641.342	1.26	incorrect	observe	Run1	observe/STIM_000.jpg
646.716	1.295	correct	observe	Run1	observe/STIM_000.jpg
651.832	0.981	correct	observe	Run1	observe/STIM_000.jpg
655.421	1.224	correct	observe	Run1	observe/STIM_000.jpg
658.93	0.749	incorrect	observe	Run1	observe/STIM_001.jpg
661.815	0.916	incorrect	observe	Run1	observe/STIM_001.jpg
665.207	0.986	correct	observe	Run1	observe/STIM_001.jpg
669.04	0.954	correct	observe	Run1	observe/STIM_001.jpg
673.639	1.187	correct	observe	Run1	observe/STIM_002.jpg
677.856	1.139	correct	observe	Run1	observe/STIM_002.jpg
681.992	0.762	correct	observe	Run1	observe/STIM_002.jpg
684.893	0.896	correct	observe	Run1	observe/STIM_002.jpg
689.73	1.417	incorrect	observe	Run1	observe/STIM_003.jpg
694.532	1.193	correct	observe	Run1	observe/STIM_003.jpg
699.803	0.814	incorrect	observe	Run1	observe/STIM_003.jpg
704.598	1.253	correct	observe	Run1	observe/STIM_003.jpg
709.748	1.164	correct	observe	Run1	observe/STIM_004.jpg
713.335	1.258	correct	observe	Run1	observe/STIM_004.jpg
718.337	1.293	correct	observe	Run1	observe/STIM_004.jpg
723.201	0.933	incorrect	observe	Run1	observe/STIM_004.jpg
726.952	1.36	correct	observe	Run1	observe/STIM_005.jpg
731.295	0.743	incorrect	observe	Run1	observe/STIM_005.jpg
735.718	0.75	correct	observe	Run1	observe/STIM_005.jpg
738.693	1.354	correct	observe	Run1	observe/STIM_005.jpg
744.122	0.901	correct	observe	Run1	observe/STIM_006.jpg
748.852	1.382	correct	observe	Run1	observe/STIM_006.jpg
752.706	1.142	correct	observe	Run1	observe/STIM_006.jpg
757.732	1.415	correct	observe	Run1	observe/STIM_006.jpg
762.306	1.043	correct	observe	Run1	observe/STIM_007.jpg
765.979	1.024	correct	observe	Run1	observe/STIM_007.jpg
771.102	1.128	correct	observe	Run1	observe/STIM_007.jpg
774.389	1.383	correct	observe	Run1	observe/STIM_007.jpg
779.56	0.799	correct	observe	Run1	observe/STIM_008.jpg
782.658	1.146	correct	observe	Run1	observe/STIM_008.jpg
786.228	1.431	correct	observe	Run1	observe/STIM_008.jpg
790.961	1.186	correct	observe	Run1	observe/STIM_008.jpg
794.732	1.323	incorrect	observe	Run1	observe/STIM_009.jpg
799.916	1.225	incorrect	observe	Run1	observe/STIM_009.jpg
804.944	1.36	correct	observe	Run1	observe/STIM_009.jpg
808.718	0.827	correct	observe	Run1	observe/STIM_009.jpg
813.129	1.014	correct	observe	Run1	observe/STIM_010.jpg
816.805	1.164	correct	observe	Run1	observe/STIM_010.jpg
820.274	1.323	correct	observe	Run1	observe/STIM_010.jpg
825.59	0.971	correct	observe	Run1	observe/STIM_010.jpg
830.51	1.259	correct	observe	Run1	observe/STIM_011.jpg
835.735	1.314	correct	observe	Run1	observe/STIM_011.jpg
839.754	1.374	correct	observe	Run1	observe/STIM_011.jpg
844.224	1.006	correct	observe	Run1	observe/STIM_011.jpg
847.51	1.367	correct	observe	Run1	observe/STIM_012.jpg
851.257	1.196	correct	observe	Run1	observe/STIM_012.jpg
855.025	0.78	correct	observe	Run1	observe/STIM_012.jpg
858.45	1.36	correct	observe	Run1	observe/STIM_012.jpg
863.951	0.749	correct	observe	Run1	observe/STIM_013.jpg
868.542	1.045	correct	observe	Run1	observe/STIM_013.jpg
872.102	0.935	correct	observe	Run1	observe/STIM_013.jpg
876.785	1.321	correct	observe	Run1	observe/STIM_013.jpg
881.218	0.795	correct	observe	Run1	observe/STIM_014.jpg
884.227	1.254	correct	observe	Run1	observe/STIM_014.jpg
889.111	1.382	incorrect	observe	Run1	observe/STIM_014.jpg
893.221	1.381	correct	observe	Run1	observe/STIM_014.jpg
897.857	0.954	correct	observe	Run1	observe/STIM_015.jpg
902.407	0.966	correct	observe	Run1	observe/STIM_015.jpg
906.749	1.117	correct	observe	Run1	observe/STIM_015.jpg
911.179	1.073	correct	observe	Run1	observe/STIM_015.jpg
914.734	1.42	correct	observe	Run1	observe/STIM_016.jpg
919.193	0.845	correct	observe	Run1	observe/STIM_016.jpg
923.763	0.984	correct	observe	Run1	observe/STIM_016.jpg
927.343	0.72	correct	observe	Run1	observe/STIM_016.jpg
930.463	1.25	correct	observe	Run1	observe/STIM_017.jpg
935.332	0.883	correct	observe	Run1	observe/STIM_017.jpg
939.256	1.307	correct	observe	Run1	observe/STIM_017.jpg
943.313	0.975	correct	observe	Run1	observe/STIM_017.jpg
947.388	0.781	correct	observe	Run1	observe/STIM_018.jpg
950.64	1.166	correct	observe	Run1	observe/STIM_018.jpg
955.807	1.22	incorrect	observe	Run1	observe/STIM_018.jpg
959.717	0.724	incorrect	observe	Run1	observe/STIM_018.jpg
963.973	0.97	correct	observe	Run1	observe/STIM_019.jpg
968.672	1.199	incorrect	observe	Run1	observe/STIM_019.jpg
973.587	1.068	correct	observe	Run1	observe/STIM_019.jpg
978.496	0.8	incorrect	observe	Run1	observe/STIM_019.jpg
983.258	1.889	correct	regulate	Run2	regulate/STIM_000.jpg
988.705	2.36	correct	regulate	Run2	regulate/STIM_000.jpg
993.417	1.428	correct	regulate	Run2	regulate/STIM_000.jpg
998.972	1.571	correct	regulate	Run2	regulate/STIM_000.jpg
1004.354	1.88	incorrect	regulate	Run2	regulate/STIM_001.jpg
1009.175	1.434	correct	regulate	Run2	regulate/STIM_001.jpg
1014.167	1.555	correct	regulate	Run2	regulate/STIM_001.jpg
1019.278	2.076	correct	regulate	Run2	regulate/STIM_001.jpg
1023.609	2.192	correct	regulate	Run2	regulate/STIM_002.jpg
1028.475	1.814	correct	regulate	Run2	regulate/STIM_002.jpg
1033.63	1.802	correct	regulate	Run2	regulate/STIM_002.jpg
1038.674	1.478	correct	regulate	Run2	regulate/STIM_002.jpg
1043.865	1.359	correct	regulate	Run2	regulate/STIM_003.jpg
1049.176	1.727	correct	regulate	Run2	regulate/STIM_003.jpg
1054.058	1.356	correct	regulate	Run2	regulate/STIM_003.jpg
1058.574	0.951	correct	regulate	Run2	regulate/STIM_003.jpg
1063.225	2.519	correct	regulate	Run2	regulate/STIM_004.jpg
1068.549	1.947	incorrect	regulate	Run2	regulate/STIM_004.jpg
1073.001	1.955	correct	regulate	Run2	regulate/STIM_004.jpg
1077.603	1.502	correct	regulate	Run2	regulate/STIM_004.jpg
1082.921	1.329	correct	regulate	Run2	regulate/STIM_005.jpg
1087.759	1.937	correct	regulate	Run2	regulate/STIM_005.jpg
1093.9	1.07	correct	regulate	Run2	regulate/STIM_005.jpg
1097.458	0.993	correct	regulate	Run2	regulate/STIM_005.jpg
1101.185	2.172	correct	regulate	Run2	regulate/STIM_006.jpg
1106.044	2.026	correct	regulate	Run2	regulate/STIM_006.jpg
1111.581	1.873	correct	regulate	Run2	regulate/STIM_006.jpg
1116.65	1.358	correct	regulate	Run2	regulate/STIM_006.jpg
1120.998	2.367	correct	regulate	Run2	regulate/STIM_007.jpg
1127.172	1.835	correct	regulate	Run2	regulate/STIM_007.jpg
1131.708	1.237	correct	regulate	Run2	regulate/STIM_007.jpg
1136.15	1.827	correct	regulate	Run2	regulate/STIM_007.jpg
1140.595	1.458	correct	regulate	Run2	regulate/STIM_008.jpg
1144.507	1.67	correct	regulate	Run2	regulate/STIM_008.jpg
1148.664	2.261	correct	regulate	Run2	regulate/STIM_008.jpg
1153.886	1.163	correct	regulate	Run2	regulate/STIM_008.jpg
1158.438	2.579	correct	regulate	Run2	regulate/STIM_009.jpg
1163.482	1.749	correct	regulate	Run2	regulate/STIM_009.jpg
1168.634	1.214	correct	regulate	Run2	regulate/STIM_009.jpg
1173.187	2.061	incorrect	regulate	Run2	regulate/STIM_009.jpg
1179.263	1.649	correct	regulate	Run2	regulate/STIM_010.jpg
1184.808	1.827	incorrect	regulate	Run2	regulate/STIM_010.jpg
1190.646	2.169	correct	regulate	Run2	regulate/STIM_010.jpg
1196.63	1.514	correct	regulate	Run2	regulate/STIM_010.jpg
1201.677	2.176	correct	regulate	Run2	regulate/STIM_011.jpg
1206.419	1.962	correct	regulate	Run2	regulate/STIM_011.jpg
1210.916	1.532	correct	regulate	Run2	regulate/STIM_011.jpg
1215.698	1.534	incorrect	regulate	Run2	regulate/STIM_011.jpg
1220.631	1.914	correct	regulate	Run2	regulate/STIM_012.jpg
1225.879	1.28	correct	regulate	Run2	regulate/STIM_012.jpg
1231.104	1.648	correct	regulate	Run2	regulate/STIM_012.jpg
1235.57	1.679	incorrect	regulate	Run2	regulate/STIM_012.jpg
1240.158	1.609	correct	regulate	Run2	regulate/STIM_013.jpg
1244.358	1.672	correct	regulate	Run2	regulate/STIM_013.jpg
1249.628	1.015	correct	regulate	Run2	regulate/STIM_013.jpg
1254.51	1.87	correct	regulate	Run2	regulate/STIM_013.jpg
1259.74	2.113	correct	regulate	Run2	regulate/STIM_014.jpg
1265.086	1.148	incorrect	regulate	Run2	regulate/STIM_014.jpg
1269.676	1.054	correct	regulate	Run2	regulate/STIM_014.jpg
1273.556	1.411	correct	regulate	Run2	regulate/STIM_014.jpg
1278.428	1.591	correct	regulate	Run2	regulate/STIM_015.jpg
1283.906	2.476	correct	regulate	Run2	regulate/STIM_015.jpg
1290.647	1.691	correct	regulate	Run2	regulate/STIM_015.jpg
1294.586	2.145	correct	regulate	Run2	regulate/STIM_015.jpg
1300.883	1.853	incorrect	regulate	Run2	regulate/STIM_016.jpg
1306.879	1.102	correct	regulate	Run2	regulate/STIM_016.jpg
1310.617	2.252	correct	regulate	Run2	regulate/STIM_016.jpg
1315.208	1.005	correct	regulate	Run2	regulate/STIM_016.jpg
1319.595	2.332	correct	regulate	Run2	regulate/STIM_017.jpg
1324.495	1.52	incorrect	regulate	Run2	regulate/STIM_017.jpg
1329.067	1.622	correct	regulate	Run2	regulate/STIM_017.jpg
1333.878	1.108	correct	regulate	Run2	regulate/STIM_017.jpg
1338.838	1.177	correct	regulate	Run2	regulate/STIM_018.jpg
1343.716	1.47	correct	regulate	Run2	regulate/STIM_018.jpg
1349.134	1.484	correct	regulate	Run2	regulate/STIM_018.jpg
1353.846	2.076	correct	regulate	Run2	regulate/STIM_018.jpg
1358.707	2.626	correct	regulate	Run2	regulate/STIM_019.jpg
1364.175	2.242	correct	regulate	Run2	regulate/STIM_019.jpg
1368.757	1.774	incorrect	regulate	Run2	regulate/STIM_019.jpg
1374.012	1.609	correct	regulate	Run2	regulate/STIM_019.jpg
1379.619	1.41	correct	regulate	Run2	regulate/STIM_020.jpg
1384.159	1.39	correct	regulate	Run2	regulate/STIM_020.jpg
1388.835	1.152	correct	regulate	Run2	regulate/STIM_020.jpg
1393.981	0.955	correct	regulate	Run2	regulate/STIM_020.jpg
1398.581	1.953	correct	regulate	Run2	regulate/STIM_021.jpg
1403.232	2.277	correct	regulate	Run2	regulate/STIM_021.jpg
1408.501	1.961	correct	regulate	Run2	regulate/STIM_021.jpg
1414.138	1.246	correct	regulate	Run2	regulate/STIM_021.jpg
1417.768	1.867	correct	regulate	Run2	regulate/STIM_022.jpg
1423.556	1.165	incorrect	regulate	Run2	regulate/STIM_022.jpg
1427.904	1.115	correct	regulate	Run2	regulate/STIM_022.jpg
1431.24	1.59	correct	regulate	Run2	regulate/STIM_022.jpg
1436.415	2.215	correct	regulate	Run2	regulate/STIM_023.jpg
1442.554	2.271	correct	regulate	Run2	regulate/STIM_023.jpg
1447.141	1.668	correct	regulate	Run2	regulate/STIM_023.jpg
1452.589	1.567	correct	regulate	Run2	regulate/STIM_023.jpg
1456.693	1.374	correct	regulate	Run2	regulate/STIM_024.jpg
1461.346	1.687	correct	regulate	Run2	regulate/STIM_024.jpg
1467.159	1.265	correct	regulate	Run2	regulate/STIM_024.jpg
1472.377	1.305	correct	regulate	Run2	regulate/STIM_024.jpg
1476.596	1.827	correct	regulate	Run2	regulate/STIM_025.jpg
1482.622	2.166	correct	regulate	Run2	regulate/STIM_025.jpg
1488.775	1.795	correct	regulate	Run2	regulate/STIM_025.jpg
1494.705	2.122	correct	regulate	Run2	regulate/STIM_025.jpg
1500.973	2.567	correct	regulate	Run2	regulate/STIM_026.jpg
1507.488	1.703	correct	regulate	Run2	regulate/STIM_026.jpg
1512.828	1.49	correct	regulate	Run2	regulate/STIM_026.jpg
1516.684	0.967	correct	regulate	Run2	regulate/STIM_026.jpg
1521.432	1.556	correct	regulate	Run2	regulate/STIM_027.jpg
1525.229	1.897	correct	regulate	Run2	regulate/STIM_027.jpg
1530.028	2.2	correct	regulate	Run2	regulate/STIM_027.jpg
1536.401	1.224	correct	regulate	Run2	regulate/STIM_027.jpg
1539.968	1.372	correct	regulate	Run2	regulate/STIM_028.jpg
1545.344	1.814	incorrect	regulate	Run2	regulate/STIM_028.jpg
1550.64	2.266	incorrect	regulate	Run2	regulate/STIM_028.jpg
1555.461	1.542	correct	regulate	Run2	regulate/STIM_028.jpg
1559.668	2.081	correct	regulate	Run2	regulate/STIM_029.jpg
1564.355	2.101	correct	regulate	Run2	regulate/STIM_029.jpg
1570.389	2.054	correct	regulate	Run2	regulate/STIM_029.jpg
1574.894	2.041	correct	regulate	Run2	regulate/STIM_029.jpg
1579.25	0.946	correct	observe	Run2	observe/STIM_000.jpg
1584.165	0.907	incorrect	observe	Run2	observe/STIM_000.jpg
1588.29	1.148	correct	observe	Run2	observe/STIM_000.jpg
1591.847	1.43	incorrect	observe	Run2	observe/STIM_000.jpg
1596.406	1.054	correct	observe	Run2	observe/STIM_001.jpg
1601.395	1.077	correct	observe	Run2	observe/STIM_001.jpg
1605.81	1.308	incorrect	observe	Run2	observe/STIM_001.jpg
1610.128	1.029	correct	observe	Run2	observe/STIM_001.jpg
1613.562	1.234	correct	observe	Run2	observe/STIM_002.jpg
1617.252	1.378	correct	observe	Run2	observe/STIM_002.jpg
1621.504	1.089	correct	observe	Run2	observe/STIM_002.jpg
1626.452	0.998	correct	observe	Run2	observe/STIM_002.jpg
1630.345	1.137	correct	observe	Run2	observe/STIM_003.jpg
1633.751	0.781	incorrect	observe	Run2	observe/STIM_003.jpg
1636.9	1.317	correct	observe	Run2	observe/STIM_003.jpg
1641.471	1.176	incorrect	observe	Run2	observe/STIM_003.jpg
1646.125	0.856	correct	observe	Run2	observe/STIM_004.jpg
1649.522	0.861	correct	observe	Run2	observe/STIM_004.jpg
1653.333	0.747	correct	observe	Run2	observe/STIM_004.jpg
1657.575	0.923	correct	observe	Run2	observe/STIM_004.jpg
1662.486	1.147	correct	observe	Run2	observe/STIM_005.jpg
1667.752	0.873	correct	observe	Run2	observe/STIM_005.jpg
1671.067	0.954	correct	observe	Run2	observe/STIM_005.jpg
1674.812	1.394	correct	observe	Run2	observe/STIM_005.jpg
1679.354	0.873	correct	observe	Run2	observe/STIM_006.jpg
1683.531	1.184	correct	observe	Run2	observe/STIM_006.jpg
1687.463	0.833	incorrect	observe	Run2	observe/STIM_006.jpg
1690.926	0.981	correct	observe	Run2	observe/STIM_006.jpg
1694.258	1.186	correct	observe	Run2	observe/STIM_007.jpg
1697.921	1.38	correct	observe	Run2	observe/STIM_007.jpg
1703.393	1.227	incorrect	observe	Run2	observe/STIM_007.jpg
1707.612	1.036	correct	observe	Run2	observe/STIM_007.jpg
1712.041	0.932	correct	observe	Run2	observe/STIM_008.jpg
1715.206	1.326	correct	observe	Run2	observe/STIM_008.jpg
1718.695	1.388	correct	observe	Run2	observe/STIM_008.jpg
1722.399	0.921	correct	observe	Run2	observe/STIM_008.jpg
1726.416	0.731	correct	observe	Run2	observe/STIM_009.jpg
1730.138	0.914	correct	observe	Run2	observe/STIM_009.jpg
1734.825	1.386	correct	observe	Run2	observe/STIM_009.jpg
1738.767	0.989	incorrect	observe	Run2	observe/STIM_009.jpg
1742.608	1.104	correct	observe	Run2	observe/STIM_010.jpg
1747.573	1.16	correct	observe	Run2	observe/STIM_010.jpg
1751.777	1.309	incorrect	observe	Run2	observe/STIM_010.jpg
1756.148	1.117	correct	observe	Run2	observe/STIM_010.jpg
1759.748	0.903	incorrect	observe	Run2	observe/STIM_011.jpg
1764.015	1.124	correct	observe	Run2	observe/STIM_011.jpg
1767.852	1.389	correct	observe	Run2	observe/STIM_011.jpg
1772.049	0.724	correct	observe	Run2	observe/STIM_011.jpg
1776.193	0.808	correct	observe	Run2	observe/STIM_012.jpg
1779.605	0.909	correct	observe	Run2	observe/STIM_012.jpg
1783.896	1.299	correct	observe	Run2	observe/STIM_012.jpg
1788.0	1.181	correct	observe	Run2	observe/STIM_012.jpg
1792.954	0.768	correct	observe	Run2	observe/STIM_013.jpg
1796.329	1.173	correct	observe	Run2	observe/STIM_013.jpg
1800.898	1.284	correct	observe	Run2	observe/STIM_013.jpg
1805.789	1.42	correct	observe	Run2	observe/STIM_013.jpg
1810.364	1.392	incorrect	observe	Run2	observe/STIM_014.jpg
1814.82	1.274	correct	observe	Run2	observe/STIM_014.jpg
1820.066	1.233	correct	observe	Run2	observe/STIM_014.jpg
1823.83	1.265	correct	observe	Run2	observe/STIM_014.jpg
1828.2	1.056	correct	observe	Run2	observe/STIM_015.jpg
1832.266	0.871	correct	observe	Run2	observe/STIM_015.jpg
1836.245	1.416	correct	observe	Run2	observe/STIM_015.jpg
1839.873	0.77	correct	observe	Run2	observe/STIM_015.jpg
1844.508	0.797	incorrect	observe	Run2	observe/STIM_016.jpg
1847.995	1.088	correct	observe	Run2	observe/STIM_016.jpg
1851.632	0.911	incorrect	observe	Run2	observe/STIM_016.jpg
1856.526	1.241	correct	observe	Run2	observe/STIM_016.jpg
1860.583	0.874	incorrect	observe	Run2	observe/STIM_017.jpg
1863.94	0.93	correct	observe	Run2	observe/STIM_017.jpg
1867.144	0.911	incorrect	observe	Run2	observe/STIM_017.jpg
1870.907	1.039	correct	observe	Run2	observe/STIM_017.jpg
1874.272	1.302	correct	observe	Run2	observe/STIM_018.jpg
1879.238	0.824	correct	observe	Run2	observe/STIM_018.jpg
1884.036	1.024	correct	observe	Run2	observe/STIM_018.jpg
1888.648	0.971	correct	observe	Run2	observe/STIM_018.jpg
1892.812	0.767	correct	observe	Run2	observe/STIM_019.jpg
1896.446	1.296	correct	observe	Run2	observe/STIM_019.jpg
1900.509	1.372	correct	observe	Run2	observe/STIM_019.jpg
1904.611	0.86	correct	observe	Run2	observe/STIM_019.jpg
1908.422	1.41	correct	regulate	Run3	regulate/STIM_000.jpg
1913.361	1.684	correct	regulate	Run3	regulate/STIM_000.jpg
1917.702	0.959	correct	regulate	Run3	regulate/STIM_000.jpg
1922.299	1.639	correct	regulate	Run3	regulate/STIM_000.jpg
1927.489	1.048	correct	regulate	Run3	regulate/STIM_001.jpg
1932.149	0.952	correct	regulate	Run3	regulate/STIM_001.jpg
1935.387	1.604	correct	regulate	Run3	regulate/STIM_001.jpg
1940.147	1.084	correct	regulate	Run3	regulate/STIM_001.jpg
1945.103	1.345	correct	regulate	Run3	regulate/STIM_002.jpg
1950.415	2.099	correct	regulate	Run3	regulate/STIM_002.jpg
1956.524	1.734	correct	regulate	Run3	regulate/STIM_002.jpg
1961.789	1.41	correct	regulate	Run3	regulate/STIM_002.jpg
1967.192	1.776	correct	regulate	Run3	regulate/STIM_003.jpg
1972.573	1.74	correct	regulate	Run3	regulate/STIM_003.jpg
1978.091	1.676	correct	regulate	Run3	regulate/STIM_003.jpg
1983.739	1.266	correct	regulate	Run3	regulate/STIM_003.jpg
1988.555	1.212	correct	regulate	Run3	regulate/STIM_004.jpg
1992.988	2.188	incorrect	regulate	Run3	regulate/STIM_004.jpg
1998.33	1.361	correct	regulate	Run3	regulate/STIM_004.jpg
2001.89	1.902	correct	regulate	Run3	regulate/STIM_004.jpg
2006.102	1.645	correct	regulate	Run3	regulate/STIM_005.jpg
2011.746	2.008	correct	regulate	Run3	regulate/STIM_005.jpg
2017.922	2.049	correct	regulate	Run3	regulate/STIM_005.jpg
2022.22	1.752	correct	regulate	Run3	regulate/STIM_005.jpg
2027.466	1.977	correct	regulate	Run3	regulate/STIM_006.jpg
2033.258	1.712	correct	regulate	Run3	regulate/STIM_006.jpg
2038.69	2.18	correct	regulate	Run3	regulate/STIM_006.jpg
2043.394	1.473	correct	regulate	Run3	regulate/STIM_006.jpg
2048.407	1.833	correct	regulate	Run3	regulate/STIM_007.jpg
2052.512	1.611	correct	regulate	Run3	regulate/STIM_007.jpg
2056.314	1.982	incorrect	regulate	Run3	regulate/STIM_007.jpg
2060.826	1.579	correct	regulate	Run3	regulate/STIM_007.jpg
2065.744	1.456	correct	regulate	Run3	regulate/STIM_008.jpg
2069.366	1.238	correct	regulate	Run3	regulate/STIM_008.jpg
2074.653	1.506	correct	regulate	Run3	regulate/STIM_008.jpg
2078.656	1.333	correct	regulate	Run3	regulate/STIM_008.jpg
2082.747	1.935	correct	regulate	Run3	regulate/STIM_009.jpg
2087.645	1.085	correct	regulate	Run3	regulate/STIM_009.jpg
2091.92	1.153	incorrect	regulate	Run3	regulate/STIM_009.jpg
2096.394	1.696	correct	regulate	Run3	regulate/STIM_009.jpg
2100.516	1.728	correct	regulate	Run3	regulate/STIM_010.jpg
2105.982	1.113	correct	regulate	Run3	regulate/STIM_010.jpg
2109.532	1.086	correct	regulate	Run3	regulate/STIM_010.jpg
2112.941	1.616	correct	regulate	Run3	regulate/STIM_010.jpg
2118.427	1.62	correct	regulate	Run3	regulate/STIM_011.jpg
2122.446	1.482	correct	regulate	Run3	regulate/STIM_011.jpg
2126.277	1.683	correct	regulate	Run3	regulate/STIM_011.jpg
2131.486	1.697	correct	regulate	Run3	regulate/STIM_011.jpg
2136.988	1.876	correct	regulate	Run3	regulate/STIM_012.jpg
2141.927	1.997	correct	regulate	Run3	regulate/STIM_012.jpg
2148.118	1.646	incorrect	regulate	Run3	regulate/STIM_012.jpg
2153.325	1.359	correct	regulate	Run3	regulate/STIM_012.jpg
2157.343	1.991	correct	regulate	Run3	regulate/STIM_013.jpg
2162.011	1.441	correct	regulate	Run3	regulate/STIM_013.jpg
2166.35	2.006	correct	regulate	Run3	regulate/STIM_013.jpg
2171.698	1.985	correct	regulate	Run3	regulate/STIM_013.jpg
2176.131	1.053	correct	regulate	Run3	regulate/STIM_014.jpg
2179.474	1.472	correct	regulate	Run3	regulate/STIM_014.jpg
2184.209	1.596	correct	regulate	Run3	regulate/STIM_014.jpg
2188.644	1.162	correct	regulate	Run3	regulate/STIM_014.jpg
2192.447	2.169	correct	regulate	Run3	regulate/STIM_015.jpg
2198.702	1.913	correct	regulate	Run3	regulate/STIM_015.jpg
2202.847	1.492	correct	regulate	Run3	regulate/STIM_015.jpg
2208.044	1.677	correct	regulate	Run3	regulate/STIM_015.jpg
2213.234	1.253	correct	regulate	Run3	regulate/STIM_016.jpg
2217.638	1.628	correct	regulate	Run3	regulate/STIM_016.jpg
2222.4	1.165	correct	regulate	Run3	regulate/STIM_016.jpg
2227.337	1.955	correct	regulate	Run3	regulate/STIM_016.jpg
2232.435	2.107	correct	regulate	Run3	regulate/STIM_017.jpg
2237.357	1.882	incorrect	regulate	Run3	regulate/STIM_017.jpg
2243.127	2.19	correct	regulate	Run3	regulate/STIM_017.jpg
2247.62	1.138	correct	regulate	Run3	regulate/STIM_017.jpg
2251.096	1.534	correct	regulate	Run3	regulate/STIM_018.jpg
2256.696	1.018	correct	regulate	Run3	regulate/STIM_018.jpg
2260.534	2.081	correct	regulate	Run3	regulate/STIM_018.jpg
2266.515	1.607	incorrect	regulate	Run3	regulate/STIM_018.jpg
2271.361	2.059	correct	regulate	Run3	regulate/STIM_019.jpg
2277.564	1.666	correct	regulate	Run3	regulate/STIM_019.jpg
2282.2	1.361	correct	regulate	Run3	regulate/STIM_019.jpg
2285.821	1.694	correct	regulate	Run3	regulate/STIM_019.jpg
2289.805	1.13	correct	regulate	Run3	regulate/STIM_020.jpg
2293.587	1.989	correct	regulate	Run3	regulate/STIM_020.jpg
2299.474	2.016	correct	regulate	Run3	regulate/STIM_020.jpg
2304.067	2.093	correct	regulate	Run3	regulate/STIM_020.jpg
2309.035	1.745	correct	regulate	Run3	regulate/STIM_021.jpg
2314.484	0.956	correct	regulate	Run3	regulate/STIM_021.jpg
2318.057	1.196	correct	regulate	Run3	regulate/STIM_021.jpg
2322.903	2.038	correct	regulate	Run3	regulate/STIM_021.jpg
2328.401	1.568	correct	regulate	Run3	regulate/STIM_022.jpg
2332.217	1.585	correct	regulate	Run3	regulate/STIM_022.jpg
2336.66	1.779	correct	regulate	Run3	regulate/STIM_022.jpg
2341.027	1.139	correct	regulate	Run3	regulate/STIM_022.jpg
2344.335	1.181	correct	regulate	Run3	regulate/STIM_023.jpg
2349.246	1.301	correct	regulate	Run3	regulate/STIM_023.jpg
2353.808	1.381	correct	regulate	Run3	regulate/STIM_023.jpg
2359.237	1.928	correct	regulate	Run3	regulate/STIM_023.jpg
2363.831	1.239	correct	regulate	Run3	regulate/STIM_024.jpg
2367.76	2.095	correct	regulate	Run3	regulate/STIM_024.jpg
2373.906	1.588	correct	regulate	Run3	regulate/STIM_024.jpg
2378.567	1.367	correct	regulate	Run3	regulate/STIM_024.jpg
2383.511	2.118	correct	regulate	Run3	regulate/STIM_025.jpg
2389.105	1.698	correct	regulate	Run3	regulate/STIM_025.jpg
2394.87	2.197	correct	regulate	Run3	regulate/STIM_025.jpg
2399.925	1.247	correct	regulate	Run3	regulate/STIM_025.jpg
2403.892	0.97	correct	regulate	Run3	regulate/STIM_026.jpg
2407.466	2.105	correct	regulate	Run3	regulate/STIM_026.jpg
2413.117	1.582	correct	regulate	Run3	regulate/STIM_026.jpg
2417.451	1.589	correct	regulate	Run3	regulate/STIM_026.jpg
2422.695	1.189	incorrect	regulate	Run3	regulate/STIM_027.jpg
2427.395	1.042	correct	regulate	Run3	regulate/STIM_027.jpg
2431.128	1.923	incorrect	regulate	Run3	regulate/STIM_027.jpg
2435.651	1.525	correct	regulate	Run3	regulate/STIM_027.jpg
2441.199	1.302	correct	regulate	Run3	regulate/STIM_028.jpg
2445.102	1.891	correct	regulate	Run3	regulate/STIM_028.jpg
2449.876	1.647	correct	regulate	Run3	regulate/STIM_028.jpg
2454.78	1.276	correct	regulate	Run3	regulate/STIM_028.jpg
2458.391	1.879	correct	regulate	Run3	regulate/STIM_029.jpg
2463.24	1.76	correct	regulate	Run3	regulate/STIM_029.jpg
2467.694	1.214	correct	regulate	Run3	regulate/STIM_029.jpg
2472.178	1.053	correct	regulate	Run3	regulate/STIM_029.jpg
2477.346	0.935	incorrect	observe	Run3	observe/STIM_000.jpg
2481.401	1.242	correct	observe	Run3	observe/STIM_000.jpg
2484.887	1.335	correct	observe	Run3	observe/STIM_000.jpg
2488.733	1.087	correct	observe	Run3	observe/STIM_000.jpg
2493.56	1.104	correct	observe	Run3	observe/STIM_001.jpg
2498.371	0.783	correct	observe	Run3	observe/STIM_001.jpg
2502.088	0.721	correct	observe	Run3	observe/STIM_001.jpg
2505.539	0.776	incorrect	observe	Run3	observe/STIM_001.jpg
2508.743	0.799	correct	observe	Run3	observe/STIM_002.jpg
2512.684	1.341	incorrect	observe	Run3	observe/STIM_002.jpg
2516.291	1.228	correct	observe	Run3	observe/STIM_002.jpg
2521.002	0.852	correct	observe	Run3	observe/STIM_002.jpg
2524.936	1.253	incorrect	observe	Run3	observe/STIM_003.jpg
2529.264	1.422	correct	observe	Run3	observe/STIM_003.jpg
2534.171	1.358	correct	observe	Run3	observe/STIM_003.jpg
2538.546	1.174	correct	observe	Run3	observe/STIM_003.jpg
2541.9	0.803	correct	observe	Run3	observe/STIM_004.jpg
2546.181	0.728	correct	observe	Run3	observe/STIM_004.jpg
2550.024	1.133	correct	observe	Run3	observe/STIM_004.jpg
2554.111	1.079	correct	observe	Run3	observe/STIM_004.jpg
2557.712	1.01	correct	observe	Run3	observe/STIM_005.jpg
2561.87	1.057	incorrect	observe	Run3	observe/STIM_005.jpg
2566.206	1.016	correct	observe	Run3	observe/STIM_005.jpg
2571.006	1.152	correct	observe	Run3	observe/STIM_005.jpg
2574.947	0.954	incorrect	observe	Run3	observe/STIM_006.jpg
2578.652	1.158	correct	observe	Run3	observe/STIM_006.jpg
2582.241	1.012	incorrect	observe	Run3	observe/STIM_006.jpg
2586.177	1.313	correct	observe	Run3	observe/STIM_006.jpg
2590.597	1.264	correct	observe	Run3	observe/STIM_007.jpg
2595.336	1.146	correct	observe	Run3	observe/STIM_007.jpg
2598.744	1.271	correct	observe	Run3	observe/STIM_007.jpg
2602.827	0.989	correct	observe	Run3	observe/STIM_007.jpg
2606.183	1.006	correct	observe	Run3	observe/STIM_008.jpg
2610.313	0.957	correct	observe	Run3	observe/STIM_008.jpg
2613.444	1.191	correct	observe	Run3	observe/STIM_008.jpg
2617.363	1.106	correct	observe	Run3	observe/STIM_008.jpg
2621.931	0.978	correct	observe	Run3	observe/STIM_009.jpg
2626.687	0.995	correct	observe	Run3	observe/STIM_009.jpg
2631.095	1.057	correct	observe	Run3	observe/STIM_009.jpg
2634.407	1.041	correct	observe	Run3	observe/STIM_009.jpg
2638.335	0.875	correct	observe	Run3	observe/STIM_010.jpg
2641.782	1.146	incorrect	observe	Run3	observe/STIM_010.jpg
2645.383	1.418	correct	observe	Run3	observe/STIM_010.jpg
2649.342	1.125	correct	observe	Run3	observe/STIM_010.jpg
2653.337	1.279	correct	observe	Run3	observe/STIM_011.jpg
2657.11	1.073	correct	observe	Run3	observe/STIM_011.jpg
2660.307	0.877	correct	observe	Run3	observe/STIM_011.jpg
2663.833	1.327	correct	observe	Run3	observe/STIM_011.jpg
2668.785	0.785	incorrect	observe	Run3	observe/STIM_012.jpg
2672.186	0.879	incorrect	observe	Run3	observe/STIM_012.jpg
2676.134	1.21	correct	observe	Run3	observe/STIM_012.jpg
2680.759	1.413	correct	observe	Run3	observe/STIM_012.jpg
2685.146	0.726	correct	observe	Run3	observe/STIM_013.jpg
2688.309	1.001	correct	observe	Run3	observe/STIM_013.jpg
2692.355	0.763	correct	observe	Run3	observe/STIM_013.jpg
2696.493	1.34	correct	observe	Run3	observe/STIM_013.jpg
2701.209	1.39	incorrect	observe	Run3	observe/STIM_014.jpg
2705.359	0.763	incorrect	observe	Run3	observe/STIM_014.jpg
2709.13	1.058	correct	observe	Run3	observe/STIM_014.jpg
2713.942	1.38	incorrect	observe	Run3	observe/STIM_014.jpg
2719.343	0.806	correct	observe	Run3	observe/STIM_015.jpg
2724.086	1.271	incorrect	observe	Run3	observe/STIM_015.jpg
2727.615	1.259	correct	observe	Run3	observe/STIM_015.jpg
2731.556	1.439	correct	observe	Run3	observe/STIM_015.jpg
2736.686	1.242	correct	observe	Run3	observe/STIM_016.jpg
2741.999	0.989	correct	observe	Run3	observe/STIM_016.jpg
2746.418	0.825	correct	observe	Run3	observe/STIM_016.jpg
2750.403	1.121	correct	observe	Run3	observe/STIM_016.jpg
2755.396	0.853	correct	observe	Run3	observe/STIM_017.jpg
2759.249	0.858	correct	observe	Run3	observe/STIM_017.jpg
2764.131	1.016	correct	observe	Run3	observe/STIM_017.jpg
2767.803	1.425	correct	observe	Run3	observe/STIM_017.jpg
2772.325	1.132	correct	observe	Run3	observe/STIM_018.jpg
2776.016	0.774	correct	observe	Run3	observe/STIM_018.jpg
2780.795	1.154	correct	observe	Run3	observe/STIM_018.jpg
2785.256	1.123	correct	observe	Run3	observe/STIM_018.jpg
2788.846	1.241	incorrect	observe	Run3	observe/STIM_019.jpg
2792.932	1.168	correct	observe	Run3	observe/STIM_019.jpg
2796.647	1.116	correct	observe	Run3	observe/STIM_019.jpg
2800.73	0.852	correct	observe	Run3	observe/STIM_019.jpg
