onset	duration	accuracy_binary	trial_type	learning_stage	stimulus
0.0	1.561	1	regulate	Run1	regulate/STIM_000.jpg
3.586	1.623	1	regulate	Run1	regulate/STIM_000.jpg
7.997	3.014	1	regulate	Run1	regulate/STIM_000.jpg
13.359	2.617	1	regulate	Run1	regulate/STIM_000.jpg
18.878	2.312	1	regulate	Run1	regulate/STIM_001.jpg
23.199	3.072	0	regulate	Run1	regulate/STIM_001.jpg
30.119	2.797	1	regulate	Run1	regulate/STIM_001.jpg
36.224	2.05	1	regulate	Run1	regulate/STIM_001.jpg
40.863	1.816	0	regulate	Run1	regulate/STIM_002.jpg
46.096	1.795	1	regulate	Run1	regulate/STIM_002.jpg
51.229	1.772	1	regulate	Run1	regulate/STIM_002.jpg
55.845	1.885	1	regulate	Run1	regulate/STIM_002.jpg
59.92	2.601	1	regulate	Run1	regulate/STIM_003.jpg
66.05	2.717	0	regulate	Run1	regulate/STIM_003.jpg
70.861	1.514	1	regulate	Run1	regulate/STIM_003.jpg
74.956	1.359	1	regulate	Run1	regulate/STIM_003.jpg
79.468	1.659	1	regulate	Run1	regulate/STIM_004.jpg
84.863	2.208	1	regulate	Run1	regulate/STIM_004.jpg
90.926	1.322	1	regulate	Run1	regulate/STIM_004.jpg
95.026	1.251	1	regulate	Run1	regulate/STIM_004.jpg
99.132	2.353	1	regulate	Run1	regulate/STIM_005.jpg
103.794	1.723	1	regulate	Run1	regulate/STIM_005.jpg
107.579	2.203	1	regulate	Run1	regulate/STIM_005.jpg
111.997	2.722	1	regulate	Run1	regulate/STIM_005.jpg
118.617	2.561	1	regulate	Run1	regulate/STIM_006.jpg
124.97	2.519	0	regulate	Run1	regulate/STIM_006.jpg
130.676	1.605	0	regulate	Run1	regulate/STIM_006.jpg
135.671	1.442	1	regulate	Run1	regulate/STIM_006.jpg
140.348	1.67	1	regulate	Run1	regulate/STIM_007.jpg
145.118	2.075	1	regulate	Run1	regulate/STIM_007.jpg
149.477	2.029	1	regulate	Run1	regulate/STIM_007.jpg
154.256	1.457	1	regulate	Run1	regulate/STIM_007.jpg
158.189	3.321	1	regulate	Run1	regulate/STIM_008.jpg
164.583	2.196	1	regulate	Run1	regulate/STIM_008.jpg
170.652	2.946	1	regulate	Run1	regulate/STIM_008.jpg
177.211	2.429	0	regulate	Run1	regulate/STIM_008.jpg
183.133	2.146	1	regulate	Run1	regulate/STIM_009.jpg
187.705	2.79	1	regulate	Run1	regulate/STIM_009.jpg
193.813	2.45	1	regulate	Run1	regulate/STIM_009.jpg
199.407	1.435	1	regulate	Run1	regulate/STIM_009.jpg
203.054	2.298	0	regulate	Run1	regulate/STIM_010.jpg
208.05	2.145	1	regulate	Run1	regulate/STIM_010.jpg
212.532	2.656	1	regulate	Run1	regulate/STIM_010.jpg
218.432	1.718	1	regulate	Run1	regulate/STIM_010.jpg
223.814	1.51	1	regulate	Run1	regulate/STIM_011.jpg
228.872	2.577	1	regulate	Run1	regulate/STIM_011.jpg
234.345	1.787	1	regulate	Run1	regulate/STIM_011.jpg
239.464	1.25	1	regulate	Run1	regulate/STIM_011.jpg
244.28	1.519	1	regulate	Run1	regulate/STIM_012.jpg
248.133	2.17	1	regulate	Run1	regulate/STIM_012.jpg
253.309	2.397	1	regulate	Run1	regulate/STIM_012.jpg
257.881	1.744	1	regulate	Run1	regulate/STIM_012.jpg
263.005	1.674	1	regulate	Run1	regulate/STIM_013.jpg
268.56	1.592	1	regulate	Run1	regulate/STIM_013.jpg
273.402	2.427	0	regulate	Run1	regulate/STIM_013.jpg
278.57	1.673	1	regulate	Run1	regulate/STIM_013.jpg
282.601	1.534	1	regulate	Run1	regulate/STIM_014.jpg
286.726	1.532	1	regulate	Run1	regulate/STIM_014.jpg
290.611	2.621	1	regulate	Run1	regulate/STIM_014.jpg
296.792	1.867	1	regulate	Run1	regulate/STIM_014.jpg
301.919	1.801	1	regulate	Run1	regulate/STIM_015.jpg
306.202	2.684	0	regulate	Run1	regulate/STIM_015.jpg
312.132	2.477	0	regulate	Run1	regulate/STIM_015.jpg
317.845	2.106	1	regulate	Run1	regulate/STIM_015.jpg
322.307	1.912	1	regulate	Run1	regulate/STIM_016.jpg
326.359	1.814	0	regulate	Run1	regulate/STIM_016.jpg
331.495	2.503	1	regulate	Run1	regulate/STIM_016.jpg
336.934	1.638	0	regulate	Run1	regulate/STIM_016.jpg
340.992	1.601	1	regulate	Run1	regulate/STIM_017.jpg
345.626	1.45	1	regulate	Run1	regulate/STIM_017.jpg
351.07	2.06	0	regulate	Run1	regulate/STIM_017.jpg
357.0	1.774	0	regulate	Run1	regulate/STIM_017.jpg
361.441	3.377	0	regulate	Run1	regulate/STIM_018.jpg
367.989	3.115	0	regulate	Run1	regulate/STIM_018.jpg
374.022	1.401	0	regulate	Run1	regulate/STIM_018.jpg
379.013	1.772	1	regulate	Run1	regulate/STIM_018.jpg
383.395	2.28	1	regulate	Run1	regulate/STIM_019.jpg
388.033	1.395	1	regulate	Run1	regulate/STIM_019.jpg
393.13	2.688	1	regulate	Run1	regulate/STIM_019.jpg
398.412	2.754	0	regulate	Run1	regulate/STIM_019.jpg
404.101	1.989	1	regulate	Run1	regulate/STIM_020.jpg
409.261	2.628	1	regulate	Run1	regulate/STIM_020.jpg
415.242	2.881	1	regulate	Run1	regulate/STIM_020.jpg
421.19	1.442	1	regulate	Run1	regulate/STIM_020.jpg
425.78	1.604	1	regulate	Run1	regulate/STIM_021.jpg
430.834	2.267	1	regulate	Run1	regulate/STIM_021.jpg
436.714	2.37	1	regulate	Run1	regulate/STIM_021.jpg
441.522	2.569	1	regulate	Run1	regulate/STIM_021.jpg
447.555	2.478	1	regulate	Run1	regulate/STIM_022.jpg
453.619	2.553	0	regulate	Run1	regulate/STIM_022.jpg
459.787	2.663	1	regulate	Run1	regulate/STIM_022.jpg
465.076	2.873	0	regulate	Run1	regulate/STIM_022.jpg
471.506	2.742	1	regulate	Run1	regulate/STIM_023.jpg
476.567	2.622	1	regulate	Run1	regulate/STIM_023.jpg
482.08	2.194	1	regulate	Run1	regulate/STIM_023.jpg
487.518	1.299	1	regulate	Run1	regulate/STIM_023.jpg
491.354	2.83	1	regulate	Run1	regulate/STIM_024.jpg
496.828	2.144	1	regulate	Run1	regulate/STIM_024.jpg
502.173	1.444	1	regulate	Run1	regulate/STIM_024.jpg
505.707	1.28	1	regulate	Run1	regulate/STIM_024.jpg
509.322	2.999	1	regulate	Run1	regulate/STIM_025.jpg
514.455	2.656	1	regulate	Run1	regulate/STIM_025.jpg
520.75	2.102	1	regulate	Run1	regulate/STIM_025.jpg
525.789	1.258	1	regulate	Run1	regulate/STIM_025.jpg
530.971	2.907	0	regulate	Run1	regulate/STIM_026.jpg
536.325	1.971	1	regulate	Run1	regulate/STIM_026.jpg
541.709	3.03	1	regulate	Run1	regulate/STIM_026.jpg
547.316	2.724	1	regulate	Run1	regulate/STIM_026.jpg
552.106	2.744	1	regulate	Run1	regulate/STIM_027.jpg
558.823	2.331	0	regulate	Run1	regulate/STIM_027.jpg
563.61	2.457	0	regulate	Run1	regulate/STIM_027.jpg
569.507	1.677	1	regulate	Run1	regulate/STIM_027.jpg
575.114	2.108	1	regulate	Run1	regulate/STIM_028.jpg
580.904	2.404	1	regulate	Run1	regulate/STIM_028.jpg
586.878	2.398	1	regulate	Run1	regulate/STIM_028.jpg
591.696	1.613	0	regulate	Run1	regulate/STIM_028.jpg
596.19	2.806	1	regulate	Run1	regulate/STIM_029.jpg
602.834	3.131	1	regulate	Run1	regulate/STIM_029.jpg
608.88	1.955	1	regulate	Run1	regulate/STIM_029.jpg
614.158	2.114	1	regulate	Run1	regulate/STIM_029.jpg
619.75	1.313	1	observe	Run1	observe/STIM_000.jpg
623.372	1.431	1	observe	Run1	observe/STIM_000.jpg
628.608	1.438	1	observe	Run1	observe/STIM_000.jpg
633.172	0.999	1	observe	Run1	observe/STIM_000.jpg
636.973	1.474	0	observe	Run1	observe/STIM_001.jpg
641.723	1.321	0	observe	Run1	observe/STIM_001.jpg
646.812	1.045	1	observe	Run1	observe/STIM_001.jpg
651.589	1.474	1	observe	Run1	observe/STIM_001.jpg
656.924	1.194	1	observe	Run1	observe/STIM_002.jpg
660.807	1.216	1	observe	Run1	observe/STIM_002.jpg
665.755	1.048	1	observe	Run1	observe/STIM_002.jpg
670.303	0.916	1	observe	Run1	observe/STIM_002.jpg
674.867	1.378	0	observe	Run1	observe/STIM_003.jpg
679.155	1.476	1	observe	Run1	observe/STIM_003.jpg
684.041	1.098	0	observe	Run1	observe/STIM_003.jpg
687.488	1.013	1	observe	Run1	observe/STIM_003.jpg
691.443	1.369	1	observe	Run1	observe/STIM_004.jpg
694.818	0.93	1	observe	Run1	observe/STIM_004.jpg
699.555	0.972	1	observe	Run1	observe/STIM_004.jpg
704.357	1.166	0	observe	Run1	observe/STIM_004.jpg
708.438	1.135	1	observe	Run1	observe/STIM_005.jpg
713.038	1.498	0	observe	Run1	observe/STIM_005.jpg
718.157	1.061	0	observe	Run1	observe/STIM_005.jpg
721.925	1.518	1	observe	Run1	observe/STIM_005.jpg
726.621	1.424	1	observe	Run1	observe/STIM_006.jpg
731.861	1.497	1	observe	Run1	observe/STIM_006.jpg
736.046	0.823	0	observe	Run1	observe/STIM_006.jpg
739.137	1.471	1	observe	Run1	observe/STIM_006.jpg
743.772	0.799	1	observe	Run1	observe/STIM_007.jpg
747.136	0.971	0	observe	Run1	observe/STIM_007.jpg
750.388	1.475	1	observe	Run1	observe/STIM_007.jpg
754.989	1.489	1	observe	Run1	observe/STIM_007.jpg
758.654	0.958	1	observe	Run1	observe/STIM_008.jpg
762.231	1.207	0	observe	Run1	observe/STIM_008.jpg
767.104	1.458	1	observe	Run1	observe/STIM_008.jpg
772.488	0.961	1	observe	Run1	observe/STIM_008.jpg
775.955	1.49	0	observe	Run1	observe/STIM_009.jpg
781.012	0.803	0	observe	Run1	observe/STIM_009.jpg
784.645	1.326	1	observe	Run1	observe/STIM_009.jpg
788.858	0.784	1	observe	Run1	observe/STIM_009.jpg
791.827	0.787	1	observe	Run1	observe/STIM_010.jpg
794.817	1.538	1	observe	Run1	observe/STIM_010.jpg
798.784	1.36	1	observe	Run1	observe/STIM_010.jpg
803.255	0.781	1	observe	Run1	observe/STIM_010.jpg
806.646	1.161	1	observe	Run1	observe/STIM_011.jpg
811.215	1.338	1	observe	Run1	observe/STIM_011.jpg
814.644	0.961	1	observe	Run1	observe/STIM_011.jpg
819.272	1.126	1	observe	Run1	observe/STIM_011.jpg
824.225	1.363	1	observe	Run1	observe/STIM_012.jpg
828.531	0.873	1	observe	Run1	observe/STIM_012.jpg
832.529	0.953	1	observe	Run1	observe/STIM_012.jpg
836.778	0.896	1	observe	Run1	observe/STIM_012.jpg
839.844	1.131	1	observe	Run1	observe/STIM_013.jpg
844.559	1.246	1	observe	Run1	observe/STIM_013.jpg
848.527	1.351	1	observe	Run1	observe/STIM_013.jpg
851.896	1.511	1	observe	Run1	observe/STIM_013.jpg
855.502	1.348	1	observe	Run1	observe/STIM_014.jpg
859.637	1.031	0	observe	Run1	observe/STIM_014.jpg
863.674	1.23	0	observe	Run1	observe/STIM_014.jpg
867.951	0.881	0	observe	Run1	observe/STIM_014.jpg
871.586	1.012	1	observe	Run1	observe/STIM_015.jpg
874.904	1.394	1	observe	Run1	observe/STIM_015.jpg
878.934	1.254	0	observe	Run1	observe/STIM_015.jpg
883.037	0.913	1	observe	Run1	observe/STIM_015.jpg
887.63	1.253	1	observe	Run1	observe/STIM_016.jpg
890.948	1.15	1	observe	Run1	observe/STIM_016.jpg
895.991	1.539	1	observe	Run1	observe/STIM_016.jpg
900.054	1.456	1	observe	Run1	observe/STIM_016.jpg
904.245	1.197	1	observe	Run1	observe/STIM_017.jpg
908.983	1.355	1	observe	Run1	observe/STIM_017.jpg
914.092	1.05	1	observe	Run1	observe/STIM_017.jpg
917.736	1.185	0	observe	Run1	observe/STIM_017.jpg
921.699	1.32	1	observe	Run1	observe/STIM_018.jpg
925.942	0.853	1	observe	Run1	observe/STIM_018.jpg
929.585	1.109	0	observe	Run1	observe/STIM_018.jpg
934.066	0.929	0	observe	Run1	observe/STIM_018.jpg
938.621	0.864	1	observe	Run1	observe/STIM_019.jpg
941.92	1.141	0	observe	Run1	observe/STIM_019.jpg
945.513	0.808	1	observe	Run1	observe/STIM_019.jpg
950.201	1.297	0	observe	Run1	observe/STIM_019.jpg
954.161	1.689	1	regulate	Run2	regulate/STIM_000.jpg
959.454	2.342	1	regulate	Run2	regulate/STIM_000.jpg
965.193	2.45	0	regulate	Run2	regulate/STIM_000.jpg
971.566	2.136	1	regulate	Run2	regulate/STIM_000.jpg
976.12	1.289	0	regulate	Run2	regulate/STIM_001.jpg
979.623	1.571	1	regulate	Run2	regulate/STIM_001.jpg
983.71	2.481	1	regulate	Run2	regulate/STIM_001.jpg
989.591	2.333	1	regulate	Run2	regulate/STIM_001.jpg
994.838	1.577	0	regulate	Run2	regulate/STIM_002.jpg
998.666	2.114	0	regulate	Run2	regulate/STIM_002.jpg
1002.969	2.274	1	regulate	Run2	regulate/STIM_002.jpg
1007.266	2.057	1	regulate	Run2	regulate/STIM_002.jpg
1011.677	1.576	1	regulate	Run2	regulate/STIM_003.jpg
1016.875	1.712	1	regulate	Run2	regulate/STIM_003.jpg
1021.653	1.823	1	regulate	Run2	regulate/STIM_003.jpg
1025.801	1.806	1	regulate	Run2	regulate/STIM_003.jpg
1031.363	2.035	1	regulate	Run2	regulate/STIM_004.jpg
1036.462	1.396	0	regulate	Run2	regulate/STIM_004.jpg
1040.521	2.257	1	regulate	Run2	regulate/STIM_004.jpg
1044.985	1.941	1	regulate	Run2	regulate/STIM_004.jpg
1049.195	2.256	0	regulate	Run2	regulate/STIM_005.jpg
1054.317	2.584	1	regulate	Run2	regulate/STIM_005.jpg
1060.248	1.994	1	regulate	Run2	regulate/STIM_005.jpg
1064.987	1.914	1	regulate	Run2	regulate/STIM_005.jpg
1070.478	1.882	1	regulate	Run2	regulate/STIM_006.jpg
1074.956	2.426	1	regulate	Run2	regulate/STIM_006.jpg
1079.625	1.367	1	regulate	Run2	regulate/STIM_006.jpg
1083.56	1.798	1	regulate	Run2	regulate/STIM_006.jpg
1088.462	2.505	1	regulate	Run2	regulate/STIM_007.jpg
1094.159	2.301	1	regulate	Run2	regulate/STIM_007.jpg
1099.361	1.868	1	regulate	Run2	regulate/STIM_007.jpg
1103.734	1.397	1	regulate	Run2	regulate/STIM_007.jpg
1107.918	1.897	1	regulate	Run2	regulate/STIM_008.jpg
1112.652	1.575	1	regulate	Run2	regulate/STIM_008.jpg
1118.14	1.354	1	regulate	Run2	regulate/STIM_008.jpg
1122.234	1.53	0	regulate	Run2	regulate/STIM_008.jpg
1126.036	2.761	1	regulate	Run2	regulate/STIM_009.jpg
1132.517	1.424	0	regulate	Run2	regulate/STIM_009.jpg
1137.272	1.729	1	regulate	Run2	regulate/STIM_009.jpg
1141.21	1.303	0	regulate	Run2	regulate/STIM_009.jpg
1145.82	1.959	1	regulate	Run2	regulate/STIM_010.jpg
1150.937	1.7	0	regulate	Run2	regulate/STIM_010.jpg
1156.316	2.208	1	regulate	Run2	regulate/STIM_010.jpg
1161.784	1.607	1	regulate	Run2	regulate/STIM_010.jpg
1165.448	2.228	1	regulate	Run2	regulate/STIM_011.jpg
1170.762	1.628	1	regulate	Run2	regulate/STIM_011.jpg
1175.682	1.92	1	regulate	Run2	regulate/STIM_011.jpg
1180.262	1.738	0	regulate	Run2	regulate/STIM_011.jpg
1185.551	1.606	1	regulate	Run2	regulate/STIM_012.jpg
1190.943	1.522	1	regulate	Run2	regulate/STIM_012.jpg
1194.836	1.238	1	regulate	Run2	regulate/STIM_012.jpg
1198.21	1.21	0	regulate	Run2	regulate/STIM_012.jpg
1202.237	2.806	1	regulate	Run2	regulate/STIM_013.jpg
1208.26	1.992	1	regulate	Run2	regulate/STIM_013.jpg
1213.006	1.972	1	regulate	Run2	regulate/STIM_013.jpg
1218.379	1.198	1	regulate	Run2	regulate/STIM_013.jpg
1221.696	1.831	0	regulate	Run2	regulate/STIM_014.jpg
1227.029	2.708	0	regulate	Run2	regulate/STIM_014.jpg
1232.678	1.198	1	regulate	Run2	regulate/STIM_014.jpg
1236.526	1.425	1	regulate	Run2	regulate/STIM_014.jpg
1240.955	1.991	1	regulate	Run2	regulate/STIM_015.jpg
1246.882	2.677	1	regulate	Run2	regulate/STIM_015.jpg
1252.064	1.973	1	regulate	Run2	regulate/STIM_015.jpg
1257.011	1.729	1	regulate	Run2	regulate/STIM_015.jpg
1261.948	2.319	0	regulate	Run2	regulate/STIM_016.jpg
1266.543	2.207	0	regulate	Run2	regulate/STIM_016.jpg
1271.957	1.554	1	regulate	Run2	regulate/STIM_016.jpg
1277.042	2.033	1	regulate	Run2	regulate/STIM_016.jpg
1281.807	1.847	1	regulate	Run2	regulate/STIM_017.jpg
1286.748	2.513	1	regulate	Run2	regulate/STIM_017.jpg
1292.393	1.18	1	regulate	Run2	regulate/STIM_017.jpg
1296.341	1.796	1	regulate	Run2	regulate/STIM_017.jpg
1301.588	1.265	1	regulate	Run2	regulate/STIM_018.jpg
1305.602	2.218	1	regulate	Run2	regulate/STIM_018.jpg
1309.922	1.656	1	regulate	Run2	regulate/STIM_018.jpg
1314.189	1.551	1	regulate	Run2	regulate/STIM_018.jpg
1319.217	1.542	1	regulate	Run2	regulate/STIM_019.jpg
1323.425	1.903	0	regulate	Run2	regulate/STIM_019.jpg
1329.057	1.518	0	regulate	Run2	regulate/STIM_019.jpg
1333.364	2.077	1	regulate	Run2	regulate/STIM_019.jpg
1338.565	1.296	0	regulate	Run2	regulate/STIM_020.jpg
1343.495	1.255	1	regulate	Run2	regulate/STIM_020.jpg
1347.813	1.909	1	regulate	Run2	regulate/STIM_020.jpg
1353.561	1.279	1	regulate	Run2	regulate/STIM_020.jpg
1357.45	2.373	1	regulate	Run2	regulate/STIM_021.jpg
1363.527	1.876	1	regulate	Run2	regulate/STIM_021.jpg
1367.671	1.23	1	regulate	Run2	regulate/STIM_021.jpg
1371.885	2.205	1	regulate	Run2	regulate/STIM_021.jpg
1376.271	2.384	1	regulate	Run2	regulate/STIM_022.jpg
1382.058	1.315	0	regulate	Run2	regulate/STIM_022.jpg
1385.856	1.816	1	regulate	Run2	regulate/STIM_022.jpg
1391.084	1.654	1	regulate	Run2	regulate/STIM_022.jpg
1395.484	2.442	1	regulate	Run2	regulate/STIM_023.jpg
1400.34	1.29	1	regulate	Run2	regulate/STIM_023.jpg
1404.181	1.351	1	regulate	Run2	regulate/STIM_023.jpg
1408.204	1.273	1	regulate	Run2	regulate/STIM_023.jpg
1412.604	2.065	1	regulate	Run2	regulate/STIM_024.jpg
1418.191	1.656	1	regulate	Run2	regulate/STIM_024.jpg
1422.439	1.35	1	regulate	Run2	regulate/STIM_024.jpg
1427.094	1.587	1	regulate	Run2	regulate/STIM_024.jpg
1432.161	2.309	1	regulate	Run2	regulate/STIM_025.jpg
1437.627	1.506	1	regulate	Run2	regulate/STIM_025.jpg
1442.785	1.973	1	regulate	Run2	regulate/STIM_025.jpg
1448.173	1.191	1	regulate	Run2	regulate/STIM_025.jpg
1451.476	2.303	1	regulate	Run2	regulate/STIM_026.jpg
1456.065	2.209	1	regulate	Run2	regulate/STIM_026.jpg
1460.414	2.45	1	regulate	Run2	regulate/STIM_026.jpg
1466.568	1.451	1	regulate	Run2	regulate/STIM_026.jpg
1471.981	1.964	1	regulate	Run2	regulate/STIM_027.jpg
1477.637	1.253	1	regulate	Run2	regulate/STIM_027.jpg
1481.688	2.541	1	regulate	Run2	regulate/STIM_027.jpg
1487.114	1.577	1	regulate	Run2	regulate/STIM_027.jpg
1492.353	1.386	1	regulate	Run2	regulate/STIM_028.jpg
1496.932	1.406	0	regulate	Run2	regulate/STIM_028.jpg
1501.255	1.344	0	regulate	Run2	regulate/STIM_028.jpg
1505.269	1.483	1	regulate	Run2	regulate/STIM_028.jpg
1510.68	2.716	1	regulate	Run2	regulate/STIM_029.jpg
1516.415	1.814	1	regulate	Run2	regulate/STIM_029.jpg
1520.495	2.377	1	regulate	Run2	regulate/STIM_029.jpg
1525.978	1.057	0	regulate	Run2	regulate/STIM_029.jpg
1529.959	1.343	1	observe	Run2	observe/STIM_000.jpg
1534.506	1.385	0	observe	Run2	observe/STIM_000.jpg
1539.78	1.186	1	observe	Run2	observe/STIM_000.jpg
1543.908	0.964	0	observe	Run2	observe/STIM_000.jpg
1548.013	0.891	1	observe	Run2	observe/STIM_001.jpg
1551.785	1.277	1	observe	Run2	observe/STIM_001.jpg
1556.867	1.131	0	observe	Run2	observe/STIM_001.jpg
1561.807	1.43	1	observe	Run2	observe/STIM_001.jpg
1565.515	0.953	1	observe	Run2	observe/STIM_002.jpg
1569.533	1.413	1	observe	Run2	observe/STIM_002.jpg
1574.504	1.146	1	observe	Run2	observe/STIM_002.jpg
1579.061	1.018	1	observe	Run2	observe/STIM_002.jpg
1583.662	0.895	0	observe	Run2	observe/STIM_003.jpg
1587.694	0.816	0	observe	Run2	observe/STIM_003.jpg
1591.77	1.21	1	observe	Run2	observe/STIM_003.jpg
1596.933	1.513	0	observe	Run2	observe/STIM_003.jpg
1602.166	1.351	1	observe	Run2	observe/STIM_004.jpg
1607.04	1.175	1	observe	Run2	observe/STIM_004.jpg
1611.672	1.548	1	observe	Run2	observe/STIM_004.jpg
1615.945	0.882	1	observe	Run2	observe/STIM_004.jpg
1620.0	1.137	1	observe	Run2	observe/STIM_005.jpg
1623.438	0.903	1	observe	Run2	observe/STIM_005.jpg
1627.224	1.067	1	observe	Run2	observe/STIM_005.jpg
1632.138	1.318	1	observe	Run2	observe/STIM_005.jpg
1636.009	1.008	1	observe	Run2	observe/STIM_006.jpg
1639.103	1.454	1	observe	Run2	observe/STIM_006.jpg
1643.689	1.505	0	observe	Run2	observe/STIM_006.jpg
1648.585	1.097	1	observe	Run2	observe/STIM_006.jpg
1651.711	1.516	1	observe	Run2	observe/STIM_007.jpg
1655.551	1.305	1	observe	Run2	observe/STIM_007.jpg
1659.711	1.528	0	observe	Run2	observe/STIM_007.jpg
1664.369	1.086	0	observe	Run2	observe/STIM_007.jpg
1669.395	1.515	1	observe	Run2	observe/STIM_008.jpg
1674.413	1.171	1	observe	Run2	observe/STIM_008.jpg
1678.497	1.322	1	observe	Run2	observe/STIM_008.jpg
1682.262	1.283	1	observe	Run2	observe/STIM_008.jpg
1685.561	0.826	1	observe	Run2	observe/STIM_009.jpg
1690.284	1.519	1	observe	Run2	observe/STIM_009.jpg
1695.58	1.146	1	observe	Run2	observe/STIM_009.jpg
1700.201	1.105	0	observe	Run2	observe/STIM_009.jpg
1703.751	1.449	1	observe	Run2	observe/STIM_010.jpg
1707.304	1.43	1	observe	Run2	observe/STIM_010.jpg
1712.221	1.046	0	observe	Run2	observe/STIM_010.jpg
1716.577	1.3	1	observe	Run2	observe/STIM_010.jpg
1720.14	0.943	0	observe	Run2	observe/STIM_011.jpg
1723.452	1.237	0	observe	Run2	observe/STIM_011.jpg
1727.411	1.028	1	observe	Run2	observe/STIM_011.jpg
1731.989	1.205	1	observe	Run2	observe/STIM_011.jpg
1736.173	1.194	1	observe	Run2	observe/STIM_012.jpg
1739.581	0.954	1	observe	Run2	observe/STIM_012.jpg
1744.262	1.034	1	observe	Run2	observe/STIM_012.jpg
1748.668	1.208	1	observe	Run2	observe/STIM_012.jpg
1753.388	0.903	1	observe	Run2	observe/STIM_013.jpg
1757.998	1.022	1	observe	Run2	observe/STIM_013.jpg
1761.737	1.375	1	observe	Run2	observe/STIM_013.jpg
1765.506	1.32	1	observe	Run2	observe/STIM_013.jpg
1769.471	1.192	0	observe	Run2	observe/STIM_014.jpg
1774.61	0.816	1	observe	Run2	observe/STIM_014.jpg
1777.713	1.045	1	observe	Run2	observe/STIM_014.jpg
1781.776	1.132	1	observe	Run2	observe/STIM_014.jpg
1786.572	1.026	1	observe	Run2	observe/STIM_015.jpg
1790.806	1.469	1	observe	Run2	observe/STIM_015.jpg
1795.455	1.543	1	observe	Run2	observe/STIM_015.jpg
1799.96	0.949	1	observe	Run2	observe/STIM_015.jpg
1804.287	0.776	0	observe	Run2	observe/STIM_016.jpg
1808.167	0.821	1	observe	Run2	observe/STIM_016.jpg
1811.709	1.481	0	observe	Run2	observe/STIM_016.jpg
1815.595	1.278	1	observe	Run2	observe/STIM_016.jpg
1818.931	0.975	0	observe	Run2	observe/STIM_017.jpg
1823.129	1.425	1	observe	Run2	observe/STIM_017.jpg
1827.7	1.013	0	observe	Run2	observe/STIM_017.jpg
1832.093	0.819	1	observe	Run2	observe/STIM_017.jpg
1835.109	1.232	1	observe	Run2	observe/STIM_018.jpg
1838.897	1.476	1	observe	Run2	observe/STIM_018.jpg
1842.798	1.457	1	observe	Run2	observe/STIM_018.jpg
1847.952	1.153	0	observe	Run2	observe/STIM_018.jpg
1851.594	0.979	1	observe	Run2	observe/STIM_019.jpg
1855.968	1.045	1	observe	Run2	observe/STIM_019.jpg
1860.431	1.411	1	observe	Run2	observe/STIM_019.jpg
1865.371	1.542	1	observe	Run2	observe/STIM_019.jpg
1869.319	1.608	1	regulate	Run3	regulate/STIM_000.jpg
1873.735	1.105	1	regulate	Run3	regulate/STIM_000.jpg
1877.153	1.632	1	regulate	Run3	regulate/STIM_000.jpg
1880.944	1.424	1	regulate	Run3	regulate/STIM_000.jpg
1884.925	1.164	1	regulate	Run3	regulate/STIM_001.jpg
1889.724	2.342	1	regulate	Run3	regulate/STIM_001.jpg
1895.993	1.818	1	regulate	Run3	regulate/STIM_001.jpg
1901.328	2.246	0	regulate	Run3	regulate/STIM_001.jpg
1906.687	2.154	1	regulate	Run3	regulate/STIM_002.jpg
1911.509	1.9	1	regulate	Run3	regulate/STIM_002.jpg
1916.861	1.322	1	regulate	Run3	regulate/STIM_002.jpg
1921.527	1.324	1	regulate	Run3	regulate/STIM_002.jpg
1925.638	1.283	1	regulate	Run3	regulate/STIM_003.jpg
1930.122	1.765	1	regulate	Run3	regulate/STIM_003.jpg
1934.206	1.201	0	regulate	Run3	regulate/STIM_003.jpg
1938.384	1.343	1	regulate	Run3	regulate/STIM_003.jpg
1941.895	1.75	1	regulate	Run3	regulate/STIM_004.jpg
1947.352	2.13	0	regulate	Run3	regulate/STIM_004.jpg
1951.945	1.582	1	regulate	Run3	regulate/STIM_004.jpg
1955.804	1.615	1	regulate	Run3	regulate/STIM_004.jpg
1961.229	2.217	1	regulate	Run3	regulate/STIM_005.jpg
1965.695	1.67	1	regulate	Run3	regulate/STIM_005.jpg
1970.899	1.424	1	regulate	Run3	regulate/STIM_005.jpg
1976.226	1.868	1	regulate	Run3	regulate/STIM_005.jpg
1980.716	1.71	1	regulate	Run3	regulate/STIM_006.jpg
1985.369	2.225	1	regulate	Run3	regulate/STIM_006.jpg
1990.164	1.552	1	regulate	Run3	regulate/STIM_006.jpg
1994.314	1.739	1	regulate	Run3	regulate/STIM_006.jpg
1998.92	2.08	1	regulate	Run3	regulate/STIM_007.jpg
2003.133	1.377	1	regulate	Run3	regulate/STIM_007.jpg
2006.629	1.273	0	regulate	Run3	regulate/STIM_007.jpg
2010.046	1.229	1	regulate	Run3	regulate/STIM_007.jpg
2014.62	2.226	1	regulate	Run3	regulate/STIM_008.jpg
2020.704	2.096	1	regulate	Run3	regulate/STIM_008.jpg
2025.777	2.29	1	regulate	Run3	regulate/STIM_008.jpg
2031.926	1.91	1	regulate	Run3	regulate/STIM_008.jpg
2036.144	1.79	1	regulate	Run3	regulate/STIM_009.jpg
2040.194	2.192	0	regulate	Run3	regulate/STIM_009.jpg
2044.514	2.096	1	regulate	Run3	regulate/STIM_009.jpg
2048.727	1.24	1	regulate	Run3	regulate/STIM_009.jpg
2053.564	1.383	1	regulate	Run3	regulate/STIM_010.jpg
2057.196	1.849	1	regulate	Run3	regulate/STIM_010.jpg
2063.014	1.942	1	regulate	Run3	regulate/STIM_010.jpg
2067.33	1.152	1	regulate	Run3	regulate/STIM_010.jpg
2071.643	2.298	0	regulate	Run3	regulate/STIM_011.jpg
2077.631	1.538	1	regulate	Run3	regulate/STIM_011.jpg
2081.933	1.46	1	regulate	Run3	regulate/STIM_011.jpg
2087.156	1.238	1	regulate	Run3	regulate/STIM_011.jpg
2090.957	1.992	0	regulate	Run3	regulate/STIM_012.jpg
2095.285	1.502	1	regulate	Run3	regulate/STIM_012.jpg
2099.791	1.152	0	regulate	Run3	regulate/STIM_012.jpg
2104.717	1.472	1	regulate	Run3	regulate/STIM_012.jpg
2109.715	1.559	1	regulate	Run3	regulate/STIM_013.jpg
2113.63	1.52	1	regulate	Run3	regulate/STIM_013.jpg
2117.504	1.057	1	regulate	Run3	regulate/STIM_013.jpg
2121.239	2.162	1	regulate	Run3	regulate/STIM_013.jpg
2127.084	1.094	1	regulate	Run3	regulate/STIM_014.jpg
2131.335	2.129	1	regulate	Run3	regulate/STIM_014.jpg
2135.948	1.242	1	regulate	Run3	regulate/STIM_014.jpg
2140.362	2.12	1	regulate	Run3	regulate/STIM_014.jpg
2146.149	2.212	1	regulate	Run3	regulate/STIM_015.jpg
2150.386	2.15	1	regulate	Run3	regulate/STIM_015.jpg
2156.132	2.079	1	regulate	Run3	regulate/STIM_015.jpg
2161.798	1.713	1	regulate	Run3	regulate/STIM_015.jpg
2166.773	1.324	1	regulate	Run3	regulate/STIM_016.jpg
2171.752	1.754	1	regulate	Run3	regulate/STIM_016.jpg
2177.42	1.925	1	regulate	Run3	regulate/STIM_016.jpg
2183.174	1.038	1	regulate	Run3	regulate/STIM_016.jpg
2187.379	1.215	1	regulate	Run3	regulate/STIM_017.jpg
2190.909	2.284	1	regulate	Run3	regulate/STIM_017.jpg
2195.624	2.16	1	regulate	Run3	regulate/STIM_017.jpg
2201.171	2.323	1	regulate	Run3	regulate/STIM_017.jpg
2207.182	1.878	1	regulate	Run3	regulate/STIM_018.jpg
2211.116	2.116	1	regulate	Run3	regulate/STIM_018.jpg
2216.796	1.229	1	regulate	Run3	regulate/STIM_018.jpg
2221.86	2.363	0	regulate	Run3	regulate/STIM_018.jpg
2227.567	2.248	0	regulate	Run3	regulate/STIM_019.jpg
2233.67	1.862	1	regulate	Run3	regulate/STIM_019.jpg
2238.03	1.916	1	regulate	Run3	regulate/STIM_019.jpg
2242.984	1.182	1	regulate	Run3	regulate/STIM_019.jpg
2247.948	1.341	1	regulate	Run3	regulate/STIM_020.jpg
2252.467	1.663	1	regulate	Run3	regulate/STIM_020.jpg
2257.574	1.53	1	regulate	Run3	regulate/STIM_020.jpg
2261.525	1.08	1	regulate	Run3	regulate/STIM_020.jpg
2266.541	2.242	1	regulate	Run3	regulate/STIM_021.jpg
2271.948	1.549	1	regulate	Run3	regulate/STIM_021.jpg
2275.739	1.819	1	regulate	Run3	regulate/STIM_021.jpg
2280.356	2.246	1	regulate	Run3	regulate/STIM_021.jpg
2285.433	1.048	1	regulate	Run3	regulate/STIM_022.jpg
2289.196	2.344	1	regulate	Run3	regulate/STIM_022.jpg
2293.765	1.444	1	regulate	Run3	regulate/STIM_022.jpg
2299.009	1.133	1	regulate	Run3	regulate/STIM_022.jpg
2302.702	1.54	1	regulate	Run3	regulate/STIM_023.jpg
2307.728	1.7	1	regulate	Run3	regulate/STIM_023.jpg
2312.771	1.868	1	regulate	Run3	regulate/STIM_023.jpg
2318.418	2.242	1	regulate	Run3	regulate/STIM_023.jpg
2324.357	2.23	1	regulate	Run3	regulate/STIM_024.jpg
2330.478	1.225	1	regulate	Run3	regulate/STIM_024.jpg
2334.45	2.231	1	regulate	Run3	regulate/STIM_024.jpg
2340.096	1.106	1	regulate	Run3	regulate/STIM_024.jpg
2344.753	2.222	1	regulate	Run3	regulate/STIM_025.jpg
2350.653	1.108	1	regulate	Run3	regulate/STIM_025.jpg
2353.809	1.773	1	regulate	Run3	regulate/STIM_025.jpg
2359.162	1.327	1	regulate	Run3	regulate/STIM_025.jpg
2363.343	1.053	1	regulate	Run3	regulate/STIM_026.jpg
2368.343	2.197	1	regulate	Run3	regulate/STIM_026.jpg
2374.244	1.735	0	regulate	Run3	regulate/STIM_026.jpg
2379.495	1.228	1	regulate	Run3	regulate/STIM_026.jpg
2384.22	2.194	0	regulate	Run3	regulate/STIM_027.jpg
2390.411	1.91	1	regulate	Run3	regulate/STIM_027.jpg
2394.393	2.026	0	regulate	Run3	regulate/STIM_027.jpg
2399.724	1.025	1	regulate	Run3	regulate/STIM_027.jpg
2404.715	1.588	1	regulate	Run3	regulate/STIM_028.jpg
2410.022	2.248	1	regulate	Run3	regulate/STIM_028.jpg
2414.422	1.995	0	regulate	Run3	regulate/STIM_028.jpg
2419.32	1.176	1	regulate	Run3	regulate/STIM_028.jpg
2422.78	2.224	1	regulate	Run3	regulate/STIM_029.jpg
2428.594	1.921	1	regulate	Run3	regulate/STIM_029.jpg
2434.057	2.068	1	regulate	Run3	regulate/STIM_029.jpg
2439.186	2.261	1	regulate	Run3	regulate/STIM_029.jpg
2444.164	1.448	0	observe	Run3	observe/STIM_000.jpg
2448.954	1.272	1	observe	Run3	observe/STIM_000.jpg
2453.316	1.518	1	observe	Run3	observe/STIM_000.jpg
2457.067	1.227	1	observe	Run3	observe/STIM_000.jpg
2461.957	1.37	1	observe	Run3	observe/STIM_001.jpg
2466.105	1.509	1	observe	Run3	observe/STIM_001.jpg
2471.192	1.514	1	observe	Run3	observe/STIM_001.jpg
2475.639	1.184	0	observe	Run3	observe/STIM_001.jpg
2480.045	0.936	1	observe	Run3	observe/STIM_002.jpg
2484.039	1.079	0	observe	Run3	observe/STIM_002.jpg
2489.026	1.279	1	observe	Run3	observe/STIM_002.jpg
2492.966	0.895	1	observe	Run3	observe/STIM_002.jpg
2496.021	1.084	0	observe	Run3	observe/STIM_003.jpg
2500.746	0.883	1	observe	Run3	observe/STIM_003.jpg
2505.46	0.806	1	observe	Run3	observe/STIM_003.jpg
2508.856	0.931	1	observe	Run3	observe/STIM_003.jpg
2512.22	1.166	1	observe	Run3	observe/STIM_004.jpg
2516.497	1.037	1	observe	Run3	observe/STIM_004.jpg
2520.273	1.544	1	observe	Run3	observe/STIM_004.jpg
2524.335	0.968	1	observe	Run3	observe/STIM_004.jpg
2528.269	0.931	1	observe	Run3	observe/STIM_005.jpg
2532.251	1.458	0	observe	Run3	observe/STIM_005.jpg
2536.922	1.174	1	observe	Run3	observe/STIM_005.jpg
2540.377	1.13	1	observe	Run3	observe/STIM_005.jpg
2543.947	1.11	0	observe	Run3	observe/STIM_006.jpg
2547.631	0.962	1	observe	Run3	observe/STIM_006.jpg
2552.396	1.226	0	observe	Run3	observe/STIM_006.jpg
2556.057	0.792	1	observe	Run3	observe/STIM_006.jpg
2559.358	1.357	1	observe	Run3	observe/STIM_007.jpg
2564.076	1.288	1	observe	Run3	observe/STIM_007.jpg
2568.281	0.984	1	observe	Run3	observe/STIM_007.jpg
2571.774	1.222	1	observe	Run3	observe/STIM_007.jpg
2575.888	1.523	1	observe	Run3	observe/STIM_008.jpg
2580.633	1.341	1	observe	Run3	observe/STIM_008.jpg
2584.161	0.877	1	observe	Run3	observe/STIM_008.jpg
2587.204	1.477	1	observe	Run3	observe/STIM_008.jpg
2590.977	1.267	1	observe	Run3	observe/STIM_009.jpg
2594.997	1.512	1	observe	Run3	observe/STIM_009.jpg
2599.086	1.017	0	observe	Run3	observe/STIM_009.jpg
2602.777	1.209	1	observe	Run3	observe/STIM_009.jpg
2607.894	0.802	1	observe	Run3	observe/STIM_010.jpg
2612.312	0.838	0	observe	Run3	observe/STIM_010.jpg
2615.661	0.878	1	observe	Run3	observe/STIM_010.jpg
2619.455	1.217	1	observe	Run3	observe/STIM_010.jpg
2623.425	0.934	1	observe	Run3	observe/STIM_011.jpg
2627.089	1.221	1	observe	Run3	observe/STIM_011.jpg
2630.994	0.95	1	observe	Run3	observe/STIM_011.jpg
2635.708	0.892	1	observe	Run3	observe/STIM_011.jpg
2640.46	0.824	0	observe	Run3	observe/STIM_012.jpg
2643.581	1.312	0	observe	Run3	observe/STIM_012.jpg
2647.015	0.968	1	observe	Run3	observe/STIM_012.jpg
2650.255	0.865	1	observe	Run3	observe/STIM_012.jpg
2654.091	1.33	1	observe	Run3	observe/STIM_013.jpg
2658.125	0.935	1	observe	Run3	observe/STIM_013.jpg
2661.803	0.959	1	observe	Run3	observe/STIM_013.jpg
2665.383	1.098	1	observe	Run3	observe/STIM_013.jpg
2669.854	1.348	0	observe	Run3	observe/STIM_014.jpg
2674.838	1.236	0	observe	Run3	observe/STIM_014.jpg
2679.503	1.418	1	observe	Run3	observe/STIM_014.jpg
2684.592	0.944	0	observe	Run3	observe/STIM_014.jpg
2688.591	1.54	1	observe	Run3	observe/STIM_015.jpg
2692.237	1.097	1	observe	Run3	observe/STIM_015.jpg
2696.326	0.976	1	observe	Run3	observe/STIM_015.jpg
2699.599	0.831	1	observe	Run3	observe/STIM_015.jpg
2702.875	1.073	1	observe	Run3	observe/STIM_016.jpg
2707.612	1.212	1	observe	Run3	observe/STIM_016.jpg
2712.002	0.87	1	observe	Run3	observe/STIM_016.jpg
2716.351	1.153	1	observe	Run3	observe/STIM_016.jpg
2720.926	1.364	1	observe	Run3	observe/STIM_017.jpg
2726.291	1.082	1	observe	Run3	observe/STIM_017.jpg
2731.296	1.312	1	observe	Run3	observe/STIM_017.jpg
2736.093	1.425	1	observe	Run3	observe/STIM_017.jpg
2741.302	1.025	1	observe	Run3	observe/STIM_018.jpg
2745.593	1.276	1	observe	Run3	observe/STIM_018.jpg
2749.359	1.281	1	observe	Run3	observe/STIM_018.jpg
2753.247	1.352	1	observe	Run3	observe/STIM_018.jpg
2756.898	1.131	0	observe	Run3	observe/STIM_019.jpg
2760.919	1.015	1	observe	Run3	observe/STIM_019.jpg
2765.356	1.138	1	observe	Run3	observe/STIM_019.jpg
2770.114	0.975	1	observe	Run3	observe/STIM_019.jpg
