onset	duration	response_time_ms	trial_type	learning_stage	stimulus	response_port
0.0	2.269	2268.6	regulate	Run1	regulate/STIM_000.jpg	100
4.87	2.961	2960.9	regulate	Run1	regulate/STIM_000.jpg	100
10.531	2.694	2693.5	regulate	Run1	regulate/STIM_000.jpg	100
16.353	2.152	2152.5	regulate	Run1	regulate/STIM_000.jpg	100
22.237	2.565	2564.9	regulate	Run1	regulate/STIM_001.jpg	99
27.332	1.986	1986.0	regulate	Run1	regulate/STIM_001.jpg	100
32.988	1.609	1609.0	regulate	Run1	regulate/STIM_001.jpg	100
38.653	2.635	2634.6	regulate	Run1	regulate/STIM_001.jpg	99
44.973	1.8	1800.4	regulate	Run1	regulate/STIM_002.jpg	99
48.978	1.452	1451.6	regulate	Run1	regulate/STIM_002.jpg	100
53.958	1.857	1857.4	regulate	Run1	regulate/STIM_002.jpg	99
59.564	2.475	2474.8	regulate	Run1	regulate/STIM_002.jpg	99
64.578	2.88	2879.8	regulate	Run1	regulate/STIM_003.jpg	99
70.479	2.958	2957.7	regulate	Run1	regulate/STIM_003.jpg	99
76.743	2.267	2266.8	regulate	Run1	regulate/STIM_003.jpg	100
82.097	1.207	1207.3	regulate	Run1	regulate/STIM_003.jpg	99
87.113	2.392	2392.2	regulate	Run1	regulate/STIM_004.jpg	99
92.819	1.31	1309.9	regulate	Run1	regulate/STIM_004.jpg	99
96.996	2.264	2264.3	regulate	Run1	regulate/STIM_004.jpg	100
102.963	1.733	1732.7	regulate	Run1	regulate/STIM_004.jpg	100
108.693	2.255	2255.3	regulate	Run1	regulate/STIM_005.jpg	100
113.87	1.929	1928.8	regulate	Run1	regulate/STIM_005.jpg	99
119.324	2.597	2596.8	regulate	Run1	regulate/STIM_005.jpg	99
125.388	1.707	1706.7	regulate	Run1	regulate/STIM_005.jpg	99
129.735	1.537	1537.0	regulate	Run1	regulate/STIM_006.jpg	99
133.59	2.729	2729.2	regulate	Run1	regulate/STIM_006.jpg	100
139.645	1.305	1304.7	regulate	Run1	regulate/STIM_006.jpg	100
143.622	1.694	1694.4	regulate	Run1	regulate/STIM_006.jpg	99
148.686	2.87	2869.5	regulate	Run1	regulate/STIM_007.jpg	99
155.017	2.882	2881.9	regulate	Run1	regulate/STIM_007.jpg	100
160.405	2.063	2062.8	regulate	Run1	regulate/STIM_007.jpg	99
165.44	2.493	2492.6	regulate	Run1	regulate/STIM_007.jpg	100
171.649	2.617	2616.8	regulate	Run1	regulate/STIM_008.jpg	100
177.051	2.401	2400.9	regulate	Run1	regulate/STIM_008.jpg	100
182.185	2.657	2657.0	regulate	Run1	regulate/STIM_008.jpg	100
187.854	2.26	2260.1	regulate	Run1	regulate/STIM_008.jpg	100
193.929	2.814	2814.0	regulate	Run1	regulate/STIM_009.jpg	99
200.18	2.626	2625.6	regulate	Run1	regulate/STIM_009.jpg	100
205.571	1.567	1566.6	regulate	Run1	regulate/STIM_009.jpg	100
210.424	1.256	1256.4	regulate	Run1	regulate/STIM_009.jpg	99
214.625	1.575	1575.1	regulate	Run1	regulate/STIM_010.jpg	100
219.273	1.618	1617.9	regulate	Run1	regulate/STIM_010.jpg	100
224.577	1.566	1565.5	regulate	Run1	regulate/STIM_010.jpg	99
229.114	2.059	2059.0	regulate	Run1	regulate/STIM_010.jpg	100
235.191	1.671	1671.0	regulate	Run1	regulate/STIM_011.jpg	99
239.995	2.001	2001.2	regulate	Run1	regulate/STIM_011.jpg	100
244.651	2.473	2473.4	regulate	Run1	regulate/STIM_011.jpg	99
250.392	2.589	2589.2	regulate	Run1	regulate/STIM_011.jpg	99
256.141	2.646	2646.0	regulate	Run1	regulate/STIM_012.jpg	99
261.702	2.441	2441.2	regulate	Run1	regulate/STIM_012.jpg	99
267.822	2.8	2800.3	regulate	Run1	regulate/STIM_012.jpg	100
273.434	1.577	1576.7	regulate	Run1	regulate/STIM_012.jpg	100
278.866	1.785	1784.6	regulate	Run1	regulate/STIM_013.jpg	100
283.425	1.93	1930.0	regulate	Run1	regulate/STIM_013.jpg	99
289.396	1.769	1769.4	regulate	Run1	regulate/STIM_013.jpg	100
293.755	2.167	2166.8	regulate	Run1	regulate/STIM_013.jpg	99
299.608	1.39	1390.2	regulate	Run1	regulate/STIM_014.jpg	100
304.162	2.423	2422.7	regulate	Run1	regulate/STIM_014.jpg	100
310.836	2.264	2264.4	regulate	Run1	regulate/STIM_014.jpg	99
316.922	2.636	2636.2	regulate	Run1	regulate/STIM_014.jpg	100
323.099	3.011	3011.3	regulate	Run1	regulate/STIM_015.jpg	100
329.993	2.72	2720.5	regulate	Run1	regulate/STIM_015.jpg	100
336.115	2.021	2020.7	regulate	Run1	regulate/STIM_015.jpg	100
340.558	1.88	1880.2	regulate	Run1	regulate/STIM_015.jpg	100
346.027	2.76	2760.1	regulate	Run1	regulate/STIM_016.jpg	100
352.794	2.882	2881.6	regulate	Run1	regulate/STIM_016.jpg	100
358.805	2.709	2709.4	regulate	Run1	regulate/STIM_016.jpg	99
364.383	2.017	2017.4	regulate	Run1	regulate/STIM_016.jpg	99
369.186	2.04	2040.1	regulate	Run1	regulate/STIM_017.jpg	99
374.711	2.076	2076.4	regulate	Run1	regulate/STIM_017.jpg	100
380.452	2.46	2460.1	regulate	Run1	regulate/STIM_017.jpg	100
386.264	1.346	1345.8	regulate	Run1	regulate/STIM_017.jpg	100
390.652	2.384	2383.5	regulate	Run1	regulate/STIM_018.jpg	100
396.673	2.075	2074.6	regulate	Run1	regulate/STIM_018.jpg	99
402.237	1.416	1415.6	regulate	Run1	regulate/STIM_018.jpg	100
406.735	1.564	1563.9	regulate	Run1	regulate/STIM_018.jpg	99
411.277	1.768	1768.3	regulate	Run1	regulate/STIM_019.jpg	99
416.419	2.964	2963.9	regulate	Run1	regulate/STIM_019.jpg	99
421.996	1.808	1807.7	regulate	Run1	regulate/STIM_019.jpg	100
427.017	1.763	1763.1	regulate	Run1	regulate/STIM_019.jpg	99
431.104	1.366	1365.8	regulate	Run1	regulate/STIM_020.jpg	99
435.327	2.834	2833.8	regulate	Run1	regulate/STIM_020.jpg	99
440.72	2.389	2389.1	regulate	Run1	regulate/STIM_020.jpg	99
445.645	1.582	1581.9	regulate	Run1	regulate/STIM_020.jpg	100
449.423	1.742	1742.0	regulate	Run1	regulate/STIM_021.jpg	99
454.15	2.211	2210.9	regulate	Run1	regulate/STIM_021.jpg	100
459.092	1.446	1445.5	regulate	Run1	regulate/STIM_021.jpg	99
464.516	2.415	2415.4	regulate	Run1	regulate/STIM_021.jpg	99
469.27	1.79	1789.5	regulate	Run1	regulate/STIM_022.jpg	100
474.153	2.408	2408.5	regulate	Run1	regulate/STIM_022.jpg	99
480.382	2.817	2816.6	regulate	Run1	regulate/STIM_022.jpg	99
486.643	1.531	1531.4	regulate	Run1	regulate/STIM_022.jpg	100
490.475	2.22	2220.4	regulate	Run1	regulate/STIM_023.jpg	100
495.602	1.948	1947.7	regulate	Run1	regulate/STIM_023.jpg	100
500.214	1.65	1649.8	regulate	Run1	regulate/STIM_023.jpg	99
504.92	1.783	1783.0	regulate	Run1	regulate/STIM_023.jpg	100
510.655	2.476	2475.7	regulate	Run1	regulate/STIM_024.jpg	100
517.109	2.623	2622.6	regulate	Run1	regulate/STIM_024.jpg	99
522.913	2.042	2042.5	regulate	Run1	regulate/STIM_024.jpg	100
527.355	1.862	1861.5	regulate	Run1	regulate/STIM_024.jpg	99
532.732	2.193	2193.3	regulate	Run1	regulate/STIM_025.jpg	99
537.425	2.589	2588.6	regulate	Run1	regulate/STIM_025.jpg	100
543.573	2.515	2515.2	regulate	Run1	regulate/STIM_025.jpg	99
549.733	2.458	2458.3	regulate	Run1	regulate/STIM_025.jpg	99
554.523	3.086	3086.0	regulate	Run1	regulate/STIM_026.jpg	100
561.786	2.432	2432.1	regulate	Run1	regulate/STIM_026.jpg	100
567.301	2.335	2334.6	regulate	Run1	regulate/STIM_026.jpg	100
571.934	1.934	1934.2	regulate	Run1	regulate/STIM_026.jpg	99
577.23	2.032	2031.7	regulate	Run1	regulate/STIM_027.jpg	99
582.267	1.365	1365.0	regulate	Run1	regulate/STIM_027.jpg	99
585.997	1.733	1733.0	regulate	Run1	regulate/STIM_027.jpg	99
590.937	2.404	2404.5	regulate	Run1	regulate/STIM_027.jpg	99
596.693	1.468	1468.1	regulate	Run1	regulate/STIM_028.jpg	99
601.173	2.627	2627.3	regulate	Run1	regulate/STIM_028.jpg	99
606.905	1.956	1956.5	regulate	Run1	regulate/STIM_028.jpg	99
612.603	1.995	1994.7	regulate	Run1	regulate/STIM_028.jpg	99
618.523	2.709	2709.1	regulate	Run1	regulate/STIM_029.jpg	100
624.946	2.266	2266.5	regulate	Run1	regulate/STIM_029.jpg	99
630.668	2.257	2256.6	regulate	Run1	regulate/STIM_029.jpg	99
635.879	2.46	2459.6	regulate	Run1	regulate/STIM_029.jpg	100
641.342	1.26	1260.0	observe	Run1	observe/STIM_000.jpg	99
646.716	1.295	1294.6	observe	Run1	observe/STIM_000.jpg	99
651.832	0.981	981.4	observe	Run1	observe/STIM_000.jpg	100
655.421	1.224	1223.8	observe	Run1	observe/STIM_000.jpg	100
658.93	0.749	748.7	observe	Run1	observe/STIM_001.jpg	100
661.815	0.916	916.2	observe	Run1	observe/STIM_001.jpg	100
665.207	0.986	985.5	observe	Run1	observe/STIM_001.jpg	99
669.04	0.954	953.5	observe	Run1	observe/STIM_001.jpg	99
673.639	1.187	1187.2	observe	Run1	observe/STIM_002.jpg	100
677.856	1.139	1139.2	observe	Run1	observe/STIM_002.jpg	99
681.992	0.762	761.5	observe	Run1	observe/STIM_002.jpg	100
684.893	0.896	895.6	observe	Run1	observe/STIM_002.jpg	100
689.73	1.417	1417.0	observe	Run1	observe/STIM_003.jpg	100
694.532	1.193	1192.9	observe	Run1	observe/STIM_003.jpg	100
699.803	0.814	814.4	observe	Run1	observe/STIM_003.jpg	99
704.598	1.253	1252.8	observe	Run1	observe/STIM_003.jpg	99
709.748	1.164	1164.2	observe	Run1	observe/STIM_004.jpg	100
713.335	1.258	1258.0	observe	Run1	observe/STIM_004.jpg	100
718.337	1.293	1293.1	observe	Run1	observe/STIM_004.jpg	100
723.201	0.933	933.1	observe	Run1	observe/STIM_004.jpg	99
726.952	1.36	1359.5	observe	Run1	observe/STIM_005.jpg	100
731.295	0.743	742.9	observe	Run1	observe/STIM_005.jpg	99
735.718	0.75	749.6	observe	Run1	observe/STIM_005.jpg	100
738.693	1.354	1353.8	observe	Run1	observe/STIM_005.jpg	100
744.122	0.901	901.4	observe	Run1	observe/STIM_006.jpg	100
748.852	1.382	1381.6	observe	Run1	observe/STIM_006.jpg	99
752.706	1.142	1142.5	observe	Run1	observe/STIM_006.jpg	100
757.732	1.415	1415.4	observe	Run1	observe/STIM_006.jpg	99
762.306	1.043	1043.4	observe	Run1	observe/STIM_007.jpg	99
765.979	1.024	1024.5	observe	Run1	observe/STIM_007.jpg	100
771.102	1.128	1127.8	observe	Run1	observe/STIM_007.jpg	100
774.389	1.383	1382.8	observe	Run1	observe/STIM_007.jpg	99
779.56	0.799	799.0	observe	Run1	observe/STIM_008.jpg	99
782.658	1.146	1145.5	observe	Run1	observe/STIM_008.jpg	100
786.228	1.431	1431.4	observe	Run1	observe/STIM_008.jpg	99
790.961	1.186	1185.7	observe	Run1	observe/STIM_008.jpg	100
794.732	1.323	1323.3	observe	Run1	observe/STIM_009.jpg	99
799.916	1.225	1224.8	observe	Run1	observe/STIM_009.jpg	99
804.944	1.36	1359.6	observe	Run1	observe/STIM_009.jpg	100
808.718	0.827	827.4	observe	Run1	observe/STIM_009.jpg	100
813.129	1.014	1013.5	observe	Run1	observe/STIM_010.jpg	100
816.805	1.164	1163.5	observe	Run1	observe/STIM_010.jpg	99
820.274	1.323	1323.3	observe	Run1	observe/STIM_010.jpg	100
825.59	0.971	970.8	observe	Run1	observe/STIM_010.jpg	100
830.51	1.259	1258.7	observe	Run1	observe/STIM_011.jpg	99
835.735	1.314	1313.6	observe	Run1	observe/STIM_011.jpg	100
839.754	1.374	1373.5	observe	Run1	observe/STIM_011.jpg	100
844.224	1.006	1005.7	observe	Run1	observe/STIM_011.jpg	99
847.51	1.367	1366.7	observe	Run1	observe/STIM_012.jpg	99
851.257	1.196	1195.7	observe	Run1	observe/STIM_012.jpg	99
855.025	0.78	779.7	observe	Run1	observe/STIM_012.jpg	99
858.45	1.36	1359.8	observe	Run1	observe/STIM_012.jpg	100
863.951	0.749	749.1	observe	Run1	observe/STIM_013.jpg	100
868.542	1.045	1044.6	observe	Run1	observe/STIM_013.jpg	99
872.102	0.935	935.4	observe	Run1	observe/STIM_013.jpg	99
876.785	1.321	1320.9	observe	Run1	observe/STIM_013.jpg	99
881.218	0.795	794.9	observe	Run1	observe/STIM_014.jpg	100
884.227	1.254	1254.1	observe	Run1	observe/STIM_014.jpg	100
889.111	1.382	1381.6	observe	Run1	observe/STIM_014.jpg	99
893.221	1.381	1381.1	observe	Run1	observe/STIM_014.jpg	99
897.857	0.954	953.7	observe	Run1	observe/STIM_015.jpg	100
902.407	0.966	965.5	observe	Run1	observe/STIM_015.jpg	100
906.749	1.117	1117.1	observe	Run1	observe/STIM_015.jpg	99
911.179	1.073	1072.8	observe	Run1	observe/STIM_015.jpg	99
914.734	1.42	1419.9	observe	Run1	observe/STIM_016.jpg	99
919.193	0.845	844.9	observe	Run1	observe/STIM_016.jpg	99
923.763	0.984	984.0	observe	Run1	observe/STIM_016.jpg	99
927.343	0.72	719.6	observe	Run1	observe/STIM_016.jpg	99
930.463	1.25	1250.2	observe	Run1	observe/STIM_017.jpg	99
935.332	0.883	883.1	observe	Run1	observe/STIM_017.jpg	100
939.256	1.307	1306.8	observe	Run1	observe/STIM_017.jpg	99
943.313	0.975	974.8	observe	Run1	observe/STIM_017.jpg	100
947.388	0.781	780.8	observe	Run1	observe/STIM_018.jpg	100
950.64	1.166	1166.4	observe	Run1	observe/STIM_018.jpg	100
955.807	1.22	1219.6	observe	Run1	observe/STIM_018.jpg	99
959.717	0.724	723.8	observe	Run1	observe/STIM_018.jpg	100
963.973	0.97	969.6	observe	Run1	observe/STIM_019.jpg	99
968.672	1.199	1199.3	observe	Run1	observe/STIM_019.jpg	100
973.587	1.068	1068.4	observe	Run1	observe/STIM_019.jpg	99
978.496	0.8	799.9	observe	Run1	observe/STIM_019.jpg	99
983.258	1.889	1888.8	regulate	Run2	regulate/STIM_000.jpg	100
988.705	2.36	2360.4	regulate	Run2	regulate/STIM_000.jpg	99
993.417	1.428	1428.3	regulate	Run2	regulate/STIM_000.jpg	100
998.972	1.571	1571.0	regulate	Run2	regulate/STIM_000.jpg	99
1004.354	1.88	1879.5	regulate	Run2	regulate/STIM_001.jpg	100
1009.175	1.434	1433.8	regulate	Run2	regulate/STIM_001.jpg	100
1014.167	1.555	1555.4	regulate	Run2	regulate/STIM_001.jpg	99
1019.278	2.076	2075.7	regulate	Run2	regulate/STIM_001.jpg	100
1023.609	2.192	2191.8	regulate	Run2	regulate/STIM_002.jpg	99
1028.475	1.814	1814.4	regulate	Run2	regulate/STIM_002.jpg	99
1033.63	1.802	1802.5	regulate	Run2	regulate/STIM_002.jpg	99
1038.674	1.478	1478.5	regulate	Run2	regulate/STIM_002.jpg	99
1043.865	1.359	1359.1	regulate	Run2	regulate/STIM_003.jpg	100
1049.176	1.727	1727.1	regulate	Run2	regulate/STIM_003.jpg	99
1054.058	1.356	1355.9	regulate	Run2	regulate/STIM_003.jpg	100
1058.574	0.951	951.3	regulate	Run2	regulate/STIM_003.jpg	99
1063.225	2.519	2518.9	regulate	Run2	regulate/STIM_004.jpg	100
1068.549	1.947	1946.7	regulate	Run2	regulate/STIM_004.jpg	100
1073.001	1.955	1954.8	regulate	Run2	regulate/STIM_004.jpg	100
1077.603	1.502	1501.7	regulate	Run2	regulate/STIM_004.jpg	99
1082.921	1.329	1329.3	regulate	Run2	regulate/STIM_005.jpg	100
1087.759	1.937	1936.9	regulate	Run2	regulate/STIM_005.jpg	99
1093.9	1.07	1069.9	regulate	Run2	regulate/STIM_005.jpg	99
1097.458	0.993	992.6	regulate	Run2	regulate/STIM_005.jpg	100
1101.185	2.172	2172.2	regulate	Run2	regulate/STIM_006.jpg	99
1106.044	2.026	2025.6	regulate	Run2	regulate/STIM_006.jpg	100
1111.581	1.873	1873.1	regulate	Run2	regulate/STIM_006.jpg	99
1116.65	1.358	1357.6	regulate	Run2	regulate/STIM_006.jpg	100
1120.998	2.367	2367.0	regulate	Run2	regulate/STIM_007.jpg	100
1127.172	1.835	1835.0	regulate	Run2	regulate/STIM_007.jpg	100
1131.708	1.237	1237.3	regulate	Run2	regulate/STIM_007.jpg	99
1136.15	1.827	1826.7	regulate	Run2	regulate/STIM_007.jpg	100
1140.595	1.458	1458.0	regulate	Run2	regulate/STIM_008.jpg	99
1144.507	1.67	1670.4	regulate	Run2	regulate/STIM_008.jpg	100
1148.664	2.261	2260.8	regulate	Run2	regulate/STIM_008.jpg	99
1153.886	1.163	1162.9	regulate	Run2	regulate/STIM_008.jpg	99
1158.438	2.579	2578.7	regulate	Run2	regulate/STIM_009.jpg	99
1163.482	1.749	1748.9	regulate	Run2	regulate/STIM_009.jpg	99
1168.634	1.214	1213.9	regulate	Run2	regulate/STIM_009.jpg	100
1173.187	2.061	2061.0	regulate	Run2	regulate/STIM_009.jpg	100
1179.263	1.649	1648.9	regulate	Run2	regulate/STIM_010.jpg	100
1184.808	1.827	1827.4	regulate	Run2	regulate/STIM_010.jpg	100
1190.646	2.169	2169.1	regulate	Run2	regulate/STIM_010.jpg	100
1196.63	1.514	1514.2	regulate	Run2	regulate/STIM_010.jpg	99
1201.677	2.176	2175.8	regulate	Run2	regulate/STIM_011.jpg	100
1206.419	1.962	1962.0	regulate	Run2	regulate/STIM_011.jpg	99
1210.916	1.532	1531.6	regulate	Run2	regulate/STIM_011.jpg	100
1215.698	1.534	1533.8	regulate	Run2	regulate/STIM_011.jpg	100
1220.631	1.914	1914.2	regulate	Run2	regulate/STIM_012.jpg	100
1225.879	1.28	1279.8	regulate	Run2	regulate/STIM_012.jpg	100
1231.104	1.648	1647.6	regulate	Run2	regulate/STIM_012.jpg	100
1235.57	1.679	1679.1	regulate	Run2	regulate/STIM_012.jpg	99
1240.158	1.609	1608.8	regulate	Run2	regulate/STIM_013.jpg	99
1244.358	1.672	1671.9	regulate	Run2	regulate/STIM_013.jpg	99
1249.628	1.015	1015.2	regulate	Run2	regulate/STIM_013.jpg	99
1254.51	1.87	1870.3	regulate	Run2	regulate/STIM_013.jpg	100
1259.74	2.113	2113.1	regulate	Run2	regulate/STIM_014.jpg	100
1265.086	1.148	1148.1	regulate	Run2	regulate/STIM_014.jpg	100
1269.676	1.054	1053.6	regulate	Run2	regulate/STIM_014.jpg	99
1273.556	1.411	1411.3	regulate	Run2	regulate/STIM_014.jpg	99
1278.428	1.591	1591.4	regulate	Run2	regulate/STIM_015.jpg	100
1283.906	2.476	2475.5	regulate	Run2	regulate/STIM_015.jpg	100
1290.647	1.691	1691.3	regulate	Run2	regulate/STIM_015.jpg	100
1294.586	2.145	2144.9	regulate	Run2	regulate/STIM_015.jpg	99
1300.883	1.853	1852.8	regulate	Run2	regulate/STIM_016.jpg	100
1306.879	1.102	1101.6	regulate	Run2	regulate/STIM_016.jpg	99
1310.617	2.252	2251.7	regulate	Run2	regulate/STIM_016.jpg	100
1315.208	1.005	1005.4	regulate	Run2	regulate/STIM_016.jpg	100
1319.595	2.332	2332.4	regulate	Run2	regulate/STIM_017.jpg	99
1324.495	1.52	1519.6	regulate	Run2	regulate/STIM_017.jpg	100
1329.067	1.622	1622.5	regulate	Run2	regulate/STIM_017.jpg	100
1333.878	1.108	1107.8	regulate	Run2	regulate/STIM_017.jpg	100
1338.838	1.177	1177.4	regulate	Run2	regulate/STIM_018.jpg	99
1343.716	1.47	1469.7	regulate	Run2	regulate/STIM_018.jpg	100
1349.134	1.484	1484.4	regulate	Run2	regulate/STIM_018.jpg	99
1353.846	2.076	2076.2	regulate	Run2	regulate/STIM_018.jpg	100
1358.707	2.626	2626.5	regulate	Run2	regulate/STIM_019.jpg	99
1364.175	2.242	2241.5	regulate	Run2	regulate/STIM_019.jpg	99
1368.757	1.774	1773.6	regulate	Run2	regulate/STIM_019.jpg	99
1374.012	1.609	1609.1	regulate	Run2	regulate/STIM_019.jpg	99
1379.619	1.41	1410.1	regulate	Run2	regulate/STIM_020.jpg	99
1384.159	1.39	1390.1	regulate	Run2	regulate/STIM_020.jpg	100
1388.835	1.152	1152.4	regulate	Run2	regulate/STIM_020.jpg	99
1393.981	0.955	955.2	regulate	Run2	regulate/STIM_020.jpg	100
1398.581	1.953	1952.6	regulate	Run2	regulate/STIM_021.jpg	99
1403.232	2.277	2276.7	regulate	Run2	regulate/STIM_021.jpg	100
1408.501	1.961	1960.6	regulate	Run2	regulate/STIM_021.jpg	99
1414.138	1.246	1245.7	regulate	Run2	regulate/STIM_021.jpg	100
1417.768	1.867	1866.9	regulate	Run2	regulate/STIM_022.jpg	100
1423.556	1.165	1165.0	regulate	Run2	regulate/STIM_022.jpg	99
1427.904	1.115	1114.9	regulate	Run2	regulate/STIM_022.jpg	99
1431.24	1.59	1589.5	regulate	Run2	regulate/STIM_022.jpg	100
1436.415	2.215	2214.7	regulate	Run2	regulate/STIM_023.jpg	100
1442.554	2.271	2270.7	regulate	Run2	regulate/STIM_023.jpg	100
1447.141	1.668	1668.5	regulate	Run2	regulate/STIM_023.jpg	99
1452.589	1.567	1567.0	regulate	Run2	regulate/STIM_023.jpg	100
1456.693	1.374	1374.3	regulate	Run2	regulate/STIM_024.jpg	99
1461.346	1.687	1686.6	regulate	Run2	regulate/STIM_024.jpg	100
1467.159	1.265	1265.4	regulate	Run2	regulate/STIM_024.jpg	99
1472.377	1.305	1305.1	regulate	Run2	regulate/STIM_024.jpg	99
1476.596	1.827	1827.2	regulate	Run2	regulate/STIM_025.jpg	100
1482.622	2.166	2166.0	regulate	Run2	regulate/STIM_025.jpg	100
1488.775	1.795	1795.0	regulate	Run2	regulate/STIM_025.jpg	99
1494.705	2.122	2122.1	regulate	Run2	regulate/STIM_025.jpg	100
1500.973	2.567	2567.0	regulate	Run2	regulate/STIM_026.jpg	99
1507.488	1.703	1702.9	regulate	Run2	regulate/STIM_026.jpg	99
1512.828	1.49	1490.3	regulate	Run2	regulate/STIM_026.jpg	100
1516.684	0.967	967.3	regulate	Run2	regulate/STIM_026.jpg	100
1521.432	1.556	1556.1	regulate	Run2	regulate/STIM_027.jpg	100
1525.229	1.897	1896.9	regulate	Run2	regulate/STIM_027.jpg	100
1530.028	2.2	2200.4	regulate	Run2	regulate/STIM_027.jpg	99
1536.401	1.224	1224.2	regulate	Run2	regulate/STIM_027.jpg	100
1539.968	1.372	1372.3	regulate	Run2	regulate/STIM_028.jpg	99
1545.344	1.814	1813.8	regulate	Run2	regulate/STIM_028.jpg	100
1550.64	2.266	2266.4	regulate	Run2	regulate/STIM_028.jpg	100
1555.461	1.542	1542.0	regulate	Run2	regulate/STIM_028.jpg	99
1559.668	2.081	2081.3	regulate	Run2	regulate/STIM_029.jpg	99
1564.355	2.101	2101.1	regulate	Run2	regulate/STIM_029.jpg	99
1570.389	2.054	2054.5	regulate	Run2	regulate/STIM_029.jpg	100
1574.894	2.041	2040.5	regulate	Run2	regulate/STIM_029.jpg	100
1579.25	0.946	945.8	observe	Run2	observe/STIM_000.jpg	99
1584.165	0.907	907.1	observe	Run2	observe/STIM_000.jpg	100
1588.29	1.148	1147.9	observe	Run2	observe/STIM_000.jpg	100
1591.847	1.43	1430.1	observe	Run2	observe/STIM_000.jpg	99
1596.406	1.054	1054.1	observe	Run2	observe/STIM_001.jpg	99
1601.395	1.077	1077.3	observe	Run2	observe/STIM_001.jpg	100
1605.81	1.308	1308.3	observe	Run2	observe/STIM_001.jpg	99
1610.128	1.029	1029.4	observe	Run2	observe/STIM_001.jpg	99
1613.562	1.234	1234.0	observe	Run2	observe/STIM_002.jpg	99
1617.252	1.378	1378.2	observe	Run2	observe/STIM_002.jpg	99
1621.504	1.089	1088.7	observe	Run2	observe/STIM_002.jpg	99
1626.452	0.998	997.7	observe	Run2	observe/STIM_002.jpg	99
1630.345	1.137	1137.4	observe	Run2	observe/STIM_003.jpg	99
1633.751	0.781	780.9	observe	Run2	observe/STIM_003.jpg	99
1636.9	1.317	1317.2	observe	Run2	observe/STIM_003.jpg	99
1641.471	1.176	1175.9	observe	Run2	observe/STIM_003.jpg	100
1646.125	0.856	855.8	observe	Run2	observe/STIM_004.jpg	100
1649.522	0.861	860.7	observe	Run2	observe/STIM_004.jpg	100
1653.333	0.747	746.8	observe	Run2	observe/STIM_004.jpg	99
1657.575	0.923	923.0	observe	Run2	observe/STIM_004.jpg	99
1662.486	1.147	1147.0	observe	Run2	observe/STIM_005.jpg	100
1667.752	0.873	872.8	observe	Run2	observe/STIM_005.jpg	100
1671.067	0.954	953.5	observe	Run2	observe/STIM_005.jpg	100
1674.812	1.394	1394.3	observe	Run2	observe/STIM_005.jpg	99
1679.354	0.873	872.8	observe	Run2	observe/STIM_006.jpg	100
1683.531	1.184	1183.7	observe	Run2	observe/STIM_006.jpg	100
1687.463	0.833	832.9	observe	Run2	observe/STIM_006.jpg	99
1690.926	0.981	981.1	observe	Run2	observe/STIM_006.jpg	100
1694.258	1.186	1185.7	observe	Run2	observe/STIM_007.jpg	99
1697.921	1.38	1379.8	observe	Run2	observe/STIM_007.jpg	99
1703.393	1.227	1227.0	observe	Run2	observe/STIM_007.jpg	99
1707.612	1.036	1036.1	observe	Run2	observe/STIM_007.jpg	99
1712.041	0.932	932.3	observe	Run2	observe/STIM_008.jpg	100
1715.206	1.326	1326.1	observe	Run2	observe/STIM_008.jpg	100
1718.695	1.388	1388.5	observe	Run2	observe/STIM_008.jpg	100
1722.399	0.921	920.9	observe	Run2	observe/STIM_008.jpg	100
1726.416	0.731	730.9	observe	Run2	observe/STIM_009.jpg	100
1730.138	0.914	913.8	observe	Run2	observe/STIM_009.jpg	99
1734.825	1.386	1385.8	observe	Run2	observe/STIM_009.jpg	99
1738.767	0.989	989.4	observe	Run2	observe/STIM_009.jpg	99
1742.608	1.104	1104.4	observe	Run2	observe/STIM_010.jpg	100
1747.573	1.16	1159.7	observe	Run2	observe/STIM_010.jpg	100
1751.777	1.309	1309.4	observe	Run2	observe/STIM_010.jpg	100
1756.148	1.117	1117.0	observe	Run2	observe/STIM_010.jpg	100
1759.748	0.903	902.8	observe	Run2	observe/STIM_011.jpg	99
1764.015	1.124	1124.3	observe	Run2	observe/STIM_011.jpg	100
1767.852	1.389	1388.9	observe	Run2	observe/STIM_011.jpg	100
1772.049	0.724	723.5	observe	Run2	observe/STIM_011.jpg	100
1776.193	0.808	808.2	observe	Run2	observe/STIM_012.jpg	99
1779.605	0.909	909.3	observe	Run2	observe/STIM_012.jpg	100
1783.896	1.299	1298.6	observe	Run2	observe/STIM_012.jpg	100
1788.0	1.181	1180.7	observe	Run2	observe/STIM_012.jpg	100
1792.954	0.768	768.4	observe	Run2	observe/STIM_013.jpg	100
1796.329	1.173	1172.8	observe	Run2	observe/STIM_013.jpg	100
1800.898	1.284	1283.5	observe	Run2	observe/STIM_013.jpg	99
1805.789	1.42	1420.1	observe	Run2	observe/STIM_013.jpg	99
1810.364	1.392	1392.0	observe	Run2	observe/STIM_014.jpg	99
1814.82	1.274	1274.3	observe	Run2	observe/STIM_014.jpg	100
1820.066	1.233	1232.6	observe	Run2	observe/STIM_014.jpg	100
1823.83	1.265	1264.9	observe	Run2	observe/STIM_014.jpg	100
1828.2	1.056	1055.6	observe	Run2	observe/STIM_015.jpg	99
1832.266	0.871	871.2	observe	Run2	observe/STIM_015.jpg	99
1836.245	1.416	1416.4	observe	Run2	observe/STIM_015.jpg	100
1839.873	0.77	770.2	observe	Run2	observe/STIM_015.jpg	99
1844.508	0.797	797.4	observe	Run2	observe/STIM_016.jpg	100
1847.995	1.088	1087.6	observe	Run2	observe/STIM_016.jpg	100
1851.632	0.911	910.8	observe	Run2	observe/STIM_016.jpg	99
1856.526	1.241	1241.3	observe	Run2	observe/STIM_016.jpg	99
1860.583	0.874	873.7	observe	Run2	observe/STIM_017.jpg	100
1863.94	0.93	929.7	observe	Run2	observe/STIM_017.jpg	99
1867.144	0.911	910.8	observe	Run2	observe/STIM_017.jpg	100
1870.907	1.039	1038.7	observe	Run2	observe/STIM_017.jpg	100
1874.272	1.302	1302.4	observe	Run2	observe/STIM_018.jpg	100
1879.238	0.824	824.1	observe	Run2	observe/STIM_018.jpg	99
1884.036	1.024	1023.7	observe	Run2	observe/STIM_018.jpg	100
1888.648	0.971	970.9	observe	Run2	observe/STIM_018.jpg	100
1892.812	0.767	767.4	observe	Run2	observe/STIM_019.jpg	99
1896.446	1.296	1296.2	observe	Run2	observe/STIM_019.jpg	100
1900.509	1.372	1371.5	observe	Run2	observe/STIM_019.jpg	100
1904.611	0.86	859.5	observe	Run2	observe/STIM_019.jpg	99
1908.422	1.41	1409.8	regulate	Run3	regulate/STIM_000.jpg	99
1913.361	1.684	1684.4	regulate	Run3	regulate/STIM_000.jpg	100
1917.702	0.959	959.4	regulate	Run3	regulate/STIM_000.jpg	99
1922.299	1.639	1638.6	regulate	Run3	regulate/STIM_000.jpg	99
1927.489	1.048	1048.1	regulate	Run3	regulate/STIM_001.jpg	99
1932.149	0.952	952.4	regulate	Run3	regulate/STIM_001.jpg	100
1935.387	1.604	1604.3	regulate	Run3	regulate/STIM_001.jpg	99
1940.147	1.084	1083.6	regulate	Run3	regulate/STIM_001.jpg	100
1945.103	1.345	1345.2	regulate	Run3	regulate/STIM_002.jpg	99
1950.415	2.099	2098.7	regulate	Run3	regulate/STIM_002.jpg	100
1956.524	1.734	1734.1	regulate	Run3	regulate/STIM_002.jpg	99
1961.789	1.41	1410.4	regulate	Run3	regulate/STIM_002.jpg	99
1967.192	1.776	1775.8	regulate	Run3	regulate/STIM_003.jpg	100
1972.573	1.74	1739.7	regulate	Run3	regulate/STIM_003.jpg	100
1978.091	1.676	1676.0	regulate	Run3	regulate/STIM_003.jpg	100
1983.739	1.266	1266.4	regulate	Run3	regulate/STIM_003.jpg	99
1988.555	1.212	1212.5	regulate	Run3	regulate/STIM_004.jpg	99
1992.988	2.188	2187.8	regulate	Run3	regulate/STIM_004.jpg	99
1998.33	1.361	1360.8	regulate	Run3	regulate/STIM_004.jpg	99
2001.89	1.902	1901.8	regulate	Run3	regulate/STIM_004.jpg	99
2006.102	1.645	1644.8	regulate	Run3	regulate/STIM_005.jpg	100
2011.746	2.008	2008.2	regulate	Run3	regulate/STIM_005.jpg	100
2017.922	2.049	2048.8	regulate	Run3	regulate/STIM_005.jpg	99
2022.22	1.752	1752.3	regulate	Run3	regulate/STIM_005.jpg	99
2027.466	1.977	1977.0	regulate	Run3	regulate/STIM_006.jpg	99
2033.258	1.712	1711.7	regulate	Run3	regulate/STIM_006.jpg	99
2038.69	2.18	2180.1	regulate	Run3	regulate/STIM_006.jpg	100
2043.394	1.473	1473.0	regulate	Run3	regulate/STIM_006.jpg	100
2048.407	1.833	1832.6	regulate	Run3	regulate/STIM_007.jpg	99
2052.512	1.611	1611.3	regulate	Run3	regulate/STIM_007.jpg	100
2056.314	1.982	1982.5	regulate	Run3	regulate/STIM_007.jpg	100
2060.826	1.579	1578.6	regulate	Run3	regulate/STIM_007.jpg	99
2065.744	1.456	1456.5	regulate	Run3	regulate/STIM_008.jpg	100
2069.366	1.238	1238.1	regulate	Run3	regulate/STIM_008.jpg	100
2074.653	1.506	1506.2	regulate	Run3	regulate/STIM_008.jpg	100
2078.656	1.333	1333.3	regulate	Run3	regulate/STIM_008.jpg	100
2082.747	1.935	1935.2	regulate	Run3	regulate/STIM_009.jpg	99
2087.645	1.085	1084.8	regulate	Run3	regulate/STIM_009.jpg	99
2091.92	1.153	1153.2	regulate	Run3	regulate/STIM_009.jpg	100
2096.394	1.696	1696.1	regulate	Run3	regulate/STIM_009.jpg	100
2100.516	1.728	1727.6	regulate	Run3	regulate/STIM_010.jpg	99
2105.982	1.113	1113.2	regulate	Run3	regulate/STIM_010.jpg	100
2109.532	1.086	1085.8	regulate	Run3	regulate/STIM_010.jpg	99
2112.941	1.616	1616.5	regulate	Run3	regulate/STIM_010.jpg	99
2118.427	1.62	1619.6	regulate	Run3	regulate/STIM_011.jpg	99
2122.446	1.482	1481.9	regulate	Run3	regulate/STIM_011.jpg	99
2126.277	1.683	1683.4	regulate	Run3	regulate/STIM_011.jpg	99
2131.486	1.697	1697.0	regulate	Run3	regulate/STIM_011.jpg	100
2136.988	1.876	1876.4	regulate	Run3	regulate/STIM_012.jpg	99
2141.927	1.997	1996.7	regulate	Run3	regulate/STIM_012.jpg	100
2148.118	1.646	1645.8	regulate	Run3	regulate/STIM_012.jpg	100
2153.325	1.359	1359.3	regulate	Run3	regulate/STIM_012.jpg	99
2157.343	1.991	1991.1	regulate	Run3	regulate/STIM_013.jpg	99
2162.011	1.441	1440.9	regulate	Run3	regulate/STIM_013.jpg	100
2166.35	2.006	2005.9	regulate	Run3	regulate/STIM_013.jpg	100
2171.698	1.985	1984.9	regulate	Run3	regulate/STIM_013.jpg	100
2176.131	1.053	1053.1	regulate	Run3	regulate/STIM_014.jpg	99
2179.474	1.472	1471.7	regulate	Run3	regulate/STIM_014.jpg	100
2184.209	1.596	1595.5	regulate	Run3	regulate/STIM_014.jpg	99
2188.644	1.162	1161.7	regulate	Run3	regulate/STIM_014.jpg	99
2192.447	2.169	2168.6	regulate	Run3	regulate/STIM_015.jpg	99
2198.702	1.913	1913.3	regulate	Run3	regulate/STIM_015.jpg	100
2202.847	1.492	1491.9	regulate	Run3	regulate/STIM_015.jpg	100
2208.044	1.677	1676.6	regulate	Run3	regulate/STIM_015.jpg	100
2213.234	1.253	1253.1	regulate	Run3	regulate/STIM_016.jpg	99
2217.638	1.628	1628.5	regulate	Run3	regulate/STIM_016.jpg	99
2222.4	1.165	1165.0	regulate	Run3	regulate/STIM_016.jpg	100
2227.337	1.955	1954.9	regulate	Run3	regulate/STIM_016.jpg	100
2232.435	2.107	2106.7	regulate	Run3	regulate/STIM_017.jpg	99
2237.357	1.882	1881.8	regulate	Run3	regulate/STIM_017.jpg	99
2243.127	2.19	2190.0	regulate	Run3	regulate/STIM_017.jpg	99
2247.62	1.138	1138.0	regulate	Run3	regulate/STIM_017.jpg	99
2251.096	1.534	1533.8	regulate	Run3	regulate/STIM_018.jpg	99
2256.696	1.018	1018.4	regulate	Run3	regulate/STIM_018.jpg	99
2260.534	2.081	2080.8	regulate	Run3	regulate/STIM_018.jpg	100
2266.515	1.607	1607.3	regulate	Run3	regulate/STIM_018.jpg	99
2271.361	2.059	2059.2	regulate	Run3	regulate/STIM_019.jpg	100
2277.564	1.666	1666.5	regulate	Run3	regulate/STIM_019.jpg	100
2282.2	1.361	1361.2	regulate	Run3	regulate/STIM_019.jpg	100
2285.821	1.694	1694.2	regulate	Run3	regulate/STIM_019.jpg	100
2289.805	1.13	1129.9	regulate	Run3	regulate/STIM_020.jpg	100
2293.587	1.989	1988.9	regulate	Run3	regulate/STIM_020.jpg	99
2299.474	2.016	2015.7	regulate	Run3	regulate/STIM_020.jpg	99
2304.067	2.093	2092.6	regulate	Run3	regulate/STIM_020.jpg	99
2309.035	1.745	1744.6	regulate	Run3	regulate/STIM_021.jpg	99
2314.484	0.956	956.0	regulate	Run3	regulate/STIM_021.jpg	100
2318.057	1.196	1195.5	regulate	Run3	regulate/STIM_021.jpg	99
2322.903	2.038	2038.4	regulate	Run3	regulate/STIM_021.jpg	99
2328.401	1.568	1568.3	regulate	Run3	regulate/STIM_022.jpg	100
2332.217	1.585	1584.9	regulate	Run3	regulate/STIM_022.jpg	99
2336.66	1.779	1779.0	regulate	Run3	regulate/STIM_022.jpg	99
2341.027	1.139	1138.9	regulate	Run3	regulate/STIM_022.jpg	100
2344.335	1.181	1180.7	regulate	Run3	regulate/STIM_023.jpg	100
2349.246	1.301	1300.6	regulate	Run3	regulate/STIM_023.jpg	99
2353.808	1.381	1381.1	regulate	Run3	regulate/STIM_023.jpg	100
2359.237	1.928	1928.2	regulate	Run3	regulate/STIM_023.jpg	100
2363.831	1.239	1239.0	regulate	Run3	regulate/STIM_024.jpg	99
2367.76	2.095	2095.1	regulate	Run3	regulate/STIM_024.jpg	100
2373.906	1.588	1587.9	regulate	Run3	regulate/STIM_024.jpg	100
2378.567	1.367	1367.3	regulate	Run3	regulate/STIM_024.jpg	99
2383.511	2.118	2118.5	regulate	Run3	regulate/STIM_025.jpg	99
2389.105	1.698	1698.1	regulate	Run3	regulate/STIM_025.jpg	100
2394.87	2.197	2196.7	regulate	Run3	regulate/STIM_025.jpg	99
2399.925	1.247	1246.9	regulate	Run3	regulate/STIM_025.jpg	100
2403.892	0.97	970.4	regulate	Run3	regulate/STIM_026.jpg	99
2407.466	2.105	2105.4	regulate	Run3	regulate/STIM_026.jpg	99
2413.117	1.582	1582.5	regulate	Run3	regulate/STIM_026.jpg	100
2417.451	1.589	1588.7	regulate	Run3	regulate/STIM_026.jpg	100
2422.695	1.189	1189.3	regulate	Run3	regulate/STIM_027.jpg	99
2427.395	1.042	1041.5	regulate	Run3	regulate/STIM_027.jpg	99
2431.128	1.923	1923.2	regulate	Run3	regulate/STIM_027.jpg	99
2435.651	1.525	1524.7	regulate	Run3	regulate/STIM_027.jpg	99
2441.199	1.302	1301.8	regulate	Run3	regulate/STIM_028.jpg	99
2445.102	1.891	1890.6	regulate	Run3	regulate/STIM_028.jpg	99
2449.876	1.647	1647.0	regulate	Run3	regulate/STIM_028.jpg	99
2454.78	1.276	1275.5	regulate	Run3	regulate/STIM_028.jpg	100
2458.391	1.879	1878.8	regulate	Run3	regulate/STIM_029.jpg	99
2463.24	1.76	1759.6	regulate	Run3	regulate/STIM_029.jpg	100
2467.694	1.214	1214.5	regulate	Run3	regulate/STIM_029.jpg	99
2472.178	1.053	1052.9	regulate	Run3	regulate/STIM_029.jpg	100
2477.346	0.935	934.9	observe	Run3	observe/STIM_000.jpg	100
2481.401	1.242	1241.7	observe	Run3	observe/STIM_000.jpg	100
2484.887	1.335	1335.2	observe	Run3	observe/STIM_000.jpg	99
2488.733	1.087	1086.6	observe	Run3	observe/STIM_000.jpg	100
2493.56	1.104	1104.4	observe	Run3	observe/STIM_001.jpg	100
2498.371	0.783	783.2	observe	Run3	observe/STIM_001.jpg	99
2502.088	0.721	720.8	observe	Run3	observe/STIM_001.jpg	100
2505.539	0.776	775.9	observe	Run3	observe/STIM_001.jpg	100
2508.743	0.799	799.0	observe	Run3	observe/STIM_002.jpg	100
2512.684	1.341	1340.6	observe	Run3	observe/STIM_002.jpg	100
2516.291	1.228	1227.8	observe	Run3	observe/STIM_002.jpg	100
2521.002	0.852	852.3	observe	Run3	observe/STIM_002.jpg	99
2524.936	1.253	1253.2	observe	Run3	observe/STIM_003.jpg	100
2529.264	1.422	1422.0	observe	Run3	observe/STIM_003.jpg	99
2534.171	1.358	1358.5	observe	Run3	observe/STIM_003.jpg	100
2538.546	1.174	1173.5	observe	Run3	observe/STIM_003.jpg	100
2541.9	0.803	803.1	observe	Run3	observe/STIM_004.jpg	100
2546.181	0.728	728.5	observe	Run3	observe/STIM_004.jpg	99
2550.024	1.133	1133.4	observe	Run3	observe/STIM_004.jpg	99
2554.111	1.079	1078.9	observe	Run3	observe/STIM_004.jpg	100
2557.712	1.01	1009.5	observe	Run3	observe/STIM_005.jpg	99
2561.87	1.057	1057.2	observe	Run3	observe/STIM_005.jpg	100
2566.206	1.016	1015.6	observe	Run3	observe/STIM_005.jpg	99
2571.006	1.152	1151.7	observe	Run3	observe/STIM_005.jpg	99
2574.947	0.954	953.8	observe	Run3	observe/STIM_006.jpg	100
2578.652	1.158	1157.7	observe	Run3	observe/STIM_006.jpg	99
2582.241	1.012	1012.1	observe	Run3	observe/STIM_006.jpg	100
2586.177	1.313	1312.7	observe	Run3	observe/STIM_006.jpg	99
2590.597	1.264	1264.1	observe	Run3	observe/STIM_007.jpg	100
2595.336	1.146	1146.3	observe	Run3	observe/STIM_007.jpg	100
2598.744	1.271	1271.4	observe	Run3	observe/STIM_007.jpg	100
2602.827	0.989	988.7	observe	Run3	observe/STIM_007.jpg	100
2606.183	1.006	1005.8	observe	Run3	observe/STIM_008.jpg	99
2610.313	0.957	957.4	observe	Run3	observe/STIM_008.jpg	99
2613.444	1.191	1191.1	observe	Run3	observe/STIM_008.jpg	100
2617.363	1.106	1105.9	observe	Run3	observe/STIM_008.jpg	100
2621.931	0.978	978.3	observe	Run3	observe/STIM_009.jpg	99
2626.687	0.995	994.8	observe	Run3	observe/STIM_009.jpg	99
2631.095	1.057	1057.2	observe	Run3	observe/STIM_009.jpg	99
2634.407	1.041	1041.3	observe	Run3	observe/STIM_009.jpg	100
2638.335	0.875	875.2	observe	Run3	observe/STIM_010.jpg	100
2641.782	1.146	1146.4	observe	Run3	observe/STIM_010.jpg	100
2645.383	1.418	1417.5	observe	Run3	observe/STIM_010.jpg	99
2649.342	1.125	1124.8	observe	Run3	observe/STIM_010.jpg	99
2653.337	1.279	1279.4	observe	Run3	observe/STIM_011.jpg	100
2657.11	1.073	1072.8	observe	Run3	observe/STIM_011.jpg	100
2660.307	0.877	877.3	observe	Run3	observe/STIM_011.jpg	100
2663.833	1.327	1327.1	observe	Run3	observe/STIM_011.jpg	100
2668.785	0.785	785.3	observe	Run3	observe/STIM_012.jpg	99
2672.186	0.879	879.4	observe	Run3	observe/STIM_012.jpg	100
2676.134	1.21	1209.8	observe	Run3	observe/STIM_012.jpg	99
2680.759	1.413	1412.7	observe	Run3	observe/STIM_012.jpg	100
2685.146	0.726	726.5	observe	Run3	observe/STIM_013.jpg	99
2688.309	1.001	1001.3	observe	Run3	observe/STIM_013.jpg	100
2692.355	0.763	763.1	observe	Run3	observe/STIM_013.jpg	100
2696.493	1.34	1340.0	observe	Run3	observe/STIM_013.jpg	100
2701.209	1.39	1389.8	observe	Run3	observe/STIM_014.jpg	100
2705.359	0.763	762.9	observe	Run3	observe/STIM_014.jpg	100
2709.13	1.058	1058.5	observe	Run3	observe/STIM_014.jpg	100
2713.942	1.38	1380.4	observe	Run3	observe/STIM_014.jpg	100
2719.343	0.806	806.1	observe	Run3	observe/STIM_015.jpg	100
2724.086	1.271	1270.7	observe	Run3	observe/STIM_015.jpg	99
2727.615	1.259	1259.2	observe	Run3	observe/STIM_015.jpg	100
2731.556	1.439	1439.0	observe	Run3	observe/STIM_015.jpg	100
2736.686	1.242	1241.7	observe	Run3	observe/STIM_016.jpg	99
2741.999	0.989	988.9	observe	Run3	observe/STIM_016.jpg	100
2746.418	0.825	825.1	observe	Run3	observe/STIM_016.jpg	99
2750.403	1.121	1120.9	observe	Run3	observe/STIM_016.jpg	100
2755.396	0.853	853.2	observe	Run3	observe/STIM_017.jpg	100
2759.249	0.858	858.5	observe	Run3	observe/STIM_017.jpg	99
2764.131	1.016	1015.9	observe	Run3	observe/STIM_017.jpg	100
2767.803	1.425	1424.9	observe	Run3	observe/STIM_017.jpg	100
2772.325	1.132	1131.6	observe	Run3	observe/STIM_018.jpg	100
2776.016	0.774	773.8	observe	Run3	observe/STIM_018.jpg	99
2780.795	1.154	1154.4	observe	Run3	observe/STIM_018.jpg	100
2785.256	1.123	1123.1	observe	Run3	observe/STIM_018.jpg	99
2788.846	1.241	1240.9	observe	Run3	observe/STIM_019.jpg	99
2792.932	1.168	1167.9	observe	Run3	observe/STIM_019.jpg	99
2796.647	1.116	1115.5	observe	Run3	observe/STIM_019.jpg	99
2800.73	0.852	851.8	observe	Run3	observe/STIM_019.jpg	99
