onset	duration	response_time_ms	trial_type	learning_stage	stimulus	response_port
0.0	1.376	1375.8	2back	Block1	2back/STIM_000.jpg	100
4.31	0.605	605.3	2back	Block1	2back/STIM_000.jpg	99
7.245	0.615	614.6	2back	Block1	2back/STIM_000.jpg	99
9.916	1.158	1158.1	2back	Block1	2back/STIM_001.jpg	100
14.148	1.151	1150.8	2back	Block1	2back/STIM_001.jpg	99
17.544	0.704	703.8	2back	Block1	2back/STIM_001.jpg	99
20.858	0.743	743.2	2back	Block1	2back/STIM_002.jpg	99
24.785	0.657	656.8	2back	Block1	2back/STIM_002.jpg	99
27.888	1.198	1198.1	2back	Block1	2back/STIM_002.jpg	100
32.249	1.002	1001.8	2back	Block1	2back/STIM_003.jpg	99
36.86	0.781	780.6	2back	Block1	2back/STIM_003.jpg	99
40.845	1.175	1174.9	2back	Block1	2back/STIM_003.jpg	99
46.007	0.74	739.5	2back	Block1	2back/STIM_004.jpg	99
48.875	0.749	749.2	2back	Block1	2back/STIM_004.jpg	100
53.335	1.274	1273.7	2back	Block1	2back/STIM_004.jpg	100
57.896	0.988	988.5	2back	Block1	2back/STIM_005.jpg	99
61.153	0.998	998.2	2back	Block1	2back/STIM_005.jpg	100
64.455	1.034	1033.6	2back	Block1	2back/STIM_005.jpg	99
67.845	0.884	883.7	2back	Block1	2back/STIM_006.jpg	100
71.604	1.112	1111.6	2back	Block1	2back/STIM_006.jpg	99
75.924	0.926	926.2	2back	Block1	2back/STIM_006.jpg	100
79.5	1.173	1172.6	2back	Block1	2back/STIM_007.jpg	99
84.002	0.777	776.9	2back	Block1	2back/STIM_007.jpg	100
88.733	1.153	1152.9	2back	Block1	2back/STIM_007.jpg	100
93.512	1.218	1218.1	2back	Block1	2back/STIM_008.jpg	99
97.831	1.148	1148.4	2back	Block1	2back/STIM_008.jpg	99
101.565	1.148	1148.2	2back	Block1	2back/STIM_008.jpg	100
105.378	1.199	1199.1	2back	Block1	2back/STIM_009.jpg	100
110.319	0.981	980.9	2back	Block1	2back/STIM_009.jpg	99
114.716	1.239	1238.8	2back	Block1	2back/STIM_009.jpg	100
119.214	0.999	998.6	2back	Block1	2back/STIM_010.jpg	99
122.332	1.315	1314.6	2back	Block1	2back/STIM_010.jpg	100
125.969	0.707	706.6	2back	Block1	2back/STIM_010.jpg	100
129.767	1.46	1459.6	2back	Block1	2back/STIM_011.jpg	100
134.525	1.344	1344.3	2back	Block1	2back/STIM_011.jpg	99
138.926	0.574	574.5	2back	Block1	2back/STIM_011.jpg	99
143.346	1.324	1324.5	2back	Block1	2back/STIM_012.jpg	100
147.819	1.184	1184.3	2back	Block1	2back/STIM_012.jpg	99
151.52	0.889	889.0	2back	Block1	2back/STIM_012.jpg	99
155.64	0.988	988.0	2back	Block1	2back/STIM_013.jpg	100
158.757	0.635	634.7	2back	Block1	2back/STIM_013.jpg	99
162.827	0.79	789.6	2back	Block1	2back/STIM_013.jpg	99
167.158	0.99	989.8	2back	Block1	2back/STIM_014.jpg	99
170.649	0.597	597.3	2back	Block1	2back/STIM_014.jpg	100
173.801	0.668	668.4	2back	Block1	2back/STIM_014.jpg	99
176.568	0.996	995.5	2back	Block1	2back/STIM_015.jpg	99
180.213	0.66	660.2	2back	Block1	2back/STIM_015.jpg	100
184.39	1.099	1098.8	2back	Block1	2back/STIM_015.jpg	99
188.166	0.731	731.4	2back	Block1	2back/STIM_016.jpg	100
191.344	0.825	824.6	2back	Block1	2back/STIM_016.jpg	99
195.578	1.151	1151.1	2back	Block1	2back/STIM_016.jpg	100
199.832	0.936	935.8	2back	Block1	2back/STIM_017.jpg	99
202.961	0.931	930.9	2back	Block1	2back/STIM_017.jpg	100
207.237	1.073	1073.4	2back	Block1	2back/STIM_017.jpg	99
211.529	1.208	1207.7	2back	Block1	2back/STIM_018.jpg	100
215.398	1.087	1087.1	2back	Block1	2back/STIM_018.jpg	99
220.32	0.801	800.9	2back	Block1	2back/STIM_018.jpg	99
223.261	1.092	1091.6	2back	Block1	2back/STIM_019.jpg	100
227.356	1.163	1162.9	2back	Block1	2back/STIM_019.jpg	99
230.944	1.204	1203.9	2back	Block1	2back/STIM_019.jpg	100
236.137	1.014	1014.0	2back	Block1	2back/STIM_020.jpg	100
239.901	1.096	1096.3	2back	Block1	2back/STIM_020.jpg	99
243.159	1.155	1154.6	2back	Block1	2back/STIM_020.jpg	99
246.669	1.144	1143.6	2back	Block1	2back/STIM_021.jpg	99
250.763	0.965	964.8	2back	Block1	2back/STIM_021.jpg	99
254.885	0.606	605.8	2back	Block1	2back/STIM_021.jpg	100
257.606	1.299	1298.6	2back	Block1	2back/STIM_022.jpg	99
261.733	0.68	680.1	2back	Block1	2back/STIM_022.jpg	99
266.393	1.064	1063.8	2back	Block1	2back/STIM_022.jpg	100
271.049	1.435	1434.8	2back	Block1	2back/STIM_023.jpg	100
274.786	1.364	1363.7	2back	Block1	2back/STIM_023.jpg	99
278.534	1.241	1240.9	2back	Block1	2back/STIM_023.jpg	99
281.895	0.828	827.7	2back	Block1	2back/STIM_024.jpg	100
285.103	0.686	685.9	2back	Block1	2back/STIM_024.jpg	99
289.234	1.185	1184.6	2back	Block1	2back/STIM_024.jpg	99
293.162	1.196	1195.5	2back	Block1	2back/STIM_025.jpg	100
297.3	1.374	1374.4	2back	Block1	2back/STIM_025.jpg	99
301.012	0.567	567.0	2back	Block1	2back/STIM_025.jpg	99
304.73	1.279	1279.2	2back	Block1	2back/STIM_026.jpg	99
309.691	0.71	710.1	2back	Block1	2back/STIM_026.jpg	99
313.359	0.954	954.1	2back	Block1	2back/STIM_026.jpg	100
317.347	1.291	1291.1	2back	Block1	2back/STIM_027.jpg	99
322.499	0.995	994.9	2back	Block1	2back/STIM_027.jpg	99
327.317	0.709	708.6	2back	Block1	2back/STIM_027.jpg	100
331.02	1.24	1240.3	2back	Block1	2back/STIM_028.jpg	99
334.958	1.27	1270.1	2back	Block1	2back/STIM_028.jpg	99
340.071	1.302	1301.7	2back	Block1	2back/STIM_028.jpg	100
344.106	0.642	641.8	2back	Block1	2back/STIM_029.jpg	99
348.224	0.724	724.2	2back	Block1	2back/STIM_029.jpg	100
351.463	1.174	1174.2	2back	Block1	2back/STIM_029.jpg	100
356.526	1.081	1081.3	2back	Block1	2back/STIM_030.jpg	99
359.733	0.896	896.0	2back	Block1	2back/STIM_030.jpg	100
362.905	0.98	980.1	2back	Block1	2back/STIM_030.jpg	100
366.474	1.128	1127.9	2back	Block1	2back/STIM_031.jpg	99
369.651	0.909	908.7	2back	Block1	2back/STIM_031.jpg	100
374.503	0.766	765.9	2back	Block1	2back/STIM_031.jpg	100
377.364	1.064	1063.7	2back	Block1	2back/STIM_032.jpg	100
382.425	1.056	1055.7	2back	Block1	2back/STIM_032.jpg	99
386.002	0.863	862.9	2back	Block1	2back/STIM_032.jpg	99
389.607	0.632	631.5	2back	Block1	2back/STIM_033.jpg	99
393.402	0.761	760.8	2back	Block1	2back/STIM_033.jpg	100
396.25	1.302	1302.5	2back	Block1	2back/STIM_033.jpg	100
400.645	0.834	833.8	2back	Block1	2back/STIM_034.jpg	100
404.886	0.628	628.1	2back	Block1	2back/STIM_034.jpg	99
408.912	0.608	608.5	2back	Block1	2back/STIM_034.jpg	99
413.122	0.79	790.2	2back	Block1	2back/STIM_035.jpg	99
416.202	1.353	1352.6	2back	Block1	2back/STIM_035.jpg	100
419.929	1.201	1200.8	2back	Block1	2back/STIM_035.jpg	100
425.037	0.723	722.6	2back	Block1	2back/STIM_036.jpg	99
429.334	0.986	985.7	2back	Block1	2back/STIM_036.jpg	99
433.622	1.137	1137.3	2back	Block1	2back/STIM_036.jpg	99
438.218	1.404	1404.0	2back	Block1	2back/STIM_037.jpg	100
443.427	0.978	977.5	2back	Block1	2back/STIM_037.jpg	99
446.663	1.078	1078.2	2back	Block1	2back/STIM_037.jpg	99
450.124	1.426	1425.7	2back	Block1	2back/STIM_038.jpg	100
455.362	0.76	760.2	2back	Block1	2back/STIM_038.jpg	100
458.546	0.708	708.5	2back	Block1	2back/STIM_038.jpg	99
462.113	1.133	1133.0	2back	Block1	2back/STIM_039.jpg	100
467.213	0.902	901.7	2back	Block1	2back/STIM_039.jpg	99
470.132	0.77	769.7	2back	Block1	2back/STIM_039.jpg	100
474.049	0.544	543.6	0back	Block1	0back/STIM_000.jpg	100
478.134	0.698	698.5	0back	Block1	0back/STIM_000.jpg	100
480.844	0.767	767.4	0back	Block1	0back/STIM_000.jpg	100
483.983	0.57	569.8	0back	Block1	0back/STIM_001.jpg	100
487.115	0.653	653.1	0back	Block1	0back/STIM_001.jpg	100
491.569	0.557	557.2	0back	Block1	0back/STIM_001.jpg	100
494.446	0.537	537.4	0back	Block1	0back/STIM_002.jpg	99
498.779	0.727	726.8	0back	Block1	0back/STIM_002.jpg	100
503.097	0.496	495.5	0back	Block1	0back/STIM_002.jpg	100
506.447	0.543	543.3	0back	Block1	0back/STIM_003.jpg	100
509.617	0.822	822.3	0back	Block1	0back/STIM_003.jpg	99
513.057	0.794	794.5	0back	Block1	0back/STIM_003.jpg	100
516.058	0.788	787.5	0back	Block1	0back/STIM_004.jpg	100
520.089	0.785	784.9	0back	Block1	0back/STIM_004.jpg	99
523.84	0.572	572.1	0back	Block1	0back/STIM_004.jpg	99
526.463	0.547	546.9	0back	Block1	0back/STIM_005.jpg	100
529.537	0.428	427.8	0back	Block1	0back/STIM_005.jpg	100
533.521	0.628	627.6	0back	Block1	0back/STIM_005.jpg	100
537.513	0.432	432.0	0back	Block1	0back/STIM_006.jpg	100
541.607	0.475	474.6	0back	Block1	0back/STIM_006.jpg	99
544.181	0.62	620.4	0back	Block1	0back/STIM_006.jpg	99
547.59	0.776	775.9	0back	Block1	0back/STIM_007.jpg	100
552.268	0.548	548.4	0back	Block1	0back/STIM_007.jpg	99
555.968	0.42	419.7	0back	Block1	0back/STIM_007.jpg	99
560.347	0.534	533.5	0back	Block1	0back/STIM_008.jpg	100
563.851	0.707	706.8	0back	Block1	0back/STIM_008.jpg	99
568.471	0.569	569.0	0back	Block1	0back/STIM_008.jpg	100
571.917	0.498	497.8	0back	Block1	0back/STIM_009.jpg	99
574.676	0.46	460.5	0back	Block1	0back/STIM_009.jpg	99
577.28	0.484	484.4	0back	Block1	0back/STIM_009.jpg	100
581.643	0.574	573.5	0back	Block1	0back/STIM_010.jpg	99
584.497	0.803	802.8	0back	Block1	0back/STIM_010.jpg	99
588.256	0.545	545.2	0back	Block1	0back/STIM_010.jpg	100
592.669	0.61	609.6	0back	Block1	0back/STIM_011.jpg	99
596.762	0.493	492.9	0back	Block1	0back/STIM_011.jpg	100
600.698	0.712	712.0	0back	Block1	0back/STIM_011.jpg	99
604.037	0.617	617.2	0back	Block1	0back/STIM_012.jpg	100
608.257	0.481	481.1	0back	Block1	0back/STIM_012.jpg	99
610.854	0.487	487.2	0back	Block1	0back/STIM_012.jpg	100
615.116	0.47	469.8	0back	Block1	0back/STIM_013.jpg	99
617.999	0.578	578.3	0back	Block1	0back/STIM_013.jpg	99
620.927	0.549	548.9	0back	Block1	0back/STIM_013.jpg	99
624.902	0.589	589.4	0back	Block1	0back/STIM_014.jpg	99
627.956	0.567	566.7	0back	Block1	0back/STIM_014.jpg	99
631.686	0.572	572.2	0back	Block1	0back/STIM_014.jpg	99
634.472	0.831	830.9	0back	Block1	0back/STIM_015.jpg	99
639.091	0.834	834.0	0back	Block1	0back/STIM_015.jpg	99
641.937	0.531	530.6	0back	Block1	0back/STIM_015.jpg	99
644.671	0.772	772.4	0back	Block1	0back/STIM_016.jpg	100
647.798	0.771	770.8	0back	Block1	0back/STIM_016.jpg	99
651.69	0.465	464.6	0back	Block1	0back/STIM_016.jpg	99
655.711	0.518	518.4	0back	Block1	0back/STIM_017.jpg	99
659.286	0.498	497.9	0back	Block1	0back/STIM_017.jpg	100
662.563	0.824	823.8	0back	Block1	0back/STIM_017.jpg	100
667.345	0.525	525.0	0back	Block1	0back/STIM_018.jpg	99
671.58	0.54	539.7	0back	Block1	0back/STIM_018.jpg	99
674.355	0.802	801.8	0back	Block1	0back/STIM_018.jpg	100
678.852	0.776	776.3	0back	Block1	0back/STIM_019.jpg	99
683.592	0.694	694.1	0back	Block1	0back/STIM_019.jpg	100
687.52	0.756	756.1	0back	Block1	0back/STIM_019.jpg	99
692.246	0.784	783.6	2back	Block2	2back/STIM_000.jpg	100
695.634	1.113	1113.3	2back	Block2	2back/STIM_000.jpg	99
699.2	0.503	503.0	2back	Block2	2back/STIM_000.jpg	100
701.974	1.178	1177.5	2back	Block2	2back/STIM_001.jpg	99
707.034	1.129	1128.7	2back	Block2	2back/STIM_001.jpg	99
710.593	0.783	783.1	2back	Block2	2back/STIM_001.jpg	99
714.547	0.782	782.4	2back	Block2	2back/STIM_002.jpg	99
717.823	1.163	1163.1	2back	Block2	2back/STIM_002.jpg	99
722.064	0.566	565.8	2back	Block2	2back/STIM_002.jpg	99
725.626	1.049	1049.0	2back	Block2	2back/STIM_003.jpg	100
730.384	0.534	534.1	2back	Block2	2back/STIM_003.jpg	100
732.963	1.085	1084.8	2back	Block2	2back/STIM_003.jpg	99
736.939	0.607	607.1	2back	Block2	2back/STIM_004.jpg	100
741.219	1.16	1159.7	2back	Block2	2back/STIM_004.jpg	100
744.935	0.887	887.1	2back	Block2	2back/STIM_004.jpg	100
748.417	0.55	550.5	2back	Block2	2back/STIM_005.jpg	99
751.287	1.046	1045.8	2back	Block2	2back/STIM_005.jpg	99
754.954	0.755	755.2	2back	Block2	2back/STIM_005.jpg	100
757.977	1.023	1022.7	2back	Block2	2back/STIM_006.jpg	99
761.634	0.642	642.1	2back	Block2	2back/STIM_006.jpg	100
765.654	0.722	722.5	2back	Block2	2back/STIM_006.jpg	100
770.066	1.004	1003.6	2back	Block2	2back/STIM_007.jpg	100
774.084	0.709	708.9	2back	Block2	2back/STIM_007.jpg	99
777.153	0.973	972.8	2back	Block2	2back/STIM_007.jpg	100
782.028	0.6	600.0	2back	Block2	2back/STIM_008.jpg	100
786.439	0.93	929.7	2back	Block2	2back/STIM_008.jpg	99
789.815	0.899	898.7	2back	Block2	2back/STIM_008.jpg	99
794.619	1.214	1214.0	2back	Block2	2back/STIM_009.jpg	99
797.916	1.124	1123.6	2back	Block2	2back/STIM_009.jpg	99
802.533	0.482	481.5	2back	Block2	2back/STIM_009.jpg	99
805.659	0.56	560.2	2back	Block2	2back/STIM_010.jpg	100
808.78	0.757	757.0	2back	Block2	2back/STIM_010.jpg	99
811.892	0.783	782.7	2back	Block2	2back/STIM_010.jpg	100
814.699	0.537	537.0	2back	Block2	2back/STIM_011.jpg	99
817.435	0.96	959.6	2back	Block2	2back/STIM_011.jpg	100
821.524	0.832	831.7	2back	Block2	2back/STIM_011.jpg	100
826.206	1.172	1172.1	2back	Block2	2back/STIM_012.jpg	99
829.447	0.673	672.9	2back	Block2	2back/STIM_012.jpg	99
833.989	0.744	744.3	2back	Block2	2back/STIM_012.jpg	99
837.381	0.737	736.8	2back	Block2	2back/STIM_013.jpg	100
841.725	0.934	933.9	2back	Block2	2back/STIM_013.jpg	100
845.77	1.039	1039.2	2back	Block2	2back/STIM_013.jpg	100
850.455	0.798	797.5	2back	Block2	2back/STIM_014.jpg	100
853.839	0.726	726.0	2back	Block2	2back/STIM_014.jpg	99
856.819	0.981	981.3	2back	Block2	2back/STIM_014.jpg	99
861.473	0.684	684.3	2back	Block2	2back/STIM_015.jpg	100
865.452	1.149	1149.3	2back	Block2	2back/STIM_015.jpg	99
869.029	0.872	872.5	2back	Block2	2back/STIM_015.jpg	99
872.739	0.758	758.3	2back	Block2	2back/STIM_016.jpg	99
876.946	0.832	832.5	2back	Block2	2back/STIM_016.jpg	99
880.774	0.884	884.3	2back	Block2	2back/STIM_016.jpg	100
884.617	1.022	1022.1	2back	Block2	2back/STIM_017.jpg	100
888.751	0.882	881.7	2back	Block2	2back/STIM_017.jpg	100
892.044	0.982	982.4	2back	Block2	2back/STIM_017.jpg	100
895.417	0.787	787.2	2back	Block2	2back/STIM_018.jpg	100
898.992	0.834	833.8	2back	Block2	2back/STIM_018.jpg	100
902.065	0.941	940.6	2back	Block2	2back/STIM_018.jpg	100
906.397	0.608	607.5	2back	Block2	2back/STIM_019.jpg	100
909.809	0.607	606.8	2back	Block2	2back/STIM_019.jpg	99
913.537	0.893	892.9	2back	Block2	2back/STIM_019.jpg	100
917.047	1.079	1079.0	2back	Block2	2back/STIM_020.jpg	99
920.512	0.646	645.8	2back	Block2	2back/STIM_020.jpg	99
924.276	0.494	494.5	2back	Block2	2back/STIM_020.jpg	100
928.362	0.924	924.3	2back	Block2	2back/STIM_021.jpg	99
931.738	0.934	934.4	2back	Block2	2back/STIM_021.jpg	99
936.404	0.484	484.3	2back	Block2	2back/STIM_021.jpg	99
940.649	1.188	1188.0	2back	Block2	2back/STIM_022.jpg	99
945.541	0.967	966.6	2back	Block2	2back/STIM_022.jpg	99
949.918	0.65	650.2	2back	Block2	2back/STIM_022.jpg	99
953.225	1.084	1084.5	2back	Block2	2back/STIM_023.jpg	100
958.181	0.728	727.5	2back	Block2	2back/STIM_023.jpg	100
962.212	0.774	774.4	2back	Block2	2back/STIM_023.jpg	99
965.254	1.118	1118.5	2back	Block2	2back/STIM_024.jpg	99
970.222	0.845	844.9	2back	Block2	2back/STIM_024.jpg	99
973.367	0.888	888.5	2back	Block2	2back/STIM_024.jpg	100
976.446	0.626	626.1	2back	Block2	2back/STIM_025.jpg	100
979.102	1.094	1093.9	2back	Block2	2back/STIM_025.jpg	99
982.434	0.581	581.4	2back	Block2	2back/STIM_025.jpg	100
986.597	1.054	1053.9	2back	Block2	2back/STIM_026.jpg	99
990.102	0.718	717.9	2back	Block2	2back/STIM_026.jpg	99
994.623	0.987	987.2	2back	Block2	2back/STIM_026.jpg	99
998.164	0.677	676.8	2back	Block2	2back/STIM_027.jpg	100
1001.857	0.62	619.6	2back	Block2	2back/STIM_027.jpg	100
1006.235	0.579	579.2	2back	Block2	2back/STIM_027.jpg	100
1010.795	1.087	1086.8	2back	Block2	2back/STIM_028.jpg	100
1014.626	0.502	502.1	2back	Block2	2back/STIM_028.jpg	100
1017.496	0.624	624.2	2back	Block2	2back/STIM_028.jpg	99
1020.623	0.979	978.7	2back	Block2	2back/STIM_029.jpg	99
1024.257	1.056	1056.3	2back	Block2	2back/STIM_029.jpg	99
1028.301	0.923	922.8	2back	Block2	2back/STIM_029.jpg	99
1031.606	0.586	586.1	2back	Block2	2back/STIM_030.jpg	100
1034.885	1.135	1135.0	2back	Block2	2back/STIM_030.jpg	100
1038.572	0.712	712.3	2back	Block2	2back/STIM_030.jpg	100
1042.645	0.898	897.9	2back	Block2	2back/STIM_031.jpg	100
1046.875	0.754	754.5	2back	Block2	2back/STIM_031.jpg	100
1050.839	0.84	840.1	2back	Block2	2back/STIM_031.jpg	100
1054.569	1.147	1147.3	2back	Block2	2back/STIM_032.jpg	99
1058.014	0.857	857.2	2back	Block2	2back/STIM_032.jpg	100
1061.35	0.535	534.6	2back	Block2	2back/STIM_032.jpg	99
1065.657	0.706	706.1	2back	Block2	2back/STIM_033.jpg	99
1070.093	0.718	718.0	2back	Block2	2back/STIM_033.jpg	100
1074.647	1.087	1087.0	2back	Block2	2back/STIM_033.jpg	100
1078.119	0.922	921.9	2back	Block2	2back/STIM_034.jpg	100
1081.213	0.797	797.3	2back	Block2	2back/STIM_034.jpg	100
1084.91	0.859	859.2	2back	Block2	2back/STIM_034.jpg	99
1089.254	0.546	546.5	2back	Block2	2back/STIM_035.jpg	100
1092.029	1.072	1071.7	2back	Block2	2back/STIM_035.jpg	100
1095.377	0.688	687.6	2back	Block2	2back/STIM_035.jpg	100
1099.711	1.15	1149.8	2back	Block2	2back/STIM_036.jpg	99
1104.724	1.123	1122.9	2back	Block2	2back/STIM_036.jpg	99
1107.903	1.002	1002.0	2back	Block2	2back/STIM_036.jpg	100
1112.137	0.814	814.5	2back	Block2	2back/STIM_037.jpg	99
1115.72	0.984	984.1	2back	Block2	2back/STIM_037.jpg	99
1120.417	1.096	1095.8	2back	Block2	2back/STIM_037.jpg	99
1123.93	0.564	564.1	2back	Block2	2back/STIM_038.jpg	99
1128.154	0.603	602.9	2back	Block2	2back/STIM_038.jpg	100
1132.471	0.483	483.2	2back	Block2	2back/STIM_038.jpg	100
1136.322	0.609	609.4	2back	Block2	2back/STIM_039.jpg	99
1140.28	0.979	979.1	2back	Block2	2back/STIM_039.jpg	99
1145.148	0.484	484.2	2back	Block2	2back/STIM_039.jpg	100
1149.56	0.671	670.7	0back	Block2	0back/STIM_000.jpg	100
1152.518	0.677	676.9	0back	Block2	0back/STIM_000.jpg	99
1157.133	0.637	637.3	0back	Block2	0back/STIM_000.jpg	100
1161.11	0.66	660.4	0back	Block2	0back/STIM_001.jpg	100
1164.423	0.489	488.6	0back	Block2	0back/STIM_001.jpg	99
1168.2	0.449	449.1	0back	Block2	0back/STIM_001.jpg	99
1172.118	0.665	665.2	0back	Block2	0back/STIM_002.jpg	100
1176.321	0.594	594.2	0back	Block2	0back/STIM_002.jpg	100
1179.889	0.529	529.4	0back	Block2	0back/STIM_002.jpg	99
1183.696	0.637	636.8	0back	Block2	0back/STIM_003.jpg	99
1186.736	0.78	779.7	0back	Block2	0back/STIM_003.jpg	100
1189.604	0.564	563.7	0back	Block2	0back/STIM_003.jpg	99
1193.034	0.638	638.2	0back	Block2	0back/STIM_004.jpg	100
1196.721	0.503	503.5	0back	Block2	0back/STIM_004.jpg	99
1199.312	0.73	730.5	0back	Block2	0back/STIM_004.jpg	100
1203.743	0.821	820.8	0back	Block2	0back/STIM_005.jpg	100
1208.434	0.564	564.5	0back	Block2	0back/STIM_005.jpg	100
1211.868	0.66	660.0	0back	Block2	0back/STIM_005.jpg	100
1216.281	0.685	684.9	0back	Block2	0back/STIM_006.jpg	99
1220.033	0.519	518.6	0back	Block2	0back/STIM_006.jpg	99
1223.794	0.698	698.1	0back	Block2	0back/STIM_006.jpg	99
1228.316	0.794	794.1	0back	Block2	0back/STIM_007.jpg	100
1232.029	0.65	649.5	0back	Block2	0back/STIM_007.jpg	100
1236.64	0.815	815.3	0back	Block2	0back/STIM_007.jpg	100
1239.937	0.63	629.6	0back	Block2	0back/STIM_008.jpg	99
1243.26	0.835	835.2	0back	Block2	0back/STIM_008.jpg	99
1246.954	0.829	829.0	0back	Block2	0back/STIM_008.jpg	100
1251.396	0.604	603.9	0back	Block2	0back/STIM_009.jpg	99
1254.949	0.471	470.7	0back	Block2	0back/STIM_009.jpg	100
1258.014	0.824	824.1	0back	Block2	0back/STIM_009.jpg	99
1261.109	0.52	519.9	0back	Block2	0back/STIM_010.jpg	100
1265.074	0.66	660.3	0back	Block2	0back/STIM_010.jpg	99
1267.843	0.762	762.5	0back	Block2	0back/STIM_010.jpg	99
1270.904	0.571	570.8	0back	Block2	0back/STIM_011.jpg	100
1273.756	0.822	822.0	0back	Block2	0back/STIM_011.jpg	100
1276.633	0.523	523.2	0back	Block2	0back/STIM_011.jpg	100
1279.485	0.633	633.1	0back	Block2	0back/STIM_012.jpg	99
1282.544	0.638	638.2	0back	Block2	0back/STIM_012.jpg	100
1286.417	0.558	558.3	0back	Block2	0back/STIM_012.jpg	100
1289.627	0.729	728.8	0back	Block2	0back/STIM_013.jpg	100
1292.989	0.739	739.3	0back	Block2	0back/STIM_013.jpg	100
1297.36	0.619	619.4	0back	Block2	0back/STIM_013.jpg	99
1300.909	0.442	442.1	0back	Block2	0back/STIM_014.jpg	100
1304.298	0.831	831.3	0back	Block2	0back/STIM_014.jpg	100
1308.322	0.432	432.1	0back	Block2	0back/STIM_014.jpg	99
1311.845	0.516	516.5	0back	Block2	0back/STIM_015.jpg	99
1314.491	0.767	766.6	0back	Block2	0back/STIM_015.jpg	99
1317.539	0.792	792.2	0back	Block2	0back/STIM_015.jpg	99
1321.761	0.65	650.5	0back	Block2	0back/STIM_016.jpg	99
1325.303	0.793	793.0	0back	Block2	0back/STIM_016.jpg	100
1329.77	0.526	526.5	0back	Block2	0back/STIM_016.jpg	100
1334.164	0.772	771.6	0back	Block2	0back/STIM_017.jpg	100
1338.02	0.784	783.7	0back	Block2	0back/STIM_017.jpg	99
1341.148	0.488	487.8	0back	Block2	0back/STIM_017.jpg	99
1344.186	0.786	785.9	0back	Block2	0back/STIM_018.jpg	100
1347.439	0.441	440.9	0back	Block2	0back/STIM_018.jpg	100
1350.22	0.587	587.3	0back	Block2	0back/STIM_018.jpg	99
1353.726	0.799	799.3	0back	Block2	0back/STIM_019.jpg	100
1357.396	0.588	588.0	0back	Block2	0back/STIM_019.jpg	99
1360.777	0.707	706.9	0back	Block2	0back/STIM_019.jpg	99
1363.799	0.656	655.7	2back	Block3	2back/STIM_000.jpg	99
1367.009	0.741	741.3	2back	Block3	2back/STIM_000.jpg	100
1371.12	1.008	1008.3	2back	Block3	2back/STIM_000.jpg	100
1375.361	0.945	945.1	2back	Block3	2back/STIM_001.jpg	100
1378.911	0.84	839.5	2back	Block3	2back/STIM_001.jpg	99
1382.091	1.009	1009.4	2back	Block3	2back/STIM_001.jpg	100
1385.126	0.488	487.7	2back	Block3	2back/STIM_002.jpg	99
1389.559	0.453	453.3	2back	Block3	2back/STIM_002.jpg	100
1392.468	0.568	567.6	2back	Block3	2back/STIM_002.jpg	99
1395.758	0.514	514.3	2back	Block3	2back/STIM_003.jpg	100
1399.548	0.616	615.6	2back	Block3	2back/STIM_003.jpg	99
1403.422	0.836	836.4	2back	Block3	2back/STIM_003.jpg	99
1407.363	0.859	858.9	2back	Block3	2back/STIM_004.jpg	100
1412.166	0.466	465.8	2back	Block3	2back/STIM_004.jpg	100
1414.977	0.546	546.1	2back	Block3	2back/STIM_004.jpg	99
1418.484	0.697	697.1	2back	Block3	2back/STIM_005.jpg	100
1422.519	0.669	669.2	2back	Block3	2back/STIM_005.jpg	100
1427.073	1.009	1009.3	2back	Block3	2back/STIM_005.jpg	100
1432.078	0.492	492.2	2back	Block3	2back/STIM_006.jpg	100
1434.972	0.484	483.7	2back	Block3	2back/STIM_006.jpg	99
1438.451	0.859	858.8	2back	Block3	2back/STIM_006.jpg	100
1442.182	0.979	979.4	2back	Block3	2back/STIM_007.jpg	100
1445.609	0.957	956.7	2back	Block3	2back/STIM_007.jpg	99
1450.216	0.681	680.8	2back	Block3	2back/STIM_007.jpg	100
1453.737	0.467	467.3	2back	Block3	2back/STIM_008.jpg	100
1456.236	0.886	885.5	2back	Block3	2back/STIM_008.jpg	100
1459.388	0.464	463.5	2back	Block3	2back/STIM_008.jpg	99
1462.712	0.65	650.0	2back	Block3	2back/STIM_009.jpg	99
1465.514	0.923	922.7	2back	Block3	2back/STIM_009.jpg	100
1468.46	0.864	864.2	2back	Block3	2back/STIM_009.jpg	100
1471.96	0.811	811.3	2back	Block3	2back/STIM_010.jpg	99
1476.134	0.593	593.2	2back	Block3	2back/STIM_010.jpg	99
1478.934	0.941	941.1	2back	Block3	2back/STIM_010.jpg	99
1482.51	1.021	1021.3	2back	Block3	2back/STIM_011.jpg	99
1487.17	0.523	523.2	2back	Block3	2back/STIM_011.jpg	100
1491.164	0.448	447.6	2back	Block3	2back/STIM_011.jpg	100
1493.99	0.82	819.7	2back	Block3	2back/STIM_012.jpg	100
1498.137	0.47	470.4	2back	Block3	2back/STIM_012.jpg	99
1500.834	0.587	586.8	2back	Block3	2back/STIM_012.jpg	99
1505.187	0.75	750.2	2back	Block3	2back/STIM_013.jpg	100
1508.896	0.578	577.7	2back	Block3	2back/STIM_013.jpg	100
1511.912	0.953	952.7	2back	Block3	2back/STIM_013.jpg	99
1515.376	0.726	726.3	2back	Block3	2back/STIM_014.jpg	100
1518.623	0.491	491.3	2back	Block3	2back/STIM_014.jpg	99
1521.874	0.495	494.9	2back	Block3	2back/STIM_014.jpg	99
1524.932	0.534	533.5	2back	Block3	2back/STIM_015.jpg	99
1528.029	0.757	756.9	2back	Block3	2back/STIM_015.jpg	99
1531.097	0.97	970.4	2back	Block3	2back/STIM_015.jpg	100
1534.939	0.668	668.4	2back	Block3	2back/STIM_016.jpg	99
1538.362	0.941	940.6	2back	Block3	2back/STIM_016.jpg	100
1541.519	0.641	641.3	2back	Block3	2back/STIM_016.jpg	99
1545.087	0.744	743.7	2back	Block3	2back/STIM_017.jpg	99
1549.053	0.737	737.2	2back	Block3	2back/STIM_017.jpg	99
1553.538	0.995	994.7	2back	Block3	2back/STIM_017.jpg	100
1557.656	0.442	441.9	2back	Block3	2back/STIM_018.jpg	99
1560.645	0.587	586.9	2back	Block3	2back/STIM_018.jpg	99
1563.776	0.956	955.5	2back	Block3	2back/STIM_018.jpg	100
1566.776	0.94	939.9	2back	Block3	2back/STIM_019.jpg	100
1570.184	0.926	925.6	2back	Block3	2back/STIM_019.jpg	99
1574.779	0.799	798.9	2back	Block3	2back/STIM_019.jpg	100
1577.882	1.002	1002.3	2back	Block3	2back/STIM_020.jpg	100
1582.816	0.97	970.1	2back	Block3	2back/STIM_020.jpg	99
1587.441	0.439	439.4	2back	Block3	2back/STIM_020.jpg	100
1591.642	0.731	731.1	2back	Block3	2back/STIM_021.jpg	99
1595.77	0.951	951.1	2back	Block3	2back/STIM_021.jpg	99
1598.93	0.458	458.3	2back	Block3	2back/STIM_021.jpg	99
1602.681	0.477	476.6	2back	Block3	2back/STIM_022.jpg	99
1605.399	0.672	672.1	2back	Block3	2back/STIM_022.jpg	100
1609.765	0.764	763.6	2back	Block3	2back/STIM_022.jpg	99
1614.048	0.907	907.3	2back	Block3	2back/STIM_023.jpg	100
1618.318	0.895	894.9	2back	Block3	2back/STIM_023.jpg	100
1622.276	0.666	666.2	2back	Block3	2back/STIM_023.jpg	99
1626.018	0.575	575.4	2back	Block3	2back/STIM_024.jpg	100
1629.81	0.592	591.9	2back	Block3	2back/STIM_024.jpg	100
1633.684	1.015	1015.1	2back	Block3	2back/STIM_024.jpg	99
1636.714	0.482	481.7	2back	Block3	2back/STIM_025.jpg	99
1640.792	0.987	986.9	2back	Block3	2back/STIM_025.jpg	100
1644.528	0.773	772.7	2back	Block3	2back/STIM_025.jpg	99
1649.194	0.676	676.0	2back	Block3	2back/STIM_026.jpg	100
1652.021	0.823	823.0	2back	Block3	2back/STIM_026.jpg	99
1655.596	0.566	565.6	2back	Block3	2back/STIM_026.jpg	99
1658.985	0.991	990.7	2back	Block3	2back/STIM_027.jpg	100
1663.742	0.825	825.4	2back	Block3	2back/STIM_027.jpg	100
1667.696	0.72	720.3	2back	Block3	2back/STIM_027.jpg	99
1672.201	0.849	848.8	2back	Block3	2back/STIM_028.jpg	99
1676.549	0.85	850.5	2back	Block3	2back/STIM_028.jpg	100
1680.274	0.786	785.5	2back	Block3	2back/STIM_028.jpg	99
1683.562	0.565	565.3	2back	Block3	2back/STIM_029.jpg	99
1686.707	0.618	618.4	2back	Block3	2back/STIM_029.jpg	100
1690.898	0.453	452.8	2back	Block3	2back/STIM_029.jpg	100
1695.291	0.487	487.2	2back	Block3	2back/STIM_030.jpg	100
1699.252	0.717	716.6	2back	Block3	2back/STIM_030.jpg	100
1703.346	0.884	884.1	2back	Block3	2back/STIM_030.jpg	100
1706.414	0.867	867.1	2back	Block3	2back/STIM_031.jpg	99
1710.242	0.519	518.8	2back	Block3	2back/STIM_031.jpg	99
1713.176	0.98	980.3	2back	Block3	2back/STIM_031.jpg	100
1717.099	0.781	781.4	2back	Block3	2back/STIM_032.jpg	100
1720.531	0.481	480.9	2back	Block3	2back/STIM_032.jpg	99
1724.084	0.973	972.9	2back	Block3	2back/STIM_032.jpg	100
1727.165	0.822	822.2	2back	Block3	2back/STIM_033.jpg	100
1730.101	0.99	990.1	2back	Block3	2back/STIM_033.jpg	100
1733.808	1.018	1017.8	2back	Block3	2back/STIM_033.jpg	100
1738.794	0.579	578.6	2back	Block3	2back/STIM_034.jpg	100
1741.374	0.551	551.0	2back	Block3	2back/STIM_034.jpg	100
1744.092	0.524	523.8	2back	Block3	2back/STIM_034.jpg	99
1747.561	0.76	760.0	2back	Block3	2back/STIM_035.jpg	100
1752.201	0.738	738.2	2back	Block3	2back/STIM_035.jpg	100
1756.885	0.453	453.2	2back	Block3	2back/STIM_035.jpg	100
1759.736	0.515	515.2	2back	Block3	2back/STIM_036.jpg	99
1763.815	0.7	700.5	2back	Block3	2back/STIM_036.jpg	100
1767.943	0.499	499.2	2back	Block3	2back/STIM_036.jpg	100
1771.484	0.464	464.2	2back	Block3	2back/STIM_037.jpg	99
1775.616	0.45	449.7	2back	Block3	2back/STIM_037.jpg	99
1778.696	0.891	890.8	2back	Block3	2back/STIM_037.jpg	100
1782.578	0.583	583.1	2back	Block3	2back/STIM_038.jpg	99
1785.543	0.943	943.4	2back	Block3	2back/STIM_038.jpg	99
1790.057	0.62	620.3	2back	Block3	2back/STIM_038.jpg	100
1793.098	0.681	680.6	2back	Block3	2back/STIM_039.jpg	100
1796.863	0.883	882.9	2back	Block3	2back/STIM_039.jpg	100
1801.642	0.693	693.3	2back	Block3	2back/STIM_039.jpg	99
1805.438	0.802	802.0	0back	Block3	0back/STIM_000.jpg	99
1808.836	0.801	801.0	0back	Block3	0back/STIM_000.jpg	99
1812.064	0.761	760.9	0back	Block3	0back/STIM_000.jpg	100
1816.337	0.82	820.5	0back	Block3	0back/STIM_001.jpg	100
1820.458	0.618	617.5	0back	Block3	0back/STIM_001.jpg	100
1824.321	0.749	748.9	0back	Block3	0back/STIM_001.jpg	100
1827.203	0.655	655.1	0back	Block3	0back/STIM_002.jpg	99
1830.792	0.419	419.0	0back	Block3	0back/STIM_002.jpg	99
1833.94	0.682	682.0	0back	Block3	0back/STIM_002.jpg	99
1837.567	0.746	745.9	0back	Block3	0back/STIM_003.jpg	99
1841.3	0.5	499.8	0back	Block3	0back/STIM_003.jpg	99
1845.003	0.75	749.8	0back	Block3	0back/STIM_003.jpg	99
1849.384	0.659	658.8	0back	Block3	0back/STIM_004.jpg	99
1853.64	0.832	831.5	0back	Block3	0back/STIM_004.jpg	100
1856.955	0.538	537.9	0back	Block3	0back/STIM_004.jpg	100
1861.204	0.785	785.1	0back	Block3	0back/STIM_005.jpg	100
1865.561	0.832	832.0	0back	Block3	0back/STIM_005.jpg	100
1868.614	0.715	715.3	0back	Block3	0back/STIM_005.jpg	100
1871.603	0.441	440.8	0back	Block3	0back/STIM_006.jpg	100
1874.385	0.662	662.3	0back	Block3	0back/STIM_006.jpg	100
1877.91	0.77	769.7	0back	Block3	0back/STIM_006.jpg	100
1880.893	0.581	580.8	0back	Block3	0back/STIM_007.jpg	99
1884.166	0.442	442.5	0back	Block3	0back/STIM_007.jpg	100
1887.328	0.712	711.5	0back	Block3	0back/STIM_007.jpg	99
1890.891	0.474	474.5	0back	Block3	0back/STIM_008.jpg	99
1894.519	0.448	447.8	0back	Block3	0back/STIM_008.jpg	99
1898.831	0.454	454.3	0back	Block3	0back/STIM_008.jpg	99
1903.114	0.721	720.7	0back	Block3	0back/STIM_009.jpg	100
1907.084	0.729	729.2	0back	Block3	0back/STIM_009.jpg	100
1910.863	0.469	468.7	0back	Block3	0back/STIM_009.jpg	99
1914.733	0.775	775.2	0back	Block3	0back/STIM_010.jpg	99
1917.979	0.452	452.5	0back	Block3	0back/STIM_010.jpg	100
1921.495	0.654	654.4	0back	Block3	0back/STIM_010.jpg	100
1924.649	0.738	738.2	0back	Block3	0back/STIM_011.jpg	99
1927.981	0.718	718.1	0back	Block3	0back/STIM_011.jpg	99
1931.3	0.455	455.2	0back	Block3	0back/STIM_011.jpg	99
1933.951	0.685	685.0	0back	Block3	0back/STIM_012.jpg	99
1938.361	0.475	474.8	0back	Block3	0back/STIM_012.jpg	100
1942.047	0.826	826.4	0back	Block3	0back/STIM_012.jpg	100
1946.286	0.506	505.8	0back	Block3	0back/STIM_013.jpg	100
1950.072	0.667	667.1	0back	Block3	0back/STIM_013.jpg	100
1954.499	0.79	789.9	0back	Block3	0back/STIM_013.jpg	100
1957.827	0.712	711.9	0back	Block3	0back/STIM_014.jpg	100
1961.553	0.697	696.6	0back	Block3	0back/STIM_014.jpg	100
1964.837	0.64	640.0	0back	Block3	0back/STIM_014.jpg	100
1967.603	0.502	502.1	0back	Block3	0back/STIM_015.jpg	99
1970.456	0.553	553.1	0back	Block3	0back/STIM_015.jpg	100
1973.496	0.451	450.7	0back	Block3	0back/STIM_015.jpg	100
1977.38	0.596	596.0	0back	Block3	0back/STIM_016.jpg	99
1981.229	0.785	785.4	0back	Block3	0back/STIM_016.jpg	100
1984.084	0.725	724.9	0back	Block3	0back/STIM_016.jpg	100
1988.441	0.603	603.1	0back	Block3	0back/STIM_017.jpg	100
1992.739	0.791	790.8	0back	Block3	0back/STIM_017.jpg	100
1995.697	0.45	449.9	0back	Block3	0back/STIM_017.jpg	99
1999.274	0.451	450.8	0back	Block3	0back/STIM_018.jpg	99
2002.31	0.503	503.4	0back	Block3	0back/STIM_018.jpg	99
2005.485	0.761	760.9	0back	Block3	0back/STIM_018.jpg	100
2008.541	0.512	512.3	0back	Block3	0back/STIM_019.jpg	100
2012.481	0.684	683.5	0back	Block3	0back/STIM_019.jpg	99
2016.588	0.748	747.6	0back	Block3	0back/STIM_019.jpg	99
2020.703	0.877	877.2	2back	Block4	2back/STIM_000.jpg	100
2024.136	0.579	578.6	2back	Block4	2back/STIM_000.jpg	99
2028.035	0.618	617.8	2back	Block4	2back/STIM_000.jpg	99
2030.891	0.75	750.4	2back	Block4	2back/STIM_001.jpg	99
2035.243	0.726	726.3	2back	Block4	2back/STIM_001.jpg	100
2039.316	0.862	861.5	2back	Block4	2back/STIM_001.jpg	99
2043.771	0.79	789.5	2back	Block4	2back/STIM_002.jpg	100
2048.452	0.95	949.9	2back	Block4	2back/STIM_002.jpg	100
2052.501	0.706	706.5	2back	Block4	2back/STIM_002.jpg	99
2055.784	0.706	706.0	2back	Block4	2back/STIM_003.jpg	100
2060.261	0.696	696.0	2back	Block4	2back/STIM_003.jpg	100
2063.992	0.734	734.0	2back	Block4	2back/STIM_003.jpg	100
2068.03	0.69	690.1	2back	Block4	2back/STIM_004.jpg	99
2072.126	0.718	718.3	2back	Block4	2back/STIM_004.jpg	99
2076.027	0.884	884.0	2back	Block4	2back/STIM_004.jpg	100
2079.958	0.964	963.6	2back	Block4	2back/STIM_005.jpg	100
2084.711	0.891	890.9	2back	Block4	2back/STIM_005.jpg	100
2089.286	0.632	632.3	2back	Block4	2back/STIM_005.jpg	99
2092.19	0.755	755.2	2back	Block4	2back/STIM_006.jpg	99
2096.763	0.684	684.1	2back	Block4	2back/STIM_006.jpg	99
2099.937	0.923	923.0	2back	Block4	2back/STIM_006.jpg	99
2104.404	0.739	739.4	2back	Block4	2back/STIM_007.jpg	100
2108.433	0.678	678.2	2back	Block4	2back/STIM_007.jpg	100
2112.632	0.752	752.0	2back	Block4	2back/STIM_007.jpg	99
2117.032	0.962	962.2	2back	Block4	2back/STIM_008.jpg	100
2120.252	0.805	804.7	2back	Block4	2back/STIM_008.jpg	100
2124.525	0.856	855.6	2back	Block4	2back/STIM_008.jpg	99
2129.206	0.598	597.5	2back	Block4	2back/STIM_009.jpg	99
2131.872	0.861	860.6	2back	Block4	2back/STIM_009.jpg	99
2135.584	1.017	1016.6	2back	Block4	2back/STIM_009.jpg	100
2140.047	0.567	566.8	2back	Block4	2back/STIM_010.jpg	100
2144.282	0.904	904.5	2back	Block4	2back/STIM_010.jpg	99
2148.374	0.918	918.0	2back	Block4	2back/STIM_010.jpg	100
2153.067	0.768	767.6	2back	Block4	2back/STIM_011.jpg	99
2155.954	0.974	974.0	2back	Block4	2back/STIM_011.jpg	100
2160.744	0.652	651.8	2back	Block4	2back/STIM_011.jpg	100
2164.722	0.856	856.2	2back	Block4	2back/STIM_012.jpg	100
2168.887	0.893	893.3	2back	Block4	2back/STIM_012.jpg	99
2172.6	0.995	994.9	2back	Block4	2back/STIM_012.jpg	99
2177.553	0.952	952.3	2back	Block4	2back/STIM_013.jpg	100
2182.249	0.909	909.2	2back	Block4	2back/STIM_013.jpg	99
2185.654	0.819	819.2	2back	Block4	2back/STIM_013.jpg	100
2190.334	0.857	856.9	2back	Block4	2back/STIM_014.jpg	100
2193.527	0.456	455.7	2back	Block4	2back/STIM_014.jpg	100
2197.08	0.624	623.5	2back	Block4	2back/STIM_014.jpg	100
2200.79	0.626	626.5	2back	Block4	2back/STIM_015.jpg	99
2204.06	0.526	525.7	2back	Block4	2back/STIM_015.jpg	99
2207.195	0.742	742.2	2back	Block4	2back/STIM_015.jpg	100
2211.887	0.913	912.9	2back	Block4	2back/STIM_016.jpg	99
2215.632	0.493	493.0	2back	Block4	2back/STIM_016.jpg	100
2218.23	0.755	754.9	2back	Block4	2back/STIM_016.jpg	100
2222.933	0.82	819.5	2back	Block4	2back/STIM_017.jpg	100
2226.58	0.767	767.4	2back	Block4	2back/STIM_017.jpg	100
2230.053	0.836	836.3	2back	Block4	2back/STIM_017.jpg	100
2234.06	0.791	791.3	2back	Block4	2back/STIM_018.jpg	99
2238.676	0.661	660.7	2back	Block4	2back/STIM_018.jpg	100
2243.052	0.892	891.7	2back	Block4	2back/STIM_018.jpg	100
2247.44	0.46	460.2	2back	Block4	2back/STIM_019.jpg	99
2250.543	0.875	875.4	2back	Block4	2back/STIM_019.jpg	100
2255.395	0.735	734.6	2back	Block4	2back/STIM_019.jpg	99
2259.297	0.847	847.0	2back	Block4	2back/STIM_020.jpg	100
2262.341	0.513	513.1	2back	Block4	2back/STIM_020.jpg	99
2266.07	0.866	866.1	2back	Block4	2back/STIM_020.jpg	99
2270.802	0.661	660.7	2back	Block4	2back/STIM_021.jpg	100
2273.698	0.515	514.6	2back	Block4	2back/STIM_021.jpg	99
2277.564	0.865	865.1	2back	Block4	2back/STIM_021.jpg	100
2281.019	0.777	777.4	2back	Block4	2back/STIM_022.jpg	99
2285.24	0.551	551.1	2back	Block4	2back/STIM_022.jpg	99
2288.039	0.574	574.3	2back	Block4	2back/STIM_022.jpg	100
2290.986	1.014	1014.3	2back	Block4	2back/STIM_023.jpg	100
2294.28	0.862	861.5	2back	Block4	2back/STIM_023.jpg	99
2297.361	0.928	927.5	2back	Block4	2back/STIM_023.jpg	100
2301.732	0.923	923.1	2back	Block4	2back/STIM_024.jpg	99
2305.857	0.518	517.9	2back	Block4	2back/STIM_024.jpg	100
2310.243	0.87	870.0	2back	Block4	2back/STIM_024.jpg	99
2314.868	0.927	927.0	2back	Block4	2back/STIM_025.jpg	100
2318.154	0.993	992.8	2back	Block4	2back/STIM_025.jpg	99
2321.569	0.629	629.3	2back	Block4	2back/STIM_025.jpg	99
2324.852	0.55	550.3	2back	Block4	2back/STIM_026.jpg	99
2328.891	0.504	504.3	2back	Block4	2back/STIM_026.jpg	100
2331.968	0.678	678.2	2back	Block4	2back/STIM_026.jpg	100
2335.872	0.612	612.5	2back	Block4	2back/STIM_027.jpg	100
2338.542	0.616	615.9	2back	Block4	2back/STIM_027.jpg	99
2341.896	0.728	728.5	2back	Block4	2back/STIM_027.jpg	100
2344.736	0.642	641.7	2back	Block4	2back/STIM_028.jpg	100
2348.644	0.796	796.3	2back	Block4	2back/STIM_028.jpg	99
2352.302	0.662	661.6	2back	Block4	2back/STIM_028.jpg	99
2355.948	0.76	760.1	2back	Block4	2back/STIM_029.jpg	99
2360.651	0.532	532.5	2back	Block4	2back/STIM_029.jpg	100
2363.762	0.702	701.6	2back	Block4	2back/STIM_029.jpg	99
2367.169	0.638	637.8	2back	Block4	2back/STIM_030.jpg	99
2371.553	0.967	967.1	2back	Block4	2back/STIM_030.jpg	100
2375.217	0.871	870.9	2back	Block4	2back/STIM_030.jpg	99
2379.417	0.755	755.0	2back	Block4	2back/STIM_031.jpg	100
2383.377	0.539	539.4	2back	Block4	2back/STIM_031.jpg	99
2386.993	0.748	748.5	2back	Block4	2back/STIM_031.jpg	99
2391.55	0.475	475.0	2back	Block4	2back/STIM_032.jpg	99
2394.968	0.568	568.5	2back	Block4	2back/STIM_032.jpg	99
2399.366	1.015	1015.3	2back	Block4	2back/STIM_032.jpg	99
2403.317	0.476	475.6	2back	Block4	2back/STIM_033.jpg	100
2406.977	0.774	774.4	2back	Block4	2back/STIM_033.jpg	99
2411.445	0.89	890.0	2back	Block4	2back/STIM_033.jpg	99
2415.904	1.001	1000.7	2back	Block4	2back/STIM_034.jpg	99
2419.088	0.989	988.8	2back	Block4	2back/STIM_034.jpg	100
2422.769	0.858	857.6	2back	Block4	2back/STIM_034.jpg	99
2426.006	0.75	749.9	2back	Block4	2back/STIM_035.jpg	99
2430.576	0.919	918.9	2back	Block4	2back/STIM_035.jpg	99
2434.35	0.908	908.1	2back	Block4	2back/STIM_035.jpg	100
2437.63	0.608	608.4	2back	Block4	2back/STIM_036.jpg	99
2441.93	0.905	905.4	2back	Block4	2back/STIM_036.jpg	100
2445.506	0.871	871.2	2back	Block4	2back/STIM_036.jpg	99
2448.479	0.483	483.2	2back	Block4	2back/STIM_037.jpg	99
2451.956	0.999	999.4	2back	Block4	2back/STIM_037.jpg	99
2456.113	0.489	488.9	2back	Block4	2back/STIM_037.jpg	100
2460.448	0.757	756.7	2back	Block4	2back/STIM_038.jpg	99
2465.11	0.824	824.0	2back	Block4	2back/STIM_038.jpg	100
2469.754	0.722	721.9	2back	Block4	2back/STIM_038.jpg	100
2473.334	0.961	960.7	2back	Block4	2back/STIM_039.jpg	100
2477.08	0.818	818.0	2back	Block4	2back/STIM_039.jpg	100
2480.473	0.648	647.5	2back	Block4	2back/STIM_039.jpg	99
2483.425	0.792	791.5	0back	Block4	0back/STIM_000.jpg	99
2486.251	0.723	723.1	0back	Block4	0back/STIM_000.jpg	99
2490.773	0.46	460.4	0back	Block4	0back/STIM_000.jpg	99
2494.23	0.533	532.9	0back	Block4	0back/STIM_001.jpg	100
2498.347	0.579	578.9	0back	Block4	0back/STIM_001.jpg	100
2501.834	0.758	758.4	0back	Block4	0back/STIM_001.jpg	100
2506.195	0.793	793.2	0back	Block4	0back/STIM_002.jpg	99
2509.078	0.661	661.3	0back	Block4	0back/STIM_002.jpg	99
2512.21	0.521	521.4	0back	Block4	0back/STIM_002.jpg	99
2515.119	0.796	796.0	0back	Block4	0back/STIM_003.jpg	99
2518.93	0.829	828.8	0back	Block4	0back/STIM_003.jpg	99
2522.297	0.732	732.1	0back	Block4	0back/STIM_003.jpg	99
2525.495	0.505	504.7	0back	Block4	0back/STIM_004.jpg	99
2529.286	0.536	536.2	0back	Block4	0back/STIM_004.jpg	99
2532.827	0.657	657.1	0back	Block4	0back/STIM_004.jpg	99
2536.303	0.61	610.5	0back	Block4	0back/STIM_005.jpg	100
2540.324	0.461	461.3	0back	Block4	0back/STIM_005.jpg	99
2543.715	0.512	511.6	0back	Block4	0back/STIM_005.jpg	99
2546.297	0.733	732.8	0back	Block4	0back/STIM_006.jpg	99
2549.098	0.622	622.5	0back	Block4	0back/STIM_006.jpg	99
2552.057	0.763	762.6	0back	Block4	0back/STIM_006.jpg	99
2555.419	0.455	454.6	0back	Block4	0back/STIM_007.jpg	100
2559.534	0.724	724.0	0back	Block4	0back/STIM_007.jpg	100
2563.851	0.747	747.1	0back	Block4	0back/STIM_007.jpg	100
2566.916	0.564	564.5	0back	Block4	0back/STIM_008.jpg	100
2570.151	0.5	500.1	0back	Block4	0back/STIM_008.jpg	100
2573.355	0.54	539.7	0back	Block4	0back/STIM_008.jpg	100
2575.941	0.433	433.1	0back	Block4	0back/STIM_009.jpg	100
2579.044	0.541	541.0	0back	Block4	0back/STIM_009.jpg	100
2582.24	0.824	823.9	0back	Block4	0back/STIM_009.jpg	99
2586.29	0.676	676.1	0back	Block4	0back/STIM_010.jpg	99
2589.159	0.828	828.3	0back	Block4	0back/STIM_010.jpg	99
2592.521	0.729	728.9	0back	Block4	0back/STIM_010.jpg	99
2595.392	0.816	815.5	0back	Block4	0back/STIM_011.jpg	100
2599.898	0.791	790.8	0back	Block4	0back/STIM_011.jpg	100
2603.083	0.659	658.8	0back	Block4	0back/STIM_011.jpg	100
2607.159	0.553	553.1	0back	Block4	0back/STIM_012.jpg	99
2610.184	0.464	463.5	0back	Block4	0back/STIM_012.jpg	100
2613.26	0.543	542.6	0back	Block4	0back/STIM_012.jpg	100
2616.627	0.516	515.9	0back	Block4	0back/STIM_013.jpg	100
2620.242	0.688	687.8	0back	Block4	0back/STIM_013.jpg	99
2623.548	0.61	610.0	0back	Block4	0back/STIM_013.jpg	99
2626.503	0.586	586.5	0back	Block4	0back/STIM_014.jpg	99
2630.419	0.506	506.5	0back	Block4	0back/STIM_014.jpg	99
2634.442	0.501	500.8	0back	Block4	0back/STIM_014.jpg	100
2637.514	0.766	766.3	0back	Block4	0back/STIM_015.jpg	99
2641.362	0.756	756.0	0back	Block4	0back/STIM_015.jpg	99
2644.773	0.725	725.3	0back	Block4	0back/STIM_015.jpg	99
2648.379	0.608	608.1	0back	Block4	0back/STIM_016.jpg	100
2652.256	0.664	663.8	0back	Block4	0back/STIM_016.jpg	100
2655.146	0.668	667.7	0back	Block4	0back/STIM_016.jpg	100
2658.917	0.566	566.3	0back	Block4	0back/STIM_017.jpg	99
2662.686	0.562	561.6	0back	Block4	0back/STIM_017.jpg	100
2665.648	0.471	471.3	0back	Block4	0back/STIM_017.jpg	100
2668.491	0.754	754.3	0back	Block4	0back/STIM_018.jpg	100
2671.923	0.605	604.6	0back	Block4	0back/STIM_018.jpg	99
2676.063	0.637	637.4	0back	Block4	0back/STIM_018.jpg	100
2679.082	0.831	830.6	0back	Block4	0back/STIM_019.jpg	99
2683.334	0.584	584.3	0back	Block4	0back/STIM_019.jpg	100
2687.816	0.504	504.1	0back	Block4	0back/STIM_019.jpg	100
