onset	duration	accuracy_binary	trial_type	learning_stage	stimulus
0.0	0.892	1	2back	Block1	2back/STIM_000.jpg
4.711	1.095	1	2back	Block1	2back/STIM_000.jpg
8.859	0.558	1	2back	Block1	2back/STIM_000.jpg
12.304	1.147	1	2back	Block1	2back/STIM_001.jpg
17.178	1.05	1	2back	Block1	2back/STIM_001.jpg
21.005	0.996	1	2back	Block1	2back/STIM_001.jpg
24.783	0.742	0	2back	Block1	2back/STIM_002.jpg
29.199	0.595	1	2back	Block1	2back/STIM_002.jpg
33.342	1.062	1	2back	Block1	2back/STIM_002.jpg
38.248	1.033	1	2back	Block1	2back/STIM_003.jpg
42.115	0.793	1	2back	Block1	2back/STIM_003.jpg
45.934	0.657	1	2back	Block1	2back/STIM_003.jpg
49.381	0.864	1	2back	Block1	2back/STIM_004.jpg
53.522	1.121	1	2back	Block1	2back/STIM_004.jpg
57.922	1.133	1	2back	Block1	2back/STIM_004.jpg
61.509	0.973	1	2back	Block1	2back/STIM_005.jpg
66.051	0.802	1	2back	Block1	2back/STIM_005.jpg
69.135	1.098	1	2back	Block1	2back/STIM_005.jpg
73.357	0.65	1	2back	Block1	2back/STIM_006.jpg
78.046	1.106	1	2back	Block1	2back/STIM_006.jpg
83.082	0.996	0	2back	Block1	2back/STIM_006.jpg
86.157	1.023	1	2back	Block1	2back/STIM_007.jpg
90.144	0.751	0	2back	Block1	2back/STIM_007.jpg
94.727	0.875	1	2back	Block1	2back/STIM_007.jpg
98.718	0.889	1	2back	Block1	2back/STIM_008.jpg
102.073	0.628	0	2back	Block1	2back/STIM_008.jpg
106.652	1.068	1	2back	Block1	2back/STIM_008.jpg
111.753	1.084	1	2back	Block1	2back/STIM_009.jpg
116.118	0.647	1	2back	Block1	2back/STIM_009.jpg
119.739	1.089	1	2back	Block1	2back/STIM_009.jpg
122.972	0.904	1	2back	Block1	2back/STIM_010.jpg
126.438	1.136	1	2back	Block1	2back/STIM_010.jpg
131.288	0.83	1	2back	Block1	2back/STIM_010.jpg
134.619	0.844	0	2back	Block1	2back/STIM_011.jpg
139.214	1.023	1	2back	Block1	2back/STIM_011.jpg
142.506	0.894	1	2back	Block1	2back/STIM_011.jpg
145.633	1.211	1	2back	Block1	2back/STIM_012.jpg
149.124	0.686	0	2back	Block1	2back/STIM_012.jpg
151.998	0.639	1	2back	Block1	2back/STIM_012.jpg
154.848	0.628	1	2back	Block1	2back/STIM_013.jpg
157.622	0.999	1	2back	Block1	2back/STIM_013.jpg
162.591	0.51	0	2back	Block1	2back/STIM_013.jpg
166.454	1.116	1	2back	Block1	2back/STIM_014.jpg
171.032	1.207	1	2back	Block1	2back/STIM_014.jpg
176.281	0.904	1	2back	Block1	2back/STIM_014.jpg
179.598	0.649	1	2back	Block1	2back/STIM_015.jpg
182.639	0.538	1	2back	Block1	2back/STIM_015.jpg
185.271	0.594	1	2back	Block1	2back/STIM_015.jpg
189.085	1.137	1	2back	Block1	2back/STIM_016.jpg
192.904	1.137	1	2back	Block1	2back/STIM_016.jpg
197.424	0.527	1	2back	Block1	2back/STIM_016.jpg
201.657	0.788	1	2back	Block1	2back/STIM_017.jpg
206.206	0.621	1	2back	Block1	2back/STIM_017.jpg
210.455	1.045	1	2back	Block1	2back/STIM_017.jpg
213.729	0.819	1	2back	Block1	2back/STIM_018.jpg
217.038	0.739	1	2back	Block1	2back/STIM_018.jpg
221.736	1.007	1	2back	Block1	2back/STIM_018.jpg
225.155	0.602	0	2back	Block1	2back/STIM_019.jpg
228.757	0.928	1	2back	Block1	2back/STIM_019.jpg
233.015	1.045	1	2back	Block1	2back/STIM_019.jpg
237.678	0.986	1	2back	Block1	2back/STIM_020.jpg
241.416	0.867	1	2back	Block1	2back/STIM_020.jpg
244.624	0.698	1	2back	Block1	2back/STIM_020.jpg
248.014	1.171	1	2back	Block1	2back/STIM_021.jpg
252.92	0.953	1	2back	Block1	2back/STIM_021.jpg
256.591	0.678	1	2back	Block1	2back/STIM_021.jpg
261.176	1.293	1	2back	Block1	2back/STIM_022.jpg
265.533	0.996	0	2back	Block1	2back/STIM_022.jpg
270.425	0.891	1	2back	Block1	2back/STIM_022.jpg
273.681	0.671	1	2back	Block1	2back/STIM_023.jpg
276.885	0.777	1	2back	Block1	2back/STIM_023.jpg
279.685	0.861	0	2back	Block1	2back/STIM_023.jpg
283.821	0.614	1	2back	Block1	2back/STIM_024.jpg
288.353	0.762	1	2back	Block1	2back/STIM_024.jpg
291.741	0.88	1	2back	Block1	2back/STIM_024.jpg
296.642	1.098	1	2back	Block1	2back/STIM_025.jpg
300.255	0.59	0	2back	Block1	2back/STIM_025.jpg
304.56	0.81	1	2back	Block1	2back/STIM_025.jpg
307.958	1.061	1	2back	Block1	2back/STIM_026.jpg
312.443	0.979	0	2back	Block1	2back/STIM_026.jpg
316.108	1.023	1	2back	Block1	2back/STIM_026.jpg
321.036	0.524	1	2back	Block1	2back/STIM_027.jpg
324.46	0.813	1	2back	Block1	2back/STIM_027.jpg
329.17	0.788	1	2back	Block1	2back/STIM_027.jpg
332.696	1.151	1	2back	Block1	2back/STIM_028.jpg
337.345	0.971	1	2back	Block1	2back/STIM_028.jpg
340.79	0.815	1	2back	Block1	2back/STIM_028.jpg
344.537	0.762	1	2back	Block1	2back/STIM_029.jpg
349.273	0.956	1	2back	Block1	2back/STIM_029.jpg
352.492	0.759	1	2back	Block1	2back/STIM_029.jpg
356.582	0.66	1	2back	Block1	2back/STIM_030.jpg
360.701	1.186	1	2back	Block1	2back/STIM_030.jpg
364.784	0.619	1	2back	Block1	2back/STIM_030.jpg
369.223	0.681	1	2back	Block1	2back/STIM_031.jpg
373.222	0.883	0	2back	Block1	2back/STIM_031.jpg
377.413	0.71	1	2back	Block1	2back/STIM_031.jpg
380.883	0.619	1	2back	Block1	2back/STIM_032.jpg
385.439	1.311	1	2back	Block1	2back/STIM_032.jpg
389.327	0.983	1	2back	Block1	2back/STIM_032.jpg
392.473	0.929	1	2back	Block1	2back/STIM_033.jpg
396.751	0.704	1	2back	Block1	2back/STIM_033.jpg
399.833	1.019	0	2back	Block1	2back/STIM_033.jpg
403.301	1.144	1	2back	Block1	2back/STIM_034.jpg
406.923	0.612	0	2back	Block1	2back/STIM_034.jpg
410.801	0.512	1	2back	Block1	2back/STIM_034.jpg
414.799	0.704	1	2back	Block1	2back/STIM_035.jpg
419.342	1.136	1	2back	Block1	2back/STIM_035.jpg
423.106	0.625	1	2back	Block1	2back/STIM_035.jpg
426.542	0.558	1	2back	Block1	2back/STIM_036.jpg
430.794	0.815	1	2back	Block1	2back/STIM_036.jpg
434.066	0.584	1	2back	Block1	2back/STIM_036.jpg
437.77	0.849	1	2back	Block1	2back/STIM_037.jpg
441.751	0.774	1	2back	Block1	2back/STIM_037.jpg
445.345	0.956	1	2back	Block1	2back/STIM_037.jpg
448.567	0.839	1	2back	Block1	2back/STIM_038.jpg
453.205	0.779	1	2back	Block1	2back/STIM_038.jpg
457.326	0.616	1	2back	Block1	2back/STIM_038.jpg
461.263	0.938	1	2back	Block1	2back/STIM_039.jpg
465.745	1.208	1	2back	Block1	2back/STIM_039.jpg
470.317	0.461	1	2back	Block1	2back/STIM_039.jpg
474.67	0.4	1	0back	Block1	0back/STIM_000.jpg
478.044	0.629	1	0back	Block1	0back/STIM_000.jpg
482.055	0.675	1	0back	Block1	0back/STIM_000.jpg
485.649	0.593	1	0back	Block1	0back/STIM_001.jpg
488.447	0.517	1	0back	Block1	0back/STIM_001.jpg
491.739	0.568	1	0back	Block1	0back/STIM_001.jpg
494.655	0.739	1	0back	Block1	0back/STIM_002.jpg
498.342	0.391	1	0back	Block1	0back/STIM_002.jpg
502.295	0.353	1	0back	Block1	0back/STIM_002.jpg
504.981	0.46	1	0back	Block1	0back/STIM_003.jpg
508.152	0.358	1	0back	Block1	0back/STIM_003.jpg
510.922	0.621	1	0back	Block1	0back/STIM_003.jpg
514.953	0.5	1	0back	Block1	0back/STIM_004.jpg
518.735	0.358	1	0back	Block1	0back/STIM_004.jpg
522.798	0.389	1	0back	Block1	0back/STIM_004.jpg
525.508	0.491	1	0back	Block1	0back/STIM_005.jpg
529.431	0.653	1	0back	Block1	0back/STIM_005.jpg
533.958	0.428	1	0back	Block1	0back/STIM_005.jpg
536.479	0.54	1	0back	Block1	0back/STIM_006.jpg
539.176	0.428	1	0back	Block1	0back/STIM_006.jpg
542.231	0.678	1	0back	Block1	0back/STIM_006.jpg
546.768	0.727	1	0back	Block1	0back/STIM_007.jpg
551.31	0.389	1	0back	Block1	0back/STIM_007.jpg
554.808	0.683	1	0back	Block1	0back/STIM_007.jpg
557.642	0.77	1	0back	Block1	0back/STIM_008.jpg
561.535	0.57	1	0back	Block1	0back/STIM_008.jpg
565.133	0.397	1	0back	Block1	0back/STIM_008.jpg
568.74	0.625	1	0back	Block1	0back/STIM_009.jpg
573.029	0.383	1	0back	Block1	0back/STIM_009.jpg
576.948	0.453	1	0back	Block1	0back/STIM_009.jpg
580.737	0.607	1	0back	Block1	0back/STIM_010.jpg
585.072	0.641	1	0back	Block1	0back/STIM_010.jpg
588.173	0.463	1	0back	Block1	0back/STIM_010.jpg
591.808	0.404	1	0back	Block1	0back/STIM_011.jpg
594.57	0.535	1	0back	Block1	0back/STIM_011.jpg
599.039	0.385	1	0back	Block1	0back/STIM_011.jpg
602.127	0.606	1	0back	Block1	0back/STIM_012.jpg
606.563	0.69	1	0back	Block1	0back/STIM_012.jpg
610.378	0.686	1	0back	Block1	0back/STIM_012.jpg
613.991	0.474	1	0back	Block1	0back/STIM_013.jpg
616.669	0.602	1	0back	Block1	0back/STIM_013.jpg
619.667	0.648	1	0back	Block1	0back/STIM_013.jpg
623.507	0.591	1	0back	Block1	0back/STIM_014.jpg
627.321	0.431	1	0back	Block1	0back/STIM_014.jpg
631.28	0.514	1	0back	Block1	0back/STIM_014.jpg
634.108	0.433	1	0back	Block1	0back/STIM_015.jpg
636.723	0.399	1	0back	Block1	0back/STIM_015.jpg
639.257	0.484	1	0back	Block1	0back/STIM_015.jpg
643.179	0.677	1	0back	Block1	0back/STIM_016.jpg
646.796	0.626	1	0back	Block1	0back/STIM_016.jpg
650.165	0.601	1	0back	Block1	0back/STIM_016.jpg
653.294	0.644	1	0back	Block1	0back/STIM_017.jpg
657.95	0.68	1	0back	Block1	0back/STIM_017.jpg
661.057	0.437	0	0back	Block1	0back/STIM_017.jpg
665.599	0.458	1	0back	Block1	0back/STIM_018.jpg
669.475	0.615	1	0back	Block1	0back/STIM_018.jpg
672.379	0.658	1	0back	Block1	0back/STIM_018.jpg
675.002	0.561	1	0back	Block1	0back/STIM_019.jpg
679.28	0.689	1	0back	Block1	0back/STIM_019.jpg
682.062	0.734	1	0back	Block1	0back/STIM_019.jpg
685.046	0.704	1	2back	Block2	2back/STIM_000.jpg
688.197	0.672	1	2back	Block2	2back/STIM_000.jpg
691.081	0.598	1	2back	Block2	2back/STIM_000.jpg
694.396	1.016	1	2back	Block2	2back/STIM_001.jpg
697.619	0.503	1	2back	Block2	2back/STIM_001.jpg
700.929	0.571	1	2back	Block2	2back/STIM_001.jpg
705.222	0.873	0	2back	Block2	2back/STIM_002.jpg
708.422	0.5	1	2back	Block2	2back/STIM_002.jpg
712.522	0.383	1	2back	Block2	2back/STIM_002.jpg
715.529	0.967	1	2back	Block2	2back/STIM_003.jpg
719.035	0.957	1	2back	Block2	2back/STIM_003.jpg
723.26	0.687	1	2back	Block2	2back/STIM_003.jpg
726.343	0.575	0	2back	Block2	2back/STIM_004.jpg
730.065	0.79	1	2back	Block2	2back/STIM_004.jpg
733.477	0.563	1	2back	Block2	2back/STIM_004.jpg
737.365	0.77	0	2back	Block2	2back/STIM_005.jpg
742.243	0.624	1	2back	Block2	2back/STIM_005.jpg
746.726	1.038	1	2back	Block2	2back/STIM_005.jpg
750.722	0.695	1	2back	Block2	2back/STIM_006.jpg
754.401	1.076	1	2back	Block2	2back/STIM_006.jpg
758.771	0.695	0	2back	Block2	2back/STIM_006.jpg
763.353	0.847	1	2back	Block2	2back/STIM_007.jpg
766.586	0.716	1	2back	Block2	2back/STIM_007.jpg
771.241	0.662	1	2back	Block2	2back/STIM_007.jpg
774.079	0.592	1	2back	Block2	2back/STIM_008.jpg
778.024	0.958	1	2back	Block2	2back/STIM_008.jpg
781.046	0.931	1	2back	Block2	2back/STIM_008.jpg
784.262	0.706	1	2back	Block2	2back/STIM_009.jpg
787.714	0.534	0	2back	Block2	2back/STIM_009.jpg
792.085	0.446	1	2back	Block2	2back/STIM_009.jpg
795.776	0.614	1	2back	Block2	2back/STIM_010.jpg
800.204	0.76	1	2back	Block2	2back/STIM_010.jpg
803.221	0.891	1	2back	Block2	2back/STIM_010.jpg
808.089	0.992	1	2back	Block2	2back/STIM_011.jpg
812.482	0.782	0	2back	Block2	2back/STIM_011.jpg
817.115	0.779	1	2back	Block2	2back/STIM_011.jpg
820.725	0.488	1	2back	Block2	2back/STIM_012.jpg
824.684	0.717	1	2back	Block2	2back/STIM_012.jpg
828.089	0.479	1	2back	Block2	2back/STIM_012.jpg
831.794	1.067	1	2back	Block2	2back/STIM_013.jpg
836.563	1.028	1	2back	Block2	2back/STIM_013.jpg
840.972	0.596	1	2back	Block2	2back/STIM_013.jpg
844.659	0.511	1	2back	Block2	2back/STIM_014.jpg
847.701	0.907	1	2back	Block2	2back/STIM_014.jpg
850.76	0.649	1	2back	Block2	2back/STIM_014.jpg
853.897	0.825	1	2back	Block2	2back/STIM_015.jpg
856.827	0.449	1	2back	Block2	2back/STIM_015.jpg
860.085	0.612	0	2back	Block2	2back/STIM_015.jpg
863.107	0.832	1	2back	Block2	2back/STIM_016.jpg
867.078	0.889	1	2back	Block2	2back/STIM_016.jpg
871.566	0.645	1	2back	Block2	2back/STIM_016.jpg
875.572	1.009	1	2back	Block2	2back/STIM_017.jpg
880.515	1.028	1	2back	Block2	2back/STIM_017.jpg
884.806	0.48	1	2back	Block2	2back/STIM_017.jpg
888.446	0.98	1	2back	Block2	2back/STIM_018.jpg
892.003	0.685	1	2back	Block2	2back/STIM_018.jpg
895.871	0.778	1	2back	Block2	2back/STIM_018.jpg
899.12	0.687	1	2back	Block2	2back/STIM_019.jpg
901.973	0.62	0	2back	Block2	2back/STIM_019.jpg
905.927	0.721	1	2back	Block2	2back/STIM_019.jpg
909.112	0.978	1	2back	Block2	2back/STIM_020.jpg
913.463	0.748	1	2back	Block2	2back/STIM_020.jpg
918.117	0.897	0	2back	Block2	2back/STIM_020.jpg
921.876	0.692	1	2back	Block2	2back/STIM_021.jpg
925.598	0.424	1	2back	Block2	2back/STIM_021.jpg
930.028	0.952	1	2back	Block2	2back/STIM_021.jpg
934.699	0.688	1	2back	Block2	2back/STIM_022.jpg
938.717	0.656	1	2back	Block2	2back/STIM_022.jpg
942.164	0.964	1	2back	Block2	2back/STIM_022.jpg
945.845	1.051	1	2back	Block2	2back/STIM_023.jpg
950.791	0.622	1	2back	Block2	2back/STIM_023.jpg
955.444	0.695	1	2back	Block2	2back/STIM_023.jpg
959.68	1.044	1	2back	Block2	2back/STIM_024.jpg
963.326	0.597	1	2back	Block2	2back/STIM_024.jpg
967.15	0.708	1	2back	Block2	2back/STIM_024.jpg
971.859	0.838	1	2back	Block2	2back/STIM_025.jpg
974.738	0.828	1	2back	Block2	2back/STIM_025.jpg
978.628	0.712	0	2back	Block2	2back/STIM_025.jpg
981.758	0.801	1	2back	Block2	2back/STIM_026.jpg
986.024	0.994	1	2back	Block2	2back/STIM_026.jpg
990.507	0.867	1	2back	Block2	2back/STIM_026.jpg
993.896	1.061	1	2back	Block2	2back/STIM_027.jpg
997.248	1.0	1	2back	Block2	2back/STIM_027.jpg
1002.146	0.516	1	2back	Block2	2back/STIM_027.jpg
1006.473	0.435	0	2back	Block2	2back/STIM_028.jpg
1009.867	0.446	1	2back	Block2	2back/STIM_028.jpg
1013.126	0.912	1	2back	Block2	2back/STIM_028.jpg
1017.349	1.039	1	2back	Block2	2back/STIM_029.jpg
1021.371	0.786	1	2back	Block2	2back/STIM_029.jpg
1024.624	0.995	1	2back	Block2	2back/STIM_029.jpg
1028.086	0.89	1	2back	Block2	2back/STIM_030.jpg
1031.869	1.026	0	2back	Block2	2back/STIM_030.jpg
1036.466	0.538	1	2back	Block2	2back/STIM_030.jpg
1039.464	0.631	1	2back	Block2	2back/STIM_031.jpg
1042.607	0.959	0	2back	Block2	2back/STIM_031.jpg
1046.862	0.759	1	2back	Block2	2back/STIM_031.jpg
1050.419	1.019	0	2back	Block2	2back/STIM_032.jpg
1054.834	0.924	1	2back	Block2	2back/STIM_032.jpg
1058.085	0.784	1	2back	Block2	2back/STIM_032.jpg
1062.055	0.618	1	2back	Block2	2back/STIM_033.jpg
1066.604	0.786	0	2back	Block2	2back/STIM_033.jpg
1069.988	0.903	1	2back	Block2	2back/STIM_033.jpg
1074.221	0.59	1	2back	Block2	2back/STIM_034.jpg
1078.555	0.965	1	2back	Block2	2back/STIM_034.jpg
1082.725	0.491	1	2back	Block2	2back/STIM_034.jpg
1085.87	0.449	1	2back	Block2	2back/STIM_035.jpg
1089.566	0.867	1	2back	Block2	2back/STIM_035.jpg
1094.099	0.811	1	2back	Block2	2back/STIM_035.jpg
1098.182	0.806	1	2back	Block2	2back/STIM_036.jpg
1101.881	1.008	1	2back	Block2	2back/STIM_036.jpg
1105.543	0.754	1	2back	Block2	2back/STIM_036.jpg
1109.917	0.735	1	2back	Block2	2back/STIM_037.jpg
1114.113	0.465	1	2back	Block2	2back/STIM_037.jpg
1117.494	0.468	1	2back	Block2	2back/STIM_037.jpg
1122.017	0.453	1	2back	Block2	2back/STIM_038.jpg
1126.043	0.872	1	2back	Block2	2back/STIM_038.jpg
1129.104	0.45	1	2back	Block2	2back/STIM_038.jpg
1132.314	0.968	0	2back	Block2	2back/STIM_039.jpg
1137.223	0.638	1	2back	Block2	2back/STIM_039.jpg
1140.818	0.564	1	2back	Block2	2back/STIM_039.jpg
1143.546	0.414	1	0back	Block2	0back/STIM_000.jpg
1146.188	0.578	1	0back	Block2	0back/STIM_000.jpg
1150.184	0.684	1	0back	Block2	0back/STIM_000.jpg
1153.077	0.369	1	0back	Block2	0back/STIM_001.jpg
1156.079	0.523	1	0back	Block2	0back/STIM_001.jpg
1158.96	0.718	1	0back	Block2	0back/STIM_001.jpg
1162.391	0.503	1	0back	Block2	0back/STIM_002.jpg
1166.147	0.517	1	0back	Block2	0back/STIM_002.jpg
1169.192	0.602	1	0back	Block2	0back/STIM_002.jpg
1172.48	0.621	1	0back	Block2	0back/STIM_003.jpg
1175.465	0.627	1	0back	Block2	0back/STIM_003.jpg
1178.896	0.488	1	0back	Block2	0back/STIM_003.jpg
1182.118	0.685	1	0back	Block2	0back/STIM_004.jpg
1186.77	0.412	1	0back	Block2	0back/STIM_004.jpg
1189.644	0.422	1	0back	Block2	0back/STIM_004.jpg
1193.156	0.635	1	0back	Block2	0back/STIM_005.jpg
1197.291	0.521	1	0back	Block2	0back/STIM_005.jpg
1201.776	0.407	1	0back	Block2	0back/STIM_005.jpg
1204.575	0.446	0	0back	Block2	0back/STIM_006.jpg
1207.193	0.401	1	0back	Block2	0back/STIM_006.jpg
1210.776	0.601	1	0back	Block2	0back/STIM_006.jpg
1213.549	0.71	1	0back	Block2	0back/STIM_007.jpg
1217.588	0.577	1	0back	Block2	0back/STIM_007.jpg
1221.734	0.677	1	0back	Block2	0back/STIM_007.jpg
1226.371	0.68	1	0back	Block2	0back/STIM_008.jpg
1229.783	0.589	1	0back	Block2	0back/STIM_008.jpg
1233.23	0.493	1	0back	Block2	0back/STIM_008.jpg
1236.774	0.403	1	0back	Block2	0back/STIM_009.jpg
1240.312	0.349	1	0back	Block2	0back/STIM_009.jpg
1244.452	0.494	1	0back	Block2	0back/STIM_009.jpg
1248.414	0.574	1	0back	Block2	0back/STIM_010.jpg
1252.917	0.672	1	0back	Block2	0back/STIM_010.jpg
1256.272	0.65	1	0back	Block2	0back/STIM_010.jpg
1260.3	0.525	1	0back	Block2	0back/STIM_011.jpg
1264.708	0.658	1	0back	Block2	0back/STIM_011.jpg
1269.44	0.392	1	0back	Block2	0back/STIM_011.jpg
1273.04	0.454	1	0back	Block2	0back/STIM_012.jpg
1276.448	0.639	1	0back	Block2	0back/STIM_012.jpg
1280.486	0.432	1	0back	Block2	0back/STIM_012.jpg
1284.777	0.55	1	0back	Block2	0back/STIM_013.jpg
1289.177	0.587	1	0back	Block2	0back/STIM_013.jpg
1292.682	0.413	1	0back	Block2	0back/STIM_013.jpg
1295.46	0.786	1	0back	Block2	0back/STIM_014.jpg
1298.947	0.488	1	0back	Block2	0back/STIM_014.jpg
1301.402	0.558	1	0back	Block2	0back/STIM_014.jpg
1304.094	0.537	1	0back	Block2	0back/STIM_015.jpg
1306.88	0.368	1	0back	Block2	0back/STIM_015.jpg
1310.127	0.477	1	0back	Block2	0back/STIM_015.jpg
1313.412	0.473	1	0back	Block2	0back/STIM_016.jpg
1317.599	0.696	1	0back	Block2	0back/STIM_016.jpg
1321.029	0.607	1	0back	Block2	0back/STIM_016.jpg
1323.814	0.761	0	0back	Block2	0back/STIM_017.jpg
1327.175	0.544	1	0back	Block2	0back/STIM_017.jpg
1331.467	0.581	1	0back	Block2	0back/STIM_017.jpg
1335.934	0.409	1	0back	Block2	0back/STIM_018.jpg
1339.652	0.744	1	0back	Block2	0back/STIM_018.jpg
1342.926	0.372	1	0back	Block2	0back/STIM_018.jpg
1346.438	0.495	1	0back	Block2	0back/STIM_019.jpg
1350.454	0.759	1	0back	Block2	0back/STIM_019.jpg
1354.509	0.333	1	0back	Block2	0back/STIM_019.jpg
1357.685	0.328	1	2back	Block3	2back/STIM_000.jpg
1361.536	0.638	1	2back	Block3	2back/STIM_000.jpg
1365.706	0.711	1	2back	Block3	2back/STIM_000.jpg
1369.316	0.934	1	2back	Block3	2back/STIM_001.jpg
1373.623	0.801	1	2back	Block3	2back/STIM_001.jpg
1377.633	0.743	1	2back	Block3	2back/STIM_001.jpg
1381.407	0.747	1	2back	Block3	2back/STIM_002.jpg
1385.66	0.51	1	2back	Block3	2back/STIM_002.jpg
1389.254	0.888	1	2back	Block3	2back/STIM_002.jpg
1393.683	0.803	1	2back	Block3	2back/STIM_003.jpg
1397.566	0.723	1	2back	Block3	2back/STIM_003.jpg
1400.752	0.535	1	2back	Block3	2back/STIM_003.jpg
1404.764	0.622	1	2back	Block3	2back/STIM_004.jpg
1408.138	0.869	1	2back	Block3	2back/STIM_004.jpg
1412.994	0.609	1	2back	Block3	2back/STIM_004.jpg
1417.591	0.642	1	2back	Block3	2back/STIM_005.jpg
1420.798	0.605	1	2back	Block3	2back/STIM_005.jpg
1424.793	0.898	1	2back	Block3	2back/STIM_005.jpg
1428.014	0.787	1	2back	Block3	2back/STIM_006.jpg
1432.402	0.642	1	2back	Block3	2back/STIM_006.jpg
1436.783	0.76	1	2back	Block3	2back/STIM_006.jpg
1441.386	0.524	1	2back	Block3	2back/STIM_007.jpg
1445.085	0.354	1	2back	Block3	2back/STIM_007.jpg
1449.142	0.497	1	2back	Block3	2back/STIM_007.jpg
1453.609	0.898	1	2back	Block3	2back/STIM_008.jpg
1457.645	0.477	1	2back	Block3	2back/STIM_008.jpg
1461.445	0.519	1	2back	Block3	2back/STIM_008.jpg
1465.5	0.641	1	2back	Block3	2back/STIM_009.jpg
1468.62	0.764	1	2back	Block3	2back/STIM_009.jpg
1471.52	0.534	1	2back	Block3	2back/STIM_009.jpg
1475.531	0.728	1	2back	Block3	2back/STIM_010.jpg
1480.161	0.776	1	2back	Block3	2back/STIM_010.jpg
1483.455	0.432	1	2back	Block3	2back/STIM_010.jpg
1486.387	0.72	1	2back	Block3	2back/STIM_011.jpg
1489.79	0.543	1	2back	Block3	2back/STIM_011.jpg
1493.563	0.439	1	2back	Block3	2back/STIM_011.jpg
1496.33	0.57	1	2back	Block3	2back/STIM_012.jpg
1500.889	0.594	1	2back	Block3	2back/STIM_012.jpg
1503.936	0.548	1	2back	Block3	2back/STIM_012.jpg
1507.416	0.951	1	2back	Block3	2back/STIM_013.jpg
1510.594	0.615	1	2back	Block3	2back/STIM_013.jpg
1515.034	0.819	1	2back	Block3	2back/STIM_013.jpg
1518.314	0.757	1	2back	Block3	2back/STIM_014.jpg
1521.775	0.792	1	2back	Block3	2back/STIM_014.jpg
1525.714	0.412	0	2back	Block3	2back/STIM_014.jpg
1528.573	0.574	1	2back	Block3	2back/STIM_015.jpg
1531.587	0.563	1	2back	Block3	2back/STIM_015.jpg
1535.458	0.609	1	2back	Block3	2back/STIM_015.jpg
1539.533	0.662	1	2back	Block3	2back/STIM_016.jpg
1543.427	0.598	1	2back	Block3	2back/STIM_016.jpg
1547.159	0.686	1	2back	Block3	2back/STIM_016.jpg
1551.32	0.657	1	2back	Block3	2back/STIM_017.jpg
1555.536	0.437	1	2back	Block3	2back/STIM_017.jpg
1558.387	0.723	1	2back	Block3	2back/STIM_017.jpg
1562.003	0.383	1	2back	Block3	2back/STIM_018.jpg
1565.791	0.9	1	2back	Block3	2back/STIM_018.jpg
1569.179	0.999	1	2back	Block3	2back/STIM_018.jpg
1573.354	0.851	1	2back	Block3	2back/STIM_019.jpg
1577.389	0.366	1	2back	Block3	2back/STIM_019.jpg
1581.595	0.389	1	2back	Block3	2back/STIM_019.jpg
1584.145	0.697	1	2back	Block3	2back/STIM_020.jpg
1587.238	0.921	1	2back	Block3	2back/STIM_020.jpg
1591.383	0.386	1	2back	Block3	2back/STIM_020.jpg
1593.932	0.941	1	2back	Block3	2back/STIM_021.jpg
1598.165	0.861	1	2back	Block3	2back/STIM_021.jpg
1602.433	0.836	1	2back	Block3	2back/STIM_021.jpg
1605.791	0.721	1	2back	Block3	2back/STIM_022.jpg
1609.794	0.815	1	2back	Block3	2back/STIM_022.jpg
1613.213	0.897	1	2back	Block3	2back/STIM_022.jpg
1617.727	0.454	1	2back	Block3	2back/STIM_023.jpg
1620.882	0.894	1	2back	Block3	2back/STIM_023.jpg
1625.436	0.687	1	2back	Block3	2back/STIM_023.jpg
1629.16	0.786	1	2back	Block3	2back/STIM_024.jpg
1633.488	0.94	1	2back	Block3	2back/STIM_024.jpg
1638.154	0.423	1	2back	Block3	2back/STIM_024.jpg
1641.515	0.798	1	2back	Block3	2back/STIM_025.jpg
1644.609	0.916	1	2back	Block3	2back/STIM_025.jpg
1649.465	0.533	1	2back	Block3	2back/STIM_025.jpg
1652.18	0.401	1	2back	Block3	2back/STIM_026.jpg
1655.09	0.876	1	2back	Block3	2back/STIM_026.jpg
1658.461	0.445	1	2back	Block3	2back/STIM_026.jpg
1662.307	0.42	1	2back	Block3	2back/STIM_027.jpg
1666.587	0.43	1	2back	Block3	2back/STIM_027.jpg
1671.012	0.481	1	2back	Block3	2back/STIM_027.jpg
1674.815	0.511	1	2back	Block3	2back/STIM_028.jpg
1678.404	0.791	1	2back	Block3	2back/STIM_028.jpg
1682.77	0.613	1	2back	Block3	2back/STIM_028.jpg
1685.986	0.712	0	2back	Block3	2back/STIM_029.jpg
1690.545	0.807	1	2back	Block3	2back/STIM_029.jpg
1695.09	0.653	1	2back	Block3	2back/STIM_029.jpg
1698.33	0.909	1	2back	Block3	2back/STIM_030.jpg
1701.932	0.7	1	2back	Block3	2back/STIM_030.jpg
1704.783	0.84	1	2back	Block3	2back/STIM_030.jpg
1708.538	0.693	1	2back	Block3	2back/STIM_031.jpg
1713.071	0.47	1	2back	Block3	2back/STIM_031.jpg
1716.251	0.561	1	2back	Block3	2back/STIM_031.jpg
1720.87	0.617	1	2back	Block3	2back/STIM_032.jpg
1724.258	0.416	1	2back	Block3	2back/STIM_032.jpg
1727.62	0.566	1	2back	Block3	2back/STIM_032.jpg
1730.777	0.457	1	2back	Block3	2back/STIM_033.jpg
1733.981	0.398	1	2back	Block3	2back/STIM_033.jpg
1736.746	0.543	1	2back	Block3	2back/STIM_033.jpg
1740.838	0.782	1	2back	Block3	2back/STIM_034.jpg
1744.879	0.595	1	2back	Block3	2back/STIM_034.jpg
1747.912	0.429	1	2back	Block3	2back/STIM_034.jpg
1750.544	0.612	1	2back	Block3	2back/STIM_035.jpg
1754.864	0.731	1	2back	Block3	2back/STIM_035.jpg
1757.986	0.766	1	2back	Block3	2back/STIM_035.jpg
1761.241	0.671	1	2back	Block3	2back/STIM_036.jpg
1764.658	0.422	1	2back	Block3	2back/STIM_036.jpg
1768.282	0.569	1	2back	Block3	2back/STIM_036.jpg
1772.457	0.542	1	2back	Block3	2back/STIM_037.jpg
1776.342	0.565	1	2back	Block3	2back/STIM_037.jpg
1779.869	0.453	1	2back	Block3	2back/STIM_037.jpg
1783.806	0.632	1	2back	Block3	2back/STIM_038.jpg
1787.847	0.513	1	2back	Block3	2back/STIM_038.jpg
1791.408	0.69	1	2back	Block3	2back/STIM_038.jpg
1795.495	0.776	1	2back	Block3	2back/STIM_039.jpg
1798.441	0.796	1	2back	Block3	2back/STIM_039.jpg
1801.9	0.668	1	2back	Block3	2back/STIM_039.jpg
1806.308	0.471	1	0back	Block3	0back/STIM_000.jpg
1809.603	0.65	1	0back	Block3	0back/STIM_000.jpg
1812.716	0.597	1	0back	Block3	0back/STIM_000.jpg
1816.851	0.481	1	0back	Block3	0back/STIM_001.jpg
1820.01	0.648	1	0back	Block3	0back/STIM_001.jpg
1823.22	0.648	1	0back	Block3	0back/STIM_001.jpg
1827.675	0.436	1	0back	Block3	0back/STIM_002.jpg
1831.94	0.638	1	0back	Block3	0back/STIM_002.jpg
1836.292	0.648	1	0back	Block3	0back/STIM_002.jpg
1840.648	0.357	1	0back	Block3	0back/STIM_003.jpg
1843.648	0.493	1	0back	Block3	0back/STIM_003.jpg
1846.279	0.68	1	0back	Block3	0back/STIM_003.jpg
1849.489	0.55	1	0back	Block3	0back/STIM_004.jpg
1853.324	0.469	1	0back	Block3	0back/STIM_004.jpg
1856.396	0.416	1	0back	Block3	0back/STIM_004.jpg
1860.053	0.4	1	0back	Block3	0back/STIM_005.jpg
1862.914	0.632	1	0back	Block3	0back/STIM_005.jpg
1866.881	0.711	1	0back	Block3	0back/STIM_005.jpg
1870.375	0.764	1	0back	Block3	0back/STIM_006.jpg
1873.721	0.465	1	0back	Block3	0back/STIM_006.jpg
1877.272	0.484	1	0back	Block3	0back/STIM_006.jpg
1881.153	0.552	1	0back	Block3	0back/STIM_007.jpg
1884.867	0.532	1	0back	Block3	0back/STIM_007.jpg
1887.757	0.6	1	0back	Block3	0back/STIM_007.jpg
1891.777	0.672	1	0back	Block3	0back/STIM_008.jpg
1895.719	0.408	1	0back	Block3	0back/STIM_008.jpg
1898.527	0.437	1	0back	Block3	0back/STIM_008.jpg
1902.4	0.523	1	0back	Block3	0back/STIM_009.jpg
1906.566	0.734	1	0back	Block3	0back/STIM_009.jpg
1909.914	0.567	1	0back	Block3	0back/STIM_009.jpg
1913.169	0.404	1	0back	Block3	0back/STIM_010.jpg
1915.871	0.67	1	0back	Block3	0back/STIM_010.jpg
1919.138	0.61	0	0back	Block3	0back/STIM_010.jpg
1921.876	0.691	1	0back	Block3	0back/STIM_011.jpg
1924.693	0.446	1	0back	Block3	0back/STIM_011.jpg
1927.846	0.47	1	0back	Block3	0back/STIM_011.jpg
1931.477	0.735	1	0back	Block3	0back/STIM_012.jpg
1935.855	0.616	1	0back	Block3	0back/STIM_012.jpg
1938.667	0.624	1	0back	Block3	0back/STIM_012.jpg
1942.454	0.327	1	0back	Block3	0back/STIM_013.jpg
1946.698	0.393	1	0back	Block3	0back/STIM_013.jpg
1950.781	0.517	1	0back	Block3	0back/STIM_013.jpg
1954.318	0.418	1	0back	Block3	0back/STIM_014.jpg
1957.189	0.553	1	0back	Block3	0back/STIM_014.jpg
1961.778	0.548	0	0back	Block3	0back/STIM_014.jpg
1965.465	0.608	1	0back	Block3	0back/STIM_015.jpg
1968.158	0.493	1	0back	Block3	0back/STIM_015.jpg
1970.817	0.667	1	0back	Block3	0back/STIM_015.jpg
1974.936	0.813	1	0back	Block3	0back/STIM_016.jpg
1978.261	0.676	1	0back	Block3	0back/STIM_016.jpg
1982.887	0.562	1	0back	Block3	0back/STIM_016.jpg
1987.127	0.698	1	0back	Block3	0back/STIM_017.jpg
1991.126	0.672	1	0back	Block3	0back/STIM_017.jpg
1994.739	0.654	1	0back	Block3	0back/STIM_017.jpg
1997.658	0.572	1	0back	Block3	0back/STIM_018.jpg
2001.52	0.385	1	0back	Block3	0back/STIM_018.jpg
2004.618	0.563	1	0back	Block3	0back/STIM_018.jpg
2008.89	0.717	1	0back	Block3	0back/STIM_019.jpg
2013.527	0.8	1	0back	Block3	0back/STIM_019.jpg
2017.43	0.496	1	0back	Block3	0back/STIM_019.jpg
2020.412	0.756	1	2back	Block4	2back/STIM_000.jpg
2024.302	0.774	1	2back	Block4	2back/STIM_000.jpg
2027.178	0.604	1	2back	Block4	2back/STIM_000.jpg
2030.413	0.585	1	2back	Block4	2back/STIM_001.jpg
2035.025	0.541	1	2back	Block4	2back/STIM_001.jpg
2038.867	0.664	1	2back	Block4	2back/STIM_001.jpg
2041.811	0.451	1	2back	Block4	2back/STIM_002.jpg
2044.486	0.683	1	2back	Block4	2back/STIM_002.jpg
2048.447	0.846	1	2back	Block4	2back/STIM_002.jpg
2053.087	0.45	1	2back	Block4	2back/STIM_003.jpg
2056.14	0.465	0	2back	Block4	2back/STIM_003.jpg
2059.592	0.937	1	2back	Block4	2back/STIM_003.jpg
2063.471	0.386	1	2back	Block4	2back/STIM_004.jpg
2067.156	0.789	1	2back	Block4	2back/STIM_004.jpg
2071.3	0.739	1	2back	Block4	2back/STIM_004.jpg
2075.696	0.509	1	2back	Block4	2back/STIM_005.jpg
2079.168	0.641	1	2back	Block4	2back/STIM_005.jpg
2081.981	0.825	1	2back	Block4	2back/STIM_005.jpg
2086.25	0.617	1	2back	Block4	2back/STIM_006.jpg
2089.635	0.689	1	2back	Block4	2back/STIM_006.jpg
2093.059	0.618	1	2back	Block4	2back/STIM_006.jpg
2096.245	0.753	1	2back	Block4	2back/STIM_007.jpg
2099.942	0.885	1	2back	Block4	2back/STIM_007.jpg
2104.434	0.831	1	2back	Block4	2back/STIM_007.jpg
2108.851	0.691	1	2back	Block4	2back/STIM_008.jpg
2112.14	0.817	1	2back	Block4	2back/STIM_008.jpg
2116.181	0.372	1	2back	Block4	2back/STIM_008.jpg
2119.51	0.336	1	2back	Block4	2back/STIM_009.jpg
2123.487	0.491	1	2back	Block4	2back/STIM_009.jpg
2126.881	0.545	1	2back	Block4	2back/STIM_009.jpg
2130.895	0.446	1	2back	Block4	2back/STIM_010.jpg
2134.056	0.695	1	2back	Block4	2back/STIM_010.jpg
2136.897	0.711	1	2back	Block4	2back/STIM_010.jpg
2140.362	0.829	1	2back	Block4	2back/STIM_011.jpg
2143.904	0.426	0	2back	Block4	2back/STIM_011.jpg
2146.516	0.674	1	2back	Block4	2back/STIM_011.jpg
2151.07	0.657	1	2back	Block4	2back/STIM_012.jpg
2154.981	0.744	1	2back	Block4	2back/STIM_012.jpg
2157.823	0.404	1	2back	Block4	2back/STIM_012.jpg
2162.22	0.598	1	2back	Block4	2back/STIM_013.jpg
2165.98	0.618	1	2back	Block4	2back/STIM_013.jpg
2170.341	0.846	1	2back	Block4	2back/STIM_013.jpg
2174.966	0.538	1	2back	Block4	2back/STIM_014.jpg
2178.635	0.323	1	2back	Block4	2back/STIM_014.jpg
2182.05	0.53	1	2back	Block4	2back/STIM_014.jpg
2185.491	0.553	1	2back	Block4	2back/STIM_015.jpg
2189.42	0.571	1	2back	Block4	2back/STIM_015.jpg
2193.38	0.624	1	2back	Block4	2back/STIM_015.jpg
2196.508	0.37	1	2back	Block4	2back/STIM_016.jpg
2200.825	0.642	1	2back	Block4	2back/STIM_016.jpg
2203.643	0.767	1	2back	Block4	2back/STIM_016.jpg
2208.292	0.554	1	2back	Block4	2back/STIM_017.jpg
2212.019	0.739	1	2back	Block4	2back/STIM_017.jpg
2215.382	0.468	1	2back	Block4	2back/STIM_017.jpg
2219.119	0.84	1	2back	Block4	2back/STIM_018.jpg
2223.034	0.708	1	2back	Block4	2back/STIM_018.jpg
2226.204	0.453	1	2back	Block4	2back/STIM_018.jpg
2229.753	0.409	0	2back	Block4	2back/STIM_019.jpg
2233.242	0.568	1	2back	Block4	2back/STIM_019.jpg
2237.199	0.582	1	2back	Block4	2back/STIM_019.jpg
2241.086	0.552	1	2back	Block4	2back/STIM_020.jpg
2245.105	0.7	1	2back	Block4	2back/STIM_020.jpg
2249.505	0.914	1	2back	Block4	2back/STIM_020.jpg
2254.106	0.482	1	2back	Block4	2back/STIM_021.jpg
2257.329	0.912	1	2back	Block4	2back/STIM_021.jpg
2262.056	0.594	1	2back	Block4	2back/STIM_021.jpg
2266.201	0.904	1	2back	Block4	2back/STIM_022.jpg
2270.994	0.616	1	2back	Block4	2back/STIM_022.jpg
2274.991	0.365	1	2back	Block4	2back/STIM_022.jpg
2279.237	0.754	1	2back	Block4	2back/STIM_023.jpg
2282.372	0.541	1	2back	Block4	2back/STIM_023.jpg
2285.105	0.667	1	2back	Block4	2back/STIM_023.jpg
2289.303	0.335	1	2back	Block4	2back/STIM_024.jpg
2292.366	0.759	1	2back	Block4	2back/STIM_024.jpg
2296.056	0.833	1	2back	Block4	2back/STIM_024.jpg
2300.284	0.775	1	2back	Block4	2back/STIM_025.jpg
2304.059	0.505	1	2back	Block4	2back/STIM_025.jpg
2307.478	0.286	1	2back	Block4	2back/STIM_025.jpg
2311.079	0.478	1	2back	Block4	2back/STIM_026.jpg
2314.249	0.801	1	2back	Block4	2back/STIM_026.jpg
2318.733	0.639	1	2back	Block4	2back/STIM_026.jpg
2323.273	0.84	1	2back	Block4	2back/STIM_027.jpg
2326.598	0.687	1	2back	Block4	2back/STIM_027.jpg
2331.07	0.863	1	2back	Block4	2back/STIM_027.jpg
2334.394	0.803	1	2back	Block4	2back/STIM_028.jpg
2338.574	0.79	1	2back	Block4	2back/STIM_028.jpg
2343.04	0.764	1	2back	Block4	2back/STIM_028.jpg
2346.556	0.368	1	2back	Block4	2back/STIM_029.jpg
2350.312	0.881	1	2back	Block4	2back/STIM_029.jpg
2354.418	0.684	1	2back	Block4	2back/STIM_029.jpg
2357.268	0.7	1	2back	Block4	2back/STIM_030.jpg
2361.833	0.418	1	2back	Block4	2back/STIM_030.jpg
2364.475	0.458	1	2back	Block4	2back/STIM_030.jpg
2368.276	0.505	1	2back	Block4	2back/STIM_031.jpg
2371.775	0.854	1	2back	Block4	2back/STIM_031.jpg
2375.853	0.711	0	2back	Block4	2back/STIM_031.jpg
2379.698	0.663	1	2back	Block4	2back/STIM_032.jpg
2382.814	0.399	1	2back	Block4	2back/STIM_032.jpg
2385.714	0.567	1	2back	Block4	2back/STIM_032.jpg
2389.344	0.552	1	2back	Block4	2back/STIM_033.jpg
2392.936	0.569	1	2back	Block4	2back/STIM_033.jpg
2396.512	0.567	1	2back	Block4	2back/STIM_033.jpg
2399.81	0.723	1	2back	Block4	2back/STIM_034.jpg
2403.493	0.477	1	2back	Block4	2back/STIM_034.jpg
2406.454	0.911	1	2back	Block4	2back/STIM_034.jpg
2409.407	0.377	1	2back	Block4	2back/STIM_035.jpg
2413.73	0.545	0	2back	Block4	2back/STIM_035.jpg
2417.684	0.841	1	2back	Block4	2back/STIM_035.jpg
2421.567	0.404	1	2back	Block4	2back/STIM_036.jpg
2424.987	0.661	1	2back	Block4	2back/STIM_036.jpg
2428.061	0.664	1	2back	Block4	2back/STIM_036.jpg
2431.615	0.851	1	2back	Block4	2back/STIM_037.jpg
2434.704	0.61	1	2back	Block4	2back/STIM_037.jpg
2438.638	0.85	1	2back	Block4	2back/STIM_037.jpg
2442.531	0.509	1	2back	Block4	2back/STIM_038.jpg
2446.989	0.601	1	2back	Block4	2back/STIM_038.jpg
2449.858	0.64	1	2back	Block4	2back/STIM_038.jpg
2453.958	0.478	1	2back	Block4	2back/STIM_039.jpg
2457.955	0.664	1	2back	Block4	2back/STIM_039.jpg
2462.542	0.962	1	2back	Block4	2back/STIM_039.jpg
2465.583	0.793	1	0back	Block4	0back/STIM_000.jpg
2470.065	0.607	1	0back	Block4	0back/STIM_000.jpg
2473.123	0.595	1	0back	Block4	0back/STIM_000.jpg
2477.729	0.338	1	0back	Block4	0back/STIM_001.jpg
2481.165	0.566	1	0back	Block4	0back/STIM_001.jpg
2485.737	0.497	1	0back	Block4	0back/STIM_001.jpg
2489.373	0.564	1	0back	Block4	0back/STIM_002.jpg
2491.937	0.372	1	0back	Block4	0back/STIM_002.jpg
2496.342	0.528	1	0back	Block4	0back/STIM_002.jpg
2500.68	0.748	1	0back	Block4	0back/STIM_003.jpg
2504.336	0.451	1	0back	Block4	0back/STIM_003.jpg
2508.059	0.514	1	0back	Block4	0back/STIM_003.jpg
2511.319	0.392	1	0back	Block4	0back/STIM_004.jpg
2515.249	0.434	1	0back	Block4	0back/STIM_004.jpg
2517.857	0.639	1	0back	Block4	0back/STIM_004.jpg
2522.007	0.719	1	0back	Block4	0back/STIM_005.jpg
2526.009	0.698	1	0back	Block4	0back/STIM_005.jpg
2530.506	0.659	1	0back	Block4	0back/STIM_005.jpg
2535.049	0.472	1	0back	Block4	0back/STIM_006.jpg
2539.182	0.648	1	0back	Block4	0back/STIM_006.jpg
2543.773	0.652	1	0back	Block4	0back/STIM_006.jpg
2546.721	0.427	1	0back	Block4	0back/STIM_007.jpg
2549.43	0.438	1	0back	Block4	0back/STIM_007.jpg
2552.288	0.5	1	0back	Block4	0back/STIM_007.jpg
2555.178	0.621	1	0back	Block4	0back/STIM_008.jpg
2558.145	0.52	1	0back	Block4	0back/STIM_008.jpg
2562.212	0.575	1	0back	Block4	0back/STIM_008.jpg
2566.485	0.532	1	0back	Block4	0back/STIM_009.jpg
2570.256	0.537	1	0back	Block4	0back/STIM_009.jpg
2573.461	0.545	1	0back	Block4	0back/STIM_009.jpg
2576.919	0.486	0	0back	Block4	0back/STIM_010.jpg
2580.811	0.596	1	0back	Block4	0back/STIM_010.jpg
2584.215	0.585	1	0back	Block4	0back/STIM_010.jpg
2588.565	0.454	1	0back	Block4	0back/STIM_011.jpg
2592.515	0.461	1	0back	Block4	0back/STIM_011.jpg
2596.191	0.739	1	0back	Block4	0back/STIM_011.jpg
2600.737	0.493	1	0back	Block4	0back/STIM_012.jpg
2604.792	0.576	1	0back	Block4	0back/STIM_012.jpg
2608.449	0.555	1	0back	Block4	0back/STIM_012.jpg
2612.798	0.513	1	0back	Block4	0back/STIM_013.jpg
2615.664	0.637	1	0back	Block4	0back/STIM_013.jpg
2619.564	0.56	1	0back	Block4	0back/STIM_013.jpg
2622.673	0.562	1	0back	Block4	0back/STIM_014.jpg
2627.179	0.497	1	0back	Block4	0back/STIM_014.jpg
2630.944	0.356	1	0back	Block4	0back/STIM_014.jpg
2635.198	0.558	1	0back	Block4	0back/STIM_015.jpg
2639.42	0.686	1	0back	Block4	0back/STIM_015.jpg
2644.211	0.458	1	0back	Block4	0back/STIM_015.jpg
2647.232	0.539	1	0back	Block4	0back/STIM_016.jpg
2651.134	0.741	1	0back	Block4	0back/STIM_016.jpg
2655.858	0.485	1	0back	Block4	0back/STIM_016.jpg
2658.938	0.475	1	0back	Block4	0back/STIM_017.jpg
2663.249	0.445	1	0back	Block4	0back/STIM_017.jpg
2666.607	0.364	1	0back	Block4	0back/STIM_017.jpg
2670.513	0.454	1	0back	Block4	0back/STIM_018.jpg
2674.782	0.428	1	0back	Block4	0back/STIM_018.jpg
2677.761	0.493	1	0back	Block4	0back/STIM_018.jpg
2681.286	0.469	1	0back	Block4	0back/STIM_019.jpg
2683.926	0.575	1	0back	Block4	0back/STIM_019.jpg
2687.212	0.683	1	0back	Block4	0back/STIM_019.jpg
