onset	duration	accuracy	trial_type	learning_stage	stimulus
0.0	1.376	incorrect	2back	Block1	2back/STIM_000.jpg
4.31	0.605	correct	2back	Block1	2back/STIM_000.jpg
7.245	0.615	correct	2back	Block1	2back/STIM_000.jpg
9.916	1.158	correct	2back	Block1	2back/STIM_001.jpg
14.148	1.151	incorrect	2back	Block1	2back/STIM_001.jpg
17.544	0.704	correct	2back	Block1	2back/STIM_001.jpg
20.858	0.743	incorrect	2back	Block1	2back/STIM_002.jpg
24.785	0.657	correct	2back	Block1	2back/STIM_002.jpg
27.888	1.198	correct	2back	Block1	2back/STIM_002.jpg
32.249	1.002	incorrect	2back	Block1	2back/STIM_003.jpg
36.86	0.781	correct	2back	Block1	2back/STIM_003.jpg
40.845	1.175	correct	2back	Block1	2back/STIM_003.jpg
46.007	0.74	correct	2back	Block1	2back/STIM_004.jpg
48.875	0.749	correct	2back	Block1	2back/STIM_004.jpg
53.335	1.274	correct	2back	Block1	2back/STIM_004.jpg
57.896	0.988	correct	2back	Block1	2back/STIM_005.jpg
61.153	0.998	correct	2back	Block1	2back/STIM_005.jpg
64.455	1.034	correct	2back	Block1	2back/STIM_005.jpg
67.845	0.884	correct	2back	Block1	2back/STIM_006.jpg
71.604	1.112	correct	2back	Block1	2back/STIM_006.jpg
75.924	0.926	incorrect	2back	Block1	2back/STIM_006.jpg
79.5	1.173	correct	2back	Block1	2back/STIM_007.jpg
84.002	0.777	incorrect	2back	Block1	2back/STIM_007.jpg
88.733	1.153	correct	2back	Block1	2back/STIM_007.jpg
93.512	1.218	correct	2back	Block1	2back/STIM_008.jpg
97.831	1.148	incorrect	2back	Block1	2back/STIM_008.jpg
101.565	1.148	correct	2back	Block1	2back/STIM_008.jpg
105.378	1.199	correct	2back	Block1	2back/STIM_009.jpg
110.319	0.981	correct	2back	Block1	2back/STIM_009.jpg
114.716	1.239	correct	2back	Block1	2back/STIM_009.jpg
119.214	0.999	correct	2back	Block1	2back/STIM_010.jpg
122.332	1.315	correct	2back	Block1	2back/STIM_010.jpg
125.969	0.707	correct	2back	Block1	2back/STIM_010.jpg
129.767	1.46	incorrect	2back	Block1	2back/STIM_011.jpg
134.525	1.344	incorrect	2back	Block1	2back/STIM_011.jpg
138.926	0.574	correct	2back	Block1	2back/STIM_011.jpg
143.346	1.324	correct	2back	Block1	2back/STIM_012.jpg
147.819	1.184	incorrect	2back	Block1	2back/STIM_012.jpg
151.52	0.889	correct	2back	Block1	2back/STIM_012.jpg
155.64	0.988	correct	2back	Block1	2back/STIM_013.jpg
158.757	0.635	correct	2back	Block1	2back/STIM_013.jpg
162.827	0.79	incorrect	2back	Block1	2back/STIM_013.jpg
167.158	0.99	correct	2back	Block1	2back/STIM_014.jpg
170.649	0.597	correct	2back	Block1	2back/STIM_014.jpg
173.801	0.668	incorrect	2back	Block1	2back/STIM_014.jpg
176.568	0.996	correct	2back	Block1	2back/STIM_015.jpg
180.213	0.66	correct	2back	Block1	2back/STIM_015.jpg
184.39	1.099	incorrect	2back	Block1	2back/STIM_015.jpg
188.166	0.731	correct	2back	Block1	2back/STIM_016.jpg
191.344	0.825	correct	2back	Block1	2back/STIM_016.jpg
195.578	1.151	incorrect	2back	Block1	2back/STIM_016.jpg
199.832	0.936	correct	2back	Block1	2back/STIM_017.jpg
202.961	0.931	correct	2back	Block1	2back/STIM_017.jpg
207.237	1.073	correct	2back	Block1	2back/STIM_017.jpg
211.529	1.208	correct	2back	Block1	2back/STIM_018.jpg
215.398	1.087	correct	2back	Block1	2back/STIM_018.jpg
220.32	0.801	correct	2back	Block1	2back/STIM_018.jpg
223.261	1.092	incorrect	2back	Block1	2back/STIM_019.jpg
227.356	1.163	correct	2back	Block1	2back/STIM_019.jpg
230.944	1.204	correct	2back	Block1	2back/STIM_019.jpg
236.137	1.014	correct	2back	Block1	2back/STIM_020.jpg
239.901	1.096	correct	2back	Block1	2back/STIM_020.jpg
243.159	1.155	correct	2back	Block1	2back/STIM_020.jpg
246.669	1.144	correct	2back	Block1	2back/STIM_021.jpg
250.763	0.965	correct	2back	Block1	2back/STIM_021.jpg
254.885	0.606	correct	2back	Block1	2back/STIM_021.jpg
257.606	1.299	correct	2back	Block1	2back/STIM_022.jpg
261.733	0.68	incorrect	2back	Block1	2back/STIM_022.jpg
266.393	1.064	correct	2back	Block1	2back/STIM_022.jpg
271.049	1.435	correct	2back	Block1	2back/STIM_023.jpg
274.786	1.364	correct	2back	Block1	2back/STIM_023.jpg
278.534	1.241	incorrect	2back	Block1	2back/STIM_023.jpg
281.895	0.828	correct	2back	Block1	2back/STIM_024.jpg
285.103	0.686	correct	2back	Block1	2back/STIM_024.jpg
289.234	1.185	correct	2back	Block1	2back/STIM_024.jpg
293.162	1.196	correct	2back	Block1	2back/STIM_025.jpg
297.3	1.374	incorrect	2back	Block1	2back/STIM_025.jpg
301.012	0.567	correct	2back	Block1	2back/STIM_025.jpg
304.73	1.279	correct	2back	Block1	2back/STIM_026.jpg
309.691	0.71	incorrect	2back	Block1	2back/STIM_026.jpg
313.359	0.954	correct	2back	Block1	2back/STIM_026.jpg
317.347	1.291	correct	2back	Block1	2back/STIM_027.jpg
322.499	0.995	correct	2back	Block1	2back/STIM_027.jpg
327.317	0.709	correct	2back	Block1	2back/STIM_027.jpg
331.02	1.24	correct	2back	Block1	2back/STIM_028.jpg
334.958	1.27	correct	2back	Block1	2back/STIM_028.jpg
340.071	1.302	correct	2back	Block1	2back/STIM_028.jpg
344.106	0.642	correct	2back	Block1	2back/STIM_029.jpg
348.224	0.724	correct	2back	Block1	2back/STIM_029.jpg
351.463	1.174	correct	2back	Block1	2back/STIM_029.jpg
356.526	1.081	incorrect	2back	Block1	2back/STIM_030.jpg
359.733	0.896	correct	2back	Block1	2back/STIM_030.jpg
362.905	0.98	correct	2back	Block1	2back/STIM_030.jpg
366.474	1.128	correct	2back	Block1	2back/STIM_031.jpg
369.651	0.909	incorrect	2back	Block1	2back/STIM_031.jpg
374.503	0.766	correct	2back	Block1	2back/STIM_031.jpg
377.364	1.064	incorrect	2back	Block1	2back/STIM_032.jpg
382.425	1.056	correct	2back	Block1	2back/STIM_032.jpg
386.002	0.863	correct	2back	Block1	2back/STIM_032.jpg
389.607	0.632	correct	2back	Block1	2back/STIM_033.jpg
393.402	0.761	incorrect	2back	Block1	2back/STIM_033.jpg
396.25	1.302	incorrect	2back	Block1	2back/STIM_033.jpg
400.645	0.834	correct	2back	Block1	2back/STIM_034.jpg
404.886	0.628	incorrect	2back	Block1	2back/STIM_034.jpg
408.912	0.608	correct	2back	Block1	2back/STIM_034.jpg
413.122	0.79	correct	2back	Block1	2back/STIM_035.jpg
416.202	1.353	correct	2back	Block1	2back/STIM_035.jpg
419.929	1.201	correct	2back	Block1	2back/STIM_035.jpg
425.037	0.723	correct	2back	Block1	2back/STIM_036.jpg
429.334	0.986	correct	2back	Block1	2back/STIM_036.jpg
433.622	1.137	correct	2back	Block1	2back/STIM_036.jpg
438.218	1.404	correct	2back	Block1	2back/STIM_037.jpg
443.427	0.978	correct	2back	Block1	2back/STIM_037.jpg
446.663	1.078	correct	2back	Block1	2back/STIM_037.jpg
450.124	1.426	correct	2back	Block1	2back/STIM_038.jpg
455.362	0.76	correct	2back	Block1	2back/STIM_038.jpg
458.546	0.708	correct	2back	Block1	2back/STIM_038.jpg
462.113	1.133	correct	2back	Block1	2back/STIM_039.jpg
467.213	0.902	incorrect	2back	Block1	2back/STIM_039.jpg
470.132	0.77	correct	2back	Block1	2back/STIM_039.jpg
474.049	0.544	correct	0back	Block1	0back/STIM_000.jpg
478.134	0.698	correct	0back	Block1	0back/STIM_000.jpg
480.844	0.767	correct	0back	Block1	0back/STIM_000.jpg
483.983	0.57	correct	0back	Block1	0back/STIM_001.jpg
487.115	0.653	correct	0back	Block1	0back/STIM_001.jpg
491.569	0.557	correct	0back	Block1	0back/STIM_001.jpg
494.446	0.537	correct	0back	Block1	0back/STIM_002.jpg
498.779	0.727	correct	0back	Block1	0back/STIM_002.jpg
503.097	0.496	correct	0back	Block1	0back/STIM_002.jpg
506.447	0.543	correct	0back	Block1	0back/STIM_003.jpg
509.617	0.822	correct	0back	Block1	0back/STIM_003.jpg
513.057	0.794	correct	0back	Block1	0back/STIM_003.jpg
516.058	0.788	correct	0back	Block1	0back/STIM_004.jpg
520.089	0.785	correct	0back	Block1	0back/STIM_004.jpg
523.84	0.572	correct	0back	Block1	0back/STIM_004.jpg
526.463	0.547	correct	0back	Block1	0back/STIM_005.jpg
529.537	0.428	correct	0back	Block1	0back/STIM_005.jpg
533.521	0.628	correct	0back	Block1	0back/STIM_005.jpg
537.513	0.432	correct	0back	Block1	0back/STIM_006.jpg
541.607	0.475	correct	0back	Block1	0back/STIM_006.jpg
544.181	0.62	correct	0back	Block1	0back/STIM_006.jpg
547.59	0.776	correct	0back	Block1	0back/STIM_007.jpg
552.268	0.548	correct	0back	Block1	0back/STIM_007.jpg
555.968	0.42	incorrect	0back	Block1	0back/STIM_007.jpg
560.347	0.534	correct	0back	Block1	0back/STIM_008.jpg
563.851	0.707	correct	0back	Block1	0back/STIM_008.jpg
568.471	0.569	correct	0back	Block1	0back/STIM_008.jpg
571.917	0.498	correct	0back	Block1	0back/STIM_009.jpg
574.676	0.46	correct	0back	Block1	0back/STIM_009.jpg
577.28	0.484	correct	0back	Block1	0back/STIM_009.jpg
581.643	0.574	correct	0back	Block1	0back/STIM_010.jpg
584.497	0.803	correct	0back	Block1	0back/STIM_010.jpg
588.256	0.545	correct	0back	Block1	0back/STIM_010.jpg
592.669	0.61	correct	0back	Block1	0back/STIM_011.jpg
596.762	0.493	correct	0back	Block1	0back/STIM_011.jpg
600.698	0.712	correct	0back	Block1	0back/STIM_011.jpg
604.037	0.617	correct	0back	Block1	0back/STIM_012.jpg
608.257	0.481	correct	0back	Block1	0back/STIM_012.jpg
610.854	0.487	correct	0back	Block1	0back/STIM_012.jpg
615.116	0.47	correct	0back	Block1	0back/STIM_013.jpg
617.999	0.578	incorrect	0back	Block1	0back/STIM_013.jpg
620.927	0.549	correct	0back	Block1	0back/STIM_013.jpg
624.902	0.589	correct	0back	Block1	0back/STIM_014.jpg
627.956	0.567	correct	0back	Block1	0back/STIM_014.jpg
631.686	0.572	correct	0back	Block1	0back/STIM_014.jpg
634.472	0.831	correct	0back	Block1	0back/STIM_015.jpg
639.091	0.834	correct	0back	Block1	0back/STIM_015.jpg
641.937	0.531	correct	0back	Block1	0back/STIM_015.jpg
644.671	0.772	correct	0back	Block1	0back/STIM_016.jpg
647.798	0.771	correct	0back	Block1	0back/STIM_016.jpg
651.69	0.465	correct	0back	Block1	0back/STIM_016.jpg
655.711	0.518	correct	0back	Block1	0back/STIM_017.jpg
659.286	0.498	correct	0back	Block1	0back/STIM_017.jpg
662.563	0.824	incorrect	0back	Block1	0back/STIM_017.jpg
667.345	0.525	correct	0back	Block1	0back/STIM_018.jpg
671.58	0.54	correct	0back	Block1	0back/STIM_018.jpg
674.355	0.802	correct	0back	Block1	0back/STIM_018.jpg
678.852	0.776	correct	0back	Block1	0back/STIM_019.jpg
683.592	0.694	correct	0back	Block1	0back/STIM_019.jpg
687.52	0.756	correct	0back	Block1	0back/STIM_019.jpg
692.246	0.784	correct	2back	Block2	2back/STIM_000.jpg
695.634	1.113	correct	2back	Block2	2back/STIM_000.jpg
699.2	0.503	correct	2back	Block2	2back/STIM_000.jpg
701.974	1.178	correct	2back	Block2	2back/STIM_001.jpg
707.034	1.129	incorrect	2back	Block2	2back/STIM_001.jpg
710.593	0.783	correct	2back	Block2	2back/STIM_001.jpg
714.547	0.782	incorrect	2back	Block2	2back/STIM_002.jpg
717.823	1.163	correct	2back	Block2	2back/STIM_002.jpg
722.064	0.566	correct	2back	Block2	2back/STIM_002.jpg
725.626	1.049	correct	2back	Block2	2back/STIM_003.jpg
730.384	0.534	correct	2back	Block2	2back/STIM_003.jpg
732.963	1.085	correct	2back	Block2	2back/STIM_003.jpg
736.939	0.607	incorrect	2back	Block2	2back/STIM_004.jpg
741.219	1.16	correct	2back	Block2	2back/STIM_004.jpg
744.935	0.887	correct	2back	Block2	2back/STIM_004.jpg
748.417	0.55	correct	2back	Block2	2back/STIM_005.jpg
751.287	1.046	correct	2back	Block2	2back/STIM_005.jpg
754.954	0.755	correct	2back	Block2	2back/STIM_005.jpg
757.977	1.023	correct	2back	Block2	2back/STIM_006.jpg
761.634	0.642	correct	2back	Block2	2back/STIM_006.jpg
765.654	0.722	incorrect	2back	Block2	2back/STIM_006.jpg
770.066	1.004	correct	2back	Block2	2back/STIM_007.jpg
774.084	0.709	correct	2back	Block2	2back/STIM_007.jpg
777.153	0.973	incorrect	2back	Block2	2back/STIM_007.jpg
782.028	0.6	correct	2back	Block2	2back/STIM_008.jpg
786.439	0.93	correct	2back	Block2	2back/STIM_008.jpg
789.815	0.899	correct	2back	Block2	2back/STIM_008.jpg
794.619	1.214	incorrect	2back	Block2	2back/STIM_009.jpg
797.916	1.124	incorrect	2back	Block2	2back/STIM_009.jpg
802.533	0.482	correct	2back	Block2	2back/STIM_009.jpg
805.659	0.56	correct	2back	Block2	2back/STIM_010.jpg
808.78	0.757	correct	2back	Block2	2back/STIM_010.jpg
811.892	0.783	correct	2back	Block2	2back/STIM_010.jpg
814.699	0.537	correct	2back	Block2	2back/STIM_011.jpg
817.435	0.96	incorrect	2back	Block2	2back/STIM_011.jpg
821.524	0.832	correct	2back	Block2	2back/STIM_011.jpg
826.206	1.172	correct	2back	Block2	2back/STIM_012.jpg
829.447	0.673	correct	2back	Block2	2back/STIM_012.jpg
833.989	0.744	correct	2back	Block2	2back/STIM_012.jpg
837.381	0.737	correct	2back	Block2	2back/STIM_013.jpg
841.725	0.934	correct	2back	Block2	2back/STIM_013.jpg
845.77	1.039	correct	2back	Block2	2back/STIM_013.jpg
850.455	0.798	incorrect	2back	Block2	2back/STIM_014.jpg
853.839	0.726	correct	2back	Block2	2back/STIM_014.jpg
856.819	0.981	correct	2back	Block2	2back/STIM_014.jpg
861.473	0.684	correct	2back	Block2	2back/STIM_015.jpg
865.452	1.149	incorrect	2back	Block2	2back/STIM_015.jpg
869.029	0.872	incorrect	2back	Block2	2back/STIM_015.jpg
872.739	0.758	correct	2back	Block2	2back/STIM_016.jpg
876.946	0.832	correct	2back	Block2	2back/STIM_016.jpg
880.774	0.884	correct	2back	Block2	2back/STIM_016.jpg
884.617	1.022	correct	2back	Block2	2back/STIM_017.jpg
888.751	0.882	correct	2back	Block2	2back/STIM_017.jpg
892.044	0.982	correct	2back	Block2	2back/STIM_017.jpg
895.417	0.787	incorrect	2back	Block2	2back/STIM_018.jpg
898.992	0.834	correct	2back	Block2	2back/STIM_018.jpg
902.065	0.941	incorrect	2back	Block2	2back/STIM_018.jpg
906.397	0.608	incorrect	2back	Block2	2back/STIM_019.jpg
909.809	0.607	correct	2back	Block2	2back/STIM_019.jpg
913.537	0.893	correct	2back	Block2	2back/STIM_019.jpg
917.047	1.079	correct	2back	Block2	2back/STIM_020.jpg
920.512	0.646	correct	2back	Block2	2back/STIM_020.jpg
924.276	0.494	incorrect	2back	Block2	2back/STIM_020.jpg
928.362	0.924	correct	2back	Block2	2back/STIM_021.jpg
931.738	0.934	incorrect	2back	Block2	2back/STIM_021.jpg
936.404	0.484	correct	2back	Block2	2back/STIM_021.jpg
940.649	1.188	correct	2back	Block2	2back/STIM_022.jpg
945.541	0.967	correct	2back	Block2	2back/STIM_022.jpg
949.918	0.65	correct	2back	Block2	2back/STIM_022.jpg
953.225	1.084	correct	2back	Block2	2back/STIM_023.jpg
958.181	0.728	correct	2back	Block2	2back/STIM_023.jpg
962.212	0.774	correct	2back	Block2	2back/STIM_023.jpg
965.254	1.118	correct	2back	Block2	2back/STIM_024.jpg
970.222	0.845	correct	2back	Block2	2back/STIM_024.jpg
973.367	0.888	correct	2back	Block2	2back/STIM_024.jpg
976.446	0.626	correct	2back	Block2	2back/STIM_025.jpg
979.102	1.094	correct	2back	Block2	2back/STIM_025.jpg
982.434	0.581	incorrect	2back	Block2	2back/STIM_025.jpg
986.597	1.054	correct	2back	Block2	2back/STIM_026.jpg
990.102	0.718	correct	2back	Block2	2back/STIM_026.jpg
994.623	0.987	correct	2back	Block2	2back/STIM_026.jpg
998.164	0.677	incorrect	2back	Block2	2back/STIM_027.jpg
1001.857	0.62	correct	2back	Block2	2back/STIM_027.jpg
1006.235	0.579	correct	2back	Block2	2back/STIM_027.jpg
1010.795	1.087	correct	2back	Block2	2back/STIM_028.jpg
1014.626	0.502	correct	2back	Block2	2back/STIM_028.jpg
1017.496	0.624	correct	2back	Block2	2back/STIM_028.jpg
1020.623	0.979	correct	2back	Block2	2back/STIM_029.jpg
1024.257	1.056	correct	2back	Block2	2back/STIM_029.jpg
1028.301	0.923	correct	2back	Block2	2back/STIM_029.jpg
1031.606	0.586	correct	2back	Block2	2back/STIM_030.jpg
1034.885	1.135	incorrect	2back	Block2	2back/STIM_030.jpg
1038.572	0.712	correct	2back	Block2	2back/STIM_030.jpg
1042.645	0.898	correct	2back	Block2	2back/STIM_031.jpg
1046.875	0.754	incorrect	2back	Block2	2back/STIM_031.jpg
1050.839	0.84	correct	2back	Block2	2back/STIM_031.jpg
1054.569	1.147	incorrect	2back	Block2	2back/STIM_032.jpg
1058.014	0.857	correct	2back	Block2	2back/STIM_032.jpg
1061.35	0.535	correct	2back	Block2	2back/STIM_032.jpg
1065.657	0.706	correct	2back	Block2	2back/STIM_033.jpg
1070.093	0.718	incorrect	2back	Block2	2back/STIM_033.jpg
1074.647	1.087	correct	2back	Block2	2back/STIM_033.jpg
1078.119	0.922	incorrect	2back	Block2	2back/STIM_034.jpg
1081.213	0.797	correct	2back	Block2	2back/STIM_034.jpg
1084.91	0.859	correct	2back	Block2	2back/STIM_034.jpg
1089.254	0.546	correct	2back	Block2	2back/STIM_035.jpg
1092.029	1.072	correct	2back	Block2	2back/STIM_035.jpg
1095.377	0.688	incorrect	2back	Block2	2back/STIM_035.jpg
1099.711	1.15	correct	2back	Block2	2back/STIM_036.jpg
1104.724	1.123	correct	2back	Block2	2back/STIM_036.jpg
1107.903	1.002	correct	2back	Block2	2back/STIM_036.jpg
1112.137	0.814	correct	2back	Block2	2back/STIM_037.jpg
1115.72	0.984	correct	2back	Block2	2back/STIM_037.jpg
1120.417	1.096	correct	2back	Block2	2back/STIM_037.jpg
1123.93	0.564	correct	2back	Block2	2back/STIM_038.jpg
1128.154	0.603	correct	2back	Block2	2back/STIM_038.jpg
1132.471	0.483	correct	2back	Block2	2back/STIM_038.jpg
1136.322	0.609	incorrect	2back	Block2	2back/STIM_039.jpg
1140.28	0.979	correct	2back	Block2	2back/STIM_039.jpg
1145.148	0.484	correct	2back	Block2	2back/STIM_039.jpg
1149.56	0.671	correct	0back	Block2	0back/STIM_000.jpg
1152.518	0.677	correct	0back	Block2	0back/STIM_000.jpg
1157.133	0.637	correct	0back	Block2	0back/STIM_000.jpg
1161.11	0.66	correct	0back	Block2	0back/STIM_001.jpg
1164.423	0.489	correct	0back	Block2	0back/STIM_001.jpg
1168.2	0.449	correct	0back	Block2	0back/STIM_001.jpg
1172.118	0.665	correct	0back	Block2	0back/STIM_002.jpg
1176.321	0.594	correct	0back	Block2	0back/STIM_002.jpg
1179.889	0.529	correct	0back	Block2	0back/STIM_002.jpg
1183.696	0.637	correct	0back	Block2	0back/STIM_003.jpg
1186.736	0.78	incorrect	0back	Block2	0back/STIM_003.jpg
1189.604	0.564	correct	0back	Block2	0back/STIM_003.jpg
1193.034	0.638	correct	0back	Block2	0back/STIM_004.jpg
1196.721	0.503	correct	0back	Block2	0back/STIM_004.jpg
1199.312	0.73	correct	0back	Block2	0back/STIM_004.jpg
1203.743	0.821	correct	0back	Block2	0back/STIM_005.jpg
1208.434	0.564	correct	0back	Block2	0back/STIM_005.jpg
1211.868	0.66	correct	0back	Block2	0back/STIM_005.jpg
1216.281	0.685	incorrect	0back	Block2	0back/STIM_006.jpg
1220.033	0.519	correct	0back	Block2	0back/STIM_006.jpg
1223.794	0.698	correct	0back	Block2	0back/STIM_006.jpg
1228.316	0.794	correct	0back	Block2	0back/STIM_007.jpg
1232.029	0.65	correct	0back	Block2	0back/STIM_007.jpg
1236.64	0.815	correct	0back	Block2	0back/STIM_007.jpg
1239.937	0.63	correct	0back	Block2	0back/STIM_008.jpg
1243.26	0.835	correct	0back	Block2	0back/STIM_008.jpg
1246.954	0.829	correct	0back	Block2	0back/STIM_008.jpg
1251.396	0.604	correct	0back	Block2	0back/STIM_009.jpg
1254.949	0.471	correct	0back	Block2	0back/STIM_009.jpg
1258.014	0.824	correct	0back	Block2	0back/STIM_009.jpg
1261.109	0.52	correct	0back	Block2	0back/STIM_010.jpg
1265.074	0.66	incorrect	0back	Block2	0back/STIM_010.jpg
1267.843	0.762	correct	0back	Block2	0back/STIM_010.jpg
1270.904	0.571	correct	0back	Block2	0back/STIM_011.jpg
1273.756	0.822	correct	0back	Block2	0back/STIM_011.jpg
1276.633	0.523	correct	0back	Block2	0back/STIM_011.jpg
1279.485	0.633	correct	0back	Block2	0back/STIM_012.jpg
1282.544	0.638	correct	0back	Block2	0back/STIM_012.jpg
1286.417	0.558	correct	0back	Block2	0back/STIM_012.jpg
1289.627	0.729	correct	0back	Block2	0back/STIM_013.jpg
1292.989	0.739	correct	0back	Block2	0back/STIM_013.jpg
1297.36	0.619	correct	0back	Block2	0back/STIM_013.jpg
1300.909	0.442	correct	0back	Block2	0back/STIM_014.jpg
1304.298	0.831	correct	0back	Block2	0back/STIM_014.jpg
1308.322	0.432	correct	0back	Block2	0back/STIM_014.jpg
1311.845	0.516	correct	0back	Block2	0back/STIM_015.jpg
1314.491	0.767	correct	0back	Block2	0back/STIM_015.jpg
1317.539	0.792	correct	0back	Block2	0back/STIM_015.jpg
1321.761	0.65	correct	0back	Block2	0back/STIM_016.jpg
1325.303	0.793	correct	0back	Block2	0back/STIM_016.jpg
1329.77	0.526	correct	0back	Block2	0back/STIM_016.jpg
1334.164	0.772	correct	0back	Block2	0back/STIM_017.jpg
1338.02	0.784	correct	0back	Block2	0back/STIM_017.jpg
1341.148	0.488	correct	0back	Block2	0back/STIM_017.jpg
1344.186	0.786	correct	0back	Block2	0back/STIM_018.jpg
1347.439	0.441	correct	0back	Block2	0back/STIM_018.jpg
1350.22	0.587	correct	0back	Block2	0back/STIM_018.jpg
1353.726	0.799	correct	0back	Block2	0back/STIM_019.jpg
1357.396	0.588	correct	0back	Block2	0back/STIM_019.jpg
1360.777	0.707	correct	0back	Block2	0back/STIM_019.jpg
1363.799	0.656	correct	2back	Block3	2back/STIM_000.jpg
1367.009	0.741	correct	2back	Block3	2back/STIM_000.jpg
1371.12	1.008	correct	2back	Block3	2back/STIM_000.jpg
1375.361	0.945	correct	2back	Block3	2back/STIM_001.jpg
1378.911	0.84	correct	2back	Block3	2back/STIM_001.jpg
1382.091	1.009	correct	2back	Block3	2back/STIM_001.jpg
1385.126	0.488	incorrect	2back	Block3	2back/STIM_002.jpg
1389.559	0.453	correct	2back	Block3	2back/STIM_002.jpg
1392.468	0.568	correct	2back	Block3	2back/STIM_002.jpg
1395.758	0.514	correct	2back	Block3	2back/STIM_003.jpg
1399.548	0.616	correct	2back	Block3	2back/STIM_003.jpg
1403.422	0.836	correct	2back	Block3	2back/STIM_003.jpg
1407.363	0.859	correct	2back	Block3	2back/STIM_004.jpg
1412.166	0.466	correct	2back	Block3	2back/STIM_004.jpg
1414.977	0.546	correct	2back	Block3	2back/STIM_004.jpg
1418.484	0.697	correct	2back	Block3	2back/STIM_005.jpg
1422.519	0.669	correct	2back	Block3	2back/STIM_005.jpg
1427.073	1.009	correct	2back	Block3	2back/STIM_005.jpg
1432.078	0.492	correct	2back	Block3	2back/STIM_006.jpg
1434.972	0.484	correct	2back	Block3	2back/STIM_006.jpg
1438.451	0.859	correct	2back	Block3	2back/STIM_006.jpg
1442.182	0.979	correct	2back	Block3	2back/STIM_007.jpg
1445.609	0.957	correct	2back	Block3	2back/STIM_007.jpg
1450.216	0.681	correct	2back	Block3	2back/STIM_007.jpg
1453.737	0.467	correct	2back	Block3	2back/STIM_008.jpg
1456.236	0.886	correct	2back	Block3	2back/STIM_008.jpg
1459.388	0.464	correct	2back	Block3	2back/STIM_008.jpg
1462.712	0.65	correct	2back	Block3	2back/STIM_009.jpg
1465.514	0.923	incorrect	2back	Block3	2back/STIM_009.jpg
1468.46	0.864	correct	2back	Block3	2back/STIM_009.jpg
1471.96	0.811	correct	2back	Block3	2back/STIM_010.jpg
1476.134	0.593	correct	2back	Block3	2back/STIM_010.jpg
1478.934	0.941	correct	2back	Block3	2back/STIM_010.jpg
1482.51	1.021	correct	2back	Block3	2back/STIM_011.jpg
1487.17	0.523	correct	2back	Block3	2back/STIM_011.jpg
1491.164	0.448	correct	2back	Block3	2back/STIM_011.jpg
1493.99	0.82	correct	2back	Block3	2back/STIM_012.jpg
1498.137	0.47	correct	2back	Block3	2back/STIM_012.jpg
1500.834	0.587	correct	2back	Block3	2back/STIM_012.jpg
1505.187	0.75	correct	2back	Block3	2back/STIM_013.jpg
1508.896	0.578	correct	2back	Block3	2back/STIM_013.jpg
1511.912	0.953	correct	2back	Block3	2back/STIM_013.jpg
1515.376	0.726	correct	2back	Block3	2back/STIM_014.jpg
1518.623	0.491	correct	2back	Block3	2back/STIM_014.jpg
1521.874	0.495	incorrect	2back	Block3	2back/STIM_014.jpg
1524.932	0.534	correct	2back	Block3	2back/STIM_015.jpg
1528.029	0.757	correct	2back	Block3	2back/STIM_015.jpg
1531.097	0.97	correct	2back	Block3	2back/STIM_015.jpg
1534.939	0.668	correct	2back	Block3	2back/STIM_016.jpg
1538.362	0.941	correct	2back	Block3	2back/STIM_016.jpg
1541.519	0.641	correct	2back	Block3	2back/STIM_016.jpg
1545.087	0.744	correct	2back	Block3	2back/STIM_017.jpg
1549.053	0.737	correct	2back	Block3	2back/STIM_017.jpg
1553.538	0.995	correct	2back	Block3	2back/STIM_017.jpg
1557.656	0.442	correct	2back	Block3	2back/STIM_018.jpg
1560.645	0.587	correct	2back	Block3	2back/STIM_018.jpg
1563.776	0.956	correct	2back	Block3	2back/STIM_018.jpg
1566.776	0.94	correct	2back	Block3	2back/STIM_019.jpg
1570.184	0.926	correct	2back	Block3	2back/STIM_019.jpg
1574.779	0.799	correct	2back	Block3	2back/STIM_019.jpg
1577.882	1.002	correct	2back	Block3	2back/STIM_020.jpg
1582.816	0.97	correct	2back	Block3	2back/STIM_020.jpg
1587.441	0.439	correct	2back	Block3	2back/STIM_020.jpg
1591.642	0.731	correct	2back	Block3	2back/STIM_021.jpg
1595.77	0.951	correct	2back	Block3	2back/STIM_021.jpg
1598.93	0.458	correct	2back	Block3	2back/STIM_021.jpg
1602.681	0.477	correct	2back	Block3	2back/STIM_022.jpg
1605.399	0.672	incorrect	2back	Block3	2back/STIM_022.jpg
1609.765	0.764	correct	2back	Block3	2back/STIM_022.jpg
1614.048	0.907	correct	2back	Block3	2back/STIM_023.jpg
1618.318	0.895	correct	2back	Block3	2back/STIM_023.jpg
1622.276	0.666	correct	2back	Block3	2back/STIM_023.jpg
1626.018	0.575	correct	2back	Block3	2back/STIM_024.jpg
1629.81	0.592	correct	2back	Block3	2back/STIM_024.jpg
1633.684	1.015	correct	2back	Block3	2back/STIM_024.jpg
1636.714	0.482	incorrect	2back	Block3	2back/STIM_025.jpg
1640.792	0.987	correct	2back	Block3	2back/STIM_025.jpg
1644.528	0.773	correct	2back	Block3	2back/STIM_025.jpg
1649.194	0.676	correct	2back	Block3	2back/STIM_026.jpg
1652.021	0.823	correct	2back	Block3	2back/STIM_026.jpg
1655.596	0.566	correct	2back	Block3	2back/STIM_026.jpg
1658.985	0.991	correct	2back	Block3	2back/STIM_027.jpg
1663.742	0.825	correct	2back	Block3	2back/STIM_027.jpg
1667.696	0.72	correct	2back	Block3	2back/STIM_027.jpg
1672.201	0.849	correct	2back	Block3	2back/STIM_028.jpg
1676.549	0.85	correct	2back	Block3	2back/STIM_028.jpg
1680.274	0.786	correct	2back	Block3	2back/STIM_028.jpg
1683.562	0.565	incorrect	2back	Block3	2back/STIM_029.jpg
1686.707	0.618	correct	2back	Block3	2back/STIM_029.jpg
1690.898	0.453	correct	2back	Block3	2back/STIM_029.jpg
1695.291	0.487	correct	2back	Block3	2back/STIM_030.jpg
1699.252	0.717	incorrect	2back	Block3	2back/STIM_030.jpg
1703.346	0.884	correct	2back	Block3	2back/STIM_030.jpg
1706.414	0.867	correct	2back	Block3	2back/STIM_031.jpg
1710.242	0.519	correct	2back	Block3	2back/STIM_031.jpg
1713.176	0.98	correct	2back	Block3	2back/STIM_031.jpg
1717.099	0.781	correct	2back	Block3	2back/STIM_032.jpg
1720.531	0.481	correct	2back	Block3	2back/STIM_032.jpg
1724.084	0.973	correct	2back	Block3	2back/STIM_032.jpg
1727.165	0.822	correct	2back	Block3	2back/STIM_033.jpg
1730.101	0.99	correct	2back	Block3	2back/STIM_033.jpg
1733.808	1.018	correct	2back	Block3	2back/STIM_033.jpg
1738.794	0.579	correct	2back	Block3	2back/STIM_034.jpg
1741.374	0.551	correct	2back	Block3	2back/STIM_034.jpg
1744.092	0.524	correct	2back	Block3	2back/STIM_034.jpg
1747.561	0.76	correct	2back	Block3	2back/STIM_035.jpg
1752.201	0.738	correct	2back	Block3	2back/STIM_035.jpg
1756.885	0.453	correct	2back	Block3	2back/STIM_035.jpg
1759.736	0.515	correct	2back	Block3	2back/STIM_036.jpg
1763.815	0.7	correct	2back	Block3	2back/STIM_036.jpg
1767.943	0.499	correct	2back	Block3	2back/STIM_036.jpg
1771.484	0.464	correct	2back	Block3	2back/STIM_037.jpg
1775.616	0.45	correct	2back	Block3	2back/STIM_037.jpg
1778.696	0.891	correct	2back	Block3	2back/STIM_037.jpg
1782.578	0.583	correct	2back	Block3	2back/STIM_038.jpg
1785.543	0.943	correct	2back	Block3	2back/STIM_038.jpg
1790.057	0.62	correct	2back	Block3	2back/STIM_038.jpg
1793.098	0.681	correct	2back	Block3	2back/STIM_039.jpg
1796.863	0.883	correct	2back	Block3	2back/STIM_039.jpg
1801.642	0.693	correct	2back	Block3	2back/STIM_039.jpg
1805.438	0.802	correct	0back	Block3	0back/STIM_000.jpg
1808.836	0.801	correct	0back	Block3	0back/STIM_000.jpg
1812.064	0.761	correct	0back	Block3	0back/STIM_000.jpg
1816.337	0.82	correct	0back	Block3	0back/STIM_001.jpg
1820.458	0.618	correct	0back	Block3	0back/STIM_001.jpg
1824.321	0.749	correct	0back	Block3	0back/STIM_001.jpg
1827.203	0.655	correct	0back	Block3	0back/STIM_002.jpg
1830.792	0.419	correct	0back	Block3	0back/STIM_002.jpg
1833.94	0.682	correct	0back	Block3	0back/STIM_002.jpg
1837.567	0.746	correct	0back	Block3	0back/STIM_003.jpg
1841.3	0.5	correct	0back	Block3	0back/STIM_003.jpg
1845.003	0.75	incorrect	0back	Block3	0back/STIM_003.jpg
1849.384	0.659	correct	0back	Block3	0back/STIM_004.jpg
1853.64	0.832	correct	0back	Block3	0back/STIM_004.jpg
1856.955	0.538	correct	0back	Block3	0back/STIM_004.jpg
1861.204	0.785	incorrect	0back	Block3	0back/STIM_005.jpg
1865.561	0.832	correct	0back	Block3	0back/STIM_005.jpg
1868.614	0.715	correct	0back	Block3	0back/STIM_005.jpg
1871.603	0.441	correct	0back	Block3	0back/STIM_006.jpg
1874.385	0.662	correct	0back	Block3	0back/STIM_006.jpg
1877.91	0.77	correct	0back	Block3	0back/STIM_006.jpg
1880.893	0.581	correct	0back	Block3	0back/STIM_007.jpg
1884.166	0.442	correct	0back	Block3	0back/STIM_007.jpg
1887.328	0.712	correct	0back	Block3	0back/STIM_007.jpg
1890.891	0.474	correct	0back	Block3	0back/STIM_008.jpg
1894.519	0.448	correct	0back	Block3	0back/STIM_008.jpg
1898.831	0.454	correct	0back	Block3	0back/STIM_008.jpg
1903.114	0.721	correct	0back	Block3	0back/STIM_009.jpg
1907.084	0.729	correct	0back	Block3	0back/STIM_009.jpg
1910.863	0.469	correct	0back	Block3	0back/STIM_009.jpg
1914.733	0.775	correct	0back	Block3	0back/STIM_010.jpg
1917.979	0.452	correct	0back	Block3	0back/STIM_010.jpg
1921.495	0.654	incorrect	0back	Block3	0back/STIM_010.jpg
1924.649	0.738	correct	0back	Block3	0back/STIM_011.jpg
1927.981	0.718	correct	0back	Block3	0back/STIM_011.jpg
1931.3	0.455	correct	0back	Block3	0back/STIM_011.jpg
1933.951	0.685	correct	0back	Block3	0back/STIM_012.jpg
1938.361	0.475	correct	0back	Block3	0back/STIM_012.jpg
1942.047	0.826	correct	0back	Block3	0back/STIM_012.jpg
1946.286	0.506	correct	0back	Block3	0back/STIM_013.jpg
1950.072	0.667	correct	0back	Block3	0back/STIM_013.jpg
1954.499	0.79	correct	0back	Block3	0back/STIM_013.jpg
1957.827	0.712	correct	0back	Block3	0back/STIM_014.jpg
1961.553	0.697	correct	0back	Block3	0back/STIM_014.jpg
1964.837	0.64	incorrect	0back	Block3	0back/STIM_014.jpg
1967.603	0.502	correct	0back	Block3	0back/STIM_015.jpg
1970.456	0.553	correct	0back	Block3	0back/STIM_015.jpg
1973.496	0.451	correct	0back	Block3	0back/STIM_015.jpg
1977.38	0.596	correct	0back	Block3	0back/STIM_016.jpg
1981.229	0.785	correct	0back	Block3	0back/STIM_016.jpg
1984.084	0.725	correct	0back	Block3	0back/STIM_016.jpg
1988.441	0.603	correct	0back	Block3	0back/STIM_017.jpg
1992.739	0.791	correct	0back	Block3	0back/STIM_017.jpg
1995.697	0.45	correct	0back	Block3	0back/STIM_017.jpg
1999.274	0.451	correct	0back	Block3	0back/STIM_018.jpg
2002.31	0.503	correct	0back	Block3	0back/STIM_018.jpg
2005.485	0.761	correct	0back	Block3	0back/STIM_018.jpg
2008.541	0.512	correct	0back	Block3	0back/STIM_019.jpg
2012.481	0.684	correct	0back	Block3	0back/STIM_019.jpg
2016.588	0.748	correct	0back	Block3	0back/STIM_019.jpg
2020.703	0.877	correct	2back	Block4	2back/STIM_000.jpg
2024.136	0.579	correct	2back	Block4	2back/STIM_000.jpg
2028.035	0.618	correct	2back	Block4	2back/STIM_000.jpg
2030.891	0.75	correct	2back	Block4	2back/STIM_001.jpg
2035.243	0.726	correct	2back	Block4	2back/STIM_001.jpg
2039.316	0.862	correct	2back	Block4	2back/STIM_001.jpg
2043.771	0.79	correct	2back	Block4	2back/STIM_002.jpg
2048.452	0.95	correct	2back	Block4	2back/STIM_002.jpg
2052.501	0.706	correct	2back	Block4	2back/STIM_002.jpg
2055.784	0.706	correct	2back	Block4	2back/STIM_003.jpg
2060.261	0.696	incorrect	2back	Block4	2back/STIM_003.jpg
2063.992	0.734	correct	2back	Block4	2back/STIM_003.jpg
2068.03	0.69	correct	2back	Block4	2back/STIM_004.jpg
2072.126	0.718	correct	2back	Block4	2back/STIM_004.jpg
2076.027	0.884	correct	2back	Block4	2back/STIM_004.jpg
2079.958	0.964	correct	2back	Block4	2back/STIM_005.jpg
2084.711	0.891	correct	2back	Block4	2back/STIM_005.jpg
2089.286	0.632	correct	2back	Block4	2back/STIM_005.jpg
2092.19	0.755	correct	2back	Block4	2back/STIM_006.jpg
2096.763	0.684	correct	2back	Block4	2back/STIM_006.jpg
2099.937	0.923	correct	2back	Block4	2back/STIM_006.jpg
2104.404	0.739	correct	2back	Block4	2back/STIM_007.jpg
2108.433	0.678	correct	2back	Block4	2back/STIM_007.jpg
2112.632	0.752	correct	2back	Block4	2back/STIM_007.jpg
2117.032	0.962	correct	2back	Block4	2back/STIM_008.jpg
2120.252	0.805	incorrect	2back	Block4	2back/STIM_008.jpg
2124.525	0.856	correct	2back	Block4	2back/STIM_008.jpg
2129.206	0.598	correct	2back	Block4	2back/STIM_009.jpg
2131.872	0.861	correct	2back	Block4	2back/STIM_009.jpg
2135.584	1.017	correct	2back	Block4	2back/STIM_009.jpg
2140.047	0.567	correct	2back	Block4	2back/STIM_010.jpg
2144.282	0.904	correct	2back	Block4	2back/STIM_010.jpg
2148.374	0.918	correct	2back	Block4	2back/STIM_010.jpg
2153.067	0.768	correct	2back	Block4	2back/STIM_011.jpg
2155.954	0.974	incorrect	2back	Block4	2back/STIM_011.jpg
2160.744	0.652	correct	2back	Block4	2back/STIM_011.jpg
2164.722	0.856	incorrect	2back	Block4	2back/STIM_012.jpg
2168.887	0.893	correct	2back	Block4	2back/STIM_012.jpg
2172.6	0.995	correct	2back	Block4	2back/STIM_012.jpg
2177.553	0.952	correct	2back	Block4	2back/STIM_013.jpg
2182.249	0.909	correct	2back	Block4	2back/STIM_013.jpg
2185.654	0.819	correct	2back	Block4	2back/STIM_013.jpg
2190.334	0.857	correct	2back	Block4	2back/STIM_014.jpg
2193.527	0.456	correct	2back	Block4	2back/STIM_014.jpg
2197.08	0.624	correct	2back	Block4	2back/STIM_014.jpg
2200.79	0.626	correct	2back	Block4	2back/STIM_015.jpg
2204.06	0.526	correct	2back	Block4	2back/STIM_015.jpg
2207.195	0.742	correct	2back	Block4	2back/STIM_015.jpg
2211.887	0.913	correct	2back	Block4	2back/STIM_016.jpg
2215.632	0.493	correct	2back	Block4	2back/STIM_016.jpg
2218.23	0.755	correct	2back	Block4	2back/STIM_016.jpg
2222.933	0.82	incorrect	2back	Block4	2back/STIM_017.jpg
2226.58	0.767	correct	2back	Block4	2back/STIM_017.jpg
2230.053	0.836	correct	2back	Block4	2back/STIM_017.jpg
2234.06	0.791	correct	2back	Block4	2back/STIM_018.jpg
2238.676	0.661	correct	2back	Block4	2back/STIM_018.jpg
2243.052	0.892	correct	2back	Block4	2back/STIM_018.jpg
2247.44	0.46	incorrect	2back	Block4	2back/STIM_019.jpg
2250.543	0.875	correct	2back	Block4	2back/STIM_019.jpg
2255.395	0.735	correct	2back	Block4	2back/STIM_019.jpg
2259.297	0.847	correct	2back	Block4	2back/STIM_020.jpg
2262.341	0.513	correct	2back	Block4	2back/STIM_020.jpg
2266.07	0.866	correct	2back	Block4	2back/STIM_020.jpg
2270.802	0.661	correct	2back	Block4	2back/STIM_021.jpg
2273.698	0.515	correct	2back	Block4	2back/STIM_021.jpg
2277.564	0.865	correct	2back	Block4	2back/STIM_021.jpg
2281.019	0.777	correct	2back	Block4	2back/STIM_022.jpg
2285.24	0.551	correct	2back	Block4	2back/STIM_022.jpg
2288.039	0.574	correct	2back	Block4	2back/STIM_022.jpg
2290.986	1.014	correct	2back	Block4	2back/STIM_023.jpg
2294.28	0.862	correct	2back	Block4	2back/STIM_023.jpg
2297.361	0.928	correct	2back	Block4	2back/STIM_023.jpg
2301.732	0.923	correct	2back	Block4	2back/STIM_024.jpg
2305.857	0.518	correct	2back	Block4	2back/STIM_024.jpg
2310.243	0.87	correct	2back	Block4	2back/STIM_024.jpg
2314.868	0.927	correct	2back	Block4	2back/STIM_025.jpg
2318.154	0.993	correct	2back	Block4	2back/STIM_025.jpg
2321.569	0.629	correct	2back	Block4	2back/STIM_025.jpg
2324.852	0.55	correct	2back	Block4	2back/STIM_026.jpg
2328.891	0.504	correct	2back	Block4	2back/STIM_026.jpg
2331.968	0.678	correct	2back	Block4	2back/STIM_026.jpg
2335.872	0.612	correct	2back	Block4	2back/STIM_027.jpg
2338.542	0.616	correct	2back	Block4	2back/STIM_027.jpg
2341.896	0.728	correct	2back	Block4	2back/STIM_027.jpg
2344.736	0.642	correct	2back	Block4	2back/STIM_028.jpg
2348.644	0.796	correct	2back	Block4	2back/STIM_028.jpg
2352.302	0.662	correct	2back	Block4	2back/STIM_028.jpg
2355.948	0.76	correct	2back	Block4	2back/STIM_029.jpg
2360.651	0.532	correct	2back	Block4	2back/STIM_029.jpg
2363.762	0.702	correct	2back	Block4	2back/STIM_029.jpg
2367.169	0.638	correct	2back	Block4	2back/STIM_030.jpg
2371.553	0.967	correct	2back	Block4	2back/STIM_030.jpg
2375.217	0.871	correct	2back	Block4	2back/STIM_030.jpg
2379.417	0.755	correct	2back	Block4	2back/STIM_031.jpg
2383.377	0.539	correct	2back	Block4	2back/STIM_031.jpg
2386.993	0.748	incorrect	2back	Block4	2back/STIM_031.jpg
2391.55	0.475	correct	2back	Block4	2back/STIM_032.jpg
2394.968	0.568	correct	2back	Block4	2back/STIM_032.jpg
2399.366	1.015	correct	2back	Block4	2back/STIM_032.jpg
2403.317	0.476	correct	2back	Block4	2back/STIM_033.jpg
2406.977	0.774	correct	2back	Block4	2back/STIM_033.jpg
2411.445	0.89	correct	2back	Block4	2back/STIM_033.jpg
2415.904	1.001	correct	2back	Block4	2back/STIM_034.jpg
2419.088	0.989	correct	2back	Block4	2back/STIM_034.jpg
2422.769	0.858	correct	2back	Block4	2back/STIM_034.jpg
2426.006	0.75	correct	2back	Block4	2back/STIM_035.jpg
2430.576	0.919	incorrect	2back	Block4	2back/STIM_035.jpg
2434.35	0.908	correct	2back	Block4	2back/STIM_035.jpg
2437.63	0.608	correct	2back	Block4	2back/STIM_036.jpg
2441.93	0.905	correct	2back	Block4	2back/STIM_036.jpg
2445.506	0.871	correct	2back	Block4	2back/STIM_036.jpg
2448.479	0.483	correct	2back	Block4	2back/STIM_037.jpg
2451.956	0.999	correct	2back	Block4	2back/STIM_037.jpg
2456.113	0.489	correct	2back	Block4	2back/STIM_037.jpg
2460.448	0.757	correct	2back	Block4	2back/STIM_038.jpg
2465.11	0.824	correct	2back	Block4	2back/STIM_038.jpg
2469.754	0.722	correct	2back	Block4	2back/STIM_038.jpg
2473.334	0.961	correct	2back	Block4	2back/STIM_039.jpg
2477.08	0.818	correct	2back	Block4	2back/STIM_039.jpg
2480.473	0.648	correct	2back	Block4	2back/STIM_039.jpg
2483.425	0.792	correct	0back	Block4	0back/STIM_000.jpg
2486.251	0.723	correct	0back	Block4	0back/STIM_000.jpg
2490.773	0.46	correct	0back	Block4	0back/STIM_000.jpg
2494.23	0.533	correct	0back	Block4	0back/STIM_001.jpg
2498.347	0.579	correct	0back	Block4	0back/STIM_001.jpg
2501.834	0.758	correct	0back	Block4	0back/STIM_001.jpg
2506.195	0.793	correct	0back	Block4	0back/STIM_002.jpg
2509.078	0.661	correct	0back	Block4	0back/STIM_002.jpg
2512.21	0.521	correct	0back	Block4	0back/STIM_002.jpg
2515.119	0.796	correct	0back	Block4	0back/STIM_003.jpg
2518.93	0.829	correct	0back	Block4	0back/STIM_003.jpg
2522.297	0.732	correct	0back	Block4	0back/STIM_003.jpg
2525.495	0.505	correct	0back	Block4	0back/STIM_004.jpg
2529.286	0.536	incorrect	0back	Block4	0back/STIM_004.jpg
2532.827	0.657	correct	0back	Block4	0back/STIM_004.jpg
2536.303	0.61	correct	0back	Block4	0back/STIM_005.jpg
2540.324	0.461	correct	0back	Block4	0back/STIM_005.jpg
2543.715	0.512	correct	0back	Block4	0back/STIM_005.jpg
2546.297	0.733	correct	0back	Block4	0back/STIM_006.jpg
2549.098	0.622	correct	0back	Block4	0back/STIM_006.jpg
2552.057	0.763	correct	0back	Block4	0back/STIM_006.jpg
2555.419	0.455	correct	0back	Block4	0back/STIM_007.jpg
2559.534	0.724	correct	0back	Block4	0back/STIM_007.jpg
2563.851	0.747	correct	0back	Block4	0back/STIM_007.jpg
2566.916	0.564	correct	0back	Block4	0back/STIM_008.jpg
2570.151	0.5	correct	0back	Block4	0back/STIM_008.jpg
2573.355	0.54	incorrect	0back	Block4	0back/STIM_008.jpg
2575.941	0.433	correct	0back	Block4	0back/STIM_009.jpg
2579.044	0.541	correct	0back	Block4	0back/STIM_009.jpg
2582.24	0.824	correct	0back	Block4	0back/STIM_009.jpg
2586.29	0.676	incorrect	0back	Block4	0back/STIM_010.jpg
2589.159	0.828	correct	0back	Block4	0back/STIM_010.jpg
2592.521	0.729	correct	0back	Block4	0back/STIM_010.jpg
2595.392	0.816	correct	0back	Block4	0back/STIM_011.jpg
2599.898	0.791	correct	0back	Block4	0back/STIM_011.jpg
2603.083	0.659	correct	0back	Block4	0back/STIM_011.jpg
2607.159	0.553	correct	0back	Block4	0back/STIM_012.jpg
2610.184	0.464	correct	0back	Block4	0back/STIM_012.jpg
2613.26	0.543	incorrect	0back	Block4	0back/STIM_012.jpg
2616.627	0.516	correct	0back	Block4	0back/STIM_013.jpg
2620.242	0.688	correct	0back	Block4	0back/STIM_013.jpg
2623.548	0.61	correct	0back	Block4	0back/STIM_013.jpg
2626.503	0.586	correct	0back	Block4	0back/STIM_014.jpg
2630.419	0.506	correct	0back	Block4	0back/STIM_014.jpg
2634.442	0.501	correct	0back	Block4	0back/STIM_014.jpg
2637.514	0.766	correct	0back	Block4	0back/STIM_015.jpg
2641.362	0.756	correct	0back	Block4	0back/STIM_015.jpg
2644.773	0.725	correct	0back	Block4	0back/STIM_015.jpg
2648.379	0.608	correct	0back	Block4	0back/STIM_016.jpg
2652.256	0.664	correct	0back	Block4	0back/STIM_016.jpg
2655.146	0.668	correct	0back	Block4	0back/STIM_016.jpg
2658.917	0.566	incorrect	0back	Block4	0back/STIM_017.jpg
2662.686	0.562	incorrect	0back	Block4	0back/STIM_017.jpg
2665.648	0.471	correct	0back	Block4	0back/STIM_017.jpg
2668.491	0.754	correct	0back	Block4	0back/STIM_018.jpg
2671.923	0.605	correct	0back	Block4	0back/STIM_018.jpg
2676.063	0.637	correct	0back	Block4	0back/STIM_018.jpg
2679.082	0.831	correct	0back	Block4	0back/STIM_019.jpg
2683.334	0.584	correct	0back	Block4	0back/STIM_019.jpg
2687.816	0.504	correct	0back	Block4	0back/STIM_019.jpg
