onset	duration	response_time_ms	trial_type	learning_stage	stimulus	response_port
0.0	0.892	892.4	2back	Block1	2back/STIM_000.jpg	100
4.711	1.095	1094.7	2back	Block1	2back/STIM_000.jpg	99
8.859	0.558	558.1	2back	Block1	2back/STIM_000.jpg	99
12.304	1.147	1147.2	2back	Block1	2back/STIM_001.jpg	100
17.178	1.05	1050.4	2back	Block1	2back/STIM_001.jpg	99
21.005	0.996	996.4	2back	Block1	2back/STIM_001.jpg	99
24.783	0.742	742.3	2back	Block1	2back/STIM_002.jpg	99
29.199	0.595	594.9	2back	Block1	2back/STIM_002.jpg	99
33.342	1.062	1062.0	2back	Block1	2back/STIM_002.jpg	100
38.248	1.033	1033.4	2back	Block1	2back/STIM_003.jpg	99
42.115	0.793	792.7	2back	Block1	2back/STIM_003.jpg	99
45.934	0.657	657.2	2back	Block1	2back/STIM_003.jpg	99
49.381	0.864	864.3	2back	Block1	2back/STIM_004.jpg	99
53.522	1.121	1121.1	2back	Block1	2back/STIM_004.jpg	100
57.922	1.133	1133.4	2back	Block1	2back/STIM_004.jpg	100
61.509	0.973	973.3	2back	Block1	2back/STIM_005.jpg	99
66.051	0.802	802.3	2back	Block1	2back/STIM_005.jpg	100
69.135	1.098	1097.8	2back	Block1	2back/STIM_005.jpg	99
73.357	0.65	650.1	2back	Block1	2back/STIM_006.jpg	100
78.046	1.106	1105.7	2back	Block1	2back/STIM_006.jpg	99
83.082	0.996	996.2	2back	Block1	2back/STIM_006.jpg	100
86.157	1.023	1022.8	2back	Block1	2back/STIM_007.jpg	99
90.144	0.751	751.3	2back	Block1	2back/STIM_007.jpg	100
94.727	0.875	874.7	2back	Block1	2back/STIM_007.jpg	100
98.718	0.889	889.3	2back	Block1	2back/STIM_008.jpg	99
102.073	0.628	628.3	2back	Block1	2back/STIM_008.jpg	99
106.652	1.068	1067.7	2back	Block1	2back/STIM_008.jpg	100
111.753	1.084	1083.9	2back	Block1	2back/STIM_009.jpg	100
116.118	0.647	647.3	2back	Block1	2back/STIM_009.jpg	99
119.739	1.089	1088.9	2back	Block1	2back/STIM_009.jpg	100
122.972	0.904	903.5	2back	Block1	2back/STIM_010.jpg	99
126.438	1.136	1135.5	2back	Block1	2back/STIM_010.jpg	100
131.288	0.83	829.9	2back	Block1	2back/STIM_010.jpg	100
134.619	0.844	843.6	2back	Block1	2back/STIM_011.jpg	100
139.214	1.023	1023.1	2back	Block1	2back/STIM_011.jpg	99
142.506	0.894	894.1	2back	Block1	2back/STIM_011.jpg	99
145.633	1.211	1210.7	2back	Block1	2back/STIM_012.jpg	100
149.124	0.686	686.0	2back	Block1	2back/STIM_012.jpg	99
151.998	0.639	639.3	2back	Block1	2back/STIM_012.jpg	99
154.848	0.628	627.7	2back	Block1	2back/STIM_013.jpg	100
157.622	0.999	999.4	2back	Block1	2back/STIM_013.jpg	99
162.591	0.51	509.8	2back	Block1	2back/STIM_013.jpg	99
166.454	1.116	1115.7	2back	Block1	2back/STIM_014.jpg	99
171.032	1.207	1206.6	2back	Block1	2back/STIM_014.jpg	100
176.281	0.904	904.2	2back	Block1	2back/STIM_014.jpg	99
179.598	0.649	649.4	2back	Block1	2back/STIM_015.jpg	99
182.639	0.538	538.5	2back	Block1	2back/STIM_015.jpg	100
185.271	0.594	594.4	2back	Block1	2back/STIM_015.jpg	99
189.085	1.137	1136.8	2back	Block1	2back/STIM_016.jpg	100
192.904	1.137	1137.3	2back	Block1	2back/STIM_016.jpg	99
197.424	0.527	527.0	2back	Block1	2back/STIM_016.jpg	100
201.657	0.788	787.5	2back	Block1	2back/STIM_017.jpg	99
206.206	0.621	621.3	2back	Block1	2back/STIM_017.jpg	100
210.455	1.045	1045.4	2back	Block1	2back/STIM_017.jpg	99
213.729	0.819	818.8	2back	Block1	2back/STIM_018.jpg	100
217.038	0.739	738.9	2back	Block1	2back/STIM_018.jpg	99
221.736	1.007	1007.4	2back	Block1	2back/STIM_018.jpg	99
225.155	0.602	601.8	2back	Block1	2back/STIM_019.jpg	100
228.757	0.928	927.5	2back	Block1	2back/STIM_019.jpg	99
233.015	1.045	1044.9	2back	Block1	2back/STIM_019.jpg	100
237.678	0.986	986.0	2back	Block1	2back/STIM_020.jpg	100
241.416	0.867	867.0	2back	Block1	2back/STIM_020.jpg	99
244.624	0.698	697.9	2back	Block1	2back/STIM_020.jpg	99
248.014	1.171	1171.3	2back	Block1	2back/STIM_021.jpg	99
252.92	0.953	952.6	2back	Block1	2back/STIM_021.jpg	99
256.591	0.678	678.5	2back	Block1	2back/STIM_021.jpg	100
261.176	1.293	1293.3	2back	Block1	2back/STIM_022.jpg	99
265.533	0.996	996.0	2back	Block1	2back/STIM_022.jpg	99
270.425	0.891	890.9	2back	Block1	2back/STIM_022.jpg	100
273.681	0.671	670.8	2back	Block1	2back/STIM_023.jpg	100
276.885	0.777	776.8	2back	Block1	2back/STIM_023.jpg	99
279.685	0.861	861.3	2back	Block1	2back/STIM_023.jpg	99
283.821	0.614	613.8	2back	Block1	2back/STIM_024.jpg	100
288.353	0.762	761.7	2back	Block1	2back/STIM_024.jpg	99
291.741	0.88	880.0	2back	Block1	2back/STIM_024.jpg	99
296.642	1.098	1098.2	2back	Block1	2back/STIM_025.jpg	100
300.255	0.59	589.8	2back	Block1	2back/STIM_025.jpg	99
304.56	0.81	809.5	2back	Block1	2back/STIM_025.jpg	99
307.958	1.061	1060.7	2back	Block1	2back/STIM_026.jpg	99
312.443	0.979	979.2	2back	Block1	2back/STIM_026.jpg	99
316.108	1.023	1023.3	2back	Block1	2back/STIM_026.jpg	100
321.036	0.524	524.3	2back	Block1	2back/STIM_027.jpg	99
324.46	0.813	813.0	2back	Block1	2back/STIM_027.jpg	99
329.17	0.788	787.8	2back	Block1	2back/STIM_027.jpg	100
332.696	1.151	1151.0	2back	Block1	2back/STIM_028.jpg	99
337.345	0.971	971.3	2back	Block1	2back/STIM_028.jpg	99
340.79	0.815	814.8	2back	Block1	2back/STIM_028.jpg	100
344.537	0.762	761.7	2back	Block1	2back/STIM_029.jpg	99
349.273	0.956	955.9	2back	Block1	2back/STIM_029.jpg	100
352.492	0.759	759.2	2back	Block1	2back/STIM_029.jpg	100
356.582	0.66	659.9	2back	Block1	2back/STIM_030.jpg	99
360.701	1.186	1186.0	2back	Block1	2back/STIM_030.jpg	100
364.784	0.619	618.9	2back	Block1	2back/STIM_030.jpg	100
369.223	0.681	680.8	2back	Block1	2back/STIM_031.jpg	99
373.222	0.883	883.1	2back	Block1	2back/STIM_031.jpg	100
377.413	0.71	709.9	2back	Block1	2back/STIM_031.jpg	100
380.883	0.619	618.7	2back	Block1	2back/STIM_032.jpg	100
385.439	1.311	1310.8	2back	Block1	2back/STIM_032.jpg	99
389.327	0.983	982.7	2back	Block1	2back/STIM_032.jpg	99
392.473	0.929	929.4	2back	Block1	2back/STIM_033.jpg	99
396.751	0.704	704.5	2back	Block1	2back/STIM_033.jpg	100
399.833	1.019	1019.1	2back	Block1	2back/STIM_033.jpg	100
403.301	1.144	1143.5	2back	Block1	2back/STIM_034.jpg	100
406.923	0.612	612.2	2back	Block1	2back/STIM_034.jpg	99
410.801	0.512	511.9	2back	Block1	2back/STIM_034.jpg	99
414.799	0.704	703.5	2back	Block1	2back/STIM_035.jpg	99
419.342	1.136	1135.5	2back	Block1	2back/STIM_035.jpg	100
423.106	0.625	625.3	2back	Block1	2back/STIM_035.jpg	100
426.542	0.558	558.0	2back	Block1	2back/STIM_036.jpg	99
430.794	0.815	815.0	2back	Block1	2back/STIM_036.jpg	99
434.066	0.584	584.5	2back	Block1	2back/STIM_036.jpg	99
437.77	0.849	848.9	2back	Block1	2back/STIM_037.jpg	100
441.751	0.774	774.0	2back	Block1	2back/STIM_037.jpg	99
445.345	0.956	956.2	2back	Block1	2back/STIM_037.jpg	99
448.567	0.839	838.7	2back	Block1	2back/STIM_038.jpg	100
453.205	0.779	778.8	2back	Block1	2back/STIM_038.jpg	100
457.326	0.616	615.6	2back	Block1	2back/STIM_038.jpg	99
461.263	0.938	937.5	2back	Block1	2back/STIM_039.jpg	100
465.745	1.208	1207.6	2back	Block1	2back/STIM_039.jpg	99
470.317	0.461	460.9	2back	Block1	2back/STIM_039.jpg	100
474.67	0.4	400.5	0back	Block1	0back/STIM_000.jpg	100
478.044	0.629	628.6	0back	Block1	0back/STIM_000.jpg	100
482.055	0.675	675.3	0back	Block1	0back/STIM_000.jpg	100
485.649	0.593	593.3	0back	Block1	0back/STIM_001.jpg	100
488.447	0.517	516.8	0back	Block1	0back/STIM_001.jpg	100
491.739	0.568	568.3	0back	Block1	0back/STIM_001.jpg	100
494.655	0.739	739.4	0back	Block1	0back/STIM_002.jpg	99
498.342	0.391	390.7	0back	Block1	0back/STIM_002.jpg	100
502.295	0.353	353.4	0back	Block1	0back/STIM_002.jpg	100
504.981	0.46	459.5	0back	Block1	0back/STIM_003.jpg	100
508.152	0.358	358.3	0back	Block1	0back/STIM_003.jpg	99
510.922	0.621	620.6	0back	Block1	0back/STIM_003.jpg	100
514.953	0.5	499.6	0back	Block1	0back/STIM_004.jpg	100
518.735	0.358	357.9	0back	Block1	0back/STIM_004.jpg	99
522.798	0.389	389.3	0back	Block1	0back/STIM_004.jpg	99
525.508	0.491	491.4	0back	Block1	0back/STIM_005.jpg	100
529.431	0.653	652.6	0back	Block1	0back/STIM_005.jpg	100
533.958	0.428	428.3	0back	Block1	0back/STIM_005.jpg	100
536.479	0.54	540.3	0back	Block1	0back/STIM_006.jpg	100
539.176	0.428	427.5	0back	Block1	0back/STIM_006.jpg	99
542.231	0.678	677.5	0back	Block1	0back/STIM_006.jpg	99
546.768	0.727	727.0	0back	Block1	0back/STIM_007.jpg	100
551.31	0.389	389.3	0back	Block1	0back/STIM_007.jpg	99
554.808	0.683	682.6	0back	Block1	0back/STIM_007.jpg	99
557.642	0.77	770.5	0back	Block1	0back/STIM_008.jpg	100
561.535	0.57	570.1	0back	Block1	0back/STIM_008.jpg	99
565.133	0.397	396.6	0back	Block1	0back/STIM_008.jpg	100
568.74	0.625	625.1	0back	Block1	0back/STIM_009.jpg	99
573.029	0.383	383.2	0back	Block1	0back/STIM_009.jpg	99
576.948	0.453	452.9	0back	Block1	0back/STIM_009.jpg	100
580.737	0.607	606.9	0back	Block1	0back/STIM_010.jpg	99
585.072	0.641	640.6	0back	Block1	0back/STIM_010.jpg	99
588.173	0.463	463.4	0back	Block1	0back/STIM_010.jpg	100
591.808	0.404	404.2	0back	Block1	0back/STIM_011.jpg	99
594.57	0.535	535.4	0back	Block1	0back/STIM_011.jpg	100
599.039	0.385	385.4	0back	Block1	0back/STIM_011.jpg	99
602.127	0.606	605.6	0back	Block1	0back/STIM_012.jpg	100
606.563	0.69	690.5	0back	Block1	0back/STIM_012.jpg	99
610.378	0.686	686.3	0back	Block1	0back/STIM_012.jpg	100
613.991	0.474	473.6	0back	Block1	0back/STIM_013.jpg	99
616.669	0.602	602.5	0back	Block1	0back/STIM_013.jpg	99
619.667	0.648	648.0	0back	Block1	0back/STIM_013.jpg	99
623.507	0.591	590.9	0back	Block1	0back/STIM_014.jpg	99
627.321	0.431	430.9	0back	Block1	0back/STIM_014.jpg	99
631.28	0.514	513.5	0back	Block1	0back/STIM_014.jpg	99
634.108	0.433	433.2	0back	Block1	0back/STIM_015.jpg	99
636.723	0.399	399.1	0back	Block1	0back/STIM_015.jpg	99
639.257	0.484	484.2	0back	Block1	0back/STIM_015.jpg	99
643.179	0.677	677.0	0back	Block1	0back/STIM_016.jpg	100
646.796	0.626	625.8	0back	Block1	0back/STIM_016.jpg	99
650.165	0.601	601.1	0back	Block1	0back/STIM_016.jpg	99
653.294	0.644	643.5	0back	Block1	0back/STIM_017.jpg	99
657.95	0.68	680.1	0back	Block1	0back/STIM_017.jpg	100
661.057	0.437	437.4	0back	Block1	0back/STIM_017.jpg	100
665.599	0.458	457.9	0back	Block1	0back/STIM_018.jpg	99
669.475	0.615	615.2	0back	Block1	0back/STIM_018.jpg	99
672.379	0.658	658.0	0back	Block1	0back/STIM_018.jpg	100
675.002	0.561	561.4	0back	Block1	0back/STIM_019.jpg	99
679.28	0.689	688.9	0back	Block1	0back/STIM_019.jpg	100
682.062	0.734	734.0	0back	Block1	0back/STIM_019.jpg	99
685.046	0.704	703.9	2back	Block2	2back/STIM_000.jpg	100
688.197	0.672	672.4	2back	Block2	2back/STIM_000.jpg	99
691.081	0.598	597.5	2back	Block2	2back/STIM_000.jpg	100
694.396	1.016	1015.8	2back	Block2	2back/STIM_001.jpg	99
697.619	0.503	503.5	2back	Block2	2back/STIM_001.jpg	99
700.929	0.571	570.6	2back	Block2	2back/STIM_001.jpg	99
705.222	0.873	873.4	2back	Block2	2back/STIM_002.jpg	99
708.422	0.5	499.5	2back	Block2	2back/STIM_002.jpg	99
712.522	0.383	382.8	2back	Block2	2back/STIM_002.jpg	99
715.529	0.967	967.1	2back	Block2	2back/STIM_003.jpg	100
719.035	0.957	956.7	2back	Block2	2back/STIM_003.jpg	100
723.26	0.687	687.4	2back	Block2	2back/STIM_003.jpg	99
726.343	0.575	575.4	2back	Block2	2back/STIM_004.jpg	100
730.065	0.79	789.9	2back	Block2	2back/STIM_004.jpg	100
733.477	0.563	563.0	2back	Block2	2back/STIM_004.jpg	100
737.365	0.77	769.8	2back	Block2	2back/STIM_005.jpg	99
742.243	0.624	623.5	2back	Block2	2back/STIM_005.jpg	99
746.726	1.038	1038.5	2back	Block2	2back/STIM_005.jpg	100
750.722	0.695	695.3	2back	Block2	2back/STIM_006.jpg	99
754.401	1.076	1075.5	2back	Block2	2back/STIM_006.jpg	100
758.771	0.695	695.4	2back	Block2	2back/STIM_006.jpg	100
763.353	0.847	846.6	2back	Block2	2back/STIM_007.jpg	100
766.586	0.716	716.3	2back	Block2	2back/STIM_007.jpg	99
771.241	0.662	661.6	2back	Block2	2back/STIM_007.jpg	100
774.079	0.592	591.9	2back	Block2	2back/STIM_008.jpg	100
778.024	0.958	957.8	2back	Block2	2back/STIM_008.jpg	99
781.046	0.931	930.8	2back	Block2	2back/STIM_008.jpg	99
784.262	0.706	705.5	2back	Block2	2back/STIM_009.jpg	99
787.714	0.534	533.7	2back	Block2	2back/STIM_009.jpg	99
792.085	0.446	445.8	2back	Block2	2back/STIM_009.jpg	99
795.776	0.614	613.5	2back	Block2	2back/STIM_010.jpg	100
800.204	0.76	760.0	2back	Block2	2back/STIM_010.jpg	99
803.221	0.891	890.7	2back	Block2	2back/STIM_010.jpg	100
808.089	0.992	992.3	2back	Block2	2back/STIM_011.jpg	99
812.482	0.782	782.4	2back	Block2	2back/STIM_011.jpg	100
817.115	0.779	778.9	2back	Block2	2back/STIM_011.jpg	100
820.725	0.488	488.2	2back	Block2	2back/STIM_012.jpg	99
824.684	0.717	717.1	2back	Block2	2back/STIM_012.jpg	99
828.089	0.479	479.4	2back	Block2	2back/STIM_012.jpg	99
831.794	1.067	1067.1	2back	Block2	2back/STIM_013.jpg	100
836.563	1.028	1028.5	2back	Block2	2back/STIM_013.jpg	100
840.972	0.596	595.9	2back	Block2	2back/STIM_013.jpg	100
844.659	0.511	511.4	2back	Block2	2back/STIM_014.jpg	100
847.701	0.907	906.7	2back	Block2	2back/STIM_014.jpg	99
850.76	0.649	649.1	2back	Block2	2back/STIM_014.jpg	99
853.897	0.825	824.8	2back	Block2	2back/STIM_015.jpg	100
856.827	0.449	449.4	2back	Block2	2back/STIM_015.jpg	99
860.085	0.612	612.1	2back	Block2	2back/STIM_015.jpg	99
863.107	0.832	832.2	2back	Block2	2back/STIM_016.jpg	99
867.078	0.889	888.8	2back	Block2	2back/STIM_016.jpg	99
871.566	0.645	644.6	2back	Block2	2back/STIM_016.jpg	100
875.572	1.009	1009.4	2back	Block2	2back/STIM_017.jpg	100
880.515	1.028	1028.3	2back	Block2	2back/STIM_017.jpg	100
884.806	0.48	480.0	2back	Block2	2back/STIM_017.jpg	100
888.446	0.98	979.8	2back	Block2	2back/STIM_018.jpg	100
892.003	0.685	685.0	2back	Block2	2back/STIM_018.jpg	100
895.871	0.778	778.1	2back	Block2	2back/STIM_018.jpg	100
899.12	0.687	686.9	2back	Block2	2back/STIM_019.jpg	100
901.973	0.62	620.3	2back	Block2	2back/STIM_019.jpg	99
905.927	0.721	721.2	2back	Block2	2back/STIM_019.jpg	100
909.112	0.978	977.7	2back	Block2	2back/STIM_020.jpg	99
913.463	0.748	747.6	2back	Block2	2back/STIM_020.jpg	99
918.117	0.897	896.9	2back	Block2	2back/STIM_020.jpg	100
921.876	0.692	691.8	2back	Block2	2back/STIM_021.jpg	99
925.598	0.424	424.4	2back	Block2	2back/STIM_021.jpg	99
930.028	0.952	952.5	2back	Block2	2back/STIM_021.jpg	99
934.699	0.688	687.9	2back	Block2	2back/STIM_022.jpg	99
938.717	0.656	656.3	2back	Block2	2back/STIM_022.jpg	99
942.164	0.964	964.4	2back	Block2	2back/STIM_022.jpg	99
945.845	1.051	1051.0	2back	Block2	2back/STIM_023.jpg	100
950.791	0.622	622.5	2back	Block2	2back/STIM_023.jpg	100
955.444	0.695	694.8	2back	Block2	2back/STIM_023.jpg	99
959.68	1.044	1044.5	2back	Block2	2back/STIM_024.jpg	99
963.326	0.597	596.7	2back	Block2	2back/STIM_024.jpg	99
967.15	0.708	708.3	2back	Block2	2back/STIM_024.jpg	100
971.859	0.838	837.9	2back	Block2	2back/STIM_025.jpg	100
974.738	0.828	827.8	2back	Block2	2back/STIM_025.jpg	99
978.628	0.712	711.6	2back	Block2	2back/STIM_025.jpg	100
981.758	0.801	800.7	2back	Block2	2back/STIM_026.jpg	99
986.024	0.994	994.5	2back	Block2	2back/STIM_026.jpg	99
990.507	0.867	867.3	2back	Block2	2back/STIM_026.jpg	99
993.896	1.061	1061.2	2back	Block2	2back/STIM_027.jpg	100
997.248	1.0	999.5	2back	Block2	2back/STIM_027.jpg	100
1002.146	0.516	515.9	2back	Block2	2back/STIM_027.jpg	100
1006.473	0.435	435.2	2back	Block2	2back/STIM_028.jpg	100
1009.867	0.446	445.9	2back	Block2	2back/STIM_028.jpg	100
1013.126	0.912	912.0	2back	Block2	2back/STIM_028.jpg	99
1017.349	1.039	1039.3	2back	Block2	2back/STIM_029.jpg	99
1021.371	0.786	786.3	2back	Block2	2back/STIM_029.jpg	99
1024.624	0.995	994.6	2back	Block2	2back/STIM_029.jpg	99
1028.086	0.89	890.0	2back	Block2	2back/STIM_030.jpg	100
1031.869	1.026	1026.4	2back	Block2	2back/STIM_030.jpg	100
1036.466	0.538	538.3	2back	Block2	2back/STIM_030.jpg	100
1039.464	0.631	631.0	2back	Block2	2back/STIM_031.jpg	100
1042.607	0.959	959.0	2back	Block2	2back/STIM_031.jpg	100
1046.862	0.759	759.0	2back	Block2	2back/STIM_031.jpg	100
1050.419	1.019	1019.2	2back	Block2	2back/STIM_032.jpg	99
1054.834	0.924	924.5	2back	Block2	2back/STIM_032.jpg	100
1058.085	0.784	783.9	2back	Block2	2back/STIM_032.jpg	99
1062.055	0.618	618.1	2back	Block2	2back/STIM_033.jpg	99
1066.604	0.786	786.5	2back	Block2	2back/STIM_033.jpg	100
1069.988	0.903	903.4	2back	Block2	2back/STIM_033.jpg	100
1074.221	0.59	590.4	2back	Block2	2back/STIM_034.jpg	100
1078.555	0.965	965.1	2back	Block2	2back/STIM_034.jpg	100
1082.725	0.491	491.2	2back	Block2	2back/STIM_034.jpg	99
1085.87	0.449	449.2	2back	Block2	2back/STIM_035.jpg	100
1089.566	0.867	866.6	2back	Block2	2back/STIM_035.jpg	100
1094.099	0.811	810.7	2back	Block2	2back/STIM_035.jpg	100
1098.182	0.806	805.7	2back	Block2	2back/STIM_036.jpg	99
1101.881	1.008	1008.5	2back	Block2	2back/STIM_036.jpg	99
1105.543	0.754	753.7	2back	Block2	2back/STIM_036.jpg	100
1109.917	0.735	735.2	2back	Block2	2back/STIM_037.jpg	99
1114.113	0.465	464.8	2back	Block2	2back/STIM_037.jpg	99
1117.494	0.468	467.6	2back	Block2	2back/STIM_037.jpg	99
1122.017	0.453	453.2	2back	Block2	2back/STIM_038.jpg	99
1126.043	0.872	872.4	2back	Block2	2back/STIM_038.jpg	100
1129.104	0.45	449.6	2back	Block2	2back/STIM_038.jpg	100
1132.314	0.968	968.1	2back	Block2	2back/STIM_039.jpg	99
1137.223	0.638	637.8	2back	Block2	2back/STIM_039.jpg	99
1140.818	0.564	563.9	2back	Block2	2back/STIM_039.jpg	100
1143.546	0.414	413.9	0back	Block2	0back/STIM_000.jpg	100
1146.188	0.578	578.2	0back	Block2	0back/STIM_000.jpg	99
1150.184	0.684	684.5	0back	Block2	0back/STIM_000.jpg	100
1153.077	0.369	368.6	0back	Block2	0back/STIM_001.jpg	100
1156.079	0.523	523.2	0back	Block2	0back/STIM_001.jpg	99
1158.96	0.718	718.4	0back	Block2	0back/STIM_001.jpg	99
1162.391	0.503	503.1	0back	Block2	0back/STIM_002.jpg	100
1166.147	0.517	516.6	0back	Block2	0back/STIM_002.jpg	100
1169.192	0.602	601.6	0back	Block2	0back/STIM_002.jpg	99
1172.48	0.621	621.0	0back	Block2	0back/STIM_003.jpg	99
1175.465	0.627	627.3	0back	Block2	0back/STIM_003.jpg	100
1178.896	0.488	487.8	0back	Block2	0back/STIM_003.jpg	99
1182.118	0.685	684.9	0back	Block2	0back/STIM_004.jpg	100
1186.77	0.412	411.9	0back	Block2	0back/STIM_004.jpg	99
1189.644	0.422	421.6	0back	Block2	0back/STIM_004.jpg	100
1193.156	0.635	634.6	0back	Block2	0back/STIM_005.jpg	100
1197.291	0.521	520.8	0back	Block2	0back/STIM_005.jpg	100
1201.776	0.407	406.8	0back	Block2	0back/STIM_005.jpg	100
1204.575	0.446	446.3	0back	Block2	0back/STIM_006.jpg	99
1207.193	0.401	400.8	0back	Block2	0back/STIM_006.jpg	99
1210.776	0.601	601.1	0back	Block2	0back/STIM_006.jpg	99
1213.549	0.71	710.1	0back	Block2	0back/STIM_007.jpg	100
1217.588	0.577	577.2	0back	Block2	0back/STIM_007.jpg	100
1221.734	0.677	676.7	0back	Block2	0back/STIM_007.jpg	100
1226.371	0.68	679.6	0back	Block2	0back/STIM_008.jpg	99
1229.783	0.589	588.7	0back	Block2	0back/STIM_008.jpg	99
1233.23	0.493	493.2	0back	Block2	0back/STIM_008.jpg	100
1236.774	0.403	402.9	0back	Block2	0back/STIM_009.jpg	99
1240.312	0.349	349.4	0back	Block2	0back/STIM_009.jpg	100
1244.452	0.494	493.8	0back	Block2	0back/STIM_009.jpg	99
1248.414	0.574	573.5	0back	Block2	0back/STIM_010.jpg	100
1252.917	0.672	672.5	0back	Block2	0back/STIM_010.jpg	99
1256.272	0.65	649.7	0back	Block2	0back/STIM_010.jpg	99
1260.3	0.525	524.7	0back	Block2	0back/STIM_011.jpg	100
1264.708	0.658	657.8	0back	Block2	0back/STIM_011.jpg	100
1269.44	0.392	392.4	0back	Block2	0back/STIM_011.jpg	100
1273.04	0.454	453.8	0back	Block2	0back/STIM_012.jpg	99
1276.448	0.639	638.7	0back	Block2	0back/STIM_012.jpg	100
1280.486	0.432	432.0	0back	Block2	0back/STIM_012.jpg	100
1284.777	0.55	550.4	0back	Block2	0back/STIM_013.jpg	100
1289.177	0.587	587.2	0back	Block2	0back/STIM_013.jpg	100
1292.682	0.413	412.9	0back	Block2	0back/STIM_013.jpg	99
1295.46	0.786	786.5	0back	Block2	0back/STIM_014.jpg	100
1298.947	0.488	488.3	0back	Block2	0back/STIM_014.jpg	100
1301.402	0.558	558.0	0back	Block2	0back/STIM_014.jpg	99
1304.094	0.537	537.1	0back	Block2	0back/STIM_015.jpg	99
1306.88	0.368	367.6	0back	Block2	0back/STIM_015.jpg	99
1310.127	0.477	477.0	0back	Block2	0back/STIM_015.jpg	99
1313.412	0.473	472.6	0back	Block2	0back/STIM_016.jpg	99
1317.599	0.696	695.8	0back	Block2	0back/STIM_016.jpg	100
1321.029	0.607	607.1	0back	Block2	0back/STIM_016.jpg	100
1323.814	0.761	761.0	0back	Block2	0back/STIM_017.jpg	100
1327.175	0.544	544.5	0back	Block2	0back/STIM_017.jpg	99
1331.467	0.581	580.7	0back	Block2	0back/STIM_017.jpg	99
1335.934	0.409	408.8	0back	Block2	0back/STIM_018.jpg	100
1339.652	0.744	743.7	0back	Block2	0back/STIM_018.jpg	100
1342.926	0.372	371.8	0back	Block2	0back/STIM_018.jpg	99
1346.438	0.495	495.1	0back	Block2	0back/STIM_019.jpg	100
1350.454	0.759	759.3	0back	Block2	0back/STIM_019.jpg	99
1354.509	0.333	333.1	0back	Block2	0back/STIM_019.jpg	99
1357.685	0.328	327.8	2back	Block3	2back/STIM_000.jpg	99
1361.536	0.638	638.5	2back	Block3	2back/STIM_000.jpg	100
1365.706	0.711	711.0	2back	Block3	2back/STIM_000.jpg	100
1369.316	0.934	933.5	2back	Block3	2back/STIM_001.jpg	100
1373.623	0.801	800.8	2back	Block3	2back/STIM_001.jpg	99
1377.633	0.743	743.0	2back	Block3	2back/STIM_001.jpg	100
1381.407	0.747	747.3	2back	Block3	2back/STIM_002.jpg	99
1385.66	0.51	510.3	2back	Block3	2back/STIM_002.jpg	100
1389.254	0.888	887.7	2back	Block3	2back/STIM_002.jpg	99
1393.683	0.803	802.7	2back	Block3	2back/STIM_003.jpg	100
1397.566	0.723	723.4	2back	Block3	2back/STIM_003.jpg	99
1400.752	0.535	535.1	2back	Block3	2back/STIM_003.jpg	99
1404.764	0.622	622.2	2back	Block3	2back/STIM_004.jpg	100
1408.138	0.869	869.0	2back	Block3	2back/STIM_004.jpg	100
1412.994	0.609	609.0	2back	Block3	2back/STIM_004.jpg	99
1417.591	0.642	642.4	2back	Block3	2back/STIM_005.jpg	100
1420.798	0.605	605.4	2back	Block3	2back/STIM_005.jpg	100
1424.793	0.898	898.5	2back	Block3	2back/STIM_005.jpg	100
1428.014	0.787	786.7	2back	Block3	2back/STIM_006.jpg	100
1432.402	0.642	642.5	2back	Block3	2back/STIM_006.jpg	99
1436.783	0.76	760.5	2back	Block3	2back/STIM_006.jpg	100
1441.386	0.524	523.5	2back	Block3	2back/STIM_007.jpg	100
1445.085	0.354	353.5	2back	Block3	2back/STIM_007.jpg	99
1449.142	0.497	496.6	2back	Block3	2back/STIM_007.jpg	100
1453.609	0.898	897.6	2back	Block3	2back/STIM_008.jpg	100
1457.645	0.477	477.2	2back	Block3	2back/STIM_008.jpg	100
1461.445	0.519	519.3	2back	Block3	2back/STIM_008.jpg	99
1465.5	0.641	641.0	2back	Block3	2back/STIM_009.jpg	99
1468.62	0.764	764.4	2back	Block3	2back/STIM_009.jpg	100
1471.52	0.534	534.2	2back	Block3	2back/STIM_009.jpg	100
1475.531	0.728	727.5	2back	Block3	2back/STIM_010.jpg	99
1480.161	0.776	776.2	2back	Block3	2back/STIM_010.jpg	99
1483.455	0.432	431.6	2back	Block3	2back/STIM_010.jpg	99
1486.387	0.72	720.0	2back	Block3	2back/STIM_011.jpg	99
1489.79	0.543	543.2	2back	Block3	2back/STIM_011.jpg	100
1493.563	0.439	438.9	2back	Block3	2back/STIM_011.jpg	100
1496.33	0.57	569.8	2back	Block3	2back/STIM_012.jpg	100
1500.889	0.594	594.0	2back	Block3	2back/STIM_012.jpg	99
1503.936	0.548	548.2	2back	Block3	2back/STIM_012.jpg	99
1507.416	0.951	951.4	2back	Block3	2back/STIM_013.jpg	100
1510.594	0.615	614.7	2back	Block3	2back/STIM_013.jpg	100
1515.034	0.819	818.7	2back	Block3	2back/STIM_013.jpg	99
1518.314	0.757	757.2	2back	Block3	2back/STIM_014.jpg	100
1521.775	0.792	791.5	2back	Block3	2back/STIM_014.jpg	99
1525.714	0.412	411.7	2back	Block3	2back/STIM_014.jpg	99
1528.573	0.574	574.3	2back	Block3	2back/STIM_015.jpg	99
1531.587	0.563	563.3	2back	Block3	2back/STIM_015.jpg	99
1535.458	0.609	608.7	2back	Block3	2back/STIM_015.jpg	100
1539.533	0.662	662.4	2back	Block3	2back/STIM_016.jpg	99
1543.427	0.598	597.9	2back	Block3	2back/STIM_016.jpg	100
1547.159	0.686	686.1	2back	Block3	2back/STIM_016.jpg	99
1551.32	0.657	656.9	2back	Block3	2back/STIM_017.jpg	99
1555.536	0.437	436.9	2back	Block3	2back/STIM_017.jpg	99
1558.387	0.723	723.0	2back	Block3	2back/STIM_017.jpg	100
1562.003	0.383	382.9	2back	Block3	2back/STIM_018.jpg	99
1565.791	0.9	899.7	2back	Block3	2back/STIM_018.jpg	99
1569.179	0.999	999.4	2back	Block3	2back/STIM_018.jpg	100
1573.354	0.851	851.1	2back	Block3	2back/STIM_019.jpg	100
1577.389	0.366	366.4	2back	Block3	2back/STIM_019.jpg	99
1581.595	0.389	389.4	2back	Block3	2back/STIM_019.jpg	100
1584.145	0.697	697.3	2back	Block3	2back/STIM_020.jpg	100
1587.238	0.921	920.6	2back	Block3	2back/STIM_020.jpg	99
1591.383	0.386	385.9	2back	Block3	2back/STIM_020.jpg	100
1593.932	0.941	941.0	2back	Block3	2back/STIM_021.jpg	99
1598.165	0.861	860.9	2back	Block3	2back/STIM_021.jpg	99
1602.433	0.836	835.6	2back	Block3	2back/STIM_021.jpg	99
1605.791	0.721	721.4	2back	Block3	2back/STIM_022.jpg	99
1609.794	0.815	815.0	2back	Block3	2back/STIM_022.jpg	100
1613.213	0.897	896.8	2back	Block3	2back/STIM_022.jpg	99
1617.727	0.454	453.7	2back	Block3	2back/STIM_023.jpg	100
1620.882	0.894	893.8	2back	Block3	2back/STIM_023.jpg	100
1625.436	0.687	687.2	2back	Block3	2back/STIM_023.jpg	99
1629.16	0.786	786.5	2back	Block3	2back/STIM_024.jpg	100
1633.488	0.94	940.0	2back	Block3	2back/STIM_024.jpg	100
1638.154	0.423	423.4	2back	Block3	2back/STIM_024.jpg	99
1641.515	0.798	797.6	2back	Block3	2back/STIM_025.jpg	99
1644.609	0.916	915.8	2back	Block3	2back/STIM_025.jpg	100
1649.465	0.533	533.2	2back	Block3	2back/STIM_025.jpg	99
1652.18	0.401	400.9	2back	Block3	2back/STIM_026.jpg	100
1655.09	0.876	875.9	2back	Block3	2back/STIM_026.jpg	99
1658.461	0.445	445.4	2back	Block3	2back/STIM_026.jpg	99
1662.307	0.42	419.9	2back	Block3	2back/STIM_027.jpg	100
1666.587	0.43	430.2	2back	Block3	2back/STIM_027.jpg	100
1671.012	0.481	481.4	2back	Block3	2back/STIM_027.jpg	99
1674.815	0.511	511.5	2back	Block3	2back/STIM_028.jpg	99
1678.404	0.791	791.1	2back	Block3	2back/STIM_028.jpg	100
1682.77	0.613	613.1	2back	Block3	2back/STIM_028.jpg	99
1685.986	0.712	712.3	2back	Block3	2back/STIM_029.jpg	99
1690.545	0.807	806.9	2back	Block3	2back/STIM_029.jpg	100
1695.09	0.653	652.6	2back	Block3	2back/STIM_029.jpg	100
1698.33	0.909	909.0	2back	Block3	2back/STIM_030.jpg	100
1701.932	0.7	700.3	2back	Block3	2back/STIM_030.jpg	100
1704.783	0.84	840.2	2back	Block3	2back/STIM_030.jpg	100
1708.538	0.693	693.4	2back	Block3	2back/STIM_031.jpg	99
1713.071	0.47	470.3	2back	Block3	2back/STIM_031.jpg	99
1716.251	0.561	561.1	2back	Block3	2back/STIM_031.jpg	100
1720.87	0.617	616.7	2back	Block3	2back/STIM_032.jpg	100
1724.258	0.416	416.3	2back	Block3	2back/STIM_032.jpg	99
1727.62	0.566	565.5	2back	Block3	2back/STIM_032.jpg	100
1730.777	0.457	457.1	2back	Block3	2back/STIM_033.jpg	100
1733.981	0.398	398.4	2back	Block3	2back/STIM_033.jpg	100
1736.746	0.543	542.6	2back	Block3	2back/STIM_033.jpg	100
1740.838	0.782	781.5	2back	Block3	2back/STIM_034.jpg	100
1744.879	0.595	594.9	2back	Block3	2back/STIM_034.jpg	100
1747.912	0.429	428.7	2back	Block3	2back/STIM_034.jpg	99
1750.544	0.612	611.7	2back	Block3	2back/STIM_035.jpg	100
1754.864	0.731	731.0	2back	Block3	2back/STIM_035.jpg	100
1757.986	0.766	766.0	2back	Block3	2back/STIM_035.jpg	100
1761.241	0.671	671.1	2back	Block3	2back/STIM_036.jpg	99
1764.658	0.422	422.1	2back	Block3	2back/STIM_036.jpg	100
1768.282	0.569	568.9	2back	Block3	2back/STIM_036.jpg	100
1772.457	0.542	541.6	2back	Block3	2back/STIM_037.jpg	99
1776.342	0.565	565.4	2back	Block3	2back/STIM_037.jpg	99
1779.869	0.453	453.1	2back	Block3	2back/STIM_037.jpg	100
1783.806	0.632	631.6	2back	Block3	2back/STIM_038.jpg	99
1787.847	0.513	513.3	2back	Block3	2back/STIM_038.jpg	99
1791.408	0.69	689.9	2back	Block3	2back/STIM_038.jpg	100
1795.495	0.776	775.6	2back	Block3	2back/STIM_039.jpg	100
1798.441	0.796	795.9	2back	Block3	2back/STIM_039.jpg	100
1801.9	0.668	668.2	2back	Block3	2back/STIM_039.jpg	99
1806.308	0.471	470.7	0back	Block3	0back/STIM_000.jpg	99
1809.603	0.65	650.3	0back	Block3	0back/STIM_000.jpg	99
1812.716	0.597	596.7	0back	Block3	0back/STIM_000.jpg	100
1816.851	0.481	481.3	0back	Block3	0back/STIM_001.jpg	100
1820.01	0.648	647.8	0back	Block3	0back/STIM_001.jpg	100
1823.22	0.648	648.2	0back	Block3	0back/STIM_001.jpg	100
1827.675	0.436	435.9	0back	Block3	0back/STIM_002.jpg	99
1831.94	0.638	638.2	0back	Block3	0back/STIM_002.jpg	99
1836.292	0.648	648.3	0back	Block3	0back/STIM_002.jpg	99
1840.648	0.357	357.3	0back	Block3	0back/STIM_003.jpg	99
1843.648	0.493	493.2	0back	Block3	0back/STIM_003.jpg	99
1846.279	0.68	680.2	0back	Block3	0back/STIM_003.jpg	99
1849.489	0.55	549.5	0back	Block3	0back/STIM_004.jpg	99
1853.324	0.469	469.1	0back	Block3	0back/STIM_004.jpg	100
1856.396	0.416	416.0	0back	Block3	0back/STIM_004.jpg	100
1860.053	0.4	399.7	0back	Block3	0back/STIM_005.jpg	100
1862.914	0.632	632.5	0back	Block3	0back/STIM_005.jpg	100
1866.881	0.711	711.4	0back	Block3	0back/STIM_005.jpg	100
1870.375	0.764	763.9	0back	Block3	0back/STIM_006.jpg	100
1873.721	0.465	465.0	0back	Block3	0back/STIM_006.jpg	100
1877.272	0.484	484.4	0back	Block3	0back/STIM_006.jpg	100
1881.153	0.552	552.0	0back	Block3	0back/STIM_007.jpg	99
1884.867	0.532	531.7	0back	Block3	0back/STIM_007.jpg	100
1887.757	0.6	599.9	0back	Block3	0back/STIM_007.jpg	99
1891.777	0.672	671.9	0back	Block3	0back/STIM_008.jpg	99
1895.719	0.408	408.0	0back	Block3	0back/STIM_008.jpg	99
1898.527	0.437	436.7	0back	Block3	0back/STIM_008.jpg	99
1902.4	0.523	523.1	0back	Block3	0back/STIM_009.jpg	100
1906.566	0.734	734.5	0back	Block3	0back/STIM_009.jpg	100
1909.914	0.567	566.7	0back	Block3	0back/STIM_009.jpg	99
1913.169	0.404	404.3	0back	Block3	0back/STIM_010.jpg	99
1915.871	0.67	669.7	0back	Block3	0back/STIM_010.jpg	100
1919.138	0.61	609.6	0back	Block3	0back/STIM_010.jpg	100
1921.876	0.691	690.8	0back	Block3	0back/STIM_011.jpg	99
1924.693	0.446	445.8	0back	Block3	0back/STIM_011.jpg	99
1927.846	0.47	470.1	0back	Block3	0back/STIM_011.jpg	99
1931.477	0.735	735.4	0back	Block3	0back/STIM_012.jpg	99
1935.855	0.616	616.3	0back	Block3	0back/STIM_012.jpg	100
1938.667	0.624	623.9	0back	Block3	0back/STIM_012.jpg	100
1942.454	0.327	327.3	0back	Block3	0back/STIM_013.jpg	100
1946.698	0.393	393.3	0back	Block3	0back/STIM_013.jpg	100
1950.781	0.517	517.2	0back	Block3	0back/STIM_013.jpg	100
1954.318	0.418	418.2	0back	Block3	0back/STIM_014.jpg	100
1957.189	0.553	552.7	0back	Block3	0back/STIM_014.jpg	100
1961.778	0.548	547.5	0back	Block3	0back/STIM_014.jpg	100
1965.465	0.608	607.9	0back	Block3	0back/STIM_015.jpg	99
1968.158	0.493	492.6	0back	Block3	0back/STIM_015.jpg	100
1970.817	0.667	667.2	0back	Block3	0back/STIM_015.jpg	100
1974.936	0.813	813.1	0back	Block3	0back/STIM_016.jpg	99
1978.261	0.676	676.4	0back	Block3	0back/STIM_016.jpg	100
1982.887	0.562	561.6	0back	Block3	0back/STIM_016.jpg	100
1987.127	0.698	698.3	0back	Block3	0back/STIM_017.jpg	100
1991.126	0.672	672.5	0back	Block3	0back/STIM_017.jpg	100
1994.739	0.654	654.3	0back	Block3	0back/STIM_017.jpg	99
1997.658	0.572	572.0	0back	Block3	0back/STIM_018.jpg	99
2001.52	0.385	384.6	0back	Block3	0back/STIM_018.jpg	99
2004.618	0.563	563.3	0back	Block3	0back/STIM_018.jpg	100
2008.89	0.717	717.1	0back	Block3	0back/STIM_019.jpg	100
2013.527	0.8	800.3	0back	Block3	0back/STIM_019.jpg	99
2017.43	0.496	495.8	0back	Block3	0back/STIM_019.jpg	99
2020.412	0.756	756.5	2back	Block4	2back/STIM_000.jpg	100
2024.302	0.774	773.6	2back	Block4	2back/STIM_000.jpg	99
2027.178	0.604	603.6	2back	Block4	2back/STIM_000.jpg	99
2030.413	0.585	584.6	2back	Block4	2back/STIM_001.jpg	99
2035.025	0.541	540.9	2back	Block4	2back/STIM_001.jpg	100
2038.867	0.664	664.4	2back	Block4	2back/STIM_001.jpg	99
2041.811	0.451	451.4	2back	Block4	2back/STIM_002.jpg	100
2044.486	0.683	683.2	2back	Block4	2back/STIM_002.jpg	100
2048.447	0.846	846.2	2back	Block4	2back/STIM_002.jpg	99
2053.087	0.45	449.6	2back	Block4	2back/STIM_003.jpg	100
2056.14	0.465	465.2	2back	Block4	2back/STIM_003.jpg	100
2059.592	0.937	937.4	2back	Block4	2back/STIM_003.jpg	100
2063.471	0.386	385.6	2back	Block4	2back/STIM_004.jpg	99
2067.156	0.789	789.0	2back	Block4	2back/STIM_004.jpg	99
2071.3	0.739	739.2	2back	Block4	2back/STIM_004.jpg	100
2075.696	0.509	509.1	2back	Block4	2back/STIM_005.jpg	100
2079.168	0.641	641.3	2back	Block4	2back/STIM_005.jpg	100
2081.981	0.825	825.4	2back	Block4	2back/STIM_005.jpg	99
2086.25	0.617	617.3	2back	Block4	2back/STIM_006.jpg	99
2089.635	0.689	688.8	2back	Block4	2back/STIM_006.jpg	99
2093.059	0.618	617.9	2back	Block4	2back/STIM_006.jpg	99
2096.245	0.753	753.4	2back	Block4	2back/STIM_007.jpg	100
2099.942	0.885	884.6	2back	Block4	2back/STIM_007.jpg	100
2104.434	0.831	830.7	2back	Block4	2back/STIM_007.jpg	99
2108.851	0.691	690.9	2back	Block4	2back/STIM_008.jpg	100
2112.14	0.817	817.2	2back	Block4	2back/STIM_008.jpg	100
2116.181	0.372	371.5	2back	Block4	2back/STIM_008.jpg	99
2119.51	0.336	335.5	2back	Block4	2back/STIM_009.jpg	99
2123.487	0.491	491.1	2back	Block4	2back/STIM_009.jpg	99
2126.881	0.545	545.4	2back	Block4	2back/STIM_009.jpg	100
2130.895	0.446	445.5	2back	Block4	2back/STIM_010.jpg	100
2134.056	0.695	694.9	2back	Block4	2back/STIM_010.jpg	99
2136.897	0.711	711.2	2back	Block4	2back/STIM_010.jpg	100
2140.362	0.829	829.1	2back	Block4	2back/STIM_011.jpg	99
2143.904	0.426	426.5	2back	Block4	2back/STIM_011.jpg	100
2146.516	0.674	674.1	2back	Block4	2back/STIM_011.jpg	100
2151.07	0.657	657.0	2back	Block4	2back/STIM_012.jpg	100
2154.981	0.744	743.6	2back	Block4	2back/STIM_012.jpg	99
2157.823	0.404	404.0	2back	Block4	2back/STIM_012.jpg	99
2162.22	0.598	597.5	2back	Block4	2back/STIM_013.jpg	100
2165.98	0.618	618.3	2back	Block4	2back/STIM_013.jpg	99
2170.341	0.846	846.1	2back	Block4	2back/STIM_013.jpg	100
2174.966	0.538	537.5	2back	Block4	2back/STIM_014.jpg	100
2178.635	0.323	323.2	2back	Block4	2back/STIM_014.jpg	100
2182.05	0.53	529.5	2back	Block4	2back/STIM_014.jpg	100
2185.491	0.553	553.0	2back	Block4	2back/STIM_015.jpg	99
2189.42	0.571	571.1	2back	Block4	2back/STIM_015.jpg	99
2193.38	0.624	624.4	2back	Block4	2back/STIM_015.jpg	100
2196.508	0.37	369.8	2back	Block4	2back/STIM_016.jpg	99
2200.825	0.642	641.8	2back	Block4	2back/STIM_016.jpg	100
2203.643	0.767	766.6	2back	Block4	2back/STIM_016.jpg	100
2208.292	0.554	554.3	2back	Block4	2back/STIM_017.jpg	100
2212.019	0.739	738.8	2back	Block4	2back/STIM_017.jpg	100
2215.382	0.468	467.5	2back	Block4	2back/STIM_017.jpg	100
2219.119	0.84	839.5	2back	Block4	2back/STIM_018.jpg	99
2223.034	0.708	707.8	2back	Block4	2back/STIM_018.jpg	100
2226.204	0.453	453.4	2back	Block4	2back/STIM_018.jpg	100
2229.753	0.409	409.2	2back	Block4	2back/STIM_019.jpg	99
2233.242	0.568	568.0	2back	Block4	2back/STIM_019.jpg	100
2237.199	0.582	581.9	2back	Block4	2back/STIM_019.jpg	99
2241.086	0.552	551.5	2back	Block4	2back/STIM_020.jpg	100
2245.105	0.7	700.0	2back	Block4	2back/STIM_020.jpg	99
2249.505	0.914	913.5	2back	Block4	2back/STIM_020.jpg	99
2254.106	0.482	481.9	2back	Block4	2back/STIM_021.jpg	100
2257.329	0.912	912.0	2back	Block4	2back/STIM_021.jpg	99
2262.056	0.594	594.5	2back	Block4	2back/STIM_021.jpg	100
2266.201	0.904	903.7	2back	Block4	2back/STIM_022.jpg	99
2270.994	0.616	615.5	2back	Block4	2back/STIM_022.jpg	99
2274.991	0.365	365.2	2back	Block4	2back/STIM_022.jpg	100
2279.237	0.754	754.0	2back	Block4	2back/STIM_023.jpg	100
2282.372	0.541	540.8	2back	Block4	2back/STIM_023.jpg	99
2285.105	0.667	666.8	2back	Block4	2back/STIM_023.jpg	100
2289.303	0.335	334.7	2back	Block4	2back/STIM_024.jpg	99
2292.366	0.759	759.2	2back	Block4	2back/STIM_024.jpg	100
2296.056	0.833	832.7	2back	Block4	2back/STIM_024.jpg	99
2300.284	0.775	775.2	2back	Block4	2back/STIM_025.jpg	100
2304.059	0.505	504.8	2back	Block4	2back/STIM_025.jpg	99
2307.478	0.286	285.9	2back	Block4	2back/STIM_025.jpg	99
2311.079	0.478	478.0	2back	Block4	2back/STIM_026.jpg	99
2314.249	0.801	800.6	2back	Block4	2back/STIM_026.jpg	100
2318.733	0.639	638.9	2back	Block4	2back/STIM_026.jpg	100
2323.273	0.84	839.7	2back	Block4	2back/STIM_027.jpg	100
2326.598	0.687	687.0	2back	Block4	2back/STIM_027.jpg	99
2331.07	0.863	862.6	2back	Block4	2back/STIM_027.jpg	100
2334.394	0.803	803.2	2back	Block4	2back/STIM_028.jpg	100
2338.574	0.79	789.8	2back	Block4	2back/STIM_028.jpg	99
2343.04	0.764	764.3	2back	Block4	2back/STIM_028.jpg	99
2346.556	0.368	367.6	2back	Block4	2back/STIM_029.jpg	99
2350.312	0.881	880.8	2back	Block4	2back/STIM_029.jpg	100
2354.418	0.684	683.7	2back	Block4	2back/STIM_029.jpg	99
2357.268	0.7	699.9	2back	Block4	2back/STIM_030.jpg	99
2361.833	0.418	417.5	2back	Block4	2back/STIM_030.jpg	100
2364.475	0.458	458.4	2back	Block4	2back/STIM_030.jpg	99
2368.276	0.505	505.4	2back	Block4	2back/STIM_031.jpg	100
2371.775	0.854	854.0	2back	Block4	2back/STIM_031.jpg	99
2375.853	0.711	711.2	2back	Block4	2back/STIM_031.jpg	99
2379.698	0.663	662.9	2back	Block4	2back/STIM_032.jpg	99
2382.814	0.399	399.2	2back	Block4	2back/STIM_032.jpg	99
2385.714	0.567	566.9	2back	Block4	2back/STIM_032.jpg	99
2389.344	0.552	552.3	2back	Block4	2back/STIM_033.jpg	100
2392.936	0.569	569.2	2back	Block4	2back/STIM_033.jpg	99
2396.512	0.567	567.2	2back	Block4	2back/STIM_033.jpg	99
2399.81	0.723	722.7	2back	Block4	2back/STIM_034.jpg	99
2403.493	0.477	477.3	2back	Block4	2back/STIM_034.jpg	100
2406.454	0.911	910.9	2back	Block4	2back/STIM_034.jpg	99
2409.407	0.377	377.0	2back	Block4	2back/STIM_035.jpg	99
2413.73	0.545	544.7	2back	Block4	2back/STIM_035.jpg	99
2417.684	0.841	840.8	2back	Block4	2back/STIM_035.jpg	100
2421.567	0.404	404.2	2back	Block4	2back/STIM_036.jpg	99
2424.987	0.661	661.4	2back	Block4	2back/STIM_036.jpg	100
2428.061	0.664	663.6	2back	Block4	2back/STIM_036.jpg	99
2431.615	0.851	851.0	2back	Block4	2back/STIM_037.jpg	99
2434.704	0.61	609.6	2back	Block4	2back/STIM_037.jpg	99
2438.638	0.85	850.0	2back	Block4	2back/STIM_037.jpg	100
2442.531	0.509	509.0	2back	Block4	2back/STIM_038.jpg	99
2446.989	0.601	600.9	2back	Block4	2back/STIM_038.jpg	100
2449.858	0.64	640.1	2back	Block4	2back/STIM_038.jpg	100
2453.958	0.478	478.4	2back	Block4	2back/STIM_039.jpg	100
2457.955	0.664	663.9	2back	Block4	2back/STIM_039.jpg	100
2462.542	0.962	962.2	2back	Block4	2back/STIM_039.jpg	99
2465.583	0.793	793.4	0back	Block4	0back/STIM_000.jpg	99
2470.065	0.607	606.6	0back	Block4	0back/STIM_000.jpg	99
2473.123	0.595	594.6	0back	Block4	0back/STIM_000.jpg	99
2477.729	0.338	338.1	0back	Block4	0back/STIM_001.jpg	100
2481.165	0.566	566.3	0back	Block4	0back/STIM_001.jpg	100
2485.737	0.497	497.0	0back	Block4	0back/STIM_001.jpg	100
2489.373	0.564	563.8	0back	Block4	0back/STIM_002.jpg	99
2491.937	0.372	372.2	0back	Block4	0back/STIM_002.jpg	99
2496.342	0.528	527.8	0back	Block4	0back/STIM_002.jpg	99
2500.68	0.748	748.2	0back	Block4	0back/STIM_003.jpg	99
2504.336	0.451	450.6	0back	Block4	0back/STIM_003.jpg	99
2508.059	0.514	513.5	0back	Block4	0back/STIM_003.jpg	99
2511.319	0.392	392.4	0back	Block4	0back/STIM_004.jpg	99
2515.249	0.434	434.3	0back	Block4	0back/STIM_004.jpg	99
2517.857	0.639	639.0	0back	Block4	0back/STIM_004.jpg	99
2522.007	0.719	718.8	0back	Block4	0back/STIM_005.jpg	100
2526.009	0.698	698.5	0back	Block4	0back/STIM_005.jpg	99
2530.506	0.659	658.9	0back	Block4	0back/STIM_005.jpg	99
2535.049	0.472	472.2	0back	Block4	0back/STIM_006.jpg	99
2539.182	0.648	648.1	0back	Block4	0back/STIM_006.jpg	99
2543.773	0.652	651.7	0back	Block4	0back/STIM_006.jpg	99
2546.721	0.427	426.9	0back	Block4	0back/STIM_007.jpg	100
2549.43	0.438	437.8	0back	Block4	0back/STIM_007.jpg	100
2552.288	0.5	500.2	0back	Block4	0back/STIM_007.jpg	100
2555.178	0.621	621.4	0back	Block4	0back/STIM_008.jpg	100
2558.145	0.52	520.0	0back	Block4	0back/STIM_008.jpg	100
2562.212	0.575	575.0	0back	Block4	0back/STIM_008.jpg	100
2566.485	0.532	531.8	0back	Block4	0back/STIM_009.jpg	100
2570.256	0.537	537.2	0back	Block4	0back/STIM_009.jpg	100
2573.461	0.545	545.2	0back	Block4	0back/STIM_009.jpg	99
2576.919	0.486	485.7	0back	Block4	0back/STIM_010.jpg	99
2580.811	0.596	596.0	0back	Block4	0back/STIM_010.jpg	99
2584.215	0.585	584.6	0back	Block4	0back/STIM_010.jpg	99
2588.565	0.454	454.4	0back	Block4	0back/STIM_011.jpg	100
2592.515	0.461	461.3	0back	Block4	0back/STIM_011.jpg	100
2596.191	0.739	738.8	0back	Block4	0back/STIM_011.jpg	100
2600.737	0.493	493.4	0back	Block4	0back/STIM_012.jpg	99
2604.792	0.576	576.5	0back	Block4	0back/STIM_012.jpg	100
2608.449	0.555	554.6	0back	Block4	0back/STIM_012.jpg	100
2612.798	0.513	513.4	0back	Block4	0back/STIM_013.jpg	100
2615.664	0.637	637.4	0back	Block4	0back/STIM_013.jpg	99
2619.564	0.56	559.8	0back	Block4	0back/STIM_013.jpg	99
2622.673	0.562	561.6	0back	Block4	0back/STIM_014.jpg	99
2627.179	0.497	497.1	0back	Block4	0back/STIM_014.jpg	99
2630.944	0.356	355.7	0back	Block4	0back/STIM_014.jpg	100
2635.198	0.558	557.6	0back	Block4	0back/STIM_015.jpg	99
2639.42	0.686	686.5	0back	Block4	0back/STIM_015.jpg	99
2644.211	0.458	458.1	0back	Block4	0back/STIM_015.jpg	99
2647.232	0.539	538.8	0back	Block4	0back/STIM_016.jpg	100
2651.134	0.741	740.8	0back	Block4	0back/STIM_016.jpg	100
2655.858	0.485	485.2	0back	Block4	0back/STIM_016.jpg	100
2658.938	0.475	474.7	0back	Block4	0back/STIM_017.jpg	99
2663.249	0.445	445.4	0back	Block4	0back/STIM_017.jpg	100
2666.607	0.364	364.0	0back	Block4	0back/STIM_017.jpg	100
2670.513	0.454	454.1	0back	Block4	0back/STIM_018.jpg	100
2674.782	0.428	427.6	0back	Block4	0back/STIM_018.jpg	99
2677.761	0.493	493.4	0back	Block4	0back/STIM_018.jpg	100
2681.286	0.469	469.1	0back	Block4	0back/STIM_019.jpg	99
2683.926	0.575	574.8	0back	Block4	0back/STIM_019.jpg	100
2687.212	0.683	682.8	0back	Block4	0back/STIM_019.jpg	100
